Q,Q1,Q2,Q3,Q4,acc_sum,block,block_c,correct,correct_response,datetime,endtime,project,response,response_time,row_sel,session_number,squiggle1,squiggle1x,squiggle1y,squiggle2,squiggle2x,squiggle2y,squiggle3,squiggle3x,squiggle3y,squiggle4,squiggle4x,squiggle4y,start_end,starttime,subject_id,target_congruent,task,task_vers,testsquiggle,testsquigglex,testsquiggley,time_practice_delay,time_practice_fixation,time_practice_stimuli,time_practice_study,time_test_delay,time_test_fixation,time_test_stimuli,time_test_study,trial
1,1,0,0,0,0,prac,1,0,z,Fri Jun 06 2025 10:47:32 GMT-0500 (Central Daylight Time),129835.69999998808,O,None,2015,1,1,116.bmp,-120,-120,117.bmp,120,-120,118.bmp,-120,120,119.bmp,120,120,10826.699999988079,119009.0,7166,yes,SM,A,116.bmp,-120,-120,120865,114837,122882,116850,,,,,1
3,0,0,1,0,1,prac,1,1,m,Fri Jun 06 2025 10:47:32 GMT-0500 (Central Daylight Time),140149.29999998212,O,m,1486,2,1,120.bmp,-120,-120,121.bmp,120,-120,122.bmp,-120,120,123.bmp,120,120,10309.899999976158,129839.40000000596,7166,no,SM,A,123.bmp,-120,120,131695,125668,133712,127680,,,,,2
4,0,0,0,1,2,prac,1,1,m,Fri Jun 06 2025 10:47:32 GMT-0500 (Central Daylight Time),150146.09999999404,O,m,1181,3,1,124.bmp,-120,-120,125.bmp,120,-120,126.bmp,-120,120,127.bmp,120,120,9993.300000011921,140152.79999998212,7166,no,SM,A,124.bmp,120,120,142009,135981,144025,137993,,,,,3
2,0,1,0,0,3,prac,1,1,z,Fri Jun 06 2025 10:47:32 GMT-0500 (Central Daylight Time),160509.69999998808,O,z,1535,4,1,128.bmp,-120,-120,129.bmp,120,-120,130.bmp,-120,120,131.bmp,120,120,10360.199999988079,150149.5,7166,yes,SM,A,129.bmp,120,-120,152006,145978,154023,147990,,,,,4
3,0,0,1,0,3,prac,1,0,z,Fri Jun 06 2025 10:47:32 GMT-0500 (Central Daylight Time),171356.19999998808,O,None,2042,5,1,132.bmp,-120,-120,133.bmp,120,-120,134.bmp,-120,120,135.bmp,120,120,10842.799999982119,160513.40000000596,7166,yes,SM,A,134.bmp,-120,120,162369,156342,164385,158354,,,,,5
1,1,0,0,0,4,prac,1,1,m,Fri Jun 06 2025 10:47:32 GMT-0500 (Central Daylight Time),181436.29999998212,O,m,1262,6,1,136.bmp,-120,-120,137.bmp,120,-120,138.bmp,-120,120,139.bmp,120,120,10076.399999976158,171359.90000000596,7166,no,SM,A,139.bmp,-120,-120,173216,167188,175232,169201,,,,,6
2,0,1,0,0,5,prac,1,1,m,Fri Jun 06 2025 10:47:32 GMT-0500 (Central Daylight Time),191733.09999999404,O,m,1478,7,1,140.bmp,-120,-120,141.bmp,120,-120,142.bmp,-120,120,143.bmp,120,120,10293.40000000596,181439.69999998808,7166,no,SM,A,140.bmp,120,-120,183296,177268,185312,179280,,,,,7
4,0,0,0,1,6,prac,1,1,z,Fri Jun 06 2025 10:47:32 GMT-0500 (Central Daylight Time),202146.40000000596,O,z,1589,8,1,144.bmp,-120,-120,145.bmp,120,-120,146.bmp,-120,120,147.bmp,120,120,10409.800000011921,191736.59999999404,7166,yes,SM,A,147.bmp,120,120,193594,187565,195609,189579,,,,,8
4,0,0,0,1,1,test,1,1,m,Fri Jun 06 2025 10:47:32 GMT-0500 (Central Daylight Time),229504.59999999404,O,m,1685,1,1,148.bmp,-120,-120,149.bmp,120,-120,150.bmp,-120,120,143.bmp,120,120,9744.59999999404,219760.0,7166,no,SM,A,150.bmp,120,120,193594,187565,195609,189579,221617.0,215588.0,223633.0,217602.0,1
2,0,1,0,0,1,test,1,0,m,Fri Jun 06 2025 10:47:32 GMT-0500 (Central Daylight Time),239568.0,O,None,2015,2,1,101.bmp,-120,-120,102.bmp,120,-120,103.bmp,-120,120,104.bmp,120,120,10059.700000017881,229508.29999998212,7166,no,SM,A,103.bmp,120,-120,193594,187565,195609,189579,231364.0,225337.0,233381.0,227349.0,2
1,1,0,0,0,2,test,1,1,z,Fri Jun 06 2025 10:47:32 GMT-0500 (Central Daylight Time),249281.90000000596,O,z,1650,3,1,105.bmp,-120,-120,106.bmp,120,-120,107.bmp,-120,120,108.bmp,120,120,9710.700000017881,239571.19999998808,7166,yes,SM,A,105.bmp,-120,-120,193594,187565,195609,189579,241428.0,235399.0,243444.0,237413.0,3
3,0,0,1,0,2,test,1,0,m,Fri Jun 06 2025 10:47:32 GMT-0500 (Central Daylight Time),259345.09999999404,O,None,2015,4,1,109.bmp,-120,-120,110.bmp,120,-120,111.bmp,-120,120,112.bmp,120,120,10059.40000000596,249285.69999998808,7166,no,SM,A,109.bmp,-120,120,193594,187565,195609,189579,251141.0,245114.0,253158.0,247126.0,4
2,0,1,0,0,3,test,1,1,z,Fri Jun 06 2025 10:47:32 GMT-0500 (Central Daylight Time),268742.09999999404,O,z,1345,5,1,113.bmp,-120,-120,114.bmp,120,-120,115.bmp,-120,120,116.bmp,120,120,9393.59999999404,259348.5,7166,yes,SM,A,114.bmp,120,-120,193594,187565,195609,189579,261205.0,255177.0,263221.0,257190.0,5
3,0,0,1,0,4,test,1,1,z,Fri Jun 06 2025 10:47:32 GMT-0500 (Central Daylight Time),278155.90000000596,O,z,1356,6,1,117.bmp,-120,-120,118.bmp,120,-120,119.bmp,-120,120,120.bmp,120,120,9410.600000023842,268745.2999999821,7166,yes,SM,A,119.bmp,-120,120,193594,187565,195609,189579,270602.0,264573.0,272618.0,266586.0,6
4,0,0,0,1,5,test,1,1,z,Fri Jun 06 2025 10:47:32 GMT-0500 (Central Daylight Time),287669.6999999881,O,z,1462,7,1,121.bmp,-120,-120,122.bmp,120,-120,123.bmp,-120,120,124.bmp,120,120,9510.40000000596,278159.2999999821,7166,yes,SM,A,124.bmp,120,120,193594,187565,195609,189579,280016.0,273988.0,282032.0,276000.0,7
2,0,1,0,0,6,test,1,1,m,Fri Jun 06 2025 10:47:32 GMT-0500 (Central Daylight Time),297166.6999999881,O,m,1444,8,1,125.bmp,-120,-120,126.bmp,120,-120,127.bmp,-120,120,128.bmp,120,120,9493.799999982119,287672.90000000596,7166,no,SM,A,125.bmp,120,-120,193594,187565,195609,189579,289529.0,283501.0,291546.0,285514.0,8
3,0,0,1,0,6,test,1,0,m,Fri Jun 06 2025 10:47:32 GMT-0500 (Central Daylight Time),307230.0,O,None,2015,9,1,129.bmp,-120,-120,130.bmp,120,-120,131.bmp,-120,120,132.bmp,120,120,10059.59999999404,297170.40000000596,7166,no,SM,A,130.bmp,-120,120,193594,187565,195609,189579,299026.0,292999.0,301043.0,295011.0,9
4,0,0,0,1,7,test,1,1,z,Fri Jun 06 2025 10:47:32 GMT-0500 (Central Daylight Time),316294.2999999821,O,z,1004,10,1,137.bmp,-120,-120,138.bmp,120,-120,139.bmp,-120,120,140.bmp,120,120,9061.0,307233.2999999821,7166,yes,SM,A,140.bmp,120,120,193594,187565,195609,189579,309090.0,303062.0,311106.0,305075.0,10
3,0,0,1,0,7,test,1,0,z,Fri Jun 06 2025 10:47:32 GMT-0500 (Central Daylight Time),326124.40000000596,O,m,1780,11,1,133.bmp,-120,-120,134.bmp,120,-120,135.bmp,-120,120,136.bmp,120,120,9826.700000017881,316297.6999999881,7166,yes,SM,A,135.bmp,-120,120,193594,187565,195609,189579,318154.0,312126.0,320170.0,314139.0,11
2,0,1,0,0,8,test,1,1,m,Fri Jun 06 2025 10:47:32 GMT-0500 (Central Daylight Time),335604.5,O,m,1422,12,1,141.bmp,-120,-120,142.bmp,120,-120,143.bmp,-120,120,144.bmp,120,120,9476.90000000596,326127.59999999404,7166,no,SM,A,141.bmp,120,-120,193594,187565,195609,189579,327984.0,321956.0,330000.0,323969.0,12
3,0,0,1,0,9,test,1,1,m,Fri Jun 06 2025 10:47:32 GMT-0500 (Central Daylight Time),345218.1999999881,O,m,1549,13,1,145.bmp,-120,-120,146.bmp,120,-120,147.bmp,-120,120,148.bmp,120,120,9610.299999982119,335607.90000000596,7166,no,SM,A,146.bmp,-120,120,193594,187565,195609,189579,337464.0,331436.0,339481.0,333449.0,13
1,1,0,0,0,10,test,1,1,z,Fri Jun 06 2025 10:47:32 GMT-0500 (Central Daylight Time),355198.5,O,z,1927,14,1,149.bmp,-120,-120,150.bmp,120,-120,104.bmp,-120,120,101.bmp,120,120,9977.0,345221.5,7166,yes,SM,A,149.bmp,-120,-120,193594,187565,195609,189579,347078.0,341050.0,349094.0,343063.0,14
4,0,0,0,1,10,test,1,0,m,Fri Jun 06 2025 10:47:32 GMT-0500 (Central Daylight Time),365095.5,O,z,1843,15,1,110.bmp,-120,-120,111.bmp,120,-120,112.bmp,-120,120,113.bmp,120,120,9893.59999999404,355201.90000000596,7166,no,SM,A,111.bmp,120,120,193594,187565,195609,189579,357058.0,351030.0,359075.0,353043.0,15
1,1,0,0,0,11,test,1,1,m,Fri Jun 06 2025 10:47:32 GMT-0500 (Central Daylight Time),374642.5,O,m,1483,16,1,102.bmp,-120,-120,103.bmp,120,-120,104.bmp,-120,120,105.bmp,120,120,9543.800000011921,365098.6999999881,7166,no,SM,A,105.bmp,-120,-120,193594,187565,195609,189579,366955.0,360927.0,368972.0,362940.0,16
3,0,0,1,0,11,test,1,0,m,Fri Jun 06 2025 10:47:32 GMT-0500 (Central Daylight Time),384705.7999999821,O,None,2015,17,1,122.bmp,-120,-120,123.bmp,120,-120,124.bmp,-120,120,125.bmp,120,120,10059.799999982119,374646.0,7166,no,SM,A,122.bmp,-120,120,193594,187565,195609,189579,376502.0,370474.0,378519.0,372487.0,17
1,1,0,0,0,11,test,1,0,z,Fri Jun 06 2025 10:47:32 GMT-0500 (Central Daylight Time),394769.2999999821,O,None,2015,18,1,106.bmp,-120,-120,107.bmp,120,-120,108.bmp,-120,120,109.bmp,120,120,10060.09999999404,384709.1999999881,7166,yes,SM,A,106.bmp,-120,-120,193594,187565,195609,189579,386566.0,380538.0,388582.0,382550.0,18
2,0,1,0,0,12,test,1,1,z,Fri Jun 06 2025 10:47:32 GMT-0500 (Central Daylight Time),404066.5,O,z,1241,19,1,126.bmp,-120,-120,127.bmp,120,-120,128.bmp,-120,120,129.bmp,120,120,9294.09999999404,394772.40000000596,7166,yes,SM,A,127.bmp,120,-120,193594,187565,195609,189579,396629.0,390601.0,398645.0,392614.0,19
3,0,0,1,0,12,test,1,0,z,Fri Jun 06 2025 10:47:32 GMT-0500 (Central Daylight Time),414130.1999999881,O,None,2016,20,1,130.bmp,-120,-120,131.bmp,120,-120,132.bmp,-120,120,133.bmp,120,120,10060.5,404069.6999999881,7166,yes,SM,A,132.bmp,-120,120,193594,187565,195609,189579,405926.0,399898.0,407942.0,401922.0,20
1,1,0,0,0,13,test,1,1,m,Fri Jun 06 2025 10:47:32 GMT-0500 (Central Daylight Time),423377.1999999881,O,m,1184,21,1,114.bmp,-120,-120,115.bmp,120,-120,116.bmp,-120,120,117.bmp,120,120,9243.59999999404,414133.59999999404,7166,no,SM,A,116.bmp,-120,-120,193594,187565,195609,189579,415990.0,409962.0,418006.0,411974.0,21
4,0,0,0,1,14,test,1,1,z,Fri Jun 06 2025 10:47:32 GMT-0500 (Central Daylight Time),433124.09999999404,O,z,1572,22,1,118.bmp,-120,-120,119.bmp,120,-120,120.bmp,-120,120,121.bmp,120,120,9744.09999999404,423380.0,7166,yes,SM,A,121.bmp,120,120,193594,187565,195609,189579,425352.0,419208.0,427370.0,421222.0,22
1,1,0,0,0,15,test,1,1,m,Fri Jun 06 2025 10:47:32 GMT-0500 (Central Daylight Time),442837.59999999404,O,m,1654,23,1,134.bmp,-120,-120,135.bmp,120,-120,136.bmp,-120,120,137.bmp,120,120,9710.40000000596,433127.1999999881,7166,no,SM,A,137.bmp,-120,-120,193594,187565,195609,189579,434985.0,428956.0,437000.0,430968.0,23
2,0,1,0,0,16,test,1,1,z,Fri Jun 06 2025 10:47:32 GMT-0500 (Central Daylight Time),452701.09999999404,O,z,1812,24,1,142.bmp,-120,-120,143.bmp,120,-120,144.bmp,-120,120,145.bmp,120,120,9860.40000000596,442840.6999999881,7166,yes,SM,A,143.bmp,120,-120,193594,187565,195609,189579,444698.0,438669.0,446714.0,440682.0,24
4,0,0,0,1,16,test,1,0,m,Fri Jun 06 2025 10:47:32 GMT-0500 (Central Daylight Time),462765.7999999821,O,None,2017,25,1,146.bmp,-120,-120,147.bmp,120,-120,148.bmp,-120,120,149.bmp,120,120,10060.899999976158,452704.90000000596,7166,no,SM,A,148.bmp,120,120,193594,187565,195609,189579,454561.0,448533.0,456577.0,450546.0,25
1,1,0,0,0,16,test,1,0,z,Fri Jun 06 2025 10:47:32 GMT-0500 (Central Daylight Time),472828.40000000596,O,None,2015,26,1,138.bmp,-120,-120,139.bmp,120,-120,140.bmp,-120,120,141.bmp,120,120,10059.300000011921,462769.09999999404,7166,yes,SM,A,138.bmp,-120,-120,193594,187565,195609,189579,464624.0,458597.0,466641.0,460610.0,26
4,0,0,0,1,17,test,1,1,z,Fri Jun 06 2025 10:47:32 GMT-0500 (Central Daylight Time),482525.1999999881,O,z,1646,27,1,150.bmp,-120,-120,111.bmp,120,-120,101.bmp,-120,120,102.bmp,120,120,9693.59999999404,472831.59999999404,7166,yes,SM,A,102.bmp,120,120,193594,187565,195609,189579,474688.0,468660.0,476704.0,470673.0,27
3,0,0,1,0,17,test,1,0,m,Fri Jun 06 2025 10:47:32 GMT-0500 (Central Daylight Time),492588.59999999404,O,None,2015,28,1,103.bmp,-120,-120,104.bmp,120,-120,105.bmp,-120,120,106.bmp,120,120,10060.40000000596,482528.1999999881,7166,no,SM,A,103.bmp,-120,120,193594,187565,195609,189579,484385.0,478356.0,486402.0,480370.0,28
2,0,1,0,0,17,test,1,0,z,Fri Jun 06 2025 10:47:32 GMT-0500 (Central Daylight Time),502652.2999999821,O,None,2015,29,1,107.bmp,-120,-120,108.bmp,120,-120,109.bmp,-120,120,110.bmp,120,120,10060.299999982119,492592.0,7166,yes,SM,A,108.bmp,120,-120,193594,187565,195609,189579,494448.0,488420.0,496465.0,490434.0,29
3,0,0,1,0,18,test,1,1,z,Fri Jun 06 2025 10:47:32 GMT-0500 (Central Daylight Time),512399.09999999404,O,z,1686,30,1,111.bmp,-120,-120,112.bmp,120,-120,113.bmp,-120,120,114.bmp,120,120,9743.5,502655.59999999404,7166,yes,SM,A,113.bmp,-120,120,193594,187565,195609,189579,504512.0,498484.0,506528.0,500497.0,30
1,1,0,0,0,18,test,1,0,z,Fri Jun 06 2025 10:47:32 GMT-0500 (Central Daylight Time),522463.6999999881,O,None,2017,31,1,115.bmp,-120,-120,116.bmp,120,-120,117.bmp,-120,120,118.bmp,120,120,10060.699999988079,512403.0,7166,yes,SM,A,115.bmp,-120,-120,193594,187565,195609,189579,514259.0,508231.0,516275.0,510244.0,31
2,0,1,0,0,18,test,1,0,m,Fri Jun 06 2025 10:47:32 GMT-0500 (Central Daylight Time),532476.400000006,O,z,1955,32,1,119.bmp,-120,-120,120.bmp,120,-120,121.bmp,-120,120,122.bmp,120,120,10009.300000011921,522467.09999999404,7166,no,SM,A,119.bmp,120,-120,193594,187565,195609,189579,524322.0,518296.0,526339.0,520307.0,32
4,0,0,0,1,18,test,1,0,z,Fri Jun 06 2025 10:47:32 GMT-0500 (Central Daylight Time),542539.900000006,O,None,2016,33,1,131.bmp,-120,-120,132.bmp,120,-120,133.bmp,-120,120,134.bmp,120,120,10060.200000017881,532479.6999999881,7166,yes,SM,A,134.bmp,120,120,193594,187565,195609,189579,534336.0,528308.0,536352.0,530320.0,33
2,0,1,0,0,19,test,1,1,z,Fri Jun 06 2025 10:47:32 GMT-0500 (Central Daylight Time),551786.6999999881,O,z,1198,34,1,123.bmp,-120,-120,124.bmp,120,-120,125.bmp,-120,120,126.bmp,120,120,9243.59999999404,542543.099999994,7166,yes,SM,A,124.bmp,120,-120,193594,187565,195609,189579,544399.0,538371.0,546416.0,540384.0,34
4,0,0,0,1,19,test,1,0,m,Fri Jun 06 2025 10:47:32 GMT-0500 (Central Daylight Time),561833.7999999821,O,None,2014,35,1,127.bmp,-120,-120,128.bmp,120,-120,129.bmp,-120,120,130.bmp,120,120,10044.0,551789.7999999821,7166,no,SM,A,129.bmp,120,120,193594,187565,195609,189579,553646.0,547618.0,555648.0,549631.0,35
3,0,0,1,0,20,test,1,1,m,Fri Jun 06 2025 10:47:32 GMT-0500 (Central Daylight Time),571797.099999994,O,m,1912,36,1,135.bmp,-120,-120,136.bmp,120,-120,137.bmp,-120,120,138.bmp,120,120,9960.300000011921,561836.7999999821,7166,no,SM,A,135.bmp,-120,120,193594,187565,195609,189579,563693.0,557665.0,565710.0,559678.0,36
1,1,0,0,0,21,test,1,1,m,Fri Jun 06 2025 10:47:32 GMT-0500 (Central Daylight Time),581477.599999994,O,m,1621,37,1,139.bmp,-120,-120,140.bmp,120,-120,141.bmp,-120,120,142.bmp,120,120,9677.199999988079,571800.400000006,7166,no,SM,A,140.bmp,-120,-120,193594,187565,195609,189579,573657.0,567629.0,575673.0,569642.0,37
2,0,1,0,0,21,test,1,0,m,Fri Jun 06 2025 10:47:32 GMT-0500 (Central Daylight Time),591541.099999994,O,None,2015,38,1,143.bmp,-120,-120,144.bmp,120,-120,145.bmp,-120,120,146.bmp,120,120,10060.300000011921,581480.7999999821,7166,no,SM,A,145.bmp,120,-120,193594,187565,195609,189579,583337.0,577309.0,585354.0,579322.0,38
4,0,0,0,1,21,test,1,0,z,Fri Jun 06 2025 10:47:32 GMT-0500 (Central Daylight Time),601604.5,O,None,2016,39,1,147.bmp,-120,-120,148.bmp,120,-120,149.bmp,-120,120,150.bmp,120,120,10060.5,591544.0,7166,yes,SM,A,150.bmp,120,120,193594,187565,195609,189579,593401.0,587372.0,595417.0,589386.0,39
3,0,0,1,0,21,test,1,0,m,Fri Jun 06 2025 10:47:32 GMT-0500 (Central Daylight Time),611218.400000006,O,z,1565,40,1,104.bmp,-120,-120,105.bmp,120,-120,106.bmp,-120,120,107.bmp,120,120,9610.700000017881,601607.6999999881,7166,no,SM,A,105.bmp,-120,120,193594,187565,195609,189579,603464.0,597436.0,605481.0,599449.0,40
1,1,0,0,0,22,test,1,1,z,Fri Jun 06 2025 10:47:32 GMT-0500 (Central Daylight Time),620182.400000006,O,z,904,41,1,108.bmp,-120,-120,109.bmp,120,-120,110.bmp,-120,120,111.bmp,120,120,8961.300000011921,611221.099999994,7166,yes,SM,A,108.bmp,-120,-120,193594,187565,195609,189579,613078.0,607049.0,615094.0,609063.0,41
4,0,0,0,1,22,test,1,0,z,Fri Jun 06 2025 10:47:32 GMT-0500 (Central Daylight Time),629695.6999999881,O,m,1452,42,1,112.bmp,-120,-120,113.bmp,120,-120,114.bmp,-120,120,115.bmp,120,120,9509.90000000596,620185.7999999821,7166,yes,SM,A,115.bmp,120,120,193594,187565,195609,189579,622042.0,616014.0,624058.0,618027.0,42
1,1,0,0,0,22,test,1,0,z,Fri Jun 06 2025 10:47:32 GMT-0500 (Central Daylight Time),639759.099999994,O,None,2015,43,1,116.bmp,-120,-120,117.bmp,120,-120,118.bmp,-120,120,119.bmp,120,120,10060.300000011921,629698.7999999821,7166,yes,SM,A,116.bmp,-120,-120,193594,187565,195609,189579,631555.0,625527.0,633572.0,627540.0,43
4,0,0,0,1,22,test,1,0,m,Fri Jun 06 2025 10:47:32 GMT-0500 (Central Daylight Time),649589.5,O,z,1795,44,1,104.bmp,-120,-120,101.bmp,120,-120,102.bmp,-120,120,103.bmp,120,120,9827.200000017881,639762.2999999821,7166,no,SM,A,104.bmp,120,120,193594,187565,195609,189579,641602.0,635591.0,643619.0,637598.0,44
1,1,0,0,0,23,test,1,1,m,Fri Jun 06 2025 10:47:32 GMT-0500 (Central Daylight Time),659453.2999999821,O,m,1804,45,1,128.bmp,-120,-120,129.bmp,120,-120,130.bmp,-120,120,131.bmp,120,120,9860.59999999404,649592.6999999881,7166,no,SM,A,131.bmp,-120,-120,193594,187565,195609,189579,651449.0,645421.0,653465.0,647434.0,45
1,1,0,0,0,23,test,1,0,m,Fri Jun 06 2025 10:47:32 GMT-0500 (Central Daylight Time),669516.5,O,None,2016,46,1,120.bmp,-120,-120,121.bmp,120,-120,122.bmp,-120,120,123.bmp,120,120,10060.0,659456.5,7166,no,SM,A,121.bmp,-120,-120,193594,187565,195609,189579,661312.0,655285.0,663329.0,657298.0,46
3,0,0,1,0,23,test,1,0,z,Fri Jun 06 2025 10:47:32 GMT-0500 (Central Daylight Time),679580.2999999821,O,None,2015,47,1,124.bmp,-120,-120,125.bmp,120,-120,126.bmp,-120,120,127.bmp,120,120,10060.5,669519.7999999821,7166,yes,SM,A,126.bmp,-120,120,193594,187565,195609,189579,671376.0,665348.0,673393.0,667361.0,47
3,0,0,1,0,23,test,1,0,z,Fri Jun 06 2025 10:47:32 GMT-0500 (Central Daylight Time),689643.7999999821,O,None,2016,48,1,140.bmp,-120,-120,141.bmp,120,-120,142.bmp,-120,120,143.bmp,120,120,10060.299999982119,679583.5,7166,yes,SM,A,142.bmp,-120,120,193594,187565,195609,189579,681440.0,675412.0,683456.0,677424.0,48
2,0,1,0,0,23,test,1,0,z,Fri Jun 06 2025 10:47:32 GMT-0500 (Central Daylight Time),698757.400000006,O,m,1055,49,1,136.bmp,-120,-120,137.bmp,120,-120,138.bmp,-120,120,139.bmp,120,120,9110.200000017881,689647.1999999881,7166,yes,SM,A,137.bmp,120,-120,193594,187565,195609,189579,691503.0,685475.0,693519.0,687488.0,49
3,0,0,1,0,23,test,1,0,m,Fri Jun 06 2025 10:47:32 GMT-0500 (Central Daylight Time),708820.900000006,O,None,2016,50,1,132.bmp,-120,-120,133.bmp,120,-120,134.bmp,-120,120,135.bmp,120,120,10060.300000011921,698760.599999994,7166,no,SM,A,132.bmp,-120,120,193594,187565,195609,189579,700617.0,694589.0,702633.0,696602.0,50
2,0,1,0,0,24,test,1,1,z,Fri Jun 06 2025 10:47:32 GMT-0500 (Central Daylight Time),718434.5,O,z,1565,51,1,144.bmp,-120,-120,145.bmp,120,-120,146.bmp,-120,120,147.bmp,120,120,9610.90000000596,708823.599999994,7166,yes,SM,A,145.bmp,120,-120,193594,187565,195609,189579,710681.0,704652.0,712697.0,706666.0,51
4,0,0,0,1,24,test,1,0,m,Fri Jun 06 2025 10:47:32 GMT-0500 (Central Daylight Time),728498.400000006,O,None,2015,52,1,148.bmp,-120,-120,149.bmp,120,-120,150.bmp,-120,120,131.bmp,120,120,10060.800000011921,718437.599999994,7166,no,SM,A,148.bmp,120,120,193594,187565,195609,189579,720294.0,714266.0,722311.0,716279.0,52
3,0,0,1,0,24,test,1,0,z,Fri Jun 06 2025 10:47:32 GMT-0500 (Central Daylight Time),738561.6999999881,O,None,2016,53,1,101.bmp,-120,-120,102.bmp,120,-120,103.bmp,-120,120,104.bmp,120,120,10060.0,728501.6999999881,7166,yes,SM,A,103.bmp,-120,120,193594,187565,195609,189579,730358.0,724330.0,732374.0,726343.0,53
1,1,0,0,0,24,test,1,0,m,Fri Jun 06 2025 10:47:32 GMT-0500 (Central Daylight Time),748625.099999994,O,None,2015,54,1,105.bmp,-120,-120,106.bmp,120,-120,107.bmp,-120,120,108.bmp,120,120,10060.300000011921,738564.7999999821,7166,no,SM,A,107.bmp,-120,-120,193594,187565,195609,189579,740421.0,734393.0,742438.0,736406.0,54
4,0,0,0,1,24,test,1,0,z,Fri Jun 06 2025 10:47:32 GMT-0500 (Central Daylight Time),758688.7999999821,O,None,2016,55,1,109.bmp,-120,-120,110.bmp,120,-120,111.bmp,-120,120,112.bmp,120,120,10060.799999982119,748628.0,7166,yes,SM,A,112.bmp,120,120,193594,187565,195609,189579,750485.0,744456.0,752501.0,746470.0,55
2,0,1,0,0,25,test,1,1,m,Fri Jun 06 2025 10:47:32 GMT-0500 (Central Daylight Time),768352.5,O,m,1609,56,1,113.bmp,-120,-120,114.bmp,120,-120,115.bmp,-120,120,116.bmp,120,120,9660.0,758692.5,7166,no,SM,A,113.bmp,120,-120,193594,187565,195609,189579,760548.0,754521.0,762565.0,756534.0,56
4,0,0,0,1,25,test,1,0,m,Fri Jun 06 2025 10:47:32 GMT-0500 (Central Daylight Time),778415.599999994,O,None,2016,57,1,117.bmp,-120,-120,118.bmp,120,-120,119.bmp,-120,120,120.bmp,120,120,10059.40000000596,768356.1999999881,7166,no,SM,A,118.bmp,120,120,193594,187565,195609,189579,770212.0,764185.0,772228.0,766197.0,57
3,0,0,1,0,26,test,1,1,z,Fri Jun 06 2025 10:47:32 GMT-0500 (Central Daylight Time),788096.2999999821,O,z,1626,58,1,121.bmp,-120,-120,122.bmp,120,-120,123.bmp,-120,120,124.bmp,120,120,9677.59999999404,778418.6999999881,7166,yes,SM,A,123.bmp,-120,120,193594,187565,195609,189579,780275.0,774247.0,782292.0,776261.0,58
2,0,1,0,0,26,test,1,0,m,Fri Jun 06 2025 10:47:32 GMT-0500 (Central Daylight Time),798159.5,O,None,2016,59,1,125.bmp,-120,-120,126.bmp,120,-120,127.bmp,-120,120,128.bmp,120,120,10060.200000017881,788099.2999999821,7166,no,SM,A,128.bmp,120,-120,193594,187565,195609,189579,789956.0,783927.0,791972.0,785941.0,59
1,1,0,0,0,27,test,1,1,z,Fri Jun 06 2025 10:47:32 GMT-0500 (Central Daylight Time),807623.400000006,O,z,1402,60,1,129.bmp,-120,-120,130.bmp,120,-120,131.bmp,-120,120,132.bmp,120,120,9460.90000000596,798162.5,7166,yes,SM,A,129.bmp,-120,-120,193594,187565,195609,189579,800019.0,793991.0,802036.0,796004.0,60
2,0,1,0,0,27,test,1,0,z,Fri Jun 06 2025 10:47:32 GMT-0500 (Central Daylight Time),817553.5,O,m,1875,61,1,133.bmp,-120,-120,134.bmp,120,-120,135.bmp,-120,120,136.bmp,120,120,9926.800000011921,807626.6999999881,7166,yes,SM,A,134.bmp,120,-120,193594,187565,195609,189579,809484.0,803455.0,811499.0,805468.0,61
4,0,0,0,1,27,test,1,0,z,Fri Jun 06 2025 10:47:32 GMT-0500 (Central Daylight Time),827616.900000006,O,None,2015,62,1,141.bmp,-120,-120,142.bmp,120,-120,143.bmp,-120,120,144.bmp,120,120,10060.0,817556.900000006,7166,yes,SM,A,144.bmp,120,120,193594,187565,195609,189579,819413.0,813385.0,821430.0,815398.0,62
1,1,0,0,0,27,test,1,0,m,Fri Jun 06 2025 10:47:32 GMT-0500 (Central Daylight Time),837680.5,O,None,2015,63,1,145.bmp,-120,-120,146.bmp,120,-120,147.bmp,-120,120,148.bmp,120,120,10060.800000011921,827619.6999999881,7166,no,SM,A,145.bmp,-120,120,193594,187565,195609,189579,829477.0,823448.0,831493.0,825462.0,63
2,0,1,0,0,27,test,1,0,z,Fri Jun 06 2025 10:47:32 GMT-0500 (Central Daylight Time),847594.2999999821,O,m,1849,64,1,149.bmp,-120,-120,150.bmp,120,-120,112.bmp,-120,120,101.bmp,120,120,9911.0,837683.2999999821,7166,yes,SM,A,150.bmp,120,-120,193594,187565,195609,189579,839541.0,833512.0,841557.0,835525.0,64
4,0,0,0,1,28,test,1,1,m,Fri Jun 06 2025 10:47:32 GMT-0500 (Central Daylight Time),857041.2999999821,O,m,1275,65,1,102.bmp,-120,-120,103.bmp,120,-120,104.bmp,-120,120,105.bmp,120,120,9443.899999976158,847597.400000006,7166,no,SM,A,104.bmp,120,120,193594,187565,195609,189579,849581.0,843426.0,851587.0,845438.0,65
3,0,0,1,0,28,test,1,0,m,Fri Jun 06 2025 10:47:32 GMT-0500 (Central Daylight Time),867104.900000006,O,None,2016,66,1,106.bmp,-120,-120,107.bmp,120,-120,108.bmp,-120,120,109.bmp,120,120,10060.5,857044.400000006,7166,no,SM,A,109.bmp,-120,120,193594,187565,195609,189579,858901.0,852873.0,860917.0,854886.0,66
2,0,1,0,0,29,test,1,1,m,Fri Jun 06 2025 10:47:32 GMT-0500 (Central Daylight Time),876818.6999999881,O,m,1665,67,1,137.bmp,-120,-120,138.bmp,120,-120,139.bmp,-120,120,140.bmp,120,120,9710.699999988079,867108.0,7166,no,SM,A,139.bmp,120,-120,193594,187565,195609,189579,868964.0,862936.0,870981.0,864949.0,67
3,0,0,1,0,30,test,1,1,z,Fri Jun 06 2025 10:47:32 GMT-0500 (Central Daylight Time),886648.5,O,z,1775,68,1,110.bmp,-120,-120,111.bmp,120,-120,112.bmp,-120,120,113.bmp,120,120,9827.0,876821.5,7166,yes,SM,A,112.bmp,-120,120,193594,187565,195609,189579,878678.0,872650.0,880694.0,874663.0,68
1,1,0,0,0,30,test,1,0,m,Fri Jun 06 2025 10:47:32 GMT-0500 (Central Daylight Time),896095.5,O,z,1394,69,1,114.bmp,-120,-120,115.bmp,120,-120,116.bmp,-120,120,117.bmp,120,120,9443.800000011921,886651.6999999881,7166,no,SM,A,115.bmp,-120,-120,193594,187565,195609,189579,888508.0,882480.0,890524.0,884493.0,69
2,0,1,0,0,30,test,1,0,m,Fri Jun 06 2025 10:47:32 GMT-0500 (Central Daylight Time),906159.099999994,O,None,2015,70,1,118.bmp,-120,-120,119.bmp,120,-120,120.bmp,-120,120,121.bmp,120,120,10060.800000011921,896098.2999999821,7166,no,SM,A,120.bmp,120,-120,193594,187565,195609,189579,897955.0,891927.0,899972.0,893940.0,70
4,0,0,0,1,30,test,1,0,z,Fri Jun 06 2025 10:47:32 GMT-0500 (Central Daylight Time),916222.6999999881,O,None,2016,71,1,122.bmp,-120,-120,123.bmp,120,-120,124.bmp,-120,120,125.bmp,120,120,10060.199999988079,906162.5,7166,yes,SM,A,125.bmp,120,120,193594,187565,195609,189579,908019.0,901991.0,910035.0,904004.0,71
1,1,0,0,0,30,test,1,0,z,Fri Jun 06 2025 10:47:32 GMT-0500 (Central Daylight Time),926319.6999999881,O,None,2002,72,1,126.bmp,-120,-120,127.bmp,120,-120,128.bmp,-120,120,129.bmp,120,120,10094.0,916225.6999999881,7166,yes,SM,A,126.bmp,-120,-120,193594,187565,195609,189579,918082.0,912054.0,920146.0,914067.0,72
2,0,1,0,0,30,test,1,0,z,Fri Jun 06 2025 10:47:32 GMT-0500 (Central Daylight Time),935983.0,O,m,1603,73,1,130.bmp,-120,-120,131.bmp,120,-120,132.bmp,-120,120,133.bmp,120,120,9659.90000000596,926323.099999994,7166,yes,SM,A,131.bmp,120,-120,193594,187565,195609,189579,928179.0,922152.0,930196.0,924164.0,73
4,0,0,0,1,31,test,1,1,m,Fri Jun 06 2025 10:47:32 GMT-0500 (Central Daylight Time),945880.099999994,O,m,1834,74,1,134.bmp,-120,-120,135.bmp,120,-120,136.bmp,-120,120,137.bmp,120,120,9894.0,935986.099999994,7166,no,SM,A,136.bmp,120,120,193594,187565,195609,189579,937843.0,931814.0,939860.0,933828.0,74
2,0,1,0,0,32,test,1,1,m,Fri Jun 06 2025 10:47:32 GMT-0500 (Central Daylight Time),955960.099999994,O,m,1918,75,1,138.bmp,-120,-120,139.bmp,120,-120,140.bmp,-120,120,141.bmp,120,120,10076.90000000596,945883.1999999881,7166,no,SM,A,141.bmp,120,-120,193594,187565,195609,189579,947840.0,941711.0,949856.0,943834.0,75
1,1,0,0,0,32,test,1,0,z,Fri Jun 06 2025 10:47:32 GMT-0500 (Central Daylight Time),966023.900000006,O,None,2016,76,1,142.bmp,-120,-120,143.bmp,120,-120,144.bmp,-120,120,145.bmp,120,120,10060.700000017881,955963.1999999881,7166,yes,SM,A,142.bmp,-120,-120,193594,187565,195609,189579,957820.0,951792.0,959836.0,953805.0,76
3,0,0,1,0,32,test,1,0,z,Fri Jun 06 2025 10:47:32 GMT-0500 (Central Daylight Time),975804.099999994,O,m,1723,77,1,150.bmp,-120,-120,111.bmp,120,-120,101.bmp,-120,120,102.bmp,120,120,9777.199999988079,966026.900000006,7166,yes,SM,A,101.bmp,-120,120,193594,187565,195609,189579,967883.0,961855.0,969900.0,963868.0,77
1,1,0,0,0,32,test,1,0,m,Fri Jun 06 2025 10:47:32 GMT-0500 (Central Daylight Time),985867.6999999881,O,None,2016,78,1,146.bmp,-120,-120,147.bmp,120,-120,148.bmp,-120,120,149.bmp,120,120,10060.09999999404,975807.599999994,7166,no,SM,A,147.bmp,-120,-120,193594,187565,195609,189579,977664.0,971636.0,979680.0,973648.0,78
4,0,0,0,1,32,test,1,0,m,Fri Jun 06 2025 10:47:32 GMT-0500 (Central Daylight Time),995931.099999994,O,None,2015,79,1,107.bmp,-120,-120,108.bmp,120,-120,109.bmp,-120,120,110.bmp,120,120,10059.300000011921,985871.7999999821,7166,no,SM,A,107.bmp,120,120,193594,187565,195609,189579,987727.0,981700.0,989744.0,983712.0,79
3,0,0,1,0,33,test,1,1,m,Fri Jun 06 2025 10:47:32 GMT-0500 (Central Daylight Time),1005444.599999994,O,m,1464,80,1,103.bmp,-120,-120,104.bmp,120,-120,105.bmp,-120,120,106.bmp,120,120,9509.699999988079,995934.900000006,7166,no,SM,A,106.bmp,-120,120,193594,187565,195609,189579,997791.0,991763.0,999807.0,993775.0,80
