block_c,block_dur,condition,countdown,datetime,endtime,list,multichar_response,project,response,response_time,session_number,start_end,starttime,subject_id,task,task_vers,trial
,,,,Mon Mar 02 2026 14:04:38 GMT-0600 (Central Standard Time),,,,O,space,472,1,,,7725,WL,B,
prac,,0,,Mon Mar 02 2026 14:04:38 GMT-0600 (Central Standard Time),,NA,b,O,b,5027,1,,,7725,WL,B,1.0
prac,,0,,Mon Mar 02 2026 14:04:38 GMT-0600 (Central Standard Time),,NA,bo,O,o,830,1,,,7725,WL,B,1.0
prac,,0,,Mon Mar 02 2026 14:04:38 GMT-0600 (Central Standard Time),,NA,boo,O,o,131,1,,,7725,WL,B,1.0
prac,,0,,Mon Mar 02 2026 14:04:38 GMT-0600 (Central Standard Time),,NA,boos,O,s,702,1,,,7725,WL,B,1.0
prac,,0,,Mon Mar 02 2026 14:04:38 GMT-0600 (Central Standard Time),,NA,boost,O,t,493,1,,,7725,WL,B,1.0
prac,,0,,Mon Mar 02 2026 14:04:38 GMT-0600 (Central Standard Time),,NA,boostenter,O,enter,3121,1,,,7725,WL,B,1.0
1,2.4179999828338623,learn,57582.00001716614,Mon Mar 02 2026 14:04:38 GMT-0600 (Central Standard Time),151717.5,A,s,O,s,2406,1,2417.0,149300.5,7725,WL,B,1.0
1,2.8329999446868896,learn,57167.00005531311,Mon Mar 02 2026 14:04:38 GMT-0600 (Central Standard Time),152132.90000000596,A,st,O,t,405,1,2832.4000000059605,149300.5,7725,WL,B,1.0
1,3.2829999923706055,learn,56717.000007629395,Mon Mar 02 2026 14:04:38 GMT-0600 (Central Standard Time),152583.09999999404,A,str,O,r,429,1,3282.5999999940395,149300.5,7725,WL,B,1.0
1,3.6500000953674316,learn,56349.99990463257,Mon Mar 02 2026 14:04:38 GMT-0600 (Central Standard Time),152949.59999999404,A,stre,O,e,358,1,3649.0999999940395,149300.5,7725,WL,B,1.0
1,3.7829999923706055,learn,56217.000007629395,Mon Mar 02 2026 14:04:38 GMT-0600 (Central Standard Time),153083.40000000596,A,stree,O,e,128,1,3782.9000000059605,149300.5,7725,WL,B,1.0
1,4.082000017166138,learn,55917.99998283386,Mon Mar 02 2026 14:04:38 GMT-0600 (Central Standard Time),153382.20000001788,A,street,O,t,285,1,4081.7000000178814,149300.5,7725,WL,B,1.0
1,9.480000019073486,learn,50519.999980926514,Mon Mar 02 2026 14:04:38 GMT-0600 (Central Standard Time),158780.09999999404,A,streetenter,O,enter,5387,1,9479.59999999404,149300.5,7725,WL,B,1.0
1,11.04699993133545,learn,48953.00006866455,Mon Mar 02 2026 14:04:38 GMT-0600 (Central Standard Time),160346.90000000596,A,g,O,g,1550,1,1566.300000011921,158780.59999999404,7725,WL,B,2.0
1,11.546000003814697,learn,48453.9999961853,Mon Mar 02 2026 14:04:38 GMT-0600 (Central Standard Time),160846.40000000596,A,gr,O,r,483,1,2065.800000011921,158780.59999999404,7725,WL,B,2.0
1,12.480000019073486,learn,47519.999980926514,Mon Mar 02 2026 14:04:38 GMT-0600 (Central Standard Time),161779.90000000596,A,gra,O,a,921,1,2999.300000011921,158780.59999999404,7725,WL,B,2.0
1,13.645999908447266,learn,46354.000091552734,Mon Mar 02 2026 14:04:38 GMT-0600 (Central Standard Time),162945.80000001192,A,gras,O,s,1157,1,4165.200000017881,158780.59999999404,7725,WL,B,2.0
1,20.111000061035156,learn,39888.999938964844,Mon Mar 02 2026 14:04:38 GMT-0600 (Central Standard Time),169410.80000001192,A,grasenter,O,enter,6456,1,10630.200000017881,158780.59999999404,7725,WL,B,2.0
1,24.2260000705719,learn,35773.9999294281,Mon Mar 02 2026 14:04:38 GMT-0600 (Central Standard Time),173525.70000001788,A,s,O,s,4104,1,4114.5,169411.20000001788,7725,WL,B,3.0
1,24.64199995994568,learn,35358.00004005432,Mon Mar 02 2026 14:04:38 GMT-0600 (Central Standard Time),173942.40000000596,A,st,O,t,395,1,4531.199999988079,169411.20000001788,7725,WL,B,3.0
1,25.210999965667725,learn,34789.000034332275,Mon Mar 02 2026 14:04:38 GMT-0600 (Central Standard Time),174510.5,A,sta,O,a,556,1,5099.299999982119,169411.20000001788,7725,WL,B,3.0
1,25.89199995994568,learn,34108.00004005432,Mon Mar 02 2026 14:04:38 GMT-0600 (Central Standard Time),175192.20000001788,A,star,O,r,657,1,5781.0,169411.20000001788,7725,WL,B,3.0
1,28.808000087738037,learn,31191.999912261963,Mon Mar 02 2026 14:04:38 GMT-0600 (Central Standard Time),178108.09999999404,A,starenter,O,enter,2895,1,8696.899999976158,169411.20000001788,7725,WL,B,3.0
1,35.07299995422363,learn,24927.000045776367,Mon Mar 02 2026 14:04:38 GMT-0600 (Central Standard Time),184372.80000001192,A,p,O,p,6254,1,6264.300000011921,178108.5,7725,WL,B,4.0
1,35.55800008773804,learn,24441.999912261963,Mon Mar 02 2026 14:04:38 GMT-0600 (Central Standard Time),184858.30000001192,A,pu,O,u,472,1,6749.800000011921,178108.5,7725,WL,B,4.0
1,36.973000049591064,learn,23026.999950408936,Mon Mar 02 2026 14:04:38 GMT-0600 (Central Standard Time),186273.0,A,pub,O,b,1393,1,8164.5,178108.5,7725,WL,B,4.0
1,37.5220000743866,learn,22477.999925613403,Mon Mar 02 2026 14:04:38 GMT-0600 (Central Standard Time),186821.70000001788,A,publ,O,l,530,1,8713.200000017881,178108.5,7725,WL,B,4.0
1,37.8050000667572,learn,22194.999933242798,Mon Mar 02 2026 14:04:38 GMT-0600 (Central Standard Time),187104.80000001192,A,publi,O,i,264,1,8996.300000011921,178108.5,7725,WL,B,4.0
1,38.48900008201599,learn,21510.99991798401,Mon Mar 02 2026 14:04:38 GMT-0600 (Central Standard Time),187789.0,A,public,O,c,660,1,9680.5,178108.5,7725,WL,B,4.0
1,39.0220000743866,learn,20977.999925613403,Mon Mar 02 2026 14:04:38 GMT-0600 (Central Standard Time),188322.0,A,publicenter,O,enter,518,1,10213.5,178108.5,7725,WL,B,4.0
1,55.15000009536743,learn,4849.999904632568,Mon Mar 02 2026 14:04:38 GMT-0600 (Central Standard Time),204450.20000001788,A,enter,O,enter,16114,1,16127.90000000596,188322.30000001192,7725,WL,B,5.0
1,57.930999994277954,learn,2069.000005722046,Mon Mar 02 2026 14:04:38 GMT-0600 (Central Standard Time),207231.40000000596,A,enter,O,enter,2768,1,2780.800000011921,204450.59999999404,7725,WL,B,6.0
1,58.61400008201599,learn,1385.9999179840088,Mon Mar 02 2026 14:04:38 GMT-0600 (Central Standard Time),207914.70000001788,A,enter,O,enter,676,1,682.9000000059605,207231.80000001192,7725,WL,B,7.0
1,59.02999997138977,learn,970.0000286102295,Mon Mar 02 2026 14:04:38 GMT-0600 (Central Standard Time),208330.20000001788,A,enter,O,enter,402,1,415.2000000178814,207915.0,7725,WL,B,8.0
1,59.348000049591064,learn,651.9999504089355,Mon Mar 02 2026 14:04:38 GMT-0600 (Central Standard Time),208648.5,A,enter,O,enter,305,1,318.0,208330.5,7725,WL,B,9.0
1,59.6800000667572,learn,319.99993324279785,Mon Mar 02 2026 14:04:38 GMT-0600 (Central Standard Time),208980.59999999404,A,enter,O,enter,314,1,331.7999999821186,208648.80000001192,7725,WL,B,10.0
1,59.99900007247925,learn,0.9999275207519531,Mon Mar 02 2026 14:04:38 GMT-0600 (Central Standard Time),209299.5,A,enter,O,enter,315,1,318.59999999403954,208980.90000000596,7725,WL,B,11.0
1,60.01200008392334,learn,-12.000083923339844,Mon Mar 02 2026 14:04:38 GMT-0600 (Central Standard Time),209312.70000001788,A,None,O,None,8,1,12.800000011920929,209299.90000000596,7725,WL,B,12.0
2,2.1659998893737793,learn,57834.00011062622,Mon Mar 02 2026 14:04:38 GMT-0600 (Central Standard Time),282525.2000000179,A,s,O,s,2155,1,2165.7000000178814,280359.5,7725,WL,B,1.0
2,2.5810000896453857,learn,57418.999910354614,Mon Mar 02 2026 14:04:38 GMT-0600 (Central Standard Time),282940.90000000596,A,st,O,t,394,1,2581.4000000059605,280359.5,7725,WL,B,1.0
2,3.0490000247955322,learn,56950.99997520447,Mon Mar 02 2026 14:04:38 GMT-0600 (Central Standard Time),283408.3000000119,A,str,O,r,446,1,3048.800000011921,280359.5,7725,WL,B,1.0
2,3.430999994277954,learn,56569.000005722046,Mon Mar 02 2026 14:04:38 GMT-0600 (Central Standard Time),283790.7000000179,A,stre,O,e,364,1,3431.2000000178814,280359.5,7725,WL,B,1.0
2,3.5810000896453857,learn,56418.999910354614,Mon Mar 02 2026 14:04:38 GMT-0600 (Central Standard Time),283941.0,A,stree,O,e,138,1,3581.5,280359.5,7725,WL,B,1.0
2,4.115000009536743,learn,55884.99999046326,Mon Mar 02 2026 14:04:38 GMT-0600 (Central Standard Time),284474.2000000179,A,street,O,t,518,1,4114.700000017881,280359.5,7725,WL,B,1.0
2,5.147000074386597,learn,54852.9999256134,Mon Mar 02 2026 14:04:38 GMT-0600 (Central Standard Time),285506.8000000119,A,streetenter,O,enter,1011,1,5147.300000011921,280359.5,7725,WL,B,1.0
2,7.562999963760376,learn,52437.000036239624,Mon Mar 02 2026 14:04:38 GMT-0600 (Central Standard Time),287922.8000000119,A,g,O,g,2400,1,2415.800000011921,285507.0,7725,WL,B,2.0
2,8.01200008392334,learn,51987.99991607666,Mon Mar 02 2026 14:04:38 GMT-0600 (Central Standard Time),288371.59999999404,A,gr,O,r,431,1,2864.5999999940395,285507.0,7725,WL,B,2.0
2,8.829999923706055,learn,51170.000076293945,Mon Mar 02 2026 14:04:38 GMT-0600 (Central Standard Time),289190.0,A,gra,O,a,806,1,3683.0,285507.0,7725,WL,B,2.0
2,9.461999893188477,learn,50538.00010681152,Mon Mar 02 2026 14:04:38 GMT-0600 (Central Standard Time),289821.8000000119,A,gras,O,s,620,1,4314.800000011921,285507.0,7725,WL,B,2.0
2,9.630000114440918,learn,50369.99988555908,Mon Mar 02 2026 14:04:38 GMT-0600 (Central Standard Time),289989.2000000179,A,grass,O,s,155,1,4482.200000017881,285507.0,7725,WL,B,2.0
2,12.994999885559082,learn,47005.00011444092,Mon Mar 02 2026 14:04:38 GMT-0600 (Central Standard Time),293354.5,A,grassenter,O,enter,3347,1,7847.5,285507.0,7725,WL,B,2.0
2,15.144999980926514,learn,44855.000019073486,Mon Mar 02 2026 14:04:38 GMT-0600 (Central Standard Time),295504.5,A,s,O,s,2137,1,2149.699999988079,293354.8000000119,7725,WL,B,3.0
2,15.609999895095825,learn,44390.000104904175,Mon Mar 02 2026 14:04:38 GMT-0600 (Central Standard Time),295969.8000000119,A,st,O,t,456,1,2615.0,293354.8000000119,7725,WL,B,3.0
2,16.194000005722046,learn,43805.999994277954,Mon Mar 02 2026 14:04:38 GMT-0600 (Central Standard Time),296554.0,A,sta,O,a,569,1,3199.199999988079,293354.8000000119,7725,WL,B,3.0
2,16.64400005340576,learn,43355.99994659424,Mon Mar 02 2026 14:04:38 GMT-0600 (Central Standard Time),297004.0,A,star,O,r,429,1,3649.199999988079,293354.8000000119,7725,WL,B,3.0
2,18.460000038146973,learn,41539.99996185303,Mon Mar 02 2026 14:04:38 GMT-0600 (Central Standard Time),298819.3000000119,A,starenter,O,enter,1807,1,5464.5,293354.8000000119,7725,WL,B,3.0
2,19.842999935150146,learn,40157.00006484985,Mon Mar 02 2026 14:04:38 GMT-0600 (Central Standard Time),300202.09999999404,A,d,O,d,1368,1,1382.5,298819.59999999404,7725,WL,B,4.0
2,20.441999912261963,learn,39558.00008773804,Mon Mar 02 2026 14:04:38 GMT-0600 (Central Standard Time),300801.8000000119,A,do,O,o,581,1,1982.2000000178814,298819.59999999404,7725,WL,B,4.0
2,20.64199995994568,learn,39358.00004005432,Mon Mar 02 2026 14:04:38 GMT-0600 (Central Standard Time),301001.8000000119,A,doo,O,o,193,1,2182.2000000178814,298819.59999999404,7725,WL,B,4.0
2,21.259000062942505,learn,38740.999937057495,Mon Mar 02 2026 14:04:38 GMT-0600 (Central Standard Time),301618.8000000119,A,door,O,r,603,1,2799.2000000178814,298819.59999999404,7725,WL,B,4.0
2,22.95799994468689,learn,37042.00005531311,Mon Mar 02 2026 14:04:38 GMT-0600 (Central Standard Time),303317.8000000119,A,doorenter,O,enter,1679,1,4498.200000017881,298819.59999999404,7725,WL,B,4.0
2,23.891000032424927,learn,36108.99996757507,Mon Mar 02 2026 14:04:38 GMT-0600 (Central Standard Time),304250.7000000179,A,a,O,a,927,1,932.7000000178814,303318.0,7725,WL,B,5.0
2,24.60800004005432,learn,35391.99995994568,Mon Mar 02 2026 14:04:38 GMT-0600 (Central Standard Time),304967.3000000119,A,ar,O,r,703,1,1649.300000011921,303318.0,7725,WL,B,5.0
2,25.575000047683716,learn,34424.999952316284,Mon Mar 02 2026 14:04:38 GMT-0600 (Central Standard Time),305934.09999999404,A,arm,O,m,954,1,2616.0999999940395,303318.0,7725,WL,B,5.0
2,26.924000024795532,learn,33075.99997520447,Mon Mar 02 2026 14:04:38 GMT-0600 (Central Standard Time),307283.2000000179,A,armenter,O,enter,1332,1,3965.2000000178814,303318.0,7725,WL,B,5.0
2,30.121999979019165,learn,29878.000020980835,Mon Mar 02 2026 14:04:38 GMT-0600 (Central Standard Time),310481.59999999404,A,p,O,p,3184,1,3198.0,307283.59999999404,7725,WL,B,6.0
2,30.77300000190735,learn,29226.99999809265,Mon Mar 02 2026 14:04:38 GMT-0600 (Central Standard Time),311133.09999999404,A,pu,O,u,631,1,3849.5,307283.59999999404,7725,WL,B,6.0
2,31.938999891281128,learn,28061.000108718872,Mon Mar 02 2026 14:04:38 GMT-0600 (Central Standard Time),312298.5,A,pup,O,p,1157,1,5014.9000000059605,307283.59999999404,7725,WL,B,6.0
2,32.3050000667572,learn,27694.999933242798,Mon Mar 02 2026 14:04:38 GMT-0600 (Central Standard Time),312664.40000000596,A,pupi,O,i,341,1,5380.800000011921,307283.59999999404,7725,WL,B,6.0
2,32.57100009918213,learn,27428.99990081787,Mon Mar 02 2026 14:04:38 GMT-0600 (Central Standard Time),312930.7000000179,A,pupil,O,l,260,1,5647.100000023842,307283.59999999404,7725,WL,B,6.0
2,33.58800005912781,learn,26411.999940872192,Mon Mar 02 2026 14:04:38 GMT-0600 (Central Standard Time),313947.59999999404,A,pupilenter,O,enter,1001,1,6664.0,307283.59999999404,7725,WL,B,6.0
2,36.056999921798706,learn,23943.000078201294,Mon Mar 02 2026 14:04:38 GMT-0600 (Central Standard Time),316416.09999999404,A,c,O,c,2456,1,2468.199999988079,313947.90000000596,7725,WL,B,7.0
2,37.38800001144409,learn,22611.99998855591,Mon Mar 02 2026 14:04:38 GMT-0600 (Central Standard Time),317748.0,A,ci,O,i,1310,1,3800.0999999940395,313947.90000000596,7725,WL,B,7.0
2,37.986000061035156,learn,22013.999938964844,Mon Mar 02 2026 14:04:38 GMT-0600 (Central Standard Time),318346.0,A,cit,O,t,581,1,4398.0999999940395,313947.90000000596,7725,WL,B,7.0
2,38.187000036239624,learn,21812.999963760376,Mon Mar 02 2026 14:04:38 GMT-0600 (Central Standard Time),318546.90000000596,A,city,O,y,186,1,4599.0,313947.90000000596,7725,WL,B,7.0
2,39.25500011444092,learn,20744.999885559082,Mon Mar 02 2026 14:04:38 GMT-0600 (Central Standard Time),319614.59999999404,A,cityenter,O,enter,1049,1,5666.699999988079,313947.90000000596,7725,WL,B,7.0
2,43.30200004577637,learn,16697.999954223633,Mon Mar 02 2026 14:04:38 GMT-0600 (Central Standard Time),323661.59999999404,A,l,O,l,4037,1,4046.5999999940395,319615.0,7725,WL,B,8.0
2,44.80299997329712,learn,15197.00002670288,Mon Mar 02 2026 14:04:38 GMT-0600 (Central Standard Time),325163.09999999404,A,la,O,a,1478,1,5548.0999999940395,319615.0,7725,WL,B,8.0
2,46.25200009346008,learn,13747.999906539917,Mon Mar 02 2026 14:04:38 GMT-0600 (Central Standard Time),326612.09999999404,A,lak,O,k,1432,1,6997.0999999940395,319615.0,7725,WL,B,8.0
2,50.56699991226196,learn,9433.000087738037,Mon Mar 02 2026 14:04:38 GMT-0600 (Central Standard Time),330926.7000000179,A,lake,O,e,4295,1,11311.700000017881,319615.0,7725,WL,B,8.0
2,57.48099994659424,learn,2519.0000534057617,Mon Mar 02 2026 14:04:38 GMT-0600 (Central Standard Time),337840.3000000119,A,lakeenter,O,enter,6895,1,18225.30000001192,319615.0,7725,WL,B,8.0
2,60.01300001144409,learn,-13.000011444091797,Mon Mar 02 2026 14:04:38 GMT-0600 (Central Standard Time),340373.0,A,None,O,None,2528,1,2532.4000000059605,337840.59999999404,7725,WL,B,9.0
3,1.2839999198913574,learn,58716.00008010864,Mon Mar 02 2026 14:04:38 GMT-0600 (Central Standard Time),422364.40000000596,A,s,O,s,1277,1,1284.199999988079,421080.2000000179,7725,WL,B,1.0
3,1.7170000076293945,learn,58282.999992370605,Mon Mar 02 2026 14:04:38 GMT-0600 (Central Standard Time),422796.90000000596,A,st,O,t,422,1,1716.699999988079,421080.2000000179,7725,WL,B,1.0
3,2.132999897003174,learn,57867.000102996826,Mon Mar 02 2026 14:04:38 GMT-0600 (Central Standard Time),423213.3000000119,A,str,O,r,405,1,2133.0999999940395,421080.2000000179,7725,WL,B,1.0
3,2.5,learn,57500.0,Mon Mar 02 2026 14:04:38 GMT-0600 (Central Standard Time),423580.09999999404,A,stre,O,e,348,1,2499.899999976158,421080.2000000179,7725,WL,B,1.0
3,2.6679999828338623,learn,57332.00001716614,Mon Mar 02 2026 14:04:38 GMT-0600 (Central Standard Time),423747.7000000179,A,stree,O,e,145,1,2667.5,421080.2000000179,7725,WL,B,1.0
3,3.1499998569488525,learn,56850.00014305115,Mon Mar 02 2026 14:04:38 GMT-0600 (Central Standard Time),424229.90000000596,A,street,O,t,469,1,3149.699999988079,421080.2000000179,7725,WL,B,1.0
3,4.799000024795532,learn,55200.99997520447,Mon Mar 02 2026 14:04:38 GMT-0600 (Central Standard Time),425878.90000000596,A,streetenter,O,enter,1637,1,4798.699999988079,421080.2000000179,7725,WL,B,1.0
3,13.046000003814697,learn,46953.9999961853,Mon Mar 02 2026 14:04:38 GMT-0600 (Central Standard Time),434126.0,A,g,O,g,8228,1,8246.90000000596,425879.09999999404,7725,WL,B,2.0
3,13.52999997138977,learn,46470.00002861023,Mon Mar 02 2026 14:04:38 GMT-0600 (Central Standard Time),434610.0,A,gr,O,r,462,1,8730.90000000596,425879.09999999404,7725,WL,B,2.0
3,14.013000011444092,learn,45986.99998855591,Mon Mar 02 2026 14:04:38 GMT-0600 (Central Standard Time),435093.0,A,gra,O,a,472,1,9213.90000000596,425879.09999999404,7725,WL,B,2.0
3,14.346999883651733,learn,45653.00011634827,Mon Mar 02 2026 14:04:38 GMT-0600 (Central Standard Time),435426.7000000179,A,gras,O,s,312,1,9547.600000023842,425879.09999999404,7725,WL,B,2.0
3,14.496999979019165,learn,45503.000020980835,Mon Mar 02 2026 14:04:38 GMT-0600 (Central Standard Time),435576.59999999404,A,grass,O,s,133,1,9697.5,425879.09999999404,7725,WL,B,2.0
3,15.463000059127808,learn,44536.99994087219,Mon Mar 02 2026 14:04:38 GMT-0600 (Central Standard Time),436542.8000000119,A,grassenter,O,enter,947,1,10663.700000017881,425879.09999999404,7725,WL,B,2.0
3,17.97699999809265,learn,42023.00000190735,Mon Mar 02 2026 14:04:38 GMT-0600 (Central Standard Time),439057.0,A,d,O,d,2499,1,2514.0,436543.0,7725,WL,B,3.0
3,18.51099991798401,learn,41489.00008201599,Mon Mar 02 2026 14:04:38 GMT-0600 (Central Standard Time),439591.3000000119,A,do,O,o,521,1,3048.300000011921,436543.0,7725,WL,B,3.0
3,18.710000038146973,learn,41289.99996185303,Mon Mar 02 2026 14:04:38 GMT-0600 (Central Standard Time),439790.3000000119,A,doo,O,o,187,1,3247.300000011921,436543.0,7725,WL,B,3.0
3,19.312000036239624,learn,40687.999963760376,Mon Mar 02 2026 14:04:38 GMT-0600 (Central Standard Time),440391.90000000596,A,door,O,r,580,1,3848.9000000059605,436543.0,7725,WL,B,3.0
3,19.960000038146973,learn,40039.99996185303,Mon Mar 02 2026 14:04:38 GMT-0600 (Central Standard Time),441040.59999999404,A,doorenter,O,enter,635,1,4497.5999999940395,436543.0,7725,WL,B,3.0
3,23.493000030517578,learn,36506.99996948242,Mon Mar 02 2026 14:04:38 GMT-0600 (Central Standard Time),444573.2000000179,A,w,O,w,3516,1,3532.5,441040.7000000179,7725,WL,B,4.0
3,24.175999879837036,learn,35824.000120162964,Mon Mar 02 2026 14:04:38 GMT-0600 (Central Standard Time),445256.3000000119,A,wi,O,i,665,1,4215.5999999940395,441040.7000000179,7725,WL,B,4.0
3,26.64199995994568,learn,33358.00004005432,Mon Mar 02 2026 14:04:38 GMT-0600 (Central Standard Time),447722.3000000119,A,wif,O,f,2450,1,6681.5999999940395,441040.7000000179,7725,WL,B,4.0
3,27.075000047683716,learn,32924.999952316284,Mon Mar 02 2026 14:04:38 GMT-0600 (Central Standard Time),448154.7000000179,A,wife,O,e,424,1,7114.0,441040.7000000179,7725,WL,B,4.0
3,27.875,learn,32125.0,Mon Mar 02 2026 14:04:38 GMT-0600 (Central Standard Time),448954.8000000119,A,wifeenter,O,enter,794,1,7914.0999999940395,441040.7000000179,7725,WL,B,4.0
3,29.44099998474121,learn,30559.00001525879,Mon Mar 02 2026 14:04:38 GMT-0600 (Central Standard Time),450521.7000000179,A,p,O,p,1546,1,1566.6000000238419,448955.09999999404,7725,WL,B,5.0
3,29.889999866485596,learn,30110.000133514404,Mon Mar 02 2026 14:04:38 GMT-0600 (Central Standard Time),450970.8000000119,A,pi,O,i,442,1,2015.7000000178814,448955.09999999404,7725,WL,B,5.0
3,30.657999992370605,learn,29342.000007629395,Mon Mar 02 2026 14:04:38 GMT-0600 (Central Standard Time),451738.09999999404,A,pip,O,p,745,1,2783.0,448955.09999999404,7725,WL,B,5.0
3,31.756999969482422,learn,28243.000030517578,Mon Mar 02 2026 14:04:38 GMT-0600 (Central Standard Time),452837.0,A,pipe,O,e,1077,1,3881.9000000059605,448955.09999999404,7725,WL,B,5.0
3,32.62299990653992,learn,27377.000093460083,Mon Mar 02 2026 14:04:38 GMT-0600 (Central Standard Time),453703.5,A,pipeenter,O,enter,853,1,4748.4000000059605,448955.09999999404,7725,WL,B,5.0
3,33.44000005722046,learn,26559.99994277954,Mon Mar 02 2026 14:04:38 GMT-0600 (Central Standard Time),454520.3000000119,A,p,O,p,797,1,816.5999999940395,453703.7000000179,7725,WL,B,6.0
3,34.389999866485596,learn,25610.000133514404,Mon Mar 02 2026 14:04:38 GMT-0600 (Central Standard Time),455470.09999999404,A,pu,O,u,937,1,1766.3999999761581,453703.7000000179,7725,WL,B,6.0
3,35.37299990653992,learn,24627.000093460083,Mon Mar 02 2026 14:04:38 GMT-0600 (Central Standard Time),456453.3000000119,A,pup,O,p,964,1,2749.5999999940395,453703.7000000179,7725,WL,B,6.0
3,35.97199988365173,learn,24028.000116348267,Mon Mar 02 2026 14:04:38 GMT-0600 (Central Standard Time),457052.59999999404,A,pupi,O,i,579,1,3348.899999976158,453703.7000000179,7725,WL,B,6.0
3,36.223999977111816,learn,23776.000022888184,Mon Mar 02 2026 14:04:38 GMT-0600 (Central Standard Time),457304.59999999404,A,pupil,O,l,237,1,3600.899999976158,453703.7000000179,7725,WL,B,6.0
3,36.98900008201599,learn,23010.99991798401,Mon Mar 02 2026 14:04:38 GMT-0600 (Central Standard Time),458069.2000000179,A,pupilenter,O,enter,748,1,4365.5,453703.7000000179,7725,WL,B,6.0
3,40.4539999961853,learn,19546.000003814697,Mon Mar 02 2026 14:04:38 GMT-0600 (Central Standard Time),461534.09999999404,A,f,O,f,3445,1,3464.5999999940395,458069.5,7725,WL,B,7.0
3,41.12100005149841,learn,18878.999948501587,Mon Mar 02 2026 14:04:38 GMT-0600 (Central Standard Time),462201.3000000119,A,fi,O,i,652,1,4131.800000011921,458069.5,7725,WL,B,7.0
3,41.61999988555908,learn,18380.000114440918,Mon Mar 02 2026 14:04:38 GMT-0600 (Central Standard Time),462700.7000000179,A,fir,O,r,480,1,4631.200000017881,458069.5,7725,WL,B,7.0
3,41.8529999256134,learn,18147.000074386597,Mon Mar 02 2026 14:04:38 GMT-0600 (Central Standard Time),462932.90000000596,A,fire,O,e,221,1,4863.4000000059605,458069.5,7725,WL,B,7.0
3,42.63700008392334,learn,17362.99991607666,Mon Mar 02 2026 14:04:38 GMT-0600 (Central Standard Time),463717.5,A,fireenter,O,enter,776,1,5648.0,458069.5,7725,WL,B,7.0
3,60.013999938964844,learn,-13.99993896484375,Mon Mar 02 2026 14:04:38 GMT-0600 (Central Standard Time),481094.0,A,None,O,None,17372,1,17376.29999998212,463717.7000000179,7725,WL,B,8.0
4,1.933000087738037,learn,58066.99991226196,Mon Mar 02 2026 14:04:38 GMT-0600 (Central Standard Time),552306.900000006,A,s,O,s,1912,1,1933.199999988079,550373.7000000179,7725,WL,B,1.0
4,2.5320000648498535,learn,57467.99993515015,Mon Mar 02 2026 14:04:38 GMT-0600 (Central Standard Time),552905.2000000179,A,st,O,t,583,1,2531.5,550373.7000000179,7725,WL,B,1.0
4,2.933000087738037,learn,57066.99991226196,Mon Mar 02 2026 14:04:38 GMT-0600 (Central Standard Time),553306.599999994,A,str,O,r,379,1,2932.899999976158,550373.7000000179,7725,WL,B,1.0
4,3.315999984741211,learn,56684.00001525879,Mon Mar 02 2026 14:04:38 GMT-0600 (Central Standard Time),553689.400000006,A,stre,O,e,369,1,3315.699999988079,550373.7000000179,7725,WL,B,1.0
4,3.4830000400543213,learn,56516.99995994568,Mon Mar 02 2026 14:04:38 GMT-0600 (Central Standard Time),553856.3000000119,A,stree,O,e,146,1,3482.5999999940395,550373.7000000179,7725,WL,B,1.0
4,4.063999891281128,learn,55936.00010871887,Mon Mar 02 2026 14:04:38 GMT-0600 (Central Standard Time),554437.900000006,A,street,O,t,569,1,4064.199999988079,550373.7000000179,7725,WL,B,1.0
4,5.247999906539917,learn,54752.00009346008,Mon Mar 02 2026 14:04:38 GMT-0600 (Central Standard Time),555621.2000000179,A,streetenter,O,enter,1167,1,5247.5,550373.7000000179,7725,WL,B,1.0
4,7.063999891281128,learn,52936.00010871887,Mon Mar 02 2026 14:04:38 GMT-0600 (Central Standard Time),557437.2000000179,A,s,O,s,1799,1,1815.7000000178814,555621.5,7725,WL,B,2.0
4,7.697999954223633,learn,52302.00004577637,Mon Mar 02 2026 14:04:38 GMT-0600 (Central Standard Time),558071.8000000119,A,st,O,t,614,1,2450.300000011921,555621.5,7725,WL,B,2.0
4,8.197999954223633,learn,51802.00004577637,Mon Mar 02 2026 14:04:38 GMT-0600 (Central Standard Time),558571.400000006,A,sta,O,a,494,1,2949.9000000059605,555621.5,7725,WL,B,2.0
4,8.829999923706055,learn,51170.000076293945,Mon Mar 02 2026 14:04:38 GMT-0600 (Central Standard Time),559203.7000000179,A,star,O,r,623,1,3582.2000000178814,555621.5,7725,WL,B,2.0
4,10.946000099182129,learn,49053.99990081787,Mon Mar 02 2026 14:04:38 GMT-0600 (Central Standard Time),561319.7000000179,A,starenter,O,enter,2094,1,5698.200000017881,555621.5,7725,WL,B,2.0
4,11.944000005722046,learn,48055.999994277954,Mon Mar 02 2026 14:04:38 GMT-0600 (Central Standard Time),562317.099999994,A,w,O,w,978,1,997.0999999940395,561320.0,7725,WL,B,3.0
4,12.562999963760376,learn,47437.000036239624,Mon Mar 02 2026 14:04:38 GMT-0600 (Central Standard Time),562936.0,A,wi,O,i,600,1,1616.0,561320.0,7725,WL,B,3.0
4,13.611000061035156,learn,46388.999938964844,Mon Mar 02 2026 14:04:38 GMT-0600 (Central Standard Time),563984.900000006,A,wif,O,f,1031,1,2664.9000000059605,561320.0,7725,WL,B,3.0
4,13.977999925613403,learn,46022.0000743866,Mon Mar 02 2026 14:04:38 GMT-0600 (Central Standard Time),564351.400000006,A,wife,O,e,344,1,3031.4000000059605,561320.0,7725,WL,B,3.0
4,14.727999925613403,learn,45272.0000743866,Mon Mar 02 2026 14:04:38 GMT-0600 (Central Standard Time),565101.3000000119,A,wifeenter,O,enter,729,1,3781.300000011921,561320.0,7725,WL,B,3.0
4,16.26099991798401,learn,43739.00008201599,Mon Mar 02 2026 14:04:38 GMT-0600 (Central Standard Time),566634.8000000119,A,d,O,d,1516,1,1533.4000000059605,565101.400000006,7725,WL,B,4.0
4,16.82800006866455,learn,43171.99993133545,Mon Mar 02 2026 14:04:38 GMT-0600 (Central Standard Time),567201.8000000119,A,do,O,o,548,1,2100.4000000059605,565101.400000006,7725,WL,B,4.0
4,17.009999990463257,learn,42990.00000953674,Mon Mar 02 2026 14:04:38 GMT-0600 (Central Standard Time),567383.2000000179,A,doo,O,o,167,1,2281.800000011921,565101.400000006,7725,WL,B,4.0
4,17.542999982833862,learn,42457.00001716614,Mon Mar 02 2026 14:04:38 GMT-0600 (Central Standard Time),567916.900000006,A,door,O,r,517,1,2815.5,565101.400000006,7725,WL,B,4.0
4,18.14299988746643,learn,41857.00011253357,Mon Mar 02 2026 14:04:38 GMT-0600 (Central Standard Time),568516.8000000119,A,doorenter,O,enter,582,1,3415.4000000059605,565101.400000006,7725,WL,B,4.0
4,20.259999990463257,learn,39740.00000953674,Mon Mar 02 2026 14:04:38 GMT-0600 (Central Standard Time),570633.2000000179,A,p,O,p,2112,1,2116.100000023842,568517.099999994,7725,WL,B,5.0
4,20.66000008583069,learn,39339.99991416931,Mon Mar 02 2026 14:04:38 GMT-0600 (Central Standard Time),571033.400000006,A,pi,O,i,389,1,2516.300000011921,568517.099999994,7725,WL,B,5.0
4,21.07699990272522,learn,38923.00009727478,Mon Mar 02 2026 14:04:38 GMT-0600 (Central Standard Time),571450.3000000119,A,pip,O,p,400,1,2933.2000000178814,568517.099999994,7725,WL,B,5.0
4,22.29200005531311,learn,37707.99994468689,Mon Mar 02 2026 14:04:38 GMT-0600 (Central Standard Time),572665.8000000119,A,pipe,O,e,1209,1,4148.700000017881,568517.099999994,7725,WL,B,5.0
4,23.075000047683716,learn,36924.999952316284,Mon Mar 02 2026 14:04:38 GMT-0600 (Central Standard Time),573448.8000000119,A,pipeenter,O,enter,763,1,4931.700000017881,568517.099999994,7725,WL,B,5.0
4,23.877000093460083,learn,36122.99990653992,Mon Mar 02 2026 14:04:38 GMT-0600 (Central Standard Time),574250.099999994,A,p,O,p,786,1,801.0,573449.099999994,7725,WL,B,6.0
4,24.407999992370605,learn,35592.000007629395,Mon Mar 02 2026 14:04:38 GMT-0600 (Central Standard Time),574781.5,A,pu,O,u,524,1,1332.4000000059605,573449.099999994,7725,WL,B,6.0
4,25.20900011062622,learn,34790.99988937378,Mon Mar 02 2026 14:04:38 GMT-0600 (Central Standard Time),575582.599999994,A,pup,O,p,791,1,2133.5,573449.099999994,7725,WL,B,6.0
4,25.507999897003174,learn,34492.000102996826,Mon Mar 02 2026 14:04:38 GMT-0600 (Central Standard Time),575881.2000000179,A,pupl,O,l,284,1,2432.100000023842,573449.099999994,7725,WL,B,6.0
4,29.02300000190735,learn,30976.99999809265,Mon Mar 02 2026 14:04:38 GMT-0600 (Central Standard Time),579396.8000000119,A,pup,O,backspace,3507,1,5947.700000017881,573449.099999994,7725,WL,B,6.0
4,29.52300000190735,learn,30476.99999809265,Mon Mar 02 2026 14:04:38 GMT-0600 (Central Standard Time),579896.2000000179,A,pupi,O,i,486,1,6447.100000023842,573449.099999994,7725,WL,B,6.0
4,29.756999969482422,learn,30243.000030517578,Mon Mar 02 2026 14:04:38 GMT-0600 (Central Standard Time),580130.900000006,A,pupil,O,l,214,1,6681.800000011921,573449.099999994,7725,WL,B,6.0
4,32.390000104904175,learn,27609.999895095825,Mon Mar 02 2026 14:04:38 GMT-0600 (Central Standard Time),582763.3000000119,A,pupilenter,O,enter,2611,1,9314.200000017881,573449.099999994,7725,WL,B,6.0
4,33.888999938964844,learn,26111.000061035156,Mon Mar 02 2026 14:04:38 GMT-0600 (Central Standard Time),584262.400000006,A,g,O,g,1480,1,1499.0,582763.400000006,7725,WL,B,7.0
4,34.22099995613098,learn,25779.00004386902,Mon Mar 02 2026 14:04:38 GMT-0600 (Central Standard Time),584595.0,A,gr,O,r,326,1,1831.5999999940395,582763.400000006,7725,WL,B,7.0
4,34.854000091552734,learn,25145.999908447266,Mon Mar 02 2026 14:04:38 GMT-0600 (Central Standard Time),585228.0,A,gra,O,a,624,1,2464.5999999940395,582763.400000006,7725,WL,B,7.0
4,35.170000076293945,learn,24829.999923706055,Mon Mar 02 2026 14:04:38 GMT-0600 (Central Standard Time),585544.0,A,gras,O,s,293,1,2780.5999999940395,582763.400000006,7725,WL,B,7.0
4,35.34299993515015,learn,24657.000064849854,Mon Mar 02 2026 14:04:38 GMT-0600 (Central Standard Time),585716.2000000179,A,grass,O,s,156,1,2952.800000011921,582763.400000006,7725,WL,B,7.0
4,36.18899989128113,learn,23811.000108718872,Mon Mar 02 2026 14:04:38 GMT-0600 (Central Standard Time),586562.099999994,A,grassenter,O,enter,832,1,3798.699999988079,582763.400000006,7725,WL,B,7.0
4,39.80399990081787,learn,20196.00009918213,Mon Mar 02 2026 14:04:38 GMT-0600 (Central Standard Time),590177.2000000179,A,l,O,l,3601,1,3614.9000000059605,586562.3000000119,7725,WL,B,8.0
4,40.98699998855591,learn,19013.00001144409,Mon Mar 02 2026 14:04:38 GMT-0600 (Central Standard Time),591360.099999994,A,la,O,a,1170,1,4797.799999982119,586562.3000000119,7725,WL,B,8.0
4,41.61999988555908,learn,18380.000114440918,Mon Mar 02 2026 14:04:38 GMT-0600 (Central Standard Time),591993.7000000179,A,lak,O,k,615,1,5431.4000000059605,586562.3000000119,7725,WL,B,8.0
4,42.25399994850159,learn,17746.000051498413,Mon Mar 02 2026 14:04:38 GMT-0600 (Central Standard Time),592627.2000000179,A,lake,O,e,629,1,6064.9000000059605,586562.3000000119,7725,WL,B,8.0
4,43.20199990272522,learn,16798.00009727478,Mon Mar 02 2026 14:04:38 GMT-0600 (Central Standard Time),593575.7000000179,A,lakeenter,O,enter,934,1,7013.4000000059605,586562.3000000119,7725,WL,B,8.0
4,45.96799993515015,learn,14032.000064849854,Mon Mar 02 2026 14:04:38 GMT-0600 (Central Standard Time),596341.2000000179,A,c,O,c,2757,1,2765.4000000059605,593575.8000000119,7725,WL,B,9.0
4,47.05200004577637,learn,12947.999954223633,Mon Mar 02 2026 14:04:38 GMT-0600 (Central Standard Time),597425.5,A,ci,O,i,1070,1,3849.699999988079,593575.8000000119,7725,WL,B,9.0
4,47.63599991798401,learn,12364.000082015991,Mon Mar 02 2026 14:04:38 GMT-0600 (Central Standard Time),598009.099999994,A,cit,O,t,563,1,4433.299999982119,593575.8000000119,7725,WL,B,9.0
4,47.91799998283386,learn,12082.000017166138,Mon Mar 02 2026 14:04:38 GMT-0600 (Central Standard Time),598291.5,A,city,O,y,265,1,4715.699999988079,593575.8000000119,7725,WL,B,9.0
4,49.01600003242493,learn,10983.999967575073,Mon Mar 02 2026 14:04:38 GMT-0600 (Central Standard Time),599389.599999994,A,cityenter,O,enter,1087,1,5813.799999982119,593575.8000000119,7725,WL,B,9.0
4,56.44799995422363,learn,3552.000045776367,Mon Mar 02 2026 14:04:38 GMT-0600 (Central Standard Time),606821.099999994,A,a,O,a,7413,1,7431.299999982119,599389.8000000119,7725,WL,B,10.0
4,56.99900007247925,learn,3000.999927520752,Mon Mar 02 2026 14:04:38 GMT-0600 (Central Standard Time),607372.8000000119,A,ar,O,r,541,1,7983.0,599389.8000000119,7725,WL,B,10.0
4,58.081000089645386,learn,1918.9999103546143,Mon Mar 02 2026 14:04:38 GMT-0600 (Central Standard Time),608454.5,A,arm,O,m,1071,1,9064.699999988079,599389.8000000119,7725,WL,B,10.0
4,58.68400001525879,learn,1315.999984741211,Mon Mar 02 2026 14:04:38 GMT-0600 (Central Standard Time),609057.400000006,A,armenter,O,enter,578,1,9667.59999999404,599389.8000000119,7725,WL,B,10.0
4,60.01300001144409,learn,-13.000011444091797,Mon Mar 02 2026 14:04:38 GMT-0600 (Central Standard Time),610386.900000006,A,None,O,None,1327,1,1329.300000011921,609057.599999994,7725,WL,B,11.0
5,1.3809998035430908,learn,60000.0,Mon Mar 02 2026 14:04:38 GMT-0600 (Central Standard Time),697359.5,A,s,O,s,1361,1,1380.5999999940395,695978.900000006,7725,WL,B,1.0
5,1.930999994277954,learn,60000.0,Mon Mar 02 2026 14:04:38 GMT-0600 (Central Standard Time),697910.099999994,A,st,O,t,530,1,1931.199999988079,695978.900000006,7725,WL,B,1.0
5,2.3469998836517334,learn,60000.0,Mon Mar 02 2026 14:04:38 GMT-0600 (Central Standard Time),698326.2000000179,A,str,O,r,397,1,2347.300000011921,695978.900000006,7725,WL,B,1.0
5,2.6619999408721924,learn,60000.0,Mon Mar 02 2026 14:04:38 GMT-0600 (Central Standard Time),698640.900000006,A,stre,O,e,298,1,2662.0,695978.900000006,7725,WL,B,1.0
5,2.8459999561309814,learn,60000.0,Mon Mar 02 2026 14:04:38 GMT-0600 (Central Standard Time),698825.3000000119,A,stree,O,e,162,1,2846.4000000059605,695978.900000006,7725,WL,B,1.0
5,3.3459999561309814,learn,60000.0,Mon Mar 02 2026 14:04:38 GMT-0600 (Central Standard Time),699325.0,A,street,O,t,479,1,3346.0999999940395,695978.900000006,7725,WL,B,1.0
5,4.311999797821045,learn,60000.0,Mon Mar 02 2026 14:04:38 GMT-0600 (Central Standard Time),700291.3000000119,A,streetenter,O,enter,951,1,4312.4000000059605,695978.900000006,7725,WL,B,1.0
5,5.66100001335144,learn,60000.0,Mon Mar 02 2026 14:04:38 GMT-0600 (Central Standard Time),701640.2000000179,A,g,O,g,1337,1,1348.7000000178814,700291.5,7725,WL,B,2.0
5,6.080999851226807,learn,60000.0,Mon Mar 02 2026 14:04:38 GMT-0600 (Central Standard Time),702059.5,A,gr,O,r,404,1,1768.0,700291.5,7725,WL,B,2.0
5,6.578999996185303,learn,60000.0,Mon Mar 02 2026 14:04:38 GMT-0600 (Central Standard Time),702558.2000000179,A,gra,O,a,486,1,2266.7000000178814,700291.5,7725,WL,B,2.0
5,7.0289998054504395,learn,60000.0,Mon Mar 02 2026 14:04:38 GMT-0600 (Central Standard Time),703008.0,A,gras,O,s,430,1,2716.5,700291.5,7725,WL,B,2.0
5,7.194999933242798,learn,60000.0,Mon Mar 02 2026 14:04:38 GMT-0600 (Central Standard Time),703174.400000006,A,grass,O,s,153,1,2882.9000000059605,700291.5,7725,WL,B,2.0
5,8.41100001335144,learn,60000.0,Mon Mar 02 2026 14:04:38 GMT-0600 (Central Standard Time),704390.3000000119,A,grassenter,O,enter,1197,1,4098.800000011921,700291.5,7725,WL,B,2.0
5,9.812999963760376,learn,60000.0,Mon Mar 02 2026 14:04:38 GMT-0600 (Central Standard Time),705791.5,A,w,O,w,1381,1,1401.0,704390.5,7725,WL,B,3.0
5,10.411999940872192,learn,60000.0,Mon Mar 02 2026 14:04:38 GMT-0600 (Central Standard Time),706390.400000006,A,wi,O,i,575,1,1999.9000000059605,704390.5,7725,WL,B,3.0
5,10.944000005722046,learn,60000.0,Mon Mar 02 2026 14:04:38 GMT-0600 (Central Standard Time),706923.0,A,win,O,n,519,1,2532.5,704390.5,7725,WL,B,3.0
5,11.727999925613403,learn,60000.0,Mon Mar 02 2026 14:04:38 GMT-0600 (Central Standard Time),707706.8000000119,A,wind,O,d,776,1,3316.300000011921,704390.5,7725,WL,B,3.0
5,12.294999837875366,learn,60000.0,Mon Mar 02 2026 14:04:38 GMT-0600 (Central Standard Time),708274.0,A,windo,O,o,550,1,3883.5,704390.5,7725,WL,B,3.0
5,13.027999877929688,learn,60000.0,Mon Mar 02 2026 14:04:38 GMT-0600 (Central Standard Time),709006.8000000119,A,window,O,w,721,1,4616.300000011921,704390.5,7725,WL,B,3.0
5,13.859999895095825,learn,60000.0,Mon Mar 02 2026 14:04:38 GMT-0600 (Central Standard Time),709839.3000000119,A,windowenter,O,enter,812,1,5448.800000011921,704390.5,7725,WL,B,3.0
5,15.459999799728394,learn,60000.0,Mon Mar 02 2026 14:04:38 GMT-0600 (Central Standard Time),711438.8000000119,A,s,O,s,1579,1,1599.2000000178814,709839.599999994,7725,WL,B,4.0
5,16.025999784469604,learn,60000.0,Mon Mar 02 2026 14:04:38 GMT-0600 (Central Standard Time),712004.5,A,st,O,t,548,1,2164.9000000059605,709839.599999994,7725,WL,B,4.0
5,17.20899987220764,learn,60000.0,Mon Mar 02 2026 14:04:38 GMT-0600 (Central Standard Time),713187.599999994,A,sta,O,a,1175,1,3348.0,709839.599999994,7725,WL,B,4.0
5,17.72499990463257,learn,60000.0,Mon Mar 02 2026 14:04:38 GMT-0600 (Central Standard Time),713704.0,A,star,O,r,495,1,3864.4000000059605,709839.599999994,7725,WL,B,4.0
5,19.590999841690063,learn,60000.0,Mon Mar 02 2026 14:04:38 GMT-0600 (Central Standard Time),715570.2000000179,A,starc,O,c,1843,1,5730.600000023842,709839.599999994,7725,WL,B,4.0
5,21.60599994659424,learn,60000.0,Mon Mar 02 2026 14:04:38 GMT-0600 (Central Standard Time),717585.400000006,A,star,O,backspace,1998,1,7745.800000011921,709839.599999994,7725,WL,B,4.0
5,22.389999866485596,learn,60000.0,Mon Mar 02 2026 14:04:38 GMT-0600 (Central Standard Time),718369.3000000119,A,starenter,O,enter,763,1,8529.700000017881,709839.599999994,7725,WL,B,4.0
5,23.625,learn,60000.0,Mon Mar 02 2026 14:04:38 GMT-0600 (Central Standard Time),719603.8000000119,A,c,O,c,1219,1,1234.2000000178814,718369.599999994,7725,WL,B,5.0
5,24.173999786376953,learn,60000.0,Mon Mar 02 2026 14:04:38 GMT-0600 (Central Standard Time),720153.0,A,ci,O,i,536,1,1783.4000000059605,718369.599999994,7725,WL,B,5.0
5,24.822999954223633,learn,60000.0,Mon Mar 02 2026 14:04:38 GMT-0600 (Central Standard Time),720801.7000000179,A,cit,O,t,632,1,2432.100000023842,718369.599999994,7725,WL,B,5.0
5,25.021999835968018,learn,60000.0,Mon Mar 02 2026 14:04:38 GMT-0600 (Central Standard Time),721000.8000000119,A,city,O,y,179,1,2631.2000000178814,718369.599999994,7725,WL,B,5.0
5,25.955999851226807,learn,60000.0,Mon Mar 02 2026 14:04:38 GMT-0600 (Central Standard Time),721935.099999994,A,cityenter,O,enter,916,1,3565.5,718369.599999994,7725,WL,B,5.0
5,27.355000019073486,learn,60000.0,Mon Mar 02 2026 14:04:38 GMT-0600 (Central Standard Time),723334.0,A,f,O,f,1388,1,1398.5999999940395,721935.400000006,7725,WL,B,6.0
5,28.02300000190735,learn,60000.0,Mon Mar 02 2026 14:04:38 GMT-0600 (Central Standard Time),724001.8000000119,A,fi,O,i,646,1,2066.4000000059605,721935.400000006,7725,WL,B,6.0
5,28.537999868392944,learn,60000.0,Mon Mar 02 2026 14:04:38 GMT-0600 (Central Standard Time),724517.0,A,fir,O,r,496,1,2581.5999999940395,721935.400000006,7725,WL,B,6.0
5,28.736999988555908,learn,60000.0,Mon Mar 02 2026 14:04:38 GMT-0600 (Central Standard Time),724716.2000000179,A,fire,O,e,188,1,2780.800000011921,721935.400000006,7725,WL,B,6.0
5,29.438999891281128,learn,60000.0,Mon Mar 02 2026 14:04:38 GMT-0600 (Central Standard Time),725417.5,A,fireenter,O,enter,682,1,3482.0999999940395,721935.400000006,7725,WL,B,6.0
5,32.2039999961853,learn,60000.0,Mon Mar 02 2026 14:04:38 GMT-0600 (Central Standard Time),728182.900000006,A,l,O,l,2746,1,2765.0999999940395,725417.8000000119,7725,WL,B,7.0
5,33.169999837875366,learn,60000.0,Mon Mar 02 2026 14:04:38 GMT-0600 (Central Standard Time),729149.0,A,la,O,a,947,1,3731.199999988079,725417.8000000119,7725,WL,B,7.0
5,33.80299997329712,learn,60000.0,Mon Mar 02 2026 14:04:38 GMT-0600 (Central Standard Time),729781.900000006,A,lak,O,k,612,1,4364.0999999940395,725417.8000000119,7725,WL,B,7.0
5,34.519999980926514,learn,60000.0,Mon Mar 02 2026 14:04:38 GMT-0600 (Central Standard Time),730498.8000000119,A,lake,O,e,702,1,5081.0,725417.8000000119,7725,WL,B,7.0
5,35.21999979019165,learn,60000.0,Mon Mar 02 2026 14:04:38 GMT-0600 (Central Standard Time),731198.599999994,A,lakeenter,O,enter,687,1,5780.799999982119,725417.8000000119,7725,WL,B,7.0
5,37.3199999332428,learn,60000.0,Mon Mar 02 2026 14:04:38 GMT-0600 (Central Standard Time),733298.900000006,A,p,O,p,2095,1,2100.0999999940395,731198.8000000119,7725,WL,B,8.0
5,37.76899981498718,learn,60000.0,Mon Mar 02 2026 14:04:38 GMT-0600 (Central Standard Time),733747.900000006,A,pi,O,i,431,1,2549.0999999940395,731198.8000000119,7725,WL,B,8.0
5,38.069000005722046,learn,60000.0,Mon Mar 02 2026 14:04:38 GMT-0600 (Central Standard Time),734047.900000006,A,pip,O,p,286,1,2849.0999999940395,731198.8000000119,7725,WL,B,8.0
5,39.51699995994568,learn,60000.0,Mon Mar 02 2026 14:04:38 GMT-0600 (Central Standard Time),735496.099999994,A,pipe,O,e,1427,1,4297.299999982119,731198.8000000119,7725,WL,B,8.0
5,40.15299987792969,learn,60000.0,Mon Mar 02 2026 14:04:38 GMT-0600 (Central Standard Time),736132.2000000179,A,pipeenter,O,enter,630,1,4933.4000000059605,731198.8000000119,7725,WL,B,8.0
5,40.91599988937378,learn,60000.0,Mon Mar 02 2026 14:04:38 GMT-0600 (Central Standard Time),736895.8000000119,A,p,O,p,751,1,763.4000000059605,736132.400000006,7725,WL,B,9.0
5,41.41699981689453,learn,60000.0,Mon Mar 02 2026 14:04:38 GMT-0600 (Central Standard Time),737397.099999994,A,pu,O,u,493,1,1264.699999988079,736132.400000006,7725,WL,B,9.0
5,42.08399987220764,learn,60000.0,Mon Mar 02 2026 14:04:38 GMT-0600 (Central Standard Time),738063.7000000179,A,pup,O,p,647,1,1931.300000011921,736132.400000006,7725,WL,B,9.0
5,43.46599984169006,learn,60000.0,Mon Mar 02 2026 14:04:38 GMT-0600 (Central Standard Time),739446.0,A,pupi,O,i,1362,1,3313.5999999940395,736132.400000006,7725,WL,B,9.0
5,43.93299984931946,learn,60000.0,Mon Mar 02 2026 14:04:38 GMT-0600 (Central Standard Time),739912.599999994,A,pupil,O,l,452,1,3780.199999988079,736132.400000006,7725,WL,B,9.0
5,44.93299984931946,learn,60000.0,Mon Mar 02 2026 14:04:38 GMT-0600 (Central Standard Time),740912.599999994,A,pupilenter,O,enter,986,1,4780.199999988079,736132.400000006,7725,WL,B,9.0
5,51.980000019073486,learn,60000.0,Mon Mar 02 2026 14:04:38 GMT-0600 (Central Standard Time),747959.900000006,A,c,O,c,7036,1,7047.0999999940395,740912.8000000119,7725,WL,B,10.0
5,52.645999908447266,learn,60000.0,Mon Mar 02 2026 14:04:38 GMT-0600 (Central Standard Time),748626.099999994,A,ca,O,a,645,1,7713.299999982119,740912.8000000119,7725,WL,B,10.0
5,53.59599995613098,learn,60000.0,Mon Mar 02 2026 14:04:38 GMT-0600 (Central Standard Time),749576.2000000179,A,cab,O,b,937,1,8663.40000000596,740912.8000000119,7725,WL,B,10.0
5,54.0789999961853,learn,60000.0,Mon Mar 02 2026 14:04:38 GMT-0600 (Central Standard Time),750059.099999994,A,cabi,O,i,466,1,9146.299999982119,740912.8000000119,7725,WL,B,10.0
5,54.615999937057495,learn,60000.0,Mon Mar 02 2026 14:04:38 GMT-0600 (Central Standard Time),750595.7000000179,A,cabin,O,n,520,1,9682.90000000596,740912.8000000119,7725,WL,B,10.0
5,55.144999980926514,learn,60000.0,Mon Mar 02 2026 14:04:38 GMT-0600 (Central Standard Time),751124.599999994,A,cabinenter,O,enter,512,1,10211.799999982119,740912.8000000119,7725,WL,B,10.0
5,64.45799994468689,learn,60000.0,Mon Mar 02 2026 14:04:38 GMT-0600 (Central Standard Time),760437.8000000119,A,enter,O,enter,9302,1,9313.0,751124.8000000119,7725,WL,B,11.0
6,3.8320000171661377,distr,56167.99998283386,Mon Mar 02 2026 14:04:38 GMT-0600 (Central Standard Time),871636.8000000119,B,a,O,a,3813,1,3832.2000000178814,867804.599999994,7725,WL,B,1.0
6,4.615999937057495,distr,55384.000062942505,Mon Mar 02 2026 14:04:38 GMT-0600 (Central Standard Time),872420.599999994,B,ar,O,r,766,1,4616.0,867804.599999994,7725,WL,B,1.0
6,5.865000009536743,distr,54134.99999046326,Mon Mar 02 2026 14:04:38 GMT-0600 (Central Standard Time),873669.599999994,B,arm,O,m,1230,1,5865.0,867804.599999994,7725,WL,B,1.0
6,6.049000024795532,distr,53950.99997520447,Mon Mar 02 2026 14:04:38 GMT-0600 (Central Standard Time),873853.400000006,B,armm,O,m,173,1,6048.800000011921,867804.599999994,7725,WL,B,1.0
6,7.047999858856201,distr,52952.0001411438,Mon Mar 02 2026 14:04:38 GMT-0600 (Central Standard Time),874853.099999994,B,arm,O,backspace,981,1,7048.5,867804.599999994,7725,WL,B,1.0
6,7.9649999141693115,distr,52035.00008583069,Mon Mar 02 2026 14:04:38 GMT-0600 (Central Standard Time),875769.3000000119,B,army,O,y,898,1,7964.700000017881,867804.599999994,7725,WL,B,1.0
6,8.52999997138977,distr,51470.00002861023,Mon Mar 02 2026 14:04:38 GMT-0600 (Central Standard Time),876335.0,B,armyenter,O,enter,552,1,8530.40000000596,867804.599999994,7725,WL,B,1.0
6,11.096999883651733,distr,48903.00011634827,Mon Mar 02 2026 14:04:38 GMT-0600 (Central Standard Time),878901.599999994,B,b,O,b,2556,1,2566.399999976158,876335.2000000179,7725,WL,B,2.0
6,11.646999835968018,distr,48353.00016403198,Mon Mar 02 2026 14:04:38 GMT-0600 (Central Standard Time),879451.3000000119,B,ba,O,a,541,1,3116.0999999940395,876335.2000000179,7725,WL,B,2.0
6,12.963000059127808,distr,47036.99994087219,Mon Mar 02 2026 14:04:38 GMT-0600 (Central Standard Time),880767.400000006,B,bab,O,b,1303,1,4432.199999988079,876335.2000000179,7725,WL,B,2.0
6,13.662999868392944,distr,46337.000131607056,Mon Mar 02 2026 14:04:38 GMT-0600 (Central Standard Time),881468.099999994,B,baby,O,y,689,1,5132.899999976158,876335.2000000179,7725,WL,B,2.0
6,14.296000003814697,distr,45703.9999961853,Mon Mar 02 2026 14:04:38 GMT-0600 (Central Standard Time),882100.3000000119,B,babyenter,O,enter,620,1,5765.0999999940395,876335.2000000179,7725,WL,B,2.0
6,19.67799997329712,distr,40322.00002670288,Mon Mar 02 2026 14:04:38 GMT-0600 (Central Standard Time),887482.2000000179,B,o,O,o,5367,1,5381.700000017881,882100.5,7725,WL,B,3.0
6,20.509999990463257,distr,39490.00000953674,Mon Mar 02 2026 14:04:38 GMT-0600 (Central Standard Time),888314.900000006,B,oc,O,c,815,1,6214.4000000059605,882100.5,7725,WL,B,3.0
6,21.111000061035156,distr,38888.999938964844,Mon Mar 02 2026 14:04:38 GMT-0600 (Central Standard Time),888915.400000006,B,oca,O,a,592,1,6814.9000000059605,882100.5,7725,WL,B,3.0
6,22.15999984741211,distr,37840.00015258789,Mon Mar 02 2026 14:04:38 GMT-0600 (Central Standard Time),889964.5,B,ocae,O,e,1032,1,7864.0,882100.5,7725,WL,B,3.0
6,23.509000062942505,distr,36490.999937057495,Mon Mar 02 2026 14:04:38 GMT-0600 (Central Standard Time),891314.0,B,ocaen,O,n,1326,1,9213.5,882100.5,7725,WL,B,3.0
6,25.10800004005432,distr,34891.99995994568,Mon Mar 02 2026 14:04:38 GMT-0600 (Central Standard Time),892913.099999994,B,ocaenenter,O,enter,1575,1,10812.59999999404,882100.5,7725,WL,B,3.0
6,27.991999864578247,distr,32008.000135421753,Mon Mar 02 2026 14:04:38 GMT-0600 (Central Standard Time),895796.8000000119,B,p,O,p,2866,1,2883.4000000059605,892913.400000006,7725,WL,B,4.0
6,28.507999897003174,distr,31492.000102996826,Mon Mar 02 2026 14:04:38 GMT-0600 (Central Standard Time),896312.2000000179,B,pl,O,l,496,1,3398.800000011921,892913.400000006,7725,WL,B,4.0
6,29.191999912261963,distr,30808.000087738037,Mon Mar 02 2026 14:04:38 GMT-0600 (Central Standard Time),896996.3000000119,B,pla,O,a,671,1,4082.9000000059605,892913.400000006,7725,WL,B,4.0
6,30.090999841690063,distr,29909.000158309937,Mon Mar 02 2026 14:04:38 GMT-0600 (Central Standard Time),897895.900000006,B,plac,O,c,886,1,4982.5,892913.400000006,7725,WL,B,4.0
6,30.657000064849854,distr,29342.999935150146,Mon Mar 02 2026 14:04:38 GMT-0600 (Central Standard Time),898461.7000000179,B,place,O,e,555,1,5548.300000011921,892913.400000006,7725,WL,B,4.0
6,32.65700006484985,distr,27342.999935150146,Mon Mar 02 2026 14:04:38 GMT-0600 (Central Standard Time),900461.5,B,placeenter,O,enter,1990,1,7548.0999999940395,892913.400000006,7725,WL,B,4.0
6,40.07099986076355,distr,19929.00013923645,Mon Mar 02 2026 14:04:38 GMT-0600 (Central Standard Time),907876.2000000179,B,enter,O,enter,7406,1,7414.4000000059605,900461.8000000119,7725,WL,B,5.0
6,40.50399994850159,distr,19496.000051498413,Mon Mar 02 2026 14:04:38 GMT-0600 (Central Standard Time),908308.5,B,enter,O,enter,415,1,432.09999999403954,907876.400000006,7725,WL,B,6.0
6,40.87100005149841,distr,19128.999948501587,Mon Mar 02 2026 14:04:38 GMT-0600 (Central Standard Time),908676.0,B,enter,O,enter,350,1,367.19999998807907,908308.8000000119,7725,WL,B,7.0
6,41.38699984550476,distr,18613.00015449524,Mon Mar 02 2026 14:04:38 GMT-0600 (Central Standard Time),909191.5,B,enter,O,enter,504,1,515.2999999821186,908676.2000000179,7725,WL,B,8.0
6,41.97000002861023,distr,18029.99997138977,Mon Mar 02 2026 14:04:38 GMT-0600 (Central Standard Time),909774.900000006,B,enter,O,enter,564,1,583.0999999940395,909191.8000000119,7725,WL,B,9.0
6,42.53699994087219,distr,17463.000059127808,Mon Mar 02 2026 14:04:38 GMT-0600 (Central Standard Time),910341.400000006,B,enter,O,enter,555,1,566.3000000119209,909775.099999994,7725,WL,B,10.0
6,42.97000002861023,distr,17029.99997138977,Mon Mar 02 2026 14:04:38 GMT-0600 (Central Standard Time),910774.3000000119,B,enter,O,enter,422,1,432.59999999403954,910341.7000000179,7725,WL,B,11.0
6,43.45299983024597,distr,16547.00016975403,Mon Mar 02 2026 14:04:38 GMT-0600 (Central Standard Time),911257.599999994,B,enter,O,enter,465,1,483.0,910774.599999994,7725,WL,B,12.0
6,44.1029999256134,distr,15897.000074386597,Mon Mar 02 2026 14:04:38 GMT-0600 (Central Standard Time),911907.7000000179,B,enter,O,enter,635,1,649.8000000119209,911257.900000006,7725,WL,B,13.0
6,44.61999988555908,distr,15380.000114440918,Mon Mar 02 2026 14:04:38 GMT-0600 (Central Standard Time),912424.8000000119,B,enter,O,enter,498,1,516.7000000178814,911908.099999994,7725,WL,B,14.0
6,45.319000005722046,distr,14680.999994277954,Mon Mar 02 2026 14:04:38 GMT-0600 (Central Standard Time),913124.0,B,enter,O,enter,690,1,698.9000000059605,912425.099999994,7725,WL,B,15.0
7,1.7320001125335693,immed,58267.99988746643,Mon Mar 02 2026 14:04:38 GMT-0600 (Central Standard Time),931401.8000000119,A,s,O,s,1715,1,1732.0999999940395,929669.7000000179,7725,WL,B,1.0
7,2.1650002002716064,immed,57834.99979972839,Mon Mar 02 2026 14:04:38 GMT-0600 (Central Standard Time),931834.400000006,A,st,O,t,411,1,2164.699999988079,929669.7000000179,7725,WL,B,1.0
7,2.5320000648498535,immed,57467.99993515015,Mon Mar 02 2026 14:04:38 GMT-0600 (Central Standard Time),932202.0,A,str,O,r,351,1,2532.2999999821186,929669.7000000179,7725,WL,B,1.0
7,2.8980000019073486,immed,57101.99999809265,Mon Mar 02 2026 14:04:38 GMT-0600 (Central Standard Time),932567.5,A,stre,O,e,347,1,2897.7999999821186,929669.7000000179,7725,WL,B,1.0
7,3.0480000972747803,immed,56951.99990272522,Mon Mar 02 2026 14:04:38 GMT-0600 (Central Standard Time),932717.099999994,A,stree,O,e,127,1,3047.399999976158,929669.7000000179,7725,WL,B,1.0
7,3.63100004196167,immed,56368.99995803833,Mon Mar 02 2026 14:04:38 GMT-0600 (Central Standard Time),933300.5,A,street,O,t,576,1,3630.7999999821186,929669.7000000179,7725,WL,B,1.0
7,5.8470001220703125,immed,54152.99987792969,Mon Mar 02 2026 14:04:38 GMT-0600 (Central Standard Time),935516.900000006,A,streets,O,s,2208,1,5847.199999988079,929669.7000000179,7725,WL,B,1.0
7,6.231000185012817,immed,53768.99981498718,Mon Mar 02 2026 14:04:38 GMT-0600 (Central Standard Time),935900.900000006,A,streetst,O,t,375,1,6231.199999988079,929669.7000000179,7725,WL,B,1.0
7,6.698000192642212,immed,53301.99980735779,Mon Mar 02 2026 14:04:38 GMT-0600 (Central Standard Time),936368.099999994,A,streetsta,O,a,447,1,6698.399999976158,929669.7000000179,7725,WL,B,1.0
7,6.997000217437744,immed,53002.999782562256,Mon Mar 02 2026 14:04:38 GMT-0600 (Central Standard Time),936666.900000006,A,streetstar,O,r,294,1,6997.199999988079,929669.7000000179,7725,WL,B,1.0
7,8.747000217437744,immed,51252.999782562256,Mon Mar 02 2026 14:04:38 GMT-0600 (Central Standard Time),938416.3000000119,A,streetstarp,O,p,1736,1,8746.59999999404,929669.7000000179,7725,WL,B,1.0
7,9.413000106811523,immed,50586.99989318848,Mon Mar 02 2026 14:04:38 GMT-0600 (Central Standard Time),939083.0,A,streetstarpu,O,u,662,1,9413.299999982119,929669.7000000179,7725,WL,B,1.0
7,10.861999988555908,immed,49138.00001144409,Mon Mar 02 2026 14:04:38 GMT-0600 (Central Standard Time),940531.8000000119,A,streetstarpup,O,p,1440,1,10862.09999999404,929669.7000000179,7725,WL,B,1.0
7,11.17900013923645,immed,48820.99986076355,Mon Mar 02 2026 14:04:38 GMT-0600 (Central Standard Time),940848.599999994,A,streetstarpupi,O,i,303,1,11178.899999976158,929669.7000000179,7725,WL,B,1.0
7,11.42900013923645,immed,48570.99986076355,Mon Mar 02 2026 14:04:38 GMT-0600 (Central Standard Time),941098.599999994,A,streetstarpupil,O,l,233,1,11428.899999976158,929669.7000000179,7725,WL,B,1.0
7,11.912000179290771,immed,48087.99982070923,Mon Mar 02 2026 14:04:38 GMT-0600 (Central Standard Time),941581.900000006,A,streetstarpupilenter,O,enter,472,1,11912.199999988079,929669.7000000179,7725,WL,B,1.0
7,13.212000131607056,immed,46787.999868392944,Mon Mar 02 2026 14:04:38 GMT-0600 (Central Standard Time),942881.8000000119,A,p,O,p,1279,1,1299.5999999940395,941582.2000000179,7725,WL,B,2.0
7,13.57800006866455,immed,46421.99993133545,Mon Mar 02 2026 14:04:38 GMT-0600 (Central Standard Time),943247.400000006,A,pi,O,i,351,1,1665.199999988079,941582.2000000179,7725,WL,B,2.0
7,13.944000005722046,immed,46055.999994277954,Mon Mar 02 2026 14:04:38 GMT-0600 (Central Standard Time),943614.0,A,pip,O,p,358,1,2031.7999999821186,941582.2000000179,7725,WL,B,2.0
7,14.644000053405762,immed,45355.99994659424,Mon Mar 02 2026 14:04:38 GMT-0600 (Central Standard Time),944314.0,A,pipe,O,e,686,1,2731.7999999821186,941582.2000000179,7725,WL,B,2.0
7,15.312000036239624,immed,44687.999963760376,Mon Mar 02 2026 14:04:38 GMT-0600 (Central Standard Time),944981.8000000119,A,pipeenter,O,enter,648,1,3399.5999999940395,941582.2000000179,7725,WL,B,2.0
7,16.26200008392334,immed,43737.99991607666,Mon Mar 02 2026 14:04:38 GMT-0600 (Central Standard Time),945931.8000000119,A,w,O,w,943,1,949.7000000178814,944982.099999994,7725,WL,B,3.0
7,16.82800006866455,immed,43171.99993133545,Mon Mar 02 2026 14:04:38 GMT-0600 (Central Standard Time),946497.3000000119,A,wi,O,i,546,1,1515.2000000178814,944982.099999994,7725,WL,B,3.0
7,17.49400019645691,immed,42505.99980354309,Mon Mar 02 2026 14:04:38 GMT-0600 (Central Standard Time),947163.400000006,A,wif,O,f,650,1,2181.300000011921,944982.099999994,7725,WL,B,3.0
7,17.944000005722046,immed,42055.999994277954,Mon Mar 02 2026 14:04:38 GMT-0600 (Central Standard Time),947613.2000000179,A,wife,O,e,432,1,2631.100000023842,944982.099999994,7725,WL,B,3.0
7,18.64400005340576,immed,41355.99994659424,Mon Mar 02 2026 14:04:38 GMT-0600 (Central Standard Time),948313.3000000119,A,wifeenter,O,enter,684,1,3331.2000000178814,944982.099999994,7725,WL,B,3.0
7,20.80900001525879,immed,39190.99998474121,Mon Mar 02 2026 14:04:38 GMT-0600 (Central Standard Time),950478.5,A,g,O,g,2156,1,2165.0,948313.5,7725,WL,B,4.0
7,21.16000008583069,immed,38839.99991416931,Mon Mar 02 2026 14:04:38 GMT-0600 (Central Standard Time),950830.0,A,gr,O,r,332,1,2516.5,948313.5,7725,WL,B,4.0
7,21.56000018119812,immed,38439.99981880188,Mon Mar 02 2026 14:04:38 GMT-0600 (Central Standard Time),951229.3000000119,A,gra,O,a,389,1,2915.800000011921,948313.5,7725,WL,B,4.0
7,21.91000008583069,immed,38089.99991416931,Mon Mar 02 2026 14:04:38 GMT-0600 (Central Standard Time),951579.8000000119,A,gras,O,s,330,1,3266.300000011921,948313.5,7725,WL,B,4.0
7,22.06000018119812,immed,37939.99981880188,Mon Mar 02 2026 14:04:38 GMT-0600 (Central Standard Time),951729.7000000179,A,grass,O,s,136,1,3416.2000000178814,948313.5,7725,WL,B,4.0
7,22.841000080108643,immed,37158.99991989136,Mon Mar 02 2026 14:04:38 GMT-0600 (Central Standard Time),952511.0,A,grassenter,O,enter,770,1,4197.5,948313.5,7725,WL,B,4.0
7,25.79100012779236,immed,34208.99987220764,Mon Mar 02 2026 14:04:38 GMT-0600 (Central Standard Time),955460.400000006,A,k,O,k,2931,1,2949.0999999940395,952511.3000000119,7725,WL,B,5.0
7,26.624000072479248,immed,33375.99992752075,Mon Mar 02 2026 14:04:38 GMT-0600 (Central Standard Time),956293.7000000179,A,ka,O,a,823,1,3782.4000000059605,952511.3000000119,7725,WL,B,5.0
7,27.390000104904175,immed,32609.999895095825,Mon Mar 02 2026 14:04:38 GMT-0600 (Central Standard Time),957059.900000006,A,kak,O,k,758,1,4548.5999999940395,952511.3000000119,7725,WL,B,5.0
7,28.223000049591064,immed,31776.999950408936,Mon Mar 02 2026 14:04:38 GMT-0600 (Central Standard Time),957892.900000006,A,kake,O,e,823,1,5381.5999999940395,952511.3000000119,7725,WL,B,5.0
7,29.1560001373291,immed,30843.9998626709,Mon Mar 02 2026 14:04:38 GMT-0600 (Central Standard Time),958825.5,A,kakeenter,O,enter,918,1,6314.199999988079,952511.3000000119,7725,WL,B,5.0
7,54.349000215530396,immed,5650.9997844696045,Mon Mar 02 2026 14:04:38 GMT-0600 (Central Standard Time),984019.099999994,A,enter,O,enter,25179,1,25193.399999976158,958825.7000000179,7725,WL,B,6.0
7,54.61400008201599,immed,5385.999917984009,Mon Mar 02 2026 14:04:38 GMT-0600 (Central Standard Time),984283.900000006,A,enter,O,enter,256,1,264.5,984019.400000006,7725,WL,B,7.0
7,54.83200001716614,immed,5167.999982833862,Mon Mar 02 2026 14:04:38 GMT-0600 (Central Standard Time),984502.3000000119,A,enter,O,enter,207,1,218.09999999403954,984284.2000000179,7725,WL,B,8.0
7,55.0310001373291,immed,4968.999862670898,Mon Mar 02 2026 14:04:38 GMT-0600 (Central Standard Time),984701.5,A,enter,O,enter,181,1,198.90000000596046,984502.599999994,7725,WL,B,9.0
7,55.1800000667572,immed,4819.999933242798,Mon Mar 02 2026 14:04:38 GMT-0600 (Central Standard Time),984850.400000006,A,enter,O,enter,142,1,148.59999999403954,984701.8000000119,7725,WL,B,10.0
7,55.36500000953674,immed,4634.999990463257,Mon Mar 02 2026 14:04:38 GMT-0600 (Central Standard Time),985034.599999994,A,enter,O,enter,164,1,183.89999997615814,984850.7000000179,7725,WL,B,11.0
7,56.23100018501282,immed,3768.9998149871826,Mon Mar 02 2026 14:04:38 GMT-0600 (Central Standard Time),985901.2000000179,A,enter,O,enter,857,1,866.4000000059605,985034.8000000119,7725,WL,B,12.0
7,56.38100004196167,immed,3618.99995803833,Mon Mar 02 2026 14:04:38 GMT-0600 (Central Standard Time),986051.3000000119,A,enter,O,enter,135,1,149.80000001192093,985901.5,7725,WL,B,13.0
7,57.56500005722046,immed,2434.999942779541,Mon Mar 02 2026 14:04:38 GMT-0600 (Central Standard Time),987235.0,A,enter,O,enter,1163,1,1183.4000000059605,986051.599999994,7725,WL,B,14.0
7,59.748000144958496,immed,251.9998550415039,Mon Mar 02 2026 14:04:38 GMT-0600 (Central Standard Time),989417.599999994,A,enter,O,enter,2162,1,2182.399999976158,987235.2000000179,7725,WL,B,15.0
