acc_sum,block,block_c,condition,correct,correct_response,datetime,endtime,flanker,jitter,project,response,response_test_buffer_response,response_test_target_response,response_time,response_time_test_buffer_response,response_time_test_target_response,row_sel,session_number,start_end,starttime,subject_id,target,task,task_vers,time_test_buffer,time_test_buffer_response,time_test_constants,time_test_flanker,time_test_jitter,time_test_logger,time_test_target,time_test_target_response,time_test_variables,trial
0,prac,1,con,0,z,Tue Nov 04 2025 11:15:16 GMT-0600 (Central Standard Time),145233.90000003576,kiwi,1000,I,None,,,1803,,,7,1,5075.700000047684,140158.19999998808,7231,kiwi,NF,C,,,,,,,,,,1
0,prac,1,inc,0,m,Tue Nov 04 2025 11:15:16 GMT-0600 (Central Standard Time),147865.5,pear,900,I,z,,,432,,,14,1,2625.5,145240.0,7231,iron,NF,C,,,,,,,,,,2
1,prac,1,inc,1,z,Tue Nov 04 2025 11:15:16 GMT-0600 (Central Standard Time),150848.40000003576,lead,1100,I,z,,,575,,,8,1,2973.400000035763,147875.0,7231,plum,NF,C,,,,,,,,,,3
2,prac,1,con,1,z,Tue Nov 04 2025 11:15:16 GMT-0600 (Central Standard Time),153397.69999998808,banana,800,I,z,,,454,,,1,1,2544.699999988079,150853.0,7231,banana,NF,C,,,,,,,,,,4
3,prac,1,inc,1,m,Tue Nov 04 2025 11:15:16 GMT-0600 (Central Standard Time),156230.19999998808,cherry,900,I,m,,,637,,,10,1,2824.5,153405.69999998808,7231,copper,NF,C,,,,,,,,,,5
4,prac,1,con,1,m,Tue Nov 04 2025 11:15:16 GMT-0600 (Central Standard Time),158779.0,gold,800,I,m,,,466,,,13,1,2541.300000011921,156237.69999998808,7231,gold,NF,C,,,,,,,,,,6
5,prac,1,con,1,m,Tue Nov 04 2025 11:15:16 GMT-0600 (Central Standard Time),161345.5,bronze,800,I,m,,,459,,,9,1,2561.800000011921,158783.69999998808,7231,bronze,NF,C,,,,,,,,,,7
6,prac,1,inc,1,z,Tue Nov 04 2025 11:15:16 GMT-0600 (Central Standard Time),164294.69999998808,cobalt,1100,I,z,,,534,,,4,1,2942.899999976158,161351.80000001192,7231,raisin,NF,C,,,,,,,,,,8
7,prac,1,con,1,z,Tue Nov 04 2025 11:15:16 GMT-0600 (Central Standard Time),167160.80000001192,orange,1000,I,z,,,560,,,3,1,2861.199999988079,164299.60000002384,7231,orange,NF,C,,,,,,,,,,9
8,prac,1,inc,1,z,Tue Nov 04 2025 11:15:16 GMT-0600 (Central Standard Time),169975.10000002384,iron,900,I,z,,,609,,,6,1,2810.0,167165.10000002384,7231,pear,NF,C,,,,,,,,,,10
9,prac,1,inc,1,m,Tue Nov 04 2025 11:15:16 GMT-0600 (Central Standard Time),172891.90000003576,plum,1100,I,m,,,513,,,16,1,2909.7000000476837,169982.19999998808,7231,lead,NF,C,,,,,,,,,,11
10,prac,1,con,1,m,Tue Nov 04 2025 11:15:16 GMT-0600 (Central Standard Time),175640.30000001192,zinc,1000,I,m,,,434,,,15,1,2743.5,172896.80000001192,7231,zinc,NF,C,,,,,,,,,,12
11,prac,1,con,1,m,Tue Nov 04 2025 11:15:16 GMT-0600 (Central Standard Time),178391.5,silver,1000,I,m,,,438,,,11,1,2744.699999988079,175646.80000001192,7231,silver,NF,C,,,,,,,,,,13
12,prac,1,inc,1,z,Tue Nov 04 2025 11:15:16 GMT-0600 (Central Standard Time),181207.69999998808,copper,900,I,z,,,613,,,2,1,2808.5,178399.19999998808,7231,cherry,NF,C,,,,,,,,,,14
13,prac,1,inc,1,m,Tue Nov 04 2025 11:15:16 GMT-0600 (Central Standard Time),184354.90000003576,raisin,1100,I,m,,,731,,,12,1,3142.400000035763,181212.5,7231,cobalt,NF,C,,,,,,,,,,15
14,prac,1,con,1,z,Tue Nov 04 2025 11:15:16 GMT-0600 (Central Standard Time),187136.19999998808,lime,800,I,z,,,677,,,5,1,2777.899999976158,184358.30000001192,7231,lime,NF,C,,,,,,,,,,16
1,test,1,con,1,m,Tue Nov 04 2025 11:15:16 GMT-0600 (Central Standard Time),202814.19999998808,cobalt,1000,I,m,m,None,495,295.0,200.0,91,1,2028.699999988079,200785.5,7231,cobalt,NF,C,198080,198080,196349,197361,196349,198377,197879,197879,198377,1
2,test,1,inc,1,z,Tue Nov 04 2025 11:15:16 GMT-0600 (Central Standard Time),204896.60000002384,zinc,1000,I,z,z,None,551,334.0,217.0,55,1,2077.0,202819.60000002384,7231,kiwi,NF,C,200112,200112,198383,199394,198383,200460,199895,199895,200460,2
3,test,1,con,1,z,Tue Nov 04 2025 11:15:16 GMT-0600 (Central Standard Time),206730.80000001192,cherry,800,I,z,z,None,507,293.0,214.0,9,1,1830.6000000238419,204900.19999998808,7231,cherry,NF,C,201994,201994,200463,201277,200463,202294,201780,201780,202294,3
4,test,1,con,1,m,Tue Nov 04 2025 11:15:16 GMT-0600 (Central Standard Time),208696.80000001192,silver,1000,I,m,m,None,429,229.0,200.0,83,1,1962.1000000238419,206734.69999998808,7231,silver,NF,C,204026,204026,202298,203312,202298,204260,203826,203826,204260,4
5,test,1,inc,1,z,Tue Nov 04 2025 11:15:16 GMT-0600 (Central Standard Time),210780.69999998808,iron,900,I,z,z,None,650,449.0,201.0,38,1,2080.699999988079,208700.0,7231,lime,NF,C,205893,205894,204263,205178,204263,206344,205692,205692,206344,5
6,test,1,inc,1,z,Tue Nov 04 2025 11:15:16 GMT-0600 (Central Standard Time),212744.40000003576,iron,900,I,z,z,None,542,326.0,216.0,54,1,1958.4000000357628,210786.0,7231,kiwi,NF,C,207977,207977,206349,207258,206349,208307,207760,207760,208307,6
7,test,1,con,1,z,Tue Nov 04 2025 11:15:16 GMT-0600 (Central Standard Time),215029.19999998808,lime,1100,I,z,z,None,639,425.0,214.0,36,1,2280.699999988079,212748.5,7231,lime,NF,C,210158,210158,208312,209425,208312,210592,209943,209943,210592,7
7,test,1,inc,0,z,Tue Nov 04 2025 11:15:16 GMT-0600 (Central Standard Time),217259.90000003576,copper,900,I,m,m,None,792,591.0,201.0,22,1,2227.900000035763,215032.0,7231,orange,NF,C,212224,212224,210595,211508,210595,212823,212023,212023,212823,8
8,test,1,inc,1,m,Tue Nov 04 2025 11:15:16 GMT-0600 (Central Standard Time),219408.80000001192,banana,800,I,m,m,None,802,586.0,216.0,69,1,2142.800000011921,217266.0,7231,bronze,NF,C,214373,214373,212829,213639,212829,214972,214157,214157,214972,9
9,test,1,inc,1,m,Tue Nov 04 2025 11:15:16 GMT-0600 (Central Standard Time),221608.5,kiwi,1000,I,m,m,None,653,435.0,218.0,111,1,2195.399999976158,219413.10000002384,7231,iron,NF,C,216724,216724,214976,215990,214976,217172,216506,216506,217172,10
10,test,1,inc,1,z,Tue Nov 04 2025 11:15:16 GMT-0600 (Central Standard Time),223658.19999998808,iron,900,I,z,z,None,611,411.0,200.0,46,1,2044.0,221614.19999998808,7231,pear,NF,C,218804,218804,217177,218088,217178,219221,218604,218604,219221,11
11,test,1,inc,1,z,Tue Nov 04 2025 11:15:16 GMT-0600 (Central Standard Time),225590.19999998808,gold,800,I,z,z,None,595,380.0,215.0,53,1,1928.5999999642372,223661.60000002384,7231,kiwi,NF,C,220770,220770,219225,220039,219225,221153,220555,220555,221153,12
12,test,1,con,1,m,Tue Nov 04 2025 11:15:16 GMT-0600 (Central Standard Time),227739.90000003576,gold,1100,I,m,m,None,523,324.0,199.0,100,1,2146.800000011921,225593.10000002384,7231,gold,NF,C,222970,222970,221156,222270,221156,223303,222771,222771,223303,13
13,test,1,con,1,z,Tue Nov 04 2025 11:15:16 GMT-0600 (Central Standard Time),229838.40000003576,orange,1100,I,z,z,None,453,253.0,200.0,20,1,2095.300000011921,227743.10000002384,7231,orange,NF,C,225137,225137,223306,224420,223307,225402,224936,224936,225401,14
14,test,1,inc,1,m,Tue Nov 04 2025 11:15:16 GMT-0600 (Central Standard Time),232222.80000001192,plum,1100,I,m,m,None,748,548.0,200.0,104,1,2380.699999988079,229842.10000002384,7231,gold,NF,C,227237,227237,225405,226520,225405,227786,227037,227037,227786,15
15,test,1,inc,1,m,Tue Nov 04 2025 11:15:16 GMT-0600 (Central Standard Time),234571.10000002384,raisin,1100,I,m,m,None,706,492.0,214.0,88,1,2343.100000023842,232228.0,7231,silver,NF,C,229635,229635,227791,228901,227791,230134,229421,229421,230134,16
16,test,1,con,1,m,Tue Nov 04 2025 11:15:16 GMT-0600 (Central Standard Time),236487.10000002384,silver,900,I,m,m,None,480,280.0,200.0,82,1,1911.5,234575.60000002384,7231,silver,NF,C,231767,231767,230139,231053,230139,232050,231567,231567,232050,17
17,test,1,con,1,m,Tue Nov 04 2025 11:15:16 GMT-0600 (Central Standard Time),238586.5,lead,1100,I,m,m,None,450,248.0,202.0,124,1,2095.300000011921,236491.19999998808,7231,lead,NF,C,233886,233886,232054,233168,232055,234150,233683,233683,234150,18
18,test,1,inc,1,m,Tue Nov 04 2025 11:15:16 GMT-0600 (Central Standard Time),240819.30000001192,cherry,900,I,m,m,None,793,592.0,201.0,86,1,2227.699999988079,238591.60000002384,7231,silver,NF,C,235783,235783,234155,235068,234155,236382,235582,235582,236382,19
19,test,1,inc,1,z,Tue Nov 04 2025 11:15:16 GMT-0600 (Central Standard Time),243168.30000001192,lead,1100,I,z,z,None,703,455.0,248.0,40,1,2344.800000011921,240823.5,7231,lime,NF,C,238263,238264,236387,237499,236387,238731,238015,238015,238731,20
19,test,1,con,0,m,Tue Nov 04 2025 11:15:16 GMT-0600 (Central Standard Time),245366.90000003576,zinc,1100,I,z,z,None,563,360.0,203.0,116,1,2191.600000023842,243175.30000001192,7231,zinc,NF,C,240568,240568,238738,239849,238739,240930,240365,240365,240930,21
20,test,1,inc,1,z,Tue Nov 04 2025 11:15:16 GMT-0600 (Central Standard Time),247700.60000002384,cobalt,1100,I,z,z,None,683,481.0,202.0,16,1,2327.900000035763,245372.69999998808,7231,cherry,NF,C,242766,242766,240936,242050,240936,243264,242564,242564,243264,22
21,test,1,inc,1,m,Tue Nov 04 2025 11:15:16 GMT-0600 (Central Standard Time),249783.30000001192,lime,800,I,m,m,None,737,537.0,200.0,109,1,2079.100000023842,247704.19999998808,7231,iron,NF,C,244798,244798,243267,244081,243268,245346,244597,244597,245346,23
22,test,1,inc,1,z,Tue Nov 04 2025 11:15:16 GMT-0600 (Central Standard Time),251748.69999998808,gold,800,I,z,z,None,623,424.0,199.0,45,1,1962.0,249786.69999998808,7231,pear,NF,C,246879,246879,245350,246163,245350,247312,246680,246680,247312,24
23,test,1,con,1,m,Tue Nov 04 2025 11:15:16 GMT-0600 (Central Standard Time),253781.60000002384,zinc,1000,I,m,m,None,497,298.0,199.0,115,1,2029.6000000238419,251752.0,7231,zinc,NF,C,249046,249046,247315,248328,247315,249345,248846,248846,249345,25
24,test,1,inc,1,m,Tue Nov 04 2025 11:15:16 GMT-0600 (Central Standard Time),255880.30000001192,cherry,900,I,m,m,None,660,459.0,201.0,94,1,2096.0,253784.30000001192,7231,cobalt,NF,C,250980,250980,249347,250261,249348,251443,250778,250778,251443,26
25,test,1,con,1,m,Tue Nov 04 2025 11:15:16 GMT-0600 (Central Standard Time),257798.60000002384,zinc,900,I,m,m,None,471,256.0,215.0,114,1,1914.199999988079,255884.40000003576,7231,zinc,NF,C,253094,253094,251447,252361,251448,253362,252879,252879,253362,27
26,test,1,inc,1,z,Tue Nov 04 2025 11:15:16 GMT-0600 (Central Standard Time),259763.69999998808,bronze,800,I,z,z,None,616,415.0,201.0,21,1,1962.0,257801.69999998808,7231,orange,NF,C,254895,254895,253365,254177,253365,255327,254694,254694,255327,28
27,test,1,con,1,z,Tue Nov 04 2025 11:15:16 GMT-0600 (Central Standard Time),261862.10000002384,orange,900,I,z,z,None,662,462.0,200.0,18,1,2094.699999988079,259767.40000003576,7231,orange,NF,C,256960,256960,255330,256244,255331,257425,256759,256759,257425,29
28,test,1,inc,1,m,Tue Nov 04 2025 11:15:16 GMT-0600 (Central Standard Time),263995.60000002384,plum,1100,I,m,m,None,484,284.0,200.0,128,1,2128.800000011921,261866.80000001192,7231,lead,NF,C,259258,259258,257430,258542,257430,259559,259058,259058,259559,30
28,test,1,con,0,z,Tue Nov 04 2025 11:15:16 GMT-0600 (Central Standard Time),265994.5,orange,1000,I,m,m,None,474,259.0,215.0,19,1,1995.300000011921,263999.1999999881,7231,orange,NF,C,261292,261292,259562,260575,259563,261558,261077,261077,261558,31
29,test,1,con,1,m,Tue Nov 04 2025 11:15:16 GMT-0600 (Central Standard Time),267976.60000002384,copper,900,I,m,m,None,550,350.0,200.0,74,1,1978.1000000238419,265998.5,7231,copper,NF,C,263176,263176,261562,262474,261562,263540,262975,262975,263540,32
30,test,1,inc,1,m,Tue Nov 04 2025 11:15:16 GMT-0600 (Central Standard Time),270376.90000003576,raisin,1100,I,m,m,None,754,553.0,201.0,80,1,2397.300000011921,267979.60000002384,7231,copper,NF,C,265374,265374,263543,264658,263543,265940,265173,265173,265940,33
31,test,1,con,1,z,Tue Nov 04 2025 11:15:16 GMT-0600 (Central Standard Time),272642.60000002384,banana,1000,I,z,z,None,726,526.0,200.0,3,1,2260.400000035763,270382.1999999881,7231,banana,NF,C,267673,267673,265945,266957,265945,268206,267472,267472,268206,34
32,test,1,inc,1,z,Tue Nov 04 2025 11:15:16 GMT-0600 (Central Standard Time),275008.60000002384,silver,1000,I,z,z,None,820,621.0,199.0,23,1,2362.400000035763,272646.1999999881,7231,orange,NF,C,269938,269939,268209,269224,268210,270572,269739,269739,270572,35
33,test,1,inc,1,m,Tue Nov 04 2025 11:15:16 GMT-0600 (Central Standard Time),277158.60000002384,kiwi,1000,I,m,m,None,616,417.0,199.0,127,1,2146.0,275012.60000002384,7231,lead,NF,C,272304,272304,270576,271588,270576,272722,272105,272105,272722,36
34,test,1,con,1,z,Tue Nov 04 2025 11:15:16 GMT-0600 (Central Standard Time),279289.60000002384,kiwi,800,I,z,z,None,783,583.0,200.0,49,1,2125.600000023842,277164.0,7231,kiwi,NF,C,274255,274255,272727,273538,272727,274853,274055,274055,274853,37
35,test,1,con,1,z,Tue Nov 04 2025 11:15:16 GMT-0600 (Central Standard Time),281390.6999999881,cherry,1000,I,z,z,None,556,355.0,201.0,11,1,2097.0,279293.6999999881,7231,cherry,NF,C,276588,276588,274857,275871,274857,276954,276387,276387,276954,38
36,test,1,inc,1,m,Tue Nov 04 2025 11:15:16 GMT-0600 (Central Standard Time),283324.40000003576,pear,900,I,m,m,None,499,283.0,216.0,118,1,1930.800000011921,281393.60000002384,7231,zinc,NF,C,278604,278604,276957,277869,276957,278887,278387,278387,278887,39
37,test,1,con,1,m,Tue Nov 04 2025 11:15:16 GMT-0600 (Central Standard Time),285688.10000002384,iron,1100,I,m,m,None,729,528.0,201.0,108,1,2356.800000011921,283331.3000000119,7231,iron,NF,C,280719,280719,278894,280003,278894,281251,280518,280518,281251,40
38,test,1,con,1,m,Tue Nov 04 2025 11:15:16 GMT-0600 (Central Standard Time),287587.60000002384,gold,900,I,m,m,None,459,259.0,200.0,98,1,1890.0,285697.60000002384,7231,gold,NF,C,282884,282884,281261,282168,281261,283151,282684,282684,283151,41
39,test,1,inc,1,m,Tue Nov 04 2025 11:15:16 GMT-0600 (Central Standard Time),289686.40000003576,pear,900,I,m,m,None,663,463.0,200.0,102,1,2089.5,287596.90000003576,7231,gold,NF,C,284784,284784,283160,284069,283160,285250,284583,284583,285249,42
40,test,1,con,1,m,Tue Nov 04 2025 11:15:16 GMT-0600 (Central Standard Time),291737.1999999881,lead,1000,I,m,m,None,503,304.0,199.0,123,1,2045.0999999642372,289692.10000002384,7231,lead,NF,C,286983,286984,285255,286269,285255,287300,286784,286784,287300,43
41,test,1,inc,1,z,Tue Nov 04 2025 11:15:16 GMT-0600 (Central Standard Time),293718.90000003576,gold,800,I,z,z,None,660,446.0,214.0,37,1,1973.5,291745.40000003576,7231,lime,NF,C,288832,288833,287308,288116,287309,289282,288618,288618,289282,44
42,test,1,con,1,z,Tue Nov 04 2025 11:15:16 GMT-0600 (Central Standard Time),295835.3000000119,banana,900,I,z,z,None,668,467.0,201.0,2,1,2108.199999988079,293727.10000002384,7231,banana,NF,C,290916,290916,289290,290199,289291,291398,290715,290715,291398,45
43,test,1,con,1,z,Tue Nov 04 2025 11:15:16 GMT-0600 (Central Standard Time),298252.0,raisin,1100,I,z,z,None,776,576.0,200.0,28,1,2413.0,295839.0,7231,raisin,NF,C,293231,293231,291402,292514,291402,293815,293031,293031,293815,46
44,test,1,inc,1,m,Tue Nov 04 2025 11:15:16 GMT-0600 (Central Standard Time),300351.3000000119,pear,900,I,m,m,None,655,455.0,200.0,110,1,2094.5,298256.8000000119,7231,iron,NF,C,295448,295448,293820,294731,293820,295914,295247,295247,295914,47
45,test,1,con,1,m,Tue Nov 04 2025 11:15:16 GMT-0600 (Central Standard Time),302283.10000002384,lead,800,I,m,m,None,583,384.0,199.0,121,1,1927.6000000238419,300355.5,7231,lead,NF,C,297446,297447,295919,296732,295919,297846,297247,297247,297846,48
46,test,1,inc,1,z,Tue Nov 04 2025 11:15:16 GMT-0600 (Central Standard Time),304448.6999999881,silver,1000,I,z,z,None,627,426.0,201.0,31,1,2159.5,302289.1999999881,7231,raisin,NF,C,299581,299581,297852,298862,297852,300012,299379,299379,300012,49
47,test,1,con,1,m,Tue Nov 04 2025 11:15:16 GMT-0600 (Central Standard Time),306348.10000002384,bronze,900,I,m,m,None,458,258.0,200.0,66,1,1891.9000000357628,304456.1999999881,7231,bronze,NF,C,301645,301645,300019,300929,300019,301911,301445,301445,301911,50
48,test,1,con,1,m,Tue Nov 04 2025 11:15:16 GMT-0600 (Central Standard Time),308447.60000002384,silver,1100,I,m,m,None,454,254.0,200.0,84,1,2091.900000035763,306355.6999999881,7231,silver,NF,C,303745,303745,301919,303029,301919,304011,303545,303545,304011,51
49,test,1,con,1,z,Tue Nov 04 2025 11:15:16 GMT-0600 (Central Standard Time),310697.90000003576,kiwi,1100,I,z,z,None,610,410.0,200.0,52,1,2241.2000000476837,308456.6999999881,7231,kiwi,NF,C,305845,305845,304020,305127,304020,306261,305644,305644,306261,52
50,test,1,inc,1,m,Tue Nov 04 2025 11:15:16 GMT-0600 (Central Standard Time),312578.8000000119,lime,800,I,m,m,None,542,338.0,204.0,125,1,1872.300000011921,310706.5,7231,lead,NF,C,307797,307797,306270,307077,306270,308142,307593,307593,308142,53
50,test,1,inc,0,m,Tue Nov 04 2025 11:15:16 GMT-0600 (Central Standard Time),314712.6999999881,kiwi,1000,I,z,z,None,594,395.0,199.0,119,1,2130.199999988079,312582.5,7231,zinc,NF,C,309876,309876,308146,309161,308146,310276,309676,309676,310276,54
51,test,1,inc,1,m,Tue Nov 04 2025 11:15:16 GMT-0600 (Central Standard Time),316994.40000003576,orange,1000,I,m,m,None,742,542.0,200.0,71,1,2278.900000035763,314715.5,7231,bronze,NF,C,312009,312009,310279,311294,310279,312558,311808,311808,312557,55
52,test,1,inc,1,z,Tue Nov 04 2025 11:15:16 GMT-0600 (Central Standard Time),319261.1999999881,lead,1100,I,z,z,None,631,432.0,199.0,48,1,2261.199999988079,317000.0,7231,pear,NF,C,314391,314391,312563,313675,312563,314824,314192,314192,314824,56
53,test,1,inc,1,m,Tue Nov 04 2025 11:15:16 GMT-0600 (Central Standard Time),321493.6999999881,orange,1000,I,m,m,None,707,507.0,200.0,87,1,2228.599999964237,319265.10000002384,7231,silver,NF,C,316540,316540,314828,315839,314828,317057,316340,316340,317057,57
54,test,1,inc,1,m,Tue Nov 04 2025 11:15:16 GMT-0600 (Central Standard Time),323593.60000002384,lime,800,I,m,m,None,768,569.0,199.0,117,1,2097.199999988079,321496.40000003576,7231,zinc,NF,C,318574,318574,317059,317873,317060,319157,318374,318374,319157,58
55,test,1,inc,1,z,Tue Nov 04 2025 11:15:16 GMT-0600 (Central Standard Time),325692.3000000119,iron,900,I,z,z,None,657,457.0,200.0,62,1,2093.100000023842,323599.1999999881,7231,plum,NF,C,320790,320790,319162,320073,319162,321255,320590,320590,321255,59
55,test,1,con,0,z,Tue Nov 04 2025 11:15:16 GMT-0600 (Central Standard Time),327842.0,banana,1100,I,m,m,None,502,302.0,200.0,4,1,2144.599999964237,325697.40000003576,7231,banana,NF,C,323089,323089,321260,322373,321261,323405,322888,322888,323405,60
56,test,1,inc,1,z,Tue Nov 04 2025 11:15:16 GMT-0600 (Central Standard Time),330140.5,cobalt,1100,I,z,z,None,650,449.0,201.0,8,1,2295.199999988079,327845.3000000119,7231,banana,NF,C,325238,325238,323408,324521,323409,325704,325037,325037,325704,61
57,test,1,con,1,m,Tue Nov 04 2025 11:15:16 GMT-0600 (Central Standard Time),332156.8000000119,bronze,1000,I,m,m,None,484,282.0,202.0,67,1,2010.1000000238419,330146.6999999881,7231,bronze,NF,C,327438,327438,325710,326721,325710,327720,327235,327235,327720,62
58,test,1,inc,1,m,Tue Nov 04 2025 11:15:16 GMT-0600 (Central Standard Time),334339.40000003576,cherry,900,I,m,m,None,737,525.0,212.0,78,1,2176.7000000476837,332162.6999999881,7231,copper,NF,C,329370,329370,327726,328637,327726,329902,329157,329157,329902,63
59,test,1,inc,1,z,Tue Nov 04 2025 11:15:16 GMT-0600 (Central Standard Time),336522.10000002384,silver,1000,I,z,z,None,635,432.0,203.0,7,1,2177.5,334344.60000002384,7231,banana,NF,C,331639,331639,329908,330921,329908,332085,331435,331435,332085,64
60,test,1,inc,1,m,Tue Nov 04 2025 11:15:16 GMT-0600 (Central Standard Time),338688.60000002384,orange,1000,I,m,m,None,643,429.0,214.0,95,1,2162.699999988079,336525.90000003576,7231,cobalt,NF,C,333818,333818,332089,333102,332089,334252,333603,333603,334252,65
61,test,1,inc,1,z,Tue Nov 04 2025 11:15:16 GMT-0600 (Central Standard Time),341003.6999999881,lead,1100,I,z,z,None,674,474.0,200.0,56,1,2311.5,338692.1999999881,7231,kiwi,NF,C,336085,336085,334255,335369,334256,336567,335884,335884,336567,66
62,test,1,con,1,z,Tue Nov 04 2025 11:15:16 GMT-0600 (Central Standard Time),343119.0,pear,900,I,z,z,None,678,479.0,199.0,42,1,2111.5,341007.5,7231,pear,NF,C,338201,338201,336571,337484,336571,338682,338001,338001,338682,67
63,test,1,con,1,m,Tue Nov 04 2025 11:15:16 GMT-0600 (Central Standard Time),345169.40000003576,iron,900,I,m,m,None,602,403.0,199.0,106,1,2046.9000000357628,343122.5,7231,iron,NF,C,340316,340316,338686,339601,338686,340732,340117,340117,340732,68
64,test,1,inc,1,z,Tue Nov 04 2025 11:15:16 GMT-0600 (Central Standard Time),347336.0,zinc,1000,I,z,z,None,622,421.0,201.0,47,1,2163.0,345173.0,7231,pear,NF,C,342466,342466,340736,341749,340736,342899,342265,342265,342899,69
65,test,1,con,1,m,Tue Nov 04 2025 11:15:16 GMT-0600 (Central Standard Time),349268.0,iron,800,I,m,m,None,600,399.0,201.0,105,1,1926.0,347342.0,7231,iron,NF,C,344432,344432,342905,343715,342905,344831,344231,344231,344831,70
66,test,1,con,1,m,Tue Nov 04 2025 11:15:16 GMT-0600 (Central Standard Time),351401.60000002384,copper,1100,I,m,m,None,485,286.0,199.0,76,1,2131.199999988079,349270.40000003576,7231,copper,NF,C,346665,346665,344833,345948,344834,346965,346466,346466,346965,71
67,test,1,con,1,m,Tue Nov 04 2025 11:15:16 GMT-0600 (Central Standard Time),353183.8000000119,bronze,800,I,m,m,None,461,262.0,199.0,65,1,1777.5,351406.3000000119,7231,bronze,NF,C,348481,348481,346969,347781,346970,348747,348282,348282,348747,72
68,test,1,con,1,z,Tue Nov 04 2025 11:15:16 GMT-0600 (Central Standard Time),355116.6999999881,raisin,900,I,z,z,None,498,299.0,199.0,26,1,1928.3999999761581,353188.3000000119,7231,raisin,NF,C,350380,350380,348751,349664,348752,350680,350180,350180,350680,73
69,test,1,con,1,z,Tue Nov 04 2025 11:15:16 GMT-0600 (Central Standard Time),357399.1999999881,kiwi,900,I,z,z,None,838,638.0,200.0,50,1,2277.899999976158,355121.3000000119,7231,kiwi,NF,C,352312,352312,350684,351596,350685,352962,352111,352112,352962,74
70,test,1,inc,1,z,Tue Nov 04 2025 11:15:16 GMT-0600 (Central Standard Time),359414.8000000119,bronze,800,I,z,z,None,671,470.0,201.0,13,1,2012.699999988079,357402.10000002384,7231,cherry,NF,C,354496,354496,352965,353779,352965,354978,354295,354295,354978,75
71,test,1,inc,1,z,Tue Nov 04 2025 11:15:16 GMT-0600 (Central Standard Time),361729.8000000119,zinc,1000,I,z,z,None,774,575.0,199.0,63,1,2312.300000011921,359417.5,7231,plum,NF,C,356712,356712,354981,355994,354981,357293,356512,356512,357293,76
72,test,1,con,1,z,Tue Nov 04 2025 11:15:16 GMT-0600 (Central Standard Time),363897.40000003576,cherry,1100,I,z,z,None,526,327.0,199.0,12,1,2164.7000000476837,361732.6999999881,7231,cherry,NF,C,359128,359128,357296,358411,357296,359460,358929,358929,359460,77
73,test,1,inc,1,z,Tue Nov 04 2025 11:15:16 GMT-0600 (Central Standard Time),365830.60000002384,bronze,800,I,z,z,None,599,396.0,203.0,29,1,1929.9000000357628,363900.6999999881,7231,raisin,NF,C,360996,360996,359464,360278,359464,361394,360793,360793,361394,78
74,test,1,con,1,z,Tue Nov 04 2025 11:15:16 GMT-0600 (Central Standard Time),367812.5,pear,1000,I,z,z,None,448,249.0,199.0,43,1,1976.8999999761581,365835.60000002384,7231,pear,NF,C,363126,363126,361399,362410,361399,363376,362927,362927,363375,79
75,test,1,con,1,z,Tue Nov 04 2025 11:15:16 GMT-0600 (Central Standard Time),369928.6999999881,plum,1100,I,z,z,None,493,279.0,214.0,60,1,2112.599999964237,367816.10000002384,7231,plum,NF,C,365208,365208,363379,364491,363379,365492,364993,364993,365492,80
76,test,1,inc,1,z,Tue Nov 04 2025 11:15:16 GMT-0600 (Central Standard Time),372144.10000002384,zinc,1000,I,z,z,None,666,454.0,212.0,39,1,2209.5,369934.60000002384,7231,lime,NF,C,367241,367241,365498,366508,365498,367707,367028,367028,367707,81
77,test,1,con,1,m,Tue Nov 04 2025 11:15:16 GMT-0600 (Central Standard Time),374076.90000003576,gold,800,I,m,m,None,603,390.0,213.0,97,1,1929.1000000238419,372147.8000000119,7231,gold,NF,C,369240,369240,367711,368526,367711,369640,369027,369027,369640,82
78,test,1,inc,1,m,Tue Nov 04 2025 11:15:16 GMT-0600 (Central Standard Time),376626.1999999881,plum,1100,I,m,m,None,909,709.0,200.0,112,1,2546.2999999523163,374079.90000003576,7231,iron,NF,C,371473,371473,369643,370757,369643,372189,371272,371272,372189,83
79,test,1,con,1,m,Tue Nov 04 2025 11:15:16 GMT-0600 (Central Standard Time),378709.5,cobalt,1100,I,m,m,None,449,247.0,202.0,92,1,2080.199999988079,376629.3000000119,7231,cobalt,NF,C,374024,374024,372192,373306,372193,374273,373822,373822,374273,84
80,test,1,inc,1,z,Tue Nov 04 2025 11:15:16 GMT-0600 (Central Standard Time),380823.3000000119,copper,900,I,z,z,None,669,468.0,201.0,30,1,2108.899999976158,378714.40000003576,7231,raisin,NF,C,375906,375906,374277,375188,374278,376386,375705,375705,376386,85
81,test,1,inc,1,m,Tue Nov 04 2025 11:15:16 GMT-0600 (Central Standard Time),382823.3000000119,banana,800,I,m,m,None,660,459.0,201.0,85,1,1997.300000011921,380826.0,7231,silver,NF,C,377923,377923,376389,377207,376389,378386,377721,377721,378386,86
82,test,1,con,1,m,Tue Nov 04 2025 11:15:16 GMT-0600 (Central Standard Time),384655.90000003576,cobalt,800,I,m,m,None,484,268.0,216.0,89,1,1830.0,382825.90000003576,7231,cobalt,NF,C,379938,379938,378389,379204,378389,380219,379722,379722,380219,87
83,test,1,inc,1,z,Tue Nov 04 2025 11:15:16 GMT-0600 (Central Standard Time),386939.10000002384,lead,1100,I,z,z,None,640,441.0,199.0,64,1,2279.0,384660.10000002384,7231,plum,NF,C,382052,382053,380223,381337,380223,382502,381853,381853,382502,88
84,test,1,con,1,z,Tue Nov 04 2025 11:15:16 GMT-0600 (Central Standard Time),388889.40000003576,pear,800,I,z,z,None,603,404.0,199.0,41,1,1947.9000000357628,386941.5,7231,pear,NF,C,384035,384035,382505,383321,382505,384452,383836,383836,384452,89
85,test,1,inc,1,m,Tue Nov 04 2025 11:15:16 GMT-0600 (Central Standard Time),390988.10000002384,banana,800,I,m,m,None,757,556.0,201.0,77,1,2094.199999988079,388893.90000003576,7231,copper,NF,C,385987,385987,384457,385269,384457,386551,385786,385786,386551,90
86,test,1,con,1,m,Tue Nov 04 2025 11:15:16 GMT-0600 (Central Standard Time),392954.3000000119,cobalt,900,I,m,m,None,542,343.0,199.0,90,1,1962.3999999761581,390991.90000003576,7231,cobalt,NF,C,388168,388168,386555,387467,386555,388517,387969,387969,388517,91
87,test,1,inc,1,m,Tue Nov 04 2025 11:15:16 GMT-0600 (Central Standard Time),395319.8000000119,raisin,1100,I,m,m,None,737,538.0,199.0,96,1,2362.899999976158,392956.90000003576,7231,cobalt,NF,C,390333,390333,388520,389633,388520,390883,390134,390134,390883,92
88,test,1,con,1,m,Tue Nov 04 2025 11:15:16 GMT-0600 (Central Standard Time),397136.90000003576,zinc,800,I,m,m,None,478,278.0,200.0,113,1,1814.5,395322.40000003576,7231,zinc,NF,C,392417,392417,390885,391701,390886,392700,392216,392216,392700,93
89,test,1,con,1,m,Tue Nov 04 2025 11:15:16 GMT-0600 (Central Standard Time),399203.8000000119,bronze,1100,I,m,m,None,434,234.0,200.0,68,1,2062.600000023842,397141.1999999881,7231,bronze,NF,C,394533,394533,392704,393817,392704,394767,394333,394333,394767,94
90,test,1,con,1,z,Tue Nov 04 2025 11:15:16 GMT-0600 (Central Standard Time),401486.40000003576,raisin,1000,I,z,z,None,740,540.0,200.0,27,1,2278.7000000476837,399207.6999999881,7231,raisin,NF,C,396499,396499,394771,395783,394771,397049,396298,396298,397049,95
91,test,1,inc,1,z,Tue Nov 04 2025 11:15:16 GMT-0600 (Central Standard Time),403901.1999999881,cobalt,1100,I,z,z,None,772,558.0,214.0,24,1,2411.0,401490.1999999881,7231,orange,NF,C,398897,398897,397053,398164,397054,399464,398683,398683,399464,96
92,test,1,inc,1,z,Tue Nov 04 2025 11:15:16 GMT-0600 (Central Standard Time),406215.6999999881,cobalt,1100,I,z,z,None,678,479.0,199.0,32,1,2307.199999988079,403908.5,7231,raisin,NF,C,401296,401296,399472,400581,399472,401779,401097,401097,401779,97
93,test,1,inc,1,m,Tue Nov 04 2025 11:15:16 GMT-0600 (Central Standard Time),408332.1999999881,pear,900,I,m,m,None,666,466.0,200.0,126,1,2111.899999976158,406220.3000000119,7231,lead,NF,C,403413,403413,401783,402697,401784,403895,403213,403213,403895,98
94,test,1,inc,1,m,Tue Nov 04 2025 11:15:16 GMT-0600 (Central Standard Time),410564.90000003576,kiwi,1000,I,m,m,None,705,492.0,213.0,103,1,2227.600000023842,408337.3000000119,7231,gold,NF,C,405629,405629,403900,404913,403901,406128,405415,405415,406128,99
95,test,1,con,1,z,Tue Nov 04 2025 11:15:16 GMT-0600 (Central Standard Time),412481.0,plum,800,I,z,z,None,570,370.0,200.0,57,1,1909.5,410571.5,7231,plum,NF,C,407661,407661,406135,406945,406135,408044,407461,407461,408044,100
96,test,1,con,1,z,Tue Nov 04 2025 11:15:16 GMT-0600 (Central Standard Time),414713.60000002384,kiwi,1000,I,z,z,None,693,494.0,199.0,51,1,2227.900000035763,412485.6999999881,7231,kiwi,NF,C,409777,409777,408049,409061,408049,410277,409578,409578,410277,101
97,test,1,inc,1,m,Tue Nov 04 2025 11:15:16 GMT-0600 (Central Standard Time),417012.8000000119,plum,1100,I,m,m,None,671,457.0,214.0,120,1,2293.600000023842,414719.1999999881,7231,zinc,NF,C,412110,412110,410282,411393,410282,412576,411895,411895,412576,102
98,test,1,inc,1,z,Tue Nov 04 2025 11:15:16 GMT-0600 (Central Standard Time),419161.90000003576,silver,1000,I,z,z,None,610,410.0,200.0,15,1,2142.800000011921,417019.10000002384,7231,cherry,NF,C,414309,414309,412582,413593,412582,414725,414109,414109,414725,103
99,test,1,inc,1,m,Tue Nov 04 2025 11:15:16 GMT-0600 (Central Standard Time),421446.10000002384,raisin,1100,I,m,m,None,651,451.0,200.0,72,1,2278.900000035763,419167.1999999881,7231,bronze,NF,C,416558,416558,414730,415844,414730,417009,416358,416358,417009,104
100,test,1,inc,1,z,Tue Nov 04 2025 11:15:16 GMT-0600 (Central Standard Time),423494.6999999881,copper,900,I,z,z,None,613,413.0,200.0,6,1,2044.5999999642372,421450.10000002384,7231,banana,NF,C,418642,418642,417013,417924,417013,419058,418441,418441,419058,105
101,test,1,con,1,m,Tue Nov 04 2025 11:15:16 GMT-0600 (Central Standard Time),425643.6999999881,iron,1000,I,m,m,None,607,408.0,199.0,107,1,2144.099999964237,423499.60000002384,7231,iron,NF,C,420791,420791,419063,420073,419063,421207,420591,420591,421207,106
102,test,1,inc,1,z,Tue Nov 04 2025 11:15:16 GMT-0600 (Central Standard Time),427676.3000000119,copper,900,I,z,z,None,598,383.0,215.0,14,1,2024.699999988079,425651.60000002384,7231,cherry,NF,C,422840,422840,421215,422123,421215,423239,422625,422625,423239,107
103,test,1,inc,1,m,Tue Nov 04 2025 11:15:16 GMT-0600 (Central Standard Time),429625.1999999881,lime,800,I,m,m,None,610,410.0,200.0,101,1,1942.2999999523163,427682.90000003576,7231,gold,NF,C,424773,424773,423246,424056,423246,425188,424573,424573,425188,108
104,test,1,con,1,z,Tue Nov 04 2025 11:15:16 GMT-0600 (Central Standard Time),431544.10000002384,cherry,900,I,z,z,None,480,281.0,199.0,10,1,1913.4000000357628,429630.6999999881,7231,cherry,NF,C,426822,426822,425194,426106,425194,427107,426622,426622,427107,109
105,test,1,con,1,m,Tue Nov 04 2025 11:15:16 GMT-0600 (Central Standard Time),433458.3000000119,silver,800,I,m,m,None,575,360.0,215.0,81,1,1907.5,431550.8000000119,7231,silver,NF,C,428655,428655,427114,427922,427114,429021,428440,428440,429021,110
106,test,1,inc,1,m,Tue Nov 04 2025 11:15:16 GMT-0600 (Central Standard Time),435423.8000000119,banana,800,I,m,m,None,620,420.0,200.0,93,1,1960.8999999761581,433462.90000003576,7231,cobalt,NF,C,430554,430555,429026,429839,429026,430987,430354,430354,430987,111
107,test,1,inc,1,m,Tue Nov 04 2025 11:15:16 GMT-0600 (Central Standard Time),437541.6999999881,cherry,900,I,m,m,None,667,467.0,200.0,70,1,2113.199999988079,435428.5,7231,bronze,NF,C,432620,432620,430992,431903,430992,433105,432420,432420,433105,112
108,test,1,con,1,z,Tue Nov 04 2025 11:15:16 GMT-0600 (Central Standard Time),439439.3000000119,raisin,800,I,z,z,None,555,355.0,200.0,25,1,1893.8999999761581,437545.40000003576,7231,raisin,NF,C,434636,434636,433108,433920,433109,435002,434436,434436,435002,113
109,test,1,con,1,z,Tue Nov 04 2025 11:15:16 GMT-0600 (Central Standard Time),441304.1999999881,banana,800,I,z,z,None,526,326.0,200.0,1,1,1859.2999999523163,439444.90000003576,7231,banana,NF,C,436536,436536,435008,435819,435008,436867,436335,436335,436867,114
110,test,1,con,1,m,Tue Nov 04 2025 11:15:16 GMT-0600 (Central Standard Time),443306.0,copper,1000,I,m,m,None,454,253.0,201.0,75,1,1999.0,441307.0,7231,copper,NF,C,438602,438602,436870,437885,436870,438869,438401,438401,438869,115
111,test,1,inc,1,z,Tue Nov 04 2025 11:15:16 GMT-0600 (Central Standard Time),445221.90000003576,gold,800,I,z,z,None,573,373.0,200.0,61,1,1911.0,443310.90000003576,7231,plum,NF,C,440402,440402,438874,439685,438874,440785,440201,440201,440785,116
112,test,1,con,1,z,Tue Nov 04 2025 11:15:16 GMT-0600 (Central Standard Time),447120.0,lime,900,I,z,z,None,476,277.0,199.0,34,1,1892.5,445227.5,7231,lime,NF,C,442402,442402,440791,441701,440791,442683,442202,442202,442683,117
112,test,1,con,0,z,Tue Nov 04 2025 11:15:16 GMT-0600 (Central Standard Time),449086.3000000119,lime,1000,I,m,m,None,432,233.0,199.0,35,1,1960.800000011921,447125.5,7231,lime,NF,C,444416,444416,442689,443700,442689,444649,444217,444217,444649,118
113,test,1,con,1,m,Tue Nov 04 2025 11:15:16 GMT-0600 (Central Standard Time),451102.10000002384,gold,1000,I,m,m,None,472,273.0,199.0,99,1,2011.1000000238419,449091.0,7231,gold,NF,C,446383,446383,444654,445666,444654,446665,446183,446183,446665,119
114,test,1,inc,1,z,Tue Nov 04 2025 11:15:16 GMT-0600 (Central Standard Time),453135.5,bronze,800,I,z,z,None,688,487.0,201.0,5,1,2028.8999999761581,451106.60000002384,7231,banana,NF,C,448200,448200,446670,447482,446670,448699,447999,447999,448698,120
115,test,1,con,1,z,Tue Nov 04 2025 11:15:16 GMT-0600 (Central Standard Time),455267.90000003576,pear,1100,I,z,z,None,490,291.0,199.0,44,1,2125.7000000476837,453142.1999999881,7231,pear,NF,C,450532,450532,448705,449815,448706,450831,450333,450333,450831,121
116,test,1,con,1,z,Tue Nov 04 2025 11:15:16 GMT-0600 (Central Standard Time),457233.1999999881,plum,900,I,z,z,None,517,318.0,199.0,58,1,1961.5,455271.6999999881,7231,plum,NF,C,452464,452464,450835,451748,450835,452796,452264,452264,452796,122
117,test,1,con,1,z,Tue Nov 04 2025 11:15:16 GMT-0600 (Central Standard Time),459116.10000002384,lime,800,I,z,z,None,556,357.0,199.0,33,1,1878.300000011921,457237.8000000119,7231,lime,NF,C,454314,454314,452801,453612,452801,454679,454114,454114,454679,123
118,test,1,con,1,z,Tue Nov 04 2025 11:15:16 GMT-0600 (Central Standard Time),461166.1999999881,plum,1000,I,z,z,None,505,306.0,199.0,59,1,2045.5,459120.6999999881,7231,plum,NF,C,456412,456413,454684,455697,454684,456729,456213,456213,456729,124
119,test,1,con,1,z,Tue Nov 04 2025 11:15:16 GMT-0600 (Central Standard Time),462964.8000000119,orange,800,I,z,z,None,456,241.0,215.0,17,1,1795.199999988079,461169.60000002384,7231,orange,NF,C,458278,458278,456733,457545,456733,458528,458063,458063,458528,125
120,test,1,con,1,m,Tue Nov 04 2025 11:15:16 GMT-0600 (Central Standard Time),464797.1999999881,copper,800,I,m,m,None,498,297.0,201.0,73,1,1828.0999999642372,462969.10000002384,7231,copper,NF,C,460062,460062,458532,459346,458533,460360,459861,459861,460360,126
121,test,1,inc,1,m,Tue Nov 04 2025 11:15:16 GMT-0600 (Central Standard Time),467064.6999999881,orange,1000,I,m,m,None,728,529.0,199.0,79,1,2262.5,464802.1999999881,7231,copper,NF,C,462094,462094,460365,461378,460365,462628,461895,461895,462628,127
122,test,1,con,1,m,Tue Nov 04 2025 11:15:16 GMT-0600 (Central Standard Time),468914.8000000119,lead,900,I,m,m,None,426,212.0,214.0,122,1,1847.1000000238419,467067.6999999881,7231,lead,NF,C,464259,464259,462631,463543,462631,464478,464045,464045,464478,128
