block_c,block_dur,condition,countdown,datetime,endtime,list,multichar_response,project,response,response_time,session_number,start_end,starttime,subject_id,task,task_vers,trial
,,,,Fri Dec 12 2025 14:36:14 GMT-0600 (Central Standard Time),,,,O,space,404,1,,,7707,WL,C,
prac,,0,,Fri Dec 12 2025 14:36:14 GMT-0600 (Central Standard Time),,NA,b,O,b,1521,1,,,7707,WL,C,1.0
prac,,0,,Fri Dec 12 2025 14:36:14 GMT-0600 (Central Standard Time),,NA,bo,O,o,640,1,,,7707,WL,C,1.0
prac,,0,,Fri Dec 12 2025 14:36:14 GMT-0600 (Central Standard Time),,NA,boo,O,o,191,1,,,7707,WL,C,1.0
prac,,0,,Fri Dec 12 2025 14:36:14 GMT-0600 (Central Standard Time),,NA,boos,O,s,238,1,,,7707,WL,C,1.0
prac,,0,,Fri Dec 12 2025 14:36:14 GMT-0600 (Central Standard Time),,NA,boost,O,t,244,1,,,7707,WL,C,1.0
prac,,0,,Fri Dec 12 2025 14:36:14 GMT-0600 (Central Standard Time),,NA,boostenter,O,enter,2685,1,,,7707,WL,C,1.0
1,2.0190000534057617,learn,57980.99994659424,Fri Dec 12 2025 14:36:14 GMT-0600 (Central Standard Time),130225.39999997616,A,t,O,t,2005,1,2018.6000000238419,128206.79999995232,7707,WL,C,1.0
1,2.2680001258850098,learn,57731.99987411499,Fri Dec 12 2025 14:36:14 GMT-0600 (Central Standard Time),130474.39999997616,A,to,O,o,243,1,2267.600000023842,128206.79999995232,7707,WL,C,1.0
1,2.565999984741211,learn,57434.00001525879,Fri Dec 12 2025 14:36:14 GMT-0600 (Central Standard Time),130772.79999995232,A,tow,O,w,278,1,2566.0,128206.79999995232,7707,WL,C,1.0
1,2.873000144958496,learn,57126.999855041504,Fri Dec 12 2025 14:36:14 GMT-0600 (Central Standard Time),131079.79999995232,A,towe,O,e,283,1,2873.0,128206.79999995232,7707,WL,C,1.0
1,3.180999994277954,learn,56819.000005722046,Fri Dec 12 2025 14:36:14 GMT-0600 (Central Standard Time),131387.29999995232,A,towee,O,e,299,1,3180.5,128206.79999995232,7707,WL,C,1.0
1,3.2660000324249268,learn,56733.99996757507,Fri Dec 12 2025 14:36:14 GMT-0600 (Central Standard Time),131472.60000002384,A,toweer,O,r,72,1,3265.8000000715256,128206.79999995232,7707,WL,C,1.0
1,4.065999984741211,learn,55934.00001525879,Fri Dec 12 2025 14:36:14 GMT-0600 (Central Standard Time),132272.19999992847,A,toweerenter,O,enter,779,1,4065.399999976158,128206.79999995232,7707,WL,C,1.0
1,5.848999977111816,learn,54151.00002288818,Fri Dec 12 2025 14:36:14 GMT-0600 (Central Standard Time),134055.60000002384,A,b,O,b,1770,1,1782.9000000953674,132272.69999992847,7707,WL,C,2.0
1,6.498000144958496,learn,53501.999855041504,Fri Dec 12 2025 14:36:14 GMT-0600 (Central Standard Time),134704.69999992847,A,bo,O,o,632,1,2432.0,132272.69999992847,7707,WL,C,2.0
1,6.832000017166138,learn,53167.99998283386,Fri Dec 12 2025 14:36:14 GMT-0600 (Central Standard Time),135038.29999995232,A,bot,O,t,309,1,2765.600000023842,132272.69999992847,7707,WL,C,2.0
1,7.098999977111816,learn,52901.00002288818,Fri Dec 12 2025 14:36:14 GMT-0600 (Central Standard Time),135305.89999997616,A,botenter,O,enter,256,1,3033.2000000476837,132272.69999992847,7707,WL,C,2.0
1,9.19700002670288,learn,50802.99997329712,Fri Dec 12 2025 14:36:14 GMT-0600 (Central Standard Time),137403.5,A,d,O,d,2079,1,2097.3000000715256,135306.19999992847,7707,WL,C,3.0
1,9.46399998664856,learn,50536.00001335144,Fri Dec 12 2025 14:36:14 GMT-0600 (Central Standard Time),137670.60000002384,A,do,O,o,245,1,2364.4000000953674,135306.19999992847,7707,WL,C,3.0
1,9.597000122070312,learn,50402.99987792969,Fri Dec 12 2025 14:36:14 GMT-0600 (Central Standard Time),137803.79999995232,A,doc,O,c,112,1,2497.600000023842,135306.19999992847,7707,WL,C,3.0
1,9.897000074386597,learn,50102.9999256134,Fri Dec 12 2025 14:36:14 GMT-0600 (Central Standard Time),138104.0,A,doct,O,t,281,1,2797.8000000715256,135306.19999992847,7707,WL,C,3.0
1,10.230000019073486,learn,49769.999980926514,Fri Dec 12 2025 14:36:14 GMT-0600 (Central Standard Time),138436.89999997616,A,docto,O,o,310,1,3130.7000000476837,135306.19999992847,7707,WL,C,3.0
1,10.414000034332275,learn,49585.999965667725,Fri Dec 12 2025 14:36:14 GMT-0600 (Central Standard Time),138620.10000002384,A,doctor,O,r,171,1,3313.9000000953674,135306.19999992847,7707,WL,C,3.0
1,11.114000082015991,learn,48885.99991798401,Fri Dec 12 2025 14:36:14 GMT-0600 (Central Standard Time),139320.5,A,doctorenter,O,enter,683,1,4014.3000000715256,135306.19999992847,7707,WL,C,3.0
1,14.014000177383423,learn,45985.99982261658,Fri Dec 12 2025 14:36:14 GMT-0600 (Central Standard Time),142220.10000002384,A,c,O,c,2881,1,2899.3000000715256,139320.79999995232,7707,WL,C,4.0
1,14.263000011444092,learn,45736.99998855591,Fri Dec 12 2025 14:36:14 GMT-0600 (Central Standard Time),142469.79999995232,A,co,O,o,235,1,3149.0,139320.79999995232,7707,WL,C,4.0
1,14.546000003814697,learn,45453.9999961853,Fri Dec 12 2025 14:36:14 GMT-0600 (Central Standard Time),142752.10000002384,A,cor,O,r,267,1,3431.3000000715256,139320.79999995232,7707,WL,C,4.0
1,14.77999997138977,learn,45220.00002861023,Fri Dec 12 2025 14:36:14 GMT-0600 (Central Standard Time),142987.10000002384,A,corn,O,n,223,1,3666.3000000715256,139320.79999995232,7707,WL,C,4.0
1,15.195000171661377,learn,44804.99982833862,Fri Dec 12 2025 14:36:14 GMT-0600 (Central Standard Time),143401.89999997616,A,cornenter,O,enter,404,1,4081.100000023842,139320.79999995232,7707,WL,C,4.0
1,20.97699999809265,learn,39023.00000190735,Fri Dec 12 2025 14:36:14 GMT-0600 (Central Standard Time),149183.39999997616,A,l,O,l,5762,1,5781.200000047684,143402.19999992847,7707,WL,C,5.0
1,21.277000188827515,learn,38722.999811172485,Fri Dec 12 2025 14:36:14 GMT-0600 (Central Standard Time),149484.0,A,li,O,i,279,1,6081.800000071526,143402.19999992847,7707,WL,C,5.0
1,21.426000118255615,learn,38573.999881744385,Fri Dec 12 2025 14:36:14 GMT-0600 (Central Standard Time),149633.10000002384,A,lis,O,s,138,1,6230.900000095367,143402.19999992847,7707,WL,C,5.0
1,21.761000156402588,learn,38238.99984359741,Fri Dec 12 2025 14:36:14 GMT-0600 (Central Standard Time),149967.5,A,list,O,t,318,1,6565.300000071526,143402.19999992847,7707,WL,C,5.0
1,22.094000101089478,learn,37905.99989891052,Fri Dec 12 2025 14:36:14 GMT-0600 (Central Standard Time),150300.29999995232,A,listenter,O,enter,311,1,6898.100000023842,143402.19999992847,7707,WL,C,5.0
1,28.992000102996826,learn,31007.999897003174,Fri Dec 12 2025 14:36:14 GMT-0600 (Central Standard Time),157198.19999992847,A,f,O,f,6878,1,6897.599999904633,150300.60000002384,7707,WL,C,6.0
1,30.990000009536743,learn,29009.999990463257,Fri Dec 12 2025 14:36:14 GMT-0600 (Central Standard Time),159196.19999992847,A,fa,O,a,1978,1,8895.599999904633,150300.60000002384,7707,WL,C,6.0
1,31.241000175476074,learn,28758.999824523926,Fri Dec 12 2025 14:36:14 GMT-0600 (Central Standard Time),159447.79999995232,A,far,O,r,247,1,9147.199999928474,150300.60000002384,7707,WL,C,6.0
1,31.54100012779236,learn,28458.99987220764,Fri Dec 12 2025 14:36:14 GMT-0600 (Central Standard Time),159747.5,A,farm,O,m,280,1,9446.899999976158,150300.60000002384,7707,WL,C,6.0
1,32.241000175476074,learn,27758.999824523926,Fri Dec 12 2025 14:36:14 GMT-0600 (Central Standard Time),160447.10000002384,A,farmenter,O,enter,676,1,10146.5,150300.60000002384,7707,WL,C,6.0
1,48.53400015830994,learn,11465.999841690063,Fri Dec 12 2025 14:36:14 GMT-0600 (Central Standard Time),176741.5,A,enter,O,enter,16274,1,16294.200000047684,160447.29999995232,7707,WL,C,7.0
1,49.1010000705719,learn,10898.9999294281,Fri Dec 12 2025 14:36:14 GMT-0600 (Central Standard Time),177308.0,A,enter,O,enter,547,1,566.2000000476837,176741.79999995232,7707,WL,C,8.0
1,50.13300013542175,learn,9866.999864578247,Fri Dec 12 2025 14:36:14 GMT-0600 (Central Standard Time),178340.19999992847,A,enter,O,enter,1021,1,1031.7999999523163,177308.39999997616,7707,WL,C,9.0
1,50.616000175476074,learn,9383.999824523926,Fri Dec 12 2025 14:36:14 GMT-0600 (Central Standard Time),178823.5,A,enter,O,enter,479,1,483.0,178340.5,7707,WL,C,10.0
1,51.03400015830994,learn,8965.999841690063,Fri Dec 12 2025 14:36:14 GMT-0600 (Central Standard Time),179241.5,A,enter,O,enter,403,1,417.89999997615814,178823.60000002384,7707,WL,C,11.0
1,51.401000022888184,learn,8598.999977111816,Fri Dec 12 2025 14:36:14 GMT-0600 (Central Standard Time),179607.69999992847,A,enter,O,enter,344,1,365.7999999523163,179241.89999997616,7707,WL,C,12.0
1,51.76700019836426,learn,8232.999801635742,Fri Dec 12 2025 14:36:14 GMT-0600 (Central Standard Time),179974.29999995232,A,enter,O,enter,346,1,366.2999999523163,179608.0,7707,WL,C,13.0
1,52.134000062942505,learn,7865.999937057495,Fri Dec 12 2025 14:36:14 GMT-0600 (Central Standard Time),180341.0,A,enter,O,enter,347,1,366.3000000715256,179974.69999992847,7707,WL,C,14.0
1,52.48300004005432,learn,7516.999959945679,Fri Dec 12 2025 14:36:14 GMT-0600 (Central Standard Time),180690.69999992847,A,enter,O,enter,342,1,349.2999999523163,180341.39999997616,7707,WL,C,15.0
2,1.1510000228881836,learn,58848.99997711182,Fri Dec 12 2025 14:36:14 GMT-0600 (Central Standard Time),250469.10000002384,A,t,O,t,1142,1,1151.1000000238419,249318.0,7707,WL,C,1.0
2,1.4170000553131104,learn,58582.99994468689,Fri Dec 12 2025 14:36:14 GMT-0600 (Central Standard Time),250734.79999995232,A,to,O,o,245,1,1416.7999999523163,249318.0,7707,WL,C,1.0
2,1.7170000076293945,learn,58282.999992370605,Fri Dec 12 2025 14:36:14 GMT-0600 (Central Standard Time),251034.39999997616,A,tow,O,w,292,1,1716.3999999761581,249318.0,7707,WL,C,1.0
2,2.050999879837036,learn,57949.000120162964,Fri Dec 12 2025 14:36:14 GMT-0600 (Central Standard Time),251369.0,A,towe,O,e,321,1,2051.0,249318.0,7707,WL,C,1.0
2,2.2159998416900635,learn,57784.00015830994,Fri Dec 12 2025 14:36:14 GMT-0600 (Central Standard Time),251534.10000002384,A,towee,O,e,153,1,2216.100000023842,249318.0,7707,WL,C,1.0
2,2.315999984741211,learn,57684.00001525879,Fri Dec 12 2025 14:36:14 GMT-0600 (Central Standard Time),251633.60000002384,A,toweer,O,r,84,1,2315.600000023842,249318.0,7707,WL,C,1.0
2,3.682999849319458,learn,56317.00015068054,Fri Dec 12 2025 14:36:14 GMT-0600 (Central Standard Time),253001.19999992847,A,towee,O,backspace,1352,1,3683.1999999284744,249318.0,7707,WL,C,1.0
2,3.882999897003174,learn,56117.000102996826,Fri Dec 12 2025 14:36:14 GMT-0600 (Central Standard Time),253201.19999992847,A,towe,O,backspace,193,1,3883.1999999284744,249318.0,7707,WL,C,1.0
2,5.016000032424927,learn,54983.99996757507,Fri Dec 12 2025 14:36:14 GMT-0600 (Central Standard Time),254333.60000002384,A,tower,O,r,1122,1,5015.600000023842,249318.0,7707,WL,C,1.0
2,5.2829999923706055,learn,54717.000007629395,Fri Dec 12 2025 14:36:14 GMT-0600 (Central Standard Time),254601.19999992847,A,towerenter,O,enter,261,1,5283.199999928474,249318.0,7707,WL,C,1.0
2,5.648000001907349,learn,54351.99999809265,Fri Dec 12 2025 14:36:14 GMT-0600 (Central Standard Time),254966.39999997616,A,w,O,w,353,1,365.0,254601.39999997616,7707,WL,C,2.0
2,6.014999866485596,learn,53985.000133514404,Fri Dec 12 2025 14:36:14 GMT-0600 (Central Standard Time),255333.0,A,wh,O,h,347,1,731.6000000238419,254601.39999997616,7707,WL,C,2.0
2,6.065999984741211,learn,53934.00001525879,Fri Dec 12 2025 14:36:14 GMT-0600 (Central Standard Time),255383.69999992847,A,whe,O,e,35,1,782.2999999523163,254601.39999997616,7707,WL,C,2.0
2,6.315999984741211,learn,53684.00001525879,Fri Dec 12 2025 14:36:14 GMT-0600 (Central Standard Time),255633.69999992847,A,whea,O,a,235,1,1032.2999999523163,254601.39999997616,7707,WL,C,2.0
2,6.6499998569488525,learn,53350.00014305115,Fri Dec 12 2025 14:36:14 GMT-0600 (Central Standard Time),255967.5,A,wheat,O,t,321,1,1366.1000000238419,254601.39999997616,7707,WL,C,2.0
2,7.4649999141693115,learn,52535.00008583069,Fri Dec 12 2025 14:36:14 GMT-0600 (Central Standard Time),256783.0,A,wheatenter,O,enter,800,1,2181.600000023842,254601.39999997616,7707,WL,C,2.0
2,8.013999938964844,learn,51986.000061035156,Fri Dec 12 2025 14:36:14 GMT-0600 (Central Standard Time),257332.10000002384,A,d,O,d,530,1,548.9000000953674,256783.19999992847,7707,WL,C,3.0
2,8.330999851226807,learn,51669.00014877319,Fri Dec 12 2025 14:36:14 GMT-0600 (Central Standard Time),257648.89999997616,A,do,O,o,300,1,865.7000000476837,256783.19999992847,7707,WL,C,3.0
2,8.448999881744385,learn,51551.000118255615,Fri Dec 12 2025 14:36:14 GMT-0600 (Central Standard Time),257767.10000002384,A,dor,O,r,103,1,983.9000000953674,256783.19999992847,7707,WL,C,3.0
2,8.747999906539917,learn,51252.00009346008,Fri Dec 12 2025 14:36:14 GMT-0600 (Central Standard Time),258065.60000002384,A,dorc,O,c,290,1,1282.4000000953674,256783.19999992847,7707,WL,C,3.0
2,9.013999938964844,learn,50986.000061035156,Fri Dec 12 2025 14:36:14 GMT-0600 (Central Standard Time),258332.10000002384,A,dorct,O,t,245,1,1548.9000000953674,256783.19999992847,7707,WL,C,3.0
2,9.21399998664856,learn,50786.00001335144,Fri Dec 12 2025 14:36:14 GMT-0600 (Central Standard Time),258532.0,A,dorcto,O,o,178,1,1748.8000000715256,256783.19999992847,7707,WL,C,3.0
2,9.349999904632568,learn,50650.00009536743,Fri Dec 12 2025 14:36:14 GMT-0600 (Central Standard Time),258667.69999992847,A,dorctor,O,r,112,1,1884.5,256783.19999992847,7707,WL,C,3.0
2,10.447999954223633,learn,49552.00004577637,Fri Dec 12 2025 14:36:14 GMT-0600 (Central Standard Time),259765.69999992847,A,dorcto,O,backspace,1077,1,2982.5,256783.19999992847,7707,WL,C,3.0
2,10.648000001907349,learn,49351.99999809265,Fri Dec 12 2025 14:36:14 GMT-0600 (Central Standard Time),259965.79999995232,A,dorct,O,backspace,181,1,3182.600000023842,256783.19999992847,7707,WL,C,3.0
2,10.815999984741211,learn,49184.00001525879,Fri Dec 12 2025 14:36:14 GMT-0600 (Central Standard Time),260134.0,A,dorc,O,backspace,153,1,3350.8000000715256,256783.19999992847,7707,WL,C,3.0
2,10.997999906539917,learn,49002.00009346008,Fri Dec 12 2025 14:36:14 GMT-0600 (Central Standard Time),260315.89999997616,A,dor,O,backspace,161,1,3532.7000000476837,256783.19999992847,7707,WL,C,3.0
2,11.180999994277954,learn,48819.000005722046,Fri Dec 12 2025 14:36:14 GMT-0600 (Central Standard Time),260499.29999995232,A,do,O,backspace,163,1,3716.100000023842,256783.19999992847,7707,WL,C,3.0
2,12.063999891281128,learn,47936.00010871887,Fri Dec 12 2025 14:36:14 GMT-0600 (Central Standard Time),261381.69999992847,A,doc,O,c,870,1,4598.5,256783.19999992847,7707,WL,C,3.0
2,12.36299991607666,learn,47637.00008392334,Fri Dec 12 2025 14:36:14 GMT-0600 (Central Standard Time),261680.89999997616,A,doct,O,t,290,1,4897.700000047684,256783.19999992847,7707,WL,C,3.0
2,12.579999923706055,learn,47420.000076293945,Fri Dec 12 2025 14:36:14 GMT-0600 (Central Standard Time),261897.60000002384,A,docto,O,o,200,1,5114.400000095367,256783.19999992847,7707,WL,C,3.0
2,12.763999938964844,learn,47236.000061035156,Fri Dec 12 2025 14:36:14 GMT-0600 (Central Standard Time),262082.0,A,doctor,O,r,165,1,5298.800000071526,256783.19999992847,7707,WL,C,3.0
2,13.796000003814697,learn,46203.9999961853,Fri Dec 12 2025 14:36:14 GMT-0600 (Central Standard Time),263114.2999999523,A,doctorenter,O,enter,1012,1,6331.100000023842,256783.19999992847,7707,WL,C,3.0
2,14.11299991607666,learn,45887.00008392334,Fri Dec 12 2025 14:36:14 GMT-0600 (Central Standard Time),263430.60000002384,A,w,O,w,303,1,316.0,263114.60000002384,7707,WL,C,4.0
2,14.411999940872192,learn,45588.00005912781,Fri Dec 12 2025 14:36:14 GMT-0600 (Central Standard Time),263730.39999997616,A,wh,O,h,290,1,615.7999999523163,263114.60000002384,7707,WL,C,4.0
2,14.529000043869019,learn,45470.99995613098,Fri Dec 12 2025 14:36:14 GMT-0600 (Central Standard Time),263846.60000002384,A,whe,O,e,102,1,732.0,263114.60000002384,7707,WL,C,4.0
2,14.746000051498413,learn,45253.99994850159,Fri Dec 12 2025 14:36:14 GMT-0600 (Central Standard Time),264063.7999999523,A,whea,O,a,203,1,949.1999999284744,263114.60000002384,7707,WL,C,4.0
2,14.878999948501587,learn,45121.00005149841,Fri Dec 12 2025 14:36:14 GMT-0600 (Central Standard Time),264196.7999999523,A,wheat,O,t,123,1,1082.1999999284744,263114.60000002384,7707,WL,C,4.0
2,15.595999956130981,learn,44404.00004386902,Fri Dec 12 2025 14:36:14 GMT-0600 (Central Standard Time),264913.60000002384,A,wheatenter,O,enter,695,1,1799.0,263114.60000002384,7707,WL,C,4.0
2,15.911999940872192,learn,44088.00005912781,Fri Dec 12 2025 14:36:14 GMT-0600 (Central Standard Time),265230.0,A,s,O,s,305,1,316.2000000476837,264913.7999999523,7707,WL,C,5.0
2,16.244999885559082,learn,43755.00011444092,Fri Dec 12 2025 14:36:14 GMT-0600 (Central Standard Time),265563.1999999285,A,su,O,u,314,1,649.3999999761581,264913.7999999523,7707,WL,C,5.0
2,17.09500002861023,learn,42904.99997138977,Fri Dec 12 2025 14:36:14 GMT-0600 (Central Standard Time),266412.7999999523,A,sug,O,g,840,1,1499.0,264913.7999999523,7707,WL,C,5.0
2,17.34500002861023,learn,42654.99997138977,Fri Dec 12 2025 14:36:14 GMT-0600 (Central Standard Time),266663.0,A,suga,O,a,236,1,1749.2000000476837,264913.7999999523,7707,WL,C,5.0
2,17.66100001335144,learn,42338.99998664856,Fri Dec 12 2025 14:36:14 GMT-0600 (Central Standard Time),266979.1999999285,A,sugar,O,r,303,1,2065.399999976158,264913.7999999523,7707,WL,C,5.0
2,18.744999885559082,learn,41255.00011444092,Fri Dec 12 2025 14:36:14 GMT-0600 (Central Standard Time),268062.60000002384,A,sugarenter,O,enter,1069,1,3148.8000000715256,264913.7999999523,7707,WL,C,5.0
2,22.427000045776367,learn,37572.99995422363,Fri Dec 12 2025 14:36:14 GMT-0600 (Central Standard Time),271744.5,A,b,O,b,3668,1,3681.5,268063.0,7707,WL,C,6.0
2,22.90999984741211,learn,37090.00015258789,Fri Dec 12 2025 14:36:14 GMT-0600 (Central Standard Time),272227.89999997616,A,bo,O,o,473,1,4164.899999976158,268063.0,7707,WL,C,6.0
2,23.491999864578247,learn,36508.00013542175,Fri Dec 12 2025 14:36:14 GMT-0600 (Central Standard Time),272809.6999999285,A,boy,O,y,571,1,4746.699999928474,268063.0,7707,WL,C,6.0
2,24.211999893188477,learn,35788.00010681152,Fri Dec 12 2025 14:36:14 GMT-0600 (Central Standard Time),273529.6999999285,A,boyenter,O,enter,714,1,5466.699999928474,268063.0,7707,WL,C,6.0
2,29.375999927520752,learn,30624.000072479248,Fri Dec 12 2025 14:36:14 GMT-0600 (Central Standard Time),278693.5,A,s,O,s,5146,1,5163.600000023842,273529.89999997616,7707,WL,C,7.0
2,29.54200005531311,learn,30457.99994468689,Fri Dec 12 2025 14:36:14 GMT-0600 (Central Standard Time),278860.10000002384,A,sh,O,h,155,1,5330.200000047684,273529.89999997616,7707,WL,C,7.0
2,30.0239999294281,learn,29976.0000705719,Fri Dec 12 2025 14:36:14 GMT-0600 (Central Standard Time),279342.1999999285,A,sho,O,o,461,1,5812.299999952316,273529.89999997616,7707,WL,C,7.0
2,30.590999841690063,learn,29409.000158309937,Fri Dec 12 2025 14:36:14 GMT-0600 (Central Standard Time),279909.39999997616,A,shor,O,r,546,1,6379.5,273529.89999997616,7707,WL,C,7.0
2,30.83999991416931,learn,29160.00008583069,Fri Dec 12 2025 14:36:14 GMT-0600 (Central Standard Time),280158.2999999523,A,shore,O,e,231,1,6628.399999976158,273529.89999997616,7707,WL,C,7.0
2,32.073999881744385,learn,27926.000118255615,Fri Dec 12 2025 14:36:14 GMT-0600 (Central Standard Time),281391.6999999285,A,shoreenter,O,enter,1225,1,7861.799999952316,273529.89999997616,7707,WL,C,7.0
2,35.27300000190735,learn,24726.99999809265,Fri Dec 12 2025 14:36:14 GMT-0600 (Central Standard Time),284590.60000002384,A,b,O,b,3180,1,3198.7000000476837,281391.89999997616,7707,WL,C,8.0
2,35.60599994659424,learn,24394.00005340576,Fri Dec 12 2025 14:36:14 GMT-0600 (Central Standard Time),284924.0,A,bo,O,o,315,1,3532.100000023842,281391.89999997616,7707,WL,C,8.0
2,36.00499987602234,learn,23995.00012397766,Fri Dec 12 2025 14:36:14 GMT-0600 (Central Standard Time),285322.6999999285,A,bod,O,d,383,1,3930.7999999523163,281391.89999997616,7707,WL,C,8.0
2,36.25499987602234,learn,23745.00012397766,Fri Dec 12 2025 14:36:14 GMT-0600 (Central Standard Time),285573.10000002384,A,body,O,y,232,1,4181.200000047684,281391.89999997616,7707,WL,C,8.0
2,36.69099998474121,learn,23309.00001525879,Fri Dec 12 2025 14:36:14 GMT-0600 (Central Standard Time),286008.5,A,bodyenter,O,enter,429,1,4616.600000023842,281391.89999997616,7707,WL,C,8.0
2,40.269999980926514,learn,19730.000019073486,Fri Dec 12 2025 14:36:14 GMT-0600 (Central Standard Time),289587.6999999285,A,enter,O,enter,3570,1,3579.0,286008.6999999285,7707,WL,C,9.0
2,40.61999988555908,learn,19380.000114440918,Fri Dec 12 2025 14:36:14 GMT-0600 (Central Standard Time),289937.89999997616,A,enter,O,enter,342,1,349.7999999523163,289588.10000002384,7707,WL,C,10.0
2,40.9539999961853,learn,19046.000003814697,Fri Dec 12 2025 14:36:14 GMT-0600 (Central Standard Time),290272.2999999523,A,enter,O,enter,320,1,334.10000002384186,289938.1999999285,7707,WL,C,11.0
2,41.287999868392944,learn,18712.000131607056,Fri Dec 12 2025 14:36:14 GMT-0600 (Central Standard Time),290605.5,A,enter,O,enter,314,1,332.89999997615814,290272.60000002384,7707,WL,C,12.0
2,41.6029999256134,learn,18397.000074386597,Fri Dec 12 2025 14:36:14 GMT-0600 (Central Standard Time),290920.89999997616,A,enter,O,enter,308,1,315.10000002384186,290605.7999999523,7707,WL,C,13.0
2,41.937000036239624,learn,18062.999963760376,Fri Dec 12 2025 14:36:14 GMT-0600 (Central Standard Time),291254.60000002384,A,enter,O,enter,313,1,333.40000009536743,290921.1999999285,7707,WL,C,14.0
2,42.38800001144409,learn,17611.99998855591,Fri Dec 12 2025 14:36:14 GMT-0600 (Central Standard Time),291705.5,A,enter,O,enter,443,1,450.60000002384186,291254.89999997616,7707,WL,C,15.0
3,0.21700000762939453,learn,59782.999992370605,Fri Dec 12 2025 14:36:14 GMT-0600 (Central Standard Time),360699.60000002384,A,c,O,c,206,1,216.60000002384186,360483.0,7707,WL,C,1.0
3,0.5170001983642578,learn,59482.99980163574,Fri Dec 12 2025 14:36:14 GMT-0600 (Central Standard Time),360999.60000002384,A,co,O,o,285,1,516.6000000238419,360483.0,7707,WL,C,1.0
3,0.817000150680542,learn,59182.99984931946,Fri Dec 12 2025 14:36:14 GMT-0600 (Central Standard Time),361299.5,A,cor,O,r,290,1,816.5,360483.0,7707,WL,C,1.0
3,1.0340001583099365,learn,58965.99984169006,Fri Dec 12 2025 14:36:14 GMT-0600 (Central Standard Time),361516.0,A,corn,O,n,204,1,1033.0,360483.0,7707,WL,C,1.0
3,1.8010001182556152,learn,58198.999881744385,Fri Dec 12 2025 14:36:14 GMT-0600 (Central Standard Time),362283.1999999285,A,cornenter,O,enter,758,1,1800.1999999284744,360483.0,7707,WL,C,1.0
3,2.567000150680542,learn,57432.99984931946,Fri Dec 12 2025 14:36:14 GMT-0600 (Central Standard Time),363049.2999999523,A,t,O,t,759,1,765.8999999761581,362283.39999997616,7707,WL,C,2.0
3,2.8510000705718994,learn,57148.9999294281,Fri Dec 12 2025 14:36:14 GMT-0600 (Central Standard Time),363332.7999999523,A,to,O,o,263,1,1049.3999999761581,362283.39999997616,7707,WL,C,2.0
3,3.0500001907348633,learn,56949.99980926514,Fri Dec 12 2025 14:36:14 GMT-0600 (Central Standard Time),363532.39999997616,A,tow,O,w,190,1,1249.0,362283.39999997616,7707,WL,C,2.0
3,3.367000102996826,learn,56632.999897003174,Fri Dec 12 2025 14:36:14 GMT-0600 (Central Standard Time),363848.7999999523,A,towe,O,e,310,1,1565.3999999761581,362283.39999997616,7707,WL,C,2.0
3,3.75,learn,56250.0,Fri Dec 12 2025 14:36:14 GMT-0600 (Central Standard Time),364231.7999999523,A,tower,O,r,370,1,1948.3999999761581,362283.39999997616,7707,WL,C,2.0
3,4.631999969482422,learn,55368.00003051758,Fri Dec 12 2025 14:36:14 GMT-0600 (Central Standard Time),365114.5,A,towerenter,O,enter,874,1,2831.100000023842,362283.39999997616,7707,WL,C,2.0
3,4.9670000076293945,learn,55032.999992370605,Fri Dec 12 2025 14:36:14 GMT-0600 (Central Standard Time),365448.7999999523,A,c,O,c,327,1,334.10000002384186,365114.6999999285,7707,WL,C,3.0
3,5.184000015258789,learn,54815.99998474121,Fri Dec 12 2025 14:36:14 GMT-0600 (Central Standard Time),365666.0,A,ca,O,a,210,1,551.3000000715256,365114.6999999285,7707,WL,C,3.0
3,5.550000190734863,learn,54449.99980926514,Fri Dec 12 2025 14:36:14 GMT-0600 (Central Standard Time),366032.1999999285,A,cat,O,t,344,1,917.5,365114.6999999285,7707,WL,C,3.0
3,5.699000120162964,learn,54300.999879837036,Fri Dec 12 2025 14:36:14 GMT-0600 (Central Standard Time),366181.60000002384,A,catt,O,t,134,1,1066.9000000953674,365114.6999999285,7707,WL,C,3.0
3,5.884000062942505,learn,54115.999937057495,Fri Dec 12 2025 14:36:14 GMT-0600 (Central Standard Time),366366.6999999285,A,cattl,O,l,173,1,1252.0,365114.6999999285,7707,WL,C,3.0
3,6.7820000648498535,learn,53217.99993515015,Fri Dec 12 2025 14:36:14 GMT-0600 (Central Standard Time),367264.39999997616,A,cattle,O,e,884,1,2149.7000000476837,365114.6999999285,7707,WL,C,3.0
3,7.3480000495910645,learn,52651.999950408936,Fri Dec 12 2025 14:36:14 GMT-0600 (Central Standard Time),367830.5,A,cattleenter,O,enter,546,1,2715.8000000715256,365114.6999999285,7707,WL,C,3.0
3,7.733000040054321,learn,52266.99995994568,Fri Dec 12 2025 14:36:14 GMT-0600 (Central Standard Time),368215.2999999523,A,d,O,d,365,1,384.5,367830.7999999523,7707,WL,C,4.0
3,8.032000064849854,learn,51967.99993515015,Fri Dec 12 2025 14:36:14 GMT-0600 (Central Standard Time),368513.89999997616,A,do,O,o,276,1,683.1000000238419,367830.7999999523,7707,WL,C,4.0
3,8.148000001907349,learn,51851.99999809265,Fri Dec 12 2025 14:36:14 GMT-0600 (Central Standard Time),368630.6999999285,A,doc,O,c,93,1,799.8999999761581,367830.7999999523,7707,WL,C,4.0
3,8.46500015258789,learn,51534.99984741211,Fri Dec 12 2025 14:36:14 GMT-0600 (Central Standard Time),368946.89999997616,A,doct,O,t,306,1,1116.1000000238419,367830.7999999523,7707,WL,C,4.0
3,8.765000104904175,learn,51234.999895095825,Fri Dec 12 2025 14:36:14 GMT-0600 (Central Standard Time),369247.1999999285,A,docto,O,o,287,1,1416.3999999761581,367830.7999999523,7707,WL,C,4.0
3,9.182000160217285,learn,50817.999839782715,Fri Dec 12 2025 14:36:14 GMT-0600 (Central Standard Time),369663.7999999523,A,doctor,O,r,403,1,1833.0,367830.7999999523,7707,WL,C,4.0
3,10.265000104904175,learn,49734.999895095825,Fri Dec 12 2025 14:36:14 GMT-0600 (Central Standard Time),370746.7999999523,A,doctorenter,O,enter,1076,1,2916.0,367830.7999999523,7707,WL,C,4.0
3,10.614000082015991,learn,49385.99991798401,Fri Dec 12 2025 14:36:14 GMT-0600 (Central Standard Time),371096.60000002384,A,s,O,s,335,1,349.5,370747.10000002384,7707,WL,C,5.0
3,10.963000059127808,learn,49036.99994087219,Fri Dec 12 2025 14:36:14 GMT-0600 (Central Standard Time),371445.7999999523,A,su,O,u,338,1,698.6999999284744,370747.10000002384,7707,WL,C,5.0
3,11.297000169754028,learn,48702.99983024597,Fri Dec 12 2025 14:36:14 GMT-0600 (Central Standard Time),371779.1999999285,A,sug,O,g,313,1,1032.0999999046326,370747.10000002384,7707,WL,C,5.0
3,11.44700002670288,learn,48552.99997329712,Fri Dec 12 2025 14:36:14 GMT-0600 (Central Standard Time),371929.0,A,suga,O,a,145,1,1181.8999999761581,370747.10000002384,7707,WL,C,5.0
3,11.814000129699707,learn,48185.99987030029,Fri Dec 12 2025 14:36:14 GMT-0600 (Central Standard Time),372295.7999999523,A,sugar,O,r,362,1,1548.6999999284744,370747.10000002384,7707,WL,C,5.0
3,12.246999979019165,learn,47753.000020980835,Fri Dec 12 2025 14:36:14 GMT-0600 (Central Standard Time),372729.1999999285,A,sugarenter,O,enter,418,1,1982.0999999046326,370747.10000002384,7707,WL,C,5.0
3,13.02999997138977,learn,46970.00002861023,Fri Dec 12 2025 14:36:14 GMT-0600 (Central Standard Time),373512.60000002384,A,w,O,w,769,1,783.2000000476837,372729.39999997616,7707,WL,C,6.0
3,13.21500015258789,learn,46784.99984741211,Fri Dec 12 2025 14:36:14 GMT-0600 (Central Standard Time),373697.10000002384,A,wh,O,h,170,1,967.7000000476837,372729.39999997616,7707,WL,C,6.0
3,13.315999984741211,learn,46684.00001525879,Fri Dec 12 2025 14:36:14 GMT-0600 (Central Standard Time),373798.5,A,whe,O,e,79,1,1069.1000000238419,372729.39999997616,7707,WL,C,6.0
3,13.52999997138977,learn,46470.00002861023,Fri Dec 12 2025 14:36:14 GMT-0600 (Central Standard Time),374011.7999999523,A,whea,O,a,196,1,1282.3999999761581,372729.39999997616,7707,WL,C,6.0
3,13.88100004196167,learn,46118.99995803833,Fri Dec 12 2025 14:36:14 GMT-0600 (Central Standard Time),374362.89999997616,A,wheat,O,t,333,1,1633.5,372729.39999997616,7707,WL,C,6.0
3,14.64900016784668,learn,45350.99983215332,Fri Dec 12 2025 14:36:14 GMT-0600 (Central Standard Time),375131.60000002384,A,wheatenter,O,enter,761,1,2402.2000000476837,372729.39999997616,7707,WL,C,6.0
3,16.52900004386902,learn,43470.99995613098,Fri Dec 12 2025 14:36:14 GMT-0600 (Central Standard Time),377010.89999997616,A,b,O,b,1870,1,1879.1000000238419,375131.7999999523,7707,WL,C,7.0
3,16.94600009918213,learn,43053.99990081787,Fri Dec 12 2025 14:36:14 GMT-0600 (Central Standard Time),377428.10000002384,A,bo,O,o,399,1,2296.3000000715256,375131.7999999523,7707,WL,C,7.0
3,17.430000066757202,learn,42569.9999332428,Fri Dec 12 2025 14:36:14 GMT-0600 (Central Standard Time),377912.5,A,boy,O,y,478,1,2780.7000000476837,375131.7999999523,7707,WL,C,7.0
3,19.07800006866455,learn,40921.99993133545,Fri Dec 12 2025 14:36:14 GMT-0600 (Central Standard Time),379560.0,A,boyenter,O,enter,1639,1,4428.200000047684,375131.7999999523,7707,WL,C,7.0
3,23.061000108718872,learn,36938.99989128113,Fri Dec 12 2025 14:36:14 GMT-0600 (Central Standard Time),383544.6999999285,A,f,O,f,3973,1,3984.5,379560.1999999285,7707,WL,C,8.0
3,23.360000133514404,learn,36639.999866485596,Fri Dec 12 2025 14:36:14 GMT-0600 (Central Standard Time),383842.2999999523,A,fl,O,l,288,1,4282.100000023842,379560.1999999285,7707,WL,C,8.0
3,23.593000173568726,learn,36406.999826431274,Fri Dec 12 2025 14:36:14 GMT-0600 (Central Standard Time),384075.2999999523,A,fla,O,a,213,1,4515.100000023842,379560.1999999285,7707,WL,C,8.0
3,24.044000148773193,learn,35955.99985122681,Fri Dec 12 2025 14:36:14 GMT-0600 (Central Standard Time),384526.39999997616,A,flag,O,g,436,1,4966.200000047684,379560.1999999285,7707,WL,C,8.0
3,25.026000022888184,learn,34973.99997711182,Fri Dec 12 2025 14:36:14 GMT-0600 (Central Standard Time),385508.10000002384,A,flagenter,O,enter,971,1,5947.900000095367,379560.1999999285,7707,WL,C,8.0
3,26.70900011062622,learn,33290.99988937378,Fri Dec 12 2025 14:36:14 GMT-0600 (Central Standard Time),387191.0,A,h,O,h,1671,1,1682.7000000476837,385508.2999999523,7707,WL,C,9.0
3,27.54200005531311,learn,32457.99994468689,Fri Dec 12 2025 14:36:14 GMT-0600 (Central Standard Time),388023.7999999523,A,ho,O,o,818,1,2515.5,385508.2999999523,7707,WL,C,9.0
3,27.89300012588501,learn,32106.99987411499,Fri Dec 12 2025 14:36:14 GMT-0600 (Central Standard Time),388375.39999997616,A,hom,O,m,336,1,2867.100000023842,385508.2999999523,7707,WL,C,9.0
3,28.30900001525879,learn,31690.99998474121,Fri Dec 12 2025 14:36:14 GMT-0600 (Central Standard Time),388791.0,A,home,O,e,393,1,3282.7000000476837,385508.2999999523,7707,WL,C,9.0
3,30.128000020980835,learn,29871.999979019165,Fri Dec 12 2025 14:36:14 GMT-0600 (Central Standard Time),390610.10000002384,A,homeenter,O,enter,1803,1,5101.800000071526,385508.2999999523,7707,WL,C,9.0
3,33.99300003051758,learn,26006.999969482422,Fri Dec 12 2025 14:36:14 GMT-0600 (Central Standard Time),394475.60000002384,A,s,O,s,3861,1,3865.3000000715256,390610.2999999523,7707,WL,C,10.0
3,34.241000175476074,learn,25758.999824523926,Fri Dec 12 2025 14:36:14 GMT-0600 (Central Standard Time),394723.2999999523,A,su,O,u,228,1,4113.0,390610.2999999523,7707,WL,C,10.0
3,34.59000015258789,learn,25409.99984741211,Fri Dec 12 2025 14:36:14 GMT-0600 (Central Standard Time),395072.0,A,sug,O,g,326,1,4461.700000047684,390610.2999999523,7707,WL,C,10.0
3,34.74000000953674,learn,25259.999990463257,Fri Dec 12 2025 14:36:14 GMT-0600 (Central Standard Time),395221.6999999285,A,suga,O,a,129,1,4611.399999976158,390610.2999999523,7707,WL,C,10.0
3,35.10700011253357,learn,24892.99988746643,Fri Dec 12 2025 14:36:14 GMT-0600 (Central Standard Time),395589.0,A,sugar,O,r,355,1,4978.700000047684,390610.2999999523,7707,WL,C,10.0
3,35.35800004005432,learn,24641.99995994568,Fri Dec 12 2025 14:36:14 GMT-0600 (Central Standard Time),395840.39999997616,A,sugarenter,O,enter,244,1,5230.100000023842,390610.2999999523,7707,WL,C,10.0
3,42.437000036239624,learn,17562.999963760376,Fri Dec 12 2025 14:36:14 GMT-0600 (Central Standard Time),402919.5,A,enter,O,enter,7065,1,7078.600000023842,395840.89999997616,7707,WL,C,11.0
3,42.73699998855591,learn,17263.00001144409,Fri Dec 12 2025 14:36:14 GMT-0600 (Central Standard Time),403219.39999997616,A,enter,O,enter,283,1,299.60000002384186,402919.7999999523,7707,WL,C,12.0
3,43.0550000667572,learn,16944.999933242798,Fri Dec 12 2025 14:36:14 GMT-0600 (Central Standard Time),403537.10000002384,A,enter,O,enter,296,1,317.40000009536743,403219.6999999285,7707,WL,C,13.0
3,43.354000091552734,learn,16645.999908447266,Fri Dec 12 2025 14:36:14 GMT-0600 (Central Standard Time),403835.7999999523,A,enter,O,enter,281,1,298.5,403537.2999999523,7707,WL,C,14.0
3,43.82000017166138,learn,16179.999828338623,Fri Dec 12 2025 14:36:14 GMT-0600 (Central Standard Time),404302.2999999523,A,enter,O,enter,449,1,466.10000002384186,403836.1999999285,7707,WL,C,15.0
4,0.4519999027252197,learn,59548.00009727478,Fri Dec 12 2025 14:36:14 GMT-0600 (Central Standard Time),473265.0,A,h,O,h,438,1,452.0,472813.0,7707,WL,C,1.0
4,0.75,learn,59250.0,Fri Dec 12 2025 14:36:14 GMT-0600 (Central Standard Time),473563.39999997616,A,ho,O,o,279,1,750.3999999761581,472813.0,7707,WL,C,1.0
4,1.2359998226165771,learn,58764.00017738342,Fri Dec 12 2025 14:36:14 GMT-0600 (Central Standard Time),474048.6999999285,A,hom,O,m,470,1,1235.6999999284744,472813.0,7707,WL,C,1.0
4,1.5349998474121094,learn,58465.00015258789,Fri Dec 12 2025 14:36:14 GMT-0600 (Central Standard Time),474347.7999999523,A,home,O,e,282,1,1534.7999999523163,472813.0,7707,WL,C,1.0
4,2.434000015258789,learn,57565.99998474121,Fri Dec 12 2025 14:36:14 GMT-0600 (Central Standard Time),475247.2999999523,A,homeenter,O,enter,893,1,2434.2999999523163,472813.0,7707,WL,C,1.0
4,2.750999927520752,learn,57249.00007247925,Fri Dec 12 2025 14:36:14 GMT-0600 (Central Standard Time),475563.39999997616,A,c,O,c,308,1,315.7999999523163,475247.60000002384,7707,WL,C,2.0
4,2.9670000076293945,learn,57032.999992370605,Fri Dec 12 2025 14:36:14 GMT-0600 (Central Standard Time),475780.89999997616,A,ca,O,a,209,1,533.2999999523163,475247.60000002384,7707,WL,C,2.0
4,3.382999897003174,learn,56617.000102996826,Fri Dec 12 2025 14:36:14 GMT-0600 (Central Standard Time),476196.60000002384,A,cat,O,t,405,1,949.0,475247.60000002384,7707,WL,C,2.0
4,3.549999952316284,learn,56450.000047683716,Fri Dec 12 2025 14:36:14 GMT-0600 (Central Standard Time),476363.1999999285,A,catt,O,t,158,1,1115.5999999046326,475247.60000002384,7707,WL,C,2.0
4,3.7330000400543213,learn,56266.99995994568,Fri Dec 12 2025 14:36:14 GMT-0600 (Central Standard Time),476546.0,A,cattl,O,l,177,1,1298.3999999761581,475247.60000002384,7707,WL,C,2.0
4,3.932999849319458,learn,56067.00015068054,Fri Dec 12 2025 14:36:14 GMT-0600 (Central Standard Time),476746.10000002384,A,cattle,O,e,196,1,1498.5,475247.60000002384,7707,WL,C,2.0
4,4.198999881744385,learn,55801.000118255615,Fri Dec 12 2025 14:36:14 GMT-0600 (Central Standard Time),477012.0,A,cattleenter,O,enter,257,1,1764.3999999761581,475247.60000002384,7707,WL,C,2.0
4,5.299000024795532,learn,54700.99997520447,Fri Dec 12 2025 14:36:14 GMT-0600 (Central Standard Time),478112.89999997616,A,s,O,s,1089,1,1100.7000000476837,477012.1999999285,7707,WL,C,3.0
4,5.613999843597412,learn,54386.00015640259,Fri Dec 12 2025 14:36:14 GMT-0600 (Central Standard Time),478427.60000002384,A,su,O,u,296,1,1415.4000000953674,477012.1999999285,7707,WL,C,3.0
4,5.898000001907349,learn,54101.99999809265,Fri Dec 12 2025 14:36:14 GMT-0600 (Central Standard Time),478711.2999999523,A,sug,O,g,271,1,1699.1000000238419,477012.1999999285,7707,WL,C,3.0
4,6.098999977111816,learn,53901.00002288818,Fri Dec 12 2025 14:36:14 GMT-0600 (Central Standard Time),478912.89999997616,A,suga,O,a,199,1,1900.7000000476837,477012.1999999285,7707,WL,C,3.0
4,6.281999826431274,learn,53718.000173568726,Fri Dec 12 2025 14:36:14 GMT-0600 (Central Standard Time),479095.1999999285,A,sugar,O,r,170,1,2083.0,477012.1999999285,7707,WL,C,3.0
4,7.563999891281128,learn,52436.00010871887,Fri Dec 12 2025 14:36:14 GMT-0600 (Central Standard Time),480377.7999999523,A,sugarenter,O,enter,1275,1,3365.600000023842,477012.1999999285,7707,WL,C,3.0
4,8.414999961853027,learn,51585.00003814697,Fri Dec 12 2025 14:36:14 GMT-0600 (Central Standard Time),481228.6999999285,A,q,O,q,834,1,850.6999999284744,480378.0,7707,WL,C,4.0
4,8.763999938964844,learn,51236.000061035156,Fri Dec 12 2025 14:36:14 GMT-0600 (Central Standard Time),481577.6999999285,A,qu,O,u,333,1,1199.6999999284744,480378.0,7707,WL,C,4.0
4,9.063999891281128,learn,50936.00010871887,Fri Dec 12 2025 14:36:14 GMT-0600 (Central Standard Time),481877.39999997616,A,que,O,e,290,1,1499.3999999761581,480378.0,7707,WL,C,4.0
4,9.247999906539917,learn,50752.00009346008,Fri Dec 12 2025 14:36:14 GMT-0600 (Central Standard Time),482061.10000002384,A,quee,O,e,165,1,1683.1000000238419,480378.0,7707,WL,C,4.0
4,9.430999994277954,learn,50569.000005722046,Fri Dec 12 2025 14:36:14 GMT-0600 (Central Standard Time),482244.5,A,queen,O,n,163,1,1866.5,480378.0,7707,WL,C,4.0
4,9.930999994277954,learn,50069.000005722046,Fri Dec 12 2025 14:36:14 GMT-0600 (Central Standard Time),482744.2999999523,A,queenenter,O,enter,486,1,2366.2999999523163,480378.0,7707,WL,C,4.0
4,10.865999937057495,learn,49134.000062942505,Fri Dec 12 2025 14:36:14 GMT-0600 (Central Standard Time),483679.39999997616,A,b,O,b,923,1,934.7000000476837,482744.6999999285,7707,WL,C,5.0
4,11.596999883651733,learn,48403.00011634827,Fri Dec 12 2025 14:36:14 GMT-0600 (Central Standard Time),484410.60000002384,A,bo,O,o,715,1,1665.9000000953674,482744.6999999285,7707,WL,C,5.0
4,12.530999898910522,learn,47469.00010108948,Fri Dec 12 2025 14:36:14 GMT-0600 (Central Standard Time),485344.60000002384,A,boy,O,y,912,1,2599.9000000953674,482744.6999999285,7707,WL,C,5.0
4,13.61299991607666,learn,46387.00008392334,Fri Dec 12 2025 14:36:14 GMT-0600 (Central Standard Time),486426.60000002384,A,boyenter,O,enter,1066,1,3681.9000000953674,482744.6999999285,7707,WL,C,5.0
4,15.111999988555908,learn,44888.00001144409,Fri Dec 12 2025 14:36:14 GMT-0600 (Central Standard Time),487925.0,A,w,O,w,1479,1,1498.2000000476837,486426.7999999523,7707,WL,C,6.0
4,15.378999948501587,learn,44621.00005149841,Fri Dec 12 2025 14:36:14 GMT-0600 (Central Standard Time),488192.0,A,wh,O,h,254,1,1765.2000000476837,486426.7999999523,7707,WL,C,6.0
4,15.477999925613403,learn,44522.0000743866,Fri Dec 12 2025 14:36:14 GMT-0600 (Central Standard Time),488292.0,A,whe,O,e,82,1,1865.2000000476837,486426.7999999523,7707,WL,C,6.0
4,15.694999933242798,learn,44305.0000667572,Fri Dec 12 2025 14:36:14 GMT-0600 (Central Standard Time),488508.6999999285,A,whea,O,a,205,1,2081.899999976158,486426.7999999523,7707,WL,C,6.0
4,15.84500002861023,learn,44154.99997138977,Fri Dec 12 2025 14:36:14 GMT-0600 (Central Standard Time),488658.89999997616,A,wheat,O,t,142,1,2232.100000023842,486426.7999999523,7707,WL,C,6.0
4,16.69599986076355,learn,43304.00013923645,Fri Dec 12 2025 14:36:14 GMT-0600 (Central Standard Time),489509.60000002384,A,wheatenter,O,enter,833,1,3082.8000000715256,486426.7999999523,7707,WL,C,6.0
4,21.610999822616577,learn,38389.00017738342,Fri Dec 12 2025 14:36:14 GMT-0600 (Central Standard Time),494424.1999999285,A,t,O,t,4909,1,4914.299999952316,489509.89999997616,7707,WL,C,7.0
4,21.876999855041504,learn,38123.000144958496,Fri Dec 12 2025 14:36:14 GMT-0600 (Central Standard Time),494690.60000002384,A,to,O,o,259,1,5180.700000047684,489509.89999997616,7707,WL,C,7.0
4,22.075999975204468,learn,37924.00002479553,Fri Dec 12 2025 14:36:14 GMT-0600 (Central Standard Time),494890.0,A,tow,O,w,183,1,5380.100000023842,489509.89999997616,7707,WL,C,7.0
4,22.57699990272522,learn,37423.00009727478,Fri Dec 12 2025 14:36:14 GMT-0600 (Central Standard Time),495390.5,A,towe,O,e,473,1,5880.600000023842,489509.89999997616,7707,WL,C,7.0
4,22.893999814987183,learn,37106.00018501282,Fri Dec 12 2025 14:36:14 GMT-0600 (Central Standard Time),495707.1999999285,A,tower,O,r,306,1,6197.299999952316,489509.89999997616,7707,WL,C,7.0
4,24.15999984741211,learn,35840.00015258789,Fri Dec 12 2025 14:36:14 GMT-0600 (Central Standard Time),496973.1999999285,A,towerenter,O,enter,1243,1,7463.299999952316,489509.89999997616,7707,WL,C,7.0
4,26.39199995994568,learn,33608.00004005432,Fri Dec 12 2025 14:36:14 GMT-0600 (Central Standard Time),499205.10000002384,A,d,O,d,2222,1,2231.7000000476837,496973.39999997616,7707,WL,C,8.0
4,26.70899987220764,learn,33291.00012779236,Fri Dec 12 2025 14:36:14 GMT-0600 (Central Standard Time),499522.5,A,do,O,o,306,1,2549.100000023842,496973.39999997616,7707,WL,C,8.0
4,26.89199995994568,learn,33108.00004005432,Fri Dec 12 2025 14:36:14 GMT-0600 (Central Standard Time),499705.89999997616,A,doc,O,c,177,1,2732.5,496973.39999997616,7707,WL,C,8.0
4,27.22499990463257,learn,32775.00009536743,Fri Dec 12 2025 14:36:14 GMT-0600 (Central Standard Time),500038.89999997616,A,doct,O,t,318,1,3065.5,496973.39999997616,7707,WL,C,8.0
4,27.47499990463257,learn,32525.00009536743,Fri Dec 12 2025 14:36:14 GMT-0600 (Central Standard Time),500288.39999997616,A,docto,O,o,233,1,3315.0,496973.39999997616,7707,WL,C,8.0
4,27.657999992370605,learn,32342.000007629395,Fri Dec 12 2025 14:36:14 GMT-0600 (Central Standard Time),500472.0,A,doctor,O,r,168,1,3498.600000023842,496973.39999997616,7707,WL,C,8.0
4,28.05900001525879,learn,31940.99998474121,Fri Dec 12 2025 14:36:14 GMT-0600 (Central Standard Time),500872.10000002384,A,doctorenter,O,enter,385,1,3898.7000000476837,496973.39999997616,7707,WL,C,8.0
4,32.6729998588562,learn,27327.0001411438,Fri Dec 12 2025 14:36:14 GMT-0600 (Central Standard Time),505486.7999999523,A,c,O,c,4603,1,4614.5,500872.2999999523,7707,WL,C,9.0
4,32.906999826431274,learn,27093.000173568726,Fri Dec 12 2025 14:36:14 GMT-0600 (Central Standard Time),505720.1999999285,A,ca,O,a,226,1,4847.899999976158,500872.2999999523,7707,WL,C,9.0
4,33.18999981880188,learn,26810.00018119812,Fri Dec 12 2025 14:36:14 GMT-0600 (Central Standard Time),506003.6999999285,A,cat,O,t,271,1,5131.399999976158,500872.2999999523,7707,WL,C,9.0
4,33.33999991416931,learn,26660.00008583069,Fri Dec 12 2025 14:36:14 GMT-0600 (Central Standard Time),506153.10000002384,A,catt,O,t,142,1,5280.800000071526,500872.2999999523,7707,WL,C,9.0
4,34.29099988937378,learn,25709.00011062622,Fri Dec 12 2025 14:36:14 GMT-0600 (Central Standard Time),507104.2999999523,A,cattl,O,l,929,1,6232.0,500872.2999999523,7707,WL,C,9.0
4,34.508999824523926,learn,25491.000175476074,Fri Dec 12 2025 14:36:14 GMT-0600 (Central Standard Time),507322.5,A,cattle,O,e,207,1,6450.200000047684,500872.2999999523,7707,WL,C,9.0
4,34.805999994277954,learn,25194.000005722046,Fri Dec 12 2025 14:36:14 GMT-0600 (Central Standard Time),507619.89999997616,A,cattleenter,O,enter,278,1,6747.600000023842,500872.2999999523,7707,WL,C,9.0
4,45.93599987030029,learn,14064.000129699707,Fri Dec 12 2025 14:36:14 GMT-0600 (Central Standard Time),518749.39999997616,A,enter,O,enter,11111,1,11129.299999952316,507620.10000002384,7707,WL,C,10.0
4,46.253000020980835,learn,13746.999979019165,Fri Dec 12 2025 14:36:14 GMT-0600 (Central Standard Time),519066.10000002384,A,enter,O,enter,310,1,316.40000009536743,518749.6999999285,7707,WL,C,11.0
4,46.55299997329712,learn,13447.00002670288,Fri Dec 12 2025 14:36:14 GMT-0600 (Central Standard Time),519366.1999999285,A,enter,O,enter,280,1,299.6999999284744,519066.5,7707,WL,C,12.0
4,46.8529999256134,learn,13147.000074386597,Fri Dec 12 2025 14:36:14 GMT-0600 (Central Standard Time),519666.10000002384,A,enter,O,enter,284,1,299.60000002384186,519366.5,7707,WL,C,13.0
4,47.18599987030029,learn,12814.000129699707,Fri Dec 12 2025 14:36:14 GMT-0600 (Central Standard Time),519999.39999997616,A,enter,O,enter,320,1,333.0,519666.39999997616,7707,WL,C,14.0
4,47.70199990272522,learn,12298.00009727478,Fri Dec 12 2025 14:36:14 GMT-0600 (Central Standard Time),520515.89999997616,A,enter,O,enter,506,1,516.1000000238419,519999.7999999523,7707,WL,C,15.0
5,1.2829999923706055,learn,60000.0,Fri Dec 12 2025 14:36:14 GMT-0600 (Central Standard Time),589927.2999999523,A,c,O,c,1271,1,1283.0,588644.2999999523,7707,WL,C,1.0
5,1.5160000324249268,learn,60000.0,Fri Dec 12 2025 14:36:14 GMT-0600 (Central Standard Time),590160.1999999285,A,ca,O,a,219,1,1515.8999999761581,588644.2999999523,7707,WL,C,1.0
5,2.4820001125335693,learn,60000.0,Fri Dec 12 2025 14:36:14 GMT-0600 (Central Standard Time),591126.2999999523,A,cam,O,m,956,1,2482.0,588644.2999999523,7707,WL,C,1.0
5,3.2330000400543213,learn,60000.0,Fri Dec 12 2025 14:36:14 GMT-0600 (Central Standard Time),591877.3999999762,A,camp,O,p,732,1,3233.100000023842,588644.2999999523,7707,WL,C,1.0
5,4.332000017166138,learn,60000.0,Fri Dec 12 2025 14:36:14 GMT-0600 (Central Standard Time),592976.6000000238,A,campenter,O,enter,1092,1,4332.300000071526,588644.2999999523,7707,WL,C,1.0
5,4.698999881744385,learn,60000.0,Fri Dec 12 2025 14:36:14 GMT-0600 (Central Standard Time),593342.8999999762,A,f,O,f,354,1,366.0,592976.8999999762,7707,WL,C,2.0
5,4.982000112533569,learn,60000.0,Fri Dec 12 2025 14:36:14 GMT-0600 (Central Standard Time),593625.6000000238,A,fl,O,l,268,1,648.7000000476837,592976.8999999762,7707,WL,C,2.0
5,5.198999881744385,learn,60000.0,Fri Dec 12 2025 14:36:14 GMT-0600 (Central Standard Time),593842.8999999762,A,fla,O,a,195,1,866.0,592976.8999999762,7707,WL,C,2.0
5,5.581000089645386,learn,60000.0,Fri Dec 12 2025 14:36:14 GMT-0600 (Central Standard Time),594225.3999999762,A,flag,O,g,367,1,1248.5,592976.8999999762,7707,WL,C,2.0
5,6.71399998664856,learn,60000.0,Fri Dec 12 2025 14:36:14 GMT-0600 (Central Standard Time),595358.1999999285,A,flagenter,O,enter,1122,1,2381.2999999523163,592976.8999999762,7707,WL,C,2.0
5,7.54800009727478,learn,60000.0,Fri Dec 12 2025 14:36:14 GMT-0600 (Central Standard Time),596192.8999999762,A,l,O,l,829,1,834.5,595358.3999999762,7707,WL,C,3.0
5,7.746999979019165,learn,60000.0,Fri Dec 12 2025 14:36:14 GMT-0600 (Central Standard Time),596391.5,A,le,O,e,185,1,1033.1000000238419,595358.3999999762,7707,WL,C,3.0
5,7.996999979019165,learn,60000.0,Fri Dec 12 2025 14:36:14 GMT-0600 (Central Standard Time),596641.3999999762,A,let,O,t,236,1,1283.0,595358.3999999762,7707,WL,C,3.0
5,8.163000106811523,learn,60000.0,Fri Dec 12 2025 14:36:14 GMT-0600 (Central Standard Time),596808.2999999523,A,lett,O,t,153,1,1449.8999999761581,595358.3999999762,7707,WL,C,3.0
5,8.346999883651733,learn,60000.0,Fri Dec 12 2025 14:36:14 GMT-0600 (Central Standard Time),596992.0,A,lette,O,e,171,1,1633.6000000238419,595358.3999999762,7707,WL,C,3.0
5,8.461999893188477,learn,60000.0,Fri Dec 12 2025 14:36:14 GMT-0600 (Central Standard Time),597106.8999999762,A,letter,O,r,105,1,1748.5,595358.3999999762,7707,WL,C,3.0
5,9.779000043869019,learn,60000.0,Fri Dec 12 2025 14:36:14 GMT-0600 (Central Standard Time),598423.7999999523,A,letterenter,O,enter,1303,1,3065.399999976158,595358.3999999762,7707,WL,C,3.0
5,10.51200008392334,learn,60000.0,Fri Dec 12 2025 14:36:14 GMT-0600 (Central Standard Time),599157.1000000238,A,h,O,h,714,1,733.0,598424.1000000238,7707,WL,C,4.0
5,10.79699993133545,learn,60000.0,Fri Dec 12 2025 14:36:14 GMT-0600 (Central Standard Time),599441.6999999285,A,ho,O,o,270,1,1017.5999999046326,598424.1000000238,7707,WL,C,4.0
5,11.062000036239624,learn,60000.0,Fri Dec 12 2025 14:36:14 GMT-0600 (Central Standard Time),599706.8999999762,A,hom,O,m,257,1,1282.7999999523163,598424.1000000238,7707,WL,C,4.0
5,11.26200008392334,learn,60000.0,Fri Dec 12 2025 14:36:14 GMT-0600 (Central Standard Time),599907.1999999285,A,home,O,e,193,1,1483.0999999046326,598424.1000000238,7707,WL,C,4.0
5,12.111999988555908,learn,60000.0,Fri Dec 12 2025 14:36:14 GMT-0600 (Central Standard Time),600756.8999999762,A,homeenter,O,enter,839,1,2332.7999999523163,598424.1000000238,7707,WL,C,4.0
5,13.49399995803833,learn,60000.0,Fri Dec 12 2025 14:36:14 GMT-0600 (Central Standard Time),602139.0,A,s,O,s,1374,1,1381.8000000715256,600757.1999999285,7707,WL,C,5.0
5,13.796000003814697,learn,60000.0,Fri Dec 12 2025 14:36:14 GMT-0600 (Central Standard Time),602441.1999999285,A,su,O,u,297,1,1684.0,600757.1999999285,7707,WL,C,5.0
5,14.132999897003174,learn,60000.0,Fri Dec 12 2025 14:36:14 GMT-0600 (Central Standard Time),602777.8999999762,A,sug,O,g,312,1,2020.7000000476837,600757.1999999285,7707,WL,C,5.0
5,14.276000022888184,learn,60000.0,Fri Dec 12 2025 14:36:14 GMT-0600 (Central Standard Time),602921.2999999523,A,suga,O,a,138,1,2164.100000023842,600757.1999999285,7707,WL,C,5.0
5,14.628000020980835,learn,60000.0,Fri Dec 12 2025 14:36:14 GMT-0600 (Central Standard Time),603273.1000000238,A,sugar,O,r,340,1,2515.9000000953674,600757.1999999285,7707,WL,C,5.0
5,15.111000061035156,learn,60000.0,Fri Dec 12 2025 14:36:14 GMT-0600 (Central Standard Time),603755.8999999762,A,sugarenter,O,enter,466,1,2998.7000000476837,600757.1999999285,7707,WL,C,5.0
5,15.477999925613403,learn,60000.0,Fri Dec 12 2025 14:36:14 GMT-0600 (Central Standard Time),604123.1999999285,A,w,O,w,352,1,367.09999990463257,603756.1000000238,7707,WL,C,6.0
5,15.763000011444092,learn,60000.0,Fri Dec 12 2025 14:36:14 GMT-0600 (Central Standard Time),604407.5,A,wh,O,h,262,1,651.3999999761581,603756.1000000238,7707,WL,C,6.0
5,15.877000093460083,learn,60000.0,Fri Dec 12 2025 14:36:14 GMT-0600 (Central Standard Time),604521.6999999285,A,whe,O,e,107,1,765.5999999046326,603756.1000000238,7707,WL,C,6.0
5,16.111000061035156,learn,60000.0,Fri Dec 12 2025 14:36:14 GMT-0600 (Central Standard Time),604755.7999999523,A,whea,O,a,217,1,999.6999999284744,603756.1000000238,7707,WL,C,6.0
5,16.27900004386902,learn,60000.0,Fri Dec 12 2025 14:36:14 GMT-0600 (Central Standard Time),604923.6000000238,A,wheat,O,t,160,1,1167.5,603756.1000000238,7707,WL,C,6.0
5,17.092999935150146,learn,60000.0,Fri Dec 12 2025 14:36:14 GMT-0600 (Central Standard Time),605737.6999999285,A,wheatenter,O,enter,799,1,1981.5999999046326,603756.1000000238,7707,WL,C,6.0
5,17.677000045776367,learn,60000.0,Fri Dec 12 2025 14:36:14 GMT-0600 (Central Standard Time),606321.5,A,b,O,b,563,1,583.5,605738.0,7707,WL,C,7.0
5,17.993000030517578,learn,60000.0,Fri Dec 12 2025 14:36:14 GMT-0600 (Central Standard Time),606638.0,A,bu,O,u,306,1,900.0,605738.0,7707,WL,C,7.0
5,18.526999950408936,learn,60000.0,Fri Dec 12 2025 14:36:14 GMT-0600 (Central Standard Time),607172.1999999285,A,buy,O,y,515,1,1434.1999999284744,605738.0,7707,WL,C,7.0
5,20.526000022888184,learn,60000.0,Fri Dec 12 2025 14:36:14 GMT-0600 (Central Standard Time),609170.2999999523,A,bu,O,backspace,1991,1,3432.2999999523163,605738.0,7707,WL,C,7.0
5,20.844000101089478,learn,60000.0,Fri Dec 12 2025 14:36:14 GMT-0600 (Central Standard Time),609488.6000000238,A,b,O,backspace,313,1,3750.600000023842,605738.0,7707,WL,C,7.0
5,21.776000022888184,learn,60000.0,Fri Dec 12 2025 14:36:14 GMT-0600 (Central Standard Time),610420.3999999762,A,bo,O,o,922,1,4682.399999976158,605738.0,7707,WL,C,7.0
5,22.242000102996826,learn,60000.0,Fri Dec 12 2025 14:36:14 GMT-0600 (Central Standard Time),610886.7999999523,A,boy,O,y,462,1,5148.799999952316,605738.0,7707,WL,C,7.0
5,23.157000064849854,learn,60000.0,Fri Dec 12 2025 14:36:14 GMT-0600 (Central Standard Time),611802.1999999285,A,boyenter,O,enter,908,1,6064.199999928474,605738.0,7707,WL,C,7.0
5,23.52500009536743,learn,60000.0,Fri Dec 12 2025 14:36:14 GMT-0600 (Central Standard Time),612169.6000000238,A,c,O,c,353,1,367.2000000476837,611802.3999999762,7707,WL,C,8.0
5,23.7739999294281,learn,60000.0,Fri Dec 12 2025 14:36:14 GMT-0600 (Central Standard Time),612418.7999999523,A,ca,O,a,242,1,616.3999999761581,611802.3999999762,7707,WL,C,8.0
5,24.02500009536743,learn,60000.0,Fri Dec 12 2025 14:36:14 GMT-0600 (Central Standard Time),612670.1000000238,A,cam,O,m,233,1,867.7000000476837,611802.3999999762,7707,WL,C,8.0
5,25.44099998474121,learn,60000.0,Fri Dec 12 2025 14:36:14 GMT-0600 (Central Standard Time),614086.1999999285,A,camp,O,p,1403,1,2283.7999999523163,611802.3999999762,7707,WL,C,8.0
5,25.95799994468689,learn,60000.0,Fri Dec 12 2025 14:36:14 GMT-0600 (Central Standard Time),614602.6000000238,A,campenter,O,enter,506,1,2800.2000000476837,611802.3999999762,7707,WL,C,8.0
5,26.341000080108643,learn,60000.0,Fri Dec 12 2025 14:36:14 GMT-0600 (Central Standard Time),614985.2999999523,A,d,O,d,368,1,382.5,614602.7999999523,7707,WL,C,9.0
5,26.924000024795532,learn,60000.0,Fri Dec 12 2025 14:36:14 GMT-0600 (Central Standard Time),615569.0,A,do,O,o,577,1,966.2000000476837,614602.7999999523,7707,WL,C,9.0
5,27.158999919891357,learn,60000.0,Fri Dec 12 2025 14:36:14 GMT-0600 (Central Standard Time),615804.1000000238,A,doc,O,c,210,1,1201.3000000715256,614602.7999999523,7707,WL,C,9.0
5,27.490000009536743,learn,60000.0,Fri Dec 12 2025 14:36:14 GMT-0600 (Central Standard Time),616134.8999999762,A,doct,O,t,308,1,1532.1000000238419,614602.7999999523,7707,WL,C,9.0
5,27.993000030517578,learn,60000.0,Fri Dec 12 2025 14:36:14 GMT-0600 (Central Standard Time),616638.1999999285,A,docto,O,o,489,1,2035.3999999761581,614602.7999999523,7707,WL,C,9.0
5,28.323999881744385,learn,60000.0,Fri Dec 12 2025 14:36:14 GMT-0600 (Central Standard Time),616969.1999999285,A,doctor,O,r,315,1,2366.399999976158,614602.7999999523,7707,WL,C,9.0
5,28.83999991416931,learn,60000.0,Fri Dec 12 2025 14:36:14 GMT-0600 (Central Standard Time),617484.8999999762,A,doctorenter,O,enter,503,1,2882.100000023842,614602.7999999523,7707,WL,C,9.0
5,30.223000049591064,learn,60000.0,Fri Dec 12 2025 14:36:14 GMT-0600 (Central Standard Time),618867.3999999762,A,l,O,l,1373,1,1382.2999999523163,617485.1000000238,7707,WL,C,10.0
5,30.35599994659424,learn,60000.0,Fri Dec 12 2025 14:36:14 GMT-0600 (Central Standard Time),619001.1000000238,A,le,O,e,117,1,1516.0,617485.1000000238,7707,WL,C,10.0
5,30.721999883651733,learn,60000.0,Fri Dec 12 2025 14:36:14 GMT-0600 (Central Standard Time),619367.2999999523,A,let,O,t,345,1,1882.1999999284744,617485.1000000238,7707,WL,C,10.0
5,30.872999906539917,learn,60000.0,Fri Dec 12 2025 14:36:14 GMT-0600 (Central Standard Time),619517.2999999523,A,lett,O,t,130,1,2032.1999999284744,617485.1000000238,7707,WL,C,10.0
5,31.0239999294281,learn,60000.0,Fri Dec 12 2025 14:36:14 GMT-0600 (Central Standard Time),619668.5,A,lette,O,e,133,1,2183.399999976158,617485.1000000238,7707,WL,C,10.0
5,31.138999938964844,learn,60000.0,Fri Dec 12 2025 14:36:14 GMT-0600 (Central Standard Time),619783.8999999762,A,letter,O,r,109,1,2298.7999999523163,617485.1000000238,7707,WL,C,10.0
5,32.621999979019165,learn,60000.0,Fri Dec 12 2025 14:36:14 GMT-0600 (Central Standard Time),621267.1999999285,A,letterenter,O,enter,1473,1,3782.0999999046326,617485.1000000238,7707,WL,C,10.0
5,36.437000036239624,learn,60000.0,Fri Dec 12 2025 14:36:14 GMT-0600 (Central Standard Time),625081.6999999285,A,f,O,f,3799,1,3814.1999999284744,621267.5,7707,WL,C,11.0
5,36.87100005149841,learn,60000.0,Fri Dec 12 2025 14:36:14 GMT-0600 (Central Standard Time),625516.1999999285,A,fl,O,l,416,1,4248.699999928474,621267.5,7707,WL,C,11.0
5,37.08699989318848,learn,60000.0,Fri Dec 12 2025 14:36:14 GMT-0600 (Central Standard Time),625731.6000000238,A,fla,O,a,197,1,4464.100000023842,621267.5,7707,WL,C,11.0
5,37.437000036239624,learn,60000.0,Fri Dec 12 2025 14:36:14 GMT-0600 (Central Standard Time),626081.7999999523,A,flag,O,g,344,1,4814.299999952316,621267.5,7707,WL,C,11.0
5,38.28699994087219,learn,60000.0,Fri Dec 12 2025 14:36:14 GMT-0600 (Central Standard Time),626931.7999999523,A,flagenter,O,enter,840,1,5664.299999952316,621267.5,7707,WL,C,11.0
5,39.019999980926514,learn,60000.0,Fri Dec 12 2025 14:36:14 GMT-0600 (Central Standard Time),627664.5,A,n,O,n,718,1,732.3999999761581,626932.1000000238,7707,WL,C,12.0
5,39.32100009918213,learn,60000.0,Fri Dec 12 2025 14:36:14 GMT-0600 (Central Standard Time),627965.7999999523,A,na,O,a,280,1,1033.6999999284744,626932.1000000238,7707,WL,C,12.0
5,39.519999980926514,learn,60000.0,Fri Dec 12 2025 14:36:14 GMT-0600 (Central Standard Time),628164.3999999762,A,nai,O,i,180,1,1232.2999999523163,626932.1000000238,7707,WL,C,12.0
5,39.83699989318848,learn,60000.0,Fri Dec 12 2025 14:36:14 GMT-0600 (Central Standard Time),628481.3999999762,A,nail,O,l,310,1,1549.2999999523163,626932.1000000238,7707,WL,C,12.0
5,40.33699989318848,learn,60000.0,Fri Dec 12 2025 14:36:14 GMT-0600 (Central Standard Time),628981.3999999762,A,nailenter,O,enter,491,1,2049.2999999523163,626932.1000000238,7707,WL,C,12.0
5,47.717000007629395,learn,60000.0,Fri Dec 12 2025 14:36:14 GMT-0600 (Central Standard Time),636362.0,A,enter,O,enter,7365,1,7380.399999976158,628981.6000000238,7707,WL,C,13.0
5,47.98399996757507,learn,60000.0,Fri Dec 12 2025 14:36:14 GMT-0600 (Central Standard Time),636628.7999999523,A,enter,O,enter,248,1,266.5,636362.2999999523,7707,WL,C,14.0
5,50.117000102996826,learn,60000.0,Fri Dec 12 2025 14:36:14 GMT-0600 (Central Standard Time),638761.6000000238,A,enter,O,enter,2117,1,2132.5,636629.1000000238,7707,WL,C,15.0
6,1.2000000476837158,distr,58799.999952316284,Fri Dec 12 2025 14:36:14 GMT-0600 (Central Standard Time),714354.2999999523,B,s,O,s,1193,1,1199.5,713154.7999999523,7707,WL,C,1.0
6,1.4839999675750732,distr,58516.00003242493,Fri Dec 12 2025 14:36:14 GMT-0600 (Central Standard Time),714638.1000000238,B,sp,O,p,262,1,1483.3000000715256,713154.7999999523,7707,WL,C,1.0
6,1.7009999752044678,distr,58299.00002479553,Fri Dec 12 2025 14:36:14 GMT-0600 (Central Standard Time),714855.1999999285,B,spa,O,a,211,1,1700.3999999761581,713154.7999999523,7707,WL,C,1.0
6,2.0,distr,58000.0,Fri Dec 12 2025 14:36:14 GMT-0600 (Central Standard Time),715154.1000000238,B,spac,O,c,283,1,1999.3000000715256,713154.7999999523,7707,WL,C,1.0
6,2.248999834060669,distr,57751.00016593933,Fri Dec 12 2025 14:36:14 GMT-0600 (Central Standard Time),715402.8999999762,B,space,O,e,241,1,2248.100000023842,713154.7999999523,7707,WL,C,1.0
6,2.5490000247955322,distr,57450.99997520447,Fri Dec 12 2025 14:36:14 GMT-0600 (Central Standard Time),715703.2999999523,B,spaceenter,O,enter,286,1,2548.5,713154.7999999523,7707,WL,C,1.0
6,3.4649999141693115,distr,56535.00008583069,Fri Dec 12 2025 14:36:14 GMT-0600 (Central Standard Time),716620.1000000238,B,h,O,h,899,1,916.5,715703.6000000238,7707,WL,C,2.0
6,3.930999994277954,distr,56069.000005722046,Fri Dec 12 2025 14:36:14 GMT-0600 (Central Standard Time),717086.2999999523,B,ho,O,o,454,1,1382.6999999284744,715703.6000000238,7707,WL,C,2.0
6,4.21399998664856,distr,55786.00001335144,Fri Dec 12 2025 14:36:14 GMT-0600 (Central Standard Time),717369.1999999285,B,hot,O,t,277,1,1665.5999999046326,715703.6000000238,7707,WL,C,2.0
6,4.514999866485596,distr,55485.000133514404,Fri Dec 12 2025 14:36:14 GMT-0600 (Central Standard Time),717670.2999999523,B,hote,O,e,280,1,1966.6999999284744,715703.6000000238,7707,WL,C,2.0
6,4.914999961853027,distr,55085.00003814697,Fri Dec 12 2025 14:36:14 GMT-0600 (Central Standard Time),718070.2999999523,B,hotel,O,l,388,1,2366.6999999284744,715703.6000000238,7707,WL,C,2.0
6,5.46399998664856,distr,54536.00001335144,Fri Dec 12 2025 14:36:14 GMT-0600 (Central Standard Time),718618.8999999762,B,hotelenter,O,enter,539,1,2915.2999999523163,715703.6000000238,7707,WL,C,2.0
6,15.327999830245972,distr,44672.00016975403,Fri Dec 12 2025 14:36:14 GMT-0600 (Central Standard Time),728482.7999999523,B,t,O,t,9856,1,9863.600000023842,718619.1999999285,7707,WL,C,3.0
6,15.760999917984009,distr,44239.00008201599,Fri Dec 12 2025 14:36:14 GMT-0600 (Central Standard Time),728915.6000000238,B,to,O,o,421,1,10296.400000095367,718619.1999999285,7707,WL,C,3.0
6,16.27900004386902,distr,43720.99995613098,Fri Dec 12 2025 14:36:14 GMT-0600 (Central Standard Time),729434.1000000238,B,toy,O,y,513,1,10814.900000095367,718619.1999999285,7707,WL,C,3.0
6,16.710999965667725,distr,43289.000034332275,Fri Dec 12 2025 14:36:14 GMT-0600 (Central Standard Time),729865.6999999285,B,toyenter,O,enter,423,1,11246.5,718619.1999999285,7707,WL,C,3.0
6,26.941999912261963,distr,33058.00008773804,Fri Dec 12 2025 14:36:14 GMT-0600 (Central Standard Time),740096.8999999762,B,enter,O,enter,10209,1,10230.899999976158,729866.0,7707,WL,C,4.0
6,27.174000024795532,distr,32825.99997520447,Fri Dec 12 2025 14:36:14 GMT-0600 (Central Standard Time),740329.3999999762,B,enter,O,enter,218,1,232.29999995231628,740097.1000000238,7707,WL,C,5.0
6,27.389999866485596,distr,32610.000133514404,Fri Dec 12 2025 14:36:14 GMT-0600 (Central Standard Time),740545.1000000238,B,enter,O,enter,202,1,215.40000009536743,740329.6999999285,7707,WL,C,6.0
6,27.592000007629395,distr,32407.999992370605,Fri Dec 12 2025 14:36:14 GMT-0600 (Central Standard Time),740746.6000000238,B,enter,O,enter,194,1,201.20000004768372,740545.3999999762,7707,WL,C,7.0
6,27.79099988937378,distr,32209.00011062622,Fri Dec 12 2025 14:36:14 GMT-0600 (Central Standard Time),740945.7999999523,B,enter,O,enter,193,1,198.89999997615814,740746.8999999762,7707,WL,C,8.0
6,27.973999977111816,distr,32026.000022888184,Fri Dec 12 2025 14:36:14 GMT-0600 (Central Standard Time),741128.6999999285,B,enter,O,enter,179,1,182.69999992847443,740946.0,7707,WL,C,9.0
6,28.1729998588562,distr,31827.0001411438,Fri Dec 12 2025 14:36:14 GMT-0600 (Central Standard Time),741328.3999999762,B,enter,O,enter,194,1,199.39999997615814,741129.0,7707,WL,C,10.0
6,28.372999906539917,distr,31627.000093460083,Fri Dec 12 2025 14:36:14 GMT-0600 (Central Standard Time),741527.6999999285,B,enter,O,enter,186,1,199.0,741328.6999999285,7707,WL,C,11.0
6,28.55900001525879,distr,31440.99998474121,Fri Dec 12 2025 14:36:14 GMT-0600 (Central Standard Time),741714.3999999762,B,enter,O,enter,181,1,186.29999995231628,741528.1000000238,7707,WL,C,12.0
6,28.758999824523926,distr,31241.000175476074,Fri Dec 12 2025 14:36:14 GMT-0600 (Central Standard Time),741914.2999999523,B,enter,O,enter,192,1,199.60000002384186,741714.6999999285,7707,WL,C,13.0
6,28.957000017166138,distr,31042.999982833862,Fri Dec 12 2025 14:36:14 GMT-0600 (Central Standard Time),742112.1999999285,B,enter,O,enter,184,1,197.69999992847443,741914.5,7707,WL,C,14.0
6,29.156999826431274,distr,30843.000173568726,Fri Dec 12 2025 14:36:14 GMT-0600 (Central Standard Time),742311.7999999523,B,enter,O,enter,194,1,199.19999992847443,742112.6000000238,7707,WL,C,15.0
7,5.481000185012817,immed,54518.99981498718,Fri Dec 12 2025 14:36:14 GMT-0600 (Central Standard Time),749576.0,A,t,O,t,5477,1,5481.100000023842,744094.8999999762,7707,WL,C,1.0
7,6.3480000495910645,immed,53651.999950408936,Fri Dec 12 2025 14:36:14 GMT-0600 (Central Standard Time),750443.1999999285,A,to,O,o,857,1,6348.299999952316,744094.8999999762,7707,WL,C,1.0
7,6.514000177383423,immed,53485.99982261658,Fri Dec 12 2025 14:36:14 GMT-0600 (Central Standard Time),750609.3999999762,A,tow,O,w,149,1,6514.5,744094.8999999762,7707,WL,C,1.0
7,6.781000137329102,immed,53218.9998626709,Fri Dec 12 2025 14:36:14 GMT-0600 (Central Standard Time),750875.6000000238,A,towe,O,e,248,1,6780.700000047684,744094.8999999762,7707,WL,C,1.0
7,6.948000192642212,immed,53051.99980735779,Fri Dec 12 2025 14:36:14 GMT-0600 (Central Standard Time),751043.0,A,tower,O,r,150,1,6948.100000023842,744094.8999999762,7707,WL,C,1.0
7,7.632000207901001,immed,52367.999792099,Fri Dec 12 2025 14:36:14 GMT-0600 (Central Standard Time),751726.5,A,towerenter,O,enter,662,1,7631.600000023842,744094.8999999762,7707,WL,C,1.0
7,10.279000043869019,immed,49720.99995613098,Fri Dec 12 2025 14:36:14 GMT-0600 (Central Standard Time),754373.5,A,d,O,d,2636,1,2646.8000000715256,751726.6999999285,7707,WL,C,2.0
7,10.547000169754028,immed,49452.99983024597,Fri Dec 12 2025 14:36:14 GMT-0600 (Central Standard Time),754642.0,A,do,O,o,254,1,2915.3000000715256,751726.6999999285,7707,WL,C,2.0
7,10.664000034332275,immed,49335.999965667725,Fri Dec 12 2025 14:36:14 GMT-0600 (Central Standard Time),754758.7999999523,A,doc,O,c,109,1,3032.100000023842,751726.6999999285,7707,WL,C,2.0
7,10.962000131607056,immed,49037.999868392944,Fri Dec 12 2025 14:36:14 GMT-0600 (Central Standard Time),755056.8999999762,A,doct,O,t,293,1,3330.2000000476837,751726.6999999285,7707,WL,C,2.0
7,11.246000051498413,immed,48753.99994850159,Fri Dec 12 2025 14:36:14 GMT-0600 (Central Standard Time),755341.2999999523,A,docto,O,o,273,1,3614.600000023842,751726.6999999285,7707,WL,C,2.0
7,11.42900013923645,immed,48570.99986076355,Fri Dec 12 2025 14:36:14 GMT-0600 (Central Standard Time),755524.1999999285,A,doctor,O,r,165,1,3797.5,751726.6999999285,7707,WL,C,2.0
7,12.029000043869019,immed,47970.99995613098,Fri Dec 12 2025 14:36:14 GMT-0600 (Central Standard Time),756124.1999999285,A,doctorenter,O,enter,580,1,4397.5,751726.6999999285,7707,WL,C,2.0
7,12.448000192642212,immed,47551.99980735779,Fri Dec 12 2025 14:36:14 GMT-0600 (Central Standard Time),756542.6999999285,A,s,O,s,399,1,418.2999999523163,756124.3999999762,7707,WL,C,3.0
7,12.795000076293945,immed,47204.999923706055,Fri Dec 12 2025 14:36:14 GMT-0600 (Central Standard Time),756890.1999999285,A,su,O,u,340,1,765.7999999523163,756124.3999999762,7707,WL,C,3.0
7,13.146000146865845,immed,46853.999853134155,Fri Dec 12 2025 14:36:14 GMT-0600 (Central Standard Time),757241.0,A,sug,O,g,336,1,1116.6000000238419,756124.3999999762,7707,WL,C,3.0
7,13.379000186920166,immed,46620.999813079834,Fri Dec 12 2025 14:36:14 GMT-0600 (Central Standard Time),757474.0,A,suga,O,a,219,1,1349.6000000238419,756124.3999999762,7707,WL,C,3.0
7,13.547000169754028,immed,46452.99983024597,Fri Dec 12 2025 14:36:14 GMT-0600 (Central Standard Time),757641.6999999285,A,sugar,O,r,147,1,1517.2999999523163,756124.3999999762,7707,WL,C,3.0
7,14.07800006866455,immed,45921.99993133545,Fri Dec 12 2025 14:36:14 GMT-0600 (Central Standard Time),758173.3999999762,A,sugarenter,O,enter,511,1,2049.0,756124.3999999762,7707,WL,C,3.0
7,15.695000171661377,immed,44304.99982833862,Fri Dec 12 2025 14:36:14 GMT-0600 (Central Standard Time),759789.6000000238,A,n,O,n,1597,1,1616.0,758173.6000000238,7707,WL,C,4.0
7,15.878000020980835,immed,44121.999979019165,Fri Dec 12 2025 14:36:14 GMT-0600 (Central Standard Time),759972.6000000238,A,na,O,a,173,1,1799.0,758173.6000000238,7707,WL,C,4.0
7,16.0770001411438,immed,43922.9998588562,Fri Dec 12 2025 14:36:14 GMT-0600 (Central Standard Time),760171.8999999762,A,nai,O,i,187,1,1998.2999999523163,758173.6000000238,7707,WL,C,4.0
7,16.361000061035156,immed,43638.999938964844,Fri Dec 12 2025 14:36:14 GMT-0600 (Central Standard Time),760456.1000000238,A,nail,O,l,278,1,2282.5,758173.6000000238,7707,WL,C,4.0
7,16.695000171661377,immed,43304.99982833862,Fri Dec 12 2025 14:36:14 GMT-0600 (Central Standard Time),760790.2999999523,A,nailenter,O,enter,316,1,2616.6999999284744,758173.6000000238,7707,WL,C,4.0
7,16.91100001335144,immed,43088.99998664856,Fri Dec 12 2025 14:36:14 GMT-0600 (Central Standard Time),761006.3999999762,A,c,O,c,196,1,215.79999995231628,760790.6000000238,7707,WL,C,5.0
7,17.07800006866455,immed,42921.99993133545,Fri Dec 12 2025 14:36:14 GMT-0600 (Central Standard Time),761172.8999999762,A,ca,O,a,154,1,382.2999999523163,760790.6000000238,7707,WL,C,5.0
7,17.430000066757202,immed,42569.9999332428,Fri Dec 12 2025 14:36:14 GMT-0600 (Central Standard Time),761524.7999999523,A,cat,O,t,329,1,734.1999999284744,760790.6000000238,7707,WL,C,5.0
7,17.579000234603882,immed,42420.99976539612,Fri Dec 12 2025 14:36:14 GMT-0600 (Central Standard Time),761673.7999999523,A,catt,O,t,132,1,883.1999999284744,760790.6000000238,7707,WL,C,5.0
7,17.74400019645691,immed,42255.99980354309,Fri Dec 12 2025 14:36:14 GMT-0600 (Central Standard Time),761838.6000000238,A,cattl,O,l,150,1,1048.0,760790.6000000238,7707,WL,C,5.0
7,17.9280002117157,immed,42071.9997882843,Fri Dec 12 2025 14:36:14 GMT-0600 (Central Standard Time),762022.6000000238,A,cattle,O,e,163,1,1232.0,760790.6000000238,7707,WL,C,5.0
7,18.159000158309937,immed,41840.99984169006,Fri Dec 12 2025 14:36:14 GMT-0600 (Central Standard Time),762254.2999999523,A,cattleenter,O,enter,210,1,1463.6999999284744,760790.6000000238,7707,WL,C,5.0
7,21.010000228881836,immed,38989.999771118164,Fri Dec 12 2025 14:36:14 GMT-0600 (Central Standard Time),765104.6999999285,A,b,O,b,2845,1,2850.1999999284744,762254.5,7707,WL,C,6.0
7,21.561000108718872,immed,38438.99989128113,Fri Dec 12 2025 14:36:14 GMT-0600 (Central Standard Time),765656.1000000238,A,bo,O,o,544,1,3401.600000023842,762254.5,7707,WL,C,6.0
7,21.9760000705719,immed,38023.9999294281,Fri Dec 12 2025 14:36:14 GMT-0600 (Central Standard Time),766070.8999999762,A,boy,O,y,402,1,3816.399999976158,762254.5,7707,WL,C,6.0
7,22.243000030517578,immed,37756.99996948242,Fri Dec 12 2025 14:36:14 GMT-0600 (Central Standard Time),766337.6000000238,A,boyenter,O,enter,251,1,4083.100000023842,762254.5,7707,WL,C,6.0
7,26.058000087738037,immed,33941.99991226196,Fri Dec 12 2025 14:36:14 GMT-0600 (Central Standard Time),770153.1999999285,A,w,O,w,3811,1,3815.399999976158,766337.7999999523,7707,WL,C,7.0
7,26.375,immed,33625.0,Fri Dec 12 2025 14:36:14 GMT-0600 (Central Standard Time),770469.6999999285,A,wh,O,h,304,1,4131.899999976158,766337.7999999523,7707,WL,C,7.0
7,26.591000080108643,immed,33408.99991989136,Fri Dec 12 2025 14:36:14 GMT-0600 (Central Standard Time),770686.1000000238,A,whe,O,e,196,1,4348.300000071526,766337.7999999523,7707,WL,C,7.0
7,26.808000087738037,immed,33191.99991226196,Fri Dec 12 2025 14:36:14 GMT-0600 (Central Standard Time),770902.8999999762,A,whea,O,a,196,1,4565.100000023842,766337.7999999523,7707,WL,C,7.0
7,26.95800018310547,immed,33041.99981689453,Fri Dec 12 2025 14:36:14 GMT-0600 (Central Standard Time),771053.1000000238,A,wheat,O,t,130,1,4715.300000071526,766337.7999999523,7707,WL,C,7.0
7,27.490000009536743,immed,32509.999990463257,Fri Dec 12 2025 14:36:14 GMT-0600 (Central Standard Time),771585.3999999762,A,wheatenter,O,enter,519,1,5247.600000023842,766337.7999999523,7707,WL,C,7.0
7,35.354000091552734,immed,24645.999908447266,Fri Dec 12 2025 14:36:14 GMT-0600 (Central Standard Time),779449.6000000238,A,b,O,b,7848,1,7864.0,771585.6000000238,7707,WL,C,8.0
7,35.8050000667572,immed,24194.999933242798,Fri Dec 12 2025 14:36:14 GMT-0600 (Central Standard Time),779900.1999999285,A,bo,O,o,433,1,8314.599999904633,771585.6000000238,7707,WL,C,8.0
7,36.32100009918213,immed,23678.99990081787,Fri Dec 12 2025 14:36:14 GMT-0600 (Central Standard Time),780416.2999999523,A,boy,O,y,501,1,8830.699999928474,771585.6000000238,7707,WL,C,8.0
7,38.3030002117157,immed,21696.9997882843,Fri Dec 12 2025 14:36:14 GMT-0600 (Central Standard Time),782398.3999999762,A,boyenter,O,enter,1969,1,10812.799999952316,771585.6000000238,7707,WL,C,8.0
7,39.48700022697449,immed,20512.999773025513,Fri Dec 12 2025 14:36:14 GMT-0600 (Central Standard Time),783582.6000000238,A,c,O,c,1166,1,1184.1000000238419,782398.5,7707,WL,C,9.0
7,39.736000061035156,immed,20263.999938964844,Fri Dec 12 2025 14:36:14 GMT-0600 (Central Standard Time),783831.3999999762,A,ca,O,a,228,1,1432.8999999761581,782398.5,7707,WL,C,9.0
7,40.12000012397766,immed,19879.99987602234,Fri Dec 12 2025 14:36:14 GMT-0600 (Central Standard Time),784215.2999999523,A,cat,O,t,369,1,1816.7999999523163,782398.5,7707,WL,C,9.0
7,40.26900005340576,immed,19730.99994659424,Fri Dec 12 2025 14:36:14 GMT-0600 (Central Standard Time),784364.8999999762,A,catt,O,t,138,1,1966.3999999761581,782398.5,7707,WL,C,9.0
7,40.43600010871887,immed,19563.999891281128,Fri Dec 12 2025 14:36:14 GMT-0600 (Central Standard Time),784531.3999999762,A,cattl,O,l,157,1,2132.899999976158,782398.5,7707,WL,C,9.0
7,40.60300016403198,immed,19396.999835968018,Fri Dec 12 2025 14:36:14 GMT-0600 (Central Standard Time),784698.1000000238,A,cattle,O,e,159,1,2299.600000023842,782398.5,7707,WL,C,9.0
7,40.88600015640259,immed,19113.999843597412,Fri Dec 12 2025 14:36:14 GMT-0600 (Central Standard Time),784981.6999999285,A,cattleenter,O,enter,273,1,2583.1999999284744,782398.5,7707,WL,C,9.0
7,41.7020001411438,immed,18297.9998588562,Fri Dec 12 2025 14:36:14 GMT-0600 (Central Standard Time),785797.7999999523,A,enter,O,enter,796,1,815.8999999761581,784981.8999999762,7707,WL,C,10.0
7,41.985000133514404,immed,18014.999866485596,Fri Dec 12 2025 14:36:14 GMT-0600 (Central Standard Time),786080.2999999523,A,enter,O,enter,272,1,282.1999999284744,785798.1000000238,7707,WL,C,11.0
7,42.2020001411438,immed,17797.9998588562,Fri Dec 12 2025 14:36:14 GMT-0600 (Central Standard Time),786298.0,A,enter,O,enter,212,1,217.39999997615814,786080.6000000238,7707,WL,C,12.0
7,42.43500018119812,immed,17564.99981880188,Fri Dec 12 2025 14:36:14 GMT-0600 (Central Standard Time),786530.8999999762,A,enter,O,enter,225,1,232.5,786298.3999999762,7707,WL,C,13.0
7,42.68600010871887,immed,17313.999891281128,Fri Dec 12 2025 14:36:14 GMT-0600 (Central Standard Time),786781.1999999285,A,enter,O,enter,239,1,250.09999990463257,786531.1000000238,7707,WL,C,14.0
7,43.16800022125244,immed,16831.99977874756,Fri Dec 12 2025 14:36:14 GMT-0600 (Central Standard Time),787263.8999999762,A,enter,O,enter,479,1,482.2999999523163,786781.6000000238,7707,WL,C,15.0
