block_c,block_dur,condition,countdown,datetime,endtime,list,multichar_response,project,response,response_time,session_number,start_end,starttime,subject_id,task,task_vers,trial
,,,,Fri Oct 24 2025 16:04:14 GMT-0500 (Central Daylight Time),,,,I,space,746,1,,,8069,WL,B,
prac,,0,,Fri Oct 24 2025 16:04:14 GMT-0500 (Central Daylight Time),,NA,b,I,b,6219,1,,,8069,WL,B,1.0
prac,,0,,Fri Oct 24 2025 16:04:14 GMT-0500 (Central Daylight Time),,NA,bo,I,o,333,1,,,8069,WL,B,1.0
prac,,0,,Fri Oct 24 2025 16:04:14 GMT-0500 (Central Daylight Time),,NA,boo,I,o,130,1,,,8069,WL,B,1.0
prac,,0,,Fri Oct 24 2025 16:04:14 GMT-0500 (Central Daylight Time),,NA,boos,I,s,234,1,,,8069,WL,B,1.0
prac,,0,,Fri Oct 24 2025 16:04:14 GMT-0500 (Central Daylight Time),,NA,boost,I,t,242,1,,,8069,WL,B,1.0
prac,,0,,Fri Oct 24 2025 16:04:14 GMT-0500 (Central Daylight Time),,NA,boostenter,I,enter,1183,1,,,8069,WL,B,1.0
1,0.6999998092651367,learn,59300.00019073486,Fri Oct 24 2025 16:04:14 GMT-0500 (Central Daylight Time),125168.40000009537,A,s,I,s,692,1,699.3000001907349,124469.09999990463,8069,WL,B,1.0
1,0.9159998893737793,learn,59084.00011062622,Fri Oct 24 2025 16:04:14 GMT-0500 (Central Daylight Time),125385.0,A,st,I,t,201,1,915.9000000953674,124469.09999990463,8069,WL,B,1.0
1,1.3489999771118164,learn,58651.00002288818,Fri Oct 24 2025 16:04:14 GMT-0500 (Central Daylight Time),125818.30000019073,A,str,I,r,418,1,1349.2000002861023,124469.09999990463,8069,WL,B,1.0
1,1.8489999771118164,learn,58151.00002288818,Fri Oct 24 2025 16:04:14 GMT-0500 (Central Daylight Time),126317.69999980927,A,stre,I,e,480,1,1848.5999999046326,124469.09999990463,8069,WL,B,1.0
1,1.998999834060669,learn,58001.00016593933,Fri Oct 24 2025 16:04:14 GMT-0500 (Central Daylight Time),126468.0,A,stree,I,e,141,1,1998.9000000953674,124469.09999990463,8069,WL,B,1.0
1,2.248999834060669,learn,57751.00016593933,Fri Oct 24 2025 16:04:14 GMT-0500 (Central Daylight Time),126718.0,A,street,I,t,230,1,2248.9000000953674,124469.09999990463,8069,WL,B,1.0
1,2.5490000247955322,learn,57450.99997520447,Fri Oct 24 2025 16:04:14 GMT-0500 (Central Daylight Time),127017.40000009537,A,streetenter,I,enter,285,1,2548.300000190735,124469.09999990463,8069,WL,B,1.0
1,3.431999921798706,learn,56568.000078201294,Fri Oct 24 2025 16:04:14 GMT-0500 (Central Daylight Time),127900.5,A,g,I,g,873,1,882.5999999046326,127017.90000009537,8069,WL,B,2.0
1,3.697999954223633,learn,56302.00004577637,Fri Oct 24 2025 16:04:14 GMT-0500 (Central Daylight Time),128167.19999980927,A,gr,I,r,246,1,1149.2999997138977,127017.90000009537,8069,WL,B,2.0
1,3.9819998741149902,learn,56018.00012588501,Fri Oct 24 2025 16:04:14 GMT-0500 (Central Daylight Time),128450.40000009537,A,gra,I,a,267,1,1432.5,127017.90000009537,8069,WL,B,2.0
1,4.264999866485596,learn,55735.000133514404,Fri Oct 24 2025 16:04:14 GMT-0500 (Central Daylight Time),128733.59999990463,A,gras,I,s,263,1,1715.6999998092651,127017.90000009537,8069,WL,B,2.0
1,4.381999969482422,learn,55618.00003051758,Fri Oct 24 2025 16:04:14 GMT-0500 (Central Daylight Time),128850.69999980927,A,grass,I,s,108,1,1832.7999997138977,127017.90000009537,8069,WL,B,2.0
1,4.615000009536743,learn,55384.99999046326,Fri Oct 24 2025 16:04:14 GMT-0500 (Central Daylight Time),129084.0,A,grassenter,I,enter,224,1,2066.0999999046326,127017.90000009537,8069,WL,B,2.0
1,5.297999858856201,learn,54702.0001411438,Fri Oct 24 2025 16:04:14 GMT-0500 (Central Daylight Time),129766.69999980927,A,d,I,d,663,1,682.2999997138977,129084.40000009537,8069,WL,B,3.0
1,5.513999938964844,learn,54486.000061035156,Fri Oct 24 2025 16:04:14 GMT-0500 (Central Daylight Time),129983.09999990463,A,do,I,o,204,1,898.6999998092651,129084.40000009537,8069,WL,B,3.0
1,5.663999795913696,learn,54336.000204086304,Fri Oct 24 2025 16:04:14 GMT-0500 (Central Daylight Time),130133.19999980927,A,doo,I,o,132,1,1048.7999997138977,129084.40000009537,8069,WL,B,3.0
1,5.880999803543091,learn,54119.00019645691,Fri Oct 24 2025 16:04:14 GMT-0500 (Central Daylight Time),130349.80000019073,A,door,I,r,206,1,1265.4000000953674,129084.40000009537,8069,WL,B,3.0
1,6.546999931335449,learn,53453.00006866455,Fri Oct 24 2025 16:04:14 GMT-0500 (Central Daylight Time),131016.19999980927,A,doorenter,I,enter,653,1,1931.7999997138977,129084.40000009537,8069,WL,B,3.0
1,7.363999843597412,learn,52636.00015640259,Fri Oct 24 2025 16:04:14 GMT-0500 (Central Daylight Time),131832.69999980927,A,a,I,a,810,1,816.0999999046326,131016.59999990463,8069,WL,B,4.0
1,7.546999931335449,learn,52453.00006866455,Fri Oct 24 2025 16:04:14 GMT-0500 (Central Daylight Time),132015.90000009537,A,ar,I,r,162,1,999.3000001907349,131016.59999990463,8069,WL,B,4.0
1,7.796999931335449,learn,52203.00006866455,Fri Oct 24 2025 16:04:14 GMT-0500 (Central Daylight Time),132266.19999980927,A,arm,I,m,235,1,1249.5999999046326,131016.59999990463,8069,WL,B,4.0
1,8.313999891281128,learn,51686.00010871887,Fri Oct 24 2025 16:04:14 GMT-0500 (Central Daylight Time),132782.40000009537,A,armenter,I,enter,505,1,1765.8000001907349,131016.59999990463,8069,WL,B,4.0
1,10.462999820709229,learn,49537.00017929077,Fri Oct 24 2025 16:04:14 GMT-0500 (Central Daylight Time),134931.69999980927,A,w,I,w,2141,1,2149.0,132782.69999980927,8069,WL,B,5.0
1,10.562999963760376,learn,49437.000036239624,Fri Oct 24 2025 16:04:14 GMT-0500 (Central Daylight Time),135031.69999980927,A,wi,I,i,79,1,2249.0,132782.69999980927,8069,WL,B,5.0
1,10.712999820709229,learn,49287.00017929077,Fri Oct 24 2025 16:04:14 GMT-0500 (Central Daylight Time),135181.80000019073,A,wif,I,f,139,1,2399.1000003814697,132782.69999980927,8069,WL,B,5.0
1,11.148000001907349,learn,48851.99999809265,Fri Oct 24 2025 16:04:14 GMT-0500 (Central Daylight Time),135617.0,A,wife,I,e,429,1,2834.300000190735,132782.69999980927,8069,WL,B,5.0
1,11.294999837875366,learn,48705.000162124634,Fri Oct 24 2025 16:04:14 GMT-0500 (Central Daylight Time),135764.30000019073,A,wifeenter,I,enter,113,1,2981.6000003814697,132782.69999980927,8069,WL,B,5.0
1,11.462999820709229,learn,48537.00017929077,Fri Oct 24 2025 16:04:14 GMT-0500 (Central Daylight Time),135931.40000009537,A,a,I,a,156,1,166.59999990463257,135764.80000019073,8069,WL,B,6.0
1,13.09499979019165,learn,46905.00020980835,Fri Oct 24 2025 16:04:14 GMT-0500 (Central Daylight Time),137564.19999980927,A,,I,backspace,1623,1,1799.3999996185303,135764.80000019073,8069,WL,B,6.0
1,13.611999988555908,learn,46388.00001144409,Fri Oct 24 2025 16:04:14 GMT-0500 (Central Daylight Time),138080.80000019073,A,c,I,c,502,1,2316.0,135764.80000019073,8069,WL,B,6.0
1,13.711999893188477,learn,46288.00010681152,Fri Oct 24 2025 16:04:14 GMT-0500 (Central Daylight Time),138180.59999990463,A,ci,I,i,90,1,2415.7999997138977,135764.80000019073,8069,WL,B,6.0
1,13.961999893188477,learn,46038.00010681152,Fri Oct 24 2025 16:04:14 GMT-0500 (Central Daylight Time),138430.5,A,cit,I,t,231,1,2665.699999809265,135764.80000019073,8069,WL,B,6.0
1,14.42799997329712,learn,45572.00002670288,Fri Oct 24 2025 16:04:14 GMT-0500 (Central Daylight Time),138897.19999980927,A,city,I,y,452,1,3132.3999996185303,135764.80000019073,8069,WL,B,6.0
1,14.961999893188477,learn,45038.00010681152,Fri Oct 24 2025 16:04:14 GMT-0500 (Central Daylight Time),139430.5,A,cityenter,I,enter,514,1,3665.699999809265,135764.80000019073,8069,WL,B,6.0
1,15.327999830245972,learn,44672.00016975403,Fri Oct 24 2025 16:04:14 GMT-0500 (Central Daylight Time),139797.0,A,p,I,p,355,1,366.30000019073486,139430.69999980927,8069,WL,B,7.0
1,15.494999885559082,learn,44505.00011444092,Fri Oct 24 2025 16:04:14 GMT-0500 (Central Daylight Time),139963.59999990463,A,pu,I,u,150,1,532.9000000953674,139430.69999980927,8069,WL,B,7.0
1,15.710999965667725,learn,44289.000034332275,Fri Oct 24 2025 16:04:14 GMT-0500 (Central Daylight Time),140180.09999990463,A,pup,I,p,207,1,749.4000000953674,139430.69999980927,8069,WL,B,7.0
1,16.26099991798401,learn,43739.00008201599,Fri Oct 24 2025 16:04:14 GMT-0500 (Central Daylight Time),140729.90000009537,A,pupi,I,i,535,1,1299.2000002861023,139430.69999980927,8069,WL,B,7.0
1,16.544999837875366,learn,43455.000162124634,Fri Oct 24 2025 16:04:14 GMT-0500 (Central Daylight Time),141013.40000009537,A,pupil,I,l,265,1,1582.7000002861023,139430.69999980927,8069,WL,B,7.0
1,17.126999855041504,learn,42873.000144958496,Fri Oct 24 2025 16:04:14 GMT-0500 (Central Daylight Time),141596.19999980927,A,pupilenter,I,enter,574,1,2165.5,139430.69999980927,8069,WL,B,7.0
1,18.22699999809265,learn,41773.00000190735,Fri Oct 24 2025 16:04:14 GMT-0500 (Central Daylight Time),142696.30000019073,A,d,I,d,1087,1,1099.7000002861023,141596.59999990463,8069,WL,B,8.0
1,18.426999807357788,learn,41573.00019264221,Fri Oct 24 2025 16:04:14 GMT-0500 (Central Daylight Time),142895.80000019073,A,do,I,o,187,1,1299.2000002861023,141596.59999990463,8069,WL,B,8.0
1,18.609999895095825,learn,41390.000104904175,Fri Oct 24 2025 16:04:14 GMT-0500 (Central Daylight Time),143079.30000019073,A,doo,I,o,164,1,1482.7000002861023,141596.59999990463,8069,WL,B,8.0
1,18.859999895095825,learn,41140.000104904175,Fri Oct 24 2025 16:04:14 GMT-0500 (Central Daylight Time),143329.0,A,door,I,r,243,1,1732.4000000953674,141596.59999990463,8069,WL,B,8.0
1,19.126999855041504,learn,40873.000144958496,Fri Oct 24 2025 16:04:14 GMT-0500 (Central Daylight Time),143595.59999990463,A,doorenter,I,enter,250,1,1999.0,141596.59999990463,8069,WL,B,8.0
1,24.507999897003174,learn,35492.000102996826,Fri Oct 24 2025 16:04:14 GMT-0500 (Central Daylight Time),148977.30000019073,A,c,I,c,5376,1,5381.300000190735,143596.0,8069,WL,B,9.0
1,24.658999919891357,learn,35341.00008010864,Fri Oct 24 2025 16:04:14 GMT-0500 (Central Daylight Time),149127.30000019073,A,ci,I,i,130,1,5531.300000190735,143596.0,8069,WL,B,9.0
1,24.875,learn,35125.0,Fri Oct 24 2025 16:04:14 GMT-0500 (Central Daylight Time),149343.90000009537,A,cit,I,t,196,1,5747.900000095367,143596.0,8069,WL,B,9.0
1,24.991999864578247,learn,35008.00013542175,Fri Oct 24 2025 16:04:14 GMT-0500 (Central Daylight Time),149460.5,A,city,I,y,107,1,5864.5,143596.0,8069,WL,B,9.0
1,25.407999992370605,learn,34592.000007629395,Fri Oct 24 2025 16:04:14 GMT-0500 (Central Daylight Time),149877.09999990463,A,cityenter,I,enter,407,1,6281.099999904633,143596.0,8069,WL,B,9.0
1,28.83999991416931,learn,31160.00008583069,Fri Oct 24 2025 16:04:14 GMT-0500 (Central Daylight Time),153309.19999980927,A,s,I,s,3415,1,3431.8999996185303,149877.30000019073,8069,WL,B,10.0
1,29.056999921798706,learn,30943.000078201294,Fri Oct 24 2025 16:04:14 GMT-0500 (Central Daylight Time),153526.19999980927,A,st,I,t,197,1,3648.8999996185303,149877.30000019073,8069,WL,B,10.0
1,29.306999921798706,learn,30693.000078201294,Fri Oct 24 2025 16:04:14 GMT-0500 (Central Daylight Time),153776.30000019073,A,str,I,r,245,1,3899.0,149877.30000019073,8069,WL,B,10.0
1,30.08999991416931,learn,29910.00008583069,Fri Oct 24 2025 16:04:14 GMT-0500 (Central Daylight Time),154558.90000009537,A,st,I,backspace,771,1,4681.599999904633,149877.30000019073,8069,WL,B,10.0
1,30.2739999294281,learn,29726.0000705719,Fri Oct 24 2025 16:04:14 GMT-0500 (Central Daylight Time),154742.40000009537,A,s,I,backspace,172,1,4865.099999904633,149877.30000019073,8069,WL,B,10.0
1,30.4229998588562,learn,29577.0001411438,Fri Oct 24 2025 16:04:14 GMT-0500 (Central Daylight Time),154892.09999990463,A,,I,backspace,141,1,5014.799999713898,149877.30000019073,8069,WL,B,10.0
1,34.855000019073486,learn,25144.999980926514,Fri Oct 24 2025 16:04:14 GMT-0500 (Central Daylight Time),159324.09999990463,A,enter,I,enter,4422,1,9446.799999713898,149877.30000019073,8069,WL,B,10.0
1,35.437999963760376,learn,24562.000036239624,Fri Oct 24 2025 16:04:14 GMT-0500 (Central Daylight Time),159907.30000019073,A,enter,I,enter,573,1,582.8000001907349,159324.5,8069,WL,B,11.0
1,35.80499982833862,learn,24195.000171661377,Fri Oct 24 2025 16:04:14 GMT-0500 (Central Daylight Time),160273.90000009537,A,enter,I,enter,352,1,366.40000009536743,159907.5,8069,WL,B,12.0
1,36.037999868392944,learn,23962.000131607056,Fri Oct 24 2025 16:04:14 GMT-0500 (Central Daylight Time),160507.09999990463,A,enter,I,enter,217,1,233.0,160274.09999990463,8069,WL,B,13.0
1,36.454999923706055,learn,23545.000076293945,Fri Oct 24 2025 16:04:14 GMT-0500 (Central Daylight Time),160923.69999980927,A,enter,I,enter,399,1,416.0,160507.69999980927,8069,WL,B,14.0
1,37.120999813079834,learn,22879.000186920166,Fri Oct 24 2025 16:04:14 GMT-0500 (Central Daylight Time),161589.90000009537,A,enter,I,enter,648,1,666.0,160923.90000009537,8069,WL,B,15.0
2,0.7669999599456787,learn,59233.00004005432,Fri Oct 24 2025 16:04:14 GMT-0500 (Central Daylight Time),231818.19999980927,A,s,I,s,750,1,766.5,231051.69999980927,8069,WL,B,1.0
2,1.066999912261963,learn,58933.00008773804,Fri Oct 24 2025 16:04:14 GMT-0500 (Central Daylight Time),232118.19999980927,A,st,I,t,280,1,1066.5,231051.69999980927,8069,WL,B,1.0
2,1.4499998092651367,learn,58550.00019073486,Fri Oct 24 2025 16:04:14 GMT-0500 (Central Daylight Time),232501.5,A,sta,I,a,373,1,1449.8000001907349,231051.69999980927,8069,WL,B,1.0
2,1.5499999523162842,learn,58450.000047683716,Fri Oct 24 2025 16:04:14 GMT-0500 (Central Daylight Time),232601.19999980927,A,star,I,r,85,1,1549.5,231051.69999980927,8069,WL,B,1.0
2,2.482999801635742,learn,57517.00019836426,Fri Oct 24 2025 16:04:14 GMT-0500 (Central Daylight Time),233534.69999980927,A,starenter,I,enter,914,1,2483.0,231051.69999980927,8069,WL,B,1.0
2,2.9819998741149902,learn,57018.00012588501,Fri Oct 24 2025 16:04:14 GMT-0500 (Central Daylight Time),234034.09999990463,A,w,I,w,484,1,499.0,233535.09999990463,8069,WL,B,2.0
2,3.1489999294281006,learn,56851.0000705719,Fri Oct 24 2025 16:04:14 GMT-0500 (Central Daylight Time),234200.59999990463,A,wi,I,i,160,1,665.5,233535.09999990463,8069,WL,B,2.0
2,3.298999786376953,learn,56701.00021362305,Fri Oct 24 2025 16:04:14 GMT-0500 (Central Daylight Time),234350.5,A,win,I,n,131,1,815.4000000953674,233535.09999990463,8069,WL,B,2.0
2,3.565999984741211,learn,56434.00001525879,Fri Oct 24 2025 16:04:14 GMT-0500 (Central Daylight Time),234617.19999980927,A,wind,I,d,253,1,1082.0999999046326,233535.09999990463,8069,WL,B,2.0
2,3.748999834060669,learn,56251.00016593933,Fri Oct 24 2025 16:04:14 GMT-0500 (Central Daylight Time),234800.59999990463,A,windo,I,o,162,1,1265.5,233535.09999990463,8069,WL,B,2.0
2,3.998999834060669,learn,56001.00016593933,Fri Oct 24 2025 16:04:14 GMT-0500 (Central Daylight Time),235050.40000009537,A,window,I,w,242,1,1515.3000001907349,233535.09999990463,8069,WL,B,2.0
2,4.31499981880188,learn,55685.00018119812,Fri Oct 24 2025 16:04:14 GMT-0500 (Central Daylight Time),235366.90000009537,A,windowenter,I,enter,297,1,1831.8000001907349,233535.09999990463,8069,WL,B,2.0
2,4.598999977111816,learn,55401.00002288818,Fri Oct 24 2025 16:04:14 GMT-0500 (Central Daylight Time),235650.19999980927,A,c,I,c,268,1,283.0,235367.19999980927,8069,WL,B,3.0
2,4.797999858856201,learn,55202.0001411438,Fri Oct 24 2025 16:04:14 GMT-0500 (Central Daylight Time),235850.09999990463,A,ca,I,a,185,1,482.90000009536743,235367.19999980927,8069,WL,B,3.0
2,5.197999954223633,learn,54802.00004577637,Fri Oct 24 2025 16:04:14 GMT-0500 (Central Daylight Time),236250.19999980927,A,cab,I,b,385,1,883.0,235367.19999980927,8069,WL,B,3.0
2,5.364999771118164,learn,54635.000228881836,Fri Oct 24 2025 16:04:14 GMT-0500 (Central Daylight Time),236416.59999990463,A,cabi,I,i,153,1,1049.4000000953674,235367.19999980927,8069,WL,B,3.0
2,5.581999778747559,learn,54418.00022125244,Fri Oct 24 2025 16:04:14 GMT-0500 (Central Daylight Time),236633.30000019073,A,cabin,I,n,203,1,1266.1000003814697,235367.19999980927,8069,WL,B,3.0
2,6.014999866485596,learn,53985.000133514404,Fri Oct 24 2025 16:04:14 GMT-0500 (Central Daylight Time),237066.30000019073,A,cabinenter,I,enter,426,1,1699.1000003814697,235367.19999980927,8069,WL,B,3.0
2,6.31499981880188,learn,53685.00018119812,Fri Oct 24 2025 16:04:14 GMT-0500 (Central Daylight Time),237366.30000019073,A,l,I,l,289,1,299.90000009536743,237066.40000009537,8069,WL,B,4.0
2,6.480999946594238,learn,53519.00005340576,Fri Oct 24 2025 16:04:14 GMT-0500 (Central Daylight Time),237532.90000009537,A,la,I,a,157,1,466.5,237066.40000009537,8069,WL,B,4.0
2,6.680999994277954,learn,53319.000005722046,Fri Oct 24 2025 16:04:14 GMT-0500 (Central Daylight Time),237732.80000019073,A,lak,I,k,191,1,666.4000000953674,237066.40000009537,8069,WL,B,4.0
2,6.81499981880188,learn,53185.00018119812,Fri Oct 24 2025 16:04:14 GMT-0500 (Central Daylight Time),237866.09999990463,A,lake,I,e,119,1,799.6999998092651,237066.40000009537,8069,WL,B,4.0
2,7.36299991607666,learn,52637.00008392334,Fri Oct 24 2025 16:04:14 GMT-0500 (Central Daylight Time),238416.0,A,lakeenter,I,enter,529,1,1349.5999999046326,237066.40000009537,8069,WL,B,4.0
2,7.645999908447266,learn,52354.000091552734,Fri Oct 24 2025 16:04:14 GMT-0500 (Central Daylight Time),238699.09999990463,A,f,I,f,275,1,282.7999997138977,238416.30000019073,8069,WL,B,5.0
2,8.078999996185303,learn,51921.0000038147,Fri Oct 24 2025 16:04:14 GMT-0500 (Central Daylight Time),239132.19999980927,A,fi,I,i,416,1,715.8999996185303,238416.30000019073,8069,WL,B,5.0
2,8.228999853134155,learn,51771.000146865845,Fri Oct 24 2025 16:04:14 GMT-0500 (Central Daylight Time),239282.30000019073,A,fir,I,r,135,1,866.0,238416.30000019073,8069,WL,B,5.0
2,8.429999828338623,learn,51570.00017166138,Fri Oct 24 2025 16:04:14 GMT-0500 (Central Daylight Time),239482.30000019073,A,fire,I,e,185,1,1066.0,238416.30000019073,8069,WL,B,5.0
2,10.495999813079834,learn,49504.000186920166,Fri Oct 24 2025 16:04:14 GMT-0500 (Central Daylight Time),241548.40000009537,A,fir,I,backspace,2049,1,3132.0999999046326,238416.30000019073,8069,WL,B,5.0
2,10.678999900817871,learn,49321.00009918213,Fri Oct 24 2025 16:04:14 GMT-0500 (Central Daylight Time),241731.5,A,fi,I,backspace,167,1,3315.199999809265,238416.30000019073,8069,WL,B,5.0
2,10.861999988555908,learn,49138.00001144409,Fri Oct 24 2025 16:04:14 GMT-0500 (Central Daylight Time),241915.09999990463,A,f,I,backspace,168,1,3498.7999997138977,238416.30000019073,8069,WL,B,5.0
2,11.02899980545044,learn,48971.00019454956,Fri Oct 24 2025 16:04:14 GMT-0500 (Central Daylight Time),242081.40000009537,A,,I,backspace,152,1,3665.0999999046326,238416.30000019073,8069,WL,B,5.0
2,18.075999975204468,learn,41924.00002479553,Fri Oct 24 2025 16:04:14 GMT-0500 (Central Daylight Time),249129.19999980927,A,s,I,s,7042,1,10712.89999961853,238416.30000019073,8069,WL,B,5.0
2,18.30999994277954,learn,41690.00005722046,Fri Oct 24 2025 16:04:14 GMT-0500 (Central Daylight Time),249362.5,A,st,I,t,218,1,10946.199999809265,238416.30000019073,8069,WL,B,5.0
2,18.592999935150146,learn,41407.00006484985,Fri Oct 24 2025 16:04:14 GMT-0500 (Central Daylight Time),249645.80000019073,A,str,I,r,273,1,11229.5,238416.30000019073,8069,WL,B,5.0
2,18.775999784469604,learn,41224.000215530396,Fri Oct 24 2025 16:04:14 GMT-0500 (Central Daylight Time),249829.19999980927,A,stre,I,e,174,1,11412.89999961853,238416.30000019073,8069,WL,B,5.0
2,18.959999799728394,learn,41040.00020027161,Fri Oct 24 2025 16:04:14 GMT-0500 (Central Daylight Time),250012.30000019073,A,stree,I,e,174,1,11596.0,238416.30000019073,8069,WL,B,5.0
2,19.192999839782715,learn,40807.000160217285,Fri Oct 24 2025 16:04:14 GMT-0500 (Central Daylight Time),250245.69999980927,A,street,I,t,215,1,11829.39999961853,238416.30000019073,8069,WL,B,5.0
2,19.39299988746643,learn,40607.00011253357,Fri Oct 24 2025 16:04:14 GMT-0500 (Central Daylight Time),250445.59999990463,A,streetenter,I,enter,182,1,12029.299999713898,238416.30000019073,8069,WL,B,5.0
2,19.608999967575073,learn,40391.00003242493,Fri Oct 24 2025 16:04:14 GMT-0500 (Central Daylight Time),250662.30000019073,A,g,I,g,206,1,216.5,250445.80000019073,8069,WL,B,6.0
2,19.825999975204468,learn,40174.00002479553,Fri Oct 24 2025 16:04:14 GMT-0500 (Central Daylight Time),250878.69999980927,A,gr,I,r,204,1,432.8999996185303,250445.80000019073,8069,WL,B,6.0
2,19.97599983215332,learn,40024.00016784668,Fri Oct 24 2025 16:04:14 GMT-0500 (Central Daylight Time),251028.59999990463,A,gra,I,a,141,1,582.7999997138977,250445.80000019073,8069,WL,B,6.0
2,20.22599983215332,learn,39774.00016784668,Fri Oct 24 2025 16:04:14 GMT-0500 (Central Daylight Time),251278.69999980927,A,gras,I,s,231,1,832.8999996185303,250445.80000019073,8069,WL,B,6.0
2,20.375999927520752,learn,39624.00007247925,Fri Oct 24 2025 16:04:14 GMT-0500 (Central Daylight Time),251428.40000009537,A,grass,I,s,141,1,982.5999999046326,250445.80000019073,8069,WL,B,6.0
2,20.575999975204468,learn,39424.00002479553,Fri Oct 24 2025 16:04:14 GMT-0500 (Central Daylight Time),251628.59999990463,A,grassenter,I,enter,182,1,1182.7999997138977,250445.80000019073,8069,WL,B,6.0
2,20.758999824523926,learn,39241.000175476074,Fri Oct 24 2025 16:04:14 GMT-0500 (Central Daylight Time),251811.69999980927,A,w,I,w,167,1,182.89999961853027,251628.80000019073,8069,WL,B,7.0
2,21.14199995994568,learn,38858.00004005432,Fri Oct 24 2025 16:04:14 GMT-0500 (Central Daylight Time),252194.80000019073,A,wi,I,i,367,1,566.0,251628.80000019073,8069,WL,B,7.0
2,21.274999856948853,learn,38725.00014305115,Fri Oct 24 2025 16:04:14 GMT-0500 (Central Daylight Time),252328.19999980927,A,win,I,n,112,1,699.3999996185303,251628.80000019073,8069,WL,B,7.0
2,21.39199995994568,learn,38608.00004005432,Fri Oct 24 2025 16:04:14 GMT-0500 (Central Daylight Time),252444.90000009537,A,wind,I,d,99,1,816.0999999046326,251628.80000019073,8069,WL,B,7.0
2,21.592000007629395,learn,38407.999992370605,Fri Oct 24 2025 16:04:14 GMT-0500 (Central Daylight Time),252644.80000019073,A,windo,I,o,190,1,1016.0,251628.80000019073,8069,WL,B,7.0
2,21.741999864578247,learn,38258.00013542175,Fri Oct 24 2025 16:04:14 GMT-0500 (Central Daylight Time),252794.90000009537,A,window,I,w,135,1,1166.0999999046326,251628.80000019073,8069,WL,B,7.0
2,22.486999988555908,learn,37513.00001144409,Fri Oct 24 2025 16:04:14 GMT-0500 (Central Daylight Time),253540.09999990463,A,windowenter,I,enter,739,1,1911.2999997138977,251628.80000019073,8069,WL,B,7.0
2,23.875,learn,36125.0,Fri Oct 24 2025 16:04:14 GMT-0500 (Central Daylight Time),254927.30000019073,A,w,I,w,1374,1,1386.8000001907349,253540.5,8069,WL,B,8.0
2,23.94099998474121,learn,36059.00001525879,Fri Oct 24 2025 16:04:14 GMT-0500 (Central Daylight Time),254994.09999990463,A,wi,I,i,60,1,1453.5999999046326,253540.5,8069,WL,B,8.0
2,24.125,learn,35875.0,Fri Oct 24 2025 16:04:14 GMT-0500 (Central Daylight Time),255177.19999980927,A,wif,I,f,177,1,1636.6999998092651,253540.5,8069,WL,B,8.0
2,24.274999856948853,learn,35725.00014305115,Fri Oct 24 2025 16:04:14 GMT-0500 (Central Daylight Time),255327.40000009537,A,wife,I,e,138,1,1786.9000000953674,253540.5,8069,WL,B,8.0
2,24.507999897003174,learn,35492.000102996826,Fri Oct 24 2025 16:04:14 GMT-0500 (Central Daylight Time),255560.5,A,wifeenter,I,enter,228,1,2020.0,253540.5,8069,WL,B,8.0
2,24.69099998474121,learn,35309.00001525879,Fri Oct 24 2025 16:04:14 GMT-0500 (Central Daylight Time),255744.19999980927,A,s,I,s,179,1,183.39999961853027,255560.80000019073,8069,WL,B,9.0
2,24.840999841690063,learn,35159.00015830994,Fri Oct 24 2025 16:04:14 GMT-0500 (Central Daylight Time),255893.90000009537,A,sk,I,k,131,1,333.09999990463257,255560.80000019073,8069,WL,B,9.0
2,25.04099988937378,learn,34959.00011062622,Fri Oct 24 2025 16:04:14 GMT-0500 (Central Daylight Time),256093.80000019073,A,ski,I,i,181,1,533.0,255560.80000019073,8069,WL,B,9.0
2,25.157999992370605,learn,34842.000007629395,Fri Oct 24 2025 16:04:14 GMT-0500 (Central Daylight Time),256210.30000019073,A,skin,I,n,110,1,649.5,255560.80000019073,8069,WL,B,9.0
2,25.823999881744385,learn,34176.000118255615,Fri Oct 24 2025 16:04:14 GMT-0500 (Central Daylight Time),256877.0,A,skinenter,I,enter,649,1,1316.1999998092651,255560.80000019073,8069,WL,B,9.0
2,30.155999898910522,learn,29844.000101089478,Fri Oct 24 2025 16:04:14 GMT-0500 (Central Daylight Time),261208.69999980927,A,p,I,p,4327,1,4331.39999961853,256877.30000019073,8069,WL,B,10.0
2,30.322999954223633,learn,29677.000045776367,Fri Oct 24 2025 16:04:14 GMT-0500 (Central Daylight Time),261375.30000019073,A,pu,I,u,154,1,4498.0,256877.30000019073,8069,WL,B,10.0
2,30.50599980354309,learn,29494.00019645691,Fri Oct 24 2025 16:04:14 GMT-0500 (Central Daylight Time),261558.69999980927,A,pup,I,p,164,1,4681.39999961853,256877.30000019073,8069,WL,B,10.0
2,30.788999795913696,learn,29211.000204086304,Fri Oct 24 2025 16:04:14 GMT-0500 (Central Daylight Time),261841.90000009537,A,pupi,I,i,277,1,4964.599999904633,256877.30000019073,8069,WL,B,10.0
2,31.038999795913696,learn,28961.000204086304,Fri Oct 24 2025 16:04:14 GMT-0500 (Central Daylight Time),262091.80000019073,A,pupil,I,l,241,1,5214.5,256877.30000019073,8069,WL,B,10.0
2,32.3219997882843,learn,27678.0002117157,Fri Oct 24 2025 16:04:14 GMT-0500 (Central Daylight Time),263374.80000019073,A,pupilenter,I,enter,1264,1,6497.5,256877.30000019073,8069,WL,B,10.0
2,54.348999977111816,learn,5651.000022888184,Fri Oct 24 2025 16:04:14 GMT-0500 (Central Daylight Time),285402.19999980927,A,enter,I,enter,22021,1,22027.099999904633,263375.09999990463,8069,WL,B,11.0
2,55.14800000190735,learn,4851.999998092651,Fri Oct 24 2025 16:04:14 GMT-0500 (Central Daylight Time),286200.90000009537,A,enter,I,enter,792,1,798.5999999046326,285402.30000019073,8069,WL,B,12.0
2,55.41499996185303,learn,4585.000038146973,Fri Oct 24 2025 16:04:14 GMT-0500 (Central Daylight Time),286467.40000009537,A,enter,I,enter,258,1,266.2000002861023,286201.19999980927,8069,WL,B,13.0
2,55.74799990653992,learn,4252.000093460083,Fri Oct 24 2025 16:04:14 GMT-0500 (Central Daylight Time),286800.80000019073,A,enter,I,enter,320,1,333.1000003814697,286467.69999980927,8069,WL,B,14.0
2,56.24799990653992,learn,3752.000093460083,Fri Oct 24 2025 16:04:14 GMT-0500 (Central Daylight Time),287300.5,A,enter,I,enter,490,1,499.40000009536743,286801.09999990463,8069,WL,B,15.0
3,0.9819998741149902,learn,59018.00012588501,Fri Oct 24 2025 16:04:14 GMT-0500 (Central Daylight Time),355129.30000019073,A,s,I,s,970,1,982.7000002861023,354146.59999990463,8069,WL,B,1.0
3,1.2990000247955322,learn,58700.99997520447,Fri Oct 24 2025 16:04:14 GMT-0500 (Central Daylight Time),355445.80000019073,A,sk,I,k,296,1,1299.2000002861023,354146.59999990463,8069,WL,B,1.0
3,1.499000072479248,learn,58500.99992752075,Fri Oct 24 2025 16:04:14 GMT-0500 (Central Daylight Time),355646.0,A,ski,I,i,189,1,1499.4000000953674,354146.59999990463,8069,WL,B,1.0
3,1.6319999694824219,learn,58368.00003051758,Fri Oct 24 2025 16:04:14 GMT-0500 (Central Daylight Time),355779.09999990463,A,skin,I,n,125,1,1632.5,354146.59999990463,8069,WL,B,1.0
3,2.3989999294281006,learn,57601.0000705719,Fri Oct 24 2025 16:04:14 GMT-0500 (Central Daylight Time),356545.5,A,skinenter,I,enter,752,1,2398.9000000953674,354146.59999990463,8069,WL,B,1.0
3,2.7820000648498535,learn,57217.99993515015,Fri Oct 24 2025 16:04:14 GMT-0500 (Central Daylight Time),356928.69999980927,A,f,I,f,378,1,382.8999996185303,356545.80000019073,8069,WL,B,2.0
3,2.8989999294281006,learn,57101.0000705719,Fri Oct 24 2025 16:04:14 GMT-0500 (Central Daylight Time),357045.40000009537,A,fi,I,i,107,1,499.59999990463257,356545.80000019073,8069,WL,B,2.0
3,3.047999858856201,learn,56952.0001411438,Fri Oct 24 2025 16:04:14 GMT-0500 (Central Daylight Time),357195.19999980927,A,fir,I,r,142,1,649.3999996185303,356545.80000019073,8069,WL,B,2.0
3,3.1649999618530273,learn,56835.00003814697,Fri Oct 24 2025 16:04:14 GMT-0500 (Central Daylight Time),357312.09999990463,A,fire,I,e,112,1,766.2999997138977,356545.80000019073,8069,WL,B,2.0
3,3.447999954223633,learn,56552.00004577637,Fri Oct 24 2025 16:04:14 GMT-0500 (Central Daylight Time),357595.19999980927,A,fireenter,I,enter,268,1,1049.3999996185303,356545.80000019073,8069,WL,B,2.0
3,3.863999843597412,learn,56136.00015640259,Fri Oct 24 2025 16:04:14 GMT-0500 (Central Daylight Time),358011.59999990463,A,c,I,c,408,1,416.09999990463257,357595.5,8069,WL,B,3.0
3,3.9800000190734863,learn,56019.999980926514,Fri Oct 24 2025 16:04:14 GMT-0500 (Central Daylight Time),358128.40000009537,A,cl,I,l,96,1,532.9000000953674,357595.5,8069,WL,B,3.0
3,4.197000026702881,learn,55802.99997329712,Fri Oct 24 2025 16:04:14 GMT-0500 (Central Daylight Time),358345.09999990463,A,clo,I,o,203,1,749.5999999046326,357595.5,8069,WL,B,3.0
3,4.379999876022339,learn,55620.00012397766,Fri Oct 24 2025 16:04:14 GMT-0500 (Central Daylight Time),358528.30000019073,A,cloc,I,c,162,1,932.8000001907349,357595.5,8069,WL,B,3.0
3,4.546999931335449,learn,55453.00006866455,Fri Oct 24 2025 16:04:14 GMT-0500 (Central Daylight Time),358695.0,A,clock,I,k,155,1,1099.5,357595.5,8069,WL,B,3.0
3,4.947000026702881,learn,55052.99997329712,Fri Oct 24 2025 16:04:14 GMT-0500 (Central Daylight Time),359094.90000009537,A,clockenter,I,enter,388,1,1499.4000000953674,357595.5,8069,WL,B,3.0
3,5.296999931335449,learn,54703.00006866455,Fri Oct 24 2025 16:04:14 GMT-0500 (Central Daylight Time),359445.09999990463,A,c,I,c,332,1,350.0,359095.09999990463,8069,WL,B,4.0
3,5.396999835968018,learn,54603.00016403198,Fri Oct 24 2025 16:04:14 GMT-0500 (Central Daylight Time),359544.69999980927,A,ci,I,i,78,1,449.59999990463257,359095.09999990463,8069,WL,B,4.0
3,5.596999883651733,learn,54403.00011634827,Fri Oct 24 2025 16:04:14 GMT-0500 (Central Daylight Time),359744.5,A,cit,I,t,186,1,649.4000000953674,359095.09999990463,8069,WL,B,4.0
3,5.746999979019165,learn,54253.000020980835,Fri Oct 24 2025 16:04:14 GMT-0500 (Central Daylight Time),359894.69999980927,A,city,I,y,139,1,799.5999999046326,359095.09999990463,8069,WL,B,4.0
3,6.44599986076355,learn,53554.00013923645,Fri Oct 24 2025 16:04:14 GMT-0500 (Central Daylight Time),360594.19999980927,A,cityenter,I,enter,685,1,1499.0999999046326,359095.09999990463,8069,WL,B,4.0
3,7.079999923706055,learn,52920.000076293945,Fri Oct 24 2025 16:04:14 GMT-0500 (Central Daylight Time),361227.59999990463,A,c,I,c,625,1,633.0999999046326,360594.5,8069,WL,B,5.0
3,7.246000051498413,learn,52753.99994850159,Fri Oct 24 2025 16:04:14 GMT-0500 (Central Daylight Time),361394.0,A,ca,I,a,159,1,799.5,360594.5,8069,WL,B,5.0
3,7.746000051498413,learn,52253.99994850159,Fri Oct 24 2025 16:04:14 GMT-0500 (Central Daylight Time),361894.0,A,cab,I,b,481,1,1299.5,360594.5,8069,WL,B,5.0
3,7.8459999561309814,learn,52154.00004386902,Fri Oct 24 2025 16:04:14 GMT-0500 (Central Daylight Time),361994.19999980927,A,cabi,I,i,85,1,1399.6999998092651,360594.5,8069,WL,B,5.0
3,7.996000051498413,learn,52003.99994850159,Fri Oct 24 2025 16:04:14 GMT-0500 (Central Daylight Time),362143.69999980927,A,cabin,I,n,129,1,1549.1999998092651,360594.5,8069,WL,B,5.0
3,8.662999868392944,learn,51337.000131607056,Fri Oct 24 2025 16:04:14 GMT-0500 (Central Daylight Time),362810.5,A,cabinenter,I,enter,652,1,2216.0,360594.5,8069,WL,B,5.0
3,9.794999837875366,learn,50205.000162124634,Fri Oct 24 2025 16:04:14 GMT-0500 (Central Daylight Time),363943.09999990463,A,s,I,s,1121,1,1132.2999997138977,362810.80000019073,8069,WL,B,6.0
3,10.029000043869019,learn,49970.99995613098,Fri Oct 24 2025 16:04:14 GMT-0500 (Central Daylight Time),364176.69999980927,A,st,I,t,212,1,1365.8999996185303,362810.80000019073,8069,WL,B,6.0
3,10.228999853134155,learn,49771.000146865845,Fri Oct 24 2025 16:04:14 GMT-0500 (Central Daylight Time),364376.5,A,str,I,r,195,1,1565.6999998092651,362810.80000019073,8069,WL,B,6.0
3,10.361999988555908,learn,49638.00001144409,Fri Oct 24 2025 16:04:14 GMT-0500 (Central Daylight Time),364509.90000009537,A,stre,I,e,115,1,1699.0999999046326,362810.80000019073,8069,WL,B,6.0
3,11.027999877929688,learn,48972.00012207031,Fri Oct 24 2025 16:04:14 GMT-0500 (Central Daylight Time),365176.19999980927,A,stree,I,e,661,1,2365.3999996185303,362810.80000019073,8069,WL,B,6.0
3,11.228999853134155,learn,48771.000146865845,Fri Oct 24 2025 16:04:14 GMT-0500 (Central Daylight Time),365376.5,A,street,I,t,178,1,2565.699999809265,362810.80000019073,8069,WL,B,6.0
3,12.09500002861023,learn,47904.99997138977,Fri Oct 24 2025 16:04:14 GMT-0500 (Central Daylight Time),366242.59999990463,A,streetenter,I,enter,859,1,3431.7999997138977,362810.80000019073,8069,WL,B,6.0
3,12.710999965667725,learn,47289.000034332275,Fri Oct 24 2025 16:04:14 GMT-0500 (Central Daylight Time),366859.0,A,f,I,f,601,1,616.0999999046326,366242.90000009537,8069,WL,B,7.0
3,12.861000061035156,learn,47138.999938964844,Fri Oct 24 2025 16:04:14 GMT-0500 (Central Daylight Time),367008.90000009537,A,fi,I,i,136,1,766.0,366242.90000009537,8069,WL,B,7.0
3,13.010999917984009,learn,46989.00008201599,Fri Oct 24 2025 16:04:14 GMT-0500 (Central Daylight Time),367158.90000009537,A,fir,I,r,131,1,916.0,366242.90000009537,8069,WL,B,7.0
3,13.16100001335144,learn,46838.99998664856,Fri Oct 24 2025 16:04:14 GMT-0500 (Central Daylight Time),367308.80000019073,A,fire,I,e,141,1,1065.9000000953674,366242.90000009537,8069,WL,B,7.0
3,13.677000045776367,learn,46322.99995422363,Fri Oct 24 2025 16:04:14 GMT-0500 (Central Daylight Time),367825.30000019073,A,fireenter,I,enter,510,1,1582.4000000953674,366242.90000009537,8069,WL,B,7.0
3,16.55999994277954,learn,43440.00005722046,Fri Oct 24 2025 16:04:14 GMT-0500 (Central Daylight Time),370707.80000019073,A,s,I,s,2866,1,2882.2000002861023,367825.59999990463,8069,WL,B,8.0
3,16.792999982833862,learn,43207.00001716614,Fri Oct 24 2025 16:04:14 GMT-0500 (Central Daylight Time),370941.09999990463,A,sk,I,k,215,1,3115.5,367825.59999990463,8069,WL,B,8.0
3,17.05999994277954,learn,42940.00005722046,Fri Oct 24 2025 16:04:14 GMT-0500 (Central Daylight Time),371207.90000009537,A,ski,I,i,246,1,3382.300000190735,367825.59999990463,8069,WL,B,8.0
3,17.210000038146973,learn,42789.99996185303,Fri Oct 24 2025 16:04:14 GMT-0500 (Central Daylight Time),371357.5,A,skin,I,n,131,1,3531.9000000953674,367825.59999990463,8069,WL,B,8.0
3,17.552000045776367,learn,42447.99995422363,Fri Oct 24 2025 16:04:14 GMT-0500 (Central Daylight Time),371700.5,A,skinenter,I,enter,338,1,3874.9000000953674,367825.59999990463,8069,WL,B,8.0
3,17.65999984741211,learn,42340.00015258789,Fri Oct 24 2025 16:04:14 GMT-0500 (Central Daylight Time),371807.80000019073,A,a,I,a,94,1,107.0,371700.80000019073,8069,WL,B,9.0
3,17.792999982833862,learn,42207.00001716614,Fri Oct 24 2025 16:04:14 GMT-0500 (Central Daylight Time),371940.69999980927,A,ar,I,r,123,1,239.89999961853027,371700.80000019073,8069,WL,B,9.0
3,18.009000062942505,learn,41990.999937057495,Fri Oct 24 2025 16:04:14 GMT-0500 (Central Daylight Time),372157.40000009537,A,arm,I,m,207,1,456.59999990463257,371700.80000019073,8069,WL,B,9.0
3,18.575999975204468,learn,41424.00002479553,Fri Oct 24 2025 16:04:14 GMT-0500 (Central Daylight Time),372723.69999980927,A,armenter,I,enter,558,1,1022.8999996185303,371700.80000019073,8069,WL,B,9.0
3,18.89199995994568,learn,41108.00004005432,Fri Oct 24 2025 16:04:14 GMT-0500 (Central Daylight Time),373040.40000009537,A,p,I,p,303,1,316.40000009536743,372724.0,8069,WL,B,10.0
3,19.042999982833862,learn,40957.00001716614,Fri Oct 24 2025 16:04:14 GMT-0500 (Central Daylight Time),373191.40000009537,A,pu,I,u,139,1,467.40000009536743,372724.0,8069,WL,B,10.0
3,19.375999927520752,learn,40624.00007247925,Fri Oct 24 2025 16:04:14 GMT-0500 (Central Daylight Time),373523.5,A,pup,I,p,324,1,799.5,372724.0,8069,WL,B,10.0
3,19.675999879837036,learn,40324.000120162964,Fri Oct 24 2025 16:04:14 GMT-0500 (Central Daylight Time),373823.59999990463,A,pupi,I,i,288,1,1099.5999999046326,372724.0,8069,WL,B,10.0
3,20.05900001525879,learn,39940.99998474121,Fri Oct 24 2025 16:04:14 GMT-0500 (Central Daylight Time),374206.69999980927,A,pupil,I,l,363,1,1482.6999998092651,372724.0,8069,WL,B,10.0
3,20.45899987220764,learn,39541.00012779236,Fri Oct 24 2025 16:04:14 GMT-0500 (Central Daylight Time),374606.69999980927,A,pupilenter,I,enter,389,1,1882.6999998092651,372724.0,8069,WL,B,10.0
3,20.807999849319458,learn,39192.00015068054,Fri Oct 24 2025 16:04:14 GMT-0500 (Central Daylight Time),374956.30000019073,A,w,I,w,333,1,349.40000009536743,374606.90000009537,8069,WL,B,11.0
3,20.89199995994568,learn,39108.00004005432,Fri Oct 24 2025 16:04:14 GMT-0500 (Central Daylight Time),375039.80000019073,A,wi,I,i,71,1,432.90000009536743,374606.90000009537,8069,WL,B,11.0
3,21.10800004005432,learn,38891.99995994568,Fri Oct 24 2025 16:04:14 GMT-0500 (Central Daylight Time),375256.09999990463,A,wif,I,f,203,1,649.1999998092651,374606.90000009537,8069,WL,B,11.0
3,21.29200005531311,learn,38707.99994468689,Fri Oct 24 2025 16:04:14 GMT-0500 (Central Daylight Time),375439.59999990463,A,wife,I,e,171,1,832.6999998092651,374606.90000009537,8069,WL,B,11.0
3,21.924999952316284,learn,38075.000047683716,Fri Oct 24 2025 16:04:14 GMT-0500 (Central Daylight Time),376072.90000009537,A,wifeenter,I,enter,620,1,1466.0,374606.90000009537,8069,WL,B,11.0
3,26.473000049591064,learn,33526.999950408936,Fri Oct 24 2025 16:04:14 GMT-0500 (Central Daylight Time),380621.40000009537,A,s,I,s,4531,1,4548.200000286102,376073.19999980927,8069,WL,B,12.0
3,26.69000005722046,learn,33309.99994277954,Fri Oct 24 2025 16:04:14 GMT-0500 (Central Daylight Time),380837.90000009537,A,st,I,t,198,1,4764.700000286102,376073.19999980927,8069,WL,B,12.0
3,26.905999898910522,learn,33094.00010108948,Fri Oct 24 2025 16:04:14 GMT-0500 (Central Daylight Time),381054.40000009537,A,sta,I,a,206,1,4981.200000286102,376073.19999980927,8069,WL,B,12.0
3,26.990000009536743,learn,33009.99999046326,Fri Oct 24 2025 16:04:14 GMT-0500 (Central Daylight Time),381137.90000009537,A,star,I,r,69,1,5064.700000286102,376073.19999980927,8069,WL,B,12.0
3,27.455999851226807,learn,32544.000148773193,Fri Oct 24 2025 16:04:14 GMT-0500 (Central Daylight Time),381604.30000019073,A,starenter,I,enter,449,1,5531.10000038147,376073.19999980927,8069,WL,B,12.0
3,27.639999866485596,learn,32360.000133514404,Fri Oct 24 2025 16:04:14 GMT-0500 (Central Daylight Time),381787.69999980927,A,w,I,w,175,1,182.89999961853027,381604.80000019073,8069,WL,B,13.0
3,27.75600004196167,learn,32243.99995803833,Fri Oct 24 2025 16:04:14 GMT-0500 (Central Daylight Time),381904.19999980927,A,wi,I,i,112,1,299.3999996185303,381604.80000019073,8069,WL,B,13.0
3,27.905999898910522,learn,32094.000101089478,Fri Oct 24 2025 16:04:14 GMT-0500 (Central Daylight Time),382054.19999980927,A,win,I,n,139,1,449.3999996185303,381604.80000019073,8069,WL,B,13.0
3,28.02300000190735,learn,31976.99999809265,Fri Oct 24 2025 16:04:14 GMT-0500 (Central Daylight Time),382171.0,A,wind,I,d,101,1,566.1999998092651,381604.80000019073,8069,WL,B,13.0
3,28.305999994277954,learn,31694.000005722046,Fri Oct 24 2025 16:04:14 GMT-0500 (Central Daylight Time),382454.09999990463,A,windo,I,o,272,1,849.2999997138977,381604.80000019073,8069,WL,B,13.0
3,28.438999891281128,learn,31561.000108718872,Fri Oct 24 2025 16:04:14 GMT-0500 (Central Daylight Time),382587.40000009537,A,window,I,w,125,1,982.5999999046326,381604.80000019073,8069,WL,B,13.0
3,28.723000049591064,learn,31276.999950408936,Fri Oct 24 2025 16:04:14 GMT-0500 (Central Daylight Time),382870.69999980927,A,windowenter,I,enter,264,1,1265.8999996185303,381604.80000019073,8069,WL,B,13.0
3,37.80299997329712,learn,22197.00002670288,Fri Oct 24 2025 16:04:14 GMT-0500 (Central Daylight Time),391951.09999990463,A,d,I,d,9069,1,9080.199999809265,382870.90000009537,8069,WL,B,14.0
3,37.90299987792969,learn,22097.000122070312,Fri Oct 24 2025 16:04:14 GMT-0500 (Central Daylight Time),392051.30000019073,A,do,I,o,83,1,9180.400000095367,382870.90000009537,8069,WL,B,14.0
3,38.05299997329712,learn,21947.00002670288,Fri Oct 24 2025 16:04:14 GMT-0500 (Central Daylight Time),392200.90000009537,A,doo,I,o,145,1,9330.0,382870.90000009537,8069,WL,B,14.0
3,38.169999837875366,learn,21830.000162124634,Fri Oct 24 2025 16:04:14 GMT-0500 (Central Daylight Time),392317.59999990463,A,door,I,r,107,1,9446.699999809265,382870.90000009537,8069,WL,B,14.0
3,38.40299987792969,learn,21597.000122070312,Fri Oct 24 2025 16:04:14 GMT-0500 (Central Daylight Time),392551.0,A,doorenter,I,enter,222,1,9680.099999904633,382870.90000009537,8069,WL,B,14.0
3,39.38599991798401,learn,20614.00008201599,Fri Oct 24 2025 16:04:14 GMT-0500 (Central Daylight Time),393534.09999990463,A,enter,I,enter,964,1,982.7999997138977,392551.30000019073,8069,WL,B,15.0
4,0.6999998092651367,learn,59300.00019073486,Fri Oct 24 2025 16:04:14 GMT-0500 (Central Daylight Time),460512.90000009537,A,c,I,c,687,1,699.5999999046326,459813.30000019073,8069,WL,B,1.0
4,0.7999999523162842,learn,59200.000047683716,Fri Oct 24 2025 16:04:14 GMT-0500 (Central Daylight Time),460612.90000009537,A,cl,I,l,81,1,799.5999999046326,459813.30000019073,8069,WL,B,1.0
4,1.0,learn,59000.0,Fri Oct 24 2025 16:04:14 GMT-0500 (Central Daylight Time),460813.0,A,clo,I,o,183,1,999.6999998092651,459813.30000019073,8069,WL,B,1.0
4,1.1499998569488525,learn,58850.00014305115,Fri Oct 24 2025 16:04:14 GMT-0500 (Central Daylight Time),460962.80000019073,A,cloc,I,c,142,1,1149.5,459813.30000019073,8069,WL,B,1.0
4,1.3329999446868896,learn,58667.00005531311,Fri Oct 24 2025 16:04:14 GMT-0500 (Central Daylight Time),461146.09999990463,A,clock,I,k,169,1,1332.7999997138977,459813.30000019073,8069,WL,B,1.0
4,1.8829998970031738,learn,58117.000102996826,Fri Oct 24 2025 16:04:14 GMT-0500 (Central Daylight Time),461695.90000009537,A,clockenter,I,enter,529,1,1882.5999999046326,459813.30000019073,8069,WL,B,1.0
4,2.182999849319458,learn,57817.00015068054,Fri Oct 24 2025 16:04:14 GMT-0500 (Central Daylight Time),461995.80000019073,A,f,I,f,292,1,299.6000003814697,461696.19999980927,8069,WL,B,2.0
4,2.2660000324249268,learn,57733.99996757507,Fri Oct 24 2025 16:04:14 GMT-0500 (Central Daylight Time),462079.19999980927,A,fi,I,i,63,1,383.0,461696.19999980927,8069,WL,B,2.0
4,2.432999849319458,learn,57567.00015068054,Fri Oct 24 2025 16:04:14 GMT-0500 (Central Daylight Time),462245.59999990463,A,fir,I,r,156,1,549.4000000953674,461696.19999980927,8069,WL,B,2.0
4,2.565999984741211,learn,57434.00001525879,Fri Oct 24 2025 16:04:14 GMT-0500 (Central Daylight Time),462379.09999990463,A,fire,I,e,118,1,682.9000000953674,461696.19999980927,8069,WL,B,2.0
4,2.748999834060669,learn,57251.00016593933,Fri Oct 24 2025 16:04:14 GMT-0500 (Central Daylight Time),462562.30000019073,A,fireenter,I,enter,177,1,866.1000003814697,461696.19999980927,8069,WL,B,2.0
4,2.998999834060669,learn,57001.00016593933,Fri Oct 24 2025 16:04:14 GMT-0500 (Central Daylight Time),462812.09999990463,A,c,I,c,233,1,249.59999990463257,462562.5,8069,WL,B,3.0
4,3.1659998893737793,learn,56834.00011062622,Fri Oct 24 2025 16:04:14 GMT-0500 (Central Daylight Time),462978.80000019073,A,ca,I,a,159,1,416.30000019073486,462562.5,8069,WL,B,3.0
4,3.4159998893737793,learn,56584.00011062622,Fri Oct 24 2025 16:04:14 GMT-0500 (Central Daylight Time),463228.69999980927,A,cab,I,b,241,1,666.1999998092651,462562.5,8069,WL,B,3.0
4,3.498999834060669,learn,56501.00016593933,Fri Oct 24 2025 16:04:14 GMT-0500 (Central Daylight Time),463312.19999980927,A,cabi,I,i,63,1,749.6999998092651,462562.5,8069,WL,B,3.0
4,3.615999937057495,learn,56384.000062942505,Fri Oct 24 2025 16:04:14 GMT-0500 (Central Daylight Time),463428.80000019073,A,cabin,I,n,99,1,866.3000001907349,462562.5,8069,WL,B,3.0
4,4.131999969482422,learn,55868.00003051758,Fri Oct 24 2025 16:04:14 GMT-0500 (Central Daylight Time),463945.19999980927,A,cabinenter,I,enter,502,1,1382.6999998092651,462562.5,8069,WL,B,3.0
4,4.365000009536743,learn,55634.99999046326,Fri Oct 24 2025 16:04:14 GMT-0500 (Central Daylight Time),464178.30000019073,A,l,I,l,226,1,232.80000019073486,463945.5,8069,WL,B,4.0
4,4.498999834060669,learn,55501.00016593933,Fri Oct 24 2025 16:04:14 GMT-0500 (Central Daylight Time),464312.0,A,la,I,a,121,1,366.5,463945.5,8069,WL,B,4.0
4,4.764999866485596,learn,55235.000133514404,Fri Oct 24 2025 16:04:14 GMT-0500 (Central Daylight Time),464578.40000009537,A,lak,I,k,252,1,632.9000000953674,463945.5,8069,WL,B,4.0
4,4.898999929428101,learn,55101.0000705719,Fri Oct 24 2025 16:04:14 GMT-0500 (Central Daylight Time),464711.90000009537,A,lake,I,e,120,1,766.4000000953674,463945.5,8069,WL,B,4.0
4,5.297999858856201,learn,54702.0001411438,Fri Oct 24 2025 16:04:14 GMT-0500 (Central Daylight Time),465111.5,A,lakeenter,I,enter,388,1,1166.0,463945.5,8069,WL,B,4.0
4,5.697999954223633,learn,54302.00004577637,Fri Oct 24 2025 16:04:14 GMT-0500 (Central Daylight Time),465511.30000019073,A,s,I,s,388,1,399.7000002861023,465111.59999990463,8069,WL,B,5.0
4,5.797999858856201,learn,54202.0001411438,Fri Oct 24 2025 16:04:14 GMT-0500 (Central Daylight Time),465611.30000019073,A,sk,I,k,92,1,499.7000002861023,465111.59999990463,8069,WL,B,5.0
4,6.031999826431274,learn,53968.000173568726,Fri Oct 24 2025 16:04:14 GMT-0500 (Central Daylight Time),465844.90000009537,A,ski,I,i,224,1,733.3000001907349,465111.59999990463,8069,WL,B,5.0
4,6.323999881744385,learn,53676.000118255615,Fri Oct 24 2025 16:04:14 GMT-0500 (Central Daylight Time),466136.69999980927,A,skin,I,n,139,1,1025.0999999046326,465111.59999990463,8069,WL,B,5.0
4,7.380999803543091,learn,52619.00019645691,Fri Oct 24 2025 16:04:14 GMT-0500 (Central Daylight Time),467194.19999980927,A,skinenter,I,enter,1050,1,2082.5999999046326,465111.59999990463,8069,WL,B,5.0
4,7.730999946594238,learn,52269.00005340576,Fri Oct 24 2025 16:04:14 GMT-0500 (Central Daylight Time),467543.90000009537,A,w,I,w,329,1,349.40000009536743,467194.5,8069,WL,B,6.0
4,7.797999858856201,learn,52202.0001411438,Fri Oct 24 2025 16:04:14 GMT-0500 (Central Daylight Time),467610.90000009537,A,wi,I,i,51,1,416.40000009536743,467194.5,8069,WL,B,6.0
4,7.96399998664856,learn,52036.00001335144,Fri Oct 24 2025 16:04:14 GMT-0500 (Central Daylight Time),467777.09999990463,A,wif,I,f,160,1,582.5999999046326,467194.5,8069,WL,B,6.0
4,8.13099980354309,learn,51869.00019645691,Fri Oct 24 2025 16:04:14 GMT-0500 (Central Daylight Time),467944.09999990463,A,wife,I,e,146,1,749.5999999046326,467194.5,8069,WL,B,6.0
4,8.496999979019165,learn,51503.000020980835,Fri Oct 24 2025 16:04:14 GMT-0500 (Central Daylight Time),468310.5,A,wifeenter,I,enter,347,1,1116.0,467194.5,8069,WL,B,6.0
4,8.79699993133545,learn,51203.00006866455,Fri Oct 24 2025 16:04:14 GMT-0500 (Central Daylight Time),468610.19999980927,A,a,I,a,293,1,299.3999996185303,468310.80000019073,8069,WL,B,7.0
4,8.96399998664856,learn,51036.00001335144,Fri Oct 24 2025 16:04:14 GMT-0500 (Central Daylight Time),468777.09999990463,A,ar,I,r,161,1,466.2999997138977,468310.80000019073,8069,WL,B,7.0
4,9.164000034332275,learn,50835.999965667725,Fri Oct 24 2025 16:04:14 GMT-0500 (Central Daylight Time),468976.90000009537,A,arm,I,m,186,1,666.0999999046326,468310.80000019073,8069,WL,B,7.0
4,9.54699993133545,learn,50453.00006866455,Fri Oct 24 2025 16:04:14 GMT-0500 (Central Daylight Time),469360.0,A,armenter,I,enter,371,1,1049.1999998092651,468310.80000019073,8069,WL,B,7.0
4,9.71399998664856,learn,50286.00001335144,Fri Oct 24 2025 16:04:14 GMT-0500 (Central Daylight Time),469526.90000009537,A,s,I,s,156,1,166.59999990463257,469360.30000019073,8069,WL,B,8.0
4,9.96399998664856,learn,50036.00001335144,Fri Oct 24 2025 16:04:14 GMT-0500 (Central Daylight Time),469776.69999980927,A,st,I,t,244,1,416.3999996185303,469360.30000019073,8069,WL,B,8.0
4,10.379999876022339,learn,49620.00012397766,Fri Oct 24 2025 16:04:14 GMT-0500 (Central Daylight Time),470193.19999980927,A,str,I,r,411,1,832.8999996185303,469360.30000019073,8069,WL,B,8.0
4,10.54699993133545,learn,49453.00006866455,Fri Oct 24 2025 16:04:14 GMT-0500 (Central Daylight Time),470359.90000009537,A,stre,I,e,146,1,999.5999999046326,469360.30000019073,8069,WL,B,8.0
4,10.69700002670288,learn,49302.99997329712,Fri Oct 24 2025 16:04:14 GMT-0500 (Central Daylight Time),470509.80000019073,A,stree,I,e,131,1,1149.5,469360.30000019073,8069,WL,B,8.0
4,10.996999979019165,learn,49003.000020980835,Fri Oct 24 2025 16:04:14 GMT-0500 (Central Daylight Time),470809.59999990463,A,streeenter,I,enter,294,1,1449.2999997138977,469360.30000019073,8069,WL,B,8.0
4,12.496999979019165,learn,47503.000020980835,Fri Oct 24 2025 16:04:14 GMT-0500 (Central Daylight Time),472310.30000019073,A,s,I,s,1482,1,1500.5,470809.80000019073,8069,WL,B,9.0
4,12.69599986076355,learn,47304.00013923645,Fri Oct 24 2025 16:04:14 GMT-0500 (Central Daylight Time),472509.40000009537,A,st,I,t,181,1,1699.5999999046326,470809.80000019073,8069,WL,B,9.0
4,12.94599986076355,learn,47054.00013923645,Fri Oct 24 2025 16:04:14 GMT-0500 (Central Daylight Time),472759.09999990463,A,str,I,r,230,1,1949.2999997138977,470809.80000019073,8069,WL,B,9.0
4,13.11299991607666,learn,46887.00008392334,Fri Oct 24 2025 16:04:14 GMT-0500 (Central Daylight Time),472925.69999980927,A,stre,I,e,156,1,2115.8999996185303,470809.80000019073,8069,WL,B,9.0
4,13.312000036239624,learn,46687.999963760376,Fri Oct 24 2025 16:04:14 GMT-0500 (Central Daylight Time),473125.59999990463,A,stree,I,e,189,1,2315.7999997138977,470809.80000019073,8069,WL,B,9.0
4,13.812999963760376,learn,46187.000036239624,Fri Oct 24 2025 16:04:14 GMT-0500 (Central Daylight Time),473625.69999980927,A,street,I,t,494,1,2815.8999996185303,470809.80000019073,8069,WL,B,9.0
4,14.379999876022339,learn,45620.00012397766,Fri Oct 24 2025 16:04:14 GMT-0500 (Central Daylight Time),474192.90000009537,A,streetenter,I,enter,546,1,3383.0999999046326,470809.80000019073,8069,WL,B,9.0
4,20.243000030517578,learn,39756.99996948242,Fri Oct 24 2025 16:04:14 GMT-0500 (Central Daylight Time),480056.69999980927,A,w,I,w,5850,1,5863.39999961853,474193.30000019073,8069,WL,B,10.0
4,20.325999975204468,learn,39674.00002479553,Fri Oct 24 2025 16:04:14 GMT-0500 (Central Daylight Time),480140.09999990463,A,wi,I,i,66,1,5946.799999713898,474193.30000019073,8069,WL,B,10.0
4,20.425999879837036,learn,39574.000120162964,Fri Oct 24 2025 16:04:14 GMT-0500 (Central Daylight Time),480240.30000019073,A,win,I,n,95,1,6047.0,474193.30000019073,8069,WL,B,10.0
4,20.592999935150146,learn,39407.00006484985,Fri Oct 24 2025 16:04:14 GMT-0500 (Central Daylight Time),480406.90000009537,A,wind,I,d,147,1,6213.599999904633,474193.30000019073,8069,WL,B,10.0
4,20.692999839782715,learn,39307.000160217285,Fri Oct 24 2025 16:04:14 GMT-0500 (Central Daylight Time),480506.80000019073,A,windo,I,o,85,1,6313.5,474193.30000019073,8069,WL,B,10.0
4,20.858999967575073,learn,39141.00003242493,Fri Oct 24 2025 16:04:14 GMT-0500 (Central Daylight Time),480673.19999980927,A,window,I,w,153,1,6479.89999961853,474193.30000019073,8069,WL,B,10.0
4,21.508999824523926,learn,38491.000175476074,Fri Oct 24 2025 16:04:14 GMT-0500 (Central Daylight Time),481322.90000009537,A,windowenter,I,enter,642,1,7129.599999904633,474193.30000019073,8069,WL,B,10.0
4,22.358999967575073,learn,37641.00003242493,Fri Oct 24 2025 16:04:14 GMT-0500 (Central Daylight Time),482172.80000019073,A,c,I,c,840,1,849.6000003814697,481323.19999980927,8069,WL,B,11.0
4,22.39199995994568,learn,37608.00004005432,Fri Oct 24 2025 16:04:14 GMT-0500 (Central Daylight Time),482206.0,A,ci,I,i,22,1,882.8000001907349,481323.19999980927,8069,WL,B,11.0
4,22.64199995994568,learn,37358.00004005432,Fri Oct 24 2025 16:04:14 GMT-0500 (Central Daylight Time),482456.0,A,cit,I,t,237,1,1132.8000001907349,481323.19999980927,8069,WL,B,11.0
4,22.758999824523926,learn,37241.000175476074,Fri Oct 24 2025 16:04:14 GMT-0500 (Central Daylight Time),482572.5,A,city,I,y,107,1,1249.3000001907349,481323.19999980927,8069,WL,B,11.0
4,23.174999952316284,learn,36825.000047683716,Fri Oct 24 2025 16:04:14 GMT-0500 (Central Daylight Time),482989.0,A,cityenter,I,enter,399,1,1665.8000001907349,481323.19999980927,8069,WL,B,11.0
4,26.424999952316284,learn,33575.000047683716,Fri Oct 24 2025 16:04:14 GMT-0500 (Central Daylight Time),486238.40000009537,A,f,I,f,3239,1,3249.0999999046326,482989.30000019073,8069,WL,B,12.0
4,26.557999849319458,learn,33442.00015068054,Fri Oct 24 2025 16:04:14 GMT-0500 (Central Daylight Time),486371.69999980927,A,fi,I,i,124,1,3382.3999996185303,482989.30000019073,8069,WL,B,12.0
4,26.674000024795532,learn,33325.99997520447,Fri Oct 24 2025 16:04:14 GMT-0500 (Central Daylight Time),486488.09999990463,A,fir,I,r,111,1,3498.7999997138977,482989.30000019073,8069,WL,B,12.0
4,26.7739999294281,learn,33226.0000705719,Fri Oct 24 2025 16:04:14 GMT-0500 (Central Daylight Time),486588.30000019073,A,fire,I,e,91,1,3599.0,482989.30000019073,8069,WL,B,12.0
4,27.79099988937378,learn,32209.00011062622,Fri Oct 24 2025 16:04:14 GMT-0500 (Central Daylight Time),487604.69999980927,A,fireenter,I,enter,999,1,4615.39999961853,482989.30000019073,8069,WL,B,12.0
4,30.93999981880188,learn,29060.00018119812,Fri Oct 24 2025 16:04:14 GMT-0500 (Central Daylight Time),490753.5,A,p,I,p,3135,1,3148.5999999046326,487604.90000009537,8069,WL,B,13.0
4,31.072999954223633,learn,28927.000045776367,Fri Oct 24 2025 16:04:14 GMT-0500 (Central Daylight Time),490886.90000009537,A,pu,I,u,113,1,3282.0,487604.90000009537,8069,WL,B,13.0
4,31.238999843597412,learn,28761.000156402588,Fri Oct 24 2025 16:04:14 GMT-0500 (Central Daylight Time),491053.19999980927,A,pup,I,p,156,1,3448.2999997138977,487604.90000009537,8069,WL,B,13.0
4,31.539000034332275,learn,28460.999965667725,Fri Oct 24 2025 16:04:14 GMT-0500 (Central Daylight Time),491353.19999980927,A,pupl,I,l,294,1,3748.2999997138977,487604.90000009537,8069,WL,B,13.0
4,31.622999906539917,learn,28377.000093460083,Fri Oct 24 2025 16:04:14 GMT-0500 (Central Daylight Time),491436.5,A,pupli,I,i,74,1,3831.5999999046326,487604.90000009537,8069,WL,B,13.0
4,32.15599989891052,learn,27844.000101089478,Fri Oct 24 2025 16:04:14 GMT-0500 (Central Daylight Time),491969.80000019073,A,pupl,I,backspace,527,1,4364.900000095367,487604.90000009537,8069,WL,B,13.0
4,32.35599994659424,learn,27644.00005340576,Fri Oct 24 2025 16:04:14 GMT-0500 (Central Daylight Time),492169.59999990463,A,pup,I,backspace,184,1,4564.699999809265,487604.90000009537,8069,WL,B,13.0
4,33.055999994277954,learn,26944.000005722046,Fri Oct 24 2025 16:04:14 GMT-0500 (Central Daylight Time),492869.69999980927,A,pupi,I,i,682,1,5264.799999713898,487604.90000009537,8069,WL,B,13.0
4,33.43899989128113,learn,26561.000108718872,Fri Oct 24 2025 16:04:14 GMT-0500 (Central Daylight Time),493252.59999990463,A,pupil,I,l,373,1,5647.699999809265,487604.90000009537,8069,WL,B,13.0
4,33.888999938964844,learn,26111.000061035156,Fri Oct 24 2025 16:04:14 GMT-0500 (Central Daylight Time),493702.40000009537,A,pupilenter,I,enter,431,1,6097.5,487604.90000009537,8069,WL,B,13.0
4,39.769999980926514,learn,20230.000019073486,Fri Oct 24 2025 16:04:14 GMT-0500 (Central Daylight Time),499584.0,A,w,I,w,5861,1,5881.300000190735,493702.69999980927,8069,WL,B,14.0
4,39.86999988555908,learn,20130.000114440918,Fri Oct 24 2025 16:04:14 GMT-0500 (Central Daylight Time),499684.0,A,wi,I,i,83,1,5981.300000190735,493702.69999980927,8069,WL,B,14.0
4,40.003000020980835,learn,19996.999979019165,Fri Oct 24 2025 16:04:14 GMT-0500 (Central Daylight Time),499817.19999980927,A,win,I,n,128,1,6114.5,493702.69999980927,8069,WL,B,14.0
4,40.13699984550476,learn,19863.00015449524,Fri Oct 24 2025 16:04:14 GMT-0500 (Central Daylight Time),499950.5,A,wind,I,d,122,1,6247.800000190735,493702.69999980927,8069,WL,B,14.0
4,40.23699998855591,learn,19763.00001144409,Fri Oct 24 2025 16:04:14 GMT-0500 (Central Daylight Time),500050.69999980927,A,windo,I,o,93,1,6348.0,493702.69999980927,8069,WL,B,14.0
4,40.38699984550476,learn,19613.00015449524,Fri Oct 24 2025 16:04:14 GMT-0500 (Central Daylight Time),500200.5,A,window,I,w,128,1,6497.800000190735,493702.69999980927,8069,WL,B,14.0
4,40.6029999256134,learn,19397.000074386597,Fri Oct 24 2025 16:04:14 GMT-0500 (Central Daylight Time),500417.0,A,windowenter,I,enter,203,1,6714.300000190735,493702.69999980927,8069,WL,B,14.0
4,41.40299987792969,learn,18597.000122070312,Fri Oct 24 2025 16:04:14 GMT-0500 (Central Daylight Time),501216.69999980927,A,enter,I,enter,795,1,799.2999997138977,500417.40000009537,8069,WL,B,15.0
5,1.2000000476837158,learn,60000.0,Fri Oct 24 2025 16:04:14 GMT-0500 (Central Daylight Time),567896.1999998093,A,p,I,p,1187,1,1199.5999999046326,566696.5999999046,8069,WL,B,1.0
5,1.4830000400543213,learn,60000.0,Fri Oct 24 2025 16:04:14 GMT-0500 (Central Daylight Time),568179.1999998093,A,pi,I,i,266,1,1482.5999999046326,566696.5999999046,8069,WL,B,1.0
5,1.7159998416900635,learn,60000.0,Fri Oct 24 2025 16:04:14 GMT-0500 (Central Daylight Time),568412.4000000954,A,pip,I,p,216,1,1715.8000001907349,566696.5999999046,8069,WL,B,1.0
5,1.9659998416900635,learn,60000.0,Fri Oct 24 2025 16:04:14 GMT-0500 (Central Daylight Time),568662.4000000954,A,pipe,I,e,238,1,1965.8000001907349,566696.5999999046,8069,WL,B,1.0
5,2.4830000400543213,learn,60000.0,Fri Oct 24 2025 16:04:14 GMT-0500 (Central Daylight Time),569179.0,A,pipeenter,I,enter,501,1,2482.4000000953674,566696.5999999046,8069,WL,B,1.0
5,2.7990000247955322,learn,60000.0,Fri Oct 24 2025 16:04:14 GMT-0500 (Central Daylight Time),569495.3000001907,A,f,I,f,304,1,316.1000003814697,569179.1999998093,8069,WL,B,2.0
5,2.8320000171661377,learn,60000.0,Fri Oct 24 2025 16:04:14 GMT-0500 (Central Daylight Time),569528.6999998093,A,fi,I,i,28,1,349.5,569179.1999998093,8069,WL,B,2.0
5,3.0320000648498535,learn,60000.0,Fri Oct 24 2025 16:04:14 GMT-0500 (Central Daylight Time),569728.6999998093,A,fir,I,r,195,1,549.5,569179.1999998093,8069,WL,B,2.0
5,3.181999921798706,learn,60000.0,Fri Oct 24 2025 16:04:14 GMT-0500 (Central Daylight Time),569878.6999998093,A,fire,I,e,131,1,699.5,569179.1999998093,8069,WL,B,2.0
5,3.4659998416900635,learn,60000.0,Fri Oct 24 2025 16:04:14 GMT-0500 (Central Daylight Time),570162.0,A,fireenter,I,enter,277,1,982.8000001907349,569179.1999998093,8069,WL,B,2.0
5,3.7319998741149902,learn,60000.0,Fri Oct 24 2025 16:04:14 GMT-0500 (Central Daylight Time),570428.3000001907,A,s,I,s,258,1,266.1000003814697,570162.1999998093,8069,WL,B,3.0
5,3.8320000171661377,learn,60000.0,Fri Oct 24 2025 16:04:14 GMT-0500 (Central Daylight Time),570528.3000001907,A,sk,I,k,87,1,366.1000003814697,570162.1999998093,8069,WL,B,3.0
5,4.082000017166138,learn,60000.0,Fri Oct 24 2025 16:04:14 GMT-0500 (Central Daylight Time),570778.3000001907,A,ski,I,i,243,1,616.1000003814697,570162.1999998093,8069,WL,B,3.0
5,4.181999921798706,learn,60000.0,Fri Oct 24 2025 16:04:14 GMT-0500 (Central Daylight Time),570878.1999998093,A,skin,I,n,81,1,716.0,570162.1999998093,8069,WL,B,3.0
5,4.48199987411499,learn,60000.0,Fri Oct 24 2025 16:04:14 GMT-0500 (Central Daylight Time),571178.1999998093,A,skinenter,I,enter,285,1,1016.0,570162.1999998093,8069,WL,B,3.0
5,4.7149999141693115,learn,60000.0,Fri Oct 24 2025 16:04:14 GMT-0500 (Central Daylight Time),571411.5999999046,A,c,I,c,225,1,233.19999980926514,571178.4000000954,8069,WL,B,4.0
5,4.797999858856201,learn,60000.0,Fri Oct 24 2025 16:04:14 GMT-0500 (Central Daylight Time),571494.9000000954,A,cl,I,l,64,1,316.5,571178.4000000954,8069,WL,B,4.0
5,5.0320000648498535,learn,60000.0,Fri Oct 24 2025 16:04:14 GMT-0500 (Central Daylight Time),571728.0999999046,A,clo,I,o,220,1,549.6999998092651,571178.4000000954,8069,WL,B,4.0
5,5.23199987411499,learn,60000.0,Fri Oct 24 2025 16:04:14 GMT-0500 (Central Daylight Time),571928.0,A,cloc,I,c,187,1,749.5999999046326,571178.4000000954,8069,WL,B,4.0
5,5.332000017166138,learn,60000.0,Fri Oct 24 2025 16:04:14 GMT-0500 (Central Daylight Time),572028.0,A,clock,I,k,83,1,849.5999999046326,571178.4000000954,8069,WL,B,4.0
5,5.930999994277954,learn,60000.0,Fri Oct 24 2025 16:04:14 GMT-0500 (Central Daylight Time),572627.6999998093,A,clockenter,I,enter,591,1,1449.2999997138977,571178.4000000954,8069,WL,B,4.0
5,6.2159998416900635,learn,60000.0,Fri Oct 24 2025 16:04:14 GMT-0500 (Central Daylight Time),572912.1999998093,A,s,I,s,272,1,284.2999997138977,572627.9000000954,8069,WL,B,5.0
5,6.447999954223633,learn,60000.0,Fri Oct 24 2025 16:04:14 GMT-0500 (Central Daylight Time),573144.1999998093,A,st,I,t,227,1,516.2999997138977,572627.9000000954,8069,WL,B,5.0
5,6.680999994277954,learn,60000.0,Fri Oct 24 2025 16:04:14 GMT-0500 (Central Daylight Time),573377.5,A,str,I,r,219,1,749.5999999046326,572627.9000000954,8069,WL,B,5.0
5,6.797999858856201,learn,60000.0,Fri Oct 24 2025 16:04:14 GMT-0500 (Central Daylight Time),573494.1999998093,A,stre,I,e,98,1,866.2999997138977,572627.9000000954,8069,WL,B,5.0
5,6.96399998664856,learn,60000.0,Fri Oct 24 2025 16:04:14 GMT-0500 (Central Daylight Time),573660.8000001907,A,stree,I,e,156,1,1032.9000000953674,572627.9000000954,8069,WL,B,5.0
5,7.197999954223633,learn,60000.0,Fri Oct 24 2025 16:04:14 GMT-0500 (Central Daylight Time),573894.0999999046,A,street,I,t,223,1,1266.1999998092651,572627.9000000954,8069,WL,B,5.0
5,7.563999891281128,learn,60000.0,Fri Oct 24 2025 16:04:14 GMT-0500 (Central Daylight Time),574260.5999999046,A,streetenter,I,enter,357,1,1632.6999998092651,572627.9000000954,8069,WL,B,5.0
5,8.829999923706055,learn,60000.0,Fri Oct 24 2025 16:04:14 GMT-0500 (Central Daylight Time),575526.6999998093,A,g,I,g,1247,1,1265.8999996185303,574260.8000001907,8069,WL,B,6.0
5,9.063999891281128,learn,60000.0,Fri Oct 24 2025 16:04:14 GMT-0500 (Central Daylight Time),575760.0,A,gr,I,r,229,1,1499.1999998092651,574260.8000001907,8069,WL,B,6.0
5,9.19700002670288,learn,60000.0,Fri Oct 24 2025 16:04:14 GMT-0500 (Central Daylight Time),575893.1999998093,A,gra,I,a,123,1,1632.3999996185303,574260.8000001907,8069,WL,B,6.0
5,9.61299991607666,learn,60000.0,Fri Oct 24 2025 16:04:14 GMT-0500 (Central Daylight Time),576309.9000000954,A,gras,I,s,398,1,2049.0999999046326,574260.8000001907,8069,WL,B,6.0
5,9.746999979019165,learn,60000.0,Fri Oct 24 2025 16:04:14 GMT-0500 (Central Daylight Time),576443.1999998093,A,grass,I,s,126,1,2182.3999996185303,574260.8000001907,8069,WL,B,6.0
5,10.312999963760376,learn,60000.0,Fri Oct 24 2025 16:04:14 GMT-0500 (Central Daylight Time),577009.8000001907,A,grassenter,I,enter,552,1,2749.0,574260.8000001907,8069,WL,B,6.0
5,10.52999997138977,learn,60000.0,Fri Oct 24 2025 16:04:14 GMT-0500 (Central Daylight Time),577226.1999998093,A,d,I,d,210,1,216.09999990463257,577010.0999999046,8069,WL,B,7.0
5,10.645999908447266,learn,60000.0,Fri Oct 24 2025 16:04:14 GMT-0500 (Central Daylight Time),577342.8000001907,A,do,I,o,97,1,332.7000002861023,577010.0999999046,8069,WL,B,7.0
5,10.79699993133545,learn,60000.0,Fri Oct 24 2025 16:04:14 GMT-0500 (Central Daylight Time),577493.0999999046,A,doo,I,o,132,1,483.0,577010.0999999046,8069,WL,B,7.0
5,10.879999876022339,learn,60000.0,Fri Oct 24 2025 16:04:14 GMT-0500 (Central Daylight Time),577576.9000000954,A,door,I,r,78,1,566.8000001907349,577010.0999999046,8069,WL,B,7.0
5,11.19599986076355,learn,60000.0,Fri Oct 24 2025 16:04:14 GMT-0500 (Central Daylight Time),577892.5999999046,A,doorenter,I,enter,298,1,882.5,577010.0999999046,8069,WL,B,7.0
5,11.379999876022339,learn,60000.0,Fri Oct 24 2025 16:04:14 GMT-0500 (Central Daylight Time),578075.9000000954,A,a,I,a,175,1,183.09999990463257,577892.8000001907,8069,WL,B,8.0
5,11.52999997138977,learn,60000.0,Fri Oct 24 2025 16:04:14 GMT-0500 (Central Daylight Time),578226.1999998093,A,ar,I,r,135,1,333.3999996185303,577892.8000001907,8069,WL,B,8.0
5,11.662999868392944,learn,60000.0,Fri Oct 24 2025 16:04:14 GMT-0500 (Central Daylight Time),578359.5999999046,A,arm,I,m,113,1,466.7999997138977,577892.8000001907,8069,WL,B,8.0
5,12.145999908447266,learn,60000.0,Fri Oct 24 2025 16:04:14 GMT-0500 (Central Daylight Time),578842.4000000954,A,armenter,I,enter,468,1,949.5999999046326,577892.8000001907,8069,WL,B,8.0
5,12.562000036239624,learn,60000.0,Fri Oct 24 2025 16:04:14 GMT-0500 (Central Daylight Time),579258.9000000954,A,s,I,s,409,1,416.30000019073486,578842.5999999046,8069,WL,B,9.0
5,12.678999900817871,learn,60000.0,Fri Oct 24 2025 16:04:14 GMT-0500 (Central Daylight Time),579375.5,A,sk,I,k,105,1,532.9000000953674,578842.5999999046,8069,WL,B,9.0
5,12.895999908447266,learn,60000.0,Fri Oct 24 2025 16:04:14 GMT-0500 (Central Daylight Time),579592.3000001907,A,ski,I,i,204,1,749.7000002861023,578842.5999999046,8069,WL,B,9.0
5,13.046000003814697,learn,60000.0,Fri Oct 24 2025 16:04:14 GMT-0500 (Central Daylight Time),579742.0,A,skin,I,n,131,1,899.4000000953674,578842.5999999046,8069,WL,B,9.0
5,13.345999956130981,learn,60000.0,Fri Oct 24 2025 16:04:14 GMT-0500 (Central Daylight Time),580042.0999999046,A,skinenter,I,enter,293,1,1199.5,578842.5999999046,8069,WL,B,9.0
5,13.611999988555908,learn,60000.0,Fri Oct 24 2025 16:04:14 GMT-0500 (Central Daylight Time),580308.5999999046,A,w,I,w,249,1,266.09999990463257,580042.5,8069,WL,B,10.0
5,13.711999893188477,learn,60000.0,Fri Oct 24 2025 16:04:14 GMT-0500 (Central Daylight Time),580408.5,A,wi,I,i,87,1,366.0,580042.5,8069,WL,B,10.0
5,13.861999988555908,learn,60000.0,Fri Oct 24 2025 16:04:14 GMT-0500 (Central Daylight Time),580558.5999999046,A,wif,I,f,138,1,516.0999999046326,580042.5,8069,WL,B,10.0
5,14.144999980926514,learn,60000.0,Fri Oct 24 2025 16:04:14 GMT-0500 (Central Daylight Time),580841.8000001907,A,wife,I,e,269,1,799.3000001907349,580042.5,8069,WL,B,10.0
5,14.611999988555908,learn,60000.0,Fri Oct 24 2025 16:04:14 GMT-0500 (Central Daylight Time),581308.3000001907,A,wifeenter,I,enter,450,1,1265.8000001907349,580042.5,8069,WL,B,10.0
5,15.661999940872192,learn,60000.0,Fri Oct 24 2025 16:04:14 GMT-0500 (Central Daylight Time),582357.9000000954,A,a,I,a,1039,1,1049.3000001907349,581308.5999999046,8069,WL,B,11.0
5,15.960999965667725,learn,60000.0,Fri Oct 24 2025 16:04:14 GMT-0500 (Central Daylight Time),582657.9000000954,A,ar,I,r,293,1,1349.3000001907349,581308.5999999046,8069,WL,B,11.0
5,16.444999933242798,learn,60000.0,Fri Oct 24 2025 16:04:14 GMT-0500 (Central Daylight Time),583141.3000001907,A,arm,I,m,466,1,1832.7000002861023,581308.5999999046,8069,WL,B,11.0
5,17.44000005722046,learn,60000.0,Fri Oct 24 2025 16:04:14 GMT-0500 (Central Daylight Time),584136.3000001907,A,armenter,I,enter,990,1,2827.7000002861023,581308.5999999046,8069,WL,B,11.0
5,18.677000045776367,learn,60000.0,Fri Oct 24 2025 16:04:14 GMT-0500 (Central Daylight Time),585373.6999998093,A,c,I,c,1226,1,1237.0,584136.6999998093,8069,WL,B,12.0
5,18.74399995803833,learn,60000.0,Fri Oct 24 2025 16:04:14 GMT-0500 (Central Daylight Time),585440.1999998093,A,ci,I,i,62,1,1303.5,584136.6999998093,8069,WL,B,12.0
5,18.927000045776367,learn,60000.0,Fri Oct 24 2025 16:04:14 GMT-0500 (Central Daylight Time),585623.5999999046,A,cit,I,t,163,1,1486.9000000953674,584136.6999998093,8069,WL,B,12.0
5,19.043999910354614,learn,60000.0,Fri Oct 24 2025 16:04:14 GMT-0500 (Central Daylight Time),585740.3000001907,A,city,I,y,100,1,1603.6000003814697,584136.6999998093,8069,WL,B,12.0
5,19.310999870300293,learn,60000.0,Fri Oct 24 2025 16:04:14 GMT-0500 (Central Daylight Time),586006.9000000954,A,cityenter,I,enter,255,1,1870.2000002861023,584136.6999998093,8069,WL,B,12.0
5,19.876999855041504,learn,60000.0,Fri Oct 24 2025 16:04:14 GMT-0500 (Central Daylight Time),586573.1999998093,A,p,I,p,556,1,565.8999996185303,586007.3000001907,8069,WL,B,13.0
5,20.0939998626709,learn,60000.0,Fri Oct 24 2025 16:04:14 GMT-0500 (Central Daylight Time),586790.0,A,pu,I,u,198,1,782.6999998092651,586007.3000001907,8069,WL,B,13.0
5,20.3439998626709,learn,60000.0,Fri Oct 24 2025 16:04:14 GMT-0500 (Central Daylight Time),587040.0,A,pup,I,p,237,1,1032.6999998092651,586007.3000001907,8069,WL,B,13.0
5,20.759999990463257,learn,60000.0,Fri Oct 24 2025 16:04:14 GMT-0500 (Central Daylight Time),587456.5,A,pupi,I,i,403,1,1449.1999998092651,586007.3000001907,8069,WL,B,13.0
5,21.060999870300293,learn,60000.0,Fri Oct 24 2025 16:04:14 GMT-0500 (Central Daylight Time),587756.9000000954,A,pupil,I,l,289,1,1749.5999999046326,586007.3000001907,8069,WL,B,13.0
5,21.57699990272522,learn,60000.0,Fri Oct 24 2025 16:04:14 GMT-0500 (Central Daylight Time),588273.0,A,pupilenter,I,enter,501,1,2265.699999809265,586007.3000001907,8069,WL,B,13.0
5,24.108999967575073,learn,60000.0,Fri Oct 24 2025 16:04:14 GMT-0500 (Central Daylight Time),590805.5999999046,A,w,I,w,2521,1,2532.2999997138977,588273.3000001907,8069,WL,B,14.0
5,24.20899987220764,learn,60000.0,Fri Oct 24 2025 16:04:14 GMT-0500 (Central Daylight Time),590905.1999998093,A,wi,I,i,85,1,2631.8999996185303,588273.3000001907,8069,WL,B,14.0
5,24.375999927520752,learn,60000.0,Fri Oct 24 2025 16:04:14 GMT-0500 (Central Daylight Time),591072.1999998093,A,win,I,n,160,1,2798.8999996185303,588273.3000001907,8069,WL,B,14.0
5,24.575999975204468,learn,60000.0,Fri Oct 24 2025 16:04:14 GMT-0500 (Central Daylight Time),591272.0999999046,A,wind,I,d,195,1,2998.7999997138977,588273.3000001907,8069,WL,B,14.0
5,24.691999912261963,learn,60000.0,Fri Oct 24 2025 16:04:14 GMT-0500 (Central Daylight Time),591388.5,A,windo,I,o,99,1,3115.199999809265,588273.3000001907,8069,WL,B,14.0
5,24.825999975204468,learn,60000.0,Fri Oct 24 2025 16:04:14 GMT-0500 (Central Daylight Time),591522.0,A,window,I,w,119,1,3248.699999809265,588273.3000001907,8069,WL,B,14.0
5,25.04200005531311,learn,60000.0,Fri Oct 24 2025 16:04:14 GMT-0500 (Central Daylight Time),591738.4000000954,A,windowenter,I,enter,209,1,3465.0999999046326,588273.3000001907,8069,WL,B,14.0
5,27.090999841690063,learn,60000.0,Fri Oct 24 2025 16:04:14 GMT-0500 (Central Daylight Time),593787.6999998093,A,enter,I,enter,2041,1,2049.0999999046326,591738.5999999046,8069,WL,B,15.0
6,0.8000001907348633,distr,59199.99980926514,Fri Oct 24 2025 16:04:14 GMT-0500 (Central Daylight Time),665565.3000001907,B,c,I,c,790,1,799.6000003814697,664765.6999998093,8069,WL,B,1.0
6,0.8830001354217529,distr,59116.99986457825,Fri Oct 24 2025 16:04:14 GMT-0500 (Central Daylight Time),665648.5999999046,B,co,I,o,69,1,882.9000000953674,664765.6999998093,8069,WL,B,1.0
6,1.06600022315979,distr,58933.99977684021,Fri Oct 24 2025 16:04:14 GMT-0500 (Central Daylight Time),665831.8000001907,B,coi,I,i,163,1,1066.1000003814697,664765.6999998093,8069,WL,B,1.0
6,1.133000135421753,distr,58866.99986457825,Fri Oct 24 2025 16:04:14 GMT-0500 (Central Daylight Time),665898.3000001907,B,coin,I,n,60,1,1132.6000003814697,664765.6999998093,8069,WL,B,1.0
6,1.683000087738037,distr,58316.99991226196,Fri Oct 24 2025 16:04:14 GMT-0500 (Central Daylight Time),666448.3000001907,B,coinenter,I,enter,529,1,1682.6000003814697,664765.6999998093,8069,WL,B,1.0
6,1.883000135421753,distr,58116.99986457825,Fri Oct 24 2025 16:04:14 GMT-0500 (Central Daylight Time),666648.0999999046,B,r,I,r,187,1,199.59999990463257,666448.5,8069,WL,B,2.0
6,1.9830000400543213,distr,58016.99995994568,Fri Oct 24 2025 16:04:14 GMT-0500 (Central Daylight Time),666748.0,B,ro,I,o,91,1,299.5,666448.5,8069,WL,B,2.0
6,2.249000072479248,distr,57750.99992752075,Fri Oct 24 2025 16:04:14 GMT-0500 (Central Daylight Time),667014.8000001907,B,roc,I,c,256,1,566.3000001907349,666448.5,8069,WL,B,2.0
6,2.366000175476074,distr,57633.999824523926,Fri Oct 24 2025 16:04:14 GMT-0500 (Central Daylight Time),667131.5,B,rock,I,k,109,1,683.0,666448.5,8069,WL,B,2.0
6,2.6490001678466797,distr,57350.99983215332,Fri Oct 24 2025 16:04:14 GMT-0500 (Central Daylight Time),667414.6999998093,B,rockenter,I,enter,264,1,966.1999998092651,666448.5,8069,WL,B,2.0
6,2.81600022315979,distr,57183.99977684021,Fri Oct 24 2025 16:04:14 GMT-0500 (Central Daylight Time),667581.3000001907,B,a,I,a,148,1,166.30000019073486,667415.0,8069,WL,B,3.0
6,2.932000160217285,distr,57067.999839782715,Fri Oct 24 2025 16:04:14 GMT-0500 (Central Daylight Time),667697.9000000954,B,ar,I,r,110,1,282.90000009536743,667415.0,8069,WL,B,3.0
6,3.06600022315979,distr,56933.99977684021,Fri Oct 24 2025 16:04:14 GMT-0500 (Central Daylight Time),667831.1999998093,B,arm,I,m,121,1,416.19999980926514,667415.0,8069,WL,B,3.0
6,3.432000160217285,distr,56567.999839782715,Fri Oct 24 2025 16:04:14 GMT-0500 (Central Daylight Time),668197.5999999046,B,army,I,y,348,1,782.5999999046326,667415.0,8069,WL,B,3.0
6,3.8320000171661377,distr,56167.99998283386,Fri Oct 24 2025 16:04:14 GMT-0500 (Central Daylight Time),668597.8000001907,B,armyenter,I,enter,381,1,1182.8000001907349,667415.0,8069,WL,B,3.0
6,4.249000072479248,distr,55750.99992752075,Fri Oct 24 2025 16:04:14 GMT-0500 (Central Daylight Time),669014.1999998093,B,l,I,l,406,1,416.19999980926514,668598.0,8069,WL,B,4.0
6,4.5990002155303955,distr,55400.999784469604,Fri Oct 24 2025 16:04:14 GMT-0500 (Central Daylight Time),669364.0999999046,B,li,I,i,341,1,766.0999999046326,668598.0,8069,WL,B,4.0
6,4.699000120162964,distr,55300.999879837036,Fri Oct 24 2025 16:04:14 GMT-0500 (Central Daylight Time),669464.0999999046,B,lis,I,s,95,1,866.0999999046326,668598.0,8069,WL,B,4.0
6,4.982000112533569,distr,55017.99988746643,Fri Oct 24 2025 16:04:14 GMT-0500 (Central Daylight Time),669747.3000001907,B,list,I,t,275,1,1149.3000001907349,668598.0,8069,WL,B,4.0
6,5.398000001907349,distr,54601.99999809265,Fri Oct 24 2025 16:04:14 GMT-0500 (Central Daylight Time),670163.8000001907,B,listenter,I,enter,400,1,1565.8000001907349,668598.0,8069,WL,B,4.0
6,5.698000192642212,distr,54301.99980735779,Fri Oct 24 2025 16:04:14 GMT-0500 (Central Daylight Time),670463.5999999046,B,p,I,p,288,1,299.5,670164.0999999046,8069,WL,B,5.0
6,5.815000057220459,distr,54184.99994277954,Fri Oct 24 2025 16:04:14 GMT-0500 (Central Daylight Time),670580.1999998093,B,pa,I,a,100,1,416.09999990463257,670164.0999999046,8069,WL,B,5.0
6,5.998000144958496,distr,54001.999855041504,Fri Oct 24 2025 16:04:14 GMT-0500 (Central Daylight Time),670763.6999998093,B,pal,I,l,167,1,599.5999999046326,670164.0999999046,8069,WL,B,5.0
6,6.115000009536743,distr,53884.99999046326,Fri Oct 24 2025 16:04:14 GMT-0500 (Central Daylight Time),670880.3000001907,B,pala,I,a,103,1,716.2000002861023,670164.0999999046,8069,WL,B,5.0
6,6.430999994277954,distr,53569.000005722046,Fri Oct 24 2025 16:04:14 GMT-0500 (Central Daylight Time),671196.6999998093,B,palac,I,c,307,1,1032.5999999046326,670164.0999999046,8069,WL,B,5.0
6,7.04800009727478,distr,52951.99990272522,Fri Oct 24 2025 16:04:14 GMT-0500 (Central Daylight Time),671813.3000001907,B,palace,I,e,607,1,1649.2000002861023,670164.0999999046,8069,WL,B,5.0
6,7.5980000495910645,distr,52401.999950408936,Fri Oct 24 2025 16:04:14 GMT-0500 (Central Daylight Time),672363.3000001907,B,palaceenter,I,enter,534,1,2199.2000002861023,670164.0999999046,8069,WL,B,5.0
6,10.130000114440918,distr,49869.99988555908,Fri Oct 24 2025 16:04:14 GMT-0500 (Central Daylight Time),674895.5999999046,B,o,I,o,2512,1,2532.0,672363.5999999046,8069,WL,B,6.0
6,10.347000122070312,distr,49652.99987792969,Fri Oct 24 2025 16:04:14 GMT-0500 (Central Daylight Time),675112.1999998093,B,oc,I,c,196,1,2748.5999999046326,672363.5999999046,8069,WL,B,6.0
6,10.53000020980835,distr,49469.99979019165,Fri Oct 24 2025 16:04:14 GMT-0500 (Central Daylight Time),675295.4000000954,B,oce,I,e,171,1,2931.800000190735,672363.5999999046,8069,WL,B,6.0
6,10.647000074386597,distr,49352.9999256134,Fri Oct 24 2025 16:04:14 GMT-0500 (Central Daylight Time),675412.1999998093,B,ocea,I,a,100,1,3048.5999999046326,672363.5999999046,8069,WL,B,6.0
6,10.813000202178955,distr,49186.999797821045,Fri Oct 24 2025 16:04:14 GMT-0500 (Central Daylight Time),675578.6999998093,B,ocean,I,n,151,1,3215.0999999046326,672363.5999999046,8069,WL,B,6.0
6,11.080000162124634,distr,48919.999837875366,Fri Oct 24 2025 16:04:14 GMT-0500 (Central Daylight Time),675845.1999998093,B,oceanenter,I,enter,257,1,3481.5999999046326,672363.5999999046,8069,WL,B,6.0
6,11.396000146865845,distr,48603.999853134155,Fri Oct 24 2025 16:04:14 GMT-0500 (Central Daylight Time),676161.8000001907,B,b,I,b,310,1,316.40000009536743,675845.4000000954,8069,WL,B,7.0
6,11.580000162124634,distr,48419.999837875366,Fri Oct 24 2025 16:04:14 GMT-0500 (Central Daylight Time),676345.0,B,be,I,e,177,1,499.59999990463257,675845.4000000954,8069,WL,B,7.0
6,11.713000059127808,distr,48286.99994087219,Fri Oct 24 2025 16:04:14 GMT-0500 (Central Daylight Time),676478.4000000954,B,bea,I,a,122,1,633.0,675845.4000000954,8069,WL,B,7.0
6,11.913000106811523,distr,48086.99989318848,Fri Oct 24 2025 16:04:14 GMT-0500 (Central Daylight Time),676678.5,B,beau,I,u,189,1,833.0999999046326,675845.4000000954,8069,WL,B,7.0
6,12.080000162124634,distr,47919.999837875366,Fri Oct 24 2025 16:04:14 GMT-0500 (Central Daylight Time),676845.0,B,beaut,I,t,157,1,999.5999999046326,675845.4000000954,8069,WL,B,7.0
6,12.230000019073486,distr,47769.999980926514,Fri Oct 24 2025 16:04:14 GMT-0500 (Central Daylight Time),676994.9000000954,B,beauty,I,y,143,1,1149.5,675845.4000000954,8069,WL,B,7.0
6,12.629000186920166,distr,47370.999813079834,Fri Oct 24 2025 16:04:14 GMT-0500 (Central Daylight Time),677394.6999998093,B,beautyenter,I,enter,393,1,1549.2999997138977,675845.4000000954,8069,WL,B,7.0
6,13.34600019454956,distr,46653.99980545044,Fri Oct 24 2025 16:04:14 GMT-0500 (Central Daylight Time),678111.1999998093,B,b,I,b,705,1,716.0999999046326,677395.0999999046,8069,WL,B,8.0
6,13.77400016784668,distr,46225.99983215332,Fri Oct 24 2025 16:04:14 GMT-0500 (Central Daylight Time),678539.3000001907,B,ba,I,a,423,1,1144.2000002861023,677395.0999999046,8069,WL,B,8.0
6,13.862000226974487,distr,46137.99977302551,Fri Oct 24 2025 16:04:14 GMT-0500 (Central Daylight Time),678627.9000000954,B,bab,I,b,72,1,1232.8000001907349,677395.0999999046,8069,WL,B,8.0
6,14.328999996185303,distr,45671.0000038147,Fri Oct 24 2025 16:04:14 GMT-0500 (Central Daylight Time),679094.3000001907,B,baby,I,y,447,1,1699.2000002861023,677395.0999999046,8069,WL,B,8.0
6,14.862000226974487,distr,45137.99977302551,Fri Oct 24 2025 16:04:14 GMT-0500 (Central Daylight Time),679627.3000001907,B,babyenter,I,enter,517,1,2232.2000002861023,677395.0999999046,8069,WL,B,8.0
6,25.342000007629395,distr,34657.999992370605,Fri Oct 24 2025 16:04:14 GMT-0500 (Central Daylight Time),690107.4000000954,B,c,I,c,10472,1,10479.800000190735,679627.5999999046,8069,WL,B,9.0
6,25.52500009536743,distr,34474.99990463257,Fri Oct 24 2025 16:04:14 GMT-0500 (Central Daylight Time),690290.5999999046,B,ca,I,a,168,1,10663.0,679627.5999999046,8069,WL,B,9.0
6,25.70900011062622,distr,34290.99988937378,Fri Oct 24 2025 16:04:14 GMT-0500 (Central Daylight Time),690474.0,B,cas,I,s,177,1,10846.400000095367,679627.5999999046,8069,WL,B,9.0
6,25.95900011062622,distr,34040.99988937378,Fri Oct 24 2025 16:04:14 GMT-0500 (Central Daylight Time),690724.0,B,cast,I,t,241,1,11096.400000095367,679627.5999999046,8069,WL,B,9.0
6,26.125,distr,33875.0,Fri Oct 24 2025 16:04:14 GMT-0500 (Central Daylight Time),690890.5999999046,B,castl,I,l,159,1,11263.0,679627.5999999046,8069,WL,B,9.0
6,26.242000102996826,distr,33757.999897003174,Fri Oct 24 2025 16:04:14 GMT-0500 (Central Daylight Time),691007.1999998093,B,castle,I,e,105,1,11379.599999904633,679627.5999999046,8069,WL,B,9.0
6,27.058000087738037,distr,32941.99991226196,Fri Oct 24 2025 16:04:14 GMT-0500 (Central Daylight Time),691823.5999999046,B,castleenter,I,enter,804,1,12196.0,679627.5999999046,8069,WL,B,9.0
6,27.70800018310547,distr,32291.99981689453,Fri Oct 24 2025 16:04:14 GMT-0500 (Central Daylight Time),692473.4000000954,B,enter,I,enter,644,1,649.7000002861023,691823.6999998093,8069,WL,B,10.0
6,28.008000135421753,distr,31991.999864578247,Fri Oct 24 2025 16:04:14 GMT-0500 (Central Daylight Time),692773.3000001907,B,enter,I,enter,282,1,299.5,692473.8000001907,8069,WL,B,11.0
6,28.375,distr,31625.0,Fri Oct 24 2025 16:04:14 GMT-0500 (Central Daylight Time),693140.0,B,enter,I,enter,358,1,366.40000009536743,692773.5999999046,8069,WL,B,12.0
6,28.60800004005432,distr,31391.99995994568,Fri Oct 24 2025 16:04:14 GMT-0500 (Central Daylight Time),693373.0999999046,B,enter,I,enter,224,1,232.90000009536743,693140.1999998093,8069,WL,B,13.0
6,29.091000080108643,distr,30908.999919891357,Fri Oct 24 2025 16:04:14 GMT-0500 (Central Daylight Time),693856.0999999046,B,enter,I,enter,478,1,482.7999997138977,693373.3000001907,8069,WL,B,14.0
6,29.924000024795532,distr,30075.999975204468,Fri Oct 24 2025 16:04:14 GMT-0500 (Central Daylight Time),694689.5,B,enter,I,enter,819,1,833.0999999046326,693856.4000000954,8069,WL,B,15.0
7,0.4500000476837158,immed,59549.999952316284,Fri Oct 24 2025 16:04:14 GMT-0500 (Central Daylight Time),707935.1999998093,A,s,I,s,431,1,449.7999997138977,707485.4000000954,8069,WL,B,1.0
7,0.6830000877380371,immed,59316.99991226196,Fri Oct 24 2025 16:04:14 GMT-0500 (Central Daylight Time),708168.4000000954,A,st,I,t,227,1,683.0,707485.4000000954,8069,WL,B,1.0
7,1.0830001831054688,immed,58916.99981689453,Fri Oct 24 2025 16:04:14 GMT-0500 (Central Daylight Time),708568.1999998093,A,str,I,r,379,1,1082.7999997138977,707485.4000000954,8069,WL,B,1.0
7,1.3000001907348633,immed,58699.99980926514,Fri Oct 24 2025 16:04:14 GMT-0500 (Central Daylight Time),708784.9000000954,A,stre,I,e,211,1,1299.5,707485.4000000954,8069,WL,B,1.0
7,1.5,immed,58500.0,Fri Oct 24 2025 16:04:14 GMT-0500 (Central Daylight Time),708985.0,A,stree,I,e,186,1,1499.5999999046326,707485.4000000954,8069,WL,B,1.0
7,1.7840001583099365,immed,58215.99984169006,Fri Oct 24 2025 16:04:14 GMT-0500 (Central Daylight Time),709269.0999999046,A,street,I,t,274,1,1783.6999998092651,707485.4000000954,8069,WL,B,1.0
7,2.2829999923706055,immed,57717.000007629395,Fri Oct 24 2025 16:04:14 GMT-0500 (Central Daylight Time),709767.8000001907,A,streetenter,I,enter,485,1,2282.4000000953674,707485.4000000954,8069,WL,B,1.0
7,2.4660000801086426,immed,57533.99991989136,Fri Oct 24 2025 16:04:14 GMT-0500 (Central Daylight Time),709951.0999999046,A,w,I,w,172,1,183.0,709768.0999999046,8069,WL,B,2.0
7,2.633000135421753,immed,57366.99986457825,Fri Oct 24 2025 16:04:14 GMT-0500 (Central Daylight Time),710117.9000000954,A,wi,I,i,156,1,349.80000019073486,709768.0999999046,8069,WL,B,2.0
7,2.7820000648498535,immed,57217.99993515015,Fri Oct 24 2025 16:04:14 GMT-0500 (Central Daylight Time),710267.8000001907,A,wif,I,f,134,1,499.7000002861023,709768.0999999046,8069,WL,B,2.0
7,2.999000072479248,immed,57000.99992752075,Fri Oct 24 2025 16:04:14 GMT-0500 (Central Daylight Time),710484.6999998093,A,wife,I,e,200,1,716.5999999046326,709768.0999999046,8069,WL,B,2.0
7,3.4160001277923584,immed,56583.99987220764,Fri Oct 24 2025 16:04:14 GMT-0500 (Central Daylight Time),710901.0999999046,A,wifeenter,I,enter,399,1,1133.0,709768.0999999046,8069,WL,B,2.0
7,5.04800009727478,immed,54951.99990272522,Fri Oct 24 2025 16:04:14 GMT-0500 (Central Daylight Time),712533.8000001907,A,a,I,a,1622,1,1632.4000000953674,710901.4000000954,8069,WL,B,3.0
7,5.215000152587891,immed,54784.99984741211,Fri Oct 24 2025 16:04:14 GMT-0500 (Central Daylight Time),712700.3000001907,A,ar,I,r,157,1,1798.9000000953674,710901.4000000954,8069,WL,B,3.0
7,5.398000001907349,immed,54601.99999809265,Fri Oct 24 2025 16:04:14 GMT-0500 (Central Daylight Time),712883.6999998093,A,arm,I,m,175,1,1982.2999997138977,710901.4000000954,8069,WL,B,3.0
7,5.748000144958496,immed,54251.999855041504,Fri Oct 24 2025 16:04:14 GMT-0500 (Central Daylight Time),713233.6999998093,A,armenter,I,enter,344,1,2332.2999997138977,710901.4000000954,8069,WL,B,3.0
7,6.081000089645386,immed,53918.999910354614,Fri Oct 24 2025 16:04:14 GMT-0500 (Central Daylight Time),713566.9000000954,A,s,I,s,321,1,332.80000019073486,713234.0999999046,8069,WL,B,4.0
7,6.1650002002716064,immed,53834.99979972839,Fri Oct 24 2025 16:04:14 GMT-0500 (Central Daylight Time),713650.1999998093,A,sk,I,k,68,1,416.09999990463257,713234.0999999046,8069,WL,B,4.0
7,6.38100004196167,immed,53618.99995803833,Fri Oct 24 2025 16:04:14 GMT-0500 (Central Daylight Time),713866.6999998093,A,ski,I,i,201,1,632.5999999046326,713234.0999999046,8069,WL,B,4.0
7,6.465000152587891,immed,53534.99984741211,Fri Oct 24 2025 16:04:14 GMT-0500 (Central Daylight Time),713950.0999999046,A,skin,I,n,64,1,716.0,713234.0999999046,8069,WL,B,4.0
7,6.765000104904175,immed,53234.999895095825,Fri Oct 24 2025 16:04:14 GMT-0500 (Central Daylight Time),714250.0,A,skinenter,I,enter,286,1,1015.9000000953674,713234.0999999046,8069,WL,B,4.0
7,16.794000148773193,immed,43205.99985122681,Fri Oct 24 2025 16:04:14 GMT-0500 (Central Daylight Time),724280.0999999046,A,f,I,f,10018,1,10029.900000095367,714250.1999998093,8069,WL,B,5.0
7,16.91100001335144,immed,43088.99998664856,Fri Oct 24 2025 16:04:14 GMT-0500 (Central Daylight Time),724396.5999999046,A,fi,I,i,107,1,10146.400000095367,714250.1999998093,8069,WL,B,5.0
7,17.011000156402588,immed,42988.99984359741,Fri Oct 24 2025 16:04:14 GMT-0500 (Central Daylight Time),724496.6999998093,A,fir,I,r,87,1,10246.5,714250.1999998093,8069,WL,B,5.0
7,17.111000061035156,immed,42888.999938964844,Fri Oct 24 2025 16:04:14 GMT-0500 (Central Daylight Time),724596.6999998093,A,fire,I,e,91,1,10346.5,714250.1999998093,8069,WL,B,5.0
7,18.277000188827515,immed,41722.999811172485,Fri Oct 24 2025 16:04:14 GMT-0500 (Central Daylight Time),725763.0999999046,A,fireenter,I,enter,1150,1,11512.900000095367,714250.1999998093,8069,WL,B,5.0
7,18.677000045776367,immed,41322.99995422363,Fri Oct 24 2025 16:04:14 GMT-0500 (Central Daylight Time),726162.8000001907,A,c,I,c,389,1,399.40000009536743,725763.4000000954,8069,WL,B,6.0
7,18.844000101089478,immed,41155.99989891052,Fri Oct 24 2025 16:04:14 GMT-0500 (Central Daylight Time),726329.4000000954,A,ca,I,a,152,1,566.0,725763.4000000954,8069,WL,B,6.0
7,18.97699999809265,immed,41023.00000190735,Fri Oct 24 2025 16:04:14 GMT-0500 (Central Daylight Time),726462.5999999046,A,cai,I,i,114,1,699.1999998092651,725763.4000000954,8069,WL,B,6.0
7,19.110000133514404,immed,40889.999866485596,Fri Oct 24 2025 16:04:14 GMT-0500 (Central Daylight Time),726596.0999999046,A,cain,I,n,117,1,832.6999998092651,725763.4000000954,8069,WL,B,6.0
7,19.611000061035156,immed,40388.999938964844,Fri Oct 24 2025 16:04:14 GMT-0500 (Central Daylight Time),727096.3000001907,A,cai,I,backspace,495,1,1332.9000000953674,725763.4000000954,8069,WL,B,6.0
7,19.777000188827515,immed,40222.999811172485,Fri Oct 24 2025 16:04:14 GMT-0500 (Central Daylight Time),727262.5,A,ca,I,backspace,147,1,1499.0999999046326,725763.4000000954,8069,WL,B,6.0
7,19.927000045776367,immed,40072.99995422363,Fri Oct 24 2025 16:04:14 GMT-0500 (Central Daylight Time),727412.4000000954,A,cab,I,b,133,1,1649.0,725763.4000000954,8069,WL,B,6.0
7,20.093000173568726,immed,39906.999826431274,Fri Oct 24 2025 16:04:14 GMT-0500 (Central Daylight Time),727579.1999998093,A,cabi,I,i,159,1,1815.7999997138977,725763.4000000954,8069,WL,B,6.0
7,20.210000038146973,immed,39789.99996185303,Fri Oct 24 2025 16:04:14 GMT-0500 (Central Daylight Time),727696.1999998093,A,cabin,I,n,112,1,1932.7999997138977,725763.4000000954,8069,WL,B,6.0
7,20.759999990463257,immed,39240.00000953674,Fri Oct 24 2025 16:04:14 GMT-0500 (Central Daylight Time),728245.5999999046,A,cabinenter,I,enter,539,1,2482.199999809265,725763.4000000954,8069,WL,B,6.0
7,27.424000024795532,immed,32575.999975204468,Fri Oct 24 2025 16:04:14 GMT-0500 (Central Daylight Time),734910.3000001907,A,f,I,f,6654,1,6664.60000038147,728245.6999998093,8069,WL,B,7.0
7,27.60800004005432,immed,32391.99995994568,Fri Oct 24 2025 16:04:14 GMT-0500 (Central Daylight Time),735093.4000000954,A,fi,I,i,164,1,6847.700000286102,728245.6999998093,8069,WL,B,7.0
7,27.723999977111816,immed,32276.000022888184,Fri Oct 24 2025 16:04:14 GMT-0500 (Central Daylight Time),735210.0999999046,A,fir,I,r,102,1,6964.400000095367,728245.6999998093,8069,WL,B,7.0
7,27.874000072479248,immed,32125.999927520752,Fri Oct 24 2025 16:04:14 GMT-0500 (Central Daylight Time),735360.0,A,fire,I,e,129,1,7114.300000190735,728245.6999998093,8069,WL,B,7.0
7,28.391000032424927,immed,31608.999967575073,Fri Oct 24 2025 16:04:14 GMT-0500 (Central Daylight Time),735876.4000000954,A,fireenter,I,enter,499,1,7630.700000286102,728245.6999998093,8069,WL,B,7.0
7,28.723999977111816,immed,31276.000022888184,Fri Oct 24 2025 16:04:14 GMT-0500 (Central Daylight Time),736210.0999999046,A,p,I,p,327,1,333.40000009536743,735876.6999998093,8069,WL,B,8.0
7,28.94000005722046,immed,31059.99994277954,Fri Oct 24 2025 16:04:14 GMT-0500 (Central Daylight Time),736426.1999998093,A,pi,I,i,209,1,549.5,735876.6999998093,8069,WL,B,8.0
7,29.124000072479248,immed,30875.999927520752,Fri Oct 24 2025 16:04:14 GMT-0500 (Central Daylight Time),736609.5999999046,A,pip,I,p,177,1,732.9000000953674,735876.6999998093,8069,WL,B,8.0
7,29.34000015258789,immed,30659.99984741211,Fri Oct 24 2025 16:04:14 GMT-0500 (Central Daylight Time),736826.0999999046,A,pipe,I,e,210,1,949.4000000953674,735876.6999998093,8069,WL,B,8.0
7,30.305999994277954,immed,29694.000005722046,Fri Oct 24 2025 16:04:14 GMT-0500 (Central Daylight Time),737792.3000001907,A,pipeenter,I,enter,961,1,1915.6000003814697,735876.6999998093,8069,WL,B,8.0
7,30.77300000190735,immed,29226.99999809265,Fri Oct 24 2025 16:04:14 GMT-0500 (Central Daylight Time),738259.0999999046,A,c,I,c,451,1,466.59999990463257,737792.5,8069,WL,B,9.0
7,30.856000185012817,immed,29143.999814987183,Fri Oct 24 2025 16:04:14 GMT-0500 (Central Daylight Time),738342.3000001907,A,co,I,o,64,1,549.8000001907349,737792.5,8069,WL,B,9.0
7,30.990000009536743,immed,29009.999990463257,Fri Oct 24 2025 16:04:14 GMT-0500 (Central Daylight Time),738476.0999999046,A,coi,I,i,125,1,683.5999999046326,737792.5,8069,WL,B,9.0
7,31.157000064849854,immed,28842.999935150146,Fri Oct 24 2025 16:04:14 GMT-0500 (Central Daylight Time),738642.4000000954,A,coin,I,n,151,1,849.9000000953674,737792.5,8069,WL,B,9.0
7,31.573000192642212,immed,28426.999807357788,Fri Oct 24 2025 16:04:14 GMT-0500 (Central Daylight Time),739058.9000000954,A,coinenter,I,enter,401,1,1266.4000000953674,737792.5,8069,WL,B,9.0
7,35.57200002670288,immed,24427.99997329712,Fri Oct 24 2025 16:04:14 GMT-0500 (Central Daylight Time),743057.5999999046,A,p,I,p,3985,1,3998.4000000953674,739059.1999998093,8069,WL,B,10.0
7,35.72200012207031,immed,24277.999877929688,Fri Oct 24 2025 16:04:14 GMT-0500 (Central Daylight Time),743207.4000000954,A,pu,I,u,137,1,4148.200000286102,739059.1999998093,8069,WL,B,10.0
7,35.88800001144409,immed,24111.99998855591,Fri Oct 24 2025 16:04:14 GMT-0500 (Central Daylight Time),743374.1999998093,A,pup,I,p,148,1,4315.0,739059.1999998093,8069,WL,B,10.0
7,36.23800015449524,immed,23761.99984550476,Fri Oct 24 2025 16:04:14 GMT-0500 (Central Daylight Time),743724.0999999046,A,pupi,I,i,341,1,4664.900000095367,739059.1999998093,8069,WL,B,10.0
7,36.48800015449524,immed,23511.99984550476,Fri Oct 24 2025 16:04:14 GMT-0500 (Central Daylight Time),743974.0,A,pupil,I,l,239,1,4914.800000190735,739059.1999998093,8069,WL,B,10.0
7,36.855000019073486,immed,23144.999980926514,Fri Oct 24 2025 16:04:14 GMT-0500 (Central Daylight Time),744340.4000000954,A,pupilenter,I,enter,357,1,5281.200000286102,739059.1999998093,8069,WL,B,10.0
7,43.43600010871887,immed,16563.999891281128,Fri Oct 24 2025 16:04:14 GMT-0500 (Central Daylight Time),750922.0,A,enter,I,enter,6566,1,6581.300000190735,744340.6999998093,8069,WL,B,11.0
7,43.88600015640259,immed,16113.999843597412,Fri Oct 24 2025 16:04:14 GMT-0500 (Central Daylight Time),751371.5,A,enter,I,enter,441,1,449.0,750922.5,8069,WL,B,12.0
7,44.10199999809265,immed,15898.000001907349,Fri Oct 24 2025 16:04:14 GMT-0500 (Central Daylight Time),751588.0999999046,A,enter,I,enter,208,1,216.2999997138977,751371.8000001907,8069,WL,B,13.0
7,44.35199999809265,immed,15648.000001907349,Fri Oct 24 2025 16:04:14 GMT-0500 (Central Daylight Time),751838.1999998093,A,enter,I,enter,239,1,249.7999997138977,751588.4000000954,8069,WL,B,14.0
7,44.86900019645691,immed,15130.99980354309,Fri Oct 24 2025 16:04:14 GMT-0500 (Central Daylight Time),752354.5999999046,A,enter,I,enter,501,1,516.1999998092651,751838.4000000954,8069,WL,B,15.0
