block_c,block_dur,condition,countdown,datetime,endtime,list,multichar_response,project,response,response_time,session_number,start_end,starttime,subject_id,task,task_vers,trial
,,,,Thu May 07 2026 16:16:51 GMT-0500 (Central Daylight Time),,,,I,space,375,,,,8069,WL,C,
prac,,0,,Thu May 07 2026 16:16:51 GMT-0500 (Central Daylight Time),,NA,b,I,b,1586,,,,8069,WL,C,1.0
prac,,0,,Thu May 07 2026 16:16:51 GMT-0500 (Central Daylight Time),,NA,bo,I,o,78,,,,8069,WL,C,1.0
prac,,0,,Thu May 07 2026 16:16:51 GMT-0500 (Central Daylight Time),,NA,boo,I,o,138,,,,8069,WL,C,1.0
prac,,0,,Thu May 07 2026 16:16:51 GMT-0500 (Central Daylight Time),,NA,boos,I,s,513,,,,8069,WL,C,1.0
prac,,0,,Thu May 07 2026 16:16:51 GMT-0500 (Central Daylight Time),,NA,boost,I,t,227,,,,8069,WL,C,1.0
prac,,0,,Thu May 07 2026 16:16:51 GMT-0500 (Central Daylight Time),,NA,boostenter,I,enter,233,,,,8069,WL,C,1.0
1,0.932999849319458,learn,59067.00015068054,Thu May 07 2026 16:16:51 GMT-0500 (Central Daylight Time),93055.30000001192,A,t,I,t,914,,932.6999999880791,92122.60000002384,8069,WL,C,1.0
1,1.0339999198913574,learn,58966.00008010864,Thu May 07 2026 16:16:51 GMT-0500 (Central Daylight Time),93156.30000001192,A,to,I,o,91,,1033.699999988079,92122.60000002384,8069,WL,C,1.0
1,1.1989998817443848,learn,58801.000118255615,Thu May 07 2026 16:16:51 GMT-0500 (Central Daylight Time),93321.70000004768,A,tow,I,w,144,,1199.1000000238419,92122.60000002384,8069,WL,C,1.0
1,1.3829998970031738,learn,58617.000102996826,Thu May 07 2026 16:16:51 GMT-0500 (Central Daylight Time),93505.10000002384,A,towe,I,e,162,,1382.5,92122.60000002384,8069,WL,C,1.0
1,1.5159997940063477,learn,58484.00020599365,Thu May 07 2026 16:16:51 GMT-0500 (Central Daylight Time),93638.80000001192,A,tower,I,r,115,,1516.199999988079,92122.60000002384,8069,WL,C,1.0
1,2.0319998264312744,learn,57968.000173568726,Thu May 07 2026 16:16:51 GMT-0500 (Central Daylight Time),94154.80000001192,A,towerenter,I,enter,501,,2032.199999988079,92122.60000002384,8069,WL,C,1.0
1,2.681999921798706,learn,57318.000078201294,Thu May 07 2026 16:16:51 GMT-0500 (Central Daylight Time),94804.90000003576,A,q,I,q,634,,649.8000000119209,94155.10000002384,8069,WL,C,2.0
1,2.8989999294281006,learn,57101.0000705719,Thu May 07 2026 16:16:51 GMT-0500 (Central Daylight Time),95021.30000001192,A,qu,I,u,200,,866.1999999880791,94155.10000002384,8069,WL,C,2.0
1,3.2289998531341553,learn,56771.000146865845,Thu May 07 2026 16:16:51 GMT-0500 (Central Daylight Time),95352.0,A,que,I,e,183,,1196.8999999761581,94155.10000002384,8069,WL,C,2.0
1,3.235999822616577,learn,56764.00017738342,Thu May 07 2026 16:16:51 GMT-0500 (Central Daylight Time),95358.60000002384,A,quee,I,e,0,,1203.5,94155.10000002384,8069,WL,C,2.0
1,3.3980000019073486,learn,56601.99999809265,Thu May 07 2026 16:16:51 GMT-0500 (Central Daylight Time),95520.60000002384,A,queen,I,n,139,,1365.5,94155.10000002384,8069,WL,C,2.0
1,3.865000009536743,learn,56134.99999046326,Thu May 07 2026 16:16:51 GMT-0500 (Central Daylight Time),95987.60000002384,A,queenenter,I,enter,459,,1832.5,94155.10000002384,8069,WL,C,2.0
1,4.281999826431274,learn,55718.000173568726,Thu May 07 2026 16:16:51 GMT-0500 (Central Daylight Time),96404.30000001192,A,f,I,f,401,,416.19999998807907,95988.10000002384,8069,WL,C,3.0
1,4.431999921798706,learn,55568.000078201294,Thu May 07 2026 16:16:51 GMT-0500 (Central Daylight Time),96554.20000004768,A,fl,I,l,137,,566.1000000238419,95988.10000002384,8069,WL,C,3.0
1,5.197999954223633,learn,54802.00004577637,Thu May 07 2026 16:16:51 GMT-0500 (Central Daylight Time),97320.70000004768,A,flo,I,o,746,,1332.6000000238419,95988.10000002384,8069,WL,C,3.0
1,5.380999803543091,learn,54619.00019645691,Thu May 07 2026 16:16:51 GMT-0500 (Central Daylight Time),97503.90000003576,A,flou,I,u,164,,1515.800000011921,95988.10000002384,8069,WL,C,3.0
1,5.448999881744385,learn,54551.000118255615,Thu May 07 2026 16:16:51 GMT-0500 (Central Daylight Time),97571.5,A,flour,I,r,59,,1583.3999999761581,95988.10000002384,8069,WL,C,3.0
1,5.930999994277954,learn,54069.000005722046,Thu May 07 2026 16:16:51 GMT-0500 (Central Daylight Time),98054.0,A,flourenter,I,enter,465,,2065.899999976158,95988.10000002384,8069,WL,C,3.0
1,10.095999956130981,learn,49904.00004386902,Thu May 07 2026 16:16:51 GMT-0500 (Central Daylight Time),102218.90000003576,A,b,I,b,4158,,4164.5,98054.40000003576,8069,WL,C,4.0
1,10.212999820709229,learn,49787.00017929077,Thu May 07 2026 16:16:51 GMT-0500 (Central Daylight Time),102335.70000004768,A,bo,I,o,106,,4281.300000011921,98054.40000003576,8069,WL,C,4.0
1,10.462999820709229,learn,49537.00017929077,Thu May 07 2026 16:16:51 GMT-0500 (Central Daylight Time),102585.70000004768,A,bou,I,u,230,,4531.300000011921,98054.40000003576,8069,WL,C,4.0
1,10.479999780654907,learn,49520.00021934509,Thu May 07 2026 16:16:51 GMT-0500 (Central Daylight Time),102602.20000004768,A,bouy,I,y,0,,4547.800000011921,98054.40000003576,8069,WL,C,4.0
1,11.11299991607666,learn,48887.00008392334,Thu May 07 2026 16:16:51 GMT-0500 (Central Daylight Time),103235.40000003576,A,bou,I,backspace,619,,5181.0,98054.40000003576,8069,WL,C,4.0
1,11.44599986076355,learn,48554.00013923645,Thu May 07 2026 16:16:51 GMT-0500 (Central Daylight Time),103568.70000004768,A,bo,I,backspace,320,,5514.300000011921,98054.40000003576,8069,WL,C,4.0
1,12.128999948501587,learn,47871.00005149841,Thu May 07 2026 16:16:51 GMT-0500 (Central Daylight Time),104251.70000004768,A,boy,I,y,669,,6197.300000011921,98054.40000003576,8069,WL,C,4.0
1,12.52899980545044,learn,47471.00019454956,Thu May 07 2026 16:16:51 GMT-0500 (Central Daylight Time),104651.60000002384,A,boyenter,I,enter,392,,6597.199999988079,98054.40000003576,8069,WL,C,4.0
1,12.961999893188477,learn,47038.00010681152,Thu May 07 2026 16:16:51 GMT-0500 (Central Daylight Time),105084.80000001192,A,h,I,h,425,,432.89999997615814,104651.90000003576,8069,WL,C,5.0
1,13.378999948501587,learn,46621.00005149841,Thu May 07 2026 16:16:51 GMT-0500 (Central Daylight Time),105501.40000003576,A,ho,I,o,399,,849.5,104651.90000003576,8069,WL,C,5.0
1,13.661999940872192,learn,46338.00005912781,Thu May 07 2026 16:16:51 GMT-0500 (Central Daylight Time),105784.5,A,hom,I,m,263,,1132.5999999642372,104651.90000003576,8069,WL,C,5.0
1,13.961999893188477,learn,46038.00010681152,Thu May 07 2026 16:16:51 GMT-0500 (Central Daylight Time),106084.60000002384,A,home,I,e,292,,1432.699999988079,104651.90000003576,8069,WL,C,5.0
1,14.09499979019165,learn,45905.00020980835,Thu May 07 2026 16:16:51 GMT-0500 (Central Daylight Time),106218.10000002384,A,homeenter,I,enter,121,,1566.199999988079,104651.90000003576,8069,WL,C,5.0
1,14.311999797821045,learn,45688.000202178955,Thu May 07 2026 16:16:51 GMT-0500 (Central Daylight Time),106434.40000003576,A,s,I,s,203,,215.9000000357628,106218.5,8069,WL,C,6.0
1,14.42799997329712,learn,45572.00002670288,Thu May 07 2026 16:16:51 GMT-0500 (Central Daylight Time),106550.90000003576,A,su,I,u,98,,332.4000000357628,106218.5,8069,WL,C,6.0
1,14.577999830245972,learn,45422.00016975403,Thu May 07 2026 16:16:51 GMT-0500 (Central Daylight Time),106700.90000003576,A,sug,I,g,141,,482.4000000357628,106218.5,8069,WL,C,6.0
1,14.76199984550476,learn,45238.00015449524,Thu May 07 2026 16:16:51 GMT-0500 (Central Daylight Time),106884.5,A,suga,I,a,168,,666.0,106218.5,8069,WL,C,6.0
1,15.310999870300293,learn,44689.00012969971,Thu May 07 2026 16:16:51 GMT-0500 (Central Daylight Time),107433.90000003576,A,sugar,I,r,527,,1215.4000000357628,106218.5,8069,WL,C,6.0
1,15.644999980926514,learn,44355.000019073486,Thu May 07 2026 16:16:51 GMT-0500 (Central Daylight Time),107767.70000004768,A,sugarenter,I,enter,316,,1549.2000000476837,106218.5,8069,WL,C,6.0
1,17.043999910354614,learn,42956.000089645386,Thu May 07 2026 16:16:51 GMT-0500 (Central Daylight Time),109166.70000004768,A,c,I,c,1381,,1398.7000000476837,107768.0,8069,WL,C,7.0
1,17.110999822616577,learn,42889.00017738342,Thu May 07 2026 16:16:51 GMT-0500 (Central Daylight Time),109233.70000004768,A,co,I,o,54,,1465.7000000476837,107768.0,8069,WL,C,7.0
1,17.311999797821045,learn,42688.000202178955,Thu May 07 2026 16:16:51 GMT-0500 (Central Daylight Time),109434.30000001192,A,cor,I,r,178,,1666.300000011921,107768.0,8069,WL,C,7.0
1,17.444000005722046,learn,42555.999994277954,Thu May 07 2026 16:16:51 GMT-0500 (Central Daylight Time),109566.30000001192,A,corn,I,n,114,,1798.300000011921,107768.0,8069,WL,C,7.0
1,17.8439998626709,learn,42156.0001373291,Thu May 07 2026 16:16:51 GMT-0500 (Central Daylight Time),109966.70000004768,A,cornenter,I,enter,383,,2198.7000000476837,107768.0,8069,WL,C,7.0
1,31.52300000190735,learn,28476.99999809265,Thu May 07 2026 16:16:51 GMT-0500 (Central Daylight Time),123645.90000003576,A,b,I,b,13662,,13678.800000011921,109967.10000002384,8069,WL,C,8.0
1,31.622999906539917,learn,28377.000093460083,Thu May 07 2026 16:16:51 GMT-0500 (Central Daylight Time),123745.80000001192,A,bo,I,o,87,,13778.699999988079,109967.10000002384,8069,WL,C,8.0
1,31.906999826431274,learn,28093.000173568726,Thu May 07 2026 16:16:51 GMT-0500 (Central Daylight Time),124030.0,A,bod,I,d,276,,14062.899999976158,109967.10000002384,8069,WL,C,8.0
1,32.03999996185303,learn,27960.000038146973,Thu May 07 2026 16:16:51 GMT-0500 (Central Daylight Time),124162.20000004768,A,body,I,y,119,,14195.100000023842,109967.10000002384,8069,WL,C,8.0
1,32.388999938964844,learn,27611.000061035156,Thu May 07 2026 16:16:51 GMT-0500 (Central Daylight Time),124512.10000002384,A,bodyenter,I,enter,331,,14545.0,109967.10000002384,8069,WL,C,8.0
1,41.73699998855591,learn,18263.00001144409,Thu May 07 2026 16:16:51 GMT-0500 (Central Daylight Time),133859.20000004768,A,enter,I,enter,9332,,9346.800000011921,124512.40000003576,8069,WL,C,9.0
1,42.502999782562256,learn,17497.000217437744,Thu May 07 2026 16:16:51 GMT-0500 (Central Daylight Time),134625.70000004768,A,enter,I,enter,753,,766.0,133859.70000004768,8069,WL,C,10.0
1,42.7189998626709,learn,17281.0001373291,Thu May 07 2026 16:16:51 GMT-0500 (Central Daylight Time),134842.10000002384,A,enter,I,enter,196,,216.10000002384186,134626.0,8069,WL,C,11.0
1,43.11899995803833,learn,16881.00004196167,Thu May 07 2026 16:16:51 GMT-0500 (Central Daylight Time),135242.0,A,enter,I,enter,387,,399.5999999642372,134842.40000003576,8069,WL,C,12.0
1,43.335999965667725,learn,16664.000034332275,Thu May 07 2026 16:16:51 GMT-0500 (Central Daylight Time),135458.70000004768,A,enter,I,enter,204,,216.30000001192093,135242.40000003576,8069,WL,C,13.0
1,43.6029999256134,learn,16397.000074386597,Thu May 07 2026 16:16:51 GMT-0500 (Central Daylight Time),135725.20000004768,A,enter,I,enter,258,,266.0,135459.20000004768,8069,WL,C,14.0
1,44.085999965667725,learn,15914.000034332275,Thu May 07 2026 16:16:51 GMT-0500 (Central Daylight Time),136208.40000003576,A,enter,I,enter,472,,482.80000001192093,135725.60000002384,8069,WL,C,15.0
2,0.7330000400543213,learn,59266.99995994568,Thu May 07 2026 16:16:51 GMT-0500 (Central Daylight Time),201288.10000002384,A,s,I,s,723,,733.3000000119209,200554.80000001192,8069,WL,C,1.0
2,0.8499999046325684,learn,59150.00009536743,Thu May 07 2026 16:16:51 GMT-0500 (Central Daylight Time),201404.60000002384,A,sh,I,h,108,,849.8000000119209,200554.80000001192,8069,WL,C,1.0
2,0.9670000076293945,learn,59032.999992370605,Thu May 07 2026 16:16:51 GMT-0500 (Central Daylight Time),201521.40000003576,A,sho,I,o,105,,966.6000000238419,200554.80000001192,8069,WL,C,1.0
2,1.2000000476837158,learn,58799.999952316284,Thu May 07 2026 16:16:51 GMT-0500 (Central Daylight Time),201754.5,A,shor,I,r,220,,1199.699999988079,200554.80000001192,8069,WL,C,1.0
2,1.3510000705718994,learn,58648.9999294281,Thu May 07 2026 16:16:51 GMT-0500 (Central Daylight Time),201905.5,A,shore,I,e,139,,1350.699999988079,200554.80000001192,8069,WL,C,1.0
2,1.6499998569488525,learn,58350.00014305115,Thu May 07 2026 16:16:51 GMT-0500 (Central Daylight Time),202204.5,A,shoreenter,I,enter,283,,1649.699999988079,200554.80000001192,8069,WL,C,1.0
2,1.9500000476837158,learn,58049.999952316284,Thu May 07 2026 16:16:51 GMT-0500 (Central Daylight Time),202504.30000001192,A,n,I,n,289,,299.39999997615814,202204.90000003576,8069,WL,C,2.0
2,2.0829999446868896,learn,57917.00005531311,Thu May 07 2026 16:16:51 GMT-0500 (Central Daylight Time),202637.60000002384,A,na,I,a,117,,432.69999998807907,202204.90000003576,8069,WL,C,2.0
2,2.2330000400543213,learn,57766.99995994568,Thu May 07 2026 16:16:51 GMT-0500 (Central Daylight Time),202787.60000002384,A,nai,I,i,136,,582.6999999880791,202204.90000003576,8069,WL,C,2.0
2,2.433000087738037,learn,57566.99991226196,Thu May 07 2026 16:16:51 GMT-0500 (Central Daylight Time),202987.70000004768,A,nail,I,l,186,,782.8000000119209,202204.90000003576,8069,WL,C,2.0
2,2.7330000400543213,learn,57266.99995994568,Thu May 07 2026 16:16:51 GMT-0500 (Central Daylight Time),203287.60000002384,A,nailenter,I,enter,290,,1082.699999988079,202204.90000003576,8069,WL,C,2.0
2,3.116999864578247,learn,56883.00013542175,Thu May 07 2026 16:16:51 GMT-0500 (Central Daylight Time),203671.80000001192,A,b,I,b,373,,383.89999997615814,203287.90000003576,8069,WL,C,3.0
2,3.249000072479248,learn,56750.99992752075,Thu May 07 2026 16:16:51 GMT-0500 (Central Daylight Time),203803.80000001192,A,bo,I,o,118,,515.8999999761581,203287.90000003576,8069,WL,C,3.0
2,3.4489998817443848,learn,56551.000118255615,Thu May 07 2026 16:16:51 GMT-0500 (Central Daylight Time),204004.20000004768,A,bod,I,d,184,,716.3000000119209,203287.90000003576,8069,WL,C,3.0
2,3.5820000171661377,learn,56417.99998283386,Thu May 07 2026 16:16:51 GMT-0500 (Central Daylight Time),204137.30000001192,A,body,I,y,121,,849.3999999761581,203287.90000003576,8069,WL,C,3.0
2,3.865999937057495,learn,56134.000062942505,Thu May 07 2026 16:16:51 GMT-0500 (Central Daylight Time),204420.40000003576,A,bodyenter,I,enter,276,,1132.5,203287.90000003576,8069,WL,C,3.0
2,4.148999929428101,learn,55851.0000705719,Thu May 07 2026 16:16:51 GMT-0500 (Central Daylight Time),204703.70000004768,A,d,I,d,263,,283.10000002384186,204420.60000002384,8069,WL,C,4.0
2,4.249000072479248,learn,55750.99992752075,Thu May 07 2026 16:16:51 GMT-0500 (Central Daylight Time),204803.5,A,do,I,o,86,,382.89999997615814,204420.60000002384,8069,WL,C,4.0
2,4.48199987411499,learn,55518.00012588501,Thu May 07 2026 16:16:51 GMT-0500 (Central Daylight Time),205037.0,A,doc,I,c,226,,616.3999999761581,204420.60000002384,8069,WL,C,4.0
2,4.73199987411499,learn,55268.00012588501,Thu May 07 2026 16:16:51 GMT-0500 (Central Daylight Time),205287.0,A,doct,I,t,239,,866.3999999761581,204420.60000002384,8069,WL,C,4.0
2,4.898000001907349,learn,55101.99999809265,Thu May 07 2026 16:16:51 GMT-0500 (Central Daylight Time),205453.20000004768,A,docto,I,o,151,,1032.6000000238419,204420.60000002384,8069,WL,C,4.0
2,5.065000057220459,learn,54934.99994277954,Thu May 07 2026 16:16:51 GMT-0500 (Central Daylight Time),205620.20000004768,A,doctor,I,r,151,,1199.6000000238419,204420.60000002384,8069,WL,C,4.0
2,5.398999929428101,learn,54601.0000705719,Thu May 07 2026 16:16:51 GMT-0500 (Central Daylight Time),205953.30000001192,A,doctorenter,I,enter,313,,1532.699999988079,204420.60000002384,8069,WL,C,4.0
2,6.164999961853027,learn,53835.00003814697,Thu May 07 2026 16:16:51 GMT-0500 (Central Daylight Time),206719.70000004768,A,c,I,c,755,,766.0,205953.70000004768,8069,WL,C,5.0
2,6.315000057220459,learn,53684.99994277954,Thu May 07 2026 16:16:51 GMT-0500 (Central Daylight Time),206869.70000004768,A,ca,I,a,133,,916.0,205953.70000004768,8069,WL,C,5.0
2,6.447999954223633,learn,53552.00004577637,Thu May 07 2026 16:16:51 GMT-0500 (Central Daylight Time),207003.10000002384,A,cat,I,t,120,,1049.3999999761581,205953.70000004768,8069,WL,C,5.0
2,6.63100004196167,learn,53368.99995803833,Thu May 07 2026 16:16:51 GMT-0500 (Central Daylight Time),207186.0,A,catt,I,t,178,,1232.2999999523163,205953.70000004768,8069,WL,C,5.0
2,6.747999906539917,learn,53252.00009346008,Thu May 07 2026 16:16:51 GMT-0500 (Central Daylight Time),207302.70000004768,A,cattl,I,l,100,,1349.0,205953.70000004768,8069,WL,C,5.0
2,6.88100004196167,learn,53118.99995803833,Thu May 07 2026 16:16:51 GMT-0500 (Central Daylight Time),207436.20000004768,A,cattle,I,e,127,,1482.5,205953.70000004768,8069,WL,C,5.0
2,7.065000057220459,learn,52934.99994277954,Thu May 07 2026 16:16:51 GMT-0500 (Central Daylight Time),207619.5,A,cattleenter,I,enter,176,,1665.7999999523163,205953.70000004768,8069,WL,C,5.0
2,7.581000089645386,learn,52418.999910354614,Thu May 07 2026 16:16:51 GMT-0500 (Central Daylight Time),208135.70000004768,A,t,I,t,498,,515.8000000119209,207619.90000003576,8069,WL,C,6.0
2,7.7809998989105225,learn,52219.00010108948,Thu May 07 2026 16:16:51 GMT-0500 (Central Daylight Time),208335.80000001192,A,tw,I,w,182,,715.8999999761581,207619.90000003576,8069,WL,C,6.0
2,7.864000082015991,learn,52135.99991798401,Thu May 07 2026 16:16:51 GMT-0500 (Central Daylight Time),208419.20000004768,A,two,I,o,63,,799.3000000119209,207619.90000003576,8069,WL,C,6.0
2,8.063999891281128,learn,51936.00010871887,Thu May 07 2026 16:16:51 GMT-0500 (Central Daylight Time),208619.20000004768,A,twoe,I,e,193,,999.3000000119209,207619.90000003576,8069,WL,C,6.0
2,8.197999954223633,learn,51802.00004577637,Thu May 07 2026 16:16:51 GMT-0500 (Central Daylight Time),208752.40000003576,A,twoer,I,r,114,,1132.5,207619.90000003576,8069,WL,C,6.0
2,8.797999858856201,learn,51202.0001411438,Thu May 07 2026 16:16:51 GMT-0500 (Central Daylight Time),209352.40000003576,A,twoe,I,backspace,589,,1732.5,207619.90000003576,8069,WL,C,6.0
2,8.996999979019165,learn,51003.000020980835,Thu May 07 2026 16:16:51 GMT-0500 (Central Daylight Time),209552.20000004768,A,two,I,backspace,180,,1932.300000011921,207619.90000003576,8069,WL,C,6.0
2,9.13100004196167,learn,50868.99995803833,Thu May 07 2026 16:16:51 GMT-0500 (Central Daylight Time),209685.40000003576,A,tw,I,backspace,117,,2065.5,207619.90000003576,8069,WL,C,6.0
2,9.29699993133545,learn,50703.00006866455,Thu May 07 2026 16:16:51 GMT-0500 (Central Daylight Time),209852.10000002384,A,t,I,backspace,151,,2232.199999988079,207619.90000003576,8069,WL,C,6.0
2,9.54699993133545,learn,50453.00006866455,Thu May 07 2026 16:16:51 GMT-0500 (Central Daylight Time),210102.0,A,to,I,o,233,,2482.099999964237,207619.90000003576,8069,WL,C,6.0
2,9.846999883651733,learn,50153.00011634827,Thu May 07 2026 16:16:51 GMT-0500 (Central Daylight Time),210401.80000001192,A,tow,I,w,278,,2781.899999976158,207619.90000003576,8069,WL,C,6.0
2,10.081000089645386,learn,49918.999910354614,Thu May 07 2026 16:16:51 GMT-0500 (Central Daylight Time),210636.10000002384,A,towe,I,e,228,,3016.199999988079,207619.90000003576,8069,WL,C,6.0
2,10.197999954223633,learn,49802.00004577637,Thu May 07 2026 16:16:51 GMT-0500 (Central Daylight Time),210752.70000004768,A,tower,I,r,97,,3132.800000011921,207619.90000003576,8069,WL,C,6.0
2,10.730000019073486,learn,49269.999980926514,Thu May 07 2026 16:16:51 GMT-0500 (Central Daylight Time),211284.90000003576,A,towerenter,I,enter,524,,3665.0,207619.90000003576,8069,WL,C,6.0
2,11.129999876022339,learn,48870.00012397766,Thu May 07 2026 16:16:51 GMT-0500 (Central Daylight Time),211684.90000003576,A,w,I,w,393,,399.5,211285.40000003576,8069,WL,C,7.0
2,11.312999963760376,learn,48687.000036239624,Thu May 07 2026 16:16:51 GMT-0500 (Central Daylight Time),211868.10000002384,A,wh,I,h,175,,582.6999999880791,211285.40000003576,8069,WL,C,7.0
2,11.430000066757202,learn,48569.9999332428,Thu May 07 2026 16:16:51 GMT-0500 (Central Daylight Time),211984.60000002384,A,whe,I,e,97,,699.1999999880791,211285.40000003576,8069,WL,C,7.0
2,11.546000003814697,learn,48453.9999961853,Thu May 07 2026 16:16:51 GMT-0500 (Central Daylight Time),212101.10000002384,A,whea,I,a,109,,815.6999999880791,211285.40000003576,8069,WL,C,7.0
2,11.746999979019165,learn,48253.000020980835,Thu May 07 2026 16:16:51 GMT-0500 (Central Daylight Time),212301.30000001192,A,wheat,I,t,185,,1015.8999999761581,211285.40000003576,8069,WL,C,7.0
2,11.996999979019165,learn,48003.000020980835,Thu May 07 2026 16:16:51 GMT-0500 (Central Daylight Time),212551.30000001192,A,wheatenter,I,enter,240,,1265.8999999761581,211285.40000003576,8069,WL,C,7.0
2,12.19700002670288,learn,47802.99997329712,Thu May 07 2026 16:16:51 GMT-0500 (Central Daylight Time),212751.30000001192,A,s,I,s,189,,199.5999999642372,212551.70000004768,8069,WL,C,8.0
2,12.329999923706055,learn,47670.000076293945,Thu May 07 2026 16:16:51 GMT-0500 (Central Daylight Time),212884.40000003576,A,su,I,u,118,,332.69999998807907,212551.70000004768,8069,WL,C,8.0
2,12.503000020980835,learn,47496.999979019165,Thu May 07 2026 16:16:51 GMT-0500 (Central Daylight Time),213057.30000001192,A,sug,I,g,168,,505.5999999642372,212551.70000004768,8069,WL,C,8.0
2,12.678999900817871,learn,47321.00009918213,Thu May 07 2026 16:16:51 GMT-0500 (Central Daylight Time),213234.10000002384,A,suga,I,a,170,,682.3999999761581,212551.70000004768,8069,WL,C,8.0
2,12.895999908447266,learn,47104.000091552734,Thu May 07 2026 16:16:51 GMT-0500 (Central Daylight Time),213450.60000002384,A,sugar,I,r,210,,898.8999999761581,212551.70000004768,8069,WL,C,8.0
2,13.428999900817871,learn,46571.00009918213,Thu May 07 2026 16:16:51 GMT-0500 (Central Daylight Time),213984.0,A,sugarenter,I,enter,515,,1432.2999999523163,212551.70000004768,8069,WL,C,8.0
2,13.845999956130981,learn,46154.00004386902,Thu May 07 2026 16:16:51 GMT-0500 (Central Daylight Time),214400.60000002384,A,c,I,c,404,,416.19999998807907,213984.40000003576,8069,WL,C,9.0
2,13.979000091552734,learn,46020.999908447266,Thu May 07 2026 16:16:51 GMT-0500 (Central Daylight Time),214534.10000002384,A,co,I,o,117,,549.6999999880791,213984.40000003576,8069,WL,C,9.0
2,14.145999908447266,learn,45854.000091552734,Thu May 07 2026 16:16:51 GMT-0500 (Central Daylight Time),214700.60000002384,A,cor,I,r,159,,716.1999999880791,213984.40000003576,8069,WL,C,9.0
2,14.345999956130981,learn,45654.00004386902,Thu May 07 2026 16:16:51 GMT-0500 (Central Daylight Time),214900.60000002384,A,corn,I,n,185,,916.1999999880791,213984.40000003576,8069,WL,C,9.0
2,14.845999956130981,learn,45154.00004386902,Thu May 07 2026 16:16:51 GMT-0500 (Central Daylight Time),215400.30000001192,A,cornenter,I,enter,481,,1415.8999999761581,213984.40000003576,8069,WL,C,9.0
2,15.562000036239624,learn,44437.999963760376,Thu May 07 2026 16:16:51 GMT-0500 (Central Daylight Time),216116.80000001192,A,b,I,b,709,,716.0999999642372,215400.70000004768,8069,WL,C,10.0
2,15.779000043869019,learn,44220.99995613098,Thu May 07 2026 16:16:51 GMT-0500 (Central Daylight Time),216333.30000001192,A,be,I,e,208,,932.5999999642372,215400.70000004768,8069,WL,C,10.0
2,15.878000020980835,learn,44121.999979019165,Thu May 07 2026 16:16:51 GMT-0500 (Central Daylight Time),216433.30000001192,A,bel,I,l,88,,1032.5999999642372,215400.70000004768,8069,WL,C,10.0
2,16.027999877929688,learn,43972.00012207031,Thu May 07 2026 16:16:51 GMT-0500 (Central Daylight Time),216583.20000004768,A,bell,I,l,140,,1182.5,215400.70000004768,8069,WL,C,10.0
2,16.26200008392334,learn,43737.99991607666,Thu May 07 2026 16:16:51 GMT-0500 (Central Daylight Time),216816.5,A,bellenter,I,enter,221,,1415.7999999523163,215400.70000004768,8069,WL,C,10.0
2,18.477999925613403,learn,41522.0000743866,Thu May 07 2026 16:16:51 GMT-0500 (Central Daylight Time),219032.70000004768,A,l,I,l,2197,,2215.800000011921,216816.90000003576,8069,WL,C,11.0
2,18.628000020980835,learn,41371.999979019165,Thu May 07 2026 16:16:51 GMT-0500 (Central Daylight Time),219182.60000002384,A,le,I,e,141,,2365.699999988079,216816.90000003576,8069,WL,C,11.0
2,18.861000061035156,learn,41138.999938964844,Thu May 07 2026 16:16:51 GMT-0500 (Central Daylight Time),219415.80000001192,A,let,I,t,223,,2598.899999976158,216816.90000003576,8069,WL,C,11.0
2,19.01099991798401,learn,40989.00008201599,Thu May 07 2026 16:16:51 GMT-0500 (Central Daylight Time),219565.40000003576,A,lett,I,t,133,,2748.5,216816.90000003576,8069,WL,C,11.0
2,19.227999925613403,learn,40772.0000743866,Thu May 07 2026 16:16:51 GMT-0500 (Central Daylight Time),219782.40000003576,A,lette,I,e,207,,2965.5,216816.90000003576,8069,WL,C,11.0
2,19.310999870300293,learn,40689.00012969971,Thu May 07 2026 16:16:51 GMT-0500 (Central Daylight Time),219865.90000003576,A,letter,I,r,63,,3049.0,216816.90000003576,8069,WL,C,11.0
2,19.82699990272522,learn,40173.00009727478,Thu May 07 2026 16:16:51 GMT-0500 (Central Daylight Time),220382.20000004768,A,letterenter,I,enter,507,,3565.300000011921,216816.90000003576,8069,WL,C,11.0
2,22.592999935150146,learn,37407.00006484985,Thu May 07 2026 16:16:51 GMT-0500 (Central Daylight Time),223147.90000003576,A,q,I,q,2759,,2765.300000011921,220382.60000002384,8069,WL,C,12.0
2,23.026000022888184,learn,36973.99997711182,Thu May 07 2026 16:16:51 GMT-0500 (Central Daylight Time),223581.10000002384,A,qu,I,u,425,,3198.5,220382.60000002384,8069,WL,C,12.0
2,23.2260000705719,learn,36773.9999294281,Thu May 07 2026 16:16:51 GMT-0500 (Central Daylight Time),223781.0,A,que,I,e,192,,3398.399999976158,220382.60000002384,8069,WL,C,12.0
2,23.375999927520752,learn,36624.00007247925,Thu May 07 2026 16:16:51 GMT-0500 (Central Daylight Time),223930.60000002384,A,quee,I,e,143,,3548.0,220382.60000002384,8069,WL,C,12.0
2,23.526000022888184,learn,36473.99997711182,Thu May 07 2026 16:16:51 GMT-0500 (Central Daylight Time),224081.20000004768,A,queen,I,n,130,,3698.600000023842,220382.60000002384,8069,WL,C,12.0
2,23.89299988746643,learn,36107.00011253357,Thu May 07 2026 16:16:51 GMT-0500 (Central Daylight Time),224447.40000003576,A,queenenter,I,enter,347,,4064.800000011921,220382.60000002384,8069,WL,C,12.0
2,28.575000047683716,learn,31424.999952316284,Thu May 07 2026 16:16:51 GMT-0500 (Central Daylight Time),229129.40000003576,A,w,I,w,4669,,4681.800000011921,224447.60000002384,8069,WL,C,13.0
2,28.70799994468689,learn,31292.00005531311,Thu May 07 2026 16:16:51 GMT-0500 (Central Daylight Time),229263.0,A,wh,I,h,116,,4815.399999976158,224447.60000002384,8069,WL,C,13.0
2,28.79099988937378,learn,31209.00011062622,Thu May 07 2026 16:16:51 GMT-0500 (Central Daylight Time),229345.5,A,whe,I,e,77,,4897.899999976158,224447.60000002384,8069,WL,C,13.0
2,29.007999897003174,learn,30992.000102996826,Thu May 07 2026 16:16:51 GMT-0500 (Central Daylight Time),229562.40000003576,A,whea,I,a,212,,5114.800000011921,224447.60000002384,8069,WL,C,13.0
2,29.490999937057495,learn,30509.000062942505,Thu May 07 2026 16:16:51 GMT-0500 (Central Daylight Time),230045.70000004768,A,wheat,I,t,467,,5598.100000023842,224447.60000002384,8069,WL,C,13.0
2,29.69099998474121,learn,30309.00001525879,Thu May 07 2026 16:16:51 GMT-0500 (Central Daylight Time),230245.5,A,wheatenter,I,enter,191,,5797.899999976158,224447.60000002384,8069,WL,C,13.0
2,35.43899989128113,learn,24561.000108718872,Thu May 07 2026 16:16:51 GMT-0500 (Central Daylight Time),235993.90000003576,A,c,I,c,5736,,5748.100000023842,230245.80000001192,8069,WL,C,14.0
2,35.539000034332275,learn,24460.999965667725,Thu May 07 2026 16:16:51 GMT-0500 (Central Daylight Time),236093.80000001192,A,co,I,o,91,,5848.0,230245.80000001192,8069,WL,C,14.0
2,35.72199988365173,learn,24278.000116348267,Thu May 07 2026 16:16:51 GMT-0500 (Central Daylight Time),236277.20000004768,A,coi,I,i,176,,6031.400000035763,230245.80000001192,8069,WL,C,14.0
2,35.855000019073486,learn,24144.999980926514,Thu May 07 2026 16:16:51 GMT-0500 (Central Daylight Time),236410.30000001192,A,coin,I,n,120,,6164.5,230245.80000001192,8069,WL,C,14.0
2,36.33899998664856,learn,23661.00001335144,Thu May 07 2026 16:16:51 GMT-0500 (Central Daylight Time),236893.40000003576,A,coi,I,backspace,467,,6647.600000023842,230245.80000001192,8069,WL,C,14.0
2,36.48900008201599,learn,23510.99991798401,Thu May 07 2026 16:16:51 GMT-0500 (Central Daylight Time),237043.60000002384,A,co,I,backspace,144,,6797.800000011921,230245.80000001192,8069,WL,C,14.0
2,36.638999938964844,learn,23361.000061035156,Thu May 07 2026 16:16:51 GMT-0500 (Central Daylight Time),237193.60000002384,A,c,I,backspace,138,,6947.800000011921,230245.80000001192,8069,WL,C,14.0
2,36.787999868392944,learn,23212.000131607056,Thu May 07 2026 16:16:51 GMT-0500 (Central Daylight Time),237343.30000001192,A,,I,backspace,132,,7097.5,230245.80000001192,8069,WL,C,14.0
2,36.98900008201599,learn,23010.99991798401,Thu May 07 2026 16:16:51 GMT-0500 (Central Daylight Time),237543.60000002384,A,b,I,b,190,,7297.800000011921,230245.80000001192,8069,WL,C,14.0
2,37.138999938964844,learn,22861.000061035156,Thu May 07 2026 16:16:51 GMT-0500 (Central Daylight Time),237693.5,A,bo,I,o,134,,7447.699999988079,230245.80000001192,8069,WL,C,14.0
2,37.371999979019165,learn,22628.000020980835,Thu May 07 2026 16:16:51 GMT-0500 (Central Daylight Time),237926.5,A,boy,I,y,215,,7680.699999988079,230245.80000001192,8069,WL,C,14.0
2,37.855000019073486,learn,22144.999980926514,Thu May 07 2026 16:16:51 GMT-0500 (Central Daylight Time),238410.0,A,boyenter,I,enter,471,,8164.199999988079,230245.80000001192,8069,WL,C,14.0
2,38.82099986076355,learn,21179.00013923645,Thu May 07 2026 16:16:51 GMT-0500 (Central Daylight Time),239376.30000001192,A,enter,I,enter,947,,965.8999999761581,238410.40000003576,8069,WL,C,15.0
3,0.5169999599456787,learn,59483.00004005432,Thu May 07 2026 16:16:51 GMT-0500 (Central Daylight Time),305072.3000000119,A,c,I,c,507,,516.5999999642372,304555.7000000477,8069,WL,C,1.0
3,0.9170000553131104,learn,59082.99994468689,Thu May 07 2026 16:16:51 GMT-0500 (Central Daylight Time),305472.40000003576,A,ca,I,a,380,,916.6999999880791,304555.7000000477,8069,WL,C,1.0
3,1.0339999198913574,learn,58966.00008010864,Thu May 07 2026 16:16:51 GMT-0500 (Central Daylight Time),305588.8000000119,A,cat,I,t,101,,1033.0999999642372,304555.7000000477,8069,WL,C,1.0
3,1.2349998950958252,learn,58765.000104904175,Thu May 07 2026 16:16:51 GMT-0500 (Central Daylight Time),305789.8000000119,A,catt,I,t,184,,1234.0999999642372,304555.7000000477,8069,WL,C,1.0
3,1.3999998569488525,learn,58600.00014305115,Thu May 07 2026 16:16:51 GMT-0500 (Central Daylight Time),305955.5,A,cattl,I,l,152,,1399.7999999523163,304555.7000000477,8069,WL,C,1.0
3,1.566999912261963,learn,58433.00008773804,Thu May 07 2026 16:16:51 GMT-0500 (Central Daylight Time),306121.8000000119,A,cattle,I,e,154,,1566.0999999642372,304555.7000000477,8069,WL,C,1.0
3,1.9830000400543213,learn,58016.99995994568,Thu May 07 2026 16:16:51 GMT-0500 (Central Daylight Time),306538.2000000477,A,cattleenter,I,enter,411,,1982.5,304555.7000000477,8069,WL,C,1.0
3,3.4170000553131104,learn,56582.99994468689,Thu May 07 2026 16:16:51 GMT-0500 (Central Daylight Time),307971.5,A,h,I,h,1427,,1433.0,306538.5,8069,WL,C,2.0
3,3.5329999923706055,learn,56467.000007629395,Thu May 07 2026 16:16:51 GMT-0500 (Central Daylight Time),308088.10000002384,A,ho,I,o,105,,1549.6000000238419,306538.5,8069,WL,C,2.0
3,3.7660000324249268,learn,56233.99996757507,Thu May 07 2026 16:16:51 GMT-0500 (Central Daylight Time),308321.5,A,hom,I,m,222,,1783.0,306538.5,8069,WL,C,2.0
3,3.9159998893737793,learn,56084.00011062622,Thu May 07 2026 16:16:51 GMT-0500 (Central Daylight Time),308471.40000003576,A,home,I,e,140,,1932.9000000357628,306538.5,8069,WL,C,2.0
3,4.08299994468689,learn,55917.00005531311,Thu May 07 2026 16:16:51 GMT-0500 (Central Daylight Time),308637.8000000119,A,homeenter,I,enter,157,,2099.300000011921,306538.5,8069,WL,C,2.0
3,4.299999952316284,learn,55700.000047683716,Thu May 07 2026 16:16:51 GMT-0500 (Central Daylight Time),308854.60000002384,A,b,I,b,208,,216.39999997615814,308638.2000000477,8069,WL,C,3.0
3,4.483000040054321,learn,55516.99995994568,Thu May 07 2026 16:16:51 GMT-0500 (Central Daylight Time),309037.8000000119,A,bo,I,o,175,,399.5999999642372,308638.2000000477,8069,WL,C,3.0
3,4.716000080108643,learn,55283.99991989136,Thu May 07 2026 16:16:51 GMT-0500 (Central Daylight Time),309270.90000003576,A,bod,I,d,215,,632.6999999880791,308638.2000000477,8069,WL,C,3.0
3,4.983000040054321,learn,55016.99995994568,Thu May 07 2026 16:16:51 GMT-0500 (Central Daylight Time),309537.60000002384,A,body,I,y,255,,899.3999999761581,308638.2000000477,8069,WL,C,3.0
3,5.249000072479248,learn,54750.99992752075,Thu May 07 2026 16:16:51 GMT-0500 (Central Daylight Time),309804.2000000477,A,bodyenter,I,enter,252,,1166.0,308638.2000000477,8069,WL,C,3.0
3,5.516000032424927,learn,54483.99996757507,Thu May 07 2026 16:16:51 GMT-0500 (Central Daylight Time),310070.60000002384,A,w,I,w,248,,266.10000002384186,309804.5,8069,WL,C,4.0
3,5.665999889373779,learn,54334.00011062622,Thu May 07 2026 16:16:51 GMT-0500 (Central Daylight Time),310220.7000000477,A,wh,I,h,143,,416.2000000476837,309804.5,8069,WL,C,4.0
3,5.7820000648498535,learn,54217.99993515015,Thu May 07 2026 16:16:51 GMT-0500 (Central Daylight Time),310337.10000002384,A,whe,I,e,105,,532.6000000238419,309804.5,8069,WL,C,4.0
3,5.915999889373779,learn,54084.00011062622,Thu May 07 2026 16:16:51 GMT-0500 (Central Daylight Time),310470.60000002384,A,whea,I,a,116,,666.1000000238419,309804.5,8069,WL,C,4.0
3,6.082000017166138,learn,53917.99998283386,Thu May 07 2026 16:16:51 GMT-0500 (Central Daylight Time),310637.3000000119,A,wheat,I,t,151,,832.8000000119209,309804.5,8069,WL,C,4.0
3,6.414999961853027,learn,53585.00003814697,Thu May 07 2026 16:16:51 GMT-0500 (Central Daylight Time),310970.40000003576,A,wheatenter,I,enter,319,,1165.9000000357628,309804.5,8069,WL,C,4.0
3,6.698999881744385,learn,53301.000118255615,Thu May 07 2026 16:16:51 GMT-0500 (Central Daylight Time),311253.5,A,c,I,c,267,,282.89999997615814,310970.60000002384,8069,WL,C,5.0
3,6.797999858856201,learn,53202.0001411438,Thu May 07 2026 16:16:51 GMT-0500 (Central Daylight Time),311353.5,A,co,I,o,79,,382.89999997615814,310970.60000002384,8069,WL,C,5.0
3,6.98199987411499,learn,53018.00012588501,Thu May 07 2026 16:16:51 GMT-0500 (Central Daylight Time),311536.90000003576,A,cor,I,r,164,,566.3000000119209,310970.60000002384,8069,WL,C,5.0
3,7.0980000495910645,learn,52901.999950408936,Thu May 07 2026 16:16:51 GMT-0500 (Central Daylight Time),311653.40000003576,A,corn,I,n,101,,682.8000000119209,310970.60000002384,8069,WL,C,5.0
3,7.332000017166138,learn,52667.99998283386,Thu May 07 2026 16:16:51 GMT-0500 (Central Daylight Time),311887.0,A,cornenter,I,enter,216,,916.3999999761581,310970.60000002384,8069,WL,C,5.0
3,7.514999866485596,learn,52485.000133514404,Thu May 07 2026 16:16:51 GMT-0500 (Central Daylight Time),312070.2000000477,A,s,I,s,175,,182.80000001192093,311887.40000003576,8069,WL,C,6.0
3,7.648000001907349,learn,52351.99999809265,Thu May 07 2026 16:16:51 GMT-0500 (Central Daylight Time),312203.3000000119,A,su,I,u,126,,315.89999997615814,311887.40000003576,8069,WL,C,6.0
3,7.832000017166138,learn,52167.99998283386,Thu May 07 2026 16:16:51 GMT-0500 (Central Daylight Time),312386.5,A,sug,I,g,170,,499.0999999642372,311887.40000003576,8069,WL,C,6.0
3,8.332000017166138,learn,51667.99998283386,Thu May 07 2026 16:16:51 GMT-0500 (Central Daylight Time),312886.5,A,suga,I,a,483,,999.0999999642372,311887.40000003576,8069,WL,C,6.0
3,8.48199987411499,learn,51518.00012588501,Thu May 07 2026 16:16:51 GMT-0500 (Central Daylight Time),313037.40000003576,A,sugar,I,r,143,,1150.0,311887.40000003576,8069,WL,C,6.0
3,8.797999858856201,learn,51202.0001411438,Thu May 07 2026 16:16:51 GMT-0500 (Central Daylight Time),313353.3000000119,A,sugarenter,I,enter,304,,1465.8999999761581,311887.40000003576,8069,WL,C,6.0
3,9.23199987411499,learn,50768.00012588501,Thu May 07 2026 16:16:51 GMT-0500 (Central Daylight Time),313786.5,A,q,I,q,419,,432.89999997615814,313353.60000002384,8069,WL,C,7.0
3,9.38100004196167,learn,50618.99995803833,Thu May 07 2026 16:16:51 GMT-0500 (Central Daylight Time),313936.2000000477,A,qu,I,u,139,,582.6000000238419,313353.60000002384,8069,WL,C,7.0
3,9.530999898910522,learn,50469.00010108948,Thu May 07 2026 16:16:51 GMT-0500 (Central Daylight Time),314086.10000002384,A,que,I,e,133,,732.5,313353.60000002384,8069,WL,C,7.0
3,9.648000001907349,learn,50351.99999809265,Thu May 07 2026 16:16:51 GMT-0500 (Central Daylight Time),314202.8000000119,A,quee,I,e,111,,849.1999999880791,313353.60000002384,8069,WL,C,7.0
3,9.780999898910522,learn,50219.00010108948,Thu May 07 2026 16:16:51 GMT-0500 (Central Daylight Time),314336.5,A,queen,I,n,115,,982.8999999761581,313353.60000002384,8069,WL,C,7.0
3,10.21399998664856,learn,49786.00001335144,Thu May 07 2026 16:16:51 GMT-0500 (Central Daylight Time),314769.2000000477,A,queenenter,I,enter,412,,1415.6000000238419,313353.60000002384,8069,WL,C,7.0
3,10.813999891281128,learn,49186.00010871887,Thu May 07 2026 16:16:51 GMT-0500 (Central Daylight Time),315369.10000002384,A,t,I,t,587,,599.6000000238419,314769.5,8069,WL,C,8.0
3,10.930999994277954,learn,49069.000005722046,Thu May 07 2026 16:16:51 GMT-0500 (Central Daylight Time),315485.60000002384,A,to,I,o,100,,716.1000000238419,314769.5,8069,WL,C,8.0
3,11.030999898910522,learn,48969.00010108948,Thu May 07 2026 16:16:51 GMT-0500 (Central Daylight Time),315585.8000000119,A,tow,I,w,88,,816.3000000119209,314769.5,8069,WL,C,8.0
3,11.263999938964844,learn,48736.000061035156,Thu May 07 2026 16:16:51 GMT-0500 (Central Daylight Time),315819.3000000119,A,towe,I,e,211,,1049.800000011921,314769.5,8069,WL,C,8.0
3,11.397000074386597,learn,48602.9999256134,Thu May 07 2026 16:16:51 GMT-0500 (Central Daylight Time),315952.2000000477,A,tower,I,r,114,,1182.7000000476837,314769.5,8069,WL,C,8.0
3,11.813999891281128,learn,48186.00010871887,Thu May 07 2026 16:16:51 GMT-0500 (Central Daylight Time),316368.7000000477,A,towerenter,I,enter,397,,1599.2000000476837,314769.5,8069,WL,C,8.0
3,16.67899990081787,learn,43321.00009918213,Thu May 07 2026 16:16:51 GMT-0500 (Central Daylight Time),321233.8000000119,A,b,I,b,4853,,4864.699999988079,316369.10000002384,8069,WL,C,9.0
3,16.746000051498413,learn,43253.99994850159,Thu May 07 2026 16:16:51 GMT-0500 (Central Daylight Time),321300.5,A,bo,I,o,60,,4931.399999976158,316369.10000002384,8069,WL,C,9.0
3,17.01200008392334,learn,42987.99991607666,Thu May 07 2026 16:16:51 GMT-0500 (Central Daylight Time),321567.0,A,boy,I,y,257,,5197.899999976158,316369.10000002384,8069,WL,C,9.0
3,17.42899990081787,learn,42571.00009918213,Thu May 07 2026 16:16:51 GMT-0500 (Central Daylight Time),321983.8000000119,A,boyenter,I,enter,399,,5614.699999988079,316369.10000002384,8069,WL,C,9.0
3,18.361999988555908,learn,41638.00001144409,Thu May 07 2026 16:16:51 GMT-0500 (Central Daylight Time),322916.8000000119,A,l,I,l,917,,932.6999999880791,321984.10000002384,8069,WL,C,10.0
3,18.545000076293945,learn,41454.999923706055,Thu May 07 2026 16:16:51 GMT-0500 (Central Daylight Time),323100.10000002384,A,le,I,e,176,,1116.0,321984.10000002384,8069,WL,C,10.0
3,18.76200008392334,learn,41237.99991607666,Thu May 07 2026 16:16:51 GMT-0500 (Central Daylight Time),323316.7000000477,A,let,I,t,202,,1332.6000000238419,321984.10000002384,8069,WL,C,10.0
3,18.91100001335144,learn,41088.99998664856,Thu May 07 2026 16:16:51 GMT-0500 (Central Daylight Time),323466.5,A,lett,I,t,145,,1482.3999999761581,321984.10000002384,8069,WL,C,10.0
3,19.111000061035156,learn,40888.999938964844,Thu May 07 2026 16:16:51 GMT-0500 (Central Daylight Time),323666.3000000119,A,lette,I,e,194,,1682.199999988079,321984.10000002384,8069,WL,C,10.0
3,19.210999965667725,learn,40789.000034332275,Thu May 07 2026 16:16:51 GMT-0500 (Central Daylight Time),323766.3000000119,A,letter,I,r,84,,1782.199999988079,321984.10000002384,8069,WL,C,10.0
3,19.513000011444092,learn,40486.99998855591,Thu May 07 2026 16:16:51 GMT-0500 (Central Daylight Time),324067.60000002384,A,letterenter,I,enter,295,,2083.5,321984.10000002384,8069,WL,C,10.0
3,20.027999877929688,learn,39972.00012207031,Thu May 07 2026 16:16:51 GMT-0500 (Central Daylight Time),324582.90000003576,A,d,I,d,506,,514.9000000357628,324068.0,8069,WL,C,11.0
3,20.128000020980835,learn,39871.999979019165,Thu May 07 2026 16:16:51 GMT-0500 (Central Daylight Time),324682.60000002384,A,do,I,o,94,,614.6000000238419,324068.0,8069,WL,C,11.0
3,20.361000061035156,learn,39638.999938964844,Thu May 07 2026 16:16:51 GMT-0500 (Central Daylight Time),324915.8000000119,A,doc,I,c,227,,847.8000000119209,324068.0,8069,WL,C,11.0
3,20.5939998626709,learn,39406.0001373291,Thu May 07 2026 16:16:51 GMT-0500 (Central Daylight Time),325149.3000000119,A,doct,I,t,226,,1081.300000011921,324068.0,8069,WL,C,11.0
3,20.74399995803833,learn,39256.00004196167,Thu May 07 2026 16:16:51 GMT-0500 (Central Daylight Time),325299.2000000477,A,docto,I,o,144,,1231.2000000476837,324068.0,8069,WL,C,11.0
3,20.878000020980835,learn,39121.999979019165,Thu May 07 2026 16:16:51 GMT-0500 (Central Daylight Time),325432.7000000477,A,doctor,I,r,115,,1364.7000000476837,324068.0,8069,WL,C,11.0
3,21.161999940872192,learn,38838.00005912781,Thu May 07 2026 16:16:51 GMT-0500 (Central Daylight Time),325716.8000000119,A,doctorenter,I,enter,277,,1648.800000011921,324068.0,8069,WL,C,11.0
3,27.875999927520752,learn,32124.000072479248,Thu May 07 2026 16:16:51 GMT-0500 (Central Daylight Time),332430.60000002384,A,n,I,n,6705,,6713.399999976158,325717.2000000477,8069,WL,C,12.0
3,28.024999856948853,learn,31975.000143051147,Thu May 07 2026 16:16:51 GMT-0500 (Central Daylight Time),332580.5,A,na,I,a,133,,6863.299999952316,325717.2000000477,8069,WL,C,12.0
3,28.174999952316284,learn,31825.000047683716,Thu May 07 2026 16:16:51 GMT-0500 (Central Daylight Time),332730.5,A,nai,I,i,145,,7013.299999952316,325717.2000000477,8069,WL,C,12.0
3,28.39299988746643,learn,31607.00011253357,Thu May 07 2026 16:16:51 GMT-0500 (Central Daylight Time),332947.90000003576,A,nail,I,l,211,,7230.699999988079,325717.2000000477,8069,WL,C,12.0
3,28.875,learn,31125.0,Thu May 07 2026 16:16:51 GMT-0500 (Central Daylight Time),333430.0,A,nailenter,I,enter,474,,7712.799999952316,325717.2000000477,8069,WL,C,12.0
3,34.65700006484985,learn,25342.999935150146,Thu May 07 2026 16:16:51 GMT-0500 (Central Daylight Time),339211.7000000477,A,b,I,b,5776,,5781.300000011921,333430.40000003576,8069,WL,C,13.0
3,34.77300000190735,learn,25226.99999809265,Thu May 07 2026 16:16:51 GMT-0500 (Central Daylight Time),339328.3000000119,A,bo,I,o,97,,5897.899999976158,333430.40000003576,8069,WL,C,13.0
3,34.99000000953674,learn,25009.999990463257,Thu May 07 2026 16:16:51 GMT-0500 (Central Daylight Time),339544.7000000477,A,bod,I,d,205,,6114.300000011921,333430.40000003576,8069,WL,C,13.0
3,35.19000005722046,learn,24809.99994277954,Thu May 07 2026 16:16:51 GMT-0500 (Central Daylight Time),339744.7000000477,A,body,I,y,180,,6314.300000011921,333430.40000003576,8069,WL,C,13.0
3,35.78999996185303,learn,24210.000038146973,Thu May 07 2026 16:16:51 GMT-0500 (Central Daylight Time),340344.7000000477,A,bodyenter,I,enter,588,,6914.300000011921,333430.40000003576,8069,WL,C,13.0
3,47.835999965667725,learn,12164.000034332275,Thu May 07 2026 16:16:51 GMT-0500 (Central Daylight Time),352390.90000003576,A,s,I,s,12037,,12045.900000035763,340345.0,8069,WL,C,14.0
3,47.95199990272522,learn,12048.00009727478,Thu May 07 2026 16:16:51 GMT-0500 (Central Daylight Time),352507.5,A,sh,I,h,102,,12162.5,340345.0,8069,WL,C,14.0
3,48.01900005340576,learn,11980.999946594238,Thu May 07 2026 16:16:51 GMT-0500 (Central Daylight Time),352574.2000000477,A,sho,I,o,58,,12229.200000047684,340345.0,8069,WL,C,14.0
3,48.2189998626709,learn,11781.000137329102,Thu May 07 2026 16:16:51 GMT-0500 (Central Daylight Time),352774.0,A,shor,I,r,191,,12429.0,340345.0,8069,WL,C,14.0
3,48.569000005722046,learn,11430.999994277954,Thu May 07 2026 16:16:51 GMT-0500 (Central Daylight Time),353124.0,A,shore,I,e,336,,12779.0,340345.0,8069,WL,C,14.0
3,48.736000061035156,learn,11263.999938964844,Thu May 07 2026 16:16:51 GMT-0500 (Central Daylight Time),353290.5,A,shoreenter,I,enter,154,,12945.5,340345.0,8069,WL,C,14.0
3,50.46799993515015,learn,9532.000064849854,Thu May 07 2026 16:16:51 GMT-0500 (Central Daylight Time),355023.3000000119,A,enter,I,enter,1715,,1732.5,353290.8000000119,8069,WL,C,15.0
4,0.7160000801086426,learn,59283.99991989136,Thu May 07 2026 16:16:51 GMT-0500 (Central Daylight Time),421469.3000000119,A,c,I,c,709,,716.3000000119209,420753.0,8069,WL,C,1.0
4,0.8659999370574951,learn,59134.000062942505,Thu May 07 2026 16:16:51 GMT-0500 (Central Daylight Time),421619.0,A,ca,I,a,144,,866.0,420753.0,8069,WL,C,1.0
4,1.065999984741211,learn,58934.00001525879,Thu May 07 2026 16:16:51 GMT-0500 (Central Daylight Time),421819.3000000119,A,cat,I,t,185,,1066.300000011921,420753.0,8069,WL,C,1.0
4,1.2160000801086426,learn,58783.99991989136,Thu May 07 2026 16:16:51 GMT-0500 (Central Daylight Time),421969.0,A,catt,I,t,138,,1216.0,420753.0,8069,WL,C,1.0
4,1.3989999294281006,learn,58601.0000705719,Thu May 07 2026 16:16:51 GMT-0500 (Central Daylight Time),422152.2000000477,A,cattl,I,l,165,,1399.2000000476837,420753.0,8069,WL,C,1.0
4,1.499000072479248,learn,58500.99992752075,Thu May 07 2026 16:16:51 GMT-0500 (Central Daylight Time),422252.3000000119,A,cattle,I,e,93,,1499.300000011921,420753.0,8069,WL,C,1.0
4,2.5320000648498535,learn,57467.99993515015,Thu May 07 2026 16:16:51 GMT-0500 (Central Daylight Time),423285.40000003576,A,cattleenter,I,enter,1025,,2532.400000035763,420753.0,8069,WL,C,1.0
4,2.9149999618530273,learn,57085.00003814697,Thu May 07 2026 16:16:51 GMT-0500 (Central Daylight Time),423668.7000000477,A,s,I,s,368,,383.10000002384186,423285.60000002384,8069,WL,C,2.0
4,3.0490000247955322,learn,56950.99997520447,Thu May 07 2026 16:16:51 GMT-0500 (Central Daylight Time),423801.7000000477,A,sh,I,h,120,,516.1000000238419,423285.60000002384,8069,WL,C,2.0
4,3.181999921798706,learn,56818.000078201294,Thu May 07 2026 16:16:51 GMT-0500 (Central Daylight Time),423935.3000000119,A,sho,I,o,124,,649.6999999880791,423285.60000002384,8069,WL,C,2.0
4,3.2990000247955322,learn,56700.99997520447,Thu May 07 2026 16:16:51 GMT-0500 (Central Daylight Time),424051.8000000119,A,shor,I,r,102,,766.1999999880791,423285.60000002384,8069,WL,C,2.0
4,3.7149999141693115,learn,56285.00008583069,Thu May 07 2026 16:16:51 GMT-0500 (Central Daylight Time),424468.2000000477,A,shore,I,e,410,,1182.6000000238419,423285.60000002384,8069,WL,C,2.0
4,3.881999969482422,learn,56118.00003051758,Thu May 07 2026 16:16:51 GMT-0500 (Central Daylight Time),424635.0,A,shoreenter,I,enter,146,,1349.3999999761581,423285.60000002384,8069,WL,C,2.0
4,4.131999969482422,learn,55868.00003051758,Thu May 07 2026 16:16:51 GMT-0500 (Central Daylight Time),424884.90000003576,A,b,I,b,243,,249.60000002384186,424635.3000000119,8069,WL,C,3.0
4,4.361999988555908,learn,55638.00001144409,Thu May 07 2026 16:16:51 GMT-0500 (Central Daylight Time),425114.7000000477,A,bo,I,o,225,,479.4000000357628,424635.3000000119,8069,WL,C,3.0
4,4.509000062942505,learn,55490.999937057495,Thu May 07 2026 16:16:51 GMT-0500 (Central Daylight Time),425261.90000003576,A,bod,I,d,143,,626.6000000238419,424635.3000000119,8069,WL,C,3.0
4,4.615000009536743,learn,55384.99999046326,Thu May 07 2026 16:16:51 GMT-0500 (Central Daylight Time),425367.7000000477,A,body,I,y,96,,732.4000000357628,424635.3000000119,8069,WL,C,3.0
4,4.982000112533569,learn,55017.99988746643,Thu May 07 2026 16:16:51 GMT-0500 (Central Daylight Time),425734.7000000477,A,bodyenter,I,enter,348,,1099.4000000357628,424635.3000000119,8069,WL,C,3.0
4,5.315000057220459,learn,54684.99994277954,Thu May 07 2026 16:16:51 GMT-0500 (Central Daylight Time),426067.8000000119,A,n,I,n,326,,332.69999998807907,425735.10000002384,8069,WL,C,4.0
4,5.447999954223633,learn,54552.00004577637,Thu May 07 2026 16:16:51 GMT-0500 (Central Daylight Time),426201.2000000477,A,na,I,a,113,,466.10000002384186,425735.10000002384,8069,WL,C,4.0
4,5.565000057220459,learn,54434.99994277954,Thu May 07 2026 16:16:51 GMT-0500 (Central Daylight Time),426317.90000003576,A,nai,I,i,108,,582.8000000119209,425735.10000002384,8069,WL,C,4.0
4,5.730999946594238,learn,54269.00005340576,Thu May 07 2026 16:16:51 GMT-0500 (Central Daylight Time),426484.5,A,nail,I,l,160,,749.3999999761581,425735.10000002384,8069,WL,C,4.0
4,5.997999906539917,learn,54002.00009346008,Thu May 07 2026 16:16:51 GMT-0500 (Central Daylight Time),426750.8000000119,A,nailenter,I,enter,249,,1015.6999999880791,425735.10000002384,8069,WL,C,4.0
4,6.281000137329102,learn,53718.9998626709,Thu May 07 2026 16:16:51 GMT-0500 (Central Daylight Time),427034.2000000477,A,l,I,l,271,,283.10000002384186,426751.10000002384,8069,WL,C,5.0
4,6.398000001907349,learn,53601.99999809265,Thu May 07 2026 16:16:51 GMT-0500 (Central Daylight Time),427150.8000000119,A,le,I,e,107,,399.69999998807907,426751.10000002384,8069,WL,C,5.0
4,6.648000001907349,learn,53351.99999809265,Thu May 07 2026 16:16:51 GMT-0500 (Central Daylight Time),427400.8000000119,A,let,I,t,239,,649.6999999880791,426751.10000002384,8069,WL,C,5.0
4,6.781000137329102,learn,53218.9998626709,Thu May 07 2026 16:16:51 GMT-0500 (Central Daylight Time),427533.90000003576,A,lett,I,t,125,,782.8000000119209,426751.10000002384,8069,WL,C,5.0
4,6.980999946594238,learn,53019.00005340576,Thu May 07 2026 16:16:51 GMT-0500 (Central Daylight Time),427734.10000002384,A,lette,I,e,191,,983.0,426751.10000002384,8069,WL,C,5.0
4,7.064000129699707,learn,52935.99987030029,Thu May 07 2026 16:16:51 GMT-0500 (Central Daylight Time),427817.3000000119,A,letter,I,r,71,,1066.199999988079,426751.10000002384,8069,WL,C,5.0
4,7.180999994277954,learn,52819.000005722046,Thu May 07 2026 16:16:51 GMT-0500 (Central Daylight Time),427933.7000000477,A,letterenter,I,enter,108,,1182.6000000238419,426751.10000002384,8069,WL,C,5.0
4,7.5970001220703125,learn,52402.99987792969,Thu May 07 2026 16:16:51 GMT-0500 (Central Daylight Time),428350.3000000119,A,b,I,b,408,,416.19999998807907,427934.10000002384,8069,WL,C,6.0
4,7.680999994277954,learn,52319.000005722046,Thu May 07 2026 16:16:51 GMT-0500 (Central Daylight Time),428433.8000000119,A,bo,I,o,79,,499.69999998807907,427934.10000002384,8069,WL,C,6.0
4,7.914000034332275,learn,52085.999965667725,Thu May 07 2026 16:16:51 GMT-0500 (Central Daylight Time),428667.10000002384,A,boy,I,y,220,,733.0,427934.10000002384,8069,WL,C,6.0
4,8.52999997138977,learn,51470.00002861023,Thu May 07 2026 16:16:51 GMT-0500 (Central Daylight Time),429283.40000003576,A,boyenter,I,enter,603,,1349.300000011921,427934.10000002384,8069,WL,C,6.0
4,9.02999997138977,learn,50970.00002861023,Thu May 07 2026 16:16:51 GMT-0500 (Central Daylight Time),429783.3000000119,A,d,I,d,482,,499.5,429283.8000000119,8069,WL,C,7.0
4,9.130000114440918,learn,50869.99988555908,Thu May 07 2026 16:16:51 GMT-0500 (Central Daylight Time),429883.2000000477,A,do,I,o,86,,599.4000000357628,429283.8000000119,8069,WL,C,7.0
4,9.36299991607666,learn,50637.00008392334,Thu May 07 2026 16:16:51 GMT-0500 (Central Daylight Time),430116.2000000477,A,doc,I,c,217,,832.4000000357628,429283.8000000119,8069,WL,C,7.0
4,9.630000114440918,learn,50369.99988555908,Thu May 07 2026 16:16:51 GMT-0500 (Central Daylight Time),430382.90000003576,A,doct,I,t,257,,1099.1000000238419,429283.8000000119,8069,WL,C,7.0
4,9.713000059127808,learn,50286.99994087219,Thu May 07 2026 16:16:51 GMT-0500 (Central Daylight Time),430466.3000000119,A,docto,I,o,78,,1182.5,429283.8000000119,8069,WL,C,7.0
4,9.847000122070312,learn,50152.99987792969,Thu May 07 2026 16:16:51 GMT-0500 (Central Daylight Time),430599.7000000477,A,doctor,I,r,123,,1315.9000000357628,429283.8000000119,8069,WL,C,7.0
4,10.130000114440918,learn,49869.99988555908,Thu May 07 2026 16:16:51 GMT-0500 (Central Daylight Time),430883.0,A,doctorenter,I,enter,270,,1599.199999988079,429283.8000000119,8069,WL,C,7.0
4,11.61299991607666,learn,48387.00008392334,Thu May 07 2026 16:16:51 GMT-0500 (Central Daylight Time),432366.0,A,c,I,c,1467,,1482.699999988079,430883.3000000119,8069,WL,C,8.0
4,11.713000059127808,learn,48286.99994087219,Thu May 07 2026 16:16:51 GMT-0500 (Central Daylight Time),432465.7000000477,A,co,I,o,87,,1582.4000000357628,430883.3000000119,8069,WL,C,8.0
4,11.878999948501587,learn,48121.00005149841,Thu May 07 2026 16:16:51 GMT-0500 (Central Daylight Time),432632.2000000477,A,cor,I,r,148,,1748.9000000357628,430883.3000000119,8069,WL,C,8.0
4,11.996000051498413,learn,48003.99994850159,Thu May 07 2026 16:16:51 GMT-0500 (Central Daylight Time),432749.2000000477,A,corn,I,n,109,,1865.9000000357628,430883.3000000119,8069,WL,C,8.0
4,12.411999940872192,learn,47588.00005912781,Thu May 07 2026 16:16:51 GMT-0500 (Central Daylight Time),433165.3000000119,A,cornenter,I,enter,408,,2282.0,430883.3000000119,8069,WL,C,8.0
4,12.696000099182129,learn,47303.99990081787,Thu May 07 2026 16:16:51 GMT-0500 (Central Daylight Time),433448.90000003576,A,w,I,w,272,,283.30000001192093,433165.60000002384,8069,WL,C,9.0
4,12.92900013923645,learn,47070.99986076355,Thu May 07 2026 16:16:51 GMT-0500 (Central Daylight Time),433682.10000002384,A,we,I,e,221,,516.5,433165.60000002384,8069,WL,C,9.0
4,13.045000076293945,learn,46954.999923706055,Thu May 07 2026 16:16:51 GMT-0500 (Central Daylight Time),433798.60000002384,A,weh,I,h,106,,633.0,433165.60000002384,8069,WL,C,9.0
4,13.17900013923645,learn,46820.99986076355,Thu May 07 2026 16:16:51 GMT-0500 (Central Daylight Time),433931.90000003576,A,weha,I,a,127,,766.3000000119209,433165.60000002384,8069,WL,C,9.0
4,13.328999996185303,learn,46671.0000038147,Thu May 07 2026 16:16:51 GMT-0500 (Central Daylight Time),434082.0,A,wehat,I,t,146,,916.3999999761581,433165.60000002384,8069,WL,C,9.0
4,13.944999933242798,learn,46055.0000667572,Thu May 07 2026 16:16:51 GMT-0500 (Central Daylight Time),434698.2000000477,A,weha,I,backspace,611,,1532.6000000238419,433165.60000002384,8069,WL,C,9.0
4,14.111999988555908,learn,45888.00001144409,Thu May 07 2026 16:16:51 GMT-0500 (Central Daylight Time),434865.2000000477,A,weh,I,backspace,155,,1699.6000000238419,433165.60000002384,8069,WL,C,9.0
4,14.26200008392334,learn,45737.99991607666,Thu May 07 2026 16:16:51 GMT-0500 (Central Daylight Time),435015.0,A,we,I,backspace,140,,1849.3999999761581,433165.60000002384,8069,WL,C,9.0
4,14.411999940872192,learn,45588.00005912781,Thu May 07 2026 16:16:51 GMT-0500 (Central Daylight Time),435164.8000000119,A,w,I,backspace,135,,1999.199999988079,433165.60000002384,8069,WL,C,9.0
4,14.727999925613403,learn,45272.0000743866,Thu May 07 2026 16:16:51 GMT-0500 (Central Daylight Time),435481.5,A,wh,I,h,305,,2315.899999976158,433165.60000002384,8069,WL,C,9.0
4,14.82800006866455,learn,45171.99993133545,Thu May 07 2026 16:16:51 GMT-0500 (Central Daylight Time),435581.60000002384,A,whe,I,e,84,,2416.0,433165.60000002384,8069,WL,C,9.0
4,15.144999980926514,learn,44855.000019073486,Thu May 07 2026 16:16:51 GMT-0500 (Central Daylight Time),435898.0,A,whet,I,t,312,,2732.399999976158,433165.60000002384,8069,WL,C,9.0
4,15.528000116348267,learn,44471.99988365173,Thu May 07 2026 16:16:51 GMT-0500 (Central Daylight Time),436281.40000003576,A,whe,I,backspace,362,,3115.800000011921,433165.60000002384,8069,WL,C,9.0
4,16.311000108718872,learn,43688.99989128113,Thu May 07 2026 16:16:51 GMT-0500 (Central Daylight Time),437064.5,A,whea,I,a,772,,3898.899999976158,433165.60000002384,8069,WL,C,9.0
4,16.628000020980835,learn,43371.999979019165,Thu May 07 2026 16:16:51 GMT-0500 (Central Daylight Time),437380.90000003576,A,wheat,I,t,309,,4215.300000011921,433165.60000002384,8069,WL,C,9.0
4,16.92799997329712,learn,43072.00002670288,Thu May 07 2026 16:16:51 GMT-0500 (Central Daylight Time),437680.90000003576,A,wheatenter,I,enter,281,,4515.300000011921,433165.60000002384,8069,WL,C,9.0
4,17.16100001335144,learn,42838.99998664856,Thu May 07 2026 16:16:51 GMT-0500 (Central Daylight Time),437914.2000000477,A,s,I,s,213,,232.9000000357628,437681.3000000119,8069,WL,C,10.0
4,17.278000116348267,learn,42721.99988365173,Thu May 07 2026 16:16:51 GMT-0500 (Central Daylight Time),438030.90000003576,A,su,I,u,107,,349.60000002384186,437681.3000000119,8069,WL,C,10.0
4,17.49399995803833,learn,42506.00004196167,Thu May 07 2026 16:16:51 GMT-0500 (Central Daylight Time),438247.60000002384,A,sug,I,g,199,,566.3000000119209,437681.3000000119,8069,WL,C,10.0
4,17.74399995803833,learn,42256.00004196167,Thu May 07 2026 16:16:51 GMT-0500 (Central Daylight Time),438497.5,A,suga,I,a,238,,816.1999999880791,437681.3000000119,8069,WL,C,10.0
4,17.91100001335144,learn,42088.99998664856,Thu May 07 2026 16:16:51 GMT-0500 (Central Daylight Time),438663.90000003576,A,sugar,I,r,148,,982.6000000238419,437681.3000000119,8069,WL,C,10.0
4,18.22699999809265,learn,41773.00000190735,Thu May 07 2026 16:16:51 GMT-0500 (Central Daylight Time),438980.40000003576,A,sugarenter,I,enter,301,,1299.1000000238419,437681.3000000119,8069,WL,C,10.0
4,18.611000061035156,learn,41388.999938964844,Thu May 07 2026 16:16:51 GMT-0500 (Central Daylight Time),439363.7000000477,A,q,I,q,376,,382.9000000357628,438980.8000000119,8069,WL,C,11.0
4,18.74399995803833,learn,41256.00004196167,Thu May 07 2026 16:16:51 GMT-0500 (Central Daylight Time),439497.0,A,qu,I,u,122,,516.1999999880791,438980.8000000119,8069,WL,C,11.0
4,18.877000093460083,learn,41122.99990653992,Thu May 07 2026 16:16:51 GMT-0500 (Central Daylight Time),439630.5,A,que,I,e,124,,649.6999999880791,438980.8000000119,8069,WL,C,11.0
4,19.043999910354614,learn,40956.000089645386,Thu May 07 2026 16:16:51 GMT-0500 (Central Daylight Time),439797.0,A,quee,I,e,151,,816.1999999880791,438980.8000000119,8069,WL,C,11.0
4,19.177000045776367,learn,40822.99995422363,Thu May 07 2026 16:16:51 GMT-0500 (Central Daylight Time),439929.90000003576,A,queen,I,n,113,,949.1000000238419,438980.8000000119,8069,WL,C,11.0
4,19.427000045776367,learn,40572.99995422363,Thu May 07 2026 16:16:51 GMT-0500 (Central Daylight Time),440179.90000003576,A,queenenter,I,enter,244,,1199.1000000238419,438980.8000000119,8069,WL,C,11.0
4,19.594000101089478,learn,40405.99989891052,Thu May 07 2026 16:16:51 GMT-0500 (Central Daylight Time),440346.8000000119,A,t,I,t,154,,166.5999999642372,440180.2000000477,8069,WL,C,12.0
4,19.776999950408936,learn,40223.000049591064,Thu May 07 2026 16:16:51 GMT-0500 (Central Daylight Time),440529.90000003576,A,to,I,o,171,,349.69999998807907,440180.2000000477,8069,WL,C,12.0
4,19.944000005722046,learn,40055.999994277954,Thu May 07 2026 16:16:51 GMT-0500 (Central Daylight Time),440696.8000000119,A,tow,I,w,156,,516.5999999642372,440180.2000000477,8069,WL,C,12.0
4,20.610000133514404,learn,39389.999866485596,Thu May 07 2026 16:16:51 GMT-0500 (Central Daylight Time),441362.90000003576,A,towe,I,e,653,,1182.699999988079,440180.2000000477,8069,WL,C,12.0
4,20.877000093460083,learn,39122.99990653992,Thu May 07 2026 16:16:51 GMT-0500 (Central Daylight Time),441629.8000000119,A,towee,I,e,251,,1449.5999999642372,440180.2000000477,8069,WL,C,12.0
4,21.792999982833862,learn,38207.00001716614,Thu May 07 2026 16:16:51 GMT-0500 (Central Daylight Time),442546.10000002384,A,towe,I,backspace,895,,2365.899999976158,440180.2000000477,8069,WL,C,12.0
4,21.908999919891357,learn,38091.00008010864,Thu May 07 2026 16:16:51 GMT-0500 (Central Daylight Time),442662.5,A,tower,I,r,99,,2482.2999999523163,440180.2000000477,8069,WL,C,12.0
4,22.493000030517578,learn,37506.99996948242,Thu May 07 2026 16:16:51 GMT-0500 (Central Daylight Time),443245.8000000119,A,towerenter,I,enter,575,,3065.599999964237,440180.2000000477,8069,WL,C,12.0
4,28.54100012779236,learn,31458.99987220764,Thu May 07 2026 16:16:51 GMT-0500 (Central Daylight Time),449293.8000000119,A,f,I,f,6040,,6047.399999976158,443246.40000003576,8069,WL,C,13.0
4,28.707000017166138,learn,31292.999982833862,Thu May 07 2026 16:16:51 GMT-0500 (Central Daylight Time),449460.40000003576,A,fl,I,l,151,,6214.0,443246.40000003576,8069,WL,C,13.0
4,28.824000120162964,learn,31175.999879837036,Thu May 07 2026 16:16:51 GMT-0500 (Central Daylight Time),449577.3000000119,A,fla,I,a,105,,6330.899999976158,443246.40000003576,8069,WL,C,13.0
4,29.124000072479248,learn,30875.999927520752,Thu May 07 2026 16:16:51 GMT-0500 (Central Daylight Time),449876.8000000119,A,flag,I,g,284,,6630.399999976158,443246.40000003576,8069,WL,C,13.0
4,29.574000120162964,learn,30425.999879837036,Thu May 07 2026 16:16:51 GMT-0500 (Central Daylight Time),450327.0,A,flagenter,I,enter,441,,7080.599999964237,443246.40000003576,8069,WL,C,13.0
4,34.539000034332275,learn,25460.999965667725,Thu May 07 2026 16:16:51 GMT-0500 (Central Daylight Time),455292.10000002384,A,c,I,c,4959,,4964.699999988079,450327.40000003576,8069,WL,C,14.0
4,34.75600004196167,learn,25243.99995803833,Thu May 07 2026 16:16:51 GMT-0500 (Central Daylight Time),455508.7000000477,A,ca,I,a,201,,5181.300000011921,450327.40000003576,8069,WL,C,14.0
4,34.9060001373291,learn,25093.9998626709,Thu May 07 2026 16:16:51 GMT-0500 (Central Daylight Time),455659.0,A,cam,I,m,129,,5331.599999964237,450327.40000003576,8069,WL,C,14.0
4,35.138999938964844,learn,24861.000061035156,Thu May 07 2026 16:16:51 GMT-0500 (Central Daylight Time),455891.90000003576,A,camp,I,p,219,,5564.5,450327.40000003576,8069,WL,C,14.0
4,35.50600004196167,learn,24493.99995803833,Thu May 07 2026 16:16:51 GMT-0500 (Central Daylight Time),456259.5,A,campenter,I,enter,362,,5932.099999964237,450327.40000003576,8069,WL,C,14.0
4,36.75500011444092,learn,23244.999885559082,Thu May 07 2026 16:16:51 GMT-0500 (Central Daylight Time),457508.10000002384,A,enter,I,enter,1242,,1248.300000011921,456259.8000000119,8069,WL,C,15.0
5,0.39999985694885254,learn,60000.0,Thu May 07 2026 16:16:51 GMT-0500 (Central Daylight Time),524170.8000000119,A,c,I,c,387,,400.0,523770.8000000119,8069,WL,C,1.0
5,0.6499998569488525,learn,60000.0,Thu May 07 2026 16:16:51 GMT-0500 (Central Daylight Time),524420.5,A,ca,I,a,234,,649.6999999880791,523770.8000000119,8069,WL,C,1.0
5,0.8329999446868896,learn,60000.0,Thu May 07 2026 16:16:51 GMT-0500 (Central Daylight Time),524603.6000000238,A,cat,I,t,169,,832.8000000119209,523770.8000000119,8069,WL,C,1.0
5,1.0169999599456787,learn,60000.0,Thu May 07 2026 16:16:51 GMT-0500 (Central Daylight Time),524786.8000000119,A,catt,I,t,177,,1016.0,523770.8000000119,8069,WL,C,1.0
5,1.1999998092651367,learn,60000.0,Thu May 07 2026 16:16:51 GMT-0500 (Central Daylight Time),524970.3000000119,A,cattl,I,l,163,,1199.5,523770.8000000119,8069,WL,C,1.0
5,1.315999984741211,learn,60000.0,Thu May 07 2026 16:16:51 GMT-0500 (Central Daylight Time),525086.8000000119,A,cattle,I,e,99,,1316.0,523770.8000000119,8069,WL,C,1.0
5,1.6499998569488525,learn,60000.0,Thu May 07 2026 16:16:51 GMT-0500 (Central Daylight Time),525420.0,A,cattleenter,I,enter,319,,1649.199999988079,523770.8000000119,8069,WL,C,1.0
5,1.9159998893737793,learn,60000.0,Thu May 07 2026 16:16:51 GMT-0500 (Central Daylight Time),525686.8000000119,A,s,I,s,258,,266.5,525420.3000000119,8069,WL,C,2.0
5,2.0160000324249268,learn,60000.0,Thu May 07 2026 16:16:51 GMT-0500 (Central Daylight Time),525786.6000000238,A,sh,I,h,87,,366.30000001192093,525420.3000000119,8069,WL,C,2.0
5,2.115999937057495,learn,60000.0,Thu May 07 2026 16:16:51 GMT-0500 (Central Daylight Time),525886.6000000238,A,sho,I,o,91,,466.30000001192093,525420.3000000119,8069,WL,C,2.0
5,2.365999937057495,learn,60000.0,Thu May 07 2026 16:16:51 GMT-0500 (Central Daylight Time),526136.6000000238,A,shor,I,r,231,,716.3000000119209,525420.3000000119,8069,WL,C,2.0
5,2.5329999923706055,learn,60000.0,Thu May 07 2026 16:16:51 GMT-0500 (Central Daylight Time),526303.1000000238,A,shore,I,e,149,,882.8000000119209,525420.3000000119,8069,WL,C,2.0
5,2.7159998416900635,learn,60000.0,Thu May 07 2026 16:16:51 GMT-0500 (Central Daylight Time),526486.4000000358,A,shoreenter,I,enter,167,,1066.1000000238419,525420.3000000119,8069,WL,C,2.0
5,2.9659998416900635,learn,60000.0,Thu May 07 2026 16:16:51 GMT-0500 (Central Daylight Time),526736.3000000119,A,b,I,b,240,,249.5999999642372,526486.7000000477,8069,WL,C,3.0
5,3.0490000247955322,learn,60000.0,Thu May 07 2026 16:16:51 GMT-0500 (Central Daylight Time),526819.8000000119,A,bo,I,o,69,,333.0999999642372,526486.7000000477,8069,WL,C,3.0
5,3.2660000324249268,learn,60000.0,Thu May 07 2026 16:16:51 GMT-0500 (Central Daylight Time),527036.3000000119,A,bod,I,d,210,,549.5999999642372,526486.7000000477,8069,WL,C,3.0
5,3.4489998817443848,learn,60000.0,Thu May 07 2026 16:16:51 GMT-0500 (Central Daylight Time),527219.6000000238,A,body,I,y,169,,732.8999999761581,526486.7000000477,8069,WL,C,3.0
5,3.7159998416900635,learn,60000.0,Thu May 07 2026 16:16:51 GMT-0500 (Central Daylight Time),527486.1000000238,A,bodyenter,I,enter,258,,999.3999999761581,526486.7000000477,8069,WL,C,3.0
5,4.181999921798706,learn,60000.0,Thu May 07 2026 16:16:51 GMT-0500 (Central Daylight Time),527952.6000000238,A,w,I,w,456,,466.10000002384186,527486.5,8069,WL,C,4.0
5,4.332000017166138,learn,60000.0,Thu May 07 2026 16:16:51 GMT-0500 (Central Daylight Time),528102.5,A,we,I,e,141,,616.0,527486.5,8069,WL,C,4.0
5,4.565999984741211,learn,60000.0,Thu May 07 2026 16:16:51 GMT-0500 (Central Daylight Time),528336.2000000477,A,weh,I,h,215,,849.7000000476837,527486.5,8069,WL,C,4.0
5,5.082000017166138,learn,60000.0,Thu May 07 2026 16:16:51 GMT-0500 (Central Daylight Time),528852.5,A,we,I,backspace,501,,1366.0,527486.5,8069,WL,C,4.0
5,5.23199987411499,learn,60000.0,Thu May 07 2026 16:16:51 GMT-0500 (Central Daylight Time),529002.4000000358,A,w,I,backspace,137,,1515.9000000357628,527486.5,8069,WL,C,4.0
5,5.514999866485596,learn,60000.0,Thu May 07 2026 16:16:51 GMT-0500 (Central Daylight Time),529285.5,A,wh,I,h,275,,1799.0,527486.5,8069,WL,C,4.0
5,5.597999811172485,learn,60000.0,Thu May 07 2026 16:16:51 GMT-0500 (Central Daylight Time),529368.7000000477,A,whe,I,e,63,,1882.2000000476837,527486.5,8069,WL,C,4.0
5,5.73199987411499,learn,60000.0,Thu May 07 2026 16:16:51 GMT-0500 (Central Daylight Time),529502.1000000238,A,whea,I,a,125,,2015.6000000238419,527486.5,8069,WL,C,4.0
5,5.865000009536743,learn,60000.0,Thu May 07 2026 16:16:51 GMT-0500 (Central Daylight Time),529635.4000000358,A,wheat,I,t,119,,2148.900000035763,527486.5,8069,WL,C,4.0
5,6.082000017166138,learn,60000.0,Thu May 07 2026 16:16:51 GMT-0500 (Central Daylight Time),529852.1000000238,A,wheatenter,I,enter,211,,2365.600000023842,527486.5,8069,WL,C,4.0
5,6.347999811172485,learn,60000.0,Thu May 07 2026 16:16:51 GMT-0500 (Central Daylight Time),530118.7000000477,A,c,I,c,250,,266.2000000476837,529852.5,8069,WL,C,5.0
5,6.431999921798706,learn,60000.0,Thu May 07 2026 16:16:51 GMT-0500 (Central Daylight Time),530202.0,A,co,I,o,71,,349.5,529852.5,8069,WL,C,5.0
5,6.615000009536743,learn,60000.0,Thu May 07 2026 16:16:51 GMT-0500 (Central Daylight Time),530385.1000000238,A,cor,I,r,163,,532.6000000238419,529852.5,8069,WL,C,5.0
5,6.766000032424927,learn,60000.0,Thu May 07 2026 16:16:51 GMT-0500 (Central Daylight Time),530536.3000000119,A,corn,I,n,133,,683.8000000119209,529852.5,8069,WL,C,5.0
5,7.097999811172485,learn,60000.0,Thu May 07 2026 16:16:51 GMT-0500 (Central Daylight Time),530868.7000000477,A,cornenter,I,enter,317,,1016.2000000476837,529852.5,8069,WL,C,5.0
5,7.5309998989105225,learn,60000.0,Thu May 07 2026 16:16:51 GMT-0500 (Central Daylight Time),531301.7000000477,A,s,I,s,425,,432.7000000476837,530869.0,8069,WL,C,6.0
5,7.664999961853027,learn,60000.0,Thu May 07 2026 16:16:51 GMT-0500 (Central Daylight Time),531434.9000000358,A,su,I,u,120,,565.9000000357628,530869.0,8069,WL,C,6.0
5,7.96399998664856,learn,60000.0,Thu May 07 2026 16:16:51 GMT-0500 (Central Daylight Time),531734.7000000477,A,sug,I,g,283,,865.7000000476837,530869.0,8069,WL,C,6.0
5,8.247999906539917,learn,60000.0,Thu May 07 2026 16:16:51 GMT-0500 (Central Daylight Time),532018.3000000119,A,suga,I,a,263,,1149.300000011921,530869.0,8069,WL,C,6.0
5,8.365000009536743,learn,60000.0,Thu May 07 2026 16:16:51 GMT-0500 (Central Daylight Time),532134.9000000358,A,sugar,I,r,99,,1265.9000000357628,530869.0,8069,WL,C,6.0
5,8.697999954223633,learn,60000.0,Thu May 07 2026 16:16:51 GMT-0500 (Central Daylight Time),532468.1000000238,A,sugarenter,I,enter,318,,1599.1000000238419,530869.0,8069,WL,C,6.0
5,9.146999835968018,learn,60000.0,Thu May 07 2026 16:16:51 GMT-0500 (Central Daylight Time),532917.8000000119,A,t,I,t,442,,449.30000001192093,532468.5,8069,WL,C,7.0
5,9.363999843597412,learn,60000.0,Thu May 07 2026 16:16:51 GMT-0500 (Central Daylight Time),533134.2000000477,A,tw,I,w,208,,665.7000000476837,532468.5,8069,WL,C,7.0
5,9.430999994277954,learn,60000.0,Thu May 07 2026 16:16:51 GMT-0500 (Central Daylight Time),533201.2000000477,A,two,I,o,47,,732.7000000476837,532468.5,8069,WL,C,7.0
5,9.629999876022339,learn,60000.0,Thu May 07 2026 16:16:51 GMT-0500 (Central Daylight Time),533400.7000000477,A,twoe,I,e,181,,932.2000000476837,532468.5,8069,WL,C,7.0
5,9.730999946594238,learn,60000.0,Thu May 07 2026 16:16:51 GMT-0500 (Central Daylight Time),533501.0,A,twoer,I,r,85,,1032.5,532468.5,8069,WL,C,7.0
5,10.180999994277954,learn,60000.0,Thu May 07 2026 16:16:51 GMT-0500 (Central Daylight Time),533951.0,A,twoe,I,backspace,441,,1482.5,532468.5,8069,WL,C,7.0
5,10.346999883651733,learn,60000.0,Thu May 07 2026 16:16:51 GMT-0500 (Central Daylight Time),534117.3000000119,A,two,I,backspace,159,,1648.800000011921,532468.5,8069,WL,C,7.0
5,10.496999979019165,learn,60000.0,Thu May 07 2026 16:16:51 GMT-0500 (Central Daylight Time),534267.2000000477,A,tw,I,backspace,143,,1798.7000000476837,532468.5,8069,WL,C,7.0
5,10.646999835968018,learn,60000.0,Thu May 07 2026 16:16:51 GMT-0500 (Central Daylight Time),534417.2000000477,A,t,I,backspace,138,,1948.7000000476837,532468.5,8069,WL,C,7.0
5,10.912999868392944,learn,60000.0,Thu May 07 2026 16:16:51 GMT-0500 (Central Daylight Time),534683.6000000238,A,to,I,o,260,,2215.100000023842,532468.5,8069,WL,C,7.0
5,11.04699993133545,learn,60000.0,Thu May 07 2026 16:16:51 GMT-0500 (Central Daylight Time),534817.3000000119,A,tow,I,w,113,,2348.800000011921,532468.5,8069,WL,C,7.0
5,11.27999997138977,learn,60000.0,Thu May 07 2026 16:16:51 GMT-0500 (Central Daylight Time),535050.6000000238,A,towe,I,e,212,,2582.100000023842,532468.5,8069,WL,C,7.0
5,11.36299991607666,learn,60000.0,Thu May 07 2026 16:16:51 GMT-0500 (Central Daylight Time),535133.8000000119,A,tower,I,r,75,,2665.300000011921,532468.5,8069,WL,C,7.0
5,11.562999963760376,learn,60000.0,Thu May 07 2026 16:16:51 GMT-0500 (Central Daylight Time),535333.6000000238,A,towerenter,I,enter,184,,2865.100000023842,532468.5,8069,WL,C,7.0
5,11.79699993133545,learn,60000.0,Thu May 07 2026 16:16:51 GMT-0500 (Central Daylight Time),535566.9000000358,A,q,I,q,215,,232.9000000357628,535334.0,8069,WL,C,8.0
5,11.895999908447266,learn,60000.0,Thu May 07 2026 16:16:51 GMT-0500 (Central Daylight Time),535666.6000000238,A,qu,I,u,95,,332.60000002384186,535334.0,8069,WL,C,8.0
5,12.096999883651733,learn,60000.0,Thu May 07 2026 16:16:51 GMT-0500 (Central Daylight Time),535866.9000000358,A,que,I,e,187,,532.9000000357628,535334.0,8069,WL,C,8.0
5,12.212999820709229,learn,60000.0,Thu May 07 2026 16:16:51 GMT-0500 (Central Daylight Time),535983.4000000358,A,quee,I,e,99,,649.4000000357628,535334.0,8069,WL,C,8.0
5,12.562999963760376,learn,60000.0,Thu May 07 2026 16:16:51 GMT-0500 (Central Daylight Time),536333.5,A,queen,I,n,334,,999.5,535334.0,8069,WL,C,8.0
5,12.980000019073486,learn,60000.0,Thu May 07 2026 16:16:51 GMT-0500 (Central Daylight Time),536749.9000000358,A,queenenter,I,enter,408,,1415.9000000357628,535334.0,8069,WL,C,8.0
5,13.828999996185303,learn,60000.0,Thu May 07 2026 16:16:51 GMT-0500 (Central Daylight Time),537599.6000000238,A,n,I,n,832,,849.3000000119209,536750.3000000119,8069,WL,C,9.0
5,13.960999965667725,learn,60000.0,Thu May 07 2026 16:16:51 GMT-0500 (Central Daylight Time),537733.1000000238,A,na,I,a,118,,982.8000000119209,536750.3000000119,8069,WL,C,9.0
5,14.043999910354614,learn,60000.0,Thu May 07 2026 16:16:51 GMT-0500 (Central Daylight Time),537816.4000000358,A,nai,I,i,73,,1066.1000000238419,536750.3000000119,8069,WL,C,9.0
5,14.24399995803833,learn,60000.0,Thu May 07 2026 16:16:51 GMT-0500 (Central Daylight Time),538016.3000000119,A,nail,I,l,189,,1266.0,536750.3000000119,8069,WL,C,9.0
5,14.609999895095825,learn,60000.0,Thu May 07 2026 16:16:51 GMT-0500 (Central Daylight Time),538382.8000000119,A,nailenter,I,enter,349,,1632.5,536750.3000000119,8069,WL,C,9.0
5,16.259999990463257,learn,60000.0,Thu May 07 2026 16:16:51 GMT-0500 (Central Daylight Time),540032.2000000477,A,f,I,f,1631,,1649.0,538383.2000000477,8069,WL,C,10.0
5,16.39299988746643,learn,60000.0,Thu May 07 2026 16:16:51 GMT-0500 (Central Daylight Time),540165.5,A,fl,I,l,117,,1782.2999999523163,538383.2000000477,8069,WL,C,10.0
5,16.675999879837036,learn,60000.0,Thu May 07 2026 16:16:51 GMT-0500 (Central Daylight Time),540448.8000000119,A,fla,I,a,272,,2065.599999964237,538383.2000000477,8069,WL,C,10.0
5,16.859999895095825,learn,60000.0,Thu May 07 2026 16:16:51 GMT-0500 (Central Daylight Time),540632.1000000238,A,flag,I,g,173,,2248.899999976158,538383.2000000477,8069,WL,C,10.0
5,17.30999994277954,learn,60000.0,Thu May 07 2026 16:16:51 GMT-0500 (Central Daylight Time),541082.4000000358,A,flagenter,I,enter,438,,2699.199999988079,538383.2000000477,8069,WL,C,10.0
5,18.542999982833862,learn,60000.0,Thu May 07 2026 16:16:51 GMT-0500 (Central Daylight Time),542315.9000000358,A,b,I,b,1227,,1233.199999988079,541082.7000000477,8069,WL,C,11.0
5,18.64199995994568,learn,60000.0,Thu May 07 2026 16:16:51 GMT-0500 (Central Daylight Time),542414.7000000477,A,bo,I,o,90,,1332.0,541082.7000000477,8069,WL,C,11.0
5,18.89199995994568,learn,60000.0,Thu May 07 2026 16:16:51 GMT-0500 (Central Daylight Time),542664.7000000477,A,boy,I,y,238,,1582.0,541082.7000000477,8069,WL,C,11.0
5,19.205999851226807,learn,60000.0,Thu May 07 2026 16:16:51 GMT-0500 (Central Daylight Time),542978.1000000238,A,boyenter,I,enter,308,,1895.3999999761581,541082.7000000477,8069,WL,C,11.0
5,19.352999925613403,learn,60000.0,Thu May 07 2026 16:16:51 GMT-0500 (Central Daylight Time),543125.7000000477,A,d,I,d,143,,147.30000001192093,542978.4000000358,8069,WL,C,12.0
5,19.442999839782715,learn,60000.0,Thu May 07 2026 16:16:51 GMT-0500 (Central Daylight Time),543215.5,A,do,I,o,80,,237.0999999642372,542978.4000000358,8069,WL,C,12.0
5,19.625,learn,60000.0,Thu May 07 2026 16:16:51 GMT-0500 (Central Daylight Time),543397.9000000358,A,doc,I,c,174,,419.5,542978.4000000358,8069,WL,C,12.0
5,19.857999801635742,learn,60000.0,Thu May 07 2026 16:16:51 GMT-0500 (Central Daylight Time),543630.9000000358,A,doct,I,t,223,,652.5,542978.4000000358,8069,WL,C,12.0
5,20.074999809265137,learn,60000.0,Thu May 07 2026 16:16:51 GMT-0500 (Central Daylight Time),543847.7000000477,A,docto,I,o,199,,869.3000000119209,542978.4000000358,8069,WL,C,12.0
5,20.174999952316284,learn,60000.0,Thu May 07 2026 16:16:51 GMT-0500 (Central Daylight Time),543947.6000000238,A,doctor,I,r,94,,969.1999999880791,542978.4000000358,8069,WL,C,12.0
5,20.407999992370605,learn,60000.0,Thu May 07 2026 16:16:51 GMT-0500 (Central Daylight Time),544180.8000000119,A,doctorenter,I,enter,227,,1202.3999999761581,542978.4000000358,8069,WL,C,12.0
5,20.691999912261963,learn,60000.0,Thu May 07 2026 16:16:51 GMT-0500 (Central Daylight Time),544464.0,A,l,I,l,273,,282.89999997615814,544181.1000000238,8069,WL,C,13.0
5,20.758999824523926,learn,60000.0,Thu May 07 2026 16:16:51 GMT-0500 (Central Daylight Time),544531.8000000119,A,le,I,e,61,,350.69999998807907,544181.1000000238,8069,WL,C,13.0
5,21.157999992370605,learn,60000.0,Thu May 07 2026 16:16:51 GMT-0500 (Central Daylight Time),544930.4000000358,A,let,I,t,394,,749.3000000119209,544181.1000000238,8069,WL,C,13.0
5,21.357999801635742,learn,60000.0,Thu May 07 2026 16:16:51 GMT-0500 (Central Daylight Time),545130.4000000358,A,lett,I,t,187,,949.3000000119209,544181.1000000238,8069,WL,C,13.0
5,21.574999809265137,learn,60000.0,Thu May 07 2026 16:16:51 GMT-0500 (Central Daylight Time),545347.2000000477,A,lette,I,e,203,,1166.1000000238419,544181.1000000238,8069,WL,C,13.0
5,21.657999992370605,learn,60000.0,Thu May 07 2026 16:16:51 GMT-0500 (Central Daylight Time),545430.5,A,letter,I,r,74,,1249.3999999761581,544181.1000000238,8069,WL,C,13.0
5,22.29099988937378,learn,60000.0,Thu May 07 2026 16:16:51 GMT-0500 (Central Daylight Time),546063.5,A,letterenter,I,enter,623,,1882.3999999761581,544181.1000000238,8069,WL,C,13.0
5,25.93999981880188,learn,60000.0,Thu May 07 2026 16:16:51 GMT-0500 (Central Daylight Time),549712.4000000358,A,h,I,h,3638,,3648.600000023842,546063.8000000119,8069,WL,C,14.0
5,26.08999991416931,learn,60000.0,Thu May 07 2026 16:16:51 GMT-0500 (Central Daylight Time),549862.3000000119,A,ho,I,o,133,,3798.5,546063.8000000119,8069,WL,C,14.0
5,26.256999969482422,learn,60000.0,Thu May 07 2026 16:16:51 GMT-0500 (Central Daylight Time),550029.2000000477,A,hom,I,m,159,,3965.400000035763,546063.8000000119,8069,WL,C,14.0
5,26.405999898910522,learn,60000.0,Thu May 07 2026 16:16:51 GMT-0500 (Central Daylight Time),550179.0,A,home,I,e,137,,4115.199999988079,546063.8000000119,8069,WL,C,14.0
5,26.572999954223633,learn,60000.0,Thu May 07 2026 16:16:51 GMT-0500 (Central Daylight Time),550345.7000000477,A,homeenter,I,enter,147,,4281.900000035763,546063.8000000119,8069,WL,C,14.0
5,27.205999851226807,learn,60000.0,Thu May 07 2026 16:16:51 GMT-0500 (Central Daylight Time),550978.7000000477,A,enter,I,enter,628,,632.8000000119209,550345.9000000358,8069,WL,C,15.0
6,0.8819999694824219,distr,59118.00003051758,Thu May 07 2026 16:16:51 GMT-0500 (Central Daylight Time),618774.3000000119,B,h,I,h,866,,882.1999999880791,617892.1000000238,8069,WL,C,1.0
6,1.0160000324249268,distr,58983.99996757507,Thu May 07 2026 16:16:51 GMT-0500 (Central Daylight Time),618907.5,B,ho,I,o,119,,1015.3999999761581,617892.1000000238,8069,WL,C,1.0
6,1.1490001678466797,distr,58850.99983215332,Thu May 07 2026 16:16:51 GMT-0500 (Central Daylight Time),619041.0,B,hot,I,t,122,,1148.8999999761581,617892.1000000238,8069,WL,C,1.0
6,1.3489999771118164,distr,58651.00002288818,Thu May 07 2026 16:16:51 GMT-0500 (Central Daylight Time),619240.6000000238,B,hote,I,e,181,,1348.5,617892.1000000238,8069,WL,C,1.0
6,1.5150001049041748,distr,58484.999895095825,Thu May 07 2026 16:16:51 GMT-0500 (Central Daylight Time),619407.1000000238,B,hotel,I,l,149,,1515.0,617892.1000000238,8069,WL,C,1.0
6,1.7660000324249268,distr,58233.99996757507,Thu May 07 2026 16:16:51 GMT-0500 (Central Daylight Time),619657.5,B,hotelenter,I,enter,239,,1765.3999999761581,617892.1000000238,8069,WL,C,1.0
6,2.0829999446868896,distr,57917.00005531311,Thu May 07 2026 16:16:51 GMT-0500 (Central Daylight Time),619975.0,B,m,I,m,300,,317.0999999642372,619657.9000000358,8069,WL,C,2.0
6,2.4149999618530273,distr,57585.00003814697,Thu May 07 2026 16:16:51 GMT-0500 (Central Daylight Time),620307.1000000238,B,mo,I,o,325,,649.1999999880791,619657.9000000358,8069,WL,C,2.0
6,2.5980000495910645,distr,57401.999950408936,Thu May 07 2026 16:16:51 GMT-0500 (Central Daylight Time),620490.1000000238,B,mon,I,n,179,,832.1999999880791,619657.9000000358,8069,WL,C,2.0
6,2.9820001125335693,distr,57017.99988746643,Thu May 07 2026 16:16:51 GMT-0500 (Central Daylight Time),620873.6000000238,B,mone,I,e,363,,1215.699999988079,619657.9000000358,8069,WL,C,2.0
6,3.2150001525878906,distr,56784.99984741211,Thu May 07 2026 16:16:51 GMT-0500 (Central Daylight Time),621106.6000000238,B,money,I,y,228,,1448.699999988079,619657.9000000358,8069,WL,C,2.0
6,3.998000144958496,distr,56001.999855041504,Thu May 07 2026 16:16:51 GMT-0500 (Central Daylight Time),621889.9000000358,B,moneyenter,I,enter,779,,2232.0,619657.9000000358,8069,WL,C,2.0
6,4.29800009727478,distr,55701.99990272522,Thu May 07 2026 16:16:51 GMT-0500 (Central Daylight Time),622189.7000000477,B,m,I,m,292,,299.60000002384186,621890.1000000238,8069,WL,C,3.0
6,4.498000144958496,distr,55501.999855041504,Thu May 07 2026 16:16:51 GMT-0500 (Central Daylight Time),622389.8000000119,B,mo,I,o,192,,499.69999998807907,621890.1000000238,8069,WL,C,3.0
6,4.63100004196167,distr,55368.99995803833,Thu May 07 2026 16:16:51 GMT-0500 (Central Daylight Time),622522.8000000119,B,mot,I,t,128,,632.6999999880791,621890.1000000238,8069,WL,C,3.0
6,4.715000152587891,distr,55284.99984741211,Thu May 07 2026 16:16:51 GMT-0500 (Central Daylight Time),622606.5,B,moth,I,h,75,,716.3999999761581,621890.1000000238,8069,WL,C,3.0
6,4.88100004196167,distr,55118.99995803833,Thu May 07 2026 16:16:51 GMT-0500 (Central Daylight Time),622772.7000000477,B,mothe,I,e,159,,882.6000000238419,621890.1000000238,8069,WL,C,3.0
6,4.96399998664856,distr,55036.00001335144,Thu May 07 2026 16:16:51 GMT-0500 (Central Daylight Time),622856.2000000477,B,mother,I,r,73,,966.1000000238419,621890.1000000238,8069,WL,C,3.0
6,5.29800009727478,distr,54701.99990272522,Thu May 07 2026 16:16:51 GMT-0500 (Central Daylight Time),623189.3000000119,B,motherenter,I,enter,316,,1299.199999988079,621890.1000000238,8069,WL,C,3.0
6,5.697000026702881,distr,54302.99997329712,Thu May 07 2026 16:16:51 GMT-0500 (Central Daylight Time),623589.1000000238,B,c,I,c,391,,399.5,623189.6000000238,8069,WL,C,4.0
6,5.797000169754028,distr,54202.99983024597,Thu May 07 2026 16:16:51 GMT-0500 (Central Daylight Time),623689.2000000477,B,ch,I,h,79,,499.60000002384186,623189.6000000238,8069,WL,C,4.0
6,6.080000162124634,distr,53919.999837875366,Thu May 07 2026 16:16:51 GMT-0500 (Central Daylight Time),623972.2000000477,B,chr,I,r,268,,782.6000000238419,623189.6000000238,8069,WL,C,4.0
6,6.147000074386597,distr,53852.9999256134,Thu May 07 2026 16:16:51 GMT-0500 (Central Daylight Time),624039.0,B,chri,I,i,57,,849.3999999761581,623189.6000000238,8069,WL,C,4.0
6,6.330000162124634,distr,53669.999837875366,Thu May 07 2026 16:16:51 GMT-0500 (Central Daylight Time),624222.1000000238,B,chris,I,s,174,,1032.5,623189.6000000238,8069,WL,C,4.0
6,6.513999938964844,distr,53486.000061035156,Thu May 07 2026 16:16:51 GMT-0500 (Central Daylight Time),624405.5,B,christ,I,t,167,,1215.8999999761581,623189.6000000238,8069,WL,C,4.0
6,6.732000112533569,distr,53267.99988746643,Thu May 07 2026 16:16:51 GMT-0500 (Central Daylight Time),624623.5,B,christm,I,m,208,,1433.8999999761581,623189.6000000238,8069,WL,C,4.0
6,6.831000089645386,distr,53168.999910354614,Thu May 07 2026 16:16:51 GMT-0500 (Central Daylight Time),624722.6000000238,B,christma,I,a,86,,1533.0,623189.6000000238,8069,WL,C,4.0
6,7.064000129699707,distr,52935.99987030029,Thu May 07 2026 16:16:51 GMT-0500 (Central Daylight Time),624955.7000000477,B,christmas,I,s,227,,1766.1000000238419,623189.6000000238,8069,WL,C,4.0
6,7.430000066757202,distr,52569.9999332428,Thu May 07 2026 16:16:51 GMT-0500 (Central Daylight Time),625322.1000000238,B,christmasenter,I,enter,362,,2132.5,623189.6000000238,8069,WL,C,4.0
6,7.996999979019165,distr,52003.000020980835,Thu May 07 2026 16:16:51 GMT-0500 (Central Daylight Time),625888.6000000238,B,s,I,s,556,,566.1999999880791,625322.4000000358,8069,WL,C,5.0
6,8.213000059127808,distr,51786.99994087219,Thu May 07 2026 16:16:51 GMT-0500 (Central Daylight Time),626105.3000000119,B,sk,I,k,197,,782.8999999761581,625322.4000000358,8069,WL,C,5.0
6,8.513000011444092,distr,51486.99998855591,Thu May 07 2026 16:16:51 GMT-0500 (Central Daylight Time),626405.3000000119,B,sky,I,y,292,,1082.8999999761581,625322.4000000358,8069,WL,C,5.0
6,8.730000019073486,distr,51269.999980926514,Thu May 07 2026 16:16:51 GMT-0500 (Central Daylight Time),626621.7000000477,B,skyenter,I,enter,208,,1299.300000011921,625322.4000000358,8069,WL,C,5.0
6,8.94700002670288,distr,51052.99997329712,Thu May 07 2026 16:16:51 GMT-0500 (Central Daylight Time),626838.4000000358,B,d,I,d,208,,216.4000000357628,626622.0,8069,WL,C,6.0
6,9.046000003814697,distr,50953.9999961853,Thu May 07 2026 16:16:51 GMT-0500 (Central Daylight Time),626938.3000000119,B,di,I,i,79,,316.30000001192093,626622.0,8069,WL,C,6.0
6,9.19700002670288,distr,50802.99997329712,Thu May 07 2026 16:16:51 GMT-0500 (Central Daylight Time),627088.3000000119,B,dia,I,a,131,,466.30000001192093,626622.0,8069,WL,C,6.0
6,9.330000162124634,distr,50669.999837875366,Thu May 07 2026 16:16:51 GMT-0500 (Central Daylight Time),627221.6000000238,B,diam,I,m,125,,599.6000000238419,626622.0,8069,WL,C,6.0
6,9.52999997138977,distr,50470.00002861023,Thu May 07 2026 16:16:51 GMT-0500 (Central Daylight Time),627421.4000000358,B,diamo,I,o,184,,799.4000000357628,626622.0,8069,WL,C,6.0
6,9.663000106811523,distr,50336.99989318848,Thu May 07 2026 16:16:51 GMT-0500 (Central Daylight Time),627554.6000000238,B,diamon,I,n,128,,932.6000000238419,626622.0,8069,WL,C,6.0
6,9.77999997138977,distr,50220.00002861023,Thu May 07 2026 16:16:51 GMT-0500 (Central Daylight Time),627671.5,B,diamond,I,d,99,,1049.5,626622.0,8069,WL,C,6.0
6,10.279000043869019,distr,49720.99995613098,Thu May 07 2026 16:16:51 GMT-0500 (Central Daylight Time),628171.3000000119,B,diamondenter,I,enter,494,,1549.300000011921,626622.0,8069,WL,C,6.0
6,23.509000062942505,distr,36490.999937057495,Thu May 07 2026 16:16:51 GMT-0500 (Central Daylight Time),641400.6000000238,B,h,I,h,13211,,13229.0,628171.6000000238,8069,WL,C,7.0
6,23.674999952316284,distr,36325.000047683716,Thu May 07 2026 16:16:51 GMT-0500 (Central Daylight Time),641567.2000000477,B,ho,I,o,148,,13395.600000023842,628171.6000000238,8069,WL,C,7.0
6,23.89199995994568,distr,36108.00004005432,Thu May 07 2026 16:16:51 GMT-0500 (Central Daylight Time),641783.6000000238,B,hot,I,t,199,,13612.0,628171.6000000238,8069,WL,C,7.0
6,24.159000158309937,distr,35840.99984169006,Thu May 07 2026 16:16:51 GMT-0500 (Central Daylight Time),642050.5,B,hote,I,e,246,,13878.899999976158,628171.6000000238,8069,WL,C,7.0
6,24.258000135421753,distr,35741.99986457825,Thu May 07 2026 16:16:51 GMT-0500 (Central Daylight Time),642150.2000000477,B,hotel,I,l,91,,13978.600000023842,628171.6000000238,8069,WL,C,7.0
6,24.558000087738037,distr,35441.99991226196,Thu May 07 2026 16:16:51 GMT-0500 (Central Daylight Time),642450.3000000119,B,hotelenter,I,enter,280,,14278.699999988079,628171.6000000238,8069,WL,C,7.0
6,30.322999954223633,distr,29677.000045776367,Thu May 07 2026 16:16:51 GMT-0500 (Central Daylight Time),648215.1000000238,B,enter,I,enter,5756,,5764.5,642450.6000000238,8069,WL,C,8.0
6,30.624000072479248,distr,29375.999927520752,Thu May 07 2026 16:16:51 GMT-0500 (Central Daylight Time),648515.8000000119,B,enter,I,enter,294,,300.30000001192093,648215.5,8069,WL,C,9.0
6,30.789999961853027,distr,29210.000038146973,Thu May 07 2026 16:16:51 GMT-0500 (Central Daylight Time),648681.7000000477,B,enter,I,enter,154,,165.70000004768372,648516.0,8069,WL,C,10.0
6,30.957000017166138,distr,29042.999982833862,Thu May 07 2026 16:16:51 GMT-0500 (Central Daylight Time),648848.4000000358,B,enter,I,enter,156,,166.4000000357628,648682.0,8069,WL,C,11.0
6,31.322999954223633,distr,28677.000045776367,Thu May 07 2026 16:16:51 GMT-0500 (Central Daylight Time),649214.7000000477,B,enter,I,enter,349,,365.9000000357628,648848.8000000119,8069,WL,C,12.0
6,31.555999994277954,distr,28444.000005722046,Thu May 07 2026 16:16:51 GMT-0500 (Central Daylight Time),649448.1000000238,B,enter,I,enter,224,,232.89999997615814,649215.2000000477,8069,WL,C,13.0
6,31.9060001373291,distr,28093.9998626709,Thu May 07 2026 16:16:51 GMT-0500 (Central Daylight Time),649797.7000000477,B,enter,I,enter,342,,349.2000000476837,649448.5,8069,WL,C,14.0
6,32.33899998664856,distr,27661.00001335144,Thu May 07 2026 16:16:51 GMT-0500 (Central Daylight Time),650231.0,B,enter,I,enter,424,,432.89999997615814,649798.1000000238,8069,WL,C,15.0
7,4.615000009536743,immed,55384.99999046326,Thu May 07 2026 16:16:51 GMT-0500 (Central Daylight Time),656095.9000000358,A,t,I,t,4605,,4615.100000023842,651480.8000000119,8069,WL,C,1.0
7,4.697999954223633,immed,55302.00004577637,Thu May 07 2026 16:16:51 GMT-0500 (Central Daylight Time),656179.0,A,to,I,o,77,,4698.199999988079,651480.8000000119,8069,WL,C,1.0
7,4.832000017166138,immed,55167.99998283386,Thu May 07 2026 16:16:51 GMT-0500 (Central Daylight Time),656312.4000000358,A,tow,I,w,123,,4831.600000023842,651480.8000000119,8069,WL,C,1.0
7,5.065000057220459,immed,54934.99994277954,Thu May 07 2026 16:16:51 GMT-0500 (Central Daylight Time),656545.8000000119,A,towe,I,e,221,,5065.0,651480.8000000119,8069,WL,C,1.0
7,5.197999954223633,immed,54802.00004577637,Thu May 07 2026 16:16:51 GMT-0500 (Central Daylight Time),656679.1000000238,A,tower,I,r,116,,5198.300000011921,651480.8000000119,8069,WL,C,1.0
7,5.480999946594238,immed,54519.00005340576,Thu May 07 2026 16:16:51 GMT-0500 (Central Daylight Time),656962.2000000477,A,towerenter,I,enter,270,,5481.400000035763,651480.8000000119,8069,WL,C,1.0
7,5.831000089645386,immed,54168.999910354614,Thu May 07 2026 16:16:51 GMT-0500 (Central Daylight Time),657312.3000000119,A,w,I,w,340,,349.89999997615814,656962.4000000358,8069,WL,C,2.0
7,6.031000137329102,immed,53968.9998626709,Thu May 07 2026 16:16:51 GMT-0500 (Central Daylight Time),657512.1000000238,A,wh,I,h,189,,549.6999999880791,656962.4000000358,8069,WL,C,2.0
7,6.17900013923645,immed,53820.99986076355,Thu May 07 2026 16:16:51 GMT-0500 (Central Daylight Time),657661.9000000358,A,whe,I,e,141,,699.5,656962.4000000358,8069,WL,C,2.0
7,6.5290000438690186,immed,53470.99995613098,Thu May 07 2026 16:16:51 GMT-0500 (Central Daylight Time),658011.9000000358,A,whea,I,a,344,,1049.5,656962.4000000358,8069,WL,C,2.0
7,6.729000091552734,immed,53270.999908447266,Thu May 07 2026 16:16:51 GMT-0500 (Central Daylight Time),658211.9000000358,A,wheat,I,t,194,,1249.5,656962.4000000358,8069,WL,C,2.0
7,6.878999948501587,immed,53121.00005149841,Thu May 07 2026 16:16:51 GMT-0500 (Central Daylight Time),658361.9000000358,A,wheatenter,I,enter,130,,1399.5,656962.4000000358,8069,WL,C,2.0
7,7.197000026702881,immed,52802.99997329712,Thu May 07 2026 16:16:51 GMT-0500 (Central Daylight Time),658680.0,A,q,I,q,300,,317.7999999523163,658362.2000000477,8069,WL,C,3.0
7,7.295000076293945,immed,52704.999923706055,Thu May 07 2026 16:16:51 GMT-0500 (Central Daylight Time),658778.1000000238,A,qu,I,u,77,,415.89999997615814,658362.2000000477,8069,WL,C,3.0
7,7.611999988555908,immed,52388.00001144409,Thu May 07 2026 16:16:51 GMT-0500 (Central Daylight Time),659094.7000000477,A,que,I,e,306,,732.5,658362.2000000477,8069,WL,C,3.0
7,7.778000116348267,immed,52221.99988365173,Thu May 07 2026 16:16:51 GMT-0500 (Central Daylight Time),659261.1000000238,A,quee,I,e,150,,898.8999999761581,658362.2000000477,8069,WL,C,3.0
7,7.894999980926514,immed,52105.000019073486,Thu May 07 2026 16:16:51 GMT-0500 (Central Daylight Time),659378.1000000238,A,queen,I,n,96,,1015.8999999761581,658362.2000000477,8069,WL,C,3.0
7,8.263000011444092,immed,51736.99998855591,Thu May 07 2026 16:16:51 GMT-0500 (Central Daylight Time),659745.9000000358,A,queenenter,I,enter,355,,1383.699999988079,658362.2000000477,8069,WL,C,3.0
7,9.628000020980835,immed,50371.999979019165,Thu May 07 2026 16:16:51 GMT-0500 (Central Daylight Time),661110.7000000477,A,c,I,c,1357,,1364.4000000357628,659746.3000000119,8069,WL,C,4.0
7,9.710999965667725,immed,50289.000034332275,Thu May 07 2026 16:16:51 GMT-0500 (Central Daylight Time),661194.1000000238,A,co,I,o,77,,1447.800000011921,659746.3000000119,8069,WL,C,4.0
7,9.894999980926514,immed,50105.000019073486,Thu May 07 2026 16:16:51 GMT-0500 (Central Daylight Time),661377.8000000119,A,cor,I,r,164,,1631.5,659746.3000000119,8069,WL,C,4.0
7,10.028000116348267,immed,49971.99988365173,Thu May 07 2026 16:16:51 GMT-0500 (Central Daylight Time),661511.0,A,corn,I,n,117,,1764.699999988079,659746.3000000119,8069,WL,C,4.0
7,10.361000061035156,immed,49638.999938964844,Thu May 07 2026 16:16:51 GMT-0500 (Central Daylight Time),661844.3000000119,A,cornenter,I,enter,319,,2098.0,659746.3000000119,8069,WL,C,4.0
7,10.794000148773193,immed,49205.99985122681,Thu May 07 2026 16:16:51 GMT-0500 (Central Daylight Time),662277.3000000119,A,s,I,s,417,,432.69999998807907,661844.6000000238,8069,WL,C,5.0
7,10.960999965667725,immed,49039.000034332275,Thu May 07 2026 16:16:51 GMT-0500 (Central Daylight Time),662443.8000000119,A,su,I,u,152,,599.1999999880791,661844.6000000238,8069,WL,C,5.0
7,11.226999998092651,immed,48773.00000190735,Thu May 07 2026 16:16:51 GMT-0500 (Central Daylight Time),662710.4000000358,A,sug,I,g,250,,865.8000000119209,661844.6000000238,8069,WL,C,5.0
7,11.444000005722046,immed,48555.999994277954,Thu May 07 2026 16:16:51 GMT-0500 (Central Daylight Time),662927.0,A,suga,I,a,207,,1082.3999999761581,661844.6000000238,8069,WL,C,5.0
7,11.56000018119812,immed,48439.99981880188,Thu May 07 2026 16:16:51 GMT-0500 (Central Daylight Time),663043.5,A,sugar,I,r,103,,1198.8999999761581,661844.6000000238,8069,WL,C,5.0
7,11.894000053405762,immed,48105.99994659424,Thu May 07 2026 16:16:51 GMT-0500 (Central Daylight Time),663377.1000000238,A,sugarenter,I,enter,323,,1532.5,661844.6000000238,8069,WL,C,5.0
7,14.493000030517578,immed,45506.99996948242,Thu May 07 2026 16:16:51 GMT-0500 (Central Daylight Time),665975.9000000358,A,f,I,f,2588,,2598.400000035763,663377.5,8069,WL,C,6.0
7,14.608999967575073,immed,45391.00003242493,Thu May 07 2026 16:16:51 GMT-0500 (Central Daylight Time),666092.5,A,fl,I,l,109,,2715.0,663377.5,8069,WL,C,6.0
7,14.710000038146973,immed,45289.99996185303,Thu May 07 2026 16:16:51 GMT-0500 (Central Daylight Time),666192.9000000358,A,fla,I,a,89,,2815.400000035763,663377.5,8069,WL,C,6.0
7,14.843000173568726,immed,45156.999826431274,Thu May 07 2026 16:16:51 GMT-0500 (Central Daylight Time),666325.9000000358,A,flag,I,g,117,,2948.400000035763,663377.5,8069,WL,C,6.0
7,15.093000173568726,immed,44906.999826431274,Thu May 07 2026 16:16:51 GMT-0500 (Central Daylight Time),666575.9000000358,A,flagenter,I,enter,232,,3198.400000035763,663377.5,8069,WL,C,6.0
7,15.909000158309937,immed,44090.99984169006,Thu May 07 2026 16:16:51 GMT-0500 (Central Daylight Time),667392.3000000119,A,d,I,d,806,,816.0999999642372,666576.2000000477,8069,WL,C,7.0
7,15.992000102996826,immed,44007.999897003174,Thu May 07 2026 16:16:51 GMT-0500 (Central Daylight Time),667475.2000000477,A,do,I,o,78,,899.0,666576.2000000477,8069,WL,C,7.0
7,16.14300012588501,immed,43856.99987411499,Thu May 07 2026 16:16:51 GMT-0500 (Central Daylight Time),667625.7000000477,A,doc,I,c,139,,1049.5,666576.2000000477,8069,WL,C,7.0
7,16.37600016593933,immed,43623.99983406067,Thu May 07 2026 16:16:51 GMT-0500 (Central Daylight Time),667859.0,A,doct,I,t,220,,1282.7999999523163,666576.2000000477,8069,WL,C,7.0
7,16.45900011062622,immed,43540.99988937378,Thu May 07 2026 16:16:51 GMT-0500 (Central Daylight Time),667942.4000000358,A,docto,I,o,75,,1366.199999988079,666576.2000000477,8069,WL,C,7.0
7,16.592000007629395,immed,43407.999992370605,Thu May 07 2026 16:16:51 GMT-0500 (Central Daylight Time),668075.5,A,doctor,I,r,127,,1499.2999999523163,666576.2000000477,8069,WL,C,7.0
7,16.924999952316284,immed,43075.000047683716,Thu May 07 2026 16:16:51 GMT-0500 (Central Daylight Time),668408.6000000238,A,doctorenter,I,enter,322,,1832.3999999761581,666576.2000000477,8069,WL,C,7.0
7,17.242000102996826,immed,42757.999897003174,Thu May 07 2026 16:16:51 GMT-0500 (Central Daylight Time),668725.3000000119,A,l,I,l,301,,316.30000001192093,668409.0,8069,WL,C,8.0
7,17.343000173568726,immed,42656.999826431274,Thu May 07 2026 16:16:51 GMT-0500 (Central Daylight Time),668826.3000000119,A,le,I,e,79,,417.30000001192093,668409.0,8069,WL,C,8.0
7,17.55900001525879,immed,42440.99998474121,Thu May 07 2026 16:16:51 GMT-0500 (Central Daylight Time),669042.0,A,let,I,t,203,,633.0,668409.0,8069,WL,C,8.0
7,17.692000150680542,immed,42307.99984931946,Thu May 07 2026 16:16:51 GMT-0500 (Central Daylight Time),669175.0,A,lett,I,t,124,,766.0,668409.0,8069,WL,C,8.0
7,17.875,immed,42125.0,Thu May 07 2026 16:16:51 GMT-0500 (Central Daylight Time),669358.4000000358,A,lette,I,e,174,,949.4000000357628,668409.0,8069,WL,C,8.0
7,17.95900011062622,immed,42040.99988937378,Thu May 07 2026 16:16:51 GMT-0500 (Central Daylight Time),669441.7000000477,A,letter,I,r,63,,1032.7000000476837,668409.0,8069,WL,C,8.0
7,18.05900001525879,immed,41940.99998474121,Thu May 07 2026 16:16:51 GMT-0500 (Central Daylight Time),669541.7000000477,A,letterenter,I,enter,85,,1132.7000000476837,668409.0,8069,WL,C,8.0
7,18.409000158309937,immed,41590.99984169006,Thu May 07 2026 16:16:51 GMT-0500 (Central Daylight Time),669891.7000000477,A,b,I,b,336,,349.7000000476837,669542.0,8069,WL,C,9.0
7,18.45800018310547,immed,41541.99981689453,Thu May 07 2026 16:16:51 GMT-0500 (Central Daylight Time),669941.5,A,bo,I,o,42,,399.5,669542.0,8069,WL,C,9.0
7,18.64199995994568,immed,41358.00004005432,Thu May 07 2026 16:16:51 GMT-0500 (Central Daylight Time),670124.7000000477,A,bod,I,d,176,,582.7000000476837,669542.0,8069,WL,C,9.0
7,18.842000007629395,immed,41157.999992370605,Thu May 07 2026 16:16:51 GMT-0500 (Central Daylight Time),670324.9000000358,A,body,I,y,185,,782.9000000357628,669542.0,8069,WL,C,9.0
7,19.125,immed,40875.0,Thu May 07 2026 16:16:51 GMT-0500 (Central Daylight Time),670608.0,A,bodyenter,I,enter,273,,1066.0,669542.0,8069,WL,C,9.0
7,21.692000150680542,immed,38307.99984931946,Thu May 07 2026 16:16:51 GMT-0500 (Central Daylight Time),673175.0,A,s,I,s,2551,,2566.699999988079,670608.3000000119,8069,WL,C,10.0
7,21.807000160217285,immed,38192.999839782715,Thu May 07 2026 16:16:51 GMT-0500 (Central Daylight Time),673290.4000000358,A,sh,I,h,102,,2682.100000023842,670608.3000000119,8069,WL,C,10.0
7,21.891000032424927,immed,38108.99996757507,Thu May 07 2026 16:16:51 GMT-0500 (Central Daylight Time),673373.8000000119,A,sho,I,o,75,,2765.5,670608.3000000119,8069,WL,C,10.0
7,22.006999969482422,immed,37993.00003051758,Thu May 07 2026 16:16:51 GMT-0500 (Central Daylight Time),673490.3000000119,A,shor,I,r,112,,2882.0,670608.3000000119,8069,WL,C,10.0
7,22.124000072479248,immed,37875.99992752075,Thu May 07 2026 16:16:51 GMT-0500 (Central Daylight Time),673607.0,A,shore,I,e,99,,2998.699999988079,670608.3000000119,8069,WL,C,10.0
7,22.407000064849854,immed,37592.99993515015,Thu May 07 2026 16:16:51 GMT-0500 (Central Daylight Time),673890.6000000238,A,shoreenter,I,enter,270,,3282.300000011921,670608.3000000119,8069,WL,C,10.0
7,22.822999954223633,immed,37177.00004577637,Thu May 07 2026 16:16:51 GMT-0500 (Central Daylight Time),674306.5,A,c,I,c,403,,415.69999998807907,673890.8000000119,8069,WL,C,11.0
7,23.02400016784668,immed,36975.99983215332,Thu May 07 2026 16:16:51 GMT-0500 (Central Daylight Time),674507.0,A,ca,I,a,178,,616.1999999880791,673890.8000000119,8069,WL,C,11.0
7,23.140000104904175,immed,36859.999895095825,Thu May 07 2026 16:16:51 GMT-0500 (Central Daylight Time),674623.2000000477,A,cat,I,t,106,,732.4000000357628,673890.8000000119,8069,WL,C,11.0
7,23.27400016784668,immed,36725.99983215332,Thu May 07 2026 16:16:51 GMT-0500 (Central Daylight Time),674756.6000000238,A,catt,I,t,127,,865.8000000119209,673890.8000000119,8069,WL,C,11.0
7,23.407000064849854,immed,36592.99993515015,Thu May 07 2026 16:16:51 GMT-0500 (Central Daylight Time),674889.8000000119,A,cattl,I,l,128,,999.0,673890.8000000119,8069,WL,C,11.0
7,23.490000009536743,immed,36509.99999046326,Thu May 07 2026 16:16:51 GMT-0500 (Central Daylight Time),674973.1000000238,A,cattle,I,e,76,,1082.300000011921,673890.8000000119,8069,WL,C,11.0
7,23.707000017166138,immed,36292.99998283386,Thu May 07 2026 16:16:51 GMT-0500 (Central Daylight Time),675190.1000000238,A,cattleenter,I,enter,201,,1299.300000011921,673890.8000000119,8069,WL,C,11.0
7,32.12100005149841,immed,27878.999948501587,Thu May 07 2026 16:16:51 GMT-0500 (Central Daylight Time),683603.8000000119,A,n,I,n,8409,,8413.399999976158,675190.4000000358,8069,WL,C,12.0
7,32.28800010681152,immed,27711.999893188477,Thu May 07 2026 16:16:51 GMT-0500 (Central Daylight Time),683770.6000000238,A,na,I,a,145,,8580.199999988079,675190.4000000358,8069,WL,C,12.0
7,32.38900017738342,immed,27610.999822616577,Thu May 07 2026 16:16:51 GMT-0500 (Central Daylight Time),683871.8000000119,A,nai,I,i,91,,8681.399999976158,675190.4000000358,8069,WL,C,12.0
7,32.604000091552734,immed,27395.999908447266,Thu May 07 2026 16:16:51 GMT-0500 (Central Daylight Time),684087.3000000119,A,nail,I,l,197,,8896.899999976158,675190.4000000358,8069,WL,C,12.0
7,33.098999977111816,immed,26901.000022888184,Thu May 07 2026 16:16:51 GMT-0500 (Central Daylight Time),684582.1000000238,A,nailenter,I,enter,490,,9391.699999988079,675190.4000000358,8069,WL,C,12.0
7,39.97000002861023,immed,20029.99997138977,Thu May 07 2026 16:16:51 GMT-0500 (Central Daylight Time),691452.6000000238,A,c,I,c,6863,,6870.300000011921,684582.3000000119,8069,WL,C,13.0
