block_c,block_dur,condition,countdown,datetime,endtime,list,multichar_response,project,response,response_time,session_number,start_end,starttime,subject_id,task,task_vers,trial
,,,,Fri Jan 02 2026 16:01:04 GMT-0600 (Central Standard Time),,,,I,space,535,2,,,8069,WL,A,
prac,,0,,Fri Jan 02 2026 16:01:04 GMT-0600 (Central Standard Time),,NA,b,I,b,4038,2,,,8069,WL,A,1.0
prac,,0,,Fri Jan 02 2026 16:01:04 GMT-0600 (Central Standard Time),,NA,bo,I,o,322,2,,,8069,WL,A,1.0
prac,,0,,Fri Jan 02 2026 16:01:04 GMT-0600 (Central Standard Time),,NA,boo,I,o,141,2,,,8069,WL,A,1.0
prac,,0,,Fri Jan 02 2026 16:01:04 GMT-0600 (Central Standard Time),,NA,boos,I,s,191,2,,,8069,WL,A,1.0
prac,,0,,Fri Jan 02 2026 16:01:04 GMT-0600 (Central Standard Time),,NA,boost,I,t,271,2,,,8069,WL,A,1.0
prac,,0,,Fri Jan 02 2026 16:01:04 GMT-0600 (Central Standard Time),,NA,boostenter,I,enter,988,2,,,8069,WL,A,1.0
1,1.2990000247955322,learn,58700.99997520447,Fri Jan 02 2026 16:01:04 GMT-0600 (Central Standard Time),94939.59999990463,A,b,I,b,1282,2,1298.7999999523163,93640.79999995232,8069,WL,A,1.0
1,1.432999849319458,learn,58567.00015068054,Fri Jan 02 2026 16:01:04 GMT-0600 (Central Standard Time),95073.0,A,bo,I,o,125,2,1432.2000000476837,93640.79999995232,8069,WL,A,1.0
1,1.6319999694824219,learn,58368.00003051758,Fri Jan 02 2026 16:01:04 GMT-0600 (Central Standard Time),95272.79999995232,A,boo,I,o,178,2,1632.0,93640.79999995232,8069,WL,A,1.0
1,1.9159998893737793,learn,58084.00011062622,Fri Jan 02 2026 16:01:04 GMT-0600 (Central Standard Time),95556.09999990463,A,book,I,k,266,2,1915.2999999523163,93640.79999995232,8069,WL,A,1.0
1,2.299999952316284,learn,57700.000047683716,Fri Jan 02 2026 16:01:04 GMT-0600 (Central Standard Time),95939.89999997616,A,bookenter,I,enter,367,2,2299.100000023842,93640.79999995232,8069,WL,A,1.0
1,2.7990000247955322,learn,57200.99997520447,Fri Jan 02 2026 16:01:04 GMT-0600 (Central Standard Time),96439.59999990463,A,f,I,f,487,2,499.2999999523163,95940.29999995232,8069,WL,A,2.0
1,2.8989999294281006,learn,57101.0000705719,Fri Jan 02 2026 16:01:04 GMT-0600 (Central Standard Time),96539.59999990463,A,fl,I,l,92,2,599.2999999523163,95940.29999995232,8069,WL,A,2.0
1,3.115999937057495,learn,56884.000062942505,Fri Jan 02 2026 16:01:04 GMT-0600 (Central Standard Time),96756.19999992847,A,flo,I,o,208,2,815.8999999761581,95940.29999995232,8069,WL,A,2.0
1,3.248999834060669,learn,56751.00016593933,Fri Jan 02 2026 16:01:04 GMT-0600 (Central Standard Time),96889.0,A,flow,I,w,128,2,948.7000000476837,95940.29999995232,8069,WL,A,2.0
1,4.016000032424927,learn,55983.99996757507,Fri Jan 02 2026 16:01:04 GMT-0600 (Central Standard Time),97655.79999995232,A,flowe,I,e,747,2,1715.5,95940.29999995232,8069,WL,A,2.0
1,4.164999961853027,learn,55835.00003814697,Fri Jan 02 2026 16:01:04 GMT-0600 (Central Standard Time),97805.69999992847,A,flower,I,r,131,2,1865.3999999761581,95940.29999995232,8069,WL,A,2.0
1,4.348999977111816,learn,55651.00002288818,Fri Jan 02 2026 16:01:04 GMT-0600 (Central Standard Time),97989.0,A,flowerenter,I,enter,166,2,2048.7000000476837,95940.29999995232,8069,WL,A,2.0
1,4.599999904632568,learn,55400.00009536743,Fri Jan 02 2026 16:01:04 GMT-0600 (Central Standard Time),98240.29999995232,A,t,I,t,231,2,250.79999995231628,97989.5,8069,WL,A,3.0
1,4.832000017166138,learn,55167.99998283386,Fri Jan 02 2026 16:01:04 GMT-0600 (Central Standard Time),98472.29999995232,A,tr,I,r,210,2,482.7999999523163,97989.5,8069,WL,A,3.0
1,4.947999954223633,learn,55052.00004577637,Fri Jan 02 2026 16:01:04 GMT-0600 (Central Standard Time),98588.79999995232,A,tra,I,a,108,2,599.2999999523163,97989.5,8069,WL,A,3.0
1,5.082000017166138,learn,54917.99998283386,Fri Jan 02 2026 16:01:04 GMT-0600 (Central Standard Time),98722.09999990463,A,trai,I,i,119,2,732.5999999046326,97989.5,8069,WL,A,3.0
1,5.2149999141693115,learn,54785.00008583069,Fri Jan 02 2026 16:01:04 GMT-0600 (Central Standard Time),98855.5,A,train,I,n,114,2,866.0,97989.5,8069,WL,A,3.0
1,5.497999906539917,learn,54502.00009346008,Fri Jan 02 2026 16:01:04 GMT-0600 (Central Standard Time),99138.29999995232,A,trainenter,I,enter,277,2,1148.7999999523163,97989.5,8069,WL,A,3.0
1,5.747999906539917,learn,54252.00009346008,Fri Jan 02 2026 16:01:04 GMT-0600 (Central Standard Time),99388.39999997616,A,r,I,r,234,2,249.70000004768372,99138.69999992847,8069,WL,A,4.0
1,5.931999921798706,learn,54068.000078201294,Fri Jan 02 2026 16:01:04 GMT-0600 (Central Standard Time),99572.19999992847,A,ru,I,u,168,2,433.5,99138.69999992847,8069,WL,A,4.0
1,6.164999961853027,learn,53835.00003814697,Fri Jan 02 2026 16:01:04 GMT-0600 (Central Standard Time),99805.19999992847,A,rug,I,g,224,2,666.5,99138.69999992847,8069,WL,A,4.0
1,6.363999843597412,learn,53636.00015640259,Fri Jan 02 2026 16:01:04 GMT-0600 (Central Standard Time),100004.79999995232,A,rugenter,I,enter,183,2,866.1000000238419,99138.69999992847,8069,WL,A,4.0
1,6.680999994277954,learn,53319.000005722046,Fri Jan 02 2026 16:01:04 GMT-0600 (Central Standard Time),100321.5,A,m,I,m,303,2,316.3000000715256,100005.19999992847,8069,WL,A,5.0
1,6.797999858856201,learn,53202.0001411438,Fri Jan 02 2026 16:01:04 GMT-0600 (Central Standard Time),100438.39999997616,A,me,I,e,107,2,433.2000000476837,100005.19999992847,8069,WL,A,5.0
1,6.880999803543091,learn,53119.00019645691,Fri Jan 02 2026 16:01:04 GMT-0600 (Central Standard Time),100521.5,A,mea,I,a,70,2,516.3000000715256,100005.19999992847,8069,WL,A,5.0
1,7.130999803543091,learn,52869.00019645691,Fri Jan 02 2026 16:01:04 GMT-0600 (Central Standard Time),100771.69999992847,A,mead,I,d,235,2,766.5,100005.19999992847,8069,WL,A,5.0
1,7.247999906539917,learn,52752.00009346008,Fri Jan 02 2026 16:01:04 GMT-0600 (Central Standard Time),100888.39999997616,A,meado,I,o,96,2,883.2000000476837,100005.19999992847,8069,WL,A,5.0
1,7.697999954223633,learn,52302.00004577637,Fri Jan 02 2026 16:01:04 GMT-0600 (Central Standard Time),101338.09999990463,A,meadow,I,w,436,2,1332.8999999761581,100005.19999992847,8069,WL,A,5.0
1,8.46399998664856,learn,51536.00001335144,Fri Jan 02 2026 16:01:04 GMT-0600 (Central Standard Time),102104.39999997616,A,meadowenter,I,enter,745,2,2099.2000000476837,100005.19999992847,8069,WL,A,5.0
1,8.63099980354309,learn,51369.00019645691,Fri Jan 02 2026 16:01:04 GMT-0600 (Central Standard Time),102271.19999992847,A,g,I,g,156,2,166.39999997615814,102104.79999995232,8069,WL,A,6.0
1,8.714999914169312,learn,51285.00008583069,Fri Jan 02 2026 16:01:04 GMT-0600 (Central Standard Time),102355.39999997616,A,go,I,o,77,2,250.60000002384186,102104.79999995232,8069,WL,A,6.0
1,8.96399998664856,learn,51036.00001335144,Fri Jan 02 2026 16:01:04 GMT-0600 (Central Standard Time),102604.19999992847,A,gol,I,l,232,2,499.39999997615814,102104.79999995232,8069,WL,A,6.0
1,9.063999891281128,learn,50936.00010871887,Fri Jan 02 2026 16:01:04 GMT-0600 (Central Standard Time),102703.89999997616,A,gold,I,d,79,2,599.1000000238419,102104.79999995232,8069,WL,A,6.0
1,9.246999979019165,learn,50753.000020980835,Fri Jan 02 2026 16:01:04 GMT-0600 (Central Standard Time),102887.59999990463,A,goldenter,I,enter,172,2,782.7999999523163,102104.79999995232,8069,WL,A,6.0
1,9.496999979019165,learn,50503.000020980835,Fri Jan 02 2026 16:01:04 GMT-0600 (Central Standard Time),103137.5,A,a,I,a,228,2,249.5,102888.0,8069,WL,A,7.0
1,9.829999923706055,learn,50170.000076293945,Fri Jan 02 2026 16:01:04 GMT-0600 (Central Standard Time),103470.5,A,ap,I,p,313,2,582.5,102888.0,8069,WL,A,7.0
1,10.013999938964844,learn,49986.000061035156,Fri Jan 02 2026 16:01:04 GMT-0600 (Central Standard Time),103654.0,A,app,I,p,166,2,766.0,102888.0,8069,WL,A,7.0
1,10.264999866485596,learn,49735.000133514404,Fri Jan 02 2026 16:01:04 GMT-0600 (Central Standard Time),103905.0,A,appl,I,l,247,2,1017.0,102888.0,8069,WL,A,7.0
1,10.396999835968018,learn,49603.00016403198,Fri Jan 02 2026 16:01:04 GMT-0600 (Central Standard Time),104037.19999992847,A,apple,I,e,116,2,1149.1999999284744,102888.0,8069,WL,A,7.0
1,10.730000019073486,learn,49269.999980926514,Fri Jan 02 2026 16:01:04 GMT-0600 (Central Standard Time),104370.19999992847,A,appleenter,I,enter,319,2,1482.1999999284744,102888.0,8069,WL,A,7.0
1,10.962999820709229,learn,49037.00017929077,Fri Jan 02 2026 16:01:04 GMT-0600 (Central Standard Time),104603.69999992847,A,s,I,s,226,2,233.10000002384186,104370.59999990463,8069,WL,A,8.0
1,11.129999876022339,learn,48870.00012397766,Fri Jan 02 2026 16:01:04 GMT-0600 (Central Standard Time),104770.19999992847,A,sa,I,a,152,2,399.60000002384186,104370.59999990463,8069,WL,A,8.0
1,11.263000011444092,learn,48736.99998855591,Fri Jan 02 2026 16:01:04 GMT-0600 (Central Standard Time),104903.69999992847,A,sal,I,l,122,2,533.1000000238419,104370.59999990463,8069,WL,A,8.0
1,11.562999963760376,learn,48437.000036239624,Fri Jan 02 2026 16:01:04 GMT-0600 (Central Standard Time),105203.5,A,salt,I,t,293,2,832.9000000953674,104370.59999990463,8069,WL,A,8.0
1,11.929999828338623,learn,48070.00017166138,Fri Jan 02 2026 16:01:04 GMT-0600 (Central Standard Time),105570.09999990463,A,saltenter,I,enter,353,2,1199.5,104370.59999990463,8069,WL,A,8.0
1,13.661999940872192,learn,46338.00005912781,Fri Jan 02 2026 16:01:04 GMT-0600 (Central Standard Time),107302.79999995232,A,t,I,t,1722,2,1732.2999999523163,105570.5,8069,WL,A,9.0
1,13.928999900817871,learn,46071.00009918213,Fri Jan 02 2026 16:01:04 GMT-0600 (Central Standard Time),107569.29999995232,A,tr,I,r,254,2,1998.7999999523163,105570.5,8069,WL,A,9.0
1,14.078999996185303,learn,45921.0000038147,Fri Jan 02 2026 16:01:04 GMT-0600 (Central Standard Time),107719.29999995232,A,tra,I,a,131,2,2148.7999999523163,105570.5,8069,WL,A,9.0
1,14.228999853134155,learn,45771.000146865845,Fri Jan 02 2026 16:01:04 GMT-0600 (Central Standard Time),107869.09999990463,A,trai,I,i,133,2,2298.5999999046326,105570.5,8069,WL,A,9.0
1,14.361999988555908,learn,45638.00001144409,Fri Jan 02 2026 16:01:04 GMT-0600 (Central Standard Time),108002.5,A,train,I,n,120,2,2432.0,105570.5,8069,WL,A,9.0
1,14.728999853134155,learn,45271.000146865845,Fri Jan 02 2026 16:01:04 GMT-0600 (Central Standard Time),108369.19999992847,A,trainenter,I,enter,354,2,2798.6999999284744,105570.5,8069,WL,A,9.0
1,16.244999885559082,learn,43755.00011444092,Fri Jan 02 2026 16:01:04 GMT-0600 (Central Standard Time),109885.19999992847,A,r,I,r,1499,2,1515.6000000238419,108369.59999990463,8069,WL,A,10.0
1,16.360999822616577,learn,43639.00017738342,Fri Jan 02 2026 16:01:04 GMT-0600 (Central Standard Time),110001.59999990463,A,ru,I,u,111,2,1632.0,108369.59999990463,8069,WL,A,10.0
1,16.611999988555908,learn,43388.00001144409,Fri Jan 02 2026 16:01:04 GMT-0600 (Central Standard Time),110251.79999995232,A,rug,I,g,243,2,1882.2000000476837,108369.59999990463,8069,WL,A,10.0
1,16.878000020980835,learn,43121.999979019165,Fri Jan 02 2026 16:01:04 GMT-0600 (Central Standard Time),110518.29999995232,A,rugenter,I,enter,256,2,2148.7000000476837,108369.59999990463,8069,WL,A,10.0
1,24.490999937057495,learn,35509.000062942505,Fri Jan 02 2026 16:01:04 GMT-0600 (Central Standard Time),118132.5,A,k,I,k,7598,2,7613.800000071526,110518.69999992847,8069,WL,A,11.0
1,24.641000032424927,learn,35358.99996757507,Fri Jan 02 2026 16:01:04 GMT-0600 (Central Standard Time),118282.39999997616,A,ke,I,e,145,2,7763.700000047684,110518.69999992847,8069,WL,A,11.0
1,24.840999841690063,learn,35159.00015830994,Fri Jan 02 2026 16:01:04 GMT-0600 (Central Standard Time),118482.39999997616,A,key,I,y,186,2,7963.700000047684,110518.69999992847,8069,WL,A,11.0
1,25.19099998474121,learn,34809.00001525879,Fri Jan 02 2026 16:01:04 GMT-0600 (Central Standard Time),118832.59999990463,A,keyenter,I,enter,330,2,8313.899999976158,110518.69999992847,8069,WL,A,11.0
1,25.45799994468689,learn,34542.00005531311,Fri Jan 02 2026 16:01:04 GMT-0600 (Central Standard Time),119099.09999990463,A,g,I,g,252,2,266.2999999523163,118832.79999995232,8069,WL,A,12.0
1,25.556999921798706,learn,34443.000078201294,Fri Jan 02 2026 16:01:04 GMT-0600 (Central Standard Time),119198.89999997616,A,go,I,o,81,2,366.10000002384186,118832.79999995232,8069,WL,A,12.0
1,25.807999849319458,learn,34192.00015068054,Fri Jan 02 2026 16:01:04 GMT-0600 (Central Standard Time),119449.0,A,gol,I,l,229,2,616.2000000476837,118832.79999995232,8069,WL,A,12.0
1,25.924000024795532,learn,34075.99997520447,Fri Jan 02 2026 16:01:04 GMT-0600 (Central Standard Time),119565.59999990463,A,gold,I,d,107,2,732.7999999523163,118832.79999995232,8069,WL,A,12.0
1,26.625,learn,33375.0,Fri Jan 02 2026 16:01:04 GMT-0600 (Central Standard Time),120266.39999997616,A,goldenter,I,enter,679,2,1433.6000000238419,118832.79999995232,8069,WL,A,12.0
1,35.537999868392944,learn,24462.000131607056,Fri Jan 02 2026 16:01:04 GMT-0600 (Central Standard Time),129178.89999997616,A,f,I,f,8898,2,8912.200000047684,120266.69999992847,8069,WL,A,13.0
1,35.620999813079834,learn,24379.000186920166,Fri Jan 02 2026 16:01:04 GMT-0600 (Central Standard Time),129262.29999995232,A,fl,I,l,71,2,8995.600000023842,120266.69999992847,8069,WL,A,13.0
1,35.83799982070923,learn,24162.00017929077,Fri Jan 02 2026 16:01:04 GMT-0600 (Central Standard Time),129479.19999992847,A,flo,I,o,207,2,9212.5,120266.69999992847,8069,WL,A,13.0
1,35.90499997138977,learn,24095.00002861023,Fri Jan 02 2026 16:01:04 GMT-0600 (Central Standard Time),129546.0,A,flow,I,w,53,2,9279.300000071526,120266.69999992847,8069,WL,A,13.0
1,36.1710000038147,learn,23828.999996185303,Fri Jan 02 2026 16:01:04 GMT-0600 (Central Standard Time),129812.5,A,flowe,I,e,258,2,9545.800000071526,120266.69999992847,8069,WL,A,13.0
1,36.30399990081787,learn,23696.00009918213,Fri Jan 02 2026 16:01:04 GMT-0600 (Central Standard Time),129945.59999990463,A,flower,I,r,120,2,9678.899999976158,120266.69999992847,8069,WL,A,13.0
1,36.47099995613098,learn,23529.00004386902,Fri Jan 02 2026 16:01:04 GMT-0600 (Central Standard Time),130112.0,A,flowerenter,I,enter,155,2,9845.300000071526,120266.69999992847,8069,WL,A,13.0
1,49.89999985694885,learn,10100.000143051147,Fri Jan 02 2026 16:01:04 GMT-0600 (Central Standard Time),143541.39999997616,A,enter,I,enter,13421,2,13429.100000023842,130112.29999995232,8069,WL,A,14.0
1,51.0,learn,9000.0,Fri Jan 02 2026 16:01:04 GMT-0600 (Central Standard Time),144641.0,A,enter,I,enter,1079,2,1099.3000000715256,143541.69999992847,8069,WL,A,15.0
2,0.9169998168945312,learn,59083.00018310547,Fri Jan 02 2026 16:01:04 GMT-0600 (Central Standard Time),215552.0,A,c,I,c,897,2,916.5,214635.5,8069,WL,A,1.0
2,1.0169999599456787,learn,58983.00004005432,Fri Jan 02 2026 16:01:04 GMT-0600 (Central Standard Time),215652.29999995232,A,ch,I,h,90,2,1016.7999999523163,214635.5,8069,WL,A,1.0
2,1.182999849319458,learn,58817.00015068054,Fri Jan 02 2026 16:01:04 GMT-0600 (Central Standard Time),215818.59999990463,A,chi,I,i,160,2,1183.0999999046326,214635.5,8069,WL,A,1.0
2,1.4159998893737793,learn,58584.00011062622,Fri Jan 02 2026 16:01:04 GMT-0600 (Central Standard Time),216051.69999992847,A,chim,I,m,226,2,1416.1999999284744,214635.5,8069,WL,A,1.0
2,1.9499998092651367,learn,58050.00019073486,Fri Jan 02 2026 16:01:04 GMT-0600 (Central Standard Time),216585.29999995232,A,chimn,I,n,513,2,1949.7999999523163,214635.5,8069,WL,A,1.0
2,2.132999897003174,learn,57867.000102996826,Fri Jan 02 2026 16:01:04 GMT-0600 (Central Standard Time),216768.79999995232,A,chimne,I,e,171,2,2133.2999999523163,214635.5,8069,WL,A,1.0
2,2.315999984741211,learn,57684.00001525879,Fri Jan 02 2026 16:01:04 GMT-0600 (Central Standard Time),216951.59999990463,A,chimney,I,y,163,2,2316.0999999046326,214635.5,8069,WL,A,1.0
2,3.132999897003174,learn,56867.000102996826,Fri Jan 02 2026 16:01:04 GMT-0600 (Central Standard Time),217768.19999992847,A,chimneyenter,I,enter,796,2,3132.6999999284744,214635.5,8069,WL,A,1.0
2,3.7819998264312744,learn,56218.000173568726,Fri Jan 02 2026 16:01:04 GMT-0600 (Central Standard Time),218417.59999990463,A,g,I,g,644,2,649.0,217768.59999990463,8069,WL,A,2.0
2,3.9159998893737793,learn,56084.00011062622,Fri Jan 02 2026 16:01:04 GMT-0600 (Central Standard Time),218551.59999990463,A,go,I,o,115,2,783.0,217768.59999990463,8069,WL,A,2.0
2,4.181999921798706,learn,55818.000078201294,Fri Jan 02 2026 16:01:04 GMT-0600 (Central Standard Time),218817.69999992847,A,gol,I,l,253,2,1049.1000000238419,217768.59999990463,8069,WL,A,2.0
2,4.31499981880188,learn,55685.00018119812,Fri Jan 02 2026 16:01:04 GMT-0600 (Central Standard Time),218950.89999997616,A,gold,I,d,123,2,1182.3000000715256,217768.59999990463,8069,WL,A,2.0
2,4.548999786376953,learn,55451.00021362305,Fri Jan 02 2026 16:01:04 GMT-0600 (Central Standard Time),219184.29999995232,A,goldenter,I,enter,213,2,1415.7000000476837,217768.59999990463,8069,WL,A,2.0
2,4.781999826431274,learn,55218.000173568726,Fri Jan 02 2026 16:01:04 GMT-0600 (Central Standard Time),219417.39999997616,A,a,I,a,220,2,232.60000002384186,219184.79999995232,8069,WL,A,3.0
2,4.914999961853027,learn,55085.00003814697,Fri Jan 02 2026 16:01:04 GMT-0600 (Central Standard Time),219550.79999995232,A,ap,I,p,115,2,366.0,219184.79999995232,8069,WL,A,3.0
2,5.081999778747559,learn,54918.00022125244,Fri Jan 02 2026 16:01:04 GMT-0600 (Central Standard Time),219717.59999990463,A,app,I,p,149,2,532.7999999523163,219184.79999995232,8069,WL,A,3.0
2,5.364999771118164,learn,54635.000228881836,Fri Jan 02 2026 16:01:04 GMT-0600 (Central Standard Time),220000.79999995232,A,appl,I,l,262,2,816.0,219184.79999995232,8069,WL,A,3.0
2,5.548999786376953,learn,54451.00021362305,Fri Jan 02 2026 16:01:04 GMT-0600 (Central Standard Time),220184.0,A,apple,I,e,171,2,999.2000000476837,219184.79999995232,8069,WL,A,3.0
2,5.914999961853027,learn,54085.00003814697,Fri Jan 02 2026 16:01:04 GMT-0600 (Central Standard Time),220550.29999995232,A,appleenter,I,enter,357,2,1365.5,219184.79999995232,8069,WL,A,3.0
2,6.164999961853027,learn,53835.00003814697,Fri Jan 02 2026 16:01:04 GMT-0600 (Central Standard Time),220800.39999997616,A,b,I,b,238,2,249.80000007152557,220550.59999990463,8069,WL,A,4.0
2,6.31499981880188,learn,53685.00018119812,Fri Jan 02 2026 16:01:04 GMT-0600 (Central Standard Time),220950.39999997616,A,bu,I,u,132,2,399.8000000715256,220550.59999990463,8069,WL,A,4.0
2,6.597999811172485,learn,53402.000188827515,Fri Jan 02 2026 16:01:04 GMT-0600 (Central Standard Time),221233.69999992847,A,but,I,t,270,2,683.1000000238419,220550.59999990463,8069,WL,A,4.0
2,6.781999826431274,learn,53218.000173568726,Fri Jan 02 2026 16:01:04 GMT-0600 (Central Standard Time),221417.09999990463,A,butt,I,t,163,2,866.5,220550.59999990463,8069,WL,A,4.0
2,6.930999994277954,learn,53069.000005722046,Fri Jan 02 2026 16:01:04 GMT-0600 (Central Standard Time),221566.89999997616,A,butto,I,o,132,2,1016.3000000715256,220550.59999990463,8069,WL,A,4.0
2,7.06499981880188,learn,52935.00018119812,Fri Jan 02 2026 16:01:04 GMT-0600 (Central Standard Time),221700.39999997616,A,button,I,n,126,2,1149.8000000715256,220550.59999990463,8069,WL,A,4.0
2,7.664999961853027,learn,52335.00003814697,Fri Jan 02 2026 16:01:04 GMT-0600 (Central Standard Time),222300.19999992847,A,buttonenter,I,enter,584,2,1749.6000000238419,220550.59999990463,8069,WL,A,4.0
2,8.313999891281128,learn,51686.00010871887,Fri Jan 02 2026 16:01:04 GMT-0600 (Central Standard Time),222949.79999995232,A,b,I,b,632,2,649.2000000476837,222300.59999990463,8069,WL,A,5.0
2,8.398000001907349,learn,51601.99999809265,Fri Jan 02 2026 16:01:04 GMT-0600 (Central Standard Time),223033.09999990463,A,bo,I,o,79,2,732.5,222300.59999990463,8069,WL,A,5.0
2,8.547999858856201,learn,51452.0001411438,Fri Jan 02 2026 16:01:04 GMT-0600 (Central Standard Time),223183.0,A,boo,I,o,141,2,882.4000000953674,222300.59999990463,8069,WL,A,5.0
2,8.79699993133545,learn,51203.00006866455,Fri Jan 02 2026 16:01:04 GMT-0600 (Central Standard Time),223433.0,A,book,I,k,245,2,1132.4000000953674,222300.59999990463,8069,WL,A,5.0
2,9.163999795913696,learn,50836.000204086304,Fri Jan 02 2026 16:01:04 GMT-0600 (Central Standard Time),223799.59999990463,A,bookenter,I,enter,348,2,1499.0,222300.59999990463,8069,WL,A,5.0
2,9.396999835968018,learn,50603.00016403198,Fri Jan 02 2026 16:01:04 GMT-0600 (Central Standard Time),224032.89999997616,A,f,I,f,220,2,232.89999997615814,223800.0,8069,WL,A,6.0
2,9.513999938964844,learn,50486.000061035156,Fri Jan 02 2026 16:01:04 GMT-0600 (Central Standard Time),224149.39999997616,A,fl,I,l,100,2,349.39999997615814,223800.0,8069,WL,A,6.0
2,9.729999780654907,learn,50270.00021934509,Fri Jan 02 2026 16:01:04 GMT-0600 (Central Standard Time),224365.89999997616,A,flo,I,o,207,2,565.8999999761581,223800.0,8069,WL,A,6.0
2,9.830999851226807,learn,50169.00014877319,Fri Jan 02 2026 16:01:04 GMT-0600 (Central Standard Time),224466.19999992847,A,flow,I,w,95,2,666.1999999284744,223800.0,8069,WL,A,6.0
2,10.230999946594238,learn,49769.00005340576,Fri Jan 02 2026 16:01:04 GMT-0600 (Central Standard Time),224866.0,A,flowe,I,e,386,2,1066.0,223800.0,8069,WL,A,6.0
2,10.363999843597412,learn,49636.00015640259,Fri Jan 02 2026 16:01:04 GMT-0600 (Central Standard Time),224999.0,A,flower,I,r,114,2,1199.0,223800.0,8069,WL,A,6.0
2,10.563999891281128,learn,49436.00010871887,Fri Jan 02 2026 16:01:04 GMT-0600 (Central Standard Time),225199.0,A,flowerenter,I,enter,190,2,1399.0,223800.0,8069,WL,A,6.0
2,10.762999773025513,learn,49237.00022697449,Fri Jan 02 2026 16:01:04 GMT-0600 (Central Standard Time),225398.89999997616,A,t,I,t,189,2,199.5,225199.39999997616,8069,WL,A,7.0
2,11.013999938964844,learn,48986.000061035156,Fri Jan 02 2026 16:01:04 GMT-0600 (Central Standard Time),225649.29999995232,A,tr,I,r,229,2,449.89999997615814,225199.39999997616,8069,WL,A,7.0
2,11.146999835968018,learn,48853.00016403198,Fri Jan 02 2026 16:01:04 GMT-0600 (Central Standard Time),225782.5,A,tra,I,a,123,2,583.1000000238419,225199.39999997616,8069,WL,A,7.0
2,11.27999997138977,learn,48720.00002861023,Fri Jan 02 2026 16:01:04 GMT-0600 (Central Standard Time),225915.39999997616,A,trai,I,i,118,2,716.0,225199.39999997616,8069,WL,A,7.0
2,11.412999868392944,learn,48587.000131607056,Fri Jan 02 2026 16:01:04 GMT-0600 (Central Standard Time),226048.89999997616,A,train,I,n,121,2,849.5,225199.39999997616,8069,WL,A,7.0
2,11.829999923706055,learn,48170.000076293945,Fri Jan 02 2026 16:01:04 GMT-0600 (Central Standard Time),226465.29999995232,A,trainenter,I,enter,404,2,1265.8999999761581,225199.39999997616,8069,WL,A,7.0
2,12.462999820709229,learn,47537.00017929077,Fri Jan 02 2026 16:01:04 GMT-0600 (Central Standard Time),227098.39999997616,A,r,I,r,627,2,632.7000000476837,226465.69999992847,8069,WL,A,8.0
2,12.629999876022339,learn,47370.00012397766,Fri Jan 02 2026 16:01:04 GMT-0600 (Central Standard Time),227265.29999995232,A,ru,I,u,146,2,799.6000000238419,226465.69999992847,8069,WL,A,8.0
2,12.829999923706055,learn,47170.000076293945,Fri Jan 02 2026 16:01:04 GMT-0600 (Central Standard Time),227465.09999990463,A,rug,I,g,187,2,999.3999999761581,226465.69999992847,8069,WL,A,8.0
2,12.979999780654907,learn,47020.00021934509,Fri Jan 02 2026 16:01:04 GMT-0600 (Central Standard Time),227615.19999992847,A,rugenter,I,enter,139,2,1149.5,226465.69999992847,8069,WL,A,8.0
2,13.296000003814697,learn,46703.9999961853,Fri Jan 02 2026 16:01:04 GMT-0600 (Central Standard Time),227931.39999997616,A,m,I,m,301,2,315.8000000715256,227615.59999990463,8069,WL,A,9.0
2,13.395999908447266,learn,46604.000091552734,Fri Jan 02 2026 16:01:04 GMT-0600 (Central Standard Time),228031.59999990463,A,me,I,e,81,2,416.0,227615.59999990463,8069,WL,A,9.0
2,13.512999773025513,learn,46487.00022697449,Fri Jan 02 2026 16:01:04 GMT-0600 (Central Standard Time),228148.19999992847,A,mea,I,a,101,2,532.6000000238419,227615.59999990463,8069,WL,A,9.0
2,13.745999813079834,learn,46254.000186920166,Fri Jan 02 2026 16:01:04 GMT-0600 (Central Standard Time),228381.89999997616,A,mead,I,d,224,2,766.3000000715256,227615.59999990463,8069,WL,A,9.0
2,14.001999855041504,learn,45998.000144958496,Fri Jan 02 2026 16:01:04 GMT-0600 (Central Standard Time),228637.19999992847,A,meado,I,o,251,2,1021.6000000238419,227615.59999990463,8069,WL,A,9.0
2,14.1489999294281,learn,45851.0000705719,Fri Jan 02 2026 16:01:04 GMT-0600 (Central Standard Time),228784.59999990463,A,meadow,I,w,142,2,1169.0,227615.59999990463,8069,WL,A,9.0
2,14.378999948501587,learn,45621.00005149841,Fri Jan 02 2026 16:01:04 GMT-0600 (Central Standard Time),229014.59999990463,A,meadowenter,I,enter,219,2,1399.0,227615.59999990463,8069,WL,A,9.0
2,14.678999900817871,learn,45321.00009918213,Fri Jan 02 2026 16:01:04 GMT-0600 (Central Standard Time),229314.39999997616,A,s,I,s,286,2,299.5,229014.89999997616,8069,WL,A,10.0
2,14.845999956130981,learn,45154.00004386902,Fri Jan 02 2026 16:01:04 GMT-0600 (Central Standard Time),229481.19999992847,A,sa,I,a,146,2,466.2999999523163,229014.89999997616,8069,WL,A,10.0
2,14.978999853134155,learn,45021.000146865845,Fri Jan 02 2026 16:01:04 GMT-0600 (Central Standard Time),229614.29999995232,A,sal,I,l,116,2,599.3999999761581,229014.89999997616,8069,WL,A,10.0
2,15.162999868392944,learn,44837.000131607056,Fri Jan 02 2026 16:01:04 GMT-0600 (Central Standard Time),229798.39999997616,A,salt,I,t,166,2,783.5,229014.89999997616,8069,WL,A,10.0
2,15.52899980545044,learn,44471.00019454956,Fri Jan 02 2026 16:01:04 GMT-0600 (Central Standard Time),230164.09999990463,A,saltenter,I,enter,357,2,1149.1999999284744,229014.89999997616,8069,WL,A,10.0
2,19.643999814987183,learn,40356.00018501282,Fri Jan 02 2026 16:01:04 GMT-0600 (Central Standard Time),234279.5,A,k,I,k,4096,2,4115.200000047684,230164.29999995232,8069,WL,A,11.0
2,19.810999870300293,learn,40189.00012969971,Fri Jan 02 2026 16:01:04 GMT-0600 (Central Standard Time),234446.19999992847,A,ke,I,e,149,2,4281.899999976158,230164.29999995232,8069,WL,A,11.0
2,19.97699999809265,learn,40023.00000190735,Fri Jan 02 2026 16:01:04 GMT-0600 (Central Standard Time),234613.09999990463,A,key,I,y,149,2,4448.799999952316,230164.29999995232,8069,WL,A,11.0
2,20.66099977493286,learn,39339.00022506714,Fri Jan 02 2026 16:01:04 GMT-0600 (Central Standard Time),235296.29999995232,A,keyenter,I,enter,672,2,5132.0,230164.29999995232,8069,WL,A,11.0
2,21.325999975204468,learn,38674.00002479553,Fri Jan 02 2026 16:01:04 GMT-0600 (Central Standard Time),235962.0,A,a,I,a,652,2,665.4000000953674,235296.59999990463,8069,WL,A,12.0
2,21.442999839782715,learn,38557.000160217285,Fri Jan 02 2026 16:01:04 GMT-0600 (Central Standard Time),236078.59999990463,A,ap,I,p,97,2,782.0,235296.59999990463,8069,WL,A,12.0
2,21.592999935150146,learn,38407.00006484985,Fri Jan 02 2026 16:01:04 GMT-0600 (Central Standard Time),236228.89999997616,A,app,I,p,142,2,932.3000000715256,235296.59999990463,8069,WL,A,12.0
2,21.90999984741211,learn,38090.00015258789,Fri Jan 02 2026 16:01:04 GMT-0600 (Central Standard Time),236545.59999990463,A,appl,I,l,304,2,1249.0,235296.59999990463,8069,WL,A,12.0
2,22.092999935150146,learn,37907.00006484985,Fri Jan 02 2026 16:01:04 GMT-0600 (Central Standard Time),236728.69999992847,A,apple,I,e,171,2,1432.1000000238419,235296.59999990463,8069,WL,A,12.0
2,22.47699999809265,learn,37523.00000190735,Fri Jan 02 2026 16:01:04 GMT-0600 (Central Standard Time),237112.19999992847,A,appleenter,I,enter,373,2,1815.6000000238419,235296.59999990463,8069,WL,A,12.0
2,28.139999866485596,learn,31860.000133514404,Fri Jan 02 2026 16:01:04 GMT-0600 (Central Standard Time),242776.89999997616,A,k,I,k,5645,2,5664.300000071526,237112.59999990463,8069,WL,A,13.0
2,28.989999771118164,learn,31010.000228881836,Fri Jan 02 2026 16:01:04 GMT-0600 (Central Standard Time),243626.5,A,,I,backspace,843,2,6513.900000095367,237112.59999990463,8069,WL,A,13.0
2,35.23799991607666,learn,24762.00008392334,Fri Jan 02 2026 16:01:04 GMT-0600 (Central Standard Time),249874.79999995232,A,b,I,b,6242,2,12762.200000047684,237112.59999990463,8069,WL,A,13.0
2,35.38799977302551,learn,24612.000226974487,Fri Jan 02 2026 16:01:04 GMT-0600 (Central Standard Time),250024.79999995232,A,bu,I,u,137,2,12912.200000047684,237112.59999990463,8069,WL,A,13.0
2,35.55499982833862,learn,24445.000171661377,Fri Jan 02 2026 16:01:04 GMT-0600 (Central Standard Time),250191.19999992847,A,but,I,t,156,2,13078.600000023842,237112.59999990463,8069,WL,A,13.0
2,35.73799991607666,learn,24262.00008392334,Fri Jan 02 2026 16:01:04 GMT-0600 (Central Standard Time),250374.59999990463,A,butt,I,t,164,2,13262.0,237112.59999990463,8069,WL,A,13.0
2,35.80499982833862,learn,24195.000171661377,Fri Jan 02 2026 16:01:04 GMT-0600 (Central Standard Time),250441.29999995232,A,butto,I,o,54,2,13328.700000047684,237112.59999990463,8069,WL,A,13.0
2,35.97099995613098,learn,24029.00004386902,Fri Jan 02 2026 16:01:04 GMT-0600 (Central Standard Time),250608.0,A,button,I,n,155,2,13495.400000095367,237112.59999990463,8069,WL,A,13.0
2,36.4210000038147,learn,23578.999996185303,Fri Jan 02 2026 16:01:04 GMT-0600 (Central Standard Time),251057.59999990463,A,buttonenter,I,enter,436,2,13945.0,237112.59999990463,8069,WL,A,13.0
2,37.698999881744385,learn,22301.000118255615,Fri Jan 02 2026 16:01:04 GMT-0600 (Central Standard Time),252335.69999992847,A,r,I,r,1273,2,1277.7999999523163,251057.89999997616,8069,WL,A,14.0
2,38.36999988555908,learn,21630.000114440918,Fri Jan 02 2026 16:01:04 GMT-0600 (Central Standard Time),253007.0,A,,I,backspace,660,2,1949.1000000238419,251057.89999997616,8069,WL,A,14.0
2,38.50399994850159,learn,21496.000051498413,Fri Jan 02 2026 16:01:04 GMT-0600 (Central Standard Time),253140.09999990463,A,f,I,f,126,2,2082.1999999284744,251057.89999997616,8069,WL,A,14.0
2,38.686999797821045,learn,21313.000202178955,Fri Jan 02 2026 16:01:04 GMT-0600 (Central Standard Time),253323.79999995232,A,fi,I,i,177,2,2265.899999976158,251057.89999997616,8069,WL,A,14.0
2,38.8199999332428,learn,21180.000066757202,Fri Jan 02 2026 16:01:04 GMT-0600 (Central Standard Time),253456.79999995232,A,fin,I,n,128,2,2398.899999976158,251057.89999997616,8069,WL,A,14.0
2,39.03699994087219,learn,20963.000059127808,Fri Jan 02 2026 16:01:04 GMT-0600 (Central Standard Time),253673.79999995232,A,fing,I,g,203,2,2615.899999976158,251057.89999997616,8069,WL,A,14.0
2,39.21999979019165,learn,20780.00020980835,Fri Jan 02 2026 16:01:04 GMT-0600 (Central Standard Time),253856.79999995232,A,finge,I,e,172,2,2798.899999976158,251057.89999997616,8069,WL,A,14.0
2,39.33699989318848,learn,20663.000106811523,Fri Jan 02 2026 16:01:04 GMT-0600 (Central Standard Time),253973.19999992847,A,finger,I,r,100,2,2915.2999999523163,251057.89999997616,8069,WL,A,14.0
2,39.58699989318848,learn,20413.000106811523,Fri Jan 02 2026 16:01:04 GMT-0600 (Central Standard Time),254223.5,A,fingerenter,I,enter,231,2,3165.600000023842,251057.89999997616,8069,WL,A,14.0
2,41.019999980926514,learn,18980.000019073486,Fri Jan 02 2026 16:01:04 GMT-0600 (Central Standard Time),255656.5,A,enter,I,enter,1412,2,1432.6000000238419,254223.89999997616,8069,WL,A,15.0
3,0.31599998474121094,learn,59684.00001525879,Fri Jan 02 2026 16:01:04 GMT-0600 (Central Standard Time),321952.09999990463,A,r,I,r,305,2,315.5,321636.59999990463,8069,WL,A,1.0
3,0.5160000324249268,learn,59483.99996757507,Fri Jan 02 2026 16:01:04 GMT-0600 (Central Standard Time),322152.1999999285,A,ra,I,a,188,2,515.6000000238419,321636.59999990463,8069,WL,A,1.0
3,0.6319999694824219,learn,59368.00003051758,Fri Jan 02 2026 16:01:04 GMT-0600 (Central Standard Time),322268.6999999285,A,rat,I,t,100,2,632.1000000238419,321636.59999990463,8069,WL,A,1.0
3,0.815000057220459,learn,59184.99994277954,Fri Jan 02 2026 16:01:04 GMT-0600 (Central Standard Time),322451.89999997616,A,ratt,I,t,168,2,815.3000000715256,321636.59999990463,8069,WL,A,1.0
3,1.2620000839233398,learn,58737.99991607666,Fri Jan 02 2026 16:01:04 GMT-0600 (Central Standard Time),322898.1999999285,A,rattl,I,l,442,2,1261.6000000238419,321636.59999990463,8069,WL,A,1.0
3,1.4090001583099365,learn,58590.99984169006,Fri Jan 02 2026 16:01:04 GMT-0600 (Central Standard Time),323045.1999999285,A,rattle,I,e,81,2,1408.6000000238419,321636.59999990463,8069,WL,A,1.0
3,1.8819999694824219,learn,58118.00003051758,Fri Jan 02 2026 16:01:04 GMT-0600 (Central Standard Time),323518.39999997616,A,rattleenter,I,enter,463,2,1881.8000000715256,321636.59999990463,8069,WL,A,1.0
3,2.249000072479248,learn,57750.99992752075,Fri Jan 02 2026 16:01:04 GMT-0600 (Central Standard Time),323884.89999997616,A,l,I,l,350,2,366.2000000476837,323518.6999999285,8069,WL,A,2.0
3,2.515000104904175,learn,57484.999895095825,Fri Jan 02 2026 16:01:04 GMT-0600 (Central Standard Time),324151.5,A,lo,I,o,248,2,632.8000000715256,323518.6999999285,8069,WL,A,2.0
3,2.6480000019073486,learn,57351.99999809265,Fri Jan 02 2026 16:01:04 GMT-0600 (Central Standard Time),324284.59999990463,A,log,I,g,117,2,765.8999999761581,323518.6999999285,8069,WL,A,2.0
3,2.932000160217285,learn,57067.999839782715,Fri Jan 02 2026 16:01:04 GMT-0600 (Central Standard Time),324568.59999990463,A,logenter,I,enter,271,2,1049.8999999761581,323518.6999999285,8069,WL,A,2.0
3,3.265000104904175,learn,56734.999895095825,Fri Jan 02 2026 16:01:04 GMT-0600 (Central Standard Time),324901.09999990463,A,m,I,m,316,2,332.1999999284744,324568.89999997616,8069,WL,A,3.0
3,3.4149999618530273,learn,56585.00003814697,Fri Jan 02 2026 16:01:04 GMT-0600 (Central Standard Time),325051.0,A,me,I,e,136,2,482.10000002384186,324568.89999997616,8069,WL,A,3.0
3,3.498000144958496,learn,56501.999855041504,Fri Jan 02 2026 16:01:04 GMT-0600 (Central Standard Time),325134.5,A,mea,I,a,73,2,565.6000000238419,324568.89999997616,8069,WL,A,3.0
3,3.7139999866485596,learn,56286.00001335144,Fri Jan 02 2026 16:01:04 GMT-0600 (Central Standard Time),325350.89999997616,A,mead,I,d,204,2,782.0,324568.89999997616,8069,WL,A,3.0
3,3.8480000495910645,learn,56151.999950408936,Fri Jan 02 2026 16:01:04 GMT-0600 (Central Standard Time),325484.1999999285,A,meado,I,o,117,2,915.2999999523163,324568.89999997616,8069,WL,A,3.0
3,4.0320000648498535,learn,55967.99993515015,Fri Jan 02 2026 16:01:04 GMT-0600 (Central Standard Time),325668.1999999285,A,meadow,I,w,169,2,1099.2999999523163,324568.89999997616,8069,WL,A,3.0
3,4.248000144958496,learn,55751.999855041504,Fri Jan 02 2026 16:01:04 GMT-0600 (Central Standard Time),325884.2999999523,A,meadowenter,I,enter,201,2,1315.3999999761581,324568.89999997616,8069,WL,A,3.0
3,6.263999938964844,learn,53736.000061035156,Fri Jan 02 2026 16:01:04 GMT-0600 (Central Standard Time),327900.1999999285,A,k,I,k,2008,2,2015.6000000238419,325884.59999990463,8069,WL,A,4.0
3,6.430999994277954,learn,53569.000005722046,Fri Jan 02 2026 16:01:04 GMT-0600 (Central Standard Time),328067.0,A,ke,I,e,160,2,2182.4000000953674,325884.59999990463,8069,WL,A,4.0
3,6.581000089645386,learn,53418.999910354614,Fri Jan 02 2026 16:01:04 GMT-0600 (Central Standard Time),328217.0,A,key,I,y,138,2,2332.4000000953674,325884.59999990463,8069,WL,A,4.0
3,6.947000026702881,learn,53052.99997329712,Fri Jan 02 2026 16:01:04 GMT-0600 (Central Standard Time),328583.2999999523,A,keyenter,I,enter,347,2,2698.7000000476837,325884.59999990463,8069,WL,A,4.0
3,7.263000011444092,learn,52736.99998855591,Fri Jan 02 2026 16:01:04 GMT-0600 (Central Standard Time),328899.7999999523,A,a,I,a,301,2,316.2000000476837,328583.59999990463,8069,WL,A,5.0
3,7.330000162124634,learn,52669.999837875366,Fri Jan 02 2026 16:01:04 GMT-0600 (Central Standard Time),328966.59999990463,A,ap,I,p,57,2,383.0,328583.59999990463,8069,WL,A,5.0
3,7.496999979019165,learn,52503.000020980835,Fri Jan 02 2026 16:01:04 GMT-0600 (Central Standard Time),329133.0,A,app,I,p,158,2,549.4000000953674,328583.59999990463,8069,WL,A,5.0
3,7.746999979019165,learn,52253.000020980835,Fri Jan 02 2026 16:01:04 GMT-0600 (Central Standard Time),329383.2999999523,A,appl,I,l,230,2,799.7000000476837,328583.59999990463,8069,WL,A,5.0
3,7.880000114440918,learn,52119.99988555908,Fri Jan 02 2026 16:01:04 GMT-0600 (Central Standard Time),329516.39999997616,A,apple,I,e,125,2,932.8000000715256,328583.59999990463,8069,WL,A,5.0
3,8.430000066757202,learn,51569.9999332428,Fri Jan 02 2026 16:01:04 GMT-0600 (Central Standard Time),330066.1999999285,A,appleenter,I,enter,536,2,1482.6000000238419,328583.59999990463,8069,WL,A,5.0
3,12.644999980926514,learn,47355.000019073486,Fri Jan 02 2026 16:01:04 GMT-0600 (Central Standard Time),334281.2999999523,A,b,I,b,4210,2,4214.799999952316,330066.5,8069,WL,A,6.0
3,12.84500002861023,learn,47154.99997138977,Fri Jan 02 2026 16:01:04 GMT-0600 (Central Standard Time),334481.59999990463,A,bo,I,o,179,2,4415.099999904633,330066.5,8069,WL,A,6.0
3,12.978000164031982,learn,47021.99983596802,Fri Jan 02 2026 16:01:04 GMT-0600 (Central Standard Time),334614.7999999523,A,boo,I,o,123,2,4548.299999952316,330066.5,8069,WL,A,6.0
3,13.245000123977661,learn,46754.99987602234,Fri Jan 02 2026 16:01:04 GMT-0600 (Central Standard Time),334881.6999999285,A,book,I,k,263,2,4815.199999928474,330066.5,8069,WL,A,6.0
3,13.861000061035156,learn,46138.999938964844,Fri Jan 02 2026 16:01:04 GMT-0600 (Central Standard Time),335497.59999990463,A,bookenter,I,enter,610,2,5431.099999904633,330066.5,8069,WL,A,6.0
3,15.226999998092651,learn,44773.00000190735,Fri Jan 02 2026 16:01:04 GMT-0600 (Central Standard Time),336863.89999997616,A,t,I,t,1355,2,1366.1000000238419,335497.7999999523,8069,WL,A,7.0
3,15.444000005722046,learn,44555.999994277954,Fri Jan 02 2026 16:01:04 GMT-0600 (Central Standard Time),337080.6999999285,A,tr,I,r,205,2,1582.8999999761581,335497.7999999523,8069,WL,A,7.0
3,15.577000141143799,learn,44422.9998588562,Fri Jan 02 2026 16:01:04 GMT-0600 (Central Standard Time),337213.7999999523,A,tra,I,a,116,2,1716.0,335497.7999999523,8069,WL,A,7.0
3,15.677000045776367,learn,44322.99995422363,Fri Jan 02 2026 16:01:04 GMT-0600 (Central Standard Time),337313.7999999523,A,trai,I,i,78,2,1816.0,335497.7999999523,8069,WL,A,7.0
3,15.82800006866455,learn,44171.99993133545,Fri Jan 02 2026 16:01:04 GMT-0600 (Central Standard Time),337464.0,A,train,I,n,138,2,1966.2000000476837,335497.7999999523,8069,WL,A,7.0
3,16.5770001411438,learn,43422.9998588562,Fri Jan 02 2026 16:01:04 GMT-0600 (Central Standard Time),338213.59999990463,A,trainenter,I,enter,740,2,2715.7999999523163,335497.7999999523,8069,WL,A,7.0
3,17.14400005340576,learn,42855.99994659424,Fri Jan 02 2026 16:01:04 GMT-0600 (Central Standard Time),338780.2999999523,A,r,I,r,559,2,566.2999999523163,338214.0,8069,WL,A,8.0
3,17.30999994277954,learn,42690.00005722046,Fri Jan 02 2026 16:01:04 GMT-0600 (Central Standard Time),338946.7999999523,A,ru,I,u,159,2,732.7999999523163,338214.0,8069,WL,A,8.0
3,17.47699999809265,learn,42523.00000190735,Fri Jan 02 2026 16:01:04 GMT-0600 (Central Standard Time),339113.39999997616,A,rug,I,g,154,2,899.3999999761581,338214.0,8069,WL,A,8.0
3,18.360000133514404,learn,41639.999866485596,Fri Jan 02 2026 16:01:04 GMT-0600 (Central Standard Time),339996.5,A,rugenter,I,enter,874,2,1782.5,338214.0,8069,WL,A,8.0
3,21.825999975204468,learn,38174.00002479553,Fri Jan 02 2026 16:01:04 GMT-0600 (Central Standard Time),343462.09999990463,A,s,I,s,3448,2,3465.1999999284744,339996.89999997616,8069,WL,A,9.0
3,21.992000102996826,learn,38007.999897003174,Fri Jan 02 2026 16:01:04 GMT-0600 (Central Standard Time),343628.7999999523,A,sa,I,a,158,2,3631.899999976158,339996.89999997616,8069,WL,A,9.0
3,22.108999967575073,learn,37891.00003242493,Fri Jan 02 2026 16:01:04 GMT-0600 (Central Standard Time),343745.2999999523,A,sal,I,l,103,2,3748.399999976158,339996.89999997616,8069,WL,A,9.0
3,22.325999975204468,learn,37674.00002479553,Fri Jan 02 2026 16:01:04 GMT-0600 (Central Standard Time),343962.2999999523,A,salt,I,t,195,2,3965.399999976158,339996.89999997616,8069,WL,A,9.0
3,22.575000047683716,learn,37424.999952316284,Fri Jan 02 2026 16:01:04 GMT-0600 (Central Standard Time),344211.89999997616,A,saltenter,I,enter,242,2,4215.0,339996.89999997616,8069,WL,A,9.0
3,22.858999967575073,learn,37141.00003242493,Fri Jan 02 2026 16:01:04 GMT-0600 (Central Standard Time),344495.0,A,f,I,f,265,2,282.8000000715256,344212.1999999285,8069,WL,A,10.0
3,22.942000150680542,learn,37057.99984931946,Fri Jan 02 2026 16:01:04 GMT-0600 (Central Standard Time),344578.2999999523,A,fi,I,i,62,2,366.10000002384186,344212.1999999285,8069,WL,A,10.0
3,23.05900001525879,learn,36940.99998474121,Fri Jan 02 2026 16:01:04 GMT-0600 (Central Standard Time),344695.5,A,fin,I,n,98,2,483.3000000715256,344212.1999999285,8069,WL,A,10.0
3,23.174999952316284,learn,36825.000047683716,Fri Jan 02 2026 16:01:04 GMT-0600 (Central Standard Time),344811.5,A,find,I,d,101,2,599.3000000715256,344212.1999999285,8069,WL,A,10.0
3,23.375,learn,36625.0,Fri Jan 02 2026 16:01:04 GMT-0600 (Central Standard Time),345011.59999990463,A,finde,I,e,185,2,799.3999999761581,344212.1999999285,8069,WL,A,10.0
3,23.475000143051147,learn,36524.99985694885,Fri Jan 02 2026 16:01:04 GMT-0600 (Central Standard Time),345111.6999999285,A,finder,I,r,89,2,899.5,344212.1999999285,8069,WL,A,10.0
3,23.842000007629395,learn,36157.999992370605,Fri Jan 02 2026 16:01:04 GMT-0600 (Central Standard Time),345478.2999999523,A,finde,I,backspace,357,2,1266.1000000238419,344212.1999999285,8069,WL,A,10.0
3,24.02500009536743,learn,35974.99990463257,Fri Jan 02 2026 16:01:04 GMT-0600 (Central Standard Time),345661.39999997616,A,find,I,backspace,174,2,1449.2000000476837,344212.1999999285,8069,WL,A,10.0
3,24.192000150680542,learn,35807.99984931946,Fri Jan 02 2026 16:01:04 GMT-0600 (Central Standard Time),345828.0,A,fin,I,backspace,151,2,1615.8000000715256,344212.1999999285,8069,WL,A,10.0
3,24.44099998474121,learn,35559.00001525879,Fri Jan 02 2026 16:01:04 GMT-0600 (Central Standard Time),346077.7999999523,A,fi,I,backspace,232,2,1865.6000000238419,344212.1999999285,8069,WL,A,10.0
3,25.19099998474121,learn,34809.00001525879,Fri Jan 02 2026 16:01:04 GMT-0600 (Central Standard Time),346827.5,A,fin,I,n,735,2,2615.3000000715256,344212.1999999285,8069,WL,A,10.0
3,25.374000072479248,learn,34625.99992752075,Fri Jan 02 2026 16:01:04 GMT-0600 (Central Standard Time),347010.89999997616,A,fing,I,g,169,2,2798.7000000476837,344212.1999999285,8069,WL,A,10.0
3,25.558000087738037,learn,34441.99991226196,Fri Jan 02 2026 16:01:04 GMT-0600 (Central Standard Time),347194.39999997616,A,finge,I,e,169,2,2982.2000000476837,344212.1999999285,8069,WL,A,10.0
3,25.657999992370605,learn,34342.000007629395,Fri Jan 02 2026 16:01:04 GMT-0600 (Central Standard Time),347294.39999997616,A,finger,I,r,82,2,3082.2000000476837,344212.1999999285,8069,WL,A,10.0
3,26.04100012779236,learn,33958.99987220764,Fri Jan 02 2026 16:01:04 GMT-0600 (Central Standard Time),347677.39999997616,A,fingerenter,I,enter,366,2,3465.2000000476837,344212.1999999285,8069,WL,A,10.0
3,31.723000049591064,learn,28276.999950408936,Fri Jan 02 2026 16:01:04 GMT-0600 (Central Standard Time),353359.09999990463,A,c,I,c,5671,2,5681.199999928474,347677.89999997616,8069,WL,A,11.0
3,31.805999994277954,learn,28194.000005722046,Fri Jan 02 2026 16:01:04 GMT-0600 (Central Standard Time),353442.0,A,ch,I,h,77,2,5764.100000023842,347677.89999997616,8069,WL,A,11.0
3,31.956000089645386,learn,28043.999910354614,Fri Jan 02 2026 16:01:04 GMT-0600 (Central Standard Time),353592.2999999523,A,chi,I,i,139,2,5914.399999976158,347677.89999997616,8069,WL,A,11.0
3,32.18900012969971,learn,27810.999870300293,Fri Jan 02 2026 16:01:04 GMT-0600 (Central Standard Time),353825.5,A,chim,I,m,228,2,6147.600000023842,347677.89999997616,8069,WL,A,11.0
3,32.638999938964844,learn,27361.000061035156,Fri Jan 02 2026 16:01:04 GMT-0600 (Central Standard Time),354275.39999997616,A,chimn,I,n,435,2,6597.5,347677.89999997616,8069,WL,A,11.0
3,32.8050000667572,learn,27194.999933242798,Fri Jan 02 2026 16:01:04 GMT-0600 (Central Standard Time),354441.59999990463,A,chimne,I,e,161,2,6763.699999928474,347677.89999997616,8069,WL,A,11.0
3,32.98900008201599,learn,27010.99991798401,Fri Jan 02 2026 16:01:04 GMT-0600 (Central Standard Time),354625.09999990463,A,chimney,I,y,171,2,6947.199999928474,347677.89999997616,8069,WL,A,11.0
3,33.5220000743866,learn,26477.999925613403,Fri Jan 02 2026 16:01:04 GMT-0600 (Central Standard Time),355158.5,A,chimneyenter,I,enter,515,2,7480.600000023842,347677.89999997616,8069,WL,A,11.0
3,36.00399994850159,learn,23996.000051498413,Fri Jan 02 2026 16:01:04 GMT-0600 (Central Standard Time),357640.89999997616,A,g,I,g,2462,2,2482.100000023842,355158.7999999523,8069,WL,A,12.0
3,36.07200002670288,learn,23927.99997329712,Fri Jan 02 2026 16:01:04 GMT-0600 (Central Standard Time),357708.89999997616,A,go,I,o,58,2,2550.100000023842,355158.7999999523,8069,WL,A,12.0
3,36.354000091552734,learn,23645.999908447266,Fri Jan 02 2026 16:01:04 GMT-0600 (Central Standard Time),357990.7999999523,A,gol,I,l,263,2,2832.0,355158.7999999523,8069,WL,A,12.0
3,36.48699998855591,learn,23513.00001144409,Fri Jan 02 2026 16:01:04 GMT-0600 (Central Standard Time),358124.0,A,gold,I,d,117,2,2965.2000000476837,355158.7999999523,8069,WL,A,12.0
3,36.837000131607056,learn,23162.999868392944,Fri Jan 02 2026 16:01:04 GMT-0600 (Central Standard Time),358474.1999999285,A,goldenter,I,enter,337,2,3315.399999976158,355158.7999999523,8069,WL,A,12.0
3,43.05200004577637,learn,16947.999954223633,Fri Jan 02 2026 16:01:04 GMT-0600 (Central Standard Time),364688.7999999523,A,a,I,a,6194,2,6214.200000047684,358474.59999990463,8069,WL,A,13.0
3,43.151999950408936,learn,16848.000049591064,Fri Jan 02 2026 16:01:04 GMT-0600 (Central Standard Time),364788.59999990463,A,ap,I,p,92,2,6314.0,358474.59999990463,8069,WL,A,13.0
3,43.318000078201294,learn,16681.999921798706,Fri Jan 02 2026 16:01:04 GMT-0600 (Central Standard Time),364955.1999999285,A,app,I,p,160,2,6480.600000023842,358474.59999990463,8069,WL,A,13.0
3,43.55200004577637,learn,16447.999954223633,Fri Jan 02 2026 16:01:04 GMT-0600 (Central Standard Time),365188.5,A,appl,I,l,217,2,6713.900000095367,358474.59999990463,8069,WL,A,13.0
3,43.66799998283386,learn,16332.000017166138,Fri Jan 02 2026 16:01:04 GMT-0600 (Central Standard Time),365304.89999997616,A,apple,I,e,112,2,6830.300000071526,358474.59999990463,8069,WL,A,13.0
3,44.2020001411438,learn,15797.999858856201,Fri Jan 02 2026 16:01:04 GMT-0600 (Central Standard Time),365838.5,A,appleenter,I,enter,524,2,7363.900000095367,358474.59999990463,8069,WL,A,13.0
3,60.01300001144409,learn,-13.000011444091797,Fri Jan 02 2026 16:01:04 GMT-0600 (Central Standard Time),381650.0,A,None,I,None,15807,2,15811.200000047684,365838.7999999523,8069,WL,A,14.0
4,0.7330000400543213,learn,59266.99995994568,Fri Jan 02 2026 16:01:04 GMT-0600 (Central Standard Time),447712.6999999285,A,l,I,l,720,2,733.2999999523163,446979.39999997616,8069,WL,A,1.0
4,0.9670000076293945,learn,59032.999992370605,Fri Jan 02 2026 16:01:04 GMT-0600 (Central Standard Time),447946.0,A,lo,I,o,209,2,966.6000000238419,446979.39999997616,8069,WL,A,1.0
4,1.1000001430511475,learn,58899.99985694885,Fri Jan 02 2026 16:01:04 GMT-0600 (Central Standard Time),448079.39999997616,A,log,I,g,115,2,1100.0,446979.39999997616,8069,WL,A,1.0
4,1.317000150680542,learn,58682.99984931946,Fri Jan 02 2026 16:01:04 GMT-0600 (Central Standard Time),448296.0,A,logenter,I,enter,205,2,1316.6000000238419,446979.39999997616,8069,WL,A,1.0
4,1.933000087738037,learn,58066.99991226196,Fri Jan 02 2026 16:01:04 GMT-0600 (Central Standard Time),448912.1999999285,A,h,I,h,605,2,615.8999999761581,448296.2999999523,8069,WL,A,2.0
4,2.0160000324249268,learn,57983.99996757507,Fri Jan 02 2026 16:01:04 GMT-0600 (Central Standard Time),448995.5,A,ha,I,a,68,2,699.2000000476837,448296.2999999523,8069,WL,A,2.0
4,2.2330000400543213,learn,57766.99995994568,Fri Jan 02 2026 16:01:04 GMT-0600 (Central Standard Time),449212.0,A,har,I,r,201,2,915.7000000476837,448296.2999999523,8069,WL,A,2.0
4,2.365999937057495,learn,57634.000062942505,Fri Jan 02 2026 16:01:04 GMT-0600 (Central Standard Time),449345.2999999523,A,harp,I,p,129,2,1049.0,448296.2999999523,8069,WL,A,2.0
4,2.7829999923706055,learn,57217.000007629395,Fri Jan 02 2026 16:01:04 GMT-0600 (Central Standard Time),449762.0,A,harpenter,I,enter,403,2,1465.7000000476837,448296.2999999523,8069,WL,A,2.0
4,3.249000072479248,learn,56750.99992752075,Fri Jan 02 2026 16:01:04 GMT-0600 (Central Standard Time),450228.6999999285,A,r,I,r,451,2,466.39999997615814,449762.2999999523,8069,WL,A,3.0
4,3.365999937057495,learn,56634.000062942505,Fri Jan 02 2026 16:01:04 GMT-0600 (Central Standard Time),450345.2999999523,A,ra,I,a,104,2,583.0,449762.2999999523,8069,WL,A,3.0
4,3.5320000648498535,learn,56467.99993515015,Fri Jan 02 2026 16:01:04 GMT-0600 (Central Standard Time),450511.7999999523,A,rat,I,t,146,2,749.5,449762.2999999523,8069,WL,A,3.0
4,3.682000160217285,learn,56317.999839782715,Fri Jan 02 2026 16:01:04 GMT-0600 (Central Standard Time),450661.89999997616,A,ratt,I,t,141,2,899.6000000238419,449762.2999999523,8069,WL,A,3.0
4,3.881999969482422,learn,56118.00003051758,Fri Jan 02 2026 16:01:04 GMT-0600 (Central Standard Time),450861.6999999285,A,rattl,I,l,182,2,1099.3999999761581,449762.2999999523,8069,WL,A,3.0
4,3.999000072479248,learn,56000.99992752075,Fri Jan 02 2026 16:01:04 GMT-0600 (Central Standard Time),450978.1999999285,A,rattle,I,e,103,2,1215.8999999761581,449762.2999999523,8069,WL,A,3.0
4,4.182000160217285,learn,55817.999839782715,Fri Jan 02 2026 16:01:04 GMT-0600 (Central Standard Time),451161.39999997616,A,rattleenter,I,enter,178,2,1399.1000000238419,449762.2999999523,8069,WL,A,3.0
4,4.6000001430511475,learn,55399.99985694885,Fri Jan 02 2026 16:01:04 GMT-0600 (Central Standard Time),451578.89999997616,A,b,I,b,412,2,417.2000000476837,451161.6999999285,8069,WL,A,4.0
4,4.749000072479248,learn,55250.99992752075,Fri Jan 02 2026 16:01:04 GMT-0600 (Central Standard Time),451728.0,A,bu,I,u,129,2,566.3000000715256,451161.6999999285,8069,WL,A,4.0
4,4.932000160217285,learn,55067.999839782715,Fri Jan 02 2026 16:01:04 GMT-0600 (Central Standard Time),451911.1999999285,A,but,I,t,164,2,749.5,451161.6999999285,8069,WL,A,4.0
4,5.082000017166138,learn,54917.99998283386,Fri Jan 02 2026 16:01:04 GMT-0600 (Central Standard Time),452061.6999999285,A,butt,I,t,134,2,900.0,451161.6999999285,8069,WL,A,4.0
4,5.182000160217285,learn,54817.999839782715,Fri Jan 02 2026 16:01:04 GMT-0600 (Central Standard Time),452161.2999999523,A,butto,I,o,79,2,999.6000000238419,451161.6999999285,8069,WL,A,4.0
4,5.265000104904175,learn,54734.999895095825,Fri Jan 02 2026 16:01:04 GMT-0600 (Central Standard Time),452244.5,A,button,I,n,75,2,1082.8000000715256,451161.6999999285,8069,WL,A,4.0
4,5.515000104904175,learn,54484.999895095825,Fri Jan 02 2026 16:01:04 GMT-0600 (Central Standard Time),452494.6999999285,A,buttonenter,I,enter,240,2,1333.0,451161.6999999285,8069,WL,A,4.0
4,7.581000089645386,learn,52418.999910354614,Fri Jan 02 2026 16:01:04 GMT-0600 (Central Standard Time),454560.6999999285,A,a,I,a,2054,2,2065.6999999284744,452495.0,8069,WL,A,5.0
4,7.697999954223633,learn,52302.00004577637,Fri Jan 02 2026 16:01:04 GMT-0600 (Central Standard Time),454677.1999999285,A,ap,I,p,99,2,2182.1999999284744,452495.0,8069,WL,A,5.0
4,7.8480000495910645,learn,52151.999950408936,Fri Jan 02 2026 16:01:04 GMT-0600 (Central Standard Time),454827.1999999285,A,app,I,p,135,2,2332.1999999284744,452495.0,8069,WL,A,5.0
4,8.064000129699707,learn,51935.99987030029,Fri Jan 02 2026 16:01:04 GMT-0600 (Central Standard Time),455043.6999999285,A,appl,I,l,200,2,2548.6999999284744,452495.0,8069,WL,A,5.0
4,8.180999994277954,learn,51819.000005722046,Fri Jan 02 2026 16:01:04 GMT-0600 (Central Standard Time),455160.5,A,apple,I,e,104,2,2665.5,452495.0,8069,WL,A,5.0
4,8.38100004196167,learn,51618.99995803833,Fri Jan 02 2026 16:01:04 GMT-0600 (Central Standard Time),455360.59999990463,A,appleenter,I,enter,179,2,2865.5999999046326,452495.0,8069,WL,A,5.0
4,8.69700002670288,learn,51302.99997329712,Fri Jan 02 2026 16:01:04 GMT-0600 (Central Standard Time),455676.6999999285,A,k,I,k,300,2,315.6999999284744,455361.0,8069,WL,A,6.0
4,8.864000082015991,learn,51135.99991798401,Fri Jan 02 2026 16:01:04 GMT-0600 (Central Standard Time),455843.5,A,ke,I,e,152,2,482.5,455361.0,8069,WL,A,6.0
4,9.02999997138977,learn,50970.00002861023,Fri Jan 02 2026 16:01:04 GMT-0600 (Central Standard Time),456009.7999999523,A,key,I,y,161,2,648.7999999523163,455361.0,8069,WL,A,6.0
4,9.314000129699707,learn,50685.99987030029,Fri Jan 02 2026 16:01:04 GMT-0600 (Central Standard Time),456293.59999990463,A,keyenter,I,enter,267,2,932.5999999046326,455361.0,8069,WL,A,6.0
4,9.71399998664856,learn,50286.00001335144,Fri Jan 02 2026 16:01:04 GMT-0600 (Central Standard Time),456693.0,A,c,I,c,383,2,399.10000002384186,456293.89999997616,8069,WL,A,7.0
4,9.79800009727478,learn,50201.99990272522,Fri Jan 02 2026 16:01:04 GMT-0600 (Central Standard Time),456777.6999999285,A,ch,I,h,71,2,483.7999999523163,456293.89999997616,8069,WL,A,7.0
4,9.96399998664856,learn,50036.00001335144,Fri Jan 02 2026 16:01:04 GMT-0600 (Central Standard Time),456943.1999999285,A,chi,I,i,147,2,649.2999999523163,456293.89999997616,8069,WL,A,7.0
4,10.164000034332275,learn,49835.999965667725,Fri Jan 02 2026 16:01:04 GMT-0600 (Central Standard Time),457143.0,A,chim,I,m,189,2,849.1000000238419,456293.89999997616,8069,WL,A,7.0
4,10.564000129699707,learn,49435.99987030029,Fri Jan 02 2026 16:01:04 GMT-0600 (Central Standard Time),457543.0,A,chimn,I,n,380,2,1249.1000000238419,456293.89999997616,8069,WL,A,7.0
4,10.79699993133545,learn,49203.00006866455,Fri Jan 02 2026 16:01:04 GMT-0600 (Central Standard Time),457776.2999999523,A,chimne,I,e,221,2,1482.3999999761581,456293.89999997616,8069,WL,A,7.0
4,10.996999979019165,learn,49003.000020980835,Fri Jan 02 2026 16:01:04 GMT-0600 (Central Standard Time),457976.09999990463,A,chimney,I,y,188,2,1682.1999999284744,456293.89999997616,8069,WL,A,7.0
4,11.52999997138977,learn,48470.00002861023,Fri Jan 02 2026 16:01:04 GMT-0600 (Central Standard Time),458509.39999997616,A,chimneyenter,I,enter,517,2,2215.5,456293.89999997616,8069,WL,A,7.0
4,12.480000019073486,learn,47519.999980926514,Fri Jan 02 2026 16:01:04 GMT-0600 (Central Standard Time),459459.0,A,b,I,b,935,2,949.4000000953674,458509.59999990463,8069,WL,A,8.0
4,12.578999996185303,learn,47421.0000038147,Fri Jan 02 2026 16:01:04 GMT-0600 (Central Standard Time),459558.7999999523,A,bo,I,o,81,2,1049.2000000476837,458509.59999990463,8069,WL,A,8.0
4,12.713000059127808,learn,47286.99994087219,Fri Jan 02 2026 16:01:04 GMT-0600 (Central Standard Time),459692.1999999285,A,boo,I,o,125,2,1182.6000000238419,458509.59999990463,8069,WL,A,8.0
4,12.963000059127808,learn,47036.99994087219,Fri Jan 02 2026 16:01:04 GMT-0600 (Central Standard Time),459942.5,A,book,I,k,240,2,1432.9000000953674,458509.59999990463,8069,WL,A,8.0
4,13.595999956130981,learn,46404.00004386902,Fri Jan 02 2026 16:01:04 GMT-0600 (Central Standard Time),460575.1999999285,A,bookenter,I,enter,614,2,2065.600000023842,458509.59999990463,8069,WL,A,8.0
4,14.446000099182129,learn,45553.99990081787,Fri Jan 02 2026 16:01:04 GMT-0600 (Central Standard Time),461425.0,A,m,I,m,837,2,849.5,460575.5,8069,WL,A,9.0
4,14.51200008392334,learn,45487.99991607666,Fri Jan 02 2026 16:01:04 GMT-0600 (Central Standard Time),461491.59999990463,A,me,I,e,60,2,916.0999999046326,460575.5,8069,WL,A,9.0
4,14.661999940872192,learn,45338.00005912781,Fri Jan 02 2026 16:01:04 GMT-0600 (Central Standard Time),461641.59999990463,A,mea,I,a,130,2,1066.0999999046326,460575.5,8069,WL,A,9.0
4,14.878999948501587,learn,45121.00005149841,Fri Jan 02 2026 16:01:04 GMT-0600 (Central Standard Time),461857.89999997616,A,mead,I,d,211,2,1282.3999999761581,460575.5,8069,WL,A,9.0
4,14.995000123977661,learn,45004.99987602234,Fri Jan 02 2026 16:01:04 GMT-0600 (Central Standard Time),461974.59999990463,A,meado,I,o,98,2,1399.0999999046326,460575.5,8069,WL,A,9.0
4,15.17900013923645,learn,44820.99986076355,Fri Jan 02 2026 16:01:04 GMT-0600 (Central Standard Time),462158.0,A,meadow,I,w,166,2,1582.5,460575.5,8069,WL,A,9.0
4,15.529000043869019,learn,44470.99995613098,Fri Jan 02 2026 16:01:04 GMT-0600 (Central Standard Time),462507.7999999523,A,meadowenter,I,enter,335,2,1932.2999999523163,460575.5,8069,WL,A,9.0
4,16.24500012397766,learn,43754.99987602234,Fri Jan 02 2026 16:01:04 GMT-0600 (Central Standard Time),463224.59999990463,A,f,I,f,705,2,716.3999999761581,462508.1999999285,8069,WL,A,10.0
4,16.378999948501587,learn,43621.00005149841,Fri Jan 02 2026 16:01:04 GMT-0600 (Central Standard Time),463357.89999997616,A,fl,I,l,116,2,849.7000000476837,462508.1999999285,8069,WL,A,10.0
4,16.57800006866455,learn,43421.99993133545,Fri Jan 02 2026 16:01:04 GMT-0600 (Central Standard Time),463557.6999999285,A,flo,I,o,183,2,1049.5,462508.1999999285,8069,WL,A,10.0
4,16.661999940872192,learn,43338.00005912781,Fri Jan 02 2026 16:01:04 GMT-0600 (Central Standard Time),463641.2999999523,A,flow,I,w,63,2,1133.1000000238419,462508.1999999285,8069,WL,A,10.0
4,16.861999988555908,learn,43138.00001144409,Fri Jan 02 2026 16:01:04 GMT-0600 (Central Standard Time),463840.89999997616,A,flowe,I,e,195,2,1332.7000000476837,462508.1999999285,8069,WL,A,10.0
4,16.978000164031982,learn,43021.99983596802,Fri Jan 02 2026 16:01:04 GMT-0600 (Central Standard Time),463957.39999997616,A,flower,I,r,100,2,1449.2000000476837,462508.1999999285,8069,WL,A,10.0
4,17.53600001335144,learn,42463.99998664856,Fri Jan 02 2026 16:01:04 GMT-0600 (Central Standard Time),464515.5,A,flowerenter,I,enter,406,2,2007.3000000715256,462508.1999999285,8069,WL,A,10.0
4,18.09500002861023,learn,41904.99997138977,Fri Jan 02 2026 16:01:04 GMT-0600 (Central Standard Time),465074.0,A,t,I,t,545,2,558.3000000715256,464515.6999999285,8069,WL,A,11.0
4,18.294000148773193,learn,41705.99985122681,Fri Jan 02 2026 16:01:04 GMT-0600 (Central Standard Time),465273.7999999523,A,tr,I,r,187,2,758.1000000238419,464515.6999999285,8069,WL,A,11.0
4,18.41100001335144,learn,41588.99998664856,Fri Jan 02 2026 16:01:04 GMT-0600 (Central Standard Time),465390.59999990463,A,tra,I,a,107,2,874.8999999761581,464515.6999999285,8069,WL,A,11.0
4,18.561000108718872,learn,41438.99989128113,Fri Jan 02 2026 16:01:04 GMT-0600 (Central Standard Time),465540.5,A,trai,I,i,141,2,1024.8000000715256,464515.6999999285,8069,WL,A,11.0
4,18.694000005722046,learn,41305.999994277954,Fri Jan 02 2026 16:01:04 GMT-0600 (Central Standard Time),465673.59999990463,A,train,I,n,119,2,1157.8999999761581,464515.6999999285,8069,WL,A,11.0
4,19.028000116348267,learn,40971.99988365173,Fri Jan 02 2026 16:01:04 GMT-0600 (Central Standard Time),466006.89999997616,A,trainenter,I,enter,323,2,1491.2000000476837,464515.6999999285,8069,WL,A,11.0
4,19.878000020980835,learn,40121.999979019165,Fri Jan 02 2026 16:01:04 GMT-0600 (Central Standard Time),466856.89999997616,A,g,I,g,838,2,849.7000000476837,466007.1999999285,8069,WL,A,12.0
4,19.97699999809265,learn,40023.00000190735,Fri Jan 02 2026 16:01:04 GMT-0600 (Central Standard Time),466956.6999999285,A,go,I,o,83,2,949.5,466007.1999999285,8069,WL,A,12.0
4,20.16100001335144,learn,39838.99998664856,Fri Jan 02 2026 16:01:04 GMT-0600 (Central Standard Time),467139.89999997616,A,gol,I,l,176,2,1132.7000000476837,466007.1999999285,8069,WL,A,12.0
4,20.294000148773193,learn,39705.99985122681,Fri Jan 02 2026 16:01:04 GMT-0600 (Central Standard Time),467273.2999999523,A,gold,I,d,113,2,1266.1000000238419,466007.1999999285,8069,WL,A,12.0
4,20.64400005340576,learn,39355.99994659424,Fri Jan 02 2026 16:01:04 GMT-0600 (Central Standard Time),467623.2999999523,A,goldenter,I,enter,331,2,1616.1000000238419,466007.1999999285,8069,WL,A,12.0
4,20.92799997329712,learn,39072.00002670288,Fri Jan 02 2026 16:01:04 GMT-0600 (Central Standard Time),467907.2999999523,A,k,I,k,277,2,283.7000000476837,467623.59999990463,8069,WL,A,13.0
4,21.111000061035156,learn,38888.999938964844,Fri Jan 02 2026 16:01:04 GMT-0600 (Central Standard Time),468089.89999997616,A,ke,I,e,168,2,466.3000000715256,467623.59999990463,8069,WL,A,13.0
4,21.30999994277954,learn,38690.00005722046,Fri Jan 02 2026 16:01:04 GMT-0600 (Central Standard Time),468289.59999990463,A,key,I,y,179,2,666.0,467623.59999990463,8069,WL,A,13.0
4,21.776999950408936,learn,38223.000049591064,Fri Jan 02 2026 16:01:04 GMT-0600 (Central Standard Time),468756.1999999285,A,keyenter,I,enter,451,2,1132.6000000238419,467623.59999990463,8069,WL,A,13.0
4,24.243000030517578,learn,35756.99996948242,Fri Jan 02 2026 16:01:04 GMT-0600 (Central Standard Time),471222.09999990463,A,h,I,h,2457,2,2465.5999999046326,468756.5,8069,WL,A,14.0
4,24.542999982833862,learn,35457.00001716614,Fri Jan 02 2026 16:01:04 GMT-0600 (Central Standard Time),471522.0,A,ha,I,a,278,2,2765.5,468756.5,8069,WL,A,14.0
4,24.659000158309937,learn,35340.99984169006,Fri Jan 02 2026 16:01:04 GMT-0600 (Central Standard Time),471638.5,A,hap,I,p,99,2,2882.0,468756.5,8069,WL,A,14.0
4,25.342999935150146,learn,34657.00006484985,Fri Jan 02 2026 16:01:04 GMT-0600 (Central Standard Time),472322.59999990463,A,ha,I,backspace,677,2,3566.0999999046326,468756.5,8069,WL,A,14.0
4,25.4760000705719,learn,34523.9999294281,Fri Jan 02 2026 16:01:04 GMT-0600 (Central Standard Time),472454.89999997616,A,har,I,r,114,2,3698.399999976158,468756.5,8069,WL,A,14.0
4,25.692000150680542,learn,34307.99984931946,Fri Jan 02 2026 16:01:04 GMT-0600 (Central Standard Time),472671.59999990463,A,harp,I,p,205,2,3915.0999999046326,468756.5,8069,WL,A,14.0
4,26.04200005531311,learn,33957.99994468689,Fri Jan 02 2026 16:01:04 GMT-0600 (Central Standard Time),473021.59999990463,A,harpenter,I,enter,341,2,4265.099999904633,468756.5,8069,WL,A,14.0
4,30.0239999294281,learn,29976.0000705719,Fri Jan 02 2026 16:01:04 GMT-0600 (Central Standard Time),477003.6999999285,A,t,I,t,3974,2,3981.899999976158,473021.7999999523,8069,WL,A,15.0
4,30.258000135421753,learn,29741.999864578247,Fri Jan 02 2026 16:01:04 GMT-0600 (Central Standard Time),477237.2999999523,A,tr,I,r,216,2,4215.5,473021.7999999523,8069,WL,A,15.0
4,30.457000017166138,learn,29542.999982833862,Fri Jan 02 2026 16:01:04 GMT-0600 (Central Standard Time),477436.59999990463,A,tra,I,a,183,2,4414.799999952316,473021.7999999523,8069,WL,A,15.0
4,30.557000160217285,learn,29442.999839782715,Fri Jan 02 2026 16:01:04 GMT-0600 (Central Standard Time),477536.6999999285,A,trai,I,i,80,2,4514.899999976158,473021.7999999523,8069,WL,A,15.0
4,30.623000144958496,learn,29376.999855041504,Fri Jan 02 2026 16:01:04 GMT-0600 (Central Standard Time),477603.2999999523,A,train,I,n,51,2,4581.5,473021.7999999523,8069,WL,A,15.0
4,31.10700011253357,learn,28892.99988746643,Fri Jan 02 2026 16:01:04 GMT-0600 (Central Standard Time),478086.39999997616,A,trainenter,I,enter,465,2,5064.600000023842,473021.7999999523,8069,WL,A,15.0
5,1.3329999446868896,learn,60000.0,Fri Jan 02 2026 16:01:04 GMT-0600 (Central Standard Time),547398.2999999523,A,c,I,c,1323,2,1333.0,546065.2999999523,8069,WL,A,1.0
5,1.431999921798706,learn,60000.0,Fri Jan 02 2026 16:01:04 GMT-0600 (Central Standard Time),547497.7999999523,A,ch,I,h,93,2,1432.5,546065.2999999523,8069,WL,A,1.0
5,1.5829999446868896,learn,60000.0,Fri Jan 02 2026 16:01:04 GMT-0600 (Central Standard Time),547648.0,A,chi,I,i,130,2,1582.7000000476837,546065.2999999523,8069,WL,A,1.0
5,1.933000087738037,learn,60000.0,Fri Jan 02 2026 16:01:04 GMT-0600 (Central Standard Time),547997.8999999762,A,chim,I,m,333,2,1932.6000000238419,546065.2999999523,8069,WL,A,1.0
5,2.4660000801086426,learn,60000.0,Fri Jan 02 2026 16:01:04 GMT-0600 (Central Standard Time),548530.7999999523,A,chimn,I,n,518,2,2465.5,546065.2999999523,8069,WL,A,1.0
5,2.615999937057495,learn,60000.0,Fri Jan 02 2026 16:01:04 GMT-0600 (Central Standard Time),548681.2999999523,A,chimne,I,e,138,2,2616.0,546065.2999999523,8069,WL,A,1.0
5,2.815999984741211,learn,60000.0,Fri Jan 02 2026 16:01:04 GMT-0600 (Central Standard Time),548881.0,A,chimney,I,y,187,2,2815.7000000476837,546065.2999999523,8069,WL,A,1.0
5,3.3489999771118164,learn,60000.0,Fri Jan 02 2026 16:01:04 GMT-0600 (Central Standard Time),549414.0999999046,A,chimneyenter,I,enter,523,2,3348.7999999523163,546065.2999999523,8069,WL,A,1.0
5,3.699000120162964,learn,60000.0,Fri Jan 02 2026 16:01:04 GMT-0600 (Central Standard Time),549763.8999999762,A,l,I,l,335,2,349.39999997615814,549414.5,8069,WL,A,2.0
5,3.9149999618530273,learn,60000.0,Fri Jan 02 2026 16:01:04 GMT-0600 (Central Standard Time),549980.6999999285,A,lo,I,o,201,2,566.1999999284744,549414.5,8069,WL,A,2.0
5,4.049000024795532,learn,60000.0,Fri Jan 02 2026 16:01:04 GMT-0600 (Central Standard Time),550114.3999999762,A,log,I,g,120,2,699.8999999761581,549414.5,8069,WL,A,2.0
5,4.2149999141693115,learn,60000.0,Fri Jan 02 2026 16:01:04 GMT-0600 (Central Standard Time),550280.5999999046,A,logenter,I,enter,154,2,866.0999999046326,549414.5,8069,WL,A,2.0
5,4.5320000648498535,learn,60000.0,Fri Jan 02 2026 16:01:04 GMT-0600 (Central Standard Time),550597.0,A,b,I,b,308,2,316.0,550281.0,8069,WL,A,3.0
5,4.631999969482422,learn,60000.0,Fri Jan 02 2026 16:01:04 GMT-0600 (Central Standard Time),550697.0,A,bu,I,u,87,2,416.0,550281.0,8069,WL,A,3.0
5,4.832000017166138,learn,60000.0,Fri Jan 02 2026 16:01:04 GMT-0600 (Central Standard Time),550896.8999999762,A,but,I,t,187,2,615.8999999761581,550281.0,8069,WL,A,3.0
5,4.997999906539917,learn,60000.0,Fri Jan 02 2026 16:01:04 GMT-0600 (Central Standard Time),551063.6999999285,A,butt,I,t,148,2,782.6999999284744,550281.0,8069,WL,A,3.0
5,5.0980000495910645,learn,60000.0,Fri Jan 02 2026 16:01:04 GMT-0600 (Central Standard Time),551163.7999999523,A,butto,I,o,85,2,882.7999999523163,550281.0,8069,WL,A,3.0
5,5.232000112533569,learn,60000.0,Fri Jan 02 2026 16:01:04 GMT-0600 (Central Standard Time),551296.8999999762,A,button,I,n,112,2,1015.8999999761581,550281.0,8069,WL,A,3.0
5,5.549000024795532,learn,60000.0,Fri Jan 02 2026 16:01:04 GMT-0600 (Central Standard Time),551613.7999999523,A,buttonenter,I,enter,308,2,1332.7999999523163,550281.0,8069,WL,A,3.0
5,5.730999946594238,learn,60000.0,Fri Jan 02 2026 16:01:04 GMT-0600 (Central Standard Time),551796.7999999523,A,r,I,r,174,2,182.70000004768372,551614.0999999046,8069,WL,A,4.0
5,5.88100004196167,learn,60000.0,Fri Jan 02 2026 16:01:04 GMT-0600 (Central Standard Time),551946.6999999285,A,ra,I,a,143,2,332.60000002384186,551614.0999999046,8069,WL,A,4.0
5,6.063999891281128,learn,60000.0,Fri Jan 02 2026 16:01:04 GMT-0600 (Central Standard Time),552129.5999999046,A,rat,I,t,178,2,515.5,551614.0999999046,8069,WL,A,4.0
5,6.230999946594238,learn,60000.0,Fri Jan 02 2026 16:01:04 GMT-0600 (Central Standard Time),552296.5,A,ratt,I,t,146,2,682.4000000953674,551614.0999999046,8069,WL,A,4.0
5,6.364000082015991,learn,60000.0,Fri Jan 02 2026 16:01:04 GMT-0600 (Central Standard Time),552429.5999999046,A,rattl,I,l,116,2,815.5,551614.0999999046,8069,WL,A,4.0
5,6.497999906539917,learn,60000.0,Fri Jan 02 2026 16:01:04 GMT-0600 (Central Standard Time),552563.0,A,rattle,I,e,118,2,948.9000000953674,551614.0999999046,8069,WL,A,4.0
5,6.664000034332275,learn,60000.0,Fri Jan 02 2026 16:01:04 GMT-0600 (Central Standard Time),552729.7999999523,A,rattleenter,I,enter,154,2,1115.7000000476837,551614.0999999046,8069,WL,A,4.0
5,6.947999954223633,learn,60000.0,Fri Jan 02 2026 16:01:04 GMT-0600 (Central Standard Time),553012.8999999762,A,k,I,k,275,2,282.7000000476837,552730.1999999285,8069,WL,A,5.0
5,7.114000082015991,learn,60000.0,Fri Jan 02 2026 16:01:04 GMT-0600 (Central Standard Time),553179.6999999285,A,ke,I,e,151,2,449.5,552730.1999999285,8069,WL,A,5.0
5,7.29800009727478,learn,60000.0,Fri Jan 02 2026 16:01:04 GMT-0600 (Central Standard Time),553362.8999999762,A,key,I,y,177,2,632.7000000476837,552730.1999999285,8069,WL,A,5.0
5,7.563999891281128,learn,60000.0,Fri Jan 02 2026 16:01:04 GMT-0600 (Central Standard Time),553629.5,A,keyenter,I,enter,250,2,899.3000000715256,552730.1999999285,8069,WL,A,5.0
5,7.831000089645386,learn,60000.0,Fri Jan 02 2026 16:01:04 GMT-0600 (Central Standard Time),553896.1999999285,A,g,I,g,255,2,266.39999997615814,553629.7999999523,8069,WL,A,6.0
5,7.897000074386597,learn,60000.0,Fri Jan 02 2026 16:01:04 GMT-0600 (Central Standard Time),553962.5,A,go,I,o,52,2,332.7000000476837,553629.7999999523,8069,WL,A,6.0
5,8.114000082015991,learn,60000.0,Fri Jan 02 2026 16:01:04 GMT-0600 (Central Standard Time),554179.2999999523,A,gol,I,l,210,2,549.5,553629.7999999523,8069,WL,A,6.0
5,8.263999938964844,learn,60000.0,Fri Jan 02 2026 16:01:04 GMT-0600 (Central Standard Time),554329.2999999523,A,gold,I,d,129,2,699.5,553629.7999999523,8069,WL,A,6.0
5,8.647000074386597,learn,60000.0,Fri Jan 02 2026 16:01:04 GMT-0600 (Central Standard Time),554712.5999999046,A,goldenter,I,enter,362,2,1082.7999999523163,553629.7999999523,8069,WL,A,6.0
5,8.897000074386597,learn,60000.0,Fri Jan 02 2026 16:01:04 GMT-0600 (Central Standard Time),554962.2999999523,A,a,I,a,236,2,249.29999995231628,554713.0,8069,WL,A,7.0
5,9.013999938964844,learn,60000.0,Fri Jan 02 2026 16:01:04 GMT-0600 (Central Standard Time),555079.0999999046,A,ap,I,p,106,2,366.09999990463257,554713.0,8069,WL,A,7.0
5,9.180000066757202,learn,60000.0,Fri Jan 02 2026 16:01:04 GMT-0600 (Central Standard Time),555245.7999999523,A,app,I,p,149,2,532.7999999523163,554713.0,8069,WL,A,7.0
5,9.44700002670288,learn,60000.0,Fri Jan 02 2026 16:01:04 GMT-0600 (Central Standard Time),555512.1999999285,A,appl,I,l,246,2,799.1999999284744,554713.0,8069,WL,A,7.0
5,9.630000114440918,learn,60000.0,Fri Jan 02 2026 16:01:04 GMT-0600 (Central Standard Time),555695.5999999046,A,apple,I,e,164,2,982.5999999046326,554713.0,8069,WL,A,7.0
5,9.86299991607666,learn,60000.0,Fri Jan 02 2026 16:01:04 GMT-0600 (Central Standard Time),555928.6999999285,A,appleenter,I,enter,211,2,1215.6999999284744,554713.0,8069,WL,A,7.0
5,10.147000074386597,learn,60000.0,Fri Jan 02 2026 16:01:04 GMT-0600 (Central Standard Time),556212.0,A,b,I,b,276,2,283.0,555929.0,8069,WL,A,8.0
5,10.246000051498413,learn,60000.0,Fri Jan 02 2026 16:01:04 GMT-0600 (Central Standard Time),556311.5999999046,A,bo,I,o,88,2,382.59999990463257,555929.0,8069,WL,A,8.0
5,10.380000114440918,learn,60000.0,Fri Jan 02 2026 16:01:04 GMT-0600 (Central Standard Time),556445.1999999285,A,boo,I,o,125,2,516.1999999284744,555929.0,8069,WL,A,8.0
5,10.61299991607666,learn,60000.0,Fri Jan 02 2026 16:01:04 GMT-0600 (Central Standard Time),556678.6999999285,A,book,I,k,222,2,749.6999999284744,555929.0,8069,WL,A,8.0
5,11.213000059127808,learn,60000.0,Fri Jan 02 2026 16:01:04 GMT-0600 (Central Standard Time),557278.3999999762,A,bookenter,I,enter,590,2,1349.3999999761581,555929.0,8069,WL,A,8.0
5,16.16100001335144,learn,60000.0,Fri Jan 02 2026 16:01:04 GMT-0600 (Central Standard Time),562226.7999999523,A,f,I,f,4942,2,4948.100000023842,557278.6999999285,8069,WL,A,9.0
5,16.311000108718872,learn,60000.0,Fri Jan 02 2026 16:01:04 GMT-0600 (Central Standard Time),562376.5,A,fl,I,l,138,2,5097.800000071526,557278.6999999285,8069,WL,A,9.0
5,16.477999925613403,learn,60000.0,Fri Jan 02 2026 16:01:04 GMT-0600 (Central Standard Time),562543.0999999046,A,flo,I,o,156,2,5264.399999976158,557278.6999999285,8069,WL,A,9.0
5,16.57800006866455,learn,60000.0,Fri Jan 02 2026 16:01:04 GMT-0600 (Central Standard Time),562643.3999999762,A,flow,I,w,85,2,5364.700000047684,557278.6999999285,8069,WL,A,9.0
5,16.84500002861023,learn,60000.0,Fri Jan 02 2026 16:01:04 GMT-0600 (Central Standard Time),562909.8999999762,A,flowe,I,e,249,2,5631.200000047684,557278.6999999285,8069,WL,A,9.0
5,16.92799997329712,learn,60000.0,Fri Jan 02 2026 16:01:04 GMT-0600 (Central Standard Time),562992.8999999762,A,flower,I,r,78,2,5714.200000047684,557278.6999999285,8069,WL,A,9.0
5,17.51200008392334,learn,60000.0,Fri Jan 02 2026 16:01:04 GMT-0600 (Central Standard Time),563577.6999999285,A,flowerenter,I,enter,563,2,6299.0,557278.6999999285,8069,WL,A,9.0
5,18.311000108718872,learn,60000.0,Fri Jan 02 2026 16:01:04 GMT-0600 (Central Standard Time),564376.2999999523,A,m,I,m,778,2,798.2999999523163,563578.0,8069,WL,A,10.0
5,18.41100001335144,learn,60000.0,Fri Jan 02 2026 16:01:04 GMT-0600 (Central Standard Time),564476.2999999523,A,me,I,e,84,2,898.2999999523163,563578.0,8069,WL,A,10.0
5,18.52900004386902,learn,60000.0,Fri Jan 02 2026 16:01:04 GMT-0600 (Central Standard Time),564593.8999999762,A,mea,I,a,104,2,1015.8999999761581,563578.0,8069,WL,A,10.0
5,18.759999990463257,learn,60000.0,Fri Jan 02 2026 16:01:04 GMT-0600 (Central Standard Time),564825.5999999046,A,mead,I,d,225,2,1247.5999999046326,563578.0,8069,WL,A,10.0
5,18.877000093460083,learn,60000.0,Fri Jan 02 2026 16:01:04 GMT-0600 (Central Standard Time),564942.5999999046,A,meado,I,o,105,2,1364.5999999046326,563578.0,8069,WL,A,10.0
5,19.05999994277954,learn,60000.0,Fri Jan 02 2026 16:01:04 GMT-0600 (Central Standard Time),565125.7999999523,A,meadow,I,w,174,2,1547.7999999523163,563578.0,8069,WL,A,10.0
5,19.66100001335144,learn,60000.0,Fri Jan 02 2026 16:01:04 GMT-0600 (Central Standard Time),565725.8999999762,A,meadowenter,I,enter,591,2,2147.899999976158,563578.0,8069,WL,A,10.0
5,25.259000062942505,learn,60000.0,Fri Jan 02 2026 16:01:04 GMT-0600 (Central Standard Time),571323.8999999762,A,f,I,f,5591,2,5597.700000047684,565726.1999999285,8069,WL,A,11.0
5,25.691999912261963,learn,60000.0,Fri Jan 02 2026 16:01:04 GMT-0600 (Central Standard Time),571757.0,A,fi,I,i,416,2,6030.800000071526,565726.1999999285,8069,WL,A,11.0
5,25.875,learn,60000.0,Fri Jan 02 2026 16:01:04 GMT-0600 (Central Standard Time),571940.5,A,fin,I,n,166,2,6214.300000071526,565726.1999999285,8069,WL,A,11.0
5,26.02500009536743,learn,60000.0,Fri Jan 02 2026 16:01:04 GMT-0600 (Central Standard Time),572090.3999999762,A,fing,I,g,143,2,6364.200000047684,565726.1999999285,8069,WL,A,11.0
5,26.242000102996826,learn,60000.0,Fri Jan 02 2026 16:01:04 GMT-0600 (Central Standard Time),572307.0,A,finge,I,e,202,2,6580.800000071526,565726.1999999285,8069,WL,A,11.0
5,26.341000080108643,learn,60000.0,Fri Jan 02 2026 16:01:04 GMT-0600 (Central Standard Time),572406.6999999285,A,finger,I,r,81,2,6680.5,565726.1999999285,8069,WL,A,11.0
5,26.558000087738037,learn,60000.0,Fri Jan 02 2026 16:01:04 GMT-0600 (Central Standard Time),572623.5999999046,A,fingerenter,I,enter,197,2,6897.399999976158,565726.1999999285,8069,WL,A,11.0
5,29.973999977111816,learn,60000.0,Fri Jan 02 2026 16:01:04 GMT-0600 (Central Standard Time),576039.0999999046,A,k,I,k,3405,2,3415.0999999046326,572624.0,8069,WL,A,12.0
5,30.141000032424927,learn,60000.0,Fri Jan 02 2026 16:01:04 GMT-0600 (Central Standard Time),576205.7999999523,A,ke,I,e,157,2,3581.7999999523163,572624.0,8069,WL,A,12.0
5,30.289999961853027,learn,60000.0,Fri Jan 02 2026 16:01:04 GMT-0600 (Central Standard Time),576355.6999999285,A,key,I,y,135,2,3731.6999999284744,572624.0,8069,WL,A,12.0
5,30.641000032424927,learn,60000.0,Fri Jan 02 2026 16:01:04 GMT-0600 (Central Standard Time),576705.7999999523,A,keyenter,I,enter,337,2,4081.7999999523163,572624.0,8069,WL,A,12.0
5,31.956000089645386,learn,60000.0,Fri Jan 02 2026 16:01:04 GMT-0600 (Central Standard Time),578021.6999999285,A,c,I,c,1305,2,1315.5,576706.1999999285,8069,WL,A,13.0
5,32.10599994659424,learn,60000.0,Fri Jan 02 2026 16:01:04 GMT-0600 (Central Standard Time),578171.7999999523,A,ch,I,h,135,2,1465.6000000238419,576706.1999999285,8069,WL,A,13.0
5,32.33999991416931,learn,60000.0,Fri Jan 02 2026 16:01:04 GMT-0600 (Central Standard Time),578405.0,A,chi,I,i,217,2,1698.8000000715256,576706.1999999285,8069,WL,A,13.0
5,32.555999994277954,learn,60000.0,Fri Jan 02 2026 16:01:04 GMT-0600 (Central Standard Time),578621.5999999046,A,chim,I,m,199,2,1915.3999999761581,576706.1999999285,8069,WL,A,13.0
5,32.90599989891052,learn,60000.0,Fri Jan 02 2026 16:01:04 GMT-0600 (Central Standard Time),578971.5,A,chimn,I,n,343,2,2265.3000000715256,576706.1999999285,8069,WL,A,13.0
5,33.10599994659424,learn,60000.0,Fri Jan 02 2026 16:01:04 GMT-0600 (Central Standard Time),579171.3999999762,A,chimne,I,e,184,2,2465.2000000476837,576706.1999999285,8069,WL,A,13.0
5,33.25600004196167,learn,60000.0,Fri Jan 02 2026 16:01:04 GMT-0600 (Central Standard Time),579321.3999999762,A,chimney,I,y,137,2,2615.2000000476837,576706.1999999285,8069,WL,A,13.0
5,33.83899998664856,learn,60000.0,Fri Jan 02 2026 16:01:04 GMT-0600 (Central Standard Time),579904.5999999046,A,chimneyenter,I,enter,571,2,3198.399999976158,576706.1999999285,8069,WL,A,13.0
5,34.40599989891052,learn,60000.0,Fri Jan 02 2026 16:01:04 GMT-0600 (Central Standard Time),580471.2999999523,A,b,I,b,548,2,566.3999999761581,579904.8999999762,8069,WL,A,14.0
5,34.539000034332275,learn,60000.0,Fri Jan 02 2026 16:01:04 GMT-0600 (Central Standard Time),580604.3999999762,A,bu,I,u,124,2,699.5,579904.8999999762,8069,WL,A,14.0
5,34.789000034332275,learn,60000.0,Fri Jan 02 2026 16:01:04 GMT-0600 (Central Standard Time),580854.1999999285,A,but,I,t,240,2,949.2999999523163,579904.8999999762,8069,WL,A,14.0
5,34.93899989128113,learn,60000.0,Fri Jan 02 2026 16:01:04 GMT-0600 (Central Standard Time),581004.1999999285,A,butt,I,t,142,2,1099.2999999523163,579904.8999999762,8069,WL,A,14.0
5,35.055999994277954,learn,60000.0,Fri Jan 02 2026 16:01:04 GMT-0600 (Central Standard Time),581120.8999999762,A,butto,I,o,104,2,1216.0,579904.8999999762,8069,WL,A,14.0
5,35.15700006484985,learn,60000.0,Fri Jan 02 2026 16:01:04 GMT-0600 (Central Standard Time),581221.8999999762,A,button,I,n,83,2,1317.0,579904.8999999762,8069,WL,A,14.0
5,35.789000034332275,learn,60000.0,Fri Jan 02 2026 16:01:04 GMT-0600 (Central Standard Time),581854.0999999046,A,buttonenter,I,enter,614,2,1949.1999999284744,579904.8999999762,8069,WL,A,14.0
5,37.954999923706055,learn,60000.0,Fri Jan 02 2026 16:01:04 GMT-0600 (Central Standard Time),584019.8999999762,A,s,I,s,2159,2,2165.600000023842,581854.2999999523,8069,WL,A,15.0
5,38.12100005149841,learn,60000.0,Fri Jan 02 2026 16:01:04 GMT-0600 (Central Standard Time),584186.5999999046,A,sa,I,a,160,2,2332.2999999523163,581854.2999999523,8069,WL,A,15.0
5,38.270999908447266,learn,60000.0,Fri Jan 02 2026 16:01:04 GMT-0600 (Central Standard Time),584336.7999999523,A,sal,I,l,138,2,2482.5,581854.2999999523,8069,WL,A,15.0
5,38.40400004386902,learn,60000.0,Fri Jan 02 2026 16:01:04 GMT-0600 (Central Standard Time),584469.7999999523,A,salt,I,t,124,2,2615.5,581854.2999999523,8069,WL,A,15.0
5,38.687999963760376,learn,60000.0,Fri Jan 02 2026 16:01:04 GMT-0600 (Central Standard Time),584753.0999999046,A,saltenter,I,enter,271,2,2898.7999999523163,581854.2999999523,8069,WL,A,15.0
6,1.2160000801086426,distr,58783.99991989136,Fri Jan 02 2026 16:01:04 GMT-0600 (Central Standard Time),650881.7999999523,B,b,I,b,1210,2,1215.7999999523163,649666.0,8069,WL,A,1.0
6,1.7829999923706055,distr,58217.000007629395,Fri Jan 02 2026 16:01:04 GMT-0600 (Central Standard Time),651448.5,B,bo,I,o,553,2,1782.5,649666.0,8069,WL,A,1.0
6,2.0160000324249268,distr,57983.99996757507,Fri Jan 02 2026 16:01:04 GMT-0600 (Central Standard Time),651681.5999999046,B,bow,I,w,227,2,2015.5999999046326,649666.0,8069,WL,A,1.0
6,2.200000047683716,distr,57799.999952316284,Fri Jan 02 2026 16:01:04 GMT-0600 (Central Standard Time),651865.2999999523,B,bowl,I,l,163,2,2199.2999999523163,649666.0,8069,WL,A,1.0
6,2.7829999923706055,distr,57217.000007629395,Fri Jan 02 2026 16:01:04 GMT-0600 (Central Standard Time),652448.3999999762,B,bowlenter,I,enter,562,2,2782.399999976158,649666.0,8069,WL,A,1.0
6,3.314000129699707,distr,56685.99987030029,Fri Jan 02 2026 16:01:04 GMT-0600 (Central Standard Time),652979.1999999285,B,o,I,o,526,2,530.3999999761581,652448.7999999523,8069,WL,A,2.0
6,3.4610002040863037,distr,56538.999795913696,Fri Jan 02 2026 16:01:04 GMT-0600 (Central Standard Time),653126.6999999285,B,ou,I,u,141,2,677.8999999761581,652448.7999999523,8069,WL,A,2.0
6,3.632000207901001,distr,56367.999792099,Fri Jan 02 2026 16:01:04 GMT-0600 (Central Standard Time),653297.8999999762,B,oun,I,n,164,2,849.1000000238419,652448.7999999523,8069,WL,A,2.0
6,4.0329999923706055,distr,55967.000007629395,Fri Jan 02 2026 16:01:04 GMT-0600 (Central Standard Time),653698.2999999523,B,ou,I,backspace,387,2,1249.5,652448.7999999523,8069,WL,A,2.0
6,4.199000120162964,distr,55800.999879837036,Fri Jan 02 2026 16:01:04 GMT-0600 (Central Standard Time),653864.7999999523,B,o,I,backspace,154,2,1416.0,652448.7999999523,8069,WL,A,2.0
6,4.332000017166138,distr,55667.99998283386,Fri Jan 02 2026 16:01:04 GMT-0600 (Central Standard Time),653997.8999999762,B,,I,backspace,116,2,1549.1000000238419,652448.7999999523,8069,WL,A,2.0
6,4.716000080108643,distr,55283.99991989136,Fri Jan 02 2026 16:01:04 GMT-0600 (Central Standard Time),654381.1999999285,B,c,I,c,375,2,1932.3999999761581,652448.7999999523,8069,WL,A,2.0
6,4.882000207901001,distr,55117.999792099,Fri Jan 02 2026 16:01:04 GMT-0600 (Central Standard Time),654547.5999999046,B,co,I,o,150,2,2098.7999999523163,652448.7999999523,8069,WL,A,2.0
6,4.999000072479248,distr,55000.99992752075,Fri Jan 02 2026 16:01:04 GMT-0600 (Central Standard Time),654664.2999999523,B,cou,I,u,96,2,2215.5,652448.7999999523,8069,WL,A,2.0
6,5.248000144958496,distr,54751.999855041504,Fri Jan 02 2026 16:01:04 GMT-0600 (Central Standard Time),654914.0,B,coun,I,n,244,2,2465.2000000476837,652448.7999999523,8069,WL,A,2.0
6,5.39900016784668,distr,54600.99983215332,Fri Jan 02 2026 16:01:04 GMT-0600 (Central Standard Time),655064.1999999285,B,count,I,t,138,2,2615.399999976158,652448.7999999523,8069,WL,A,2.0
6,5.582000017166138,distr,54417.99998283386,Fri Jan 02 2026 16:01:04 GMT-0600 (Central Standard Time),655247.8999999762,B,county,I,y,163,2,2799.100000023842,652448.7999999523,8069,WL,A,2.0
6,6.315000057220459,distr,53684.99994277954,Fri Jan 02 2026 16:01:04 GMT-0600 (Central Standard Time),655980.2999999523,B,countyenter,I,enter,715,2,3531.5,652448.7999999523,8069,WL,A,2.0
6,6.948000192642212,distr,53051.99980735779,Fri Jan 02 2026 16:01:04 GMT-0600 (Central Standard Time),656613.8999999762,B,s,I,s,623,2,633.3000000715256,655980.5999999046,8069,WL,A,3.0
6,7.414000034332275,distr,52585.999965667725,Fri Jan 02 2026 16:01:04 GMT-0600 (Central Standard Time),657080.0999999046,B,se,I,e,445,2,1099.5,655980.5999999046,8069,WL,A,3.0
6,7.54800009727478,distr,52451.99990272522,Fri Jan 02 2026 16:01:04 GMT-0600 (Central Standard Time),657213.7999999523,B,see,I,e,117,2,1233.2000000476837,655980.5999999046,8069,WL,A,3.0
6,7.781000137329102,distr,52218.9998626709,Fri Jan 02 2026 16:01:04 GMT-0600 (Central Standard Time),657446.6999999285,B,seed,I,d,215,2,1466.1000000238419,655980.5999999046,8069,WL,A,3.0
6,8.114000082015991,distr,51885.99991798401,Fri Jan 02 2026 16:01:04 GMT-0600 (Central Standard Time),657779.8999999762,B,seedenter,I,enter,326,2,1799.3000000715256,655980.5999999046,8069,WL,A,3.0
6,8.297000169754028,distr,51702.99983024597,Fri Jan 02 2026 16:01:04 GMT-0600 (Central Standard Time),657963.2999999523,B,g,I,g,177,2,183.0,657780.2999999523,8069,WL,A,4.0
6,8.498000144958496,distr,51501.999855041504,Fri Jan 02 2026 16:01:04 GMT-0600 (Central Standard Time),658163.5999999046,B,gr,I,r,186,2,383.2999999523163,657780.2999999523,8069,WL,A,4.0
6,8.598000049591064,distr,51401.999950408936,Fri Jan 02 2026 16:01:04 GMT-0600 (Central Standard Time),658263.5999999046,B,gra,I,a,80,2,483.2999999523163,657780.2999999523,8069,WL,A,4.0
6,8.747000217437744,distr,51252.999782562256,Fri Jan 02 2026 16:01:04 GMT-0600 (Central Standard Time),658413.3999999762,B,gran,I,n,133,2,633.1000000238419,657780.2999999523,8069,WL,A,4.0
6,8.897000074386597,distr,51102.9999256134,Fri Jan 02 2026 16:01:04 GMT-0600 (Central Standard Time),658563.1999999285,B,grant,I,t,142,2,782.8999999761581,657780.2999999523,8069,WL,A,4.0
6,9.180999994277954,distr,50819.000005722046,Fri Jan 02 2026 16:01:04 GMT-0600 (Central Standard Time),658846.3999999762,B,grantenter,I,enter,265,2,1066.1000000238419,657780.2999999523,8069,WL,A,4.0
6,9.664000034332275,distr,50335.999965667725,Fri Jan 02 2026 16:01:04 GMT-0600 (Central Standard Time),659329.3999999762,B,j,I,j,477,2,482.7000000476837,658846.6999999285,8069,WL,A,5.0
6,9.930000066757202,distr,50069.9999332428,Fri Jan 02 2026 16:01:04 GMT-0600 (Central Standard Time),659596.0999999046,B,ju,I,u,251,2,749.3999999761581,658846.6999999285,8069,WL,A,5.0
6,10.064000129699707,distr,49935.99987030029,Fri Jan 02 2026 16:01:04 GMT-0600 (Central Standard Time),659729.8999999762,B,jud,I,d,121,2,883.2000000476837,658846.6999999285,8069,WL,A,5.0
6,10.330000162124634,distr,49669.999837875366,Fri Jan 02 2026 16:01:04 GMT-0600 (Central Standard Time),659996.2999999523,B,judg,I,g,259,2,1149.6000000238419,658846.6999999285,8069,WL,A,5.0
6,10.480000019073486,distr,49519.999980926514,Fri Jan 02 2026 16:01:04 GMT-0600 (Central Standard Time),660146.0999999046,B,judge,I,e,135,2,1299.3999999761581,658846.6999999285,8069,WL,A,5.0
6,10.747000217437744,distr,49252.999782562256,Fri Jan 02 2026 16:01:04 GMT-0600 (Central Standard Time),660412.5999999046,B,judgeenter,I,enter,251,2,1565.8999999761581,658846.6999999285,8069,WL,A,5.0
6,23.55900001525879,distr,36440.99998474121,Fri Jan 02 2026 16:01:04 GMT-0600 (Central Standard Time),673225.1999999285,B,s,I,s,12792,2,12812.299999952316,660412.8999999762,8069,WL,A,6.0
6,23.79300022125244,distr,36206.99977874756,Fri Jan 02 2026 16:01:04 GMT-0600 (Central Standard Time),673458.5999999046,B,se,I,e,226,2,13045.699999928474,660412.8999999762,8069,WL,A,6.0
6,23.95900011062622,distr,36040.99988937378,Fri Jan 02 2026 16:01:04 GMT-0600 (Central Standard Time),673625.1999999285,B,sea,I,a,146,2,13212.299999952316,660412.8999999762,8069,WL,A,6.0
6,24.12600016593933,distr,35873.99983406067,Fri Jan 02 2026 16:01:04 GMT-0600 (Central Standard Time),673791.8999999762,B,seat,I,t,155,2,13379.0,660412.8999999762,8069,WL,A,6.0
6,24.776000022888184,distr,35223.99997711182,Fri Jan 02 2026 16:01:04 GMT-0600 (Central Standard Time),674441.6999999285,B,seatenter,I,enter,637,2,14028.799999952316,660412.8999999762,8069,WL,A,6.0
6,27.992000102996826,distr,32007.999897003174,Fri Jan 02 2026 16:01:04 GMT-0600 (Central Standard Time),677657.5999999046,B,enter,I,enter,3203,2,3215.5999999046326,674442.0,8069,WL,A,7.0
6,28.95800018310547,distr,31041.99981689453,Fri Jan 02 2026 16:01:04 GMT-0600 (Central Standard Time),678623.6999999285,B,enter,I,enter,954,2,965.7999999523163,677657.8999999762,8069,WL,A,8.0
6,29.29100012779236,distr,30708.99987220764,Fri Jan 02 2026 16:01:04 GMT-0600 (Central Standard Time),678957.1999999285,B,enter,I,enter,316,2,333.1999999284744,678624.0,8069,WL,A,9.0
6,29.591000080108643,distr,30408.999919891357,Fri Jan 02 2026 16:01:04 GMT-0600 (Central Standard Time),679256.7999999523,B,enter,I,enter,279,2,299.39999997615814,678957.3999999762,8069,WL,A,10.0
6,29.824000120162964,distr,30175.999879837036,Fri Jan 02 2026 16:01:04 GMT-0600 (Central Standard Time),679490.0,B,enter,I,enter,219,2,232.80000007152557,679257.1999999285,8069,WL,A,11.0
6,30.04100012779236,distr,29958.99987220764,Fri Jan 02 2026 16:01:04 GMT-0600 (Central Standard Time),679706.5999999046,B,enter,I,enter,211,2,216.29999995231628,679490.2999999523,8069,WL,A,12.0
6,30.491000175476074,distr,29508.999824523926,Fri Jan 02 2026 16:01:04 GMT-0600 (Central Standard Time),680156.8999999762,B,enter,I,enter,434,2,450.0,679706.8999999762,8069,WL,A,13.0
6,30.824000120162964,distr,29175.999879837036,Fri Jan 02 2026 16:01:04 GMT-0600 (Central Standard Time),680489.5999999046,B,enter,I,enter,320,2,332.39999997615814,680157.1999999285,8069,WL,A,14.0
6,31.407000064849854,distr,28592.999935150146,Fri Jan 02 2026 16:01:04 GMT-0600 (Central Standard Time),681072.7999999523,B,enter,I,enter,570,2,582.7999999523163,680490.0,8069,WL,A,15.0
7,6.031000137329102,immed,53968.9998626709,Fri Jan 02 2026 16:01:04 GMT-0600 (Central Standard Time),688170.2999999523,A,b,I,b,6025,2,6030.899999976158,682139.3999999762,8069,WL,A,1.0
7,6.447999954223633,immed,53552.00004577637,Fri Jan 02 2026 16:01:04 GMT-0600 (Central Standard Time),688586.8999999762,A,bo,I,o,410,2,6447.5,682139.3999999762,8069,WL,A,1.0
7,6.5980000495910645,immed,53401.999950408936,Fri Jan 02 2026 16:01:04 GMT-0600 (Central Standard Time),688737.0999999046,A,boo,I,o,146,2,6597.699999928474,682139.3999999762,8069,WL,A,1.0
7,6.832000017166138,immed,53167.99998283386,Fri Jan 02 2026 16:01:04 GMT-0600 (Central Standard Time),688970.5,A,book,I,k,218,2,6831.100000023842,682139.3999999762,8069,WL,A,1.0
7,7.148000001907349,immed,52851.99999809265,Fri Jan 02 2026 16:01:04 GMT-0600 (Central Standard Time),689286.6999999285,A,bookenter,I,enter,297,2,7147.299999952316,682139.3999999762,8069,WL,A,1.0
7,8.115000009536743,immed,51884.99999046326,Fri Jan 02 2026 16:01:04 GMT-0600 (Central Standard Time),690253.5,A,m,I,m,950,2,966.5,689287.0,8069,WL,A,2.0
7,8.29800009727478,immed,51701.99990272522,Fri Jan 02 2026 16:01:04 GMT-0600 (Central Standard Time),690436.5999999046,A,me,I,e,167,2,1149.5999999046326,689287.0,8069,WL,A,2.0
7,8.414999961853027,immed,51585.00003814697,Fri Jan 02 2026 16:01:04 GMT-0600 (Central Standard Time),690553.3999999762,A,mea,I,a,96,2,1266.3999999761581,689287.0,8069,WL,A,2.0
7,8.763999938964844,immed,51236.000061035156,Fri Jan 02 2026 16:01:04 GMT-0600 (Central Standard Time),690902.8999999762,A,mead,I,d,339,2,1615.8999999761581,689287.0,8069,WL,A,2.0
7,8.864000082015991,immed,51135.99991798401,Fri Jan 02 2026 16:01:04 GMT-0600 (Central Standard Time),691002.8999999762,A,meado,I,o,86,2,1715.8999999761581,689287.0,8069,WL,A,2.0
7,9.064000129699707,immed,50935.99987030029,Fri Jan 02 2026 16:01:04 GMT-0600 (Central Standard Time),691203.0999999046,A,meadow,I,w,185,2,1916.0999999046326,689287.0,8069,WL,A,2.0
7,9.314000129699707,immed,50685.99987030029,Fri Jan 02 2026 16:01:04 GMT-0600 (Central Standard Time),691452.6999999285,A,meadowenter,I,enter,241,2,2165.6999999284744,689287.0,8069,WL,A,2.0
7,9.597000122070312,immed,50402.99987792969,Fri Jan 02 2026 16:01:04 GMT-0600 (Central Standard Time),691736.0,A,f,I,f,262,2,283.0,691453.0,8069,WL,A,3.0
7,9.71399998664856,immed,50286.00001335144,Fri Jan 02 2026 16:01:04 GMT-0600 (Central Standard Time),691852.7999999523,A,fi,I,i,100,2,399.7999999523163,691453.0,8069,WL,A,3.0
7,9.814000129699707,immed,50185.99987030029,Fri Jan 02 2026 16:01:04 GMT-0600 (Central Standard Time),691952.6999999285,A,fin,I,n,95,2,499.6999999284744,691453.0,8069,WL,A,3.0
7,9.980000019073486,immed,50019.999980926514,Fri Jan 02 2026 16:01:04 GMT-0600 (Central Standard Time),692119.1999999285,A,find,I,d,146,2,666.1999999284744,691453.0,8069,WL,A,3.0
7,10.547000169754028,immed,49452.99983024597,Fri Jan 02 2026 16:01:04 GMT-0600 (Central Standard Time),692685.8999999762,A,fin,I,backspace,548,2,1232.8999999761581,691453.0,8069,WL,A,3.0
7,10.664000034332275,immed,49335.999965667725,Fri Jan 02 2026 16:01:04 GMT-0600 (Central Standard Time),692802.5999999046,A,fing,I,g,103,2,1349.5999999046326,691453.0,8069,WL,A,3.0
7,10.86300015449524,immed,49136.99984550476,Fri Jan 02 2026 16:01:04 GMT-0600 (Central Standard Time),693002.0999999046,A,finge,I,e,194,2,1549.0999999046326,691453.0,8069,WL,A,3.0
7,10.930000066757202,immed,49069.9999332428,Fri Jan 02 2026 16:01:04 GMT-0600 (Central Standard Time),693069.0999999046,A,finger,I,r,59,2,1616.0999999046326,691453.0,8069,WL,A,3.0
7,11.397000074386597,immed,48602.9999256134,Fri Jan 02 2026 16:01:04 GMT-0600 (Central Standard Time),693535.5999999046,A,fingerenter,I,enter,447,2,2082.5999999046326,691453.0,8069,WL,A,3.0
7,13.26200008392334,immed,46737.99991607666,Fri Jan 02 2026 16:01:04 GMT-0600 (Central Standard Time),695401.2999999523,A,a,I,a,1852,2,1865.3999999761581,693535.8999999762,8069,WL,A,4.0
7,13.396000146865845,immed,46603.999853134155,Fri Jan 02 2026 16:01:04 GMT-0600 (Central Standard Time),695534.7999999523,A,ap,I,p,114,2,1998.8999999761581,693535.8999999762,8069,WL,A,4.0
7,13.546000003814697,immed,46453.9999961853,Fri Jan 02 2026 16:01:04 GMT-0600 (Central Standard Time),695684.8999999762,A,app,I,p,132,2,2149.0,693535.8999999762,8069,WL,A,4.0
7,13.729000091552734,immed,46270.999908447266,Fri Jan 02 2026 16:01:04 GMT-0600 (Central Standard Time),695867.8999999762,A,appl,I,l,167,2,2332.0,693535.8999999762,8069,WL,A,4.0
7,13.845999956130981,immed,46154.00004386902,Fri Jan 02 2026 16:01:04 GMT-0600 (Central Standard Time),695984.6999999285,A,apple,I,e,96,2,2448.7999999523163,693535.8999999762,8069,WL,A,4.0
7,14.046000003814697,immed,45953.9999961853,Fri Jan 02 2026 16:01:04 GMT-0600 (Central Standard Time),696184.5999999046,A,appleenter,I,enter,195,2,2648.6999999284744,693535.8999999762,8069,WL,A,4.0
7,14.628999948501587,immed,45371.00005149841,Fri Jan 02 2026 16:01:04 GMT-0600 (Central Standard Time),696767.8999999762,A,k,I,k,562,2,583.0,696184.8999999762,8069,WL,A,5.0
7,14.76200008392334,immed,45237.99991607666,Fri Jan 02 2026 16:01:04 GMT-0600 (Central Standard Time),696901.2999999523,A,ke,I,e,124,2,716.3999999761581,696184.8999999762,8069,WL,A,5.0
7,14.92900013923645,immed,45070.99986076355,Fri Jan 02 2026 16:01:04 GMT-0600 (Central Standard Time),697068.0,A,key,I,y,150,2,883.1000000238419,696184.8999999762,8069,WL,A,5.0
7,15.196000099182129,immed,44803.99990081787,Fri Jan 02 2026 16:01:04 GMT-0600 (Central Standard Time),697334.3999999762,A,keyenter,I,enter,256,2,1149.5,696184.8999999762,8069,WL,A,5.0
7,15.562000036239624,immed,44437.999963760376,Fri Jan 02 2026 16:01:04 GMT-0600 (Central Standard Time),697700.8999999762,A,g,I,g,350,2,366.0,697334.8999999762,8069,WL,A,6.0
7,15.611999988555908,immed,44388.00001144409,Fri Jan 02 2026 16:01:04 GMT-0600 (Central Standard Time),697750.8999999762,A,go,I,o,39,2,416.0,697334.8999999762,8069,WL,A,6.0
7,15.84500002861023,immed,44154.99997138977,Fri Jan 02 2026 16:01:04 GMT-0600 (Central Standard Time),697984.2999999523,A,gol,I,l,212,2,649.3999999761581,697334.8999999762,8069,WL,A,6.0
7,15.92900013923645,immed,44070.99986076355,Fri Jan 02 2026 16:01:04 GMT-0600 (Central Standard Time),698067.5999999046,A,gold,I,d,76,2,732.6999999284744,697334.8999999762,8069,WL,A,6.0
7,16.24500012397766,immed,43754.99987602234,Fri Jan 02 2026 16:01:04 GMT-0600 (Central Standard Time),698383.8999999762,A,goldenter,I,enter,305,2,1049.0,697334.8999999762,8069,WL,A,6.0
7,17.361999988555908,immed,42638.00001144409,Fri Jan 02 2026 16:01:04 GMT-0600 (Central Standard Time),699500.3999999762,A,m,I,m,1101,2,1116.2000000476837,698384.1999999285,8069,WL,A,7.0
7,17.445000171661377,immed,42554.99982833862,Fri Jan 02 2026 16:01:04 GMT-0600 (Central Standard Time),699583.6999999285,A,me,I,e,63,2,1199.5,698384.1999999285,8069,WL,A,7.0
7,17.57800006866455,immed,42421.99993133545,Fri Jan 02 2026 16:01:04 GMT-0600 (Central Standard Time),699716.8999999762,A,mea,I,a,124,2,1332.7000000476837,698384.1999999285,8069,WL,A,7.0
7,18.16100001335144,immed,41838.99998664856,Fri Jan 02 2026 16:01:04 GMT-0600 (Central Standard Time),700299.7999999523,A,mead,I,d,575,2,1915.6000000238419,698384.1999999285,8069,WL,A,7.0
7,18.278000116348267,immed,41721.99988365173,Fri Jan 02 2026 16:01:04 GMT-0600 (Central Standard Time),700416.7999999523,A,meado,I,o,96,2,2032.6000000238419,698384.1999999285,8069,WL,A,7.0
7,19.444000005722046,immed,40555.999994277954,Fri Jan 02 2026 16:01:04 GMT-0600 (Central Standard Time),701583.2999999523,A,meadow,I,w,1148,2,3199.100000023842,698384.1999999285,8069,WL,A,7.0
7,21.110000133514404,immed,38889.999866485596,Fri Jan 02 2026 16:01:04 GMT-0600 (Central Standard Time),703249.2999999523,A,meadowenter,I,enter,1644,2,4865.100000023842,698384.1999999285,8069,WL,A,7.0
7,22.026999950408936,immed,37973.000049591064,Fri Jan 02 2026 16:01:04 GMT-0600 (Central Standard Time),704165.5999999046,A,c,I,c,907,2,915.8999999761581,703249.6999999285,8069,WL,A,8.0
7,22.092999935150146,immed,37907.00006484985,Fri Jan 02 2026 16:01:04 GMT-0600 (Central Standard Time),704232.2999999523,A,ch,I,h,55,2,982.6000000238419,703249.6999999285,8069,WL,A,8.0
7,22.210000038146973,immed,37789.99996185303,Fri Jan 02 2026 16:01:04 GMT-0600 (Central Standard Time),704348.6999999285,A,chi,I,i,108,2,1099.0,703249.6999999285,8069,WL,A,8.0
7,22.427000045776367,immed,37572.99995422363,Fri Jan 02 2026 16:01:04 GMT-0600 (Central Standard Time),704565.6999999285,A,chim,I,m,207,2,1316.0,703249.6999999285,8069,WL,A,8.0
7,22.87600016593933,immed,37123.99983406067,Fri Jan 02 2026 16:01:04 GMT-0600 (Central Standard Time),705015.2999999523,A,chimn,I,n,430,2,1765.6000000238419,703249.6999999285,8069,WL,A,8.0
7,23.026000022888184,immed,36973.99997711182,Fri Jan 02 2026 16:01:04 GMT-0600 (Central Standard Time),705165.0999999046,A,chimne,I,e,140,2,1915.3999999761581,703249.6999999285,8069,WL,A,8.0
7,23.193000078201294,immed,36806.999921798706,Fri Jan 02 2026 16:01:04 GMT-0600 (Central Standard Time),705331.8999999762,A,chimney,I,y,150,2,2082.2000000476837,703249.6999999285,8069,WL,A,8.0
7,23.575999975204468,immed,36424.00002479553,Fri Jan 02 2026 16:01:04 GMT-0600 (Central Standard Time),705715.0999999046,A,chimneyenter,I,enter,369,2,2465.399999976158,703249.6999999285,8069,WL,A,8.0
7,27.79200005531311,immed,32207.99994468689,Fri Jan 02 2026 16:01:04 GMT-0600 (Central Standard Time),709930.3999999762,A,b,I,b,4202,2,4214.899999976158,705715.5,8069,WL,A,9.0
7,27.924999952316284,immed,32075.000047683716,Fri Jan 02 2026 16:01:04 GMT-0600 (Central Standard Time),710063.5999999046,A,bu,I,u,113,2,4348.099999904633,705715.5,8069,WL,A,9.0
7,28.092000007629395,immed,31907.999992370605,Fri Jan 02 2026 16:01:04 GMT-0600 (Central Standard Time),710230.5,A,but,I,t,149,2,4515.0,705715.5,8069,WL,A,9.0
7,28.240999937057495,immed,31759.000062942505,Fri Jan 02 2026 16:01:04 GMT-0600 (Central Standard Time),710380.3999999762,A,butt,I,t,134,2,4664.899999976158,705715.5,8069,WL,A,9.0
7,28.308000087738037,immed,31691.999912261963,Fri Jan 02 2026 16:01:04 GMT-0600 (Central Standard Time),710447.1999999285,A,butto,I,o,48,2,4731.699999928474,705715.5,8069,WL,A,9.0
7,28.391000032424927,immed,31608.999967575073,Fri Jan 02 2026 16:01:04 GMT-0600 (Central Standard Time),710530.0,A,button,I,n,77,2,4814.5,705715.5,8069,WL,A,9.0
7,28.69099998474121,immed,31309.00001525879,Fri Jan 02 2026 16:01:04 GMT-0600 (Central Standard Time),710830.2999999523,A,buttonenter,I,enter,291,2,5114.799999952316,705715.5,8069,WL,A,9.0
7,28.841000080108643,immed,31158.999919891357,Fri Jan 02 2026 16:01:04 GMT-0600 (Central Standard Time),710980.1999999285,A,f,I,f,135,2,149.69999992847443,710830.5,8069,WL,A,10.0
7,29.35800004005432,immed,30641.99995994568,Fri Jan 02 2026 16:01:04 GMT-0600 (Central Standard Time),711496.3999999762,A,fi,I,i,503,2,665.8999999761581,710830.5,8069,WL,A,10.0
7,29.475000143051147,immed,30524.999856948853,Fri Jan 02 2026 16:01:04 GMT-0600 (Central Standard Time),711613.5,A,fin,I,n,107,2,783.0,710830.5,8069,WL,A,10.0
7,29.740999937057495,immed,30259.000062942505,Fri Jan 02 2026 16:01:04 GMT-0600 (Central Standard Time),711879.6999999285,A,fing,I,g,254,2,1049.1999999284744,710830.5,8069,WL,A,10.0
7,29.94099998474121,immed,30059.00001525879,Fri Jan 02 2026 16:01:04 GMT-0600 (Central Standard Time),712079.5999999046,A,finge,I,e,180,2,1249.0999999046326,710830.5,8069,WL,A,10.0
7,30.02500009536743,immed,29974.99990463257,Fri Jan 02 2026 16:01:04 GMT-0600 (Central Standard Time),712163.5999999046,A,finger,I,r,69,2,1333.0999999046326,710830.5,8069,WL,A,10.0
7,30.207000017166138,immed,29792.999982833862,Fri Jan 02 2026 16:01:04 GMT-0600 (Central Standard Time),712346.2999999523,A,fingerenter,I,enter,169,2,1515.7999999523163,710830.5,8069,WL,A,10.0
7,32.223999977111816,immed,27776.000022888184,Fri Jan 02 2026 16:01:04 GMT-0600 (Central Standard Time),714362.3999999762,A,g,I,g,2002,2,2015.8000000715256,712346.5999999046,8069,WL,A,11.0
7,32.307000160217285,immed,27692.999839782715,Fri Jan 02 2026 16:01:04 GMT-0600 (Central Standard Time),714445.6999999285,A,go,I,o,66,2,2099.100000023842,712346.5999999046,8069,WL,A,11.0
7,32.52300000190735,immed,27476.99999809265,Fri Jan 02 2026 16:01:04 GMT-0600 (Central Standard Time),714662.2999999523,A,gol,I,l,199,2,2315.7000000476837,712346.5999999046,8069,WL,A,11.0
7,32.60700011253357,immed,27392.99988746643,Fri Jan 02 2026 16:01:04 GMT-0600 (Central Standard Time),714745.5,A,gold,I,d,78,2,2398.9000000953674,712346.5999999046,8069,WL,A,11.0
7,32.99000000953674,immed,27009.999990463257,Fri Jan 02 2026 16:01:04 GMT-0600 (Central Standard Time),715128.8999999762,A,goldenter,I,enter,379,2,2782.3000000715256,712346.5999999046,8069,WL,A,11.0
7,44.50200009346008,immed,15497.999906539917,Fri Jan 02 2026 16:01:04 GMT-0600 (Central Standard Time),726641.5,A,f,I,f,11499,2,11512.400000095367,715129.0999999046,8069,WL,A,12.0
