acc_sum,block,block_c,condition,correct,correct_response,datetime,endtime,flanker,jitter,project,response,response_test_buffer_response,response_test_target_response,response_time,response_time_test_buffer_response,response_time_test_target_response,row_sel,session_number,start_end,starttime,subject_id,target,task,task_vers,time_test_buffer,time_test_buffer_response,time_test_constants,time_test_flanker,time_test_jitter,time_test_logger,time_test_target,time_test_target_response,time_test_variables,trial
0,prac,1,con,0,z,Fri Aug 29 2025 13:01:18 GMT-0500 (Central Daylight Time),212316.5,banana,800,I,None,,,1815,,,1,1,4875.700000047684,207440.79999995232,7218,banana,NF,C,,,,,,,,,,1
1,prac,1,con,1,z,Fri Aug 29 2025 13:01:18 GMT-0500 (Central Daylight Time),215732.09999990463,orange,1000,I,z,,,1112,,,3,1,3411.7999999523163,212320.29999995232,7218,orange,NF,C,,,,,,,,,,2
1,prac,1,inc,0,m,Fri Aug 29 2025 13:01:18 GMT-0500 (Central Daylight Time),220913.69999980927,raisin,1100,I,None,,,1815,,,12,1,5177.5,215736.19999980927,7218,cobalt,NF,C,,,,,,,,,,3
2,prac,1,inc,1,m,Fri Aug 29 2025 13:01:18 GMT-0500 (Central Daylight Time),224762.69999980927,plum,1100,I,m,,,1432,,,16,1,3845.2999999523163,220917.39999985695,7218,lead,NF,C,,,,,,,,,,4
3,prac,1,con,1,z,Fri Aug 29 2025 13:01:18 GMT-0500 (Central Daylight Time),227894.79999995232,lime,800,I,z,,,1017,,,5,1,3127.600000143051,224767.19999980927,7218,lime,NF,C,,,,,,,,,,5
4,prac,1,inc,1,z,Fri Aug 29 2025 13:01:18 GMT-0500 (Central Daylight Time),231410.09999990463,cobalt,1100,I,z,,,1115,,,4,1,3512.0,227898.09999990463,7218,raisin,NF,C,,,,,,,,,,6
5,prac,1,con,1,m,Fri Aug 29 2025 13:01:18 GMT-0500 (Central Daylight Time),234759.39999985695,zinc,1000,I,m,,,1035,,,15,1,3345.7000000476837,231413.69999980927,7218,zinc,NF,C,,,,,,,,,,7
6,prac,1,inc,1,m,Fri Aug 29 2025 13:01:18 GMT-0500 (Central Daylight Time),238108.19999980927,pear,900,I,m,,,1145,,,14,1,3345.5999999046326,234762.59999990463,7218,iron,NF,C,,,,,,,,,,8
7,prac,1,inc,1,z,Fri Aug 29 2025 13:01:18 GMT-0500 (Central Daylight Time),241257.5,iron,900,I,z,,,940,,,6,1,3146.100000143051,238111.39999985695,7218,pear,NF,C,,,,,,,,,,9
8,prac,1,con,1,m,Fri Aug 29 2025 13:01:18 GMT-0500 (Central Daylight Time),244289.69999980927,gold,800,I,m,,,931,,,13,1,3028.699999809265,241261.0,7218,gold,NF,C,,,,,,,,,,10
9,prac,1,inc,1,z,Fri Aug 29 2025 13:01:18 GMT-0500 (Central Daylight Time),247605.5,lead,1100,I,z,,,903,,,8,1,3311.300000190735,244294.19999980927,7218,plum,NF,C,,,,,,,,,,11
10,prac,1,inc,1,z,Fri Aug 29 2025 13:01:18 GMT-0500 (Central Daylight Time),250870.79999995232,copper,900,I,z,,,1059,,,2,1,3262.2000000476837,247608.59999990463,7218,cherry,NF,C,,,,,,,,,,12
11,prac,1,con,1,m,Fri Aug 29 2025 13:01:18 GMT-0500 (Central Daylight Time),253870.5,bronze,800,I,m,,,902,,,9,1,2996.4000000953674,250874.09999990463,7218,bronze,NF,C,,,,,,,,,,13
12,prac,1,inc,1,m,Fri Aug 29 2025 13:01:18 GMT-0500 (Central Daylight Time),257219.19999980927,cherry,900,I,m,,,1149,,,10,1,3345.7999999523163,253873.39999985695,7218,copper,NF,C,,,,,,,,,,14
13,prac,1,con,1,z,Fri Aug 29 2025 13:01:18 GMT-0500 (Central Daylight Time),260418.69999980927,kiwi,1000,I,z,,,898,,,7,1,3196.199999809265,257222.5,7218,kiwi,NF,C,,,,,,,,,,15
14,prac,1,con,1,m,Fri Aug 29 2025 13:01:18 GMT-0500 (Central Daylight Time),263583.59999990463,silver,1000,I,m,,,851,,,11,1,3160.7000000476837,260422.89999985695,7218,silver,NF,C,,,,,,,,,,16
1,test,1,con,1,m,Fri Aug 29 2025 13:01:18 GMT-0500 (Central Daylight Time),292957.39999985695,cobalt,900,I,m,m,None,955,755.0,200.0,90,1,2393.5,290563.89999985695,7218,cobalt,NF,C,283804,283804,282176,283087,282176,284569,283604,283604,284569,1
2,test,1,con,1,z,Fri Aug 29 2025 13:01:18 GMT-0500 (Central Daylight Time),295374.59999990463,orange,1100,I,z,z,None,781,582.0,199.0,20,1,2414.0999999046326,292960.5,7218,orange,NF,C,286403,286403,284573,285686,284573,286987,286203,286203,286987,2
3,test,1,con,1,m,Fri Aug 29 2025 13:01:18 GMT-0500 (Central Daylight Time),297741.0,gold,1000,I,m,m,None,822,623.0,199.0,99,1,2363.300000190735,295377.69999980927,7218,gold,NF,C,288719,288719,286990,288003,286990,289353,288520,288520,289353,3
4,test,1,con,1,m,Fri Aug 29 2025 13:01:18 GMT-0500 (Central Daylight Time),300205.5,silver,900,I,m,m,None,1022,823.0,199.0,82,1,2460.4000000953674,297745.09999990463,7218,silver,NF,C,290984,290984,289357,290268,289357,291818,290785,290785,291818,4
5,test,1,con,1,m,Fri Aug 29 2025 13:01:18 GMT-0500 (Central Daylight Time),302388.69999980927,copper,800,I,m,m,None,838,639.0,199.0,73,1,2180.2999999523163,300208.39999985695,7218,copper,NF,C,293351,293351,291820,292634,291821,294001,293151,293151,294001,5
6,test,1,inc,1,m,Fri Aug 29 2025 13:01:18 GMT-0500 (Central Daylight Time),304804.5,cherry,900,I,m,m,None,974,774.0,200.0,78,1,2413.0,302391.5,7218,copper,NF,C,295633,295633,294004,294916,294004,296417,295433,295433,296417,6
7,test,1,con,1,z,Fri Aug 29 2025 13:01:18 GMT-0500 (Central Daylight Time),307103.5,orange,900,I,z,z,None,854,654.0,200.0,18,1,2296.0,304807.5,7218,orange,NF,C,298049,298049,296420,297333,296420,298716,297849,297849,298716,7
8,test,1,inc,1,m,Fri Aug 29 2025 13:01:18 GMT-0500 (Central Daylight Time),309301.7999999523,lime,800,I,m,m,None,863,663.0,200.0,101,1,2191.2999999523163,307110.5,7218,gold,NF,C,300248,300248,298723,299532,298723,300914,300048,300048,300914,8
9,test,1,con,1,m,Fri Aug 29 2025 13:01:18 GMT-0500 (Central Daylight Time),311634.39999985695,bronze,900,I,m,m,None,892,692.0,200.0,66,1,2329.7000000476837,309304.69999980927,7218,bronze,NF,C,302547,302547,300917,301831,300917,303246,302347,302347,303246,9
10,test,1,inc,1,z,Fri Aug 29 2025 13:01:18 GMT-0500 (Central Daylight Time),313900.39999985695,bronze,800,I,z,z,None,930,731.0,199.0,13,1,2262.5,311637.89999985695,7218,cherry,NF,C,304781,304781,303250,304064,303250,305513,304581,304581,305512,10
11,test,1,con,1,z,Fri Aug 29 2025 13:01:18 GMT-0500 (Central Daylight Time),316316.7999999523,banana,900,I,z,z,None,972,772.0,200.0,2,1,2412.9000000953674,313903.89999985695,7218,banana,NF,C,307147,307147,305516,306431,305516,307929,306946,306946,307929,11
12,test,1,inc,1,z,Fri Aug 29 2025 13:01:18 GMT-0500 (Central Daylight Time),318699.19999980927,iron,900,I,z,z,None,949,748.0,201.0,54,1,2378.2999999523163,316320.89999985695,7218,kiwi,NF,C,309563,309563,307933,308845,307933,310311,309362,309362,310311,12
13,test,1,con,1,m,Fri Aug 29 2025 13:01:18 GMT-0500 (Central Daylight Time),321180.89999985695,lead,900,I,m,m,None,1046,846.0,200.0,122,1,2478.7000000476837,318702.19999980927,7218,lead,NF,C,311945,311945,310314,311228,310314,312793,311744,311745,312793,13
14,test,1,con,1,m,Fri Aug 29 2025 13:01:18 GMT-0500 (Central Daylight Time),323331.09999990463,iron,800,I,m,m,None,801,600.0,201.0,105,1,2147.4000000953674,321183.69999980927,7218,iron,NF,C,314328,314328,312796,313610,312796,314943,314127,314127,314943,14
15,test,1,inc,1,m,Fri Aug 29 2025 13:01:18 GMT-0500 (Central Daylight Time),325881.09999990463,raisin,1100,I,m,m,None,910,710.0,200.0,72,1,2546.0,323335.09999990463,7218,bronze,NF,C,316777,316777,314947,316060,314947,317493,316577,316577,317493,15
16,test,1,con,1,m,Fri Aug 29 2025 13:01:18 GMT-0500 (Central Daylight Time),327964.59999990463,copper,1000,I,m,m,None,549,349.0,200.0,75,1,2079.7000000476837,325884.89999985695,7218,copper,NF,C,319226,319226,317497,318509,317497,319577,319026,319026,319577,16
17,test,1,inc,1,m,Fri Aug 29 2025 13:01:18 GMT-0500 (Central Daylight Time),330345.59999990463,cherry,900,I,m,m,None,941,739.0,202.0,94,1,2377.5,327968.09999990463,7218,cobalt,NF,C,321211,321211,319580,320492,319580,321958,321009,321009,321958,17
18,test,1,con,1,z,Fri Aug 29 2025 13:01:18 GMT-0500 (Central Daylight Time),332694.89999985695,lime,900,I,z,z,None,910,711.0,199.0,34,1,2346.2000000476837,330348.69999980927,7218,lime,NF,C,323591,323591,321961,322876,321961,324307,323392,323392,324307,18
19,test,1,con,1,z,Fri Aug 29 2025 13:01:18 GMT-0500 (Central Daylight Time),335111.0,plum,900,I,z,z,None,977,762.0,215.0,58,1,2412.9000000953674,332698.09999990463,7218,plum,NF,C,325956,325957,324310,325223,324310,326723,325741,325741,326723,19
19,test,1,con,0,m,Fri Aug 29 2025 13:01:18 GMT-0500 (Central Daylight Time),338744.09999990463,bronze,1100,I,None,None,None,1799,1799.0,201.0,68,1,3629.7000000476837,335114.39999985695,7218,bronze,NF,C,328557,328557,326726,327840,326727,330356,328356,328356,330356,20
20,test,1,con,1,z,Fri Aug 29 2025 13:01:18 GMT-0500 (Central Daylight Time),340842.5,cherry,1100,I,z,z,None,464,250.0,214.0,12,1,2094.9000000953674,338747.59999990463,7218,cherry,NF,C,332188,332188,330360,331472,330360,332455,331973,331973,332455,21
21,test,1,inc,1,m,Fri Aug 29 2025 13:01:18 GMT-0500 (Central Daylight Time),342908.69999980927,pear,900,I,m,m,None,616,401.0,215.0,110,1,2061.7999999523163,340846.89999985695,7218,iron,NF,C,334104,334104,332459,333372,332459,334521,333889,333889,334521,22
22,test,1,con,1,z,Fri Aug 29 2025 13:01:18 GMT-0500 (Central Daylight Time),344907.0,pear,900,I,z,z,None,549,349.0,200.0,42,1,1995.0,342912.0,7218,pear,NF,C,336154,336154,334524,335437,334524,336519,335954,335954,336519,23
22,test,1,con,0,z,Fri Aug 29 2025 13:01:18 GMT-0500 (Central Daylight Time),346723.2999999523,lime,800,I,m,m,None,467,267.0,200.0,33,1,1813.4000000953674,344909.89999985695,7218,lime,NF,C,338053,338053,336522,337337,336522,338335,337853,337853,338335,24
23,test,1,con,1,m,Fri Aug 29 2025 13:01:18 GMT-0500 (Central Daylight Time),349006.5,gold,1100,I,m,m,None,638,439.0,199.0,100,1,2279.800000190735,346726.69999980927,7218,gold,NF,C,340168,340168,338339,339453,338339,340619,339969,339969,340619,25
23,test,1,con,0,m,Fri Aug 29 2025 13:01:18 GMT-0500 (Central Daylight Time),351004.69999980927,silver,1000,I,z,z,None,461,262.0,199.0,83,1,1995.3999998569489,349009.2999999523,7218,silver,NF,C,342352,342352,340621,341635,340622,342617,342153,342153,342617,26
24,test,1,con,1,m,Fri Aug 29 2025 13:01:18 GMT-0500 (Central Daylight Time),353172.19999980927,bronze,1000,I,m,m,None,647,448.0,199.0,67,1,2164.5,351007.69999980927,7218,bronze,NF,C,344335,344335,342620,343634,342620,344784,344135,344135,344784,27
25,test,1,inc,1,z,Fri Aug 29 2025 13:01:18 GMT-0500 (Central Daylight Time),355390.19999980927,cobalt,1100,I,z,z,None,567,368.0,199.0,24,1,2214.399999856949,353175.7999999523,7218,orange,NF,C,346616,346616,344788,345901,344788,347002,346417,346417,347002,28
26,test,1,inc,1,m,Fri Aug 29 2025 13:01:18 GMT-0500 (Central Daylight Time),357520.7999999523,cherry,900,I,m,m,None,684,485.0,199.0,70,1,2127.5,355393.2999999523,7218,bronze,NF,C,348633,348633,347005,347916,347006,349133,348434,348434,349133,29
27,test,1,inc,1,m,Fri Aug 29 2025 13:01:18 GMT-0500 (Central Daylight Time),359903.09999990463,kiwi,1000,I,m,m,None,845,629.0,216.0,127,1,2379.5,357523.59999990463,7218,lead,NF,C,350883,350883,349136,350149,349136,351515,350666,350666,351515,30
28,test,1,inc,1,z,Fri Aug 29 2025 13:01:18 GMT-0500 (Central Daylight Time),362252.59999990463,lead,1100,I,z,z,None,706,506.0,200.0,64,1,2346.2000000476837,359906.39999985695,7218,plum,NF,C,353348,353348,351518,352631,351519,353865,353148,353148,353865,31
28,test,1,inc,0,z,Fri Aug 29 2025 13:01:18 GMT-0500 (Central Daylight Time),364135.09999990463,bronze,800,I,m,m,None,538,337.0,201.0,21,1,1879.7000000476837,362255.39999985695,7218,orange,NF,C,355398,355398,353867,354680,353868,355747,355197,355197,355747,32
29,test,1,inc,1,m,Fri Aug 29 2025 13:01:18 GMT-0500 (Central Daylight Time),366301.0,pear,900,I,m,m,None,731,529.0,202.0,118,1,2162.9000000953674,364138.09999990463,7218,zinc,NF,C,357381,357381,355750,356664,355750,357913,357179,357179,357913,33
30,test,1,con,1,m,Fri Aug 29 2025 13:01:18 GMT-0500 (Central Daylight Time),368300.19999980927,iron,900,I,m,m,None,566,366.0,200.0,106,1,1995.8999998569489,366304.2999999523,7218,iron,NF,C,359546,359546,357916,358830,357916,359912,359346,359346,359912,34
31,test,1,inc,1,m,Fri Aug 29 2025 13:01:18 GMT-0500 (Central Daylight Time),370399.39999985695,plum,1100,I,m,m,None,460,261.0,199.0,128,1,2096.399999856949,368303.0,7218,lead,NF,C,361745,361745,359915,361030,359915,362011,361546,361546,362011,35
32,test,1,inc,1,m,Fri Aug 29 2025 13:01:18 GMT-0500 (Central Daylight Time),372216.39999985695,lime,800,I,m,m,None,469,269.0,200.0,117,1,1814.0,370402.39999985695,7218,zinc,NF,C,363546,363546,362014,362829,362015,363828,363345,363345,363828,36
33,test,1,inc,1,z,Fri Aug 29 2025 13:01:18 GMT-0500 (Central Daylight Time),374382.2999999523,copper,900,I,z,z,None,746,531.0,215.0,30,1,2159.5,372222.7999999523,7218,raisin,NF,C,365460,365460,363835,364744,363835,365994,365245,365245,365994,37
34,test,1,inc,1,m,Fri Aug 29 2025 13:01:18 GMT-0500 (Central Daylight Time),376614.7999999523,plum,1100,I,m,m,None,588,388.0,200.0,112,1,2229.2000000476837,374385.59999990463,7218,iron,NF,C,367827,367827,365998,367111,365998,368227,367627,367627,368227,38
34,test,1,con,0,m,Fri Aug 29 2025 13:01:18 GMT-0500 (Central Daylight Time),378514.2999999523,zinc,800,I,z,z,None,550,351.0,199.0,113,1,1896.2999999523163,376618.0,7218,zinc,NF,C,369759,369759,368230,369043,368230,370126,369560,369560,370126,39
35,test,1,inc,1,z,Fri Aug 29 2025 13:01:18 GMT-0500 (Central Daylight Time),380713.19999980927,gold,800,I,z,z,None,851,651.0,200.0,53,1,2195.899999856949,378517.2999999523,7218,kiwi,NF,C,371659,371659,370129,370942,370130,372325,371459,371459,372325,40
36,test,1,inc,1,z,Fri Aug 29 2025 13:01:18 GMT-0500 (Central Daylight Time),382928.7999999523,zinc,1000,I,z,z,None,677,477.0,200.0,47,1,2212.5,380716.2999999523,7218,pear,NF,C,374058,374058,372328,373341,372329,374541,373858,373858,374541,41
37,test,1,inc,1,z,Fri Aug 29 2025 13:01:18 GMT-0500 (Central Daylight Time),384961.7999999523,zinc,1000,I,z,z,None,493,293.0,200.0,39,1,2030.1000001430511,382931.69999980927,7218,lime,NF,C,376274,376274,374544,375558,374544,376574,376074,376074,376574,42
38,test,1,con,1,z,Fri Aug 29 2025 13:01:18 GMT-0500 (Central Daylight Time),386977.7999999523,pear,1000,I,z,z,None,467,267.0,200.0,43,1,2012.5,384965.2999999523,7218,pear,NF,C,378307,378307,376577,377590,376578,378590,378107,378107,378590,43
38,test,1,con,0,m,Fri Aug 29 2025 13:01:18 GMT-0500 (Central Daylight Time),389110.69999980927,iron,1100,I,z,z,None,512,313.0,199.0,108,1,2129.699999809265,386981.0,7218,iron,NF,C,380406,380406,378593,379705,378593,380723,380207,380207,380723,44
39,test,1,inc,1,m,Fri Aug 29 2025 13:01:18 GMT-0500 (Central Daylight Time),391326.39999985695,plum,1100,I,m,m,None,570,371.0,199.0,104,1,2212.0,389114.39999985695,7218,gold,NF,C,382555,382555,380726,381839,380727,382938,382356,382356,382938,45
40,test,1,con,1,m,Fri Aug 29 2025 13:01:18 GMT-0500 (Central Daylight Time),393341.69999980927,zinc,1000,I,m,m,None,471,271.0,200.0,115,1,2010.7999999523163,391330.89999985695,7218,zinc,NF,C,384671,384671,382943,383956,382943,384954,384471,384471,384954,46
41,test,1,inc,1,z,Fri Aug 29 2025 13:01:18 GMT-0500 (Central Daylight Time),395725.69999980927,cobalt,1100,I,z,z,None,740,539.0,201.0,32,1,2380.5999999046326,393345.09999990463,7218,raisin,NF,C,386788,386788,384957,386072,384957,387338,386587,386587,387338,47
41,test,1,inc,0,z,Fri Aug 29 2025 13:01:18 GMT-0500 (Central Daylight Time),397756.5,zinc,1000,I,m,m,None,488,287.0,201.0,55,1,2028.2000000476837,395728.2999999523,7218,kiwi,NF,C,389071,389071,387340,388353,387341,389369,388870,388870,389368,48
42,test,1,con,1,z,Fri Aug 29 2025 13:01:18 GMT-0500 (Central Daylight Time),399806.89999985695,raisin,1100,I,z,z,None,412,213.0,199.0,28,1,2047.0,397759.89999985695,7218,raisin,NF,C,391202,391202,389372,390486,389372,391419,391003,391003,391419,49
43,test,1,con,1,z,Fri Aug 29 2025 13:01:18 GMT-0500 (Central Daylight Time),401821.89999985695,kiwi,900,I,z,z,None,578,379.0,199.0,50,1,2012.2999999523163,399809.59999990463,7218,kiwi,NF,C,393052,393052,391422,392336,391422,393434,392852,392852,393434,50
44,test,1,inc,1,z,Fri Aug 29 2025 13:01:18 GMT-0500 (Central Daylight Time),403939.2999999523,cobalt,1100,I,z,z,None,466,266.0,200.0,8,1,2114.600000143051,401824.69999980927,7218,banana,NF,C,395268,395268,393437,394552,393437,395551,395068,395068,395551,51
45,test,1,inc,1,z,Fri Aug 29 2025 13:01:18 GMT-0500 (Central Daylight Time),405755.89999985695,gold,800,I,z,z,None,484,284.0,200.0,61,1,1813.7999999523163,403942.09999990463,7218,plum,NF,C,397084,397084,395554,396368,395554,397368,396884,396884,397368,52
46,test,1,inc,1,m,Fri Aug 29 2025 13:01:18 GMT-0500 (Central Daylight Time),407804.7999999523,lime,800,I,m,m,None,715,515.0,200.0,125,1,2046.0,405758.7999999523,7218,lead,NF,C,398900,398900,397371,398184,397371,399417,398700,398700,399417,53
47,test,1,con,1,m,Fri Aug 29 2025 13:01:18 GMT-0500 (Central Daylight Time),410102.89999985695,iron,1000,I,m,m,None,761,561.0,200.0,107,1,2295.399999856949,407807.5,7218,iron,NF,C,401150,401150,399420,400432,399420,401715,400950,400950,401715,54
48,test,1,con,1,m,Fri Aug 29 2025 13:01:18 GMT-0500 (Central Daylight Time),412320.59999990463,copper,1100,I,m,m,None,578,364.0,214.0,76,1,2214.5,410106.09999990463,7218,copper,NF,C,403564,403564,401718,402832,401718,403933,403350,403350,403933,55
49,test,1,con,1,m,Fri Aug 29 2025 13:01:18 GMT-0500 (Central Daylight Time),414568.89999985695,silver,1100,I,m,m,None,610,411.0,199.0,84,1,2245.2000000476837,412323.69999980927,7218,silver,NF,C,405764,405764,403936,405049,403936,406181,405565,405565,406181,56
50,test,1,con,1,z,Fri Aug 29 2025 13:01:18 GMT-0500 (Central Daylight Time),416818.0,kiwi,1000,I,z,z,None,709,508.0,201.0,51,1,2246.300000190735,414571.69999980927,7218,kiwi,NF,C,407914,407914,406184,407197,406184,408430,407713,407713,408430,57
50,test,1,con,0,z,Fri Aug 29 2025 13:01:18 GMT-0500 (Central Daylight Time),419018.5,plum,1000,I,m,m,None,666,451.0,215.0,59,1,2197.5,416821.0,7218,plum,NF,C,410179,410179,408433,409447,408433,410631,409964,409964,410631,58
51,test,1,inc,1,z,Fri Aug 29 2025 13:01:18 GMT-0500 (Central Daylight Time),421083.69999980927,iron,900,I,z,z,None,639,440.0,199.0,38,1,2061.5,419022.19999980927,7218,lime,NF,C,412246,412246,410634,411546,410635,412696,412047,412047,412696,59
52,test,1,inc,1,m,Fri Aug 29 2025 13:01:18 GMT-0500 (Central Daylight Time),423366.19999980927,orange,1000,I,m,m,None,746,547.0,199.0,87,1,2279.5999999046326,421086.59999990463,7218,silver,NF,C,414428,414428,412699,413712,412699,414978,414229,414229,414978,60
53,test,1,con,1,z,Fri Aug 29 2025 13:01:18 GMT-0500 (Central Daylight Time),425332.69999980927,pear,800,I,z,z,None,631,431.0,200.0,41,1,1963.1999998092651,423369.5,7218,pear,NF,C,416512,416512,414982,415795,414982,416945,416312,416312,416945,61
54,test,1,con,1,z,Fri Aug 29 2025 13:01:18 GMT-0500 (Central Daylight Time),427381.09999990463,banana,1000,I,z,z,None,506,305.0,201.0,3,1,2045.5999999046326,425335.5,7218,banana,NF,C,418678,418678,416948,417962,416948,418993,418477,418477,418993,62
55,test,1,inc,1,m,Fri Aug 29 2025 13:01:18 GMT-0500 (Central Daylight Time),429497.19999980927,orange,1000,I,m,m,None,576,376.0,200.0,95,1,2113.399999856949,427383.7999999523,7218,cobalt,NF,C,420727,420727,418996,420010,418996,421109,420526,420526,421109,63
56,test,1,inc,1,m,Fri Aug 29 2025 13:01:18 GMT-0500 (Central Daylight Time),431546.5,banana,800,I,m,m,None,709,509.0,200.0,93,1,2046.6000001430511,429499.89999985695,7218,cobalt,NF,C,422642,422642,421112,421926,421112,423159,422442,422442,423159,64
57,test,1,inc,1,m,Fri Aug 29 2025 13:01:18 GMT-0500 (Central Daylight Time),433745.7999999523,kiwi,1000,I,m,m,None,660,459.0,201.0,111,1,2196.2999999523163,431549.5,7218,iron,NF,C,424892,424892,423162,424175,423162,425358,424691,424691,425358,65
58,test,1,con,1,z,Fri Aug 29 2025 13:01:18 GMT-0500 (Central Daylight Time),435928.39999985695,lime,1000,I,z,z,None,634,435.0,199.0,35,1,2179.7000000476837,433748.69999980927,7218,lime,NF,C,427091,427091,425361,426375,425361,427541,426892,426892,427540,66
59,test,1,con,1,z,Fri Aug 29 2025 13:01:18 GMT-0500 (Central Daylight Time),438161.0,lime,1100,I,z,z,None,592,377.0,215.0,36,1,2229.600000143051,435931.39999985695,7218,lime,NF,C,429390,429390,427543,428657,427544,429773,429175,429175,429773,67
60,test,1,inc,1,m,Fri Aug 29 2025 13:01:18 GMT-0500 (Central Daylight Time),440493.09999990463,raisin,1100,I,m,m,None,687,487.0,200.0,88,1,2329.0999999046326,438164.0,7218,silver,NF,C,431607,431607,429776,430890,429776,432105,431407,431407,432105,68
61,test,1,inc,1,z,Fri Aug 29 2025 13:01:18 GMT-0500 (Central Daylight Time),442793.0,silver,1000,I,z,z,None,760,559.0,201.0,23,1,2296.4000000953674,440496.59999990463,7218,orange,NF,C,433840,433840,432109,433122,432109,434405,433639,433639,434405,69
62,test,1,con,1,z,Fri Aug 29 2025 13:01:18 GMT-0500 (Central Daylight Time),445142.2999999523,banana,1100,I,z,z,None,729,530.0,199.0,4,1,2345.600000143051,442796.69999980927,7218,banana,NF,C,436221,436221,434409,435521,434409,436754,436022,436022,436754,70
63,test,1,con,1,m,Fri Aug 29 2025 13:01:18 GMT-0500 (Central Daylight Time),447024.59999990463,cobalt,800,I,m,m,None,536,336.0,200.0,89,1,1879.2999999523163,445145.2999999523,7218,cobalt,NF,C,438287,438287,436757,437572,436758,438637,438087,438087,438637,71
63,test,1,inc,0,z,Fri Aug 29 2025 13:01:18 GMT-0500 (Central Daylight Time),448924.89999985695,copper,900,I,m,m,None,482,283.0,199.0,6,1,1896.7999999523163,447028.09999990463,7218,banana,NF,C,440253,440253,438640,439553,438640,440537,440054,440054,440537,72
64,test,1,inc,1,z,Fri Aug 29 2025 13:01:18 GMT-0500 (Central Daylight Time),451223.5,silver,1000,I,z,z,None,753,553.0,200.0,15,1,2296.100000143051,448927.39999985695,7218,cherry,NF,C,442270,442270,440539,441553,440540,442836,442069,442070,442836,73
65,test,1,inc,1,m,Fri Aug 29 2025 13:01:18 GMT-0500 (Central Daylight Time),453372.09999990463,banana,800,I,m,m,None,805,606.0,199.0,69,1,2144.7000000476837,451227.39999985695,7218,bronze,NF,C,444368,444368,442839,443653,442840,444984,444169,444169,444984,74
66,test,1,con,1,z,Fri Aug 29 2025 13:01:18 GMT-0500 (Central Daylight Time),455538.7999999523,pear,1100,I,z,z,None,516,317.0,199.0,44,1,2164.2000000476837,453374.59999990463,7218,pear,NF,C,446817,446818,444987,446101,444987,447151,446618,446618,447151,75
67,test,1,con,1,z,Fri Aug 29 2025 13:01:18 GMT-0500 (Central Daylight Time),457837.7999999523,plum,1100,I,z,z,None,654,455.0,199.0,60,1,2295.4000000953674,455542.39999985695,7218,plum,NF,C,448984,448984,447154,448269,447155,449450,448784,448784,449450,76
68,test,1,inc,1,z,Fri Aug 29 2025 13:01:18 GMT-0500 (Central Daylight Time),460003.89999985695,lead,1100,I,z,z,None,524,324.0,200.0,48,1,2159.7000000476837,457844.19999980927,7218,pear,NF,C,451283,451283,449456,450568,449456,451616,451083,451083,451616,77
69,test,1,con,1,z,Fri Aug 29 2025 13:01:18 GMT-0500 (Central Daylight Time),461936.89999985695,raisin,900,I,z,z,None,484,281.0,203.0,26,1,1929.5,460007.39999985695,7218,raisin,NF,C,453252,453253,451619,452532,451620,453549,453049,453049,453549,78
70,test,1,inc,1,m,Fri Aug 29 2025 13:01:18 GMT-0500 (Central Daylight Time),464169.59999990463,kiwi,1000,I,m,m,None,684,484.0,200.0,103,1,2228.0999999046326,461941.5,7218,gold,NF,C,455282,455282,453554,454566,453554,455782,455081,455081,455782,79
70,test,1,con,0,m,Fri Aug 29 2025 13:01:18 GMT-0500 (Central Daylight Time),466118.89999985695,bronze,800,I,z,z,None,612,413.0,199.0,65,1,1946.5999999046326,464172.2999999523,7218,bronze,NF,C,457314,457314,455784,456598,455785,457731,457115,457115,457731,80
71,test,1,inc,1,z,Fri Aug 29 2025 13:01:18 GMT-0500 (Central Daylight Time),468085.19999980927,gold,800,I,z,z,None,622,422.0,200.0,37,1,1963.6999998092651,466121.5,7218,lime,NF,C,459264,459265,457734,458548,457734,459697,459064,459064,459697,81
72,test,1,inc,1,z,Fri Aug 29 2025 13:01:18 GMT-0500 (Central Daylight Time),470250.89999985695,silver,1000,I,z,z,None,625,425.0,200.0,7,1,2163.0999999046326,468087.7999999523,7218,banana,NF,C,461430,461430,459700,460713,459700,461863,461229,461229,461863,82
73,test,1,inc,1,z,Fri Aug 29 2025 13:01:18 GMT-0500 (Central Daylight Time),472116.89999985695,bronze,800,I,z,z,None,522,322.0,200.0,5,1,1862.7999999523163,470254.09999990463,7218,banana,NF,C,463396,463396,461866,462680,461866,463729,463196,463196,463729,83
74,test,1,con,1,z,Fri Aug 29 2025 13:01:18 GMT-0500 (Central Daylight Time),474116.39999985695,orange,1000,I,z,z,None,457,257.0,200.0,19,1,1996.0999999046326,472120.2999999523,7218,orange,NF,C,465462,465462,463732,464745,463733,465729,465262,465262,465728,84
75,test,1,con,1,z,Fri Aug 29 2025 13:01:18 GMT-0500 (Central Daylight Time),476182.7999999523,kiwi,1100,I,z,z,None,422,221.0,201.0,52,1,2063.4000000953674,474119.39999985695,7218,kiwi,NF,C,467562,467562,465731,466845,465732,467795,467361,467361,467795,85
76,test,1,inc,1,z,Fri Aug 29 2025 13:01:18 GMT-0500 (Central Daylight Time),477981.5,gold,800,I,z,z,None,453,253.0,200.0,45,1,1795.6000001430511,476185.89999985695,7218,pear,NF,C,469329,469329,467798,468611,467798,469594,469128,469128,469594,86
76,test,1,inc,0,z,Fri Aug 29 2025 13:01:18 GMT-0500 (Central Daylight Time),481413.69999980927,iron,900,I,None,None,None,1800,1800.0,199.0,62,1,3429.5999999046326,477984.09999990463,7218,plum,NF,C,471226,471226,469596,470510,469596,473026,471027,471027,473026,87
76,test,1,inc,0,m,Fri Aug 29 2025 13:01:18 GMT-0500 (Central Daylight Time),483263.7999999523,pear,900,I,z,z,None,412,212.0,200.0,102,1,1847.4000000953674,481416.39999985695,7218,gold,NF,C,474659,474659,473028,473943,473029,474876,474459,474459,474876,88
77,test,1,con,1,z,Fri Aug 29 2025 13:01:18 GMT-0500 (Central Daylight Time),485296.0,plum,800,I,z,z,None,702,503.0,199.0,57,1,2028.8000001907349,483267.19999980927,7218,plum,NF,C,476392,476392,474879,475692,474879,476908,476193,476193,476908,89
78,test,1,inc,1,z,Fri Aug 29 2025 13:01:18 GMT-0500 (Central Daylight Time),487478.09999990463,lead,1100,I,z,z,None,535,321.0,214.0,56,1,2177.2000000476837,485300.89999985695,7218,kiwi,NF,C,478758,478758,476913,478026,476913,479090,478543,478543,479090,90
79,test,1,inc,1,z,Fri Aug 29 2025 13:01:18 GMT-0500 (Central Daylight Time),489327.89999985695,bronze,800,I,z,z,None,502,303.0,199.0,29,1,1846.5,487481.39999985695,7218,raisin,NF,C,480623,480623,479093,479907,479094,480940,480424,480424,480940,91
79,test,1,inc,0,m,Fri Aug 29 2025 13:01:18 GMT-0500 (Central Daylight Time),491378.69999980927,plum,1100,I,z,z,None,410,209.0,201.0,120,1,2047.1999998092651,489331.5,7218,zinc,NF,C,482774,482774,480944,482057,480944,482991,482573,482573,482991,92
80,test,1,con,1,z,Fri Aug 29 2025 13:01:18 GMT-0500 (Central Daylight Time),493794.0,raisin,1000,I,z,z,None,868,667.0,201.0,27,1,2411.600000143051,491382.39999985695,7218,raisin,NF,C,484724,484724,482994,484006,482995,485406,484523,484523,485406,93
81,test,1,con,1,z,Fri Aug 29 2025 13:01:18 GMT-0500 (Central Daylight Time),495576.19999980927,cherry,800,I,z,z,None,444,244.0,200.0,9,1,1779.6999998092651,493796.5,7218,cherry,NF,C,486939,486939,485409,486222,485409,487188,486739,486739,487188,94
82,test,1,inc,1,z,Fri Aug 29 2025 13:01:18 GMT-0500 (Central Daylight Time),497642.69999980927,cobalt,1100,I,z,z,None,425,225.0,200.0,16,1,2063.699999809265,495579.0,7218,cherry,NF,C,489021,489021,487191,488305,487191,489255,488821,488821,489255,95
82,test,1,inc,0,m,Fri Aug 29 2025 13:01:18 GMT-0500 (Central Daylight Time),501275.09999990463,raisin,1100,I,None,None,None,1800,1800.0,199.0,96,1,3629.5999999046326,497645.5,7218,cobalt,NF,C,491087,491087,489258,490372,489258,492887,490888,490888,492887,96
83,test,1,inc,1,z,Fri Aug 29 2025 13:01:18 GMT-0500 (Central Daylight Time),503323.39999985695,zinc,1000,I,z,z,None,514,299.0,215.0,63,1,2045.5999999046326,501277.7999999523,7218,plum,NF,C,494636,494636,492890,493904,492890,494935,494421,494421,494935,97
83,test,1,con,0,m,Fri Aug 29 2025 13:01:18 GMT-0500 (Central Daylight Time),506839.59999990463,lead,1000,I,None,None,None,1800,1800.0,199.0,123,1,3513.7000000476837,503325.89999985695,7218,lead,NF,C,496652,496652,494938,495952,494938,498452,496453,496453,498452,98
83,test,1,inc,0,m,Fri Aug 29 2025 13:01:18 GMT-0500 (Central Daylight Time),508655.59999990463,pear,900,I,z,z,None,378,179.0,199.0,126,1,1813.4000000953674,506842.19999980927,7218,lead,NF,C,500084,500084,498454,499370,498454,500268,499885,499885,500268,99
83,test,1,con,0,m,Fri Aug 29 2025 13:01:18 GMT-0500 (Central Daylight Time),512287.5,cobalt,1100,I,None,None,None,1800,1800.0,200.0,92,1,3628.600000143051,508658.89999985695,7218,cobalt,NF,C,502100,502100,500271,501385,500271,503900,501900,501900,503900,100
83,test,1,inc,0,m,Fri Aug 29 2025 13:01:18 GMT-0500 (Central Daylight Time),514037.69999980927,lime,800,I,z,z,None,405,206.0,199.0,109,1,1747.3999998569489,512290.2999999523,7218,iron,NF,C,505433,505433,503902,504717,503902,505650,505233,505233,505650,101
83,test,1,con,0,m,Fri Aug 29 2025 13:01:18 GMT-0500 (Central Daylight Time),517369.69999980927,lead,800,I,None,None,None,1800,1800.0,200.0,121,1,3329.199999809265,514040.5,7218,lead,NF,C,507182,507182,505653,506466,505653,508982,506982,506982,508982,102
83,test,1,con,0,m,Fri Aug 29 2025 13:01:18 GMT-0500 (Central Daylight Time),520818.5,zinc,900,I,None,None,None,1815,1815.0,199.0,114,1,3444.9000000953674,517373.59999990463,7218,zinc,NF,C,510615,510615,508986,509899,508986,512431,510415,510415,512430,103
84,test,1,con,1,z,Fri Aug 29 2025 13:01:18 GMT-0500 (Central Daylight Time),522733.09999990463,raisin,800,I,z,z,None,579,380.0,199.0,25,1,1911.9000000953674,520821.19999980927,7218,raisin,NF,C,513963,513963,512433,513248,512433,514345,513763,513763,514345,104
84,test,1,con,0,m,Fri Aug 29 2025 13:01:18 GMT-0500 (Central Daylight Time),526368.0,lead,1100,I,None,None,None,1800,1800.0,201.0,124,1,3632.300000190735,522735.69999980927,7218,lead,NF,C,516180,516180,514348,515463,514348,517980,515979,515979,517980,105
84,test,1,inc,0,m,Fri Aug 29 2025 13:01:18 GMT-0500 (Central Daylight Time),529914.7999999523,kiwi,1000,I,None,None,None,1815,1815.0,200.0,119,1,3540.5,526374.2999999523,7218,zinc,NF,C,519712,519712,517986,518996,517986,521527,519511,519511,521527,106
84,test,1,con,0,m,Fri Aug 29 2025 13:01:18 GMT-0500 (Central Daylight Time),533247.7999999523,silver,800,I,None,None,None,1799,1799.0,200.0,81,1,3330.4000000953674,529917.399999857,7218,silver,NF,C,523061,523061,521529,522344,521530,524860,522860,522860,524860,107
84,test,1,inc,0,m,Fri Aug 29 2025 13:01:18 GMT-0500 (Central Daylight Time),536680.0999999046,cherry,900,I,None,None,None,1799,1799.0,200.0,86,1,3429.5999999046326,533250.5,7218,silver,NF,C,526493,526493,524863,525776,524863,528292,526293,526293,528292,108
85,test,1,con,1,z,Fri Aug 29 2025 13:01:18 GMT-0500 (Central Daylight Time),538895.399999857,cherry,1000,I,z,z,None,677,477.0,200.0,11,1,2210.899999856949,536684.5,7218,cherry,NF,C,530025,530025,528296,529309,528297,530508,529825,529825,530507,109
86,test,1,inc,1,z,Fri Aug 29 2025 13:01:18 GMT-0500 (Central Daylight Time),541045.5999999046,iron,900,I,z,z,None,729,530.0,199.0,46,1,2147.4000000953674,538898.1999998093,7218,pear,NF,C,532124,532124,530510,531424,530511,532658,531925,531925,532658,110
87,test,1,inc,1,z,Fri Aug 29 2025 13:01:18 GMT-0500 (Central Daylight Time),543194.5999999046,lead,1100,I,z,z,None,500,300.0,200.0,40,1,2146.2999999523163,541048.2999999523,7218,lime,NF,C,534490,534490,532660,533774,532661,534807,534290,534290,534807,111
87,test,1,con,0,m,Fri Aug 29 2025 13:01:18 GMT-0500 (Central Daylight Time),546727.6999998093,cobalt,1000,I,None,None,None,1800,1800.0,200.0,91,1,3530.5999999046326,543197.0999999046,7218,cobalt,NF,C,536540,536540,534809,535823,534809,538340,536340,536340,538340,112
87,test,1,con,0,m,Fri Aug 29 2025 13:01:18 GMT-0500 (Central Daylight Time),548592.5999999046,gold,900,I,z,z,None,426,227.0,199.0,98,1,1862.0,546730.5999999046,7218,gold,NF,C,539971,539971,538343,539255,538343,540205,539772,539772,540205,113
87,test,1,con,0,m,Fri Aug 29 2025 13:01:18 GMT-0500 (Central Daylight Time),552024.6999998093,copper,900,I,None,None,None,1799,1799.0,200.0,74,1,3429.399999856949,548595.2999999523,7218,copper,NF,C,541838,541838,540207,541121,540208,543637,541638,541638,543637,114
88,test,1,inc,1,z,Fri Aug 29 2025 13:01:18 GMT-0500 (Central Daylight Time),554140.899999857,copper,900,I,z,z,None,672,473.0,199.0,22,1,2109.5,552031.399999857,7218,orange,NF,C,545270,545270,543643,544553,543644,545753,545070,545070,545753,115
89,test,1,inc,1,z,Fri Aug 29 2025 13:01:18 GMT-0500 (Central Daylight Time),556240.1999998093,silver,1000,I,z,z,None,560,361.0,199.0,31,1,2096.699999809265,554143.5,7218,raisin,NF,C,547486,547486,545756,546769,545756,547852,547286,547286,547852,116
89,test,1,con,0,m,Fri Aug 29 2025 13:01:18 GMT-0500 (Central Daylight Time),558072.6999998093,gold,800,I,z,z,None,496,281.0,215.0,97,1,1830.0,556242.6999998093,7218,gold,NF,C,549403,549403,547855,548669,547855,549685,549187,549187,549685,117
89,test,1,inc,0,m,Fri Aug 29 2025 13:01:18 GMT-0500 (Central Daylight Time),561604.5999999046,orange,1000,I,None,None,None,1799,1799.0,200.0,71,1,3529.0999999046326,558075.5,7218,bronze,NF,C,551418,551418,549688,550702,549688,553217,551218,551218,553217,118
89,test,1,con,0,m,Fri Aug 29 2025 13:01:18 GMT-0500 (Central Daylight Time),565237.0,zinc,1100,I,None,None,None,1799,1799.0,200.0,116,1,3629.5,561607.5,7218,zinc,NF,C,555050,555050,553220,554334,553220,556849,554850,554850,556849,119
89,test,1,inc,0,m,Fri Aug 29 2025 13:01:18 GMT-0500 (Central Daylight Time),568569.6999998093,banana,800,I,None,None,None,1800,1800.0,215.0,85,1,3329.2999999523163,565240.399999857,7218,silver,NF,C,558382,558382,556852,557666,556853,560182,558167,558167,560182,120
90,test,1,inc,1,z,Fri Aug 29 2025 13:01:18 GMT-0500 (Central Daylight Time),570917.899999857,copper,900,I,z,z,None,903,703.0,200.0,14,1,2345.7000000476837,568572.1999998093,7218,cherry,NF,C,561815,561815,560184,561098,560184,562530,561614,561614,562530,121
91,test,1,con,1,z,Fri Aug 29 2025 13:01:18 GMT-0500 (Central Daylight Time),572951.5999999046,orange,800,I,z,z,None,695,495.0,200.0,17,1,2030.7000000476837,570920.899999857,7218,orange,NF,C,564064,564064,562533,563348,562533,564564,563864,563864,564564,122
91,test,1,inc,0,m,Fri Aug 29 2025 13:01:18 GMT-0500 (Central Daylight Time),575067.7999999523,raisin,1100,I,z,z,None,475,275.0,200.0,80,1,2113.7000000476837,572954.0999999046,7218,copper,NF,C,566396,566396,564566,565680,564566,566680,566196,566196,566680,123
91,test,1,inc,0,m,Fri Aug 29 2025 13:01:18 GMT-0500 (Central Daylight Time),578399.899999857,banana,800,I,None,None,None,1800,1800.0,200.0,77,1,3329.5999999046326,575070.2999999523,7218,copper,NF,C,568212,568212,566682,567496,566683,570012,568012,568012,570012,124
91,test,1,inc,0,m,Fri Aug 29 2025 13:01:18 GMT-0500 (Central Daylight Time),581932.6999998093,orange,1000,I,None,None,None,1801,1801.0,199.0,79,1,3530.0999999046326,578402.5999999046,7218,copper,NF,C,571744,571744,570015,571028,570015,573545,571545,571545,573545,125
92,test,1,con,1,z,Fri Aug 29 2025 13:01:18 GMT-0500 (Central Daylight Time),583947.399999857,kiwi,800,I,z,z,None,682,482.0,200.0,49,1,2012.0,581935.399999857,7218,kiwi,NF,C,575077,575077,573547,574360,573548,575559,574877,574877,575559,126
92,test,1,con,0,z,Fri Aug 29 2025 13:01:18 GMT-0500 (Central Daylight Time),587279.899999857,banana,800,I,None,None,None,1799,1799.0,199.0,1,1,3329.899999856949,583950.0,7218,banana,NF,C,577093,577093,575562,576376,575562,578892,576893,576893,578892,127
93,test,1,con,1,z,Fri Aug 29 2025 13:01:18 GMT-0500 (Central Daylight Time),589147.2999999523,cherry,900,I,z,z,None,425,226.0,199.0,10,1,1864.4000000953674,587282.899999857,7218,cherry,NF,C,580525,580525,578895,579808,578895,580759,580326,580326,580759,128
