acc_sum,block,block_c,change,condition,correct,correct_response,datetime,endtime,face,project,response,response_time,row_sel,session_number,start_end,starttime,subject_id,task,task_vers,trial
0,prac,1,,1-Back,,,Fri Sep 05 2025 13:30:41 GMT-0500 (Central Daylight Time),,093_m_f_n_a.png,O,space,10282,1,1,,,7202,NNB,C,0
1,prac,1,0.0,1-Back,1,m,Fri Sep 05 2025 13:30:41 GMT-0500 (Central Daylight Time),142944.30000019073,098_y_f_n_a.png,O,m,825,2,1,1658.0999999046326,141286.2000002861,7202,NNB,C,1
1,prac,1,1.0,1-Back,0,z,Fri Sep 05 2025 13:30:41 GMT-0500 (Central Daylight Time),145725.5,098_y_f_n_a.png,O,None,2005,3,1,2771.5999999046326,142953.90000009537,7202,NNB,C,2
1,prac,1,0.0,1-Back,0,m,Fri Sep 05 2025 13:30:41 GMT-0500 (Central Daylight Time),148573.30000019073,059_o_m_n_a.png,O,None,2013,4,1,2839.300000190735,145734.0,7202,NNB,C,3
1,prac,1,0.0,1-Back,0,m,Fri Sep 05 2025 13:30:41 GMT-0500 (Central Daylight Time),151421.80000019073,092_m_m_n_a.png,O,None,2002,5,1,2838.5999999046326,148583.2000002861,7202,NNB,C,4
1,prac,1,1.0,1-Back,0,z,Fri Sep 05 2025 13:30:41 GMT-0500 (Central Daylight Time),154206.60000038147,092_m_m_n_a.png,O,None,2008,6,1,2776.1000003814697,151430.5,7202,NNB,C,5
2,prac,1,0.0,1-Back,1,m,Fri Sep 05 2025 13:30:41 GMT-0500 (Central Daylight Time),155806.10000038147,130_o_f_n_a.png,O,m,743,7,1,1589.2000002861023,154216.90000009537,7202,NNB,C,6
2,prac,1,0.0,1-Back,0,m,Fri Sep 05 2025 13:30:41 GMT-0500 (Central Daylight Time),158654.2000002861,082_m_m_n_a.png,O,None,2014,8,1,2838.0999999046326,155816.10000038147,7202,NNB,C,7
2,prac,1,0.0,1-Back,0,m,Fri Sep 05 2025 13:30:41 GMT-0500 (Central Daylight Time),161435.5,093_m_f_n_a.png,O,None,2007,9,1,2771.7999997138977,158663.7000002861,7202,NNB,C,8
2,prac,1,1.0,1-Back,0,z,Fri Sep 05 2025 13:30:41 GMT-0500 (Central Daylight Time),164219.40000009537,093_m_f_n_a.png,O,None,2006,10,1,2774.199999809265,161445.2000002861,7202,NNB,C,9
3,prac,1,0.0,1-Back,1,m,Fri Sep 05 2025 13:30:41 GMT-0500 (Central Daylight Time),166836.10000038147,059_o_m_n_a.png,O,m,1850,11,1,2609.2000002861023,164226.90000009537,7202,NNB,C,10
3,prac,1,0.0,1-Back,0,m,Fri Sep 05 2025 13:30:41 GMT-0500 (Central Daylight Time),169669.40000009537,028_y_f_n_a.png,O,None,2002,12,1,2824.2999997138977,166845.10000038147,7202,NNB,C,11
0,prac,2,0.0,1-Back,,,Fri Sep 05 2025 13:30:41 GMT-0500 (Central Daylight Time),169669.40000009537,093_m_f_n_a.png,O,a,9757,1,1,2824.2999997138977,166845.10000038147,7202,NNB,C,0
1,prac,2,0.0,1-Back,1,m,Fri Sep 05 2025 13:30:41 GMT-0500 (Central Daylight Time),183795.80000019073,098_y_f_n_a.png,O,m,479,2,1,1321.9000000953674,182473.90000009537,7202,NNB,C,1
1,prac,2,1.0,1-Back,0,z,Fri Sep 05 2025 13:30:41 GMT-0500 (Central Daylight Time),186577.10000038147,098_y_f_n_a.png,O,None,2008,3,1,2772.800000190735,183804.30000019073,7202,NNB,C,2
1,prac,2,0.0,1-Back,0,m,Fri Sep 05 2025 13:30:41 GMT-0500 (Central Daylight Time),189361.10000038147,059_o_m_n_a.png,O,None,2013,4,1,2779.0,186582.10000038147,7202,NNB,C,3
2,prac,2,0.0,1-Back,1,m,Fri Sep 05 2025 13:30:41 GMT-0500 (Central Daylight Time),190827.10000038147,092_m_m_n_a.png,O,m,611,5,1,1456.1000003814697,189371.0,7202,NNB,C,4
2,prac,2,1.0,1-Back,0,z,Fri Sep 05 2025 13:30:41 GMT-0500 (Central Daylight Time),192394.7000002861,092_m_m_n_a.png,O,m,777,6,1,1559.4000000953674,190835.30000019073,7202,NNB,C,5
3,prac,2,0.0,1-Back,1,m,Fri Sep 05 2025 13:30:41 GMT-0500 (Central Daylight Time),193959.90000009537,130_o_f_n_a.png,O,m,685,7,1,1556.5,192403.40000009537,7202,NNB,C,6
4,prac,2,0.0,1-Back,1,m,Fri Sep 05 2025 13:30:41 GMT-0500 (Central Daylight Time),195492.90000009537,082_m_m_n_a.png,O,m,685,8,1,1523.5,193969.40000009537,7202,NNB,C,7
5,prac,2,0.0,1-Back,1,m,Fri Sep 05 2025 13:30:41 GMT-0500 (Central Daylight Time),196826.2000002861,093_m_f_n_a.png,O,m,571,9,1,1328.7000002861023,195497.5,7202,NNB,C,8
6,prac,2,1.0,1-Back,1,z,Fri Sep 05 2025 13:30:41 GMT-0500 (Central Daylight Time),198324.90000009537,093_m_f_n_a.png,O,z,739,10,1,1491.0,196833.90000009537,7202,NNB,C,9
7,prac,2,0.0,1-Back,1,m,Fri Sep 05 2025 13:30:41 GMT-0500 (Central Daylight Time),199775.7000002861,059_o_m_n_a.png,O,m,674,11,1,1442.0,198333.7000002861,7202,NNB,C,10
7,prac,2,0.0,1-Back,0,m,Fri Sep 05 2025 13:30:41 GMT-0500 (Central Daylight Time),201291.40000009537,028_y_f_n_a.png,O,z,654,12,1,1506.4000000953674,199785.0,7202,NNB,C,11
0,test,1,0.0,1-Back,,,Fri Sep 05 2025 13:30:41 GMT-0500 (Central Daylight Time),201291.40000009537,098_y_f_n_a.png,O,space,3814,1,1,1506.4000000953674,199785.0,7202,NNB,C,0
1,test,1,0.0,1-Back,1,m,Fri Sep 05 2025 13:30:41 GMT-0500 (Central Daylight Time),228931.0,006_m_f_n_a.png,O,m,817,2,1,1840.2999997138977,227090.7000002861,7202,NNB,C,1
2,test,1,0.0,1-Back,1,m,Fri Sep 05 2025 13:30:41 GMT-0500 (Central Daylight Time),230746.5,028_y_f_n_a.png,O,m,793,3,1,1806.3999996185303,228940.10000038147,7202,NNB,C,2
3,test,1,1.0,1-Back,1,z,Fri Sep 05 2025 13:30:41 GMT-0500 (Central Daylight Time),232246.90000009537,028_y_f_n_a.png,O,z,468,4,1,1491.5999999046326,230755.30000019073,7202,NNB,C,3
4,test,1,0.0,1-Back,1,m,Fri Sep 05 2025 13:30:41 GMT-0500 (Central Daylight Time),233978.90000009537,006_m_f_n_a.png,O,m,709,5,1,1722.9000000953674,232256.0,7202,NNB,C,4
5,test,1,0.0,1-Back,1,m,Fri Sep 05 2025 13:30:41 GMT-0500 (Central Daylight Time),235662.5,059_o_m_n_a.png,O,m,666,6,1,1676.5999999046326,233985.90000009537,7202,NNB,C,5
5,test,1,1.0,1-Back,0,z,Fri Sep 05 2025 13:30:41 GMT-0500 (Central Daylight Time),237144.5,059_o_m_n_a.png,O,m,455,7,1,1476.0,235668.5,7202,NNB,C,6
6,test,1,0.0,1-Back,1,m,Fri Sep 05 2025 13:30:41 GMT-0500 (Central Daylight Time),239010.7000002861,092_m_m_n_a.png,O,m,836,8,1,1859.2000002861023,237151.5,7202,NNB,C,7
7,test,1,0.0,1-Back,1,m,Fri Sep 05 2025 13:30:41 GMT-0500 (Central Daylight Time),240760.10000038147,130_o_f_n_a.png,O,m,729,9,1,1742.5,239017.60000038147,7202,NNB,C,8
8,test,1,0.0,1-Back,1,m,Fri Sep 05 2025 13:30:41 GMT-0500 (Central Daylight Time),242460.30000019073,092_m_m_n_a.png,O,m,668,10,1,1691.9000000953674,240768.40000009537,7202,NNB,C,9
9,test,1,0.0,1-Back,1,m,Fri Sep 05 2025 13:30:41 GMT-0500 (Central Daylight Time),244110.80000019073,057_y_m_n_a.png,O,m,626,11,1,1646.0999999046326,242464.7000002861,7202,NNB,C,10
10,test,1,1.0,1-Back,1,z,Fri Sep 05 2025 13:30:41 GMT-0500 (Central Daylight Time),245725.40000009537,057_y_m_n_a.png,O,z,584,12,1,1605.7999997138977,244119.60000038147,7202,NNB,C,11
11,test,1,0.0,1-Back,1,m,Fri Sep 05 2025 13:30:41 GMT-0500 (Central Daylight Time),247193.0,030_o_f_n_a.png,O,m,440,13,1,1460.7999997138977,245732.2000002861,7202,NNB,C,12
12,test,1,1.0,1-Back,1,z,Fri Sep 05 2025 13:30:41 GMT-0500 (Central Daylight Time),248858.30000019073,030_o_f_n_a.png,O,z,644,14,1,1656.0999999046326,247202.2000002861,7202,NNB,C,13
13,test,1,0.0,1-Back,1,m,Fri Sep 05 2025 13:30:41 GMT-0500 (Central Daylight Time),250624.0,031_y_m_n_a.png,O,m,746,15,1,1758.7999997138977,248865.2000002861,7202,NNB,C,14
14,test,1,0.0,1-Back,1,m,Fri Sep 05 2025 13:30:41 GMT-0500 (Central Daylight Time),252190.5,093_m_f_n_a.png,O,m,542,16,1,1559.5,250631.0,7202,NNB,C,15
15,test,1,0.0,1-Back,1,m,Fri Sep 05 2025 13:30:41 GMT-0500 (Central Daylight Time),253722.90000009537,146_o_m_n_a.png,O,m,510,17,1,1522.5999999046326,252200.30000019073,7202,NNB,C,16
16,test,1,0.0,1-Back,1,m,Fri Sep 05 2025 13:30:41 GMT-0500 (Central Daylight Time),255272.60000038147,093_m_f_n_a.png,O,m,529,18,1,1544.1000003814697,253728.5,7202,NNB,C,17
0,test,2,0.0,1-Back,,,Fri Sep 05 2025 13:30:41 GMT-0500 (Central Daylight Time),255272.60000038147,092_m_m_n_a.png,O,space,2267,1,1,1544.1000003814697,253728.5,7202,NNB,C,0
1,test,2,0.0,1-Back,1,m,Fri Sep 05 2025 13:30:41 GMT-0500 (Central Daylight Time),261304.7000002861,006_m_f_n_a.png,O,m,702,2,1,1726.2000002861023,259578.5,7202,NNB,C,1
2,test,2,1.0,1-Back,1,z,Fri Sep 05 2025 13:30:41 GMT-0500 (Central Daylight Time),262868.90000009537,006_m_f_n_a.png,O,z,539,3,1,1558.4000000953674,261310.5,7202,NNB,C,2
3,test,2,0.0,1-Back,1,m,Fri Sep 05 2025 13:30:41 GMT-0500 (Central Daylight Time),264403.0,092_m_m_n_a.png,O,m,510,4,1,1531.2999997138977,262871.7000002861,7202,NNB,C,3
4,test,2,0.0,1-Back,1,m,Fri Sep 05 2025 13:30:41 GMT-0500 (Central Daylight Time),266202.60000038147,057_y_m_n_a.png,O,m,768,5,1,1796.7000002861023,264405.90000009537,7202,NNB,C,4
5,test,2,0.0,1-Back,1,m,Fri Sep 05 2025 13:30:41 GMT-0500 (Central Daylight Time),267719.60000038147,098_y_f_n_a.png,O,m,483,6,1,1510.4000000953674,266209.2000002861,7202,NNB,C,5
6,test,2,1.0,1-Back,1,z,Fri Sep 05 2025 13:30:41 GMT-0500 (Central Daylight Time),269218.30000019073,098_y_f_n_a.png,O,z,478,7,1,1490.3000001907349,267728.0,7202,NNB,C,6
7,test,2,0.0,1-Back,1,m,Fri Sep 05 2025 13:30:41 GMT-0500 (Central Daylight Time),270635.7000002861,057_y_m_n_a.png,O,m,384,8,1,1411.2000002861023,269224.5,7202,NNB,C,7
8,test,2,0.0,1-Back,1,m,Fri Sep 05 2025 13:30:41 GMT-0500 (Central Daylight Time),272316.30000019073,030_o_f_n_a.png,O,m,657,9,1,1674.0999999046326,270642.2000002861,7202,NNB,C,8
9,test,2,0.0,1-Back,1,m,Fri Sep 05 2025 13:30:41 GMT-0500 (Central Daylight Time),273834.40000009537,082_m_m_n_a.png,O,m,495,10,1,1512.7999997138977,272321.60000038147,7202,NNB,C,9
10,test,2,1.0,1-Back,1,z,Fri Sep 05 2025 13:30:41 GMT-0500 (Central Daylight Time),275432.80000019073,082_m_m_n_a.png,O,z,578,11,1,1591.6999998092651,273841.10000038147,7202,NNB,C,10
11,test,2,0.0,1-Back,1,m,Fri Sep 05 2025 13:30:41 GMT-0500 (Central Daylight Time),276899.60000038147,030_o_f_n_a.png,O,m,436,12,1,1459.9000000953674,275439.7000002861,7202,NNB,C,11
12,test,2,0.0,1-Back,1,m,Fri Sep 05 2025 13:30:41 GMT-0500 (Central Daylight Time),278482.5,130_o_f_n_a.png,O,m,553,13,1,1575.6999998092651,276906.80000019073,7202,NNB,C,12
13,test,2,0.0,1-Back,1,m,Fri Sep 05 2025 13:30:41 GMT-0500 (Central Daylight Time),279981.80000019073,059_o_m_n_a.png,O,m,467,14,1,1492.1999998092651,278489.60000038147,7202,NNB,C,13
14,test,2,0.0,1-Back,1,m,Fri Sep 05 2025 13:30:41 GMT-0500 (Central Daylight Time),281448.60000038147,146_o_m_n_a.png,O,m,449,15,1,1457.8000001907349,279990.80000019073,7202,NNB,C,14
15,test,2,1.0,1-Back,1,z,Fri Sep 05 2025 13:30:41 GMT-0500 (Central Daylight Time),283047.10000038147,146_o_m_n_a.png,O,z,571,16,1,1592.5,281454.60000038147,7202,NNB,C,15
16,test,2,0.0,1-Back,1,m,Fri Sep 05 2025 13:30:41 GMT-0500 (Central Daylight Time),284596.90000009537,031_y_m_n_a.png,O,m,517,17,1,1543.0,283053.90000009537,7202,NNB,C,16
16,test,2,1.0,1-Back,0,z,Fri Sep 05 2025 13:30:41 GMT-0500 (Central Daylight Time),286214.7000002861,031_y_m_n_a.png,O,m,599,18,1,1610.4000000953674,284604.30000019073,7202,NNB,C,17
0,test,3,1.0,1-Back,,,Fri Sep 05 2025 13:30:41 GMT-0500 (Central Daylight Time),286214.7000002861,028_y_f_n_a.png,O,space,1109,1,1,1610.4000000953674,284604.30000019073,7202,NNB,C,0
1,test,3,0.0,1-Back,1,m,Fri Sep 05 2025 13:30:41 GMT-0500 (Central Daylight Time),291145.2000002861,146_o_m_n_a.png,O,m,700,1,1,1723.8000001907349,289421.40000009537,7202,NNB,C,1
2,test,3,1.0,1-Back,1,z,Fri Sep 05 2025 13:30:41 GMT-0500 (Central Daylight Time),292894.80000019073,146_o_m_n_a.png,O,z,717,1,1,1741.1999998092651,291153.60000038147,7202,NNB,C,2
3,test,3,0.0,1-Back,1,m,Fri Sep 05 2025 13:30:41 GMT-0500 (Central Daylight Time),294428.30000019073,093_m_f_n_a.png,O,m,502,1,1,1526.9000000953674,292901.40000009537,7202,NNB,C,3
4,test,3,1.0,1-Back,1,z,Fri Sep 05 2025 13:30:41 GMT-0500 (Central Daylight Time),296060.2000002861,093_m_f_n_a.png,O,z,610,1,1,1625.4000000953674,294434.80000019073,7202,NNB,C,4
5,test,3,0.0,1-Back,1,m,Fri Sep 05 2025 13:30:41 GMT-0500 (Central Daylight Time),297543.80000019073,030_o_f_n_a.png,O,m,456,1,1,1475.4000000953674,296068.40000009537,7202,NNB,C,5
6,test,3,0.0,1-Back,1,m,Fri Sep 05 2025 13:30:41 GMT-0500 (Central Daylight Time),299076.60000038147,057_y_m_n_a.png,O,m,501,1,1,1526.1000003814697,297550.5,7202,NNB,C,6
7,test,3,0.0,1-Back,1,m,Fri Sep 05 2025 13:30:41 GMT-0500 (Central Daylight Time),300642.2000002861,030_o_f_n_a.png,O,m,537,1,1,1559.7000002861023,299082.5,7202,NNB,C,7
8,test,3,0.0,1-Back,1,m,Fri Sep 05 2025 13:30:41 GMT-0500 (Central Daylight Time),302108.7000002861,031_y_m_n_a.png,O,m,434,1,1,1460.0,300648.7000002861,7202,NNB,C,8
9,test,3,1.0,1-Back,1,z,Fri Sep 05 2025 13:30:41 GMT-0500 (Central Daylight Time),303692.2000002861,031_y_m_n_a.png,O,z,552,1,1,1577.5999999046326,302114.60000038147,7202,NNB,C,9
10,test,3,0.0,1-Back,1,m,Fri Sep 05 2025 13:30:41 GMT-0500 (Central Daylight Time),305121.60000038147,006_m_f_n_a.png,O,m,400,1,1,1422.6000003814697,303699.0,7202,NNB,C,10
11,test,3,0.0,1-Back,1,m,Fri Sep 05 2025 13:30:41 GMT-0500 (Central Daylight Time),306639.30000019073,098_y_f_n_a.png,O,m,497,1,1,1511.3000001907349,305128.0,7202,NNB,C,11
12,test,3,1.0,1-Back,1,z,Fri Sep 05 2025 13:30:41 GMT-0500 (Central Daylight Time),308039.5,098_y_f_n_a.png,O,z,381,1,1,1397.7999997138977,306641.7000002861,7202,NNB,C,12
13,test,3,0.0,1-Back,1,m,Fri Sep 05 2025 13:30:41 GMT-0500 (Central Daylight Time),309488.7000002861,006_m_f_n_a.png,O,m,427,1,1,1441.4000000953674,308047.30000019073,7202,NNB,C,13
14,test,3,0.0,1-Back,1,m,Fri Sep 05 2025 13:30:41 GMT-0500 (Central Daylight Time),310972.10000038147,092_m_m_n_a.png,O,m,451,1,1,1479.4000000953674,309492.7000002861,7202,NNB,C,14
15,test,3,1.0,1-Back,1,z,Fri Sep 05 2025 13:30:41 GMT-0500 (Central Daylight Time),312571.0,092_m_m_n_a.png,O,z,578,1,1,1590.1999998092651,310980.80000019073,7202,NNB,C,15
16,test,3,0.0,1-Back,1,m,Fri Sep 05 2025 13:30:41 GMT-0500 (Central Daylight Time),313987.40000009537,130_o_f_n_a.png,O,m,392,1,1,1408.9000000953674,312578.5,7202,NNB,C,16
17,test,3,1.0,1-Back,1,z,Fri Sep 05 2025 13:30:41 GMT-0500 (Central Daylight Time),315520.10000038147,130_o_f_n_a.png,O,z,514,1,1,1524.9000000953674,313995.2000002861,7202,NNB,C,17
0,test,4,1.0,1-Back,,,Fri Sep 05 2025 13:30:41 GMT-0500 (Central Daylight Time),315520.10000038147,093_m_f_n_a.png,O,space,1275,1,1,1524.9000000953674,313995.2000002861,7202,NNB,C,0
1,test,4,0.0,1-Back,1,m,Fri Sep 05 2025 13:30:41 GMT-0500 (Central Daylight Time),320452.90000009537,146_o_m_n_a.png,O,m,535,2,1,1560.2999997138977,318892.60000038147,7202,NNB,C,1
2,test,4,0.0,1-Back,1,m,Fri Sep 05 2025 13:30:41 GMT-0500 (Central Daylight Time),321984.80000019073,093_m_f_n_a.png,O,m,510,3,1,1523.9000000953674,320460.90000009537,7202,NNB,C,2
3,test,4,0.0,1-Back,1,m,Fri Sep 05 2025 13:30:41 GMT-0500 (Central Daylight Time),323468.60000038147,030_o_f_n_a.png,O,m,451,4,1,1475.7000002861023,321992.90000009537,7202,NNB,C,3
4,test,4,1.0,1-Back,1,z,Fri Sep 05 2025 13:30:41 GMT-0500 (Central Daylight Time),324984.40000009537,030_o_f_n_a.png,O,z,496,5,1,1509.5999999046326,323474.80000019073,7202,NNB,C,4
5,test,4,0.0,1-Back,1,m,Fri Sep 05 2025 13:30:41 GMT-0500 (Central Daylight Time),326383.5,098_y_f_n_a.png,O,m,382,6,1,1391.5,324992.0,7202,NNB,C,5
6,test,4,0.0,1-Back,1,m,Fri Sep 05 2025 13:30:41 GMT-0500 (Central Daylight Time),327865.5,057_y_m_n_a.png,O,m,460,7,1,1474.7999997138977,326390.7000002861,7202,NNB,C,6
7,test,4,1.0,1-Back,1,z,Fri Sep 05 2025 13:30:41 GMT-0500 (Central Daylight Time),329432.80000019073,057_y_m_n_a.png,O,z,535,8,1,1561.5999999046326,327871.2000002861,7202,NNB,C,7
8,test,4,0.0,1-Back,1,m,Fri Sep 05 2025 13:30:41 GMT-0500 (Central Daylight Time),330882.5,098_y_f_n_a.png,O,m,419,9,1,1443.0999999046326,329439.40000009537,7202,NNB,C,8
9,test,4,0.0,1-Back,1,m,Fri Sep 05 2025 13:30:41 GMT-0500 (Central Daylight Time),332464.60000038147,082_m_m_n_a.png,O,m,563,10,1,1574.6000003814697,330890.0,7202,NNB,C,9
10,test,4,1.0,1-Back,1,z,Fri Sep 05 2025 13:30:41 GMT-0500 (Central Daylight Time),334047.90000009537,082_m_m_n_a.png,O,z,554,11,1,1575.6999998092651,332472.2000002861,7202,NNB,C,10
11,test,4,0.0,1-Back,1,m,Fri Sep 05 2025 13:30:41 GMT-0500 (Central Daylight Time),335513.60000038147,130_o_f_n_a.png,O,m,444,12,1,1459.2000002861023,334054.40000009537,7202,NNB,C,11
12,test,4,0.0,1-Back,1,m,Fri Sep 05 2025 13:30:41 GMT-0500 (Central Daylight Time),337131.10000038147,059_o_m_n_a.png,O,m,593,13,1,1610.5,335520.60000038147,7202,NNB,C,12
13,test,4,0.0,1-Back,1,m,Fri Sep 05 2025 13:30:41 GMT-0500 (Central Daylight Time),338679.5,130_o_f_n_a.png,O,m,521,14,1,1543.7999997138977,337135.7000002861,7202,NNB,C,13
14,test,4,0.0,1-Back,1,m,Fri Sep 05 2025 13:30:41 GMT-0500 (Central Daylight Time),340446.90000009537,028_y_f_n_a.png,O,m,733,15,1,1760.0999999046326,338686.80000019073,7202,NNB,C,14
15,test,4,1.0,1-Back,1,z,Fri Sep 05 2025 13:30:41 GMT-0500 (Central Daylight Time),342079.0,028_y_f_n_a.png,O,z,607,16,1,1624.0,340455.0,7202,NNB,C,15
16,test,4,0.0,1-Back,1,m,Fri Sep 05 2025 13:30:41 GMT-0500 (Central Daylight Time),343561.2000002861,006_m_f_n_a.png,O,m,451,17,1,1476.8000001907349,342084.40000009537,7202,NNB,C,16
16,test,4,1.0,1-Back,0,z,Fri Sep 05 2025 13:30:41 GMT-0500 (Central Daylight Time),345010.30000019073,006_m_f_n_a.png,O,m,419,18,1,1441.5,343568.80000019073,7202,NNB,C,17
0,test,5,1.0,1-Back,,,Fri Sep 05 2025 13:30:41 GMT-0500 (Central Daylight Time),345010.30000019073,059_o_m_n_a.png,O,space,1265,1,1,1441.5,343568.80000019073,7202,NNB,C,0
1,test,5,1.0,1-Back,1,z,Fri Sep 05 2025 13:30:41 GMT-0500 (Central Daylight Time),349992.10000038147,059_o_m_n_a.png,O,z,670,2,1,1693.1000003814697,348299.0,7202,NNB,C,1
2,test,5,0.0,1-Back,1,m,Fri Sep 05 2025 13:30:41 GMT-0500 (Central Daylight Time),351424.7000002861,098_y_f_n_a.png,O,m,404,3,1,1426.4000000953674,349998.30000019073,7202,NNB,C,2
3,test,5,0.0,1-Back,1,m,Fri Sep 05 2025 13:30:41 GMT-0500 (Central Daylight Time),353124.60000038147,057_y_m_n_a.png,O,m,667,4,1,1690.1000003814697,351434.5,7202,NNB,C,3
4,test,5,0.0,1-Back,1,m,Fri Sep 05 2025 13:30:41 GMT-0500 (Central Daylight Time),354740.7000002861,098_y_f_n_a.png,O,m,583,5,1,1609.7000002861023,353131.0,7202,NNB,C,4
5,test,5,0.0,1-Back,1,m,Fri Sep 05 2025 13:30:41 GMT-0500 (Central Daylight Time),356273.30000019073,092_m_m_n_a.png,O,m,505,6,1,1525.8000001907349,354747.5,7202,NNB,C,5
6,test,5,1.0,1-Back,1,z,Fri Sep 05 2025 13:30:41 GMT-0500 (Central Daylight Time),357874.0,092_m_m_n_a.png,O,z,579,7,1,1591.7999997138977,356282.2000002861,7202,NNB,C,6
7,test,5,0.0,1-Back,1,m,Fri Sep 05 2025 13:30:41 GMT-0500 (Central Daylight Time),359339.10000038147,028_y_f_n_a.png,O,m,436,8,1,1456.2000002861023,357882.90000009537,7202,NNB,C,7
8,test,5,0.0,1-Back,1,m,Fri Sep 05 2025 13:30:41 GMT-0500 (Central Daylight Time),360938.30000019073,031_y_m_n_a.png,O,m,570,9,1,1592.5,359345.80000019073,7202,NNB,C,8
9,test,5,0.0,1-Back,1,m,Fri Sep 05 2025 13:30:41 GMT-0500 (Central Daylight Time),362571.80000019073,028_y_f_n_a.png,O,m,607,10,1,1626.6999998092651,360945.10000038147,7202,NNB,C,9
10,test,5,0.0,1-Back,1,m,Fri Sep 05 2025 13:30:41 GMT-0500 (Central Daylight Time),364105.10000038147,130_o_f_n_a.png,O,m,513,11,1,1526.4000000953674,362578.7000002861,7202,NNB,C,10
11,test,5,1.0,1-Back,1,z,Fri Sep 05 2025 13:30:41 GMT-0500 (Central Daylight Time),365636.40000009537,130_o_f_n_a.png,O,z,500,12,1,1524.5,364111.90000009537,7202,NNB,C,11
12,test,5,0.0,1-Back,1,m,Fri Sep 05 2025 13:30:41 GMT-0500 (Central Daylight Time),367070.10000038147,146_o_m_n_a.png,O,m,407,13,1,1427.6000003814697,365642.5,7202,NNB,C,12
13,test,5,0.0,1-Back,1,m,Fri Sep 05 2025 13:30:41 GMT-0500 (Central Daylight Time),368735.80000019073,093_m_f_n_a.png,O,m,646,14,1,1659.4000000953674,367076.40000009537,7202,NNB,C,13
14,test,5,1.0,1-Back,1,z,Fri Sep 05 2025 13:30:41 GMT-0500 (Central Daylight Time),370319.0,093_m_f_n_a.png,O,z,564,15,1,1576.2999997138977,368742.7000002861,7202,NNB,C,14
15,test,5,0.0,1-Back,1,m,Fri Sep 05 2025 13:30:41 GMT-0500 (Central Daylight Time),371919.40000009537,146_o_m_n_a.png,O,m,572,16,1,1592.5,370326.90000009537,7202,NNB,C,15
16,test,5,0.0,1-Back,1,m,Fri Sep 05 2025 13:30:41 GMT-0500 (Central Daylight Time),373568.30000019073,006_m_f_n_a.png,O,m,622,17,1,1640.1999998092651,371928.10000038147,7202,NNB,C,16
17,test,5,0.0,1-Back,1,m,Fri Sep 05 2025 13:30:41 GMT-0500 (Central Daylight Time),375119.2000002861,082_m_m_n_a.png,O,m,524,18,1,1544.3000001907349,373574.90000009537,7202,NNB,C,17
0,prac,1,0.0,2-Back,,,Fri Sep 05 2025 13:30:41 GMT-0500 (Central Daylight Time),375119.2000002861,031_y_m_n_a.png,O,space,7874,1,1,1544.3000001907349,373574.90000009537,7202,NNB,C,0
0,prac,1,0.0,2-Back,,,Fri Sep 05 2025 13:30:41 GMT-0500 (Central Daylight Time),375119.2000002861,006_m_f_n_a.png,O,space,7874,2,1,1544.3000001907349,373574.90000009537,7202,NNB,C,0
1,prac,1,1.0,2-Back,1,m,Fri Sep 05 2025 13:30:41 GMT-0500 (Central Daylight Time),482918.5,146_o_m_n_a.png,O,m,1206,3,1,2057.2999997138977,480861.2000002861,7202,NNB,C,1
2,prac,1,0.0,2-Back,1,m,Fri Sep 05 2025 13:30:41 GMT-0500 (Central Daylight Time),484683.60000038147,130_o_f_n_a.png,O,m,889,4,1,1756.3000001907349,482927.30000019073,7202,NNB,C,2
3,prac,1,0.0,2-Back,1,z,Fri Sep 05 2025 13:30:41 GMT-0500 (Central Daylight Time),486497.60000038147,146_o_m_n_a.png,O,z,1027,5,1,1806.8000001907349,484690.80000019073,7202,NNB,C,3
4,prac,1,1.0,2-Back,1,z,Fri Sep 05 2025 13:30:41 GMT-0500 (Central Daylight Time),488215.2000002861,130_o_f_n_a.png,O,z,944,6,1,1713.4000000953674,486501.80000019073,7202,NNB,C,4
5,prac,1,0.0,2-Back,1,m,Fri Sep 05 2025 13:30:41 GMT-0500 (Central Daylight Time),489734.10000038147,082_m_m_n_a.png,O,m,676,7,1,1508.6000003814697,488225.5,7202,NNB,C,5
6,prac,1,0.0,2-Back,1,m,Fri Sep 05 2025 13:30:41 GMT-0500 (Central Daylight Time),491631.30000019073,059_o_m_n_a.png,O,m,1047,8,1,1889.0,489742.30000019073,7202,NNB,C,6
7,prac,1,0.0,2-Back,1,m,Fri Sep 05 2025 13:30:41 GMT-0500 (Central Daylight Time),493282.5,028_y_f_n_a.png,O,m,798,9,1,1641.0999999046326,491641.40000009537,7202,NNB,C,7
8,prac,1,1.0,2-Back,1,z,Fri Sep 05 2025 13:30:41 GMT-0500 (Central Daylight Time),494847.40000009537,059_o_m_n_a.png,O,z,778,10,1,1556.1999998092651,493291.2000002861,7202,NNB,C,8
9,prac,1,0.0,2-Back,1,m,Fri Sep 05 2025 13:30:41 GMT-0500 (Central Daylight Time),496364.10000038147,098_y_f_n_a.png,O,m,684,11,1,1510.2000002861023,494853.90000009537,7202,NNB,C,9
10,prac,1,0.0,2-Back,1,m,Fri Sep 05 2025 13:30:41 GMT-0500 (Central Daylight Time),498079.5,082_m_m_n_a.png,O,m,937,12,1,1706.7999997138977,496372.7000002861,7202,NNB,C,10
0,test,1,0.0,2-Back,,,Fri Sep 05 2025 13:30:41 GMT-0500 (Central Daylight Time),498079.5,057_y_m_n_a.png,O,space,3057,1,1,1706.7999997138977,496372.7000002861,7202,NNB,C,0
0,test,1,0.0,2-Back,,,Fri Sep 05 2025 13:30:41 GMT-0500 (Central Daylight Time),498079.5,057_y_m_n_a.png,O,space,3057,2,1,1706.7999997138977,496372.7000002861,7202,NNB,C,0
1,test,1,0.0,2-Back,1,m,Fri Sep 05 2025 13:30:41 GMT-0500 (Central Daylight Time),523138.60000038147,130_o_f_n_a.png,O,m,596,3,1,1609.9000000953674,521528.7000002861,7202,NNB,C,1
2,test,1,0.0,2-Back,1,m,Fri Sep 05 2025 13:30:41 GMT-0500 (Central Daylight Time),525086.1000003815,092_m_m_n_a.png,O,m,917,4,1,1941.3000001907349,523144.80000019073,7202,NNB,C,2
3,test,1,1.0,2-Back,1,z,Fri Sep 05 2025 13:30:41 GMT-0500 (Central Daylight Time),526703.4000000954,130_o_f_n_a.png,O,z,591,5,1,1611.9000000953674,525091.5,7202,NNB,C,3
4,test,1,0.0,2-Back,1,m,Fri Sep 05 2025 13:30:41 GMT-0500 (Central Daylight Time),528303.3000001907,098_y_f_n_a.png,O,m,574,6,1,1593.4000000953674,526709.9000000954,7202,NNB,C,4
4,test,1,0.0,2-Back,0,m,Fri Sep 05 2025 13:30:41 GMT-0500 (Central Daylight Time),530420.5,092_m_m_n_a.png,O,z,1084,7,1,2108.699999809265,528311.8000001907,7202,NNB,C,5
4,test,1,1.0,2-Back,0,z,Fri Sep 05 2025 13:30:41 GMT-0500 (Central Daylight Time),532018.7000002861,098_y_f_n_a.png,O,m,570,8,1,1593.3000001907349,530425.4000000954,7202,NNB,C,6
5,test,1,0.0,2-Back,1,m,Fri Sep 05 2025 13:30:41 GMT-0500 (Central Daylight Time),533950.3000001907,031_y_m_n_a.png,O,m,905,9,1,1923.0,532027.3000001907,7202,NNB,C,7
6,test,1,0.0,2-Back,1,m,Fri Sep 05 2025 13:30:41 GMT-0500 (Central Daylight Time),535950.3000001907,030_o_f_n_a.png,O,m,967,10,1,1993.1999998092651,533957.1000003815,7202,NNB,C,8
7,test,1,1.0,2-Back,1,z,Fri Sep 05 2025 13:30:41 GMT-0500 (Central Daylight Time),537698.7000002861,031_y_m_n_a.png,O,z,715,11,1,1743.0,535955.7000002861,7202,NNB,C,9
8,test,1,0.0,2-Back,1,m,Fri Sep 05 2025 13:30:41 GMT-0500 (Central Daylight Time),539332.9000000954,006_m_f_n_a.png,O,m,611,12,1,1626.9000000953674,537706.0,7202,NNB,C,10
9,test,1,0.0,2-Back,1,m,Fri Sep 05 2025 13:30:41 GMT-0500 (Central Daylight Time),541584.4000000954,006_m_f_n_a.png,O,m,1233,13,1,2245.5999999046326,539338.8000001907,7202,NNB,C,11
10,test,1,0.0,2-Back,1,m,Fri Sep 05 2025 13:30:41 GMT-0500 (Central Daylight Time),543414.1000003815,146_o_m_n_a.png,O,m,805,14,1,1822.8000001907349,541591.3000001907,7202,NNB,C,12
11,test,1,0.0,2-Back,1,m,Fri Sep 05 2025 13:30:41 GMT-0500 (Central Daylight Time),545480.3000001907,030_o_f_n_a.png,O,m,1032,15,1,2059.0,543421.3000001907,7202,NNB,C,13
12,test,1,1.0,2-Back,1,z,Fri Sep 05 2025 13:30:41 GMT-0500 (Central Daylight Time),547248.3000001907,146_o_m_n_a.png,O,z,734,16,1,1760.5,545487.8000001907,7202,NNB,C,14
13,test,1,0.0,2-Back,1,m,Fri Sep 05 2025 13:30:41 GMT-0500 (Central Daylight Time),548962.8000001907,093_m_f_n_a.png,O,m,684,17,1,1706.5,547256.3000001907,7202,NNB,C,15
14,test,1,0.0,2-Back,1,m,Fri Sep 05 2025 13:30:41 GMT-0500 (Central Daylight Time),550829.1000003815,082_m_m_n_a.png,O,m,841,18,1,1859.9000000953674,548969.2000002861,7202,NNB,C,16
0,test,2,0.0,2-Back,,,Fri Sep 05 2025 13:30:41 GMT-0500 (Central Daylight Time),550829.1000003815,082_m_m_n_a.png,O,space,1902,1,1,1859.9000000953674,548969.2000002861,7202,NNB,C,0
0,test,2,0.0,2-Back,,,Fri Sep 05 2025 13:30:41 GMT-0500 (Central Daylight Time),550829.1000003815,028_y_f_n_a.png,O,space,1902,2,1,1859.9000000953674,548969.2000002861,7202,NNB,C,0
1,test,2,1.0,2-Back,1,z,Fri Sep 05 2025 13:30:41 GMT-0500 (Central Daylight Time),559726.5,082_m_m_n_a.png,O,z,832,3,1,1859.7999997138977,557866.7000002861,7202,NNB,C,1
2,test,2,0.0,2-Back,1,m,Fri Sep 05 2025 13:30:41 GMT-0500 (Central Daylight Time),561758.8000001907,093_m_f_n_a.png,O,m,1006,4,1,2027.0999999046326,559731.7000002861,7202,NNB,C,2
2,test,2,0.0,2-Back,0,m,Fri Sep 05 2025 13:30:41 GMT-0500 (Central Daylight Time),563573.3000001907,028_y_f_n_a.png,O,z,788,5,1,1806.8000001907349,561766.5,7202,NNB,C,3
3,test,2,0.0,2-Back,1,m,Fri Sep 05 2025 13:30:41 GMT-0500 (Central Daylight Time),565557.4000000954,146_o_m_n_a.png,O,m,956,6,1,1980.4000000953674,563577.0,7202,NNB,C,4
4,test,2,0.0,2-Back,1,m,Fri Sep 05 2025 13:30:41 GMT-0500 (Central Daylight Time),567340.6000003815,098_y_f_n_a.png,O,m,760,7,1,1775.5,565565.1000003815,7202,NNB,C,5
5,test,2,1.0,2-Back,1,z,Fri Sep 05 2025 13:30:41 GMT-0500 (Central Daylight Time),569107.2000002861,146_o_m_n_a.png,O,z,736,8,1,1760.0999999046326,567347.1000003815,7202,NNB,C,6
6,test,2,0.0,2-Back,1,m,Fri Sep 05 2025 13:30:41 GMT-0500 (Central Daylight Time),570839.0,031_y_m_n_a.png,O,m,700,9,1,1723.6999998092651,569115.3000001907,7202,NNB,C,7
7,test,2,0.0,2-Back,1,m,Fri Sep 05 2025 13:30:41 GMT-0500 (Central Daylight Time),572873.0,031_y_m_n_a.png,O,m,1002,10,1,2027.6999998092651,570845.3000001907,7202,NNB,C,8
8,test,2,0.0,2-Back,1,m,Fri Sep 05 2025 13:30:41 GMT-0500 (Central Daylight Time),575020.7000002861,006_m_f_n_a.png,O,m,1118,11,1,2139.800000190735,572880.9000000954,7202,NNB,C,9
9,test,2,0.0,2-Back,1,m,Fri Sep 05 2025 13:30:41 GMT-0500 (Central Daylight Time),577055.2000002861,028_y_f_n_a.png,O,m,1001,12,1,2027.9000000953674,575027.3000001907,7202,NNB,C,10
10,test,2,1.0,2-Back,1,z,Fri Sep 05 2025 13:30:41 GMT-0500 (Central Daylight Time),579152.9000000954,006_m_f_n_a.png,O,z,1079,13,1,2091.9000000953674,577061.0,7202,NNB,C,11
11,test,2,0.0,2-Back,1,m,Fri Sep 05 2025 13:30:41 GMT-0500 (Central Daylight Time),580819.2000002861,059_o_m_n_a.png,O,m,644,14,1,1660.0,579159.2000002861,7202,NNB,C,12
12,test,2,0.0,2-Back,1,m,Fri Sep 05 2025 13:30:41 GMT-0500 (Central Daylight Time),582685.9000000954,059_o_m_n_a.png,O,m,834,15,1,1859.5,580826.4000000954,7202,NNB,C,13
13,test,2,0.0,2-Back,1,m,Fri Sep 05 2025 13:30:41 GMT-0500 (Central Daylight Time),584485.2000002861,030_o_f_n_a.png,O,m,768,16,1,1791.5999999046326,582693.6000003815,7202,NNB,C,14
14,test,2,0.0,2-Back,1,m,Fri Sep 05 2025 13:30:41 GMT-0500 (Central Daylight Time),586283.4000000954,092_m_m_n_a.png,O,m,769,17,1,1790.1999998092651,584493.2000002861,7202,NNB,C,15
15,test,2,1.0,2-Back,1,z,Fri Sep 05 2025 13:30:41 GMT-0500 (Central Daylight Time),588133.1000003815,030_o_f_n_a.png,O,z,825,18,1,1841.2000002861023,586291.9000000954,7202,NNB,C,16
0,test,3,1.0,2-Back,,,Fri Sep 05 2025 13:30:41 GMT-0500 (Central Daylight Time),588133.1000003815,057_y_m_n_a.png,O,space,2063,1,1,1841.2000002861023,586291.9000000954,7202,NNB,C,0
0,test,3,1.0,2-Back,,,Fri Sep 05 2025 13:30:41 GMT-0500 (Central Daylight Time),588133.1000003815,057_y_m_n_a.png,O,space,2063,2,1,1841.2000002861023,586291.9000000954,7202,NNB,C,0
1,test,3,0.0,2-Back,1,m,Fri Sep 05 2025 13:30:41 GMT-0500 (Central Daylight Time),597181.4000000954,030_o_f_n_a.png,O,m,826,3,1,1843.9000000953674,595337.5,7202,NNB,C,1
2,test,3,0.0,2-Back,1,m,Fri Sep 05 2025 13:30:41 GMT-0500 (Central Daylight Time),598962.7000002861,082_m_m_n_a.png,O,m,760,4,1,1773.3000001907349,597189.4000000954,7202,NNB,C,2
3,test,3,1.0,2-Back,1,z,Fri Sep 05 2025 13:30:41 GMT-0500 (Central Daylight Time),600679.3000001907,030_o_f_n_a.png,O,z,682,5,1,1709.3000001907349,598970.0,7202,NNB,C,3
4,test,3,0.0,2-Back,1,m,Fri Sep 05 2025 13:30:41 GMT-0500 (Central Daylight Time),602562.7000002861,031_y_m_n_a.png,O,m,861,6,1,1875.0999999046326,600687.6000003815,7202,NNB,C,4
5,test,3,0.0,2-Back,1,m,Fri Sep 05 2025 13:30:41 GMT-0500 (Central Daylight Time),605077.5,082_m_m_n_a.png,O,m,1490,7,1,2508.0999999046326,602569.4000000954,7202,NNB,C,5
6,test,3,1.0,2-Back,1,z,Fri Sep 05 2025 13:30:41 GMT-0500 (Central Daylight Time),606960.2000002861,031_y_m_n_a.png,O,z,863,8,1,1877.2000002861023,605083.0,7202,NNB,C,6
7,test,3,0.0,2-Back,1,m,Fri Sep 05 2025 13:30:41 GMT-0500 (Central Daylight Time),608692.9000000954,028_y_f_n_a.png,O,m,708,9,1,1728.6999998092651,606964.2000002861,7202,NNB,C,7
8,test,3,0.0,2-Back,1,m,Fri Sep 05 2025 13:30:41 GMT-0500 (Central Daylight Time),610692.6000003815,092_m_m_n_a.png,O,m,968,10,1,1992.9000000953674,608699.7000002861,7202,NNB,C,8
9,test,3,1.0,2-Back,1,z,Fri Sep 05 2025 13:30:41 GMT-0500 (Central Daylight Time),612391.6000003815,028_y_f_n_a.png,O,z,672,11,1,1691.6000003814697,610700.0,7202,NNB,C,9
10,test,3,1.0,2-Back,1,z,Fri Sep 05 2025 13:30:41 GMT-0500 (Central Daylight Time),614326.4000000954,092_m_m_n_a.png,O,z,908,12,1,1928.4000000953674,612398.0,7202,NNB,C,10
11,test,3,0.0,2-Back,1,m,Fri Sep 05 2025 13:30:41 GMT-0500 (Central Daylight Time),615975.0,030_o_f_n_a.png,O,m,617,13,1,1642.6999998092651,614332.3000001907,7202,NNB,C,11
12,test,3,0.0,2-Back,1,m,Fri Sep 05 2025 13:30:41 GMT-0500 (Central Daylight Time),617642.5,093_m_f_n_a.png,O,m,638,14,1,1661.6999998092651,615980.8000001907,7202,NNB,C,12
13,test,3,0.0,2-Back,1,m,Fri Sep 05 2025 13:30:41 GMT-0500 (Central Daylight Time),619306.9000000954,146_o_m_n_a.png,O,m,645,15,1,1657.5999999046326,617649.3000001907,7202,NNB,C,13
14,test,3,1.0,2-Back,1,z,Fri Sep 05 2025 13:30:41 GMT-0500 (Central Daylight Time),620757.1000003815,093_m_f_n_a.png,O,z,418,16,1,1443.5,619313.6000003815,7202,NNB,C,14
15,test,3,0.0,2-Back,1,m,Fri Sep 05 2025 13:30:41 GMT-0500 (Central Daylight Time),622389.8000001907,130_o_f_n_a.png,O,m,608,17,1,1624.4000000953674,620765.4000000954,7202,NNB,C,15
16,test,3,0.0,2-Back,1,m,Fri Sep 05 2025 13:30:41 GMT-0500 (Central Daylight Time),624123.9000000954,130_o_f_n_a.png,O,m,701,18,1,1727.2999997138977,622396.6000003815,7202,NNB,C,16
0,test,4,0.0,2-Back,,,Fri Sep 05 2025 13:30:41 GMT-0500 (Central Daylight Time),624123.9000000954,059_o_m_n_a.png,O,space,1208,1,1,1727.2999997138977,622396.6000003815,7202,NNB,C,0
0,test,4,0.0,2-Back,,,Fri Sep 05 2025 13:30:41 GMT-0500 (Central Daylight Time),624123.9000000954,098_y_f_n_a.png,O,space,1208,2,1,1727.2999997138977,622396.6000003815,7202,NNB,C,0
1,test,4,1.0,2-Back,1,z,Fri Sep 05 2025 13:30:41 GMT-0500 (Central Daylight Time),632053.2000002861,059_o_m_n_a.png,O,z,511,3,1,1526.0999999046326,630527.1000003815,7202,NNB,C,1
1,test,4,1.0,2-Back,0,z,Fri Sep 05 2025 13:30:41 GMT-0500 (Central Daylight Time),633470.4000000954,098_y_f_n_a.png,O,m,384,4,1,1410.2999997138977,632060.1000003815,7202,NNB,C,2
2,test,4,0.0,2-Back,1,m,Fri Sep 05 2025 13:30:41 GMT-0500 (Central Daylight Time),635417.4000000954,030_o_f_n_a.png,O,m,917,5,1,1939.0999999046326,633478.3000001907,7202,NNB,C,3
3,test,4,0.0,2-Back,1,m,Fri Sep 05 2025 13:30:41 GMT-0500 (Central Daylight Time),637300.4000000954,030_o_f_n_a.png,O,m,852,6,1,1875.6999998092651,635424.7000002861,7202,NNB,C,4
4,test,4,0.0,2-Back,1,m,Fri Sep 05 2025 13:30:41 GMT-0500 (Central Daylight Time),638967.5,006_m_f_n_a.png,O,m,635,7,1,1658.0999999046326,637309.4000000954,7202,NNB,C,5
5,test,4,0.0,2-Back,1,m,Fri Sep 05 2025 13:30:41 GMT-0500 (Central Daylight Time),640849.1000003815,031_y_m_n_a.png,O,m,852,8,1,1874.6000003814697,638974.5,7202,NNB,C,6
6,test,4,1.0,2-Back,1,z,Fri Sep 05 2025 13:30:41 GMT-0500 (Central Daylight Time),643466.7000002861,006_m_f_n_a.png,O,z,1593,9,1,2608.9000000953674,640857.8000001907,7202,NNB,C,7
7,test,4,0.0,2-Back,1,m,Fri Sep 05 2025 13:30:41 GMT-0500 (Central Daylight Time),645165.3000001907,092_m_m_n_a.png,O,m,674,10,1,1691.1999998092651,643474.1000003815,7202,NNB,C,8
8,test,4,0.0,2-Back,1,m,Fri Sep 05 2025 13:30:41 GMT-0500 (Central Daylight Time),646949.6000003815,031_y_m_n_a.png,O,m,767,11,1,1777.8000001907349,645171.8000001907,7202,NNB,C,9
9,test,4,0.0,2-Back,1,m,Fri Sep 05 2025 13:30:41 GMT-0500 (Central Daylight Time),648581.2000002861,130_o_f_n_a.png,O,m,608,12,1,1626.9000000953674,646954.3000001907,7202,NNB,C,10
10,test,4,0.0,2-Back,1,m,Fri Sep 05 2025 13:30:41 GMT-0500 (Central Daylight Time),650296.4000000954,057_y_m_n_a.png,O,m,696,13,1,1707.5999999046326,648588.8000001907,7202,NNB,C,11
11,test,4,1.0,2-Back,1,z,Fri Sep 05 2025 13:30:41 GMT-0500 (Central Daylight Time),652062.6000003815,130_o_f_n_a.png,O,z,740,14,1,1760.6000003814697,650302.0,7202,NNB,C,12
12,test,4,1.0,2-Back,1,z,Fri Sep 05 2025 13:30:41 GMT-0500 (Central Daylight Time),654145.8000001907,057_y_m_n_a.png,O,z,1054,15,1,2075.699999809265,652070.1000003815,7202,NNB,C,13
13,test,4,0.0,2-Back,1,m,Fri Sep 05 2025 13:30:41 GMT-0500 (Central Daylight Time),655729.2000002861,082_m_m_n_a.png,O,m,563,16,1,1575.2000002861023,654154.0,7202,NNB,C,14
14,test,4,0.0,2-Back,1,m,Fri Sep 05 2025 13:30:41 GMT-0500 (Central Daylight Time),657327.8000001907,093_m_f_n_a.png,O,m,579,17,1,1595.0,655732.8000001907,7202,NNB,C,15
15,test,4,1.0,2-Back,1,z,Fri Sep 05 2025 13:30:41 GMT-0500 (Central Daylight Time),658827.3000001907,082_m_m_n_a.png,O,z,474,18,1,1491.0,657336.3000001907,7202,NNB,C,16
0,test,5,1.0,2-Back,,,Fri Sep 05 2025 13:30:41 GMT-0500 (Central Daylight Time),658827.3000001907,057_y_m_n_a.png,O,space,1256,1,1,1491.0,657336.3000001907,7202,NNB,C,0
0,test,5,1.0,2-Back,,,Fri Sep 05 2025 13:30:41 GMT-0500 (Central Daylight Time),658827.3000001907,093_m_f_n_a.png,O,space,1256,2,1,1491.0,657336.3000001907,7202,NNB,C,0
1,test,5,1.0,2-Back,1,z,Fri Sep 05 2025 13:30:41 GMT-0500 (Central Daylight Time),666557.3000001907,057_y_m_n_a.png,O,z,398,3,1,1406.8000001907349,665150.5,7202,NNB,C,1
2,test,5,1.0,2-Back,1,z,Fri Sep 05 2025 13:30:41 GMT-0500 (Central Daylight Time),668375.4000000954,093_m_f_n_a.png,O,z,790,4,1,1815.5999999046326,666559.8000001907,7202,NNB,C,2
3,test,5,0.0,2-Back,1,m,Fri Sep 05 2025 13:30:41 GMT-0500 (Central Daylight Time),670090.5,130_o_f_n_a.png,O,m,683,5,1,1707.6999998092651,668382.8000001907,7202,NNB,C,3
4,test,5,0.0,2-Back,1,m,Fri Sep 05 2025 13:30:41 GMT-0500 (Central Daylight Time),672107.1000003815,057_y_m_n_a.png,O,m,985,6,1,2011.3000001907349,670095.8000001907,7202,NNB,C,4
5,test,5,0.0,2-Back,1,m,Fri Sep 05 2025 13:30:41 GMT-0500 (Central Daylight Time),673840.0,028_y_f_n_a.png,O,m,706,7,1,1724.0,672116.0,7202,NNB,C,5
6,test,5,0.0,2-Back,1,m,Fri Sep 05 2025 13:30:41 GMT-0500 (Central Daylight Time),675889.8000001907,130_o_f_n_a.png,O,m,1028,8,1,2043.1999998092651,673846.6000003815,7202,NNB,C,6
7,test,5,1.0,2-Back,1,z,Fri Sep 05 2025 13:30:41 GMT-0500 (Central Daylight Time),677606.0,028_y_f_n_a.png,O,z,694,9,1,1709.3999996185303,675896.6000003815,7202,NNB,C,7
8,test,5,0.0,2-Back,1,m,Fri Sep 05 2025 13:30:41 GMT-0500 (Central Daylight Time),679304.5,146_o_m_n_a.png,O,m,666,10,1,1691.3999996185303,677613.1000003815,7202,NNB,C,8
9,test,5,0.0,2-Back,1,m,Fri Sep 05 2025 13:30:41 GMT-0500 (Central Daylight Time),681004.3000001907,006_m_f_n_a.png,O,m,668,11,1,1693.0999999046326,679311.2000002861,7202,NNB,C,9
10,test,5,0.0,2-Back,1,m,Fri Sep 05 2025 13:30:41 GMT-0500 (Central Daylight Time),683251.8000001907,092_m_m_n_a.png,O,m,1214,12,1,2241.800000190735,681010.0,7202,NNB,C,10
11,test,5,0.0,2-Back,1,m,Fri Sep 05 2025 13:30:41 GMT-0500 (Central Daylight Time),685336.1000003815,146_o_m_n_a.png,O,m,1055,13,1,2079.2000002861023,683256.9000000954,7202,NNB,C,11
11,test,5,1.0,2-Back,0,z,Fri Sep 05 2025 13:30:41 GMT-0500 (Central Daylight Time),687168.2000002861,092_m_m_n_a.png,O,m,805,14,1,1825.7000002861023,685342.5,7202,NNB,C,12
12,test,5,0.0,2-Back,1,m,Fri Sep 05 2025 13:30:41 GMT-0500 (Central Daylight Time),688984.8000001907,098_y_f_n_a.png,O,m,795,15,1,1808.9000000953674,687175.9000000954,7202,NNB,C,13
13,test,5,0.0,2-Back,1,m,Fri Sep 05 2025 13:30:41 GMT-0500 (Central Daylight Time),690784.7000002861,059_o_m_n_a.png,O,m,766,16,1,1793.5,688991.2000002861,7202,NNB,C,14
14,test,5,0.0,2-Back,1,m,Fri Sep 05 2025 13:30:41 GMT-0500 (Central Daylight Time),692533.5,006_m_f_n_a.png,O,m,725,17,1,1742.7999997138977,690790.7000002861,7202,NNB,C,15
15,test,5,1.0,2-Back,1,z,Fri Sep 05 2025 13:30:41 GMT-0500 (Central Daylight Time),694233.3000001907,059_o_m_n_a.png,O,z,678,18,1,1693.9000000953674,692539.4000000954,7202,NNB,C,16
