acc_sum,block,block_c,condition,correct,correct_response,datetime,endtime,flanker,jitter,project,response,response_test_buffer_response,response_test_target_response,response_time,response_time_test_buffer_response,response_time_test_target_response,row_sel,session_number,start_end,starttime,subject_id,target,task,task_vers,time_test_buffer,time_test_buffer_response,time_test_constants,time_test_flanker,time_test_jitter,time_test_logger,time_test_target,time_test_target_response,time_test_variables,trial
1,prac,1,inc,1,z,Thu Dec 04 2025 15:33:43 GMT-0500 (Eastern Standard Time),159241.40000009537,napkin,1100,I,z,,,1041,,,12,1,3449.9000000953674,155791.5,9035,friend,AF,C,,,,,,,,,,1
2,prac,1,con,1,m,Thu Dec 04 2025 15:33:43 GMT-0500 (Eastern Standard Time),162190.90000009537,remote,1000,I,m,,,620,,,7,1,2929.4000000953674,159261.5,9035,remote,AF,C,,,,,,,,,,2
3,prac,1,inc,1,z,Thu Dec 04 2025 15:33:43 GMT-0500 (Eastern Standard Time),165191.20000004768,film,900,I,z,,,794,,,14,1,2991.5999999046326,162199.60000014305,9035,hate,AF,C,,,,,,,,,,3
4,prac,1,inc,1,m,Thu Dec 04 2025 15:33:43 GMT-0500 (Eastern Standard Time),168274.29999995232,brutal,1100,I,m,,,667,,,8,1,3073.899999856949,165200.40000009537,9035,window,AF,C,,,,,,,,,,4
5,prac,1,inc,1,m,Thu Dec 04 2025 15:33:43 GMT-0500 (Eastern Standard Time),171424.40000009537,elated,900,I,m,,,937,,,6,1,3140.600000143051,168283.79999995232,9035,napkin,AF,C,,,,,,,,,,5
6,prac,1,con,1,z,Thu Dec 04 2025 15:33:43 GMT-0500 (Eastern Standard Time),173940.90000009537,elated,800,I,z,,,415,,,9,1,2506.2999999523163,171434.60000014305,9035,elated,AF,C,,,,,,,,,,6
7,prac,1,con,1,z,Thu Dec 04 2025 15:33:43 GMT-0500 (Eastern Standard Time),176674.29999995232,love,1000,I,z,,,416,,,11,1,2722.7999999523163,173951.5,9035,love,AF,C,,,,,,,,,,7
8,prac,1,con,1,m,Thu Dec 04 2025 15:33:43 GMT-0500 (Eastern Standard Time),179691.10000014305,bell,1000,I,m,,,708,,,3,1,3006.300000190735,176684.79999995232,9035,bell,AF,C,,,,,,,,,,8
9,prac,1,con,1,z,Thu Dec 04 2025 15:33:43 GMT-0500 (Eastern Standard Time),182457.79999995232,brutal,800,I,z,,,644,,,13,1,2748.5,179709.29999995232,9035,brutal,AF,C,,,,,,,,,,9
10,prac,1,inc,1,m,Thu Dec 04 2025 15:33:43 GMT-0500 (Eastern Standard Time),185307.10000014305,kind,900,I,m,,,625,,,2,1,2830.7000000476837,182476.40000009537,9035,rock,AF,C,,,,,,,,,,10
11,prac,1,inc,1,z,Thu Dec 04 2025 15:33:43 GMT-0500 (Eastern Standard Time),188141.0,rock,900,I,z,,,622,,,10,1,2826.5999999046326,185314.40000009537,9035,kind,AF,C,,,,,,,,,,11
12,prac,1,inc,1,m,Thu Dec 04 2025 15:33:43 GMT-0500 (Eastern Standard Time),191740.40000009537,hate,1100,I,m,,,1190,,,4,1,3590.600000143051,188149.79999995232,9035,film,AF,C,,,,,,,,,,12
13,prac,1,inc,1,z,Thu Dec 04 2025 15:33:43 GMT-0500 (Eastern Standard Time),194724.29999995232,window,1100,I,z,,,582,,,16,1,2977.5999999046326,191746.70000004768,9035,temper,AF,C,,,,,,,,,,13
14,prac,1,con,1,z,Thu Dec 04 2025 15:33:43 GMT-0500 (Eastern Standard Time),197624.40000009537,rage,1000,I,z,,,594,,,15,1,2890.0,194734.40000009537,9035,rage,AF,C,,,,,,,,,,14
15,prac,1,con,1,m,Thu Dec 04 2025 15:33:43 GMT-0500 (Eastern Standard Time),200307.79999995232,step,800,I,m,,,583,,,1,1,2674.399999856949,197633.40000009537,9035,step,AF,C,,,,,,,,,,15
16,prac,1,con,1,m,Thu Dec 04 2025 15:33:43 GMT-0500 (Eastern Standard Time),202824.20000004768,jacket,800,I,m,,,411,,,5,1,2506.5,200317.70000004768,9035,jacket,AF,C,,,,,,,,,,16
1,test,1,inc,1,z,Thu Dec 04 2025 15:33:43 GMT-0500 (Eastern Standard Time),225823.79999995232,step,800,I,z,z,None,555,355.0,200.0,45,1,1901.1999998092651,223922.60000014305,9035,hate,AF,C,217455,217455,215921,216739,215922,217822,217255,217255,217822,1
2,test,1,inc,1,z,Thu Dec 04 2025 15:33:43 GMT-0500 (Eastern Standard Time),228056.90000009537,window,1100,I,z,z,None,595,395.0,200.0,32,1,2226.600000143051,225830.29999995232,9035,friend,AF,C,219655,219655,217828,218939,217829,220055,219455,219455,220055,2
3,test,1,inc,1,m,Thu Dec 04 2025 15:33:43 GMT-0500 (Eastern Standard Time),230157.5,temper,1000,I,m,m,None,558,358.0,200.0,111,1,2094.2999999523163,228063.20000004768,9035,napkin,AF,C,221789,221789,220061,221073,220062,222156,221589,221589,222156,3
4,test,1,con,1,m,Thu Dec 04 2025 15:33:43 GMT-0500 (Eastern Standard Time),232440.79999995232,remote,1100,I,m,m,None,646,446.0,200.0,116,1,2273.399999856949,230167.40000009537,9035,remote,AF,C,223989,223989,222165,223272,222166,224439,223789,223789,224439,4
5,test,1,con,1,z,Thu Dec 04 2025 15:33:43 GMT-0500 (Eastern Standard Time),234174.20000004768,kind,800,I,z,z,None,389,190.0,199.0,9,1,1723.7000000476837,232450.5,9035,kind,AF,C,225972,225972,224449,225256,224449,226172,225773,225773,226172,5
6,test,1,inc,1,m,Thu Dec 04 2025 15:33:43 GMT-0500 (Eastern Standard Time),236190.70000004768,brutal,900,I,m,m,None,571,372.0,199.0,102,1,2001.7000000476837,234189.0,9035,jacket,AF,C,227806,227806,226187,227089,226188,228189,227606,227606,228189,6
7,test,1,inc,1,m,Thu Dec 04 2025 15:33:43 GMT-0500 (Eastern Standard Time),238224.20000004768,rage,800,I,m,m,None,686,487.0,199.0,77,1,2022.5,236201.70000004768,9035,rock,AF,C,229723,229723,228200,229006,228200,230222,229523,229523,230222,7
8,test,1,con,1,m,Thu Dec 04 2025 15:33:43 GMT-0500 (Eastern Standard Time),240257.60000014305,remote,900,I,m,m,None,586,387.0,199.0,114,1,2024.7000000476837,238232.90000009537,9035,remote,AF,C,231856,231856,230231,231139,230231,232256,231656,231656,232256,8
9,test,1,con,1,z,Thu Dec 04 2025 15:33:43 GMT-0500 (Eastern Standard Time),242274.20000004768,kind,1100,I,z,z,None,370,170.0,200.0,12,1,2005.4000000953674,240268.79999995232,9035,kind,AF,C,234089,234089,232267,233372,232267,234272,233889,233889,234272,9
9,test,1,inc,0,z,Thu Dec 04 2025 15:33:43 GMT-0500 (Eastern Standard Time),244140.79999995232,step,800,I,m,m,None,523,324.0,199.0,13,1,1857.1999998092651,242283.60000014305,9035,kind,AF,C,235806,235806,234282,235089,234282,236139,235606,235606,236139,10
10,test,1,inc,1,z,Thu Dec 04 2025 15:33:43 GMT-0500 (Eastern Standard Time),246357.5,film,1100,I,z,z,None,582,382.0,200.0,24,1,2204.0,244153.5,9035,love,AF,C,237973,237973,236151,237256,236152,238356,237772,237772,238356,11
11,test,1,inc,1,z,Thu Dec 04 2025 15:33:43 GMT-0500 (Eastern Standard Time),248307.5,step,800,I,z,z,None,601,401.0,200.0,53,1,1940.2000000476837,246367.29999995232,9035,rage,AF,C,239889,239889,238365,239173,238366,240306,239689,239689,240306,12
12,test,1,inc,1,m,Thu Dec 04 2025 15:33:43 GMT-0500 (Eastern Standard Time),250507.5,hate,1100,I,m,m,None,558,358.0,200.0,96,1,2191.2999999523163,248316.20000004768,9035,film,AF,C,242140,242140,240314,241423,240315,242506,241939,241939,242505,13
13,test,1,con,1,m,Thu Dec 04 2025 15:33:43 GMT-0500 (Eastern Standard Time),252690.90000009537,rock,1000,I,m,m,None,635,435.0,200.0,75,1,2174.0,250516.90000009537,9035,rock,AF,C,244240,244240,242515,243522,242515,244689,244039,244039,244689,14
14,test,1,con,1,z,Thu Dec 04 2025 15:33:43 GMT-0500 (Eastern Standard Time),254507.5,temper,900,I,z,z,None,375,176.0,199.0,58,1,1805.3999998569489,252702.10000014305,9035,temper,AF,C,246323,246323,244700,245606,244700,246506,246123,246123,246505,15
15,test,1,inc,1,z,Thu Dec 04 2025 15:33:43 GMT-0500 (Eastern Standard Time),256490.79999995232,jacket,800,I,z,z,None,626,427.0,199.0,37,1,1967.5999999046326,254523.20000004768,9035,brutal,AF,C,248056,248056,246521,247339,246522,248489,247856,247856,248489,16
16,test,1,con,1,m,Thu Dec 04 2025 15:33:43 GMT-0500 (Eastern Standard Time),258524.10000014305,jacket,900,I,m,m,None,592,392.0,200.0,98,1,2021.5,256502.60000014305,9035,jacket,AF,C,250123,250123,248501,249406,248501,250522,249922,249922,250522,17
17,test,1,con,1,m,Thu Dec 04 2025 15:33:43 GMT-0500 (Eastern Standard Time),260341.10000014305,step,800,I,m,m,None,482,283.0,199.0,65,1,1808.4000000953674,258532.70000004768,9035,step,AF,C,252056,252056,250531,251339,250531,252339,251856,251856,252339,18
18,test,1,inc,1,z,Thu Dec 04 2025 15:33:43 GMT-0500 (Eastern Standard Time),262440.7000000477,remote,1000,I,z,z,None,561,362.0,199.0,31,1,2092.4000000953674,260348.29999995232,9035,friend,AF,C,254073,254073,252346,253356,252347,254439,253873,253873,254439,19
19,test,1,con,1,z,Thu Dec 04 2025 15:33:43 GMT-0500 (Eastern Standard Time),264824.0,hate,1100,I,z,z,None,745,545.0,200.0,44,1,2375.399999856949,262448.60000014305,9035,hate,AF,C,256273,256273,254447,255556,254447,256822,256072,256072,256822,20
20,test,1,inc,1,z,Thu Dec 04 2025 15:33:43 GMT-0500 (Eastern Standard Time),267107.60000014305,remote,1000,I,z,z,None,734,535.0,199.0,7,1,2274.100000143051,264833.5,9035,elated,AF,C,258556,258556,256832,257839,256832,259106,258356,258356,259106,21
21,test,1,con,1,m,Thu Dec 04 2025 15:33:43 GMT-0500 (Eastern Standard Time),269040.7000000477,window,800,I,m,m,None,586,386.0,200.0,121,1,1921.5999999046326,267119.10000014305,9035,window,AF,C,260640,260640,259117,259923,259118,261039,260439,260439,261039,22
22,test,1,inc,1,z,Thu Dec 04 2025 15:33:43 GMT-0500 (Eastern Standard Time),271057.60000014305,rock,900,I,z,z,None,568,369.0,199.0,54,1,2007.8000001907349,269049.7999999523,9035,rage,AF,C,262673,262673,261048,261956,261048,263056,262473,262473,263056,23
23,test,1,con,1,z,Thu Dec 04 2025 15:33:43 GMT-0500 (Eastern Standard Time),273024.2000000477,rage,1000,I,z,z,None,421,221.0,200.0,51,1,1957.0,271067.2000000477,9035,rage,AF,C,264789,264790,263065,264073,263065,265022,264589,264589,265022,24
24,test,1,inc,1,z,Thu Dec 04 2025 15:33:43 GMT-0500 (Eastern Standard Time),275090.90000009537,napkin,900,I,z,z,None,618,419.0,199.0,38,1,2057.5,273033.40000009537,9035,brutal,AF,C,266656,266656,265031,265939,265032,267089,266456,266456,267089,25
25,test,1,con,1,z,Thu Dec 04 2025 15:33:43 GMT-0500 (Eastern Standard Time),277224.10000014305,hate,1000,I,z,z,None,595,396.0,199.0,43,1,2123.7000000476837,275100.40000009537,9035,hate,AF,C,268823,268823,267098,268106,267099,269222,268623,268623,269222,26
26,test,1,con,1,z,Thu Dec 04 2025 15:33:43 GMT-0500 (Eastern Standard Time),279207.5,kind,900,I,z,z,None,546,347.0,199.0,10,1,1974.2999999523163,277233.2000000477,9035,kind,AF,C,270856,270856,269231,270139,269232,271206,270656,270656,271205,27
27,test,1,con,1,z,Thu Dec 04 2025 15:33:43 GMT-0500 (Eastern Standard Time),281274.10000014305,brutal,1000,I,z,z,None,526,327.0,199.0,35,1,2058.2000000476837,279215.90000009537,9035,brutal,AF,C,272939,272939,271214,272223,271214,273272,272739,272739,273272,28
28,test,1,con,1,m,Thu Dec 04 2025 15:33:43 GMT-0500 (Eastern Standard Time),283057.40000009537,rock,800,I,m,m,None,435,236.0,199.0,73,1,1770.2000000476837,281287.2000000477,9035,rock,AF,C,274806,274806,273285,274089,273286,275056,274606,274606,275055,29
29,test,1,con,1,m,Thu Dec 04 2025 15:33:43 GMT-0500 (Eastern Standard Time),285324.10000014305,bell,1100,I,m,m,None,626,426.0,200.0,84,1,2257.800000190735,283066.2999999523,9035,bell,AF,C,276889,276889,275064,276172,275065,277322,276689,276689,277322,30
30,test,1,con,1,z,Thu Dec 04 2025 15:33:43 GMT-0500 (Eastern Standard Time),287223.90000009537,rage,800,I,z,z,None,562,363.0,199.0,49,1,1889.1000001430511,285334.7999999523,9035,rage,AF,C,278856,278856,277333,278139,277333,279222,278656,278656,279222,31
31,test,1,inc,1,m,Thu Dec 04 2025 15:33:43 GMT-0500 (Eastern Standard Time),289290.5,rage,800,I,m,m,None,725,526.0,199.0,69,1,2051.2999999523163,287239.2000000477,9035,step,AF,C,280756,280756,279237,280039,279238,281289,280556,280556,281288,32
32,test,1,inc,1,m,Thu Dec 04 2025 15:33:43 GMT-0500 (Eastern Standard Time),291590.60000014305,kind,900,I,m,m,None,862,663.0,199.0,86,1,2294.5,289296.10000014305,9035,bell,AF,C,282923,282923,281294,282206,281294,283589,282723,282723,283589,33
33,test,1,inc,1,z,Thu Dec 04 2025 15:33:43 GMT-0500 (Eastern Standard Time),293507.40000009537,jacket,800,I,z,z,None,566,367.0,199.0,29,1,1907.2000000476837,291600.2000000477,9035,friend,AF,C,285123,285123,283598,284406,283598,285506,284923,284923,285505,34
34,test,1,con,1,z,Thu Dec 04 2025 15:33:43 GMT-0500 (Eastern Standard Time),295590.60000014305,elated,1000,I,z,z,None,547,347.0,200.0,3,1,2069.100000143051,293521.5,9035,elated,AF,C,287239,287240,285520,286523,285520,287589,287039,287039,287589,35
35,test,1,inc,1,z,Thu Dec 04 2025 15:33:43 GMT-0500 (Eastern Standard Time),297807.40000009537,window,1100,I,z,z,None,571,372.0,199.0,8,1,2208.100000143051,295599.2999999523,9035,elated,AF,C,289423,289423,287597,288706,287598,289806,289223,289223,289805,36
36,test,1,con,1,m,Thu Dec 04 2025 15:33:43 GMT-0500 (Eastern Standard Time),300240.5,film,1100,I,m,m,None,786,586.0,200.0,92,1,2422.7999999523163,297817.7000000477,9035,film,AF,C,291639,291640,289816,290922,289816,292239,291439,291439,292239,37
37,test,1,inc,1,m,Thu Dec 04 2025 15:33:43 GMT-0500 (Eastern Standard Time),302390.7000000477,love,1000,I,m,m,None,614,414.0,200.0,79,1,2141.9000000953674,300248.7999999523,9035,rock,AF,C,293973,293973,292247,293256,292247,294389,293772,293772,294389,38
38,test,1,inc,1,z,Thu Dec 04 2025 15:33:43 GMT-0500 (Eastern Standard Time),304757.60000014305,remote,1000,I,z,z,None,830,631.0,199.0,63,1,2358.300000190735,302399.2999999523,9035,temper,AF,C,296123,296123,294397,295406,294398,296756,295923,295923,296756,39
39,test,1,con,1,m,Thu Dec 04 2025 15:33:43 GMT-0500 (Eastern Standard Time),306740.7000000477,remote,800,I,m,m,None,634,434.0,200.0,113,1,1974.7000000476837,304766.0,9035,remote,AF,C,298289,298289,296764,297573,296764,298739,298089,298089,298739,40
40,test,1,inc,1,z,Thu Dec 04 2025 15:33:43 GMT-0500 (Eastern Standard Time),308741.2000000477,rock,900,I,z,z,None,566,366.0,200.0,22,1,1986.2999999523163,306754.90000009537,9035,love,AF,C,300373,300373,298753,299656,298754,300739,300172,300172,300739,41
41,test,1,con,1,m,Thu Dec 04 2025 15:33:43 GMT-0500 (Eastern Standard Time),310607.5,jacket,800,I,m,m,None,521,322.0,199.0,97,1,1856.0,308751.5,9035,jacket,AF,C,302273,302273,300750,301556,300750,302606,302073,302073,302605,42
42,test,1,con,1,m,Thu Dec 04 2025 15:33:43 GMT-0500 (Eastern Standard Time),312890.7999999523,bell,900,I,m,m,None,826,627.0,199.0,82,1,2268.399999856949,310622.40000009537,9035,bell,AF,C,304256,304256,302620,303539,302622,304889,304056,304056,304889,43
43,test,1,inc,1,m,Thu Dec 04 2025 15:33:43 GMT-0500 (Eastern Standard Time),314907.2999999523,kind,900,I,m,m,None,575,376.0,199.0,70,1,2005.3999998569489,312901.90000009537,9035,step,AF,C,306523,306523,304900,305806,304900,306905,306323,306323,306905,44
44,test,1,inc,1,z,Thu Dec 04 2025 15:33:43 GMT-0500 (Eastern Standard Time),317357.40000009537,window,1100,I,z,z,None,808,608.0,200.0,40,1,2437.5,314919.90000009537,9035,brutal,AF,C,308739,308739,306918,308023,306918,309356,308539,308539,309355,45
45,test,1,con,1,z,Thu Dec 04 2025 15:33:43 GMT-0500 (Eastern Standard Time),319324.0,rage,900,I,z,z,None,525,325.0,200.0,50,1,1957.7999999523163,317366.2000000477,9035,rage,AF,C,310989,310989,309364,310273,309365,311322,310789,310789,311322,46
46,test,1,inc,1,z,Thu Dec 04 2025 15:33:43 GMT-0500 (Eastern Standard Time),321440.7000000477,rock,900,I,z,z,None,672,471.0,201.0,14,1,2106.5,319334.2000000477,9035,kind,AF,C,312956,312956,311332,312239,311332,313439,312755,312755,313439,47
47,test,1,con,1,z,Thu Dec 04 2025 15:33:43 GMT-0500 (Eastern Standard Time),323607.2000000477,temper,1000,I,z,z,None,630,430.0,200.0,59,1,2156.4000000953674,321450.7999999523,9035,temper,AF,C,315172,315173,313449,314456,313449,315605,314972,314972,315605,48
48,test,1,inc,1,m,Thu Dec 04 2025 15:33:43 GMT-0500 (Eastern Standard Time),325590.60000014305,kind,900,I,m,m,None,547,347.0,200.0,94,1,1974.3000001907349,323616.2999999523,9035,film,AF,C,317239,317239,315614,316523,315615,317589,317039,317039,317589,49
49,test,1,con,1,z,Thu Dec 04 2025 15:33:43 GMT-0500 (Eastern Standard Time),327723.90000009537,elated,800,I,z,z,None,790,591.0,199.0,1,1,2124.600000143051,325599.2999999523,9035,elated,AF,C,319123,319123,317597,318406,317598,319722,318923,318923,319722,50
50,test,1,inc,1,z,Thu Dec 04 2025 15:33:43 GMT-0500 (Eastern Standard Time),329674.10000014305,step,800,I,z,z,None,609,410.0,199.0,21,1,1942.2000000476837,327731.90000009537,9035,love,AF,C,321256,321256,319730,320539,319730,321672,321056,321056,321672,51
51,test,1,con,1,z,Thu Dec 04 2025 15:33:43 GMT-0500 (Eastern Standard Time),331824.10000014305,rage,1100,I,z,z,None,504,305.0,199.0,52,1,2142.300000190735,329681.7999999523,9035,rage,AF,C,323506,323506,321680,322789,321680,323822,323306,323306,323822,52
52,test,1,inc,1,z,Thu Dec 04 2025 15:33:43 GMT-0500 (Eastern Standard Time),333907.40000009537,napkin,900,I,z,z,None,634,434.0,200.0,62,1,2074.2999999523163,331833.10000014305,9035,temper,AF,C,325456,325456,323831,324739,323831,325905,325255,325255,325905,53
53,test,1,con,1,z,Thu Dec 04 2025 15:33:43 GMT-0500 (Eastern Standard Time),336007.40000009537,hate,900,I,z,z,None,663,463.0,200.0,42,1,2092.100000143051,333915.2999999523,9035,hate,AF,C,327539,327539,325913,326822,325914,328006,327339,327339,328005,54
54,test,1,inc,1,z,Thu Dec 04 2025 15:33:43 GMT-0500 (Eastern Standard Time),337941.2000000477,jacket,800,I,z,z,None,600,400.0,200.0,61,1,1924.5,336016.7000000477,9035,temper,AF,C,329539,329539,328015,328822,328015,329939,329339,329339,329939,55
55,test,1,con,1,z,Thu Dec 04 2025 15:33:43 GMT-0500 (Eastern Standard Time),340140.5,temper,1100,I,z,z,None,557,358.0,199.0,60,1,2191.2000000476837,337949.2999999523,9035,temper,AF,C,331772,331773,329947,331055,329948,332139,331573,331573,332139,56
56,test,1,con,1,m,Thu Dec 04 2025 15:33:43 GMT-0500 (Eastern Standard Time),342107.40000009537,step,900,I,m,m,None,525,326.0,199.0,66,1,1958.2999999523163,340149.10000014305,9035,step,AF,C,333773,333773,332147,333056,332147,334106,333573,333573,334105,57
57,test,1,con,1,m,Thu Dec 04 2025 15:33:43 GMT-0500 (Eastern Standard Time),343990.60000014305,film,800,I,m,m,None,547,347.0,200.0,89,1,1874.5,342116.10000014305,9035,film,AF,C,335639,335639,334114,334922,334114,335989,335439,335439,335989,58
58,test,1,inc,1,m,Thu Dec 04 2025 15:33:43 GMT-0500 (Eastern Standard Time),346407.10000014305,temper,1000,I,m,m,None,878,679.0,199.0,119,1,2407.300000190735,343999.7999999523,9035,remote,AF,C,337722,337723,335998,337006,335998,338405,337523,337523,338405,59
59,test,1,inc,1,z,Thu Dec 04 2025 15:33:43 GMT-0500 (Eastern Standard Time),348641.60000014305,film,1100,I,z,z,None,587,387.0,200.0,16,1,2229.100000143051,346412.5,9035,kind,AF,C,340239,340239,338411,339522,338411,340640,340039,340039,340640,60
60,test,1,inc,1,z,Thu Dec 04 2025 15:33:43 GMT-0500 (Eastern Standard Time),350807.2999999523,bell,1000,I,z,z,None,630,430.0,200.0,55,1,2159.699999809265,348647.60000014305,9035,rage,AF,C,342373,342373,340646,341655,340646,342806,342172,342172,342805,61
61,test,1,con,1,m,Thu Dec 04 2025 15:33:43 GMT-0500 (Eastern Standard Time),353057.40000009537,bell,1000,I,m,m,None,702,503.0,199.0,83,1,2235.2999999523163,350822.10000014305,9035,bell,AF,C,344539,344540,342820,343822,342821,345056,344339,344339,345055,62
61,test,1,inc,0,z,Thu Dec 04 2025 15:33:43 GMT-0500 (Eastern Standard Time),355007.2999999523,napkin,900,I,m,m,None,488,289.0,199.0,6,1,1934.5999999046326,353072.7000000477,9035,elated,AF,C,346706,346706,345071,345989,345072,347005,346506,346506,347005,63
62,test,1,con,1,z,Thu Dec 04 2025 15:33:43 GMT-0500 (Eastern Standard Time),357141.2000000477,brutal,900,I,z,z,None,700,500.0,200.0,34,1,2125.2999999523163,355015.90000009537,9035,brutal,AF,C,348639,348639,347014,347922,347014,349139,348439,348439,349139,64
63,test,1,con,1,z,Thu Dec 04 2025 15:33:43 GMT-0500 (Eastern Standard Time),359157.2999999523,love,1100,I,z,z,None,381,182.0,199.0,20,1,2006.8999998569489,357150.40000009537,9035,love,AF,C,350972,350972,349148,350256,349149,351155,350772,350773,351155,65
64,test,1,con,1,z,Thu Dec 04 2025 15:33:43 GMT-0500 (Eastern Standard Time),361440.7000000477,elated,1100,I,z,z,None,638,438.0,200.0,4,1,2275.2000000476837,359165.5,9035,elated,AF,C,352989,352989,351164,352272,351164,353439,352789,352789,353439,66
65,test,1,inc,1,m,Thu Dec 04 2025 15:33:43 GMT-0500 (Eastern Standard Time),363390.60000014305,elated,800,I,m,m,None,605,406.0,199.0,117,1,1940.1000001430511,361450.5,9035,remote,AF,C,354973,354973,353449,354256,353449,355389,354772,354773,355389,67
66,test,1,inc,1,z,Thu Dec 04 2025 15:33:43 GMT-0500 (Eastern Standard Time),365707.40000009537,film,1100,I,z,z,None,675,475.0,200.0,56,1,2308.7000000476837,363398.7000000477,9035,rage,AF,C,357222,357223,355397,356506,355397,357706,357022,357022,357705,68
67,test,1,inc,1,m,Thu Dec 04 2025 15:33:43 GMT-0500 (Eastern Standard Time),367541.0,elated,800,I,m,m,None,500,300.0,200.0,101,1,1823.5,365717.5,9035,jacket,AF,C,359239,359239,357716,358523,357716,359539,359039,359039,359539,69
68,test,1,con,1,z,Thu Dec 04 2025 15:33:43 GMT-0500 (Eastern Standard Time),369723.90000009537,brutal,1100,I,z,z,None,541,341.0,200.0,36,1,2175.0,367548.90000009537,9035,brutal,AF,C,361372,361373,359547,360656,359547,361722,361172,361172,361722,70
69,test,1,con,1,m,Thu Dec 04 2025 15:33:43 GMT-0500 (Eastern Standard Time),371707.2999999523,napkin,900,I,m,m,None,541,342.0,199.0,106,1,1973.6999998092651,369733.60000014305,9035,napkin,AF,C,363356,363356,361732,362639,361732,363705,363156,363156,363705,71
70,test,1,inc,1,z,Thu Dec 04 2025 15:33:43 GMT-0500 (Eastern Standard Time),373874.0,bell,1000,I,z,z,None,620,420.0,200.0,15,1,2157.5,371716.5,9035,kind,AF,C,365439,365439,363715,364722,363715,365872,365239,365239,365872,72
71,test,1,con,1,m,Thu Dec 04 2025 15:33:43 GMT-0500 (Eastern Standard Time),375973.7000000477,step,1000,I,m,m,None,563,364.0,199.0,67,1,2091.0,373882.7000000477,9035,step,AF,C,367606,367606,365881,366889,365881,367972,367406,367406,367972,73
72,test,1,inc,1,m,Thu Dec 04 2025 15:33:43 GMT-0500 (Eastern Standard Time),378007.2999999523,rage,800,I,m,m,None,695,496.0,199.0,93,1,2025.5,375981.7999999523,9035,film,AF,C,369506,369506,367980,368789,367980,370006,369306,369306,370005,74
73,test,1,con,1,m,Thu Dec 04 2025 15:33:43 GMT-0500 (Eastern Standard Time),380107.2999999523,rock,900,I,m,m,None,659,459.0,200.0,74,1,2085.5999999046326,378021.7000000477,9035,rock,AF,C,371639,371639,370020,370922,370020,372105,371439,371439,372105,75
74,test,1,inc,1,m,Thu Dec 04 2025 15:33:43 GMT-0500 (Eastern Standard Time),382140.7000000477,temper,1000,I,m,m,None,492,292.0,200.0,103,1,2024.5,380116.2000000477,9035,jacket,AF,C,373839,373839,372114,373122,372115,374139,373639,373639,374139,76
75,test,1,con,1,m,Thu Dec 04 2025 15:33:43 GMT-0500 (Eastern Standard Time),384123.7999999523,window,1000,I,m,m,None,440,241.0,199.0,123,1,1974.6999998092651,382149.10000014305,9035,window,AF,C,375872,375873,374147,375156,374147,376122,375673,375673,376122,77
76,test,1,con,1,z,Thu Dec 04 2025 15:33:43 GMT-0500 (Eastern Standard Time),386074.0,temper,800,I,z,z,None,609,410.0,199.0,57,1,1942.2000000476837,384131.7999999523,9035,temper,AF,C,377656,377656,376130,376939,376130,378072,377456,377456,378072,78
77,test,1,inc,1,m,Thu Dec 04 2025 15:33:43 GMT-0500 (Eastern Standard Time),388257.40000009537,hate,1100,I,m,m,None,536,337.0,199.0,80,1,2175.5,386081.90000009537,9035,rock,AF,C,379906,379906,378080,379189,378080,380255,379706,379706,380255,79
78,test,1,con,1,m,Thu Dec 04 2025 15:33:43 GMT-0500 (Eastern Standard Time),390407.2999999523,window,1100,I,m,m,None,514,314.0,200.0,124,1,2141.2999999523163,388266.0,9035,window,AF,C,382089,382089,380264,381372,380264,382405,381889,381889,382405,80
78,test,1,con,0,z,Thu Dec 04 2025 15:33:43 GMT-0500 (Eastern Standard Time),392307.40000009537,elated,900,I,m,m,None,451,251.0,200.0,2,1,1891.2000000476837,390416.2000000477,9035,elated,AF,C,384039,384039,382414,383322,382415,384305,383839,383839,384305,81
79,test,1,con,1,z,Thu Dec 04 2025 15:33:43 GMT-0500 (Eastern Standard Time),394340.7000000477,brutal,800,I,z,z,None,683,484.0,199.0,33,1,2024.4000000953674,392316.2999999523,9035,brutal,AF,C,385839,385839,384314,385122,384315,386339,385639,385639,386339,82
80,test,1,inc,1,m,Thu Dec 04 2025 15:33:43 GMT-0500 (Eastern Standard Time),396324.10000014305,kind,900,I,m,m,None,533,333.0,200.0,78,1,1974.4000000953674,394349.7000000477,9035,rock,AF,C,387973,387973,386348,387256,386348,388322,387772,387772,388322,83
81,test,1,inc,1,m,Thu Dec 04 2025 15:33:43 GMT-0500 (Eastern Standard Time),398540.7999999523,love,1000,I,m,m,None,657,458.0,199.0,95,1,2202.0,396338.7999999523,9035,film,AF,C,390073,390073,388337,389356,388338,390539,389873,389873,390539,84
82,test,1,inc,1,m,Thu Dec 04 2025 15:33:43 GMT-0500 (Eastern Standard Time),400907.0,friend,1100,I,m,m,None,726,526.0,200.0,120,1,2357.0999999046326,398549.90000009537,9035,remote,AF,C,392372,392372,390548,391655,390548,392905,392172,392172,392905,85
83,test,1,inc,1,z,Thu Dec 04 2025 15:33:43 GMT-0500 (Eastern Standard Time),403074.0,bell,1000,I,z,z,None,619,419.0,200.0,47,1,2161.7999999523163,400912.2000000477,9035,hate,AF,C,394639,394639,392910,393922,392910,395072,394439,394439,395072,86
84,test,1,con,1,m,Thu Dec 04 2025 15:33:43 GMT-0500 (Eastern Standard Time),405240.60000014305,jacket,1100,I,m,m,None,528,329.0,199.0,100,1,2158.100000143051,403082.5,9035,jacket,AF,C,396906,396906,395081,396189,395081,397239,396706,396706,397239,87
85,test,1,inc,1,m,Thu Dec 04 2025 15:33:43 GMT-0500 (Eastern Standard Time),407623.60000014305,friend,1100,I,m,m,None,745,545.0,200.0,104,1,2371.800000190735,405251.7999999523,9035,jacket,AF,C,399073,399073,397250,398356,397250,399622,398872,398872,399622,88
86,test,1,con,1,m,Thu Dec 04 2025 15:33:43 GMT-0500 (Eastern Standard Time),409507.2999999523,window,900,I,m,m,None,434,235.0,199.0,122,1,1878.2999999523163,407629.0,9035,window,AF,C,401255,401255,399627,400539,399627,401505,401056,401056,401505,89
87,test,1,inc,1,m,Thu Dec 04 2025 15:33:43 GMT-0500 (Eastern Standard Time),411507.2999999523,brutal,900,I,m,m,None,551,351.0,200.0,118,1,1991.0999999046326,409516.2000000477,9035,remote,AF,C,403139,403139,401514,402422,401514,403505,402939,402939,403505,90
88,test,1,con,1,m,Thu Dec 04 2025 15:33:43 GMT-0500 (Eastern Standard Time),413707.2999999523,rock,1100,I,m,m,None,559,359.0,200.0,76,1,2191.5,411515.7999999523,9035,rock,AF,C,405339,405339,403514,404622,403514,405705,405139,405139,405705,91
89,test,1,con,1,z,Thu Dec 04 2025 15:33:43 GMT-0500 (Eastern Standard Time),415474.10000014305,love,900,I,z,z,None,319,120.0,199.0,18,1,1755.9000000953674,413718.2000000477,9035,love,AF,C,407339,407339,405716,406622,405716,407472,407139,407139,407472,92
90,test,1,inc,1,z,Thu Dec 04 2025 15:33:43 GMT-0500 (Eastern Standard Time),417707.2999999523,film,1100,I,z,z,None,576,376.0,200.0,48,1,2217.699999809265,415489.60000014305,9035,hate,AF,C,409322,409322,407487,408605,407489,409705,409122,409122,409705,93
90,test,1,con,0,z,Thu Dec 04 2025 15:33:43 GMT-0500 (Eastern Standard Time),419590.40000009537,friend,900,I,m,m,None,429,230.0,199.0,26,1,1867.7000000476837,417722.7000000477,9035,friend,AF,C,411356,411356,409721,410639,409722,411589,411156,411156,411588,94
91,test,1,inc,1,z,Thu Dec 04 2025 15:33:43 GMT-0500 (Eastern Standard Time),421607.40000009537,napkin,900,I,z,z,None,579,380.0,199.0,30,1,2002.7999999523163,419604.60000014305,9035,friend,AF,C,413222,413222,411603,412505,411603,413605,413022,413023,413605,95
92,test,1,inc,1,z,Thu Dec 04 2025 15:33:43 GMT-0500 (Eastern Standard Time),423640.40000009537,jacket,800,I,z,z,None,695,495.0,200.0,5,1,2023.9000000953674,421616.5,9035,elated,AF,C,415139,415139,413615,414422,413615,415639,414939,414939,415638,96
93,test,1,inc,1,m,Thu Dec 04 2025 15:33:43 GMT-0500 (Eastern Standard Time),425590.7999999523,brutal,900,I,m,m,None,516,316.0,200.0,126,1,1941.7999999523163,423649.0,9035,window,AF,C,417272,417272,415647,416556,415647,417589,417072,417072,417589,97
94,test,1,inc,1,m,Thu Dec 04 2025 15:33:43 GMT-0500 (Eastern Standard Time),427457.2000000477,elated,800,I,m,m,None,519,319.0,200.0,125,1,1857.9000000953674,425599.2999999523,9035,window,AF,C,419122,419123,417597,418406,417598,419455,418922,418922,419455,98
95,test,1,inc,1,z,Thu Dec 04 2025 15:33:43 GMT-0500 (Eastern Standard Time),429524.0,remote,1000,I,z,z,None,499,300.0,199.0,39,1,2051.0,427473.0,9035,brutal,AF,C,421206,421206,419471,420489,419473,421522,421006,421006,421522,99
96,test,1,con,1,m,Thu Dec 04 2025 15:33:43 GMT-0500 (Eastern Standard Time),431723.7999999523,step,1100,I,m,m,None,558,359.0,199.0,68,1,2190.5,429533.2999999523,9035,step,AF,C,423355,423355,421531,422639,421532,423722,423156,423156,423722,100
97,test,1,con,1,m,Thu Dec 04 2025 15:33:43 GMT-0500 (Eastern Standard Time),433690.60000014305,bell,800,I,m,m,None,625,426.0,199.0,81,1,1957.8000001907349,431732.7999999523,9035,bell,AF,C,425256,425256,423731,424539,423731,425689,425056,425056,425689,101
97,test,1,inc,0,m,Thu Dec 04 2025 15:33:43 GMT-0500 (Eastern Standard Time),435990.40000009537,friend,1100,I,z,z,None,665,465.0,200.0,112,1,2291.9000000953674,433698.5,9035,napkin,AF,C,427522,427522,425697,426806,425697,427989,427322,427322,427988,102
98,test,1,inc,1,m,Thu Dec 04 2025 15:33:43 GMT-0500 (Eastern Standard Time),438457.10000014305,hate,1100,I,m,m,None,827,627.0,200.0,72,1,2458.7000000476837,435998.40000009537,9035,step,AF,C,429822,429823,427996,429106,427997,430455,429622,429622,430455,103
99,test,1,inc,1,m,Thu Dec 04 2025 15:33:43 GMT-0500 (Eastern Standard Time),440507.2000000477,love,1000,I,m,m,None,510,309.0,201.0,71,1,2041.2999999523163,438465.90000009537,9035,step,AF,C,432189,432189,430464,431472,430464,432505,431988,431988,432505,104
100,test,1,con,1,z,Thu Dec 04 2025 15:33:43 GMT-0500 (Eastern Standard Time),442390.5,love,1000,I,z,z,None,347,148.0,199.0,19,1,1874.0,440516.5,9035,love,AF,C,434239,434239,432515,433522,432515,434389,434039,434039,434388,105
101,test,1,con,1,m,Thu Dec 04 2025 15:33:43 GMT-0500 (Eastern Standard Time),444590.7999999523,film,1000,I,m,m,None,656,456.0,200.0,91,1,2191.2999999523163,442399.5,9035,film,AF,C,436122,436122,434398,435406,434398,436589,435922,435922,436589,106
101,test,1,con,0,z,Thu Dec 04 2025 15:33:43 GMT-0500 (Eastern Standard Time),446357.2000000477,friend,800,I,m,m,None,433,233.0,200.0,25,1,1756.0,444601.2000000477,9035,friend,AF,C,438122,438122,436599,437406,436600,438355,437922,437922,438355,107
102,test,1,inc,1,m,Thu Dec 04 2025 15:33:43 GMT-0500 (Eastern Standard Time),448340.7999999523,temper,1000,I,m,m,None,433,233.0,200.0,127,1,1975.7999999523163,446365.0,9035,window,AF,C,440089,440089,438363,439372,438363,440339,439889,439889,440339,108
103,test,1,inc,1,z,Thu Dec 04 2025 15:33:43 GMT-0500 (Eastern Standard Time),450523.90000009537,window,1100,I,z,z,None,543,343.0,200.0,64,1,2173.5,448350.40000009537,9035,temper,AF,C,442172,442172,440348,441456,440349,442522,441972,441972,442522,109
104,test,1,inc,1,m,Thu Dec 04 2025 15:33:43 GMT-0500 (Eastern Standard Time),452657.2999999523,love,1000,I,m,m,None,585,386.0,199.0,87,1,2123.699999809265,450533.60000014305,9035,bell,AF,C,444256,444256,442532,443539,442532,444655,444056,444056,444655,110
105,test,1,con,1,m,Thu Dec 04 2025 15:33:43 GMT-0500 (Eastern Standard Time),454857.2999999523,film,900,I,m,m,None,761,561.0,200.0,90,1,2191.7999999523163,452665.5,9035,film,AF,C,446289,446289,444664,445572,444664,446855,446089,446089,446855,111
106,test,1,con,1,z,Thu Dec 04 2025 15:33:43 GMT-0500 (Eastern Standard Time),456890.5,friend,1100,I,z,z,None,393,194.0,199.0,28,1,2024.5999999046326,454865.90000009537,9035,friend,AF,C,448689,448689,446864,447972,446864,448889,448489,448489,448889,112
107,test,1,con,1,m,Thu Dec 04 2025 15:33:43 GMT-0500 (Eastern Standard Time),459140.7000000477,remote,1000,I,m,m,None,700,500.0,200.0,115,1,2238.7000000476837,456902.0,9035,remote,AF,C,450622,450622,448900,449906,448900,451139,450422,450422,451139,113
108,test,1,con,1,z,Thu Dec 04 2025 15:33:43 GMT-0500 (Eastern Standard Time),461173.7999999523,kind,1000,I,z,z,None,499,299.0,200.0,11,1,2023.0999999046326,459150.7000000477,9035,kind,AF,C,452872,452872,451149,452156,451149,453172,452672,452672,453172,114
109,test,1,inc,1,z,Thu Dec 04 2025 15:33:43 GMT-0500 (Eastern Standard Time),463207.2000000477,rock,900,I,z,z,None,595,396.0,199.0,46,1,2025.5,461181.7000000477,9035,hate,AF,C,454806,454806,453180,454089,453180,455205,454606,454606,455205,115
110,test,1,con,1,z,Thu Dec 04 2025 15:33:43 GMT-0500 (Eastern Standard Time),464957.2000000477,hate,800,I,z,z,None,407,207.0,200.0,41,1,1740.7999999523163,463216.40000009537,9035,hate,AF,C,456739,456739,455214,456022,455215,456955,456539,456539,456955,116
111,test,1,inc,1,m,Thu Dec 04 2025 15:33:43 GMT-0500 (Eastern Standard Time),467140.60000014305,hate,1100,I,m,m,None,534,334.0,200.0,88,1,2174.0,464966.60000014305,9035,bell,AF,C,458789,458789,456965,458072,456965,459139,458589,458589,459139,117
112,test,1,inc,1,m,Thu Dec 04 2025 15:33:43 GMT-0500 (Eastern Standard Time),469240.60000014305,brutal,900,I,m,m,None,662,462.0,200.0,110,1,2088.800000190735,467151.7999999523,9035,napkin,AF,C,460772,460772,459150,460056,459150,461239,460572,460572,461239,118
113,test,1,inc,1,m,Thu Dec 04 2025 15:33:43 GMT-0500 (Eastern Standard Time),471123.90000009537,rage,800,I,m,m,None,534,334.0,200.0,85,1,1874.6000001430511,469249.2999999523,9035,bell,AF,C,462772,462772,461247,462056,461248,463122,462572,462572,463122,119
114,test,1,con,1,z,Thu Dec 04 2025 15:33:43 GMT-0500 (Eastern Standard Time),473223.60000014305,friend,1000,I,z,z,None,563,364.0,199.0,27,1,2091.4000000953674,471132.2000000477,9035,friend,AF,C,464856,464856,463130,464139,463131,465222,464656,464656,465222,120
115,test,1,inc,1,m,Thu Dec 04 2025 15:33:43 GMT-0500 (Eastern Standard Time),475440.5,friend,1100,I,m,m,None,569,370.0,199.0,128,1,2211.399999856949,473229.10000014305,9035,window,AF,C,467056,467056,465227,466339,465227,467439,466856,466856,467439,121
116,test,1,con,1,m,Thu Dec 04 2025 15:33:43 GMT-0500 (Eastern Standard Time),477624.0,jacket,1000,I,m,m,None,646,446.0,200.0,99,1,2172.899999856949,475451.10000014305,9035,jacket,AF,C,469172,469173,467449,468456,467449,469622,468972,468972,469622,122
117,test,1,inc,1,z,Thu Dec 04 2025 15:33:43 GMT-0500 (Eastern Standard Time),479740.5,bell,1000,I,z,z,None,590,391.0,199.0,23,1,2105.7000000476837,477634.7999999523,9035,love,AF,C,471339,471339,469633,470638,469633,471739,471139,471139,471739,123
118,test,1,con,1,z,Thu Dec 04 2025 15:33:43 GMT-0500 (Eastern Standard Time),481457.10000014305,love,800,I,z,z,None,370,170.0,200.0,17,1,1708.8000001907349,479748.2999999523,9035,love,AF,C,473272,473272,471746,472555,471747,473455,473072,473072,473455,124
119,test,1,con,1,m,Thu Dec 04 2025 15:33:43 GMT-0500 (Eastern Standard Time),483507.2000000477,napkin,1000,I,m,m,None,501,301.0,200.0,107,1,2041.4000000953674,481465.7999999523,9035,napkin,AF,C,475189,475189,473464,474472,473464,475505,474989,474989,475505,125
120,test,1,con,1,m,Thu Dec 04 2025 15:33:43 GMT-0500 (Eastern Standard Time),485590.2000000477,napkin,1100,I,m,m,None,447,247.0,200.0,108,1,2068.9000000953674,483521.2999999523,9035,napkin,AF,C,477339,477339,475519,476622,475520,477588,477139,477139,477588,126
121,test,1,con,1,m,Thu Dec 04 2025 15:33:43 GMT-0500 (Eastern Standard Time),487390.0,napkin,800,I,m,m,None,455,255.0,200.0,105,1,1785.5999999046326,485604.40000009537,9035,napkin,AF,C,479122,479122,477602,478405,477603,479388,478922,478922,479388,127
122,test,1,inc,1,m,Thu Dec 04 2025 15:33:43 GMT-0500 (Eastern Standard Time),489190.2999999523,elated,800,I,m,m,None,465,265.0,200.0,109,1,1794.7999999523163,487395.5,9035,napkin,AF,C,480922,480922,479394,480205,479394,481188,480722,480722,481188,128
