block_c,block_dur,condition,countdown,datetime,endtime,list,multichar_response,project,response,response_time,session_number,start_end,starttime,subject_id,task,task_vers,trial
,,,,Mon Jun 02 2025 15:18:07 GMT-0500 (Central Daylight Time),,,,O,space,1163,1,,,7155,WL,C,
prac,,0,,Mon Jun 02 2025 15:18:07 GMT-0500 (Central Daylight Time),,NA,b,O,b,6673,1,,,7155,WL,C,1.0
prac,,0,,Mon Jun 02 2025 15:18:07 GMT-0500 (Central Daylight Time),,NA,bo,O,o,153,1,,,7155,WL,C,1.0
prac,,0,,Mon Jun 02 2025 15:18:07 GMT-0500 (Central Daylight Time),,NA,boo,O,o,98,1,,,7155,WL,C,1.0
prac,,0,,Mon Jun 02 2025 15:18:07 GMT-0500 (Central Daylight Time),,NA,boos,O,s,262,1,,,7155,WL,C,1.0
prac,,0,,Mon Jun 02 2025 15:18:07 GMT-0500 (Central Daylight Time),,NA,boost,O,t,372,1,,,7155,WL,C,1.0
prac,,0,,Mon Jun 02 2025 15:18:07 GMT-0500 (Central Daylight Time),,NA,boostenter,O,enter,716,1,,,7155,WL,C,1.0
1,1.2160000801086426,learn,58783.99991989136,Mon Jun 02 2025 15:18:07 GMT-0500 (Central Daylight Time),256895.19999999925,A,t,O,t,1198,1,1215.8999999994412,255679.2999999998,7155,WL,C,1.0
1,1.4160001277923584,learn,58583.99987220764,Mon Jun 02 2025 15:18:07 GMT-0500 (Central Daylight Time),257095.09999999963,A,to,O,o,181,1,1415.7999999998137,255679.2999999998,7155,WL,C,1.0
1,1.6500000953674316,learn,58349.99990463257,Mon Jun 02 2025 15:18:07 GMT-0500 (Central Daylight Time),257328.39999999944,A,tow,O,w,213,1,1649.0999999996275,255679.2999999998,7155,WL,C,1.0
1,1.8989999294281006,learn,58101.0000705719,Mon Jun 02 2025 15:18:07 GMT-0500 (Central Daylight Time),257578.19999999925,A,towe,O,e,228,1,1898.8999999994412,255679.2999999998,7155,WL,C,1.0
1,1.999000072479248,learn,58000.99992752075,Mon Jun 02 2025 15:18:07 GMT-0500 (Central Daylight Time),257678.19999999925,A,tower,O,r,82,1,1998.8999999994412,255679.2999999998,7155,WL,C,1.0
1,2.9160001277923584,learn,57083.99987220764,Mon Jun 02 2025 15:18:07 GMT-0500 (Central Daylight Time),258594.69999999925,A,towerenter,O,enter,911,1,2915.399999999441,255679.2999999998,7155,WL,C,1.0
1,3.681999921798706,learn,56318.000078201294,Mon Jun 02 2025 15:18:07 GMT-0500 (Central Daylight Time),259360.7999999998,A,w,O,w,753,1,765.7000000001863,258595.09999999963,7155,WL,C,2.0
1,3.931999921798706,learn,56068.000078201294,Mon Jun 02 2025 15:18:07 GMT-0500 (Central Daylight Time),259610.7999999998,A,we,O,e,244,1,1015.7000000001863,258595.09999999963,7155,WL,C,2.0
1,4.631999969482422,learn,55368.00003051758,Mon Jun 02 2025 15:18:07 GMT-0500 (Central Daylight Time),260310.5,A,w,O,backspace,682,1,1715.4000000003725,258595.09999999963,7155,WL,C,2.0
1,5.465000152587891,learn,54534.99984741211,Mon Jun 02 2025 15:18:07 GMT-0500 (Central Daylight Time),261143.59999999963,A,wh,O,h,823,1,2548.5,258595.09999999963,7155,WL,C,2.0
1,5.614000082015991,learn,54385.99991798401,Mon Jun 02 2025 15:18:07 GMT-0500 (Central Daylight Time),261293.5,A,whe,O,e,133,1,2698.4000000003725,258595.09999999963,7155,WL,C,2.0
1,5.8480000495910645,learn,54151.999950408936,Mon Jun 02 2025 15:18:07 GMT-0500 (Central Daylight Time),261526.7999999998,A,whet,O,t,222,1,2931.7000000001863,258595.09999999963,7155,WL,C,2.0
1,6.697999954223633,learn,53302.00004577637,Mon Jun 02 2025 15:18:07 GMT-0500 (Central Daylight Time),262376.69999999925,A,whe,O,backspace,838,1,3781.5999999996275,258595.09999999963,7155,WL,C,2.0
1,7.13100004196167,learn,52868.99995803833,Mon Jun 02 2025 15:18:07 GMT-0500 (Central Daylight Time),262809.69999999925,A,whea,O,a,420,1,4214.5999999996275,258595.09999999963,7155,WL,C,2.0
1,7.3480000495910645,learn,52651.999950408936,Mon Jun 02 2025 15:18:07 GMT-0500 (Central Daylight Time),263026.5,A,wheat,O,t,196,1,4431.4000000003725,258595.09999999963,7155,WL,C,2.0
1,7.781000137329102,learn,52218.9998626709,Mon Jun 02 2025 15:18:07 GMT-0500 (Central Daylight Time),263459.7999999998,A,wheatenter,O,enter,418,1,4864.700000000186,258595.09999999963,7155,WL,C,2.0
1,8.38100004196167,learn,51618.99995803833,Mon Jun 02 2025 15:18:07 GMT-0500 (Central Daylight Time),264059.5,A,t,O,t,585,1,599.1000000005588,263460.39999999944,7155,WL,C,3.0
1,8.54699993133545,learn,51453.00006866455,Mon Jun 02 2025 15:18:07 GMT-0500 (Central Daylight Time),264226.2999999998,A,ta,O,a,146,1,765.9000000003725,263460.39999999944,7155,WL,C,3.0
1,8.763999938964844,learn,51236.000061035156,Mon Jun 02 2025 15:18:07 GMT-0500 (Central Daylight Time),264442.69999999925,A,tal,O,l,195,1,982.2999999998137,263460.39999999944,7155,WL,C,3.0
1,8.930000066757202,learn,51069.9999332428,Mon Jun 02 2025 15:18:07 GMT-0500 (Central Daylight Time),264609.2999999998,A,tall,O,l,147,1,1148.9000000003725,263460.39999999944,7155,WL,C,3.0
1,9.492000102996826,learn,50507.999897003174,Mon Jun 02 2025 15:18:07 GMT-0500 (Central Daylight Time),265170.69999999925,A,tallenter,O,enter,556,1,1710.2999999998137,263460.39999999944,7155,WL,C,3.0
1,11.52999997138977,learn,48470.00002861023,Mon Jun 02 2025 15:18:07 GMT-0500 (Central Daylight Time),267208.5,A,g,O,g,2018,1,2037.5,265171.0,7155,WL,C,4.0
1,11.92900013923645,learn,48070.99986076355,Mon Jun 02 2025 15:18:07 GMT-0500 (Central Daylight Time),267608.2999999998,A,gq,O,q,388,1,2437.2999999998137,265171.0,7155,WL,C,4.0
1,12.628999948501587,learn,47371.00005149841,Mon Jun 02 2025 15:18:07 GMT-0500 (Central Daylight Time),268308.19999999925,A,g,O,backspace,685,1,3137.199999999255,265171.0,7155,WL,C,4.0
1,12.845999956130981,learn,47154.00004386902,Mon Jun 02 2025 15:18:07 GMT-0500 (Central Daylight Time),268524.5999999996,A,,O,backspace,209,1,3353.5999999996275,265171.0,7155,WL,C,4.0
1,13.628999948501587,learn,46371.00005149841,Mon Jun 02 2025 15:18:07 GMT-0500 (Central Daylight Time),269307.69999999925,A,q,O,q,768,1,4136.699999999255,265171.0,7155,WL,C,4.0
1,13.796000003814697,learn,46203.9999961853,Mon Jun 02 2025 15:18:07 GMT-0500 (Central Daylight Time),269474.5999999996,A,qu,O,u,161,1,4303.5999999996275,265171.0,7155,WL,C,4.0
1,13.996000051498413,learn,46003.99994850159,Mon Jun 02 2025 15:18:07 GMT-0500 (Central Daylight Time),269674.5999999996,A,que,O,e,179,1,4503.5999999996275,265171.0,7155,WL,C,4.0
1,14.144999980926514,learn,45855.000019073486,Mon Jun 02 2025 15:18:07 GMT-0500 (Central Daylight Time),269824.2999999998,A,quee,O,e,138,1,4653.299999999814,265171.0,7155,WL,C,4.0
1,14.361999988555908,learn,45638.00001144409,Mon Jun 02 2025 15:18:07 GMT-0500 (Central Daylight Time),270040.89999999944,A,queen,O,n,205,1,4869.899999999441,265171.0,7155,WL,C,4.0
1,15.17799997329712,learn,44822.00002670288,Mon Jun 02 2025 15:18:07 GMT-0500 (Central Daylight Time),270857.2999999998,A,queenenter,O,enter,804,1,5686.299999999814,265171.0,7155,WL,C,4.0
1,16.062000036239624,learn,43937.999963760376,Mon Jun 02 2025 15:18:07 GMT-0500 (Central Daylight Time),271740.5,A,s,O,s,868,1,882.7000000001863,270857.7999999998,7155,WL,C,5.0
1,16.227999925613403,learn,43772.0000743866,Mon Jun 02 2025 15:18:07 GMT-0500 (Central Daylight Time),271906.7999999998,A,su,O,u,153,1,1049.0,270857.7999999998,7155,WL,C,5.0
1,16.411999940872192,learn,43588.00005912781,Mon Jun 02 2025 15:18:07 GMT-0500 (Central Daylight Time),272090.39999999944,A,sug,O,g,170,1,1232.5999999996275,270857.7999999998,7155,WL,C,5.0
1,16.628000020980835,learn,43371.999979019165,Mon Jun 02 2025 15:18:07 GMT-0500 (Central Daylight Time),272306.89999999944,A,suga,O,a,201,1,1449.0999999996275,270857.7999999998,7155,WL,C,5.0
1,16.844000101089478,learn,43155.99989891052,Mon Jun 02 2025 15:18:07 GMT-0500 (Central Daylight Time),272523.2999999998,A,sugar,O,r,202,1,1665.5,270857.7999999998,7155,WL,C,5.0
1,17.67799997329712,learn,42322.00002670288,Mon Jun 02 2025 15:18:07 GMT-0500 (Central Daylight Time),273356.5999999996,A,sugarenter,O,enter,826,1,2498.7999999998137,270857.7999999998,7155,WL,C,5.0
1,18.177000045776367,learn,41822.99995422363,Mon Jun 02 2025 15:18:07 GMT-0500 (Central Daylight Time),273856.39999999944,A,b,O,b,488,1,499.5,273356.89999999944,7155,WL,C,6.0
1,18.378000020980835,learn,41621.999979019165,Mon Jun 02 2025 15:18:07 GMT-0500 (Central Daylight Time),274056.5,A,bo,O,o,181,1,699.6000000005588,273356.89999999944,7155,WL,C,6.0
1,19.177000045776367,learn,40822.99995422363,Mon Jun 02 2025 15:18:07 GMT-0500 (Central Daylight Time),274856.0999999996,A,boy,O,y,781,1,1499.2000000001863,273356.89999999944,7155,WL,C,6.0
1,19.776999950408936,learn,40223.000049591064,Mon Jun 02 2025 15:18:07 GMT-0500 (Central Daylight Time),275456.0999999996,A,boyenter,O,enter,581,1,2099.2000000001863,273356.89999999944,7155,WL,C,6.0
1,20.3270001411438,learn,39672.9998588562,Mon Jun 02 2025 15:18:07 GMT-0500 (Central Daylight Time),276005.5,A,f,O,f,541,1,549.1000000005588,275456.39999999944,7155,WL,C,7.0
1,20.493000030517578,learn,39506.99996948242,Mon Jun 02 2025 15:18:07 GMT-0500 (Central Daylight Time),276172.19999999925,A,fl,O,l,152,1,715.7999999998137,275456.39999999944,7155,WL,C,7.0
1,20.710000038146973,learn,39289.99996185303,Mon Jun 02 2025 15:18:07 GMT-0500 (Central Daylight Time),276388.69999999925,A,fla,O,a,201,1,932.2999999998137,275456.39999999944,7155,WL,C,7.0
1,21.075999975204468,learn,38924.00002479553,Mon Jun 02 2025 15:18:07 GMT-0500 (Central Daylight Time),276755.19999999925,A,flag,O,g,361,1,1298.7999999998137,275456.39999999944,7155,WL,C,7.0
1,21.375999927520752,learn,38624.00007247925,Mon Jun 02 2025 15:18:07 GMT-0500 (Central Daylight Time),277055.2999999998,A,flagenter,O,enter,282,1,1598.9000000003725,275456.39999999944,7155,WL,C,7.0
1,21.926000118255615,learn,38073.999881744385,Mon Jun 02 2025 15:18:07 GMT-0500 (Central Daylight Time),277605.0999999996,A,d,O,d,534,1,549.2999999998137,277055.7999999998,7155,WL,C,8.0
1,22.70900011062622,learn,37290.99988937378,Mon Jun 02 2025 15:18:07 GMT-0500 (Central Daylight Time),278388.19999999925,A,do,O,o,768,1,1332.3999999994412,277055.7999999998,7155,WL,C,8.0
1,22.943000078201294,learn,37056.999921798706,Mon Jun 02 2025 15:18:07 GMT-0500 (Central Daylight Time),278621.5,A,doc,O,c,225,1,1565.7000000001863,277055.7999999998,7155,WL,C,8.0
1,23.193000078201294,learn,36806.999921798706,Mon Jun 02 2025 15:18:07 GMT-0500 (Central Daylight Time),278871.5,A,doct,O,t,232,1,1815.7000000001863,277055.7999999998,7155,WL,C,8.0
1,23.276000022888184,learn,36723.99997711182,Mon Jun 02 2025 15:18:07 GMT-0500 (Central Daylight Time),278954.5,A,docto,O,o,78,1,1898.7000000001863,277055.7999999998,7155,WL,C,8.0
1,23.426000118255615,learn,36573.999881744385,Mon Jun 02 2025 15:18:07 GMT-0500 (Central Daylight Time),279104.7999999998,A,doctor,O,r,131,1,2049.0,277055.7999999998,7155,WL,C,8.0
1,24.108999967575073,learn,35891.00003242493,Mon Jun 02 2025 15:18:07 GMT-0500 (Central Daylight Time),279787.69999999925,A,doctorenter,O,enter,677,1,2731.899999999441,277055.7999999998,7155,WL,C,8.0
1,25.45900011062622,learn,34540.99988937378,Mon Jun 02 2025 15:18:07 GMT-0500 (Central Daylight Time),281137.5999999996,A,c,O,c,1330,1,1349.5999999996275,279788.0,7155,WL,C,9.0
1,25.592000007629395,learn,34407.999992370605,Mon Jun 02 2025 15:18:07 GMT-0500 (Central Daylight Time),281270.69999999925,A,co,O,o,116,1,1482.699999999255,279788.0,7155,WL,C,9.0
1,25.79200005531311,learn,34207.99994468689,Mon Jun 02 2025 15:18:07 GMT-0500 (Central Daylight Time),281470.5,A,col,O,l,183,1,1682.5,279788.0,7155,WL,C,9.0
1,25.95799994468689,learn,34042.00005531311,Mon Jun 02 2025 15:18:07 GMT-0500 (Central Daylight Time),281637.2999999998,A,colo,O,o,151,1,1849.2999999998137,279788.0,7155,WL,C,9.0
1,26.125,learn,33875.0,Mon Jun 02 2025 15:18:07 GMT-0500 (Central Daylight Time),281804.0999999996,A,color,O,r,152,1,2016.0999999996275,279788.0,7155,WL,C,9.0
1,27.325000047683716,learn,32674.999952316284,Mon Jun 02 2025 15:18:07 GMT-0500 (Central Daylight Time),283003.5,A,colorenter,O,enter,1185,1,3215.5,279788.0,7155,WL,C,9.0
1,28.574000120162964,learn,31425.999879837036,Mon Jun 02 2025 15:18:07 GMT-0500 (Central Daylight Time),284253.0,A,c,O,c,1242,1,1249.2000000001863,283003.7999999998,7155,WL,C,10.0
1,28.69099998474121,learn,31309.00001525879,Mon Jun 02 2025 15:18:07 GMT-0500 (Central Daylight Time),284369.7999999998,A,co,O,o,96,1,1366.0,283003.7999999998,7155,WL,C,10.0
1,28.85700011253357,learn,31142.99988746643,Mon Jun 02 2025 15:18:07 GMT-0500 (Central Daylight Time),284536.19999999925,A,cor,O,r,155,1,1532.3999999994412,283003.7999999998,7155,WL,C,10.0
1,28.990999937057495,learn,31009.000062942505,Mon Jun 02 2025 15:18:07 GMT-0500 (Central Daylight Time),284669.5999999996,A,corn,O,n,117,1,1665.7999999998137,283003.7999999998,7155,WL,C,10.0
1,29.324000120162964,learn,30675.999879837036,Mon Jun 02 2025 15:18:07 GMT-0500 (Central Daylight Time),285002.89999999944,A,cornenter,O,enter,312,1,1999.0999999996275,283003.7999999998,7155,WL,C,10.0
1,30.157000064849854,learn,29842.999935150146,Mon Jun 02 2025 15:18:07 GMT-0500 (Central Daylight Time),285836.0,A,s,O,s,819,1,832.8000000007451,285003.19999999925,7155,WL,C,11.0
1,30.324000120162964,learn,29675.999879837036,Mon Jun 02 2025 15:18:07 GMT-0500 (Central Daylight Time),286002.5999999996,A,sh,O,h,154,1,999.4000000003725,285003.19999999925,7155,WL,C,11.0
1,30.506999969482422,learn,29493.000030517578,Mon Jun 02 2025 15:18:07 GMT-0500 (Central Daylight Time),286185.69999999925,A,sho,O,o,171,1,1182.5,285003.19999999925,7155,WL,C,11.0
1,30.740000009536743,learn,29259.999990463257,Mon Jun 02 2025 15:18:07 GMT-0500 (Central Daylight Time),286419.0999999996,A,shor,O,r,220,1,1415.9000000003725,285003.19999999925,7155,WL,C,11.0
1,30.907000064849854,learn,29092.999935150146,Mon Jun 02 2025 15:18:07 GMT-0500 (Central Daylight Time),286585.89999999944,A,shore,O,e,146,1,1582.7000000001863,285003.19999999925,7155,WL,C,11.0
1,31.17300009727478,learn,28826.99990272522,Mon Jun 02 2025 15:18:07 GMT-0500 (Central Daylight Time),286852.0999999996,A,shoreenter,O,enter,260,1,1848.9000000003725,285003.19999999925,7155,WL,C,11.0
1,31.555999994277954,learn,28444.000005722046,Mon Jun 02 2025 15:18:07 GMT-0500 (Central Daylight Time),287235.19999999925,A,b,O,b,377,1,382.79999999981374,286852.39999999944,7155,WL,C,12.0
1,31.706000089645386,learn,28293.999910354614,Mon Jun 02 2025 15:18:07 GMT-0500 (Central Daylight Time),287385.39999999944,A,bo,O,o,138,1,533.0,286852.39999999944,7155,WL,C,12.0
1,31.890000104904175,learn,28109.999895095825,Mon Jun 02 2025 15:18:07 GMT-0500 (Central Daylight Time),287568.69999999925,A,bod,O,d,164,1,716.2999999998137,286852.39999999944,7155,WL,C,12.0
1,32.02500009536743,learn,27974.99990463257,Mon Jun 02 2025 15:18:07 GMT-0500 (Central Daylight Time),287703.39999999944,A,body,O,y,117,1,851.0,286852.39999999944,7155,WL,C,12.0
1,32.623000144958496,learn,27376.999855041504,Mon Jun 02 2025 15:18:07 GMT-0500 (Central Daylight Time),288301.69999999925,A,bodyenter,O,enter,590,1,1449.2999999998137,286852.39999999944,7155,WL,C,12.0
1,33.217000007629395,learn,26782.999992370605,Mon Jun 02 2025 15:18:07 GMT-0500 (Central Daylight Time),288895.7999999998,A,n,O,n,572,1,593.7000000001863,288302.0999999996,7155,WL,C,13.0
1,33.32299995422363,learn,26677.000045776367,Mon Jun 02 2025 15:18:07 GMT-0500 (Central Daylight Time),289001.39999999944,A,na,O,a,93,1,699.2999999998137,288302.0999999996,7155,WL,C,13.0
1,33.48900008201599,learn,26510.99991798401,Mon Jun 02 2025 15:18:07 GMT-0500 (Central Daylight Time),289168.2999999998,A,nai,O,i,156,1,866.2000000001863,288302.0999999996,7155,WL,C,13.0
1,33.706000089645386,learn,26293.999910354614,Mon Jun 02 2025 15:18:07 GMT-0500 (Central Daylight Time),289384.69999999925,A,nail,O,l,205,1,1082.5999999996275,288302.0999999996,7155,WL,C,13.0
1,34.539000034332275,learn,25460.999965667725,Mon Jun 02 2025 15:18:07 GMT-0500 (Central Daylight Time),290218.0999999996,A,nailenter,O,enter,821,1,1916.0,288302.0999999996,7155,WL,C,13.0
1,44.43499994277954,learn,15565.000057220459,Mon Jun 02 2025 15:18:07 GMT-0500 (Central Daylight Time),300114.69999999925,A,s,O,s,9891,1,9896.199999999255,290218.5,7155,WL,C,14.0
1,44.568000078201294,learn,15431.999921798706,Mon Jun 02 2025 15:18:07 GMT-0500 (Central Daylight Time),300248.0999999996,A,sh,O,h,114,1,10029.599999999627,290218.5,7155,WL,C,14.0
1,44.71799993515015,learn,15282.000064849854,Mon Jun 02 2025 15:18:07 GMT-0500 (Central Daylight Time),300398.0,A,sho,O,o,134,1,10179.5,290218.5,7155,WL,C,14.0
1,44.91799998283386,learn,15082.000017166138,Mon Jun 02 2025 15:18:07 GMT-0500 (Central Daylight Time),300597.7999999998,A,shor,O,r,191,1,10379.299999999814,290218.5,7155,WL,C,14.0
1,45.03500008583069,learn,14964.999914169312,Mon Jun 02 2025 15:18:07 GMT-0500 (Central Daylight Time),300714.5999999996,A,shore,O,e,112,1,10496.099999999627,290218.5,7155,WL,C,14.0
1,45.45099997520447,learn,14549.000024795532,Mon Jun 02 2025 15:18:07 GMT-0500 (Central Daylight Time),301130.89999999944,A,shoreenter,O,enter,411,1,10912.399999999441,290218.5,7155,WL,C,14.0
1,54.098000049591064,learn,5901.999950408936,Mon Jun 02 2025 15:18:07 GMT-0500 (Central Daylight Time),309778.2999999998,A,enter,O,enter,8635,1,8647.100000000559,301131.19999999925,7155,WL,C,15.0
2,2.632999897003174,learn,57367.000102996826,Mon Jun 02 2025 15:18:07 GMT-0500 (Central Daylight Time),384788.2999999998,A,t,O,t,2619,1,2632.5,382155.7999999998,7155,WL,C,1.0
2,2.7829999923706055,learn,57217.000007629395,Mon Jun 02 2025 15:18:07 GMT-0500 (Central Daylight Time),384938.0,A,to,O,o,136,1,2782.2000000001863,382155.7999999998,7155,WL,C,1.0
2,2.982999801635742,learn,57017.00019836426,Mon Jun 02 2025 15:18:07 GMT-0500 (Central Daylight Time),385138.19999999925,A,tow,O,w,195,1,2982.399999999441,382155.7999999998,7155,WL,C,1.0
2,3.2659997940063477,learn,56734.00020599365,Mon Jun 02 2025 15:18:07 GMT-0500 (Central Daylight Time),385421.2999999998,A,towe,O,e,275,1,3265.5,382155.7999999998,7155,WL,C,1.0
2,3.3989999294281006,learn,56601.0000705719,Mon Jun 02 2025 15:18:07 GMT-0500 (Central Daylight Time),385554.39999999944,A,tower,O,r,128,1,3398.5999999996275,382155.7999999998,7155,WL,C,1.0
2,3.615999937057495,learn,56384.000062942505,Mon Jun 02 2025 15:18:07 GMT-0500 (Central Daylight Time),385770.7999999998,A,towerenter,O,enter,211,1,3615.0,382155.7999999998,7155,WL,C,1.0
2,4.265999794006348,learn,55734.00020599365,Mon Jun 02 2025 15:18:07 GMT-0500 (Central Daylight Time),386421.0,A,w,O,w,635,1,649.8000000007451,385771.19999999925,7155,WL,C,2.0
2,4.681999921798706,learn,55318.000078201294,Mon Jun 02 2025 15:18:07 GMT-0500 (Central Daylight Time),386837.5,A,wh,O,h,408,1,1066.300000000745,385771.19999999925,7155,WL,C,2.0
2,4.831999778747559,learn,55168.00022125244,Mon Jun 02 2025 15:18:07 GMT-0500 (Central Daylight Time),386987.19999999925,A,whe,O,e,144,1,1216.0,385771.19999999925,7155,WL,C,2.0
2,5.031999826431274,learn,54968.000173568726,Mon Jun 02 2025 15:18:07 GMT-0500 (Central Daylight Time),387187.0999999996,A,whea,O,a,194,1,1415.9000000003725,385771.19999999925,7155,WL,C,2.0
2,5.148999929428101,learn,54851.0000705719,Mon Jun 02 2025 15:18:07 GMT-0500 (Central Daylight Time),387304.0,A,wheat,O,t,98,1,1532.800000000745,385771.19999999925,7155,WL,C,2.0
2,5.664999961853027,learn,54335.00003814697,Mon Jun 02 2025 15:18:07 GMT-0500 (Central Daylight Time),387820.2999999998,A,wheatenter,O,enter,501,1,2049.100000000559,385771.19999999925,7155,WL,C,2.0
2,6.047999858856201,learn,53952.0001411438,Mon Jun 02 2025 15:18:07 GMT-0500 (Central Daylight Time),388203.69999999925,A,s,O,s,369,1,383.0,387820.69999999925,7155,WL,C,3.0
2,6.898000001907349,learn,53101.99999809265,Mon Jun 02 2025 15:18:07 GMT-0500 (Central Daylight Time),389053.39999999944,A,su,O,u,834,1,1232.7000000001863,387820.69999999925,7155,WL,C,3.0
2,7.130999803543091,learn,52869.00019645691,Mon Jun 02 2025 15:18:07 GMT-0500 (Central Daylight Time),389286.69999999925,A,sug,O,g,224,1,1466.0,387820.69999999925,7155,WL,C,3.0
2,7.31499981880188,learn,52685.00018119812,Mon Jun 02 2025 15:18:07 GMT-0500 (Central Daylight Time),389470.0,A,suga,O,a,167,1,1649.300000000745,387820.69999999925,7155,WL,C,3.0
2,7.430999994277954,learn,52569.000005722046,Mon Jun 02 2025 15:18:07 GMT-0500 (Central Daylight Time),389586.5999999996,A,sugar,O,r,111,1,1765.9000000003725,387820.69999999925,7155,WL,C,3.0
2,8.06499981880188,learn,51935.00018119812,Mon Jun 02 2025 15:18:07 GMT-0500 (Central Daylight Time),390220.0,A,sugarenter,O,enter,619,1,2399.300000000745,387820.69999999925,7155,WL,C,3.0
2,9.946999788284302,learn,50053.0002117157,Mon Jun 02 2025 15:18:07 GMT-0500 (Central Daylight Time),392102.5,A,b,O,b,1873,1,1882.2000000001863,390220.2999999998,7155,WL,C,4.0
2,10.080999851226807,learn,49919.00014877319,Mon Jun 02 2025 15:18:07 GMT-0500 (Central Daylight Time),392236.0,A,bo,O,o,119,1,2015.7000000001863,390220.2999999998,7155,WL,C,4.0
2,10.329999923706055,learn,49670.000076293945,Mon Jun 02 2025 15:18:07 GMT-0500 (Central Daylight Time),392485.5,A,boy,O,y,241,1,2265.2000000001863,390220.2999999998,7155,WL,C,4.0
2,10.729999780654907,learn,49270.00021934509,Mon Jun 02 2025 15:18:07 GMT-0500 (Central Daylight Time),392885.69999999925,A,boyenter,O,enter,384,1,2665.399999999441,390220.2999999998,7155,WL,C,4.0
2,11.562999963760376,learn,48437.000036239624,Mon Jun 02 2025 15:18:07 GMT-0500 (Central Daylight Time),393718.69999999925,A,h,O,h,824,1,832.6999999992549,392886.0,7155,WL,C,5.0
2,11.812999963760376,learn,48187.000036239624,Mon Jun 02 2025 15:18:07 GMT-0500 (Central Daylight Time),393968.5999999996,A,ho,O,o,238,1,1082.5999999996275,392886.0,7155,WL,C,5.0
2,12.196999788284302,learn,47803.0002117157,Mon Jun 02 2025 15:18:07 GMT-0500 (Central Daylight Time),394351.7999999998,A,hom,O,m,373,1,1465.7999999998137,392886.0,7155,WL,C,5.0
2,12.396999835968018,learn,47603.00016403198,Mon Jun 02 2025 15:18:07 GMT-0500 (Central Daylight Time),394551.7999999998,A,home,O,e,190,1,1665.7999999998137,392886.0,7155,WL,C,5.0
2,12.729999780654907,learn,47270.00021934509,Mon Jun 02 2025 15:18:07 GMT-0500 (Central Daylight Time),394885.0999999996,A,homeenter,O,enter,318,1,1999.0999999996275,392886.0,7155,WL,C,5.0
2,13.412999868392944,learn,46587.000131607056,Mon Jun 02 2025 15:18:07 GMT-0500 (Central Daylight Time),395568.19999999925,A,d,O,d,664,1,682.7999999998137,394885.39999999944,7155,WL,C,6.0
2,13.562999963760376,learn,46437.000036239624,Mon Jun 02 2025 15:18:07 GMT-0500 (Central Daylight Time),395718.0999999996,A,do,O,o,141,1,832.7000000001863,394885.39999999944,7155,WL,C,6.0
2,13.711999893188477,learn,46288.00010681152,Mon Jun 02 2025 15:18:07 GMT-0500 (Central Daylight Time),395867.7999999998,A,doc,O,c,143,1,982.4000000003725,394885.39999999944,7155,WL,C,6.0
2,13.928999900817871,learn,46071.00009918213,Mon Jun 02 2025 15:18:07 GMT-0500 (Central Daylight Time),396084.5999999996,A,doct,O,t,209,1,1199.2000000001863,394885.39999999944,7155,WL,C,6.0
2,14.046000003814697,learn,45953.9999961853,Mon Jun 02 2025 15:18:07 GMT-0500 (Central Daylight Time),396201.0999999996,A,docto,O,o,97,1,1315.7000000001863,394885.39999999944,7155,WL,C,6.0
2,14.145999908447266,learn,45854.000091552734,Mon Jun 02 2025 15:18:07 GMT-0500 (Central Daylight Time),396301.19999999925,A,doctor,O,r,84,1,1415.7999999998137,394885.39999999944,7155,WL,C,6.0
2,14.69599986076355,learn,45304.00013923645,Mon Jun 02 2025 15:18:07 GMT-0500 (Central Daylight Time),396851.0999999996,A,doctorenter,O,enter,536,1,1965.7000000001863,394885.39999999944,7155,WL,C,6.0
2,15.144999980926514,learn,44855.000019073486,Mon Jun 02 2025 15:18:07 GMT-0500 (Central Daylight Time),397300.69999999925,A,c,O,c,442,1,449.3999999994412,396851.2999999998,7155,WL,C,7.0
2,15.345999956130981,learn,44654.00004386902,Mon Jun 02 2025 15:18:07 GMT-0500 (Central Daylight Time),397500.7999999998,A,ca,O,a,185,1,649.5,396851.2999999998,7155,WL,C,7.0
2,15.444999933242798,learn,44555.0000667572,Mon Jun 02 2025 15:18:07 GMT-0500 (Central Daylight Time),397600.69999999925,A,cam,O,m,89,1,749.3999999994412,396851.2999999998,7155,WL,C,7.0
2,15.694999933242798,learn,44305.0000667572,Mon Jun 02 2025 15:18:07 GMT-0500 (Central Daylight Time),397850.5999999996,A,camp,O,p,237,1,999.2999999998137,396851.2999999998,7155,WL,C,7.0
2,16.411999940872192,learn,43588.00005912781,Mon Jun 02 2025 15:18:07 GMT-0500 (Central Daylight Time),398567.19999999925,A,campenter,O,enter,699,1,1715.8999999994412,396851.2999999998,7155,WL,C,7.0
2,17.277999877929688,learn,42722.00012207031,Mon Jun 02 2025 15:18:07 GMT-0500 (Central Daylight Time),399433.69999999925,A,f,O,f,846,1,866.1999999992549,398567.5,7155,WL,C,8.0
2,17.377999782562256,learn,42622.000217437744,Mon Jun 02 2025 15:18:07 GMT-0500 (Central Daylight Time),399533.39999999944,A,fl,O,l,84,1,965.8999999994412,398567.5,7155,WL,C,8.0
2,17.560999870300293,learn,42439.00012969971,Mon Jun 02 2025 15:18:07 GMT-0500 (Central Daylight Time),399716.69999999925,A,fla,O,a,168,1,1149.199999999255,398567.5,7155,WL,C,8.0
2,17.777999877929688,learn,42222.00012207031,Mon Jun 02 2025 15:18:07 GMT-0500 (Central Daylight Time),399933.5,A,flag,O,g,201,1,1366.0,398567.5,7155,WL,C,8.0
2,18.294999837875366,learn,41705.000162124634,Mon Jun 02 2025 15:18:07 GMT-0500 (Central Daylight Time),400450.0999999996,A,flagenter,O,enter,496,1,1882.5999999996275,398567.5,7155,WL,C,8.0
2,19.07799983024597,learn,40922.00016975403,Mon Jun 02 2025 15:18:07 GMT-0500 (Central Daylight Time),401233.0999999996,A,n,O,n,771,1,782.5999999996275,400450.5,7155,WL,C,9.0
2,19.227999925613403,learn,40772.0000743866,Mon Jun 02 2025 15:18:07 GMT-0500 (Central Daylight Time),401383.19999999925,A,na,O,a,132,1,932.6999999992549,400450.5,7155,WL,C,9.0
2,19.41100001335144,learn,40588.99998664856,Mon Jun 02 2025 15:18:07 GMT-0500 (Central Daylight Time),401566.19999999925,A,nai,O,i,166,1,1115.699999999255,400450.5,7155,WL,C,9.0
2,19.610999822616577,learn,40389.00017738342,Mon Jun 02 2025 15:18:07 GMT-0500 (Central Daylight Time),401766.0,A,nail,O,l,191,1,1315.5,400450.5,7155,WL,C,9.0
2,20.259999990463257,learn,39740.00000953674,Mon Jun 02 2025 15:18:07 GMT-0500 (Central Daylight Time),402415.7999999998,A,nailenter,O,enter,631,1,1965.2999999998137,400450.5,7155,WL,C,9.0
2,20.8439998626709,learn,39156.0001373291,Mon Jun 02 2025 15:18:07 GMT-0500 (Central Daylight Time),402999.0999999996,A,s,O,s,573,1,583.0,402416.0999999996,7155,WL,C,10.0
2,21.009999990463257,learn,38990.00000953674,Mon Jun 02 2025 15:18:07 GMT-0500 (Central Daylight Time),403165.69999999925,A,sh,O,h,150,1,749.5999999996275,402416.0999999996,7155,WL,C,10.0
2,21.143999814987183,learn,38856.00018501282,Mon Jun 02 2025 15:18:07 GMT-0500 (Central Daylight Time),403299.2999999998,A,sho,O,o,120,1,883.2000000001863,402416.0999999996,7155,WL,C,10.0
2,21.276999950408936,learn,38723.000049591064,Mon Jun 02 2025 15:18:07 GMT-0500 (Central Daylight Time),403432.19999999925,A,shor,O,r,114,1,1016.0999999996275,402416.0999999996,7155,WL,C,10.0
2,21.359999895095825,learn,38640.000104904175,Mon Jun 02 2025 15:18:07 GMT-0500 (Central Daylight Time),403515.5,A,shore,O,e,77,1,1099.4000000003725,402416.0999999996,7155,WL,C,10.0
2,21.72699999809265,learn,38273.00000190735,Mon Jun 02 2025 15:18:07 GMT-0500 (Central Daylight Time),403882.0999999996,A,shoreenter,O,enter,346,1,1466.0,402416.0999999996,7155,WL,C,10.0
2,23.242999792099,learn,36757.000207901,Mon Jun 02 2025 15:18:07 GMT-0500 (Central Daylight Time),405398.19999999925,A,b,O,b,1507,1,1515.699999999255,403882.5,7155,WL,C,11.0
2,23.376999855041504,learn,36623.000144958496,Mon Jun 02 2025 15:18:07 GMT-0500 (Central Daylight Time),405532.7999999998,A,bo,O,o,127,1,1650.2999999998137,403882.5,7155,WL,C,11.0
2,23.542999982833862,learn,36457.00001716614,Mon Jun 02 2025 15:18:07 GMT-0500 (Central Daylight Time),405698.19999999925,A,bod,O,d,161,1,1815.699999999255,403882.5,7155,WL,C,11.0
2,23.675999879837036,learn,36324.000120162964,Mon Jun 02 2025 15:18:07 GMT-0500 (Central Daylight Time),405831.39999999944,A,body,O,y,123,1,1948.8999999994412,403882.5,7155,WL,C,11.0
2,24.47599983215332,learn,35524.00016784668,Mon Jun 02 2025 15:18:07 GMT-0500 (Central Daylight Time),406630.89999999944,A,bodyenter,O,enter,790,1,2748.399999999441,403882.5,7155,WL,C,11.0
2,25.758999824523926,learn,34241.000175476074,Mon Jun 02 2025 15:18:07 GMT-0500 (Central Daylight Time),407914.0999999996,A,c,O,c,1268,1,1283.0,406631.0999999996,7155,WL,C,12.0
2,25.941999912261963,learn,34058.00008773804,Mon Jun 02 2025 15:18:07 GMT-0500 (Central Daylight Time),408097.39999999944,A,co,O,o,163,1,1466.2999999998137,406631.0999999996,7155,WL,C,12.0
2,26.20899987220764,learn,33791.00012779236,Mon Jun 02 2025 15:18:07 GMT-0500 (Central Daylight Time),408364.0999999996,A,cor,O,r,260,1,1733.0,406631.0999999996,7155,WL,C,12.0
2,26.375,learn,33625.0,Mon Jun 02 2025 15:18:07 GMT-0500 (Central Daylight Time),408530.69999999925,A,corn,O,n,161,1,1899.5999999996275,406631.0999999996,7155,WL,C,12.0
2,28.307999849319458,learn,31692.000150680542,Mon Jun 02 2025 15:18:07 GMT-0500 (Central Daylight Time),410463.39999999944,A,cornenter,O,enter,1923,1,3832.2999999998137,406631.0999999996,7155,WL,C,12.0
2,31.223999977111816,learn,28776.000022888184,Mon Jun 02 2025 15:18:07 GMT-0500 (Central Daylight Time),413379.0,A,c,O,c,2910,1,2915.2000000001863,410463.7999999998,7155,WL,C,13.0
2,31.45699977874756,learn,28543.00022125244,Mon Jun 02 2025 15:18:07 GMT-0500 (Central Daylight Time),413612.39999999944,A,ca,O,a,219,1,3148.5999999996275,410463.7999999998,7155,WL,C,13.0
2,31.60699987411499,learn,28393.00012588501,Mon Jun 02 2025 15:18:07 GMT-0500 (Central Daylight Time),413762.0999999996,A,cat,O,t,137,1,3298.2999999998137,410463.7999999998,7155,WL,C,13.0
2,31.789999961853027,learn,28210.000038146973,Mon Jun 02 2025 15:18:07 GMT-0500 (Central Daylight Time),413945.5999999996,A,catt,O,t,171,1,3481.7999999998137,410463.7999999998,7155,WL,C,13.0
2,32.10699987411499,learn,27893.00012588501,Mon Jun 02 2025 15:18:07 GMT-0500 (Central Daylight Time),414262.19999999925,A,cattl,O,l,308,1,3798.399999999441,410463.7999999998,7155,WL,C,13.0
2,32.2739999294281,learn,27726.0000705719,Mon Jun 02 2025 15:18:07 GMT-0500 (Central Daylight Time),414428.7999999998,A,cattle,O,e,159,1,3965.0,410463.7999999998,7155,WL,C,13.0
2,32.472999811172485,learn,27527.000188827515,Mon Jun 02 2025 15:18:07 GMT-0500 (Central Daylight Time),414628.7999999998,A,cattleenter,O,enter,192,1,4165.0,410463.7999999998,7155,WL,C,13.0
2,42.15299987792969,learn,17847.000122070312,Mon Jun 02 2025 15:18:07 GMT-0500 (Central Daylight Time),424309.0999999996,A,c,O,c,9673,1,9680.0,414629.0999999996,7155,WL,C,14.0
2,42.3529999256134,learn,17647.000074386597,Mon Jun 02 2025 15:18:07 GMT-0500 (Central Daylight Time),424508.89999999944,A,ca,O,a,184,1,9879.799999999814,414629.0999999996,7155,WL,C,14.0
2,42.48599982261658,learn,17514.000177383423,Mon Jun 02 2025 15:18:07 GMT-0500 (Central Daylight Time),424642.19999999925,A,cam,O,m,129,1,10013.099999999627,414629.0999999996,7155,WL,C,14.0
2,42.73599982261658,learn,17264.000177383423,Mon Jun 02 2025 15:18:07 GMT-0500 (Central Daylight Time),424892.19999999925,A,camp,O,p,243,1,10263.099999999627,414629.0999999996,7155,WL,C,14.0
2,43.51899981498718,learn,16481.000185012817,Mon Jun 02 2025 15:18:07 GMT-0500 (Central Daylight Time),425675.2999999998,A,campenter,O,enter,777,1,11046.200000000186,414629.0999999996,7155,WL,C,14.0
2,46.80199980735779,learn,13198.000192642212,Mon Jun 02 2025 15:18:07 GMT-0500 (Central Daylight Time),428957.5999999996,A,n,O,n,3275,1,3282.2000000001863,425675.39999999944,7155,WL,C,15.0
2,46.984999895095825,learn,13015.000104904175,Mon Jun 02 2025 15:18:07 GMT-0500 (Central Daylight Time),429140.7999999998,A,na,O,a,175,1,3465.4000000003725,425675.39999999944,7155,WL,C,15.0
2,47.11899995803833,learn,12881.00004196167,Mon Jun 02 2025 15:18:07 GMT-0500 (Central Daylight Time),429274.39999999944,A,nai,O,i,113,1,3599.0,425675.39999999944,7155,WL,C,15.0
2,47.334999799728394,learn,12665.000200271606,Mon Jun 02 2025 15:18:07 GMT-0500 (Central Daylight Time),429490.69999999925,A,nail,O,l,211,1,3815.2999999998137,425675.39999999944,7155,WL,C,15.0
2,47.68499994277954,learn,12315.000057220459,Mon Jun 02 2025 15:18:07 GMT-0500 (Central Daylight Time),429840.5,A,nailenter,O,enter,339,1,4165.100000000559,425675.39999999944,7155,WL,C,15.0
3,0.8489999771118164,learn,59151.00002288818,Mon Jun 02 2025 15:18:07 GMT-0500 (Central Daylight Time),507449.5,A,t,O,t,830,1,849.4000000003725,506600.0999999996,7155,WL,C,1.0
3,0.998999834060669,learn,59001.00016593933,Mon Jun 02 2025 15:18:07 GMT-0500 (Central Daylight Time),507599.5999999996,A,to,O,o,132,1,999.5,506600.0999999996,7155,WL,C,1.0
3,1.1989998817443848,learn,58801.000118255615,Mon Jun 02 2025 15:18:07 GMT-0500 (Central Daylight Time),507799.5,A,tow,O,w,190,1,1199.4000000003725,506600.0999999996,7155,WL,C,1.0
3,1.2659997940063477,learn,58734.00020599365,Mon Jun 02 2025 15:18:07 GMT-0500 (Central Daylight Time),507866.5,A,towe,O,e,54,1,1266.4000000003725,506600.0999999996,7155,WL,C,1.0
3,1.4489998817443848,learn,58551.000118255615,Mon Jun 02 2025 15:18:07 GMT-0500 (Central Daylight Time),508049.39999999944,A,tower,O,r,171,1,1449.2999999998137,506600.0999999996,7155,WL,C,1.0
3,1.9819998741149902,learn,58018.00012588501,Mon Jun 02 2025 15:18:07 GMT-0500 (Central Daylight Time),508582.5,A,towerenter,O,enter,524,1,1982.4000000003725,506600.0999999996,7155,WL,C,1.0
3,2.748999834060669,learn,57251.00016593933,Mon Jun 02 2025 15:18:07 GMT-0500 (Central Daylight Time),509349.0,A,w,O,w,751,1,766.1000000005588,508582.89999999944,7155,WL,C,2.0
3,3.0159997940063477,learn,56984.00020599365,Mon Jun 02 2025 15:18:07 GMT-0500 (Central Daylight Time),509616.69999999925,A,wh,O,h,256,1,1033.7999999998137,508582.89999999944,7155,WL,C,2.0
3,3.1649999618530273,learn,56835.00003814697,Mon Jun 02 2025 15:18:07 GMT-0500 (Central Daylight Time),509765.39999999944,A,whe,O,e,133,1,1182.5,508582.89999999944,7155,WL,C,2.0
3,3.7649998664855957,learn,56235.000133514404,Mon Jun 02 2025 15:18:07 GMT-0500 (Central Daylight Time),510365.7999999998,A,whea,O,a,584,1,1782.9000000003725,508582.89999999944,7155,WL,C,2.0
3,3.9149999618530273,learn,56085.00003814697,Mon Jun 02 2025 15:18:07 GMT-0500 (Central Daylight Time),510515.19999999925,A,wheat,O,t,144,1,1932.2999999998137,508582.89999999944,7155,WL,C,2.0
3,4.48199987411499,learn,55518.00012588501,Mon Jun 02 2025 15:18:07 GMT-0500 (Central Daylight Time),511082.0999999996,A,wheatenter,O,enter,546,1,2499.2000000001863,508582.89999999944,7155,WL,C,2.0
3,5.080999851226807,learn,54919.00014877319,Mon Jun 02 2025 15:18:07 GMT-0500 (Central Daylight Time),511681.5,A,q,O,q,587,1,598.9000000003725,511082.5999999996,7155,WL,C,3.0
3,5.297999858856201,learn,54702.0001411438,Mon Jun 02 2025 15:18:07 GMT-0500 (Central Daylight Time),511898.2999999998,A,qu,O,u,204,1,815.7000000001863,511082.5999999996,7155,WL,C,3.0
3,5.497999906539917,learn,54502.00009346008,Mon Jun 02 2025 15:18:07 GMT-0500 (Central Daylight Time),512098.39999999944,A,que,O,e,195,1,1015.7999999998137,511082.5999999996,7155,WL,C,3.0
3,5.697999954223633,learn,54302.00004577637,Mon Jun 02 2025 15:18:07 GMT-0500 (Central Daylight Time),512298.19999999925,A,quee,O,e,195,1,1215.5999999996275,511082.5999999996,7155,WL,C,3.0
3,6.113999843597412,learn,53886.00015640259,Mon Jun 02 2025 15:18:07 GMT-0500 (Central Daylight Time),512714.5,A,queen,O,n,412,1,1631.9000000003725,511082.5999999996,7155,WL,C,3.0
3,6.56499981880188,learn,53435.00018119812,Mon Jun 02 2025 15:18:07 GMT-0500 (Central Daylight Time),513165.7999999998,A,queenenter,O,enter,435,1,2083.2000000001863,511082.5999999996,7155,WL,C,3.0
3,6.929999828338623,learn,53070.00017166138,Mon Jun 02 2025 15:18:07 GMT-0500 (Central Daylight Time),513530.7999999998,A,s,O,s,360,1,364.70000000018626,513166.0999999996,7155,WL,C,4.0
3,7.096999883651733,learn,52903.00011634827,Mon Jun 02 2025 15:18:07 GMT-0500 (Central Daylight Time),513697.5,A,su,O,u,155,1,531.4000000003725,513166.0999999996,7155,WL,C,4.0
3,7.296999931335449,learn,52703.00006866455,Mon Jun 02 2025 15:18:07 GMT-0500 (Central Daylight Time),513897.69999999925,A,sug,O,g,188,1,731.5999999996275,513166.0999999996,7155,WL,C,4.0
3,7.563999891281128,learn,52436.00010871887,Mon Jun 02 2025 15:18:07 GMT-0500 (Central Daylight Time),514164.0999999996,A,suga,O,a,252,1,998.0,513166.0999999996,7155,WL,C,4.0
3,8.04699993133545,learn,51953.00006866455,Mon Jun 02 2025 15:18:07 GMT-0500 (Central Daylight Time),514647.39999999944,A,sugar,O,r,474,1,1481.2999999998137,513166.0999999996,7155,WL,C,4.0
3,8.679999828338623,learn,51320.00017166138,Mon Jun 02 2025 15:18:07 GMT-0500 (Central Daylight Time),515280.5999999996,A,sugarenter,O,enter,614,1,2114.5,513166.0999999996,7155,WL,C,4.0
3,9.479999780654907,learn,50520.00021934509,Mon Jun 02 2025 15:18:07 GMT-0500 (Central Daylight Time),516080.0,A,h,O,h,781,1,799.0,515281.0,7155,WL,C,5.0
3,9.61299991607666,learn,50387.00008392334,Mon Jun 02 2025 15:18:07 GMT-0500 (Central Daylight Time),516213.5,A,ho,O,o,117,1,932.5,515281.0,7155,WL,C,5.0
3,9.812999963760376,learn,50187.000036239624,Mon Jun 02 2025 15:18:07 GMT-0500 (Central Daylight Time),516413.5,A,hom,O,m,192,1,1132.5,515281.0,7155,WL,C,5.0
3,9.995999813079834,learn,50004.000186920166,Mon Jun 02 2025 15:18:07 GMT-0500 (Central Daylight Time),516596.7999999998,A,home,O,e,168,1,1315.7999999998137,515281.0,7155,WL,C,5.0
3,10.479999780654907,learn,49520.00021934509,Mon Jun 02 2025 15:18:07 GMT-0500 (Central Daylight Time),517080.0999999996,A,homeenter,O,enter,473,1,1799.0999999996275,515281.0,7155,WL,C,5.0
3,10.845999956130981,learn,49154.00004386902,Mon Jun 02 2025 15:18:07 GMT-0500 (Central Daylight Time),517446.0999999996,A,b,O,b,357,1,365.59999999962747,517080.5,7155,WL,C,6.0
3,10.978999853134155,learn,49021.000146865845,Mon Jun 02 2025 15:18:07 GMT-0500 (Central Daylight Time),517579.69999999925,A,bo,O,o,127,1,499.19999999925494,517080.5,7155,WL,C,6.0
3,11.245999813079834,learn,48754.000186920166,Mon Jun 02 2025 15:18:07 GMT-0500 (Central Daylight Time),517846.19999999925,A,boy,O,y,250,1,765.6999999992549,517080.5,7155,WL,C,6.0
3,11.878999948501587,learn,48121.00005149841,Mon Jun 02 2025 15:18:07 GMT-0500 (Central Daylight Time),518479.39999999944,A,boyenter,O,enter,615,1,1398.8999999994412,517080.5,7155,WL,C,6.0
3,12.411999940872192,learn,47588.00005912781,Mon Jun 02 2025 15:18:07 GMT-0500 (Central Daylight Time),519012.5999999996,A,d,O,d,525,1,532.7000000001863,518479.89999999944,7155,WL,C,7.0
3,12.561999797821045,learn,47438.000202178955,Mon Jun 02 2025 15:18:07 GMT-0500 (Central Daylight Time),519162.5999999996,A,do,O,o,128,1,682.7000000001863,518479.89999999944,7155,WL,C,7.0
3,12.69599986076355,learn,47304.00013923645,Mon Jun 02 2025 15:18:07 GMT-0500 (Central Daylight Time),519295.89999999944,A,doc,O,c,123,1,816.0,518479.89999999944,7155,WL,C,7.0
3,12.895999908447266,learn,47104.000091552734,Mon Jun 02 2025 15:18:07 GMT-0500 (Central Daylight Time),519495.7999999998,A,doct,O,t,190,1,1015.9000000003725,518479.89999999944,7155,WL,C,7.0
3,12.994999885559082,learn,47005.00011444092,Mon Jun 02 2025 15:18:07 GMT-0500 (Central Daylight Time),519595.69999999925,A,docto,O,o,86,1,1115.7999999998137,518479.89999999944,7155,WL,C,7.0
3,13.128999948501587,learn,46871.00005149841,Mon Jun 02 2025 15:18:07 GMT-0500 (Central Daylight Time),519729.0999999996,A,doctor,O,r,122,1,1249.2000000001863,518479.89999999944,7155,WL,C,7.0
3,13.461999893188477,learn,46538.00010681152,Mon Jun 02 2025 15:18:07 GMT-0500 (Central Daylight Time),520062.0999999996,A,doctorenter,O,enter,316,1,1582.2000000001863,518479.89999999944,7155,WL,C,7.0
3,13.877999782562256,learn,46122.000217437744,Mon Jun 02 2025 15:18:07 GMT-0500 (Central Daylight Time),520478.5999999996,A,c,O,c,399,1,416.09999999962747,520062.5,7155,WL,C,8.0
3,14.061999797821045,learn,45938.000202178955,Mon Jun 02 2025 15:18:07 GMT-0500 (Central Daylight Time),520662.19999999925,A,ca,O,a,167,1,599.6999999992549,520062.5,7155,WL,C,8.0
3,14.144999980926514,learn,45855.000019073486,Mon Jun 02 2025 15:18:07 GMT-0500 (Central Daylight Time),520745.39999999944,A,cam,O,m,71,1,682.8999999994412,520062.5,7155,WL,C,8.0
3,14.377999782562256,learn,45622.000217437744,Mon Jun 02 2025 15:18:07 GMT-0500 (Central Daylight Time),520978.7999999998,A,camp,O,p,212,1,916.2999999998137,520062.5,7155,WL,C,8.0
3,15.944999933242798,learn,44055.0000667572,Mon Jun 02 2025 15:18:07 GMT-0500 (Central Daylight Time),522545.0,A,campenter,O,enter,1555,1,2482.5,520062.5,7155,WL,C,8.0
3,16.610999822616577,learn,43389.00017738342,Mon Jun 02 2025 15:18:07 GMT-0500 (Central Daylight Time),523211.0999999996,A,f,O,f,661,1,665.7999999998137,522545.2999999998,7155,WL,C,9.0
3,16.893999814987183,learn,43106.00018501282,Mon Jun 02 2025 15:18:07 GMT-0500 (Central Daylight Time),523494.5999999996,A,fl,O,l,274,1,949.2999999998137,522545.2999999998,7155,WL,C,9.0
3,17.060999870300293,learn,42939.00012969971,Mon Jun 02 2025 15:18:07 GMT-0500 (Central Daylight Time),523661.0999999996,A,fla,O,a,151,1,1115.7999999998137,522545.2999999998,7155,WL,C,9.0
3,17.526999950408936,learn,42473.000049591064,Mon Jun 02 2025 15:18:07 GMT-0500 (Central Daylight Time),524127.5999999996,A,flag,O,g,448,1,1582.2999999998137,522545.2999999998,7155,WL,C,9.0
3,17.99399995803833,learn,42006.00004196167,Mon Jun 02 2025 15:18:07 GMT-0500 (Central Daylight Time),524594.0,A,flagenter,O,enter,446,1,2048.7000000001863,522545.2999999998,7155,WL,C,9.0
3,18.47699999809265,learn,41523.00000190735,Mon Jun 02 2025 15:18:07 GMT-0500 (Central Daylight Time),525077.2999999998,A,n,O,n,476,1,483.1000000005588,524594.1999999993,7155,WL,C,10.0
3,18.626999855041504,learn,41373.000144958496,Mon Jun 02 2025 15:18:07 GMT-0500 (Central Daylight Time),525227.3999999994,A,na,O,a,136,1,633.2000000001863,524594.1999999993,7155,WL,C,10.0
3,18.793999910354614,learn,41206.000089645386,Mon Jun 02 2025 15:18:07 GMT-0500 (Central Daylight Time),525393.8999999994,A,nai,O,i,146,1,799.7000000001863,524594.1999999993,7155,WL,C,10.0
3,18.99399995803833,learn,41006.00004196167,Mon Jun 02 2025 15:18:07 GMT-0500 (Central Daylight Time),525594.1999999993,A,nail,O,l,180,1,1000.0,524594.1999999993,7155,WL,C,10.0
3,19.40999984741211,learn,40590.00015258789,Mon Jun 02 2025 15:18:07 GMT-0500 (Central Daylight Time),526010.6999999993,A,nailenter,O,enter,411,1,1416.5,524594.1999999993,7155,WL,C,10.0
3,20.026999950408936,learn,39973.000049591064,Mon Jun 02 2025 15:18:07 GMT-0500 (Central Daylight Time),526627.0,A,l,O,l,603,1,616.2000000001863,526010.7999999998,7155,WL,C,11.0
3,20.209999799728394,learn,39790.00020027161,Mon Jun 02 2025 15:18:07 GMT-0500 (Central Daylight Time),526810.5,A,le,O,e,170,1,799.7000000001863,526010.7999999998,7155,WL,C,11.0
3,20.47599983215332,learn,39524.00016784668,Mon Jun 02 2025 15:18:07 GMT-0500 (Central Daylight Time),527076.7999999998,A,let,O,t,251,1,1066.0,526010.7999999998,7155,WL,C,11.0
3,20.592999935150146,learn,39407.00006484985,Mon Jun 02 2025 15:18:07 GMT-0500 (Central Daylight Time),527193.5,A,lett,O,t,97,1,1182.7000000001863,526010.7999999998,7155,WL,C,11.0
3,20.792999982833862,learn,39207.00001716614,Mon Jun 02 2025 15:18:07 GMT-0500 (Central Daylight Time),527393.1999999993,A,lette,O,e,188,1,1382.3999999994412,526010.7999999998,7155,WL,C,11.0
3,20.859999895095825,learn,39140.000104904175,Mon Jun 02 2025 15:18:07 GMT-0500 (Central Daylight Time),527460.0,A,letter,O,r,60,1,1449.2000000001863,526010.7999999998,7155,WL,C,11.0
3,21.625999927520752,learn,38374.00007247925,Mon Jun 02 2025 15:18:07 GMT-0500 (Central Daylight Time),528226.5999999996,A,letterenter,O,enter,746,1,2215.7999999998137,526010.7999999998,7155,WL,C,11.0
3,24.89199995994568,learn,35108.00004005432,Mon Jun 02 2025 15:18:07 GMT-0500 (Central Daylight Time),531491.8999999994,A,c,O,c,3259,1,3264.899999999441,528227.0,7155,WL,C,12.0
3,25.14199995994568,learn,34858.00004005432,Mon Jun 02 2025 15:18:07 GMT-0500 (Central Daylight Time),531742.0,A,ca,O,a,233,1,3515.0,528227.0,7155,WL,C,12.0
3,25.39199995994568,learn,34608.00004005432,Mon Jun 02 2025 15:18:07 GMT-0500 (Central Daylight Time),531992.0,A,cat,O,t,231,1,3765.0,528227.0,7155,WL,C,12.0
3,25.824999809265137,learn,34175.00019073486,Mon Jun 02 2025 15:18:07 GMT-0500 (Central Daylight Time),532424.8999999994,A,catt,O,t,413,1,4197.899999999441,528227.0,7155,WL,C,12.0
3,25.97499990463257,learn,34025.00009536743,Mon Jun 02 2025 15:18:07 GMT-0500 (Central Daylight Time),532575.0999999996,A,cattl,O,l,141,1,4348.0999999996275,528227.0,7155,WL,C,12.0
3,26.507999897003174,learn,33492.000102996826,Mon Jun 02 2025 15:18:07 GMT-0500 (Central Daylight Time),533108.0999999996,A,cattle,O,e,526,1,4881.0999999996275,528227.0,7155,WL,C,12.0
3,27.5239999294281,learn,32476.0000705719,Mon Jun 02 2025 15:18:07 GMT-0500 (Central Daylight Time),534124.6999999993,A,cattleenter,O,enter,1001,1,5897.699999999255,528227.0,7155,WL,C,12.0
3,29.389999866485596,learn,30610.000133514404,Mon Jun 02 2025 15:18:07 GMT-0500 (Central Daylight Time),535990.5999999996,A,c,O,c,1849,1,1865.5999999996275,534125.0,7155,WL,C,13.0
3,29.489999771118164,learn,30510.000228881836,Mon Jun 02 2025 15:18:07 GMT-0500 (Central Daylight Time),536090.5999999996,A,co,O,o,87,1,1965.5999999996275,534125.0,7155,WL,C,13.0
3,29.656999826431274,learn,30343.000173568726,Mon Jun 02 2025 15:18:07 GMT-0500 (Central Daylight Time),536257.0,A,cor,O,r,155,1,2132.0,534125.0,7155,WL,C,13.0
3,29.789999961853027,learn,30210.000038146973,Mon Jun 02 2025 15:18:07 GMT-0500 (Central Daylight Time),536390.3999999994,A,corn,O,n,124,1,2265.399999999441,534125.0,7155,WL,C,13.0
3,30.822999954223633,learn,29177.000045776367,Mon Jun 02 2025 15:18:07 GMT-0500 (Central Daylight Time),537423.5999999996,A,cornenter,O,enter,1015,1,3298.5999999996275,534125.0,7155,WL,C,13.0
3,31.305999994277954,learn,28694.000005722046,Mon Jun 02 2025 15:18:07 GMT-0500 (Central Daylight Time),537906.7999999998,A,s,O,s,470,1,482.90000000037253,537423.8999999994,7155,WL,C,14.0
3,31.43999981880188,learn,28560.00018119812,Mon Jun 02 2025 15:18:07 GMT-0500 (Central Daylight Time),538040.1999999993,A,sh,O,h,123,1,616.2999999998137,537423.8999999994,7155,WL,C,14.0
3,31.574999809265137,learn,28425.000190734863,Mon Jun 02 2025 15:18:07 GMT-0500 (Central Daylight Time),538175.0999999996,A,sho,O,o,125,1,751.2000000001863,537423.8999999994,7155,WL,C,14.0
3,31.722999811172485,learn,28277.000188827515,Mon Jun 02 2025 15:18:07 GMT-0500 (Central Daylight Time),538323.0999999996,A,shor,O,r,142,1,899.2000000001863,537423.8999999994,7155,WL,C,14.0
3,31.85599994659424,learn,28144.00005340576,Mon Jun 02 2025 15:18:07 GMT-0500 (Central Daylight Time),538456.5999999996,A,shore,O,e,114,1,1032.7000000001863,537423.8999999994,7155,WL,C,14.0
3,33.954999923706055,learn,26045.000076293945,Mon Jun 02 2025 15:18:07 GMT-0500 (Central Daylight Time),540555.5999999996,A,shoreenter,O,enter,2084,1,3131.7000000001863,537423.8999999994,7155,WL,C,14.0
3,37.020999908447266,learn,22979.000091552734,Mon Jun 02 2025 15:18:07 GMT-0500 (Central Daylight Time),543621.5999999996,A,b,O,b,3058,1,3065.7000000001863,540555.8999999994,7155,WL,C,15.0
3,37.13699984550476,learn,22863.00015449524,Mon Jun 02 2025 15:18:07 GMT-0500 (Central Daylight Time),543738.0999999996,A,bo,O,o,104,1,3182.2000000001863,540555.8999999994,7155,WL,C,15.0
3,37.353999853134155,learn,22646.000146865845,Mon Jun 02 2025 15:18:07 GMT-0500 (Central Daylight Time),543954.6999999993,A,bod,O,d,211,1,3398.7999999998137,540555.8999999994,7155,WL,C,15.0
3,37.520999908447266,learn,22479.000091552734,Mon Jun 02 2025 15:18:07 GMT-0500 (Central Daylight Time),544121.2999999998,A,body,O,y,147,1,3565.4000000003725,540555.8999999994,7155,WL,C,15.0
3,39.95299983024597,learn,20047.00016975403,Mon Jun 02 2025 15:18:07 GMT-0500 (Central Daylight Time),546554.0,A,bodyenter,O,enter,2420,1,5998.100000000559,540555.8999999994,7155,WL,C,15.0
4,1.2990000247955322,learn,58700.99997520447,Mon Jun 02 2025 15:18:07 GMT-0500 (Central Daylight Time),623596.5,A,t,O,t,1293,1,1299.5,622297.0,7155,WL,C,1.0
4,1.433000087738037,learn,58566.99991226196,Mon Jun 02 2025 15:18:07 GMT-0500 (Central Daylight Time),623729.7999999998,A,to,O,o,113,1,1432.7999999998137,622297.0,7155,WL,C,1.0
4,1.7160000801086426,learn,58283.99991989136,Mon Jun 02 2025 15:18:07 GMT-0500 (Central Daylight Time),624013.2999999998,A,toe,O,e,268,1,1716.2999999998137,622297.0,7155,WL,C,1.0
4,1.8989999294281006,learn,58101.0000705719,Mon Jun 02 2025 15:18:07 GMT-0500 (Central Daylight Time),624196.1999999993,A,toer,O,r,176,1,1899.199999999255,622297.0,7155,WL,C,1.0
4,2.065000057220459,learn,57934.99994277954,Mon Jun 02 2025 15:18:07 GMT-0500 (Central Daylight Time),624362.5999999996,A,toere,O,e,161,1,2065.5999999996275,622297.0,7155,WL,C,1.0
4,2.5989999771118164,learn,57401.00002288818,Mon Jun 02 2025 15:18:07 GMT-0500 (Central Daylight Time),624896.0,A,toer,O,backspace,515,1,2599.0,622297.0,7155,WL,C,1.0
4,2.7820000648498535,learn,57217.99993515015,Mon Jun 02 2025 15:18:07 GMT-0500 (Central Daylight Time),625079.2999999998,A,toe,O,backspace,165,1,2782.2999999998137,622297.0,7155,WL,C,1.0
4,2.9820001125335693,learn,57017.99988746643,Mon Jun 02 2025 15:18:07 GMT-0500 (Central Daylight Time),625279.1999999993,A,to,O,backspace,190,1,2982.199999999255,622297.0,7155,WL,C,1.0
4,3.5980000495910645,learn,56401.999950408936,Mon Jun 02 2025 15:18:07 GMT-0500 (Central Daylight Time),625895.6999999993,A,tow,O,w,606,1,3598.699999999255,622297.0,7155,WL,C,1.0
4,3.7149999141693115,learn,56285.00008583069,Mon Jun 02 2025 15:18:07 GMT-0500 (Central Daylight Time),626012.3999999994,A,towe,O,e,102,1,3715.399999999441,622297.0,7155,WL,C,1.0
4,3.9149999618530273,learn,56085.00003814697,Mon Jun 02 2025 15:18:07 GMT-0500 (Central Daylight Time),626212.5,A,tower,O,r,185,1,3915.5,622297.0,7155,WL,C,1.0
4,4.381999969482422,learn,55618.00003051758,Mon Jun 02 2025 15:18:07 GMT-0500 (Central Daylight Time),626678.8999999994,A,towerenter,O,enter,457,1,4381.899999999441,622297.0,7155,WL,C,1.0
4,5.248000144958496,learn,54751.999855041504,Mon Jun 02 2025 15:18:07 GMT-0500 (Central Daylight Time),627545.5,A,w,O,w,847,1,866.2000000001863,626679.2999999998,7155,WL,C,2.0
4,5.480999946594238,learn,54519.00005340576,Mon Jun 02 2025 15:18:07 GMT-0500 (Central Daylight Time),627778.3999999994,A,wh,O,h,228,1,1099.0999999996275,626679.2999999998,7155,WL,C,2.0
4,5.980999946594238,learn,54019.00005340576,Mon Jun 02 2025 15:18:07 GMT-0500 (Central Daylight Time),628278.3999999994,A,whe,O,e,483,1,1599.0999999996275,626679.2999999998,7155,WL,C,2.0
4,6.230999946594238,learn,53769.00005340576,Mon Jun 02 2025 15:18:07 GMT-0500 (Central Daylight Time),628528.1999999993,A,whea,O,a,231,1,1848.8999999994412,626679.2999999998,7155,WL,C,2.0
4,6.3480000495910645,learn,53651.999950408936,Mon Jun 02 2025 15:18:07 GMT-0500 (Central Daylight Time),628645.0,A,wheat,O,t,109,1,1965.7000000001863,626679.2999999998,7155,WL,C,2.0
4,6.864000082015991,learn,53135.99991798401,Mon Jun 02 2025 15:18:07 GMT-0500 (Central Daylight Time),629161.2999999998,A,wheatenter,O,enter,497,1,2482.0,626679.2999999998,7155,WL,C,2.0
4,7.314000129699707,learn,52685.99987030029,Mon Jun 02 2025 15:18:07 GMT-0500 (Central Daylight Time),629611.1999999993,A,q,O,q,436,1,449.59999999962747,629161.5999999996,7155,WL,C,3.0
4,7.447000026702881,learn,52552.99997329712,Mon Jun 02 2025 15:18:07 GMT-0500 (Central Daylight Time),629744.5999999996,A,qu,O,u,122,1,583.0,629161.5999999996,7155,WL,C,3.0
4,7.63100004196167,learn,52368.99995803833,Mon Jun 02 2025 15:18:07 GMT-0500 (Central Daylight Time),629927.7999999998,A,que,O,e,165,1,766.2000000001863,629161.5999999996,7155,WL,C,3.0
4,7.7799999713897705,learn,52220.00002861023,Mon Jun 02 2025 15:18:07 GMT-0500 (Central Daylight Time),630077.5999999996,A,quee,O,e,134,1,916.0,629161.5999999996,7155,WL,C,3.0
4,7.897000074386597,learn,52102.9999256134,Mon Jun 02 2025 15:18:07 GMT-0500 (Central Daylight Time),630194.2999999998,A,queen,O,n,112,1,1032.7000000001863,629161.5999999996,7155,WL,C,3.0
4,8.496999979019165,learn,51503.000020980835,Mon Jun 02 2025 15:18:07 GMT-0500 (Central Daylight Time),630794.1999999993,A,queenenter,O,enter,587,1,1632.5999999996275,629161.5999999996,7155,WL,C,3.0
4,8.996999979019165,learn,51003.000020980835,Mon Jun 02 2025 15:18:07 GMT-0500 (Central Daylight Time),631294.0,A,s,O,s,490,1,499.40000000037253,630794.5999999996,7155,WL,C,4.0
4,9.164000034332275,learn,50835.999965667725,Mon Jun 02 2025 15:18:07 GMT-0500 (Central Daylight Time),631460.7999999998,A,su,O,u,151,1,666.2000000001863,630794.5999999996,7155,WL,C,4.0
4,9.380000114440918,learn,50619.99988555908,Mon Jun 02 2025 15:18:07 GMT-0500 (Central Daylight Time),631677.3999999994,A,sug,O,g,209,1,882.7999999998137,630794.5999999996,7155,WL,C,4.0
4,9.71399998664856,learn,50286.00001335144,Mon Jun 02 2025 15:18:07 GMT-0500 (Central Daylight Time),632010.6999999993,A,suga,O,a,313,1,1216.0999999996275,630794.5999999996,7155,WL,C,4.0
4,10.130000114440918,learn,49869.99988555908,Mon Jun 02 2025 15:18:07 GMT-0500 (Central Daylight Time),632427.1999999993,A,sugar,O,r,403,1,1632.5999999996275,630794.5999999996,7155,WL,C,4.0
4,10.646000146865845,learn,49353.999853134155,Mon Jun 02 2025 15:18:07 GMT-0500 (Central Daylight Time),632943.6999999993,A,sugarenter,O,enter,506,1,2149.0999999996275,630794.5999999996,7155,WL,C,4.0
4,13.128999948501587,learn,46871.00005149841,Mon Jun 02 2025 15:18:07 GMT-0500 (Central Daylight Time),635426.0999999996,A,h,O,h,2462,1,2482.0999999996275,632944.0,7155,WL,C,5.0
4,13.328999996185303,learn,46671.0000038147,Mon Jun 02 2025 15:18:07 GMT-0500 (Central Daylight Time),635626.0999999996,A,ho,O,o,179,1,2682.0999999996275,632944.0,7155,WL,C,5.0
4,13.529000043869019,learn,46470.99995613098,Mon Jun 02 2025 15:18:07 GMT-0500 (Central Daylight Time),635826.0999999996,A,hom,O,m,195,1,2882.0999999996275,632944.0,7155,WL,C,5.0
4,13.694999933242798,learn,46305.0000667572,Mon Jun 02 2025 15:18:07 GMT-0500 (Central Daylight Time),635992.5,A,home,O,e,156,1,3048.5,632944.0,7155,WL,C,5.0
4,13.962000131607056,learn,46037.999868392944,Mon Jun 02 2025 15:18:07 GMT-0500 (Central Daylight Time),636258.8999999994,A,homeenter,O,enter,261,1,3314.899999999441,632944.0,7155,WL,C,5.0
4,14.394999980926514,learn,45605.000019073486,Mon Jun 02 2025 15:18:07 GMT-0500 (Central Daylight Time),636692.2999999998,A,b,O,b,426,1,433.1000000005588,636259.1999999993,7155,WL,C,6.0
4,14.545000076293945,learn,45454.999923706055,Mon Jun 02 2025 15:18:07 GMT-0500 (Central Daylight Time),636842.2999999998,A,bo,O,o,129,1,583.1000000005588,636259.1999999993,7155,WL,C,6.0
4,14.778000116348267,learn,45221.99988365173,Mon Jun 02 2025 15:18:07 GMT-0500 (Central Daylight Time),637075.5999999996,A,boy,O,y,219,1,816.4000000003725,636259.1999999993,7155,WL,C,6.0
4,15.59500002861023,learn,44404.99997138977,Mon Jun 02 2025 15:18:07 GMT-0500 (Central Daylight Time),637891.7999999998,A,boyenter,O,enter,801,1,1632.6000000005588,636259.1999999993,7155,WL,C,6.0
4,18.47699999809265,learn,41523.00000190735,Mon Jun 02 2025 15:18:07 GMT-0500 (Central Daylight Time),640774.2999999998,A,d,O,d,2866,1,2882.100000000559,637892.1999999993,7155,WL,C,7.0
4,18.64400005340576,learn,41355.99994659424,Mon Jun 02 2025 15:18:07 GMT-0500 (Central Daylight Time),640941.0,A,do,O,o,151,1,3048.800000000745,637892.1999999993,7155,WL,C,7.0
4,18.776999950408936,learn,41223.000049591064,Mon Jun 02 2025 15:18:07 GMT-0500 (Central Daylight Time),641074.2999999998,A,doc,O,c,128,1,3182.100000000559,637892.1999999993,7155,WL,C,7.0
4,19.009999990463257,learn,40990.00000953674,Mon Jun 02 2025 15:18:07 GMT-0500 (Central Daylight Time),641307.5999999996,A,doct,O,t,227,1,3415.4000000003725,637892.1999999993,7155,WL,C,7.0
4,19.110000133514404,learn,40889.999866485596,Mon Jun 02 2025 15:18:07 GMT-0500 (Central Daylight Time),641407.5,A,docto,O,o,90,1,3515.300000000745,637892.1999999993,7155,WL,C,7.0
4,19.22699999809265,learn,40773.00000190735,Mon Jun 02 2025 15:18:07 GMT-0500 (Central Daylight Time),641524.1999999993,A,doctor,O,r,102,1,3632.0,637892.1999999993,7155,WL,C,7.0
4,19.69099998474121,learn,40309.00001525879,Mon Jun 02 2025 15:18:07 GMT-0500 (Central Daylight Time),641988.5,A,doctorenter,O,enter,459,1,4096.300000000745,637892.1999999993,7155,WL,C,7.0
4,20.009999990463257,learn,39990.00000953674,Mon Jun 02 2025 15:18:07 GMT-0500 (Central Daylight Time),642307.0,A,c,O,c,313,1,318.1000000005588,641988.8999999994,7155,WL,C,8.0
4,20.177000045776367,learn,39822.99995422363,Mon Jun 02 2025 15:18:07 GMT-0500 (Central Daylight Time),642473.6999999993,A,ca,O,a,154,1,484.79999999981374,641988.8999999994,7155,WL,C,8.0
4,20.292999982833862,learn,39707.00001716614,Mon Jun 02 2025 15:18:07 GMT-0500 (Central Daylight Time),642590.5,A,cam,O,m,100,1,601.6000000005588,641988.8999999994,7155,WL,C,8.0
4,20.526000022888184,learn,39473.99997711182,Mon Jun 02 2025 15:18:07 GMT-0500 (Central Daylight Time),642823.5999999996,A,camp,O,p,215,1,834.7000000001863,641988.8999999994,7155,WL,C,8.0
4,21.4760000705719,learn,38523.9999294281,Mon Jun 02 2025 15:18:07 GMT-0500 (Central Daylight Time),643773.2999999998,A,campenter,O,enter,934,1,1784.4000000003725,641988.8999999994,7155,WL,C,8.0
4,22.243000030517578,learn,37756.99996948242,Mon Jun 02 2025 15:18:07 GMT-0500 (Central Daylight Time),644540.0999999996,A,f,O,f,752,1,766.5,643773.5999999996,7155,WL,C,9.0
4,22.375999927520752,learn,37624.00007247925,Mon Jun 02 2025 15:18:07 GMT-0500 (Central Daylight Time),644673.5,A,fl,O,l,114,1,899.9000000003725,643773.5999999996,7155,WL,C,9.0
4,22.575999975204468,learn,37424.00002479553,Mon Jun 02 2025 15:18:07 GMT-0500 (Central Daylight Time),644873.1999999993,A,fla,O,a,188,1,1099.5999999996275,643773.5999999996,7155,WL,C,9.0
4,22.825999975204468,learn,37174.00002479553,Mon Jun 02 2025 15:18:07 GMT-0500 (Central Daylight Time),645123.3999999994,A,flag,O,g,236,1,1349.7999999998137,643773.5999999996,7155,WL,C,9.0
4,23.259000062942505,learn,36740.999937057495,Mon Jun 02 2025 15:18:07 GMT-0500 (Central Daylight Time),645556.0,A,flagenter,O,enter,426,1,1782.4000000003725,643773.5999999996,7155,WL,C,9.0
4,23.926000118255615,learn,36073.999881744385,Mon Jun 02 2025 15:18:07 GMT-0500 (Central Daylight Time),646222.7999999998,A,n,O,n,657,1,666.5,645556.2999999998,7155,WL,C,10.0
4,24.125,learn,35875.0,Mon Jun 02 2025 15:18:07 GMT-0500 (Central Daylight Time),646422.5,A,na,O,a,183,1,866.2000000001863,645556.2999999998,7155,WL,C,10.0
4,24.225000143051147,learn,35774.99985694885,Mon Jun 02 2025 15:18:07 GMT-0500 (Central Daylight Time),646522.5,A,nai,O,i,95,1,966.2000000001863,645556.2999999998,7155,WL,C,10.0
4,24.441999912261963,learn,35558.00008773804,Mon Jun 02 2025 15:18:07 GMT-0500 (Central Daylight Time),646739.2999999998,A,nail,O,l,203,1,1183.0,645556.2999999998,7155,WL,C,10.0
4,25.44099998474121,learn,34559.00001525879,Mon Jun 02 2025 15:18:07 GMT-0500 (Central Daylight Time),647738.5999999996,A,nailenter,O,enter,994,1,2182.2999999998137,645556.2999999998,7155,WL,C,10.0
4,25.891000032424927,learn,34108.99996757507,Mon Jun 02 2025 15:18:07 GMT-0500 (Central Daylight Time),648188.5999999996,A,l,O,l,435,1,449.70000000018626,647738.8999999994,7155,WL,C,11.0
4,26.125,learn,33875.0,Mon Jun 02 2025 15:18:07 GMT-0500 (Central Daylight Time),648422.0999999996,A,le,O,e,217,1,683.2000000001863,647738.8999999994,7155,WL,C,11.0
4,26.375,learn,33625.0,Mon Jun 02 2025 15:18:07 GMT-0500 (Central Daylight Time),648671.7999999998,A,let,O,t,231,1,932.9000000003725,647738.8999999994,7155,WL,C,11.0
4,26.490999937057495,learn,33509.000062942505,Mon Jun 02 2025 15:18:07 GMT-0500 (Central Daylight Time),648788.5,A,lett,O,t,102,1,1049.6000000005588,647738.8999999994,7155,WL,C,11.0
4,26.658999919891357,learn,33341.00008010864,Mon Jun 02 2025 15:18:07 GMT-0500 (Central Daylight Time),648956.1999999993,A,lette,O,e,162,1,1217.2999999998137,647738.8999999994,7155,WL,C,11.0
4,26.77500009536743,learn,33224.99990463257,Mon Jun 02 2025 15:18:07 GMT-0500 (Central Daylight Time),649071.7999999998,A,letter,O,r,96,1,1332.9000000003725,647738.8999999994,7155,WL,C,11.0
4,27.558000087738037,learn,32441.999912261963,Mon Jun 02 2025 15:18:07 GMT-0500 (Central Daylight Time),649854.6999999993,A,letterenter,O,enter,774,1,2115.7999999998137,647738.8999999994,7155,WL,C,11.0
4,29.874000072479248,learn,30125.999927520752,Mon Jun 02 2025 15:18:07 GMT-0500 (Central Daylight Time),652170.7999999998,A,c,O,c,2294,1,2315.7999999998137,649855.0,7155,WL,C,12.0
4,30.039999961853027,learn,29960.000038146973,Mon Jun 02 2025 15:18:07 GMT-0500 (Central Daylight Time),652337.5,A,co,O,o,147,1,2482.5,649855.0,7155,WL,C,12.0
4,30.256999969482422,learn,29743.000030517578,Mon Jun 02 2025 15:18:07 GMT-0500 (Central Daylight Time),652554.0999999996,A,cor,O,r,196,1,2699.0999999996275,649855.0,7155,WL,C,12.0
4,30.94000005722046,learn,29059.99994277954,Mon Jun 02 2025 15:18:07 GMT-0500 (Central Daylight Time),653237.1999999993,A,corn,O,n,676,1,3382.199999999255,649855.0,7155,WL,C,12.0
4,31.42300009727478,learn,28576.99990272522,Mon Jun 02 2025 15:18:07 GMT-0500 (Central Daylight Time),653720.1999999993,A,cornenter,O,enter,472,1,3865.199999999255,649855.0,7155,WL,C,12.0
4,31.9060001373291,learn,28093.9998626709,Mon Jun 02 2025 15:18:07 GMT-0500 (Central Daylight Time),654203.5999999996,A,c,O,c,470,1,483.20000000018626,653720.3999999994,7155,WL,C,13.0
4,32.27300000190735,learn,27726.99999809265,Mon Jun 02 2025 15:18:07 GMT-0500 (Central Daylight Time),654570.1999999993,A,ca,O,a,346,1,849.7999999998137,653720.3999999994,7155,WL,C,13.0
4,32.50600004196167,learn,27493.99995803833,Mon Jun 02 2025 15:18:07 GMT-0500 (Central Daylight Time),654803.0999999996,A,cat,O,t,227,1,1082.7000000001863,653720.3999999994,7155,WL,C,13.0
4,32.640000104904175,learn,27359.999895095825,Mon Jun 02 2025 15:18:07 GMT-0500 (Central Daylight Time),654937.5999999996,A,catt,O,t,123,1,1217.2000000001863,653720.3999999994,7155,WL,C,13.0
4,32.85599994659424,learn,27144.00005340576,Mon Jun 02 2025 15:18:07 GMT-0500 (Central Daylight Time),655153.0999999996,A,cattl,O,l,196,1,1432.7000000001863,653720.3999999994,7155,WL,C,13.0
4,33.02300000190735,learn,26976.99999809265,Mon Jun 02 2025 15:18:07 GMT-0500 (Central Daylight Time),655320.0999999996,A,cattle,O,e,148,1,1599.7000000001863,653720.3999999994,7155,WL,C,13.0
4,34.10599994659424,learn,25894.00005340576,Mon Jun 02 2025 15:18:07 GMT-0500 (Central Daylight Time),656403.0,A,cattleenter,O,enter,1070,1,2682.600000000559,653720.3999999994,7155,WL,C,13.0
4,41.45300006866455,learn,18546.99993133545,Mon Jun 02 2025 15:18:07 GMT-0500 (Central Daylight Time),663750.3999999994,A,s,O,s,7330,1,7347.200000000186,656403.1999999993,7155,WL,C,14.0
4,41.5699999332428,learn,18430.000066757202,Mon Jun 02 2025 15:18:07 GMT-0500 (Central Daylight Time),663867.1999999993,A,sh,O,h,103,1,7464.0,656403.1999999993,7155,WL,C,14.0
4,41.670000076293945,learn,18329.999923706055,Mon Jun 02 2025 15:18:07 GMT-0500 (Central Daylight Time),663967.2999999998,A,sho,O,o,82,1,7564.100000000559,656403.1999999993,7155,WL,C,14.0
4,41.8529999256134,learn,18147.000074386597,Mon Jun 02 2025 15:18:07 GMT-0500 (Central Daylight Time),664150.2999999998,A,shor,O,r,174,1,7747.100000000559,656403.1999999993,7155,WL,C,14.0
4,41.986000061035156,learn,18013.999938964844,Mon Jun 02 2025 15:18:07 GMT-0500 (Central Daylight Time),664283.3999999994,A,shore,O,e,127,1,7880.200000000186,656403.1999999993,7155,WL,C,14.0
4,42.96900010108948,learn,17030.999898910522,Mon Jun 02 2025 15:18:07 GMT-0500 (Central Daylight Time),665266.7999999998,A,shoreenter,O,enter,962,1,8863.600000000559,656403.1999999993,7155,WL,C,14.0
4,43.53600001335144,learn,16463.99998664856,Mon Jun 02 2025 15:18:07 GMT-0500 (Central Daylight Time),665833.1999999993,A,b,O,b,547,1,566.1999999992549,665267.0,7155,WL,C,15.0
4,43.63599991798401,learn,16364.000082015991,Mon Jun 02 2025 15:18:07 GMT-0500 (Central Daylight Time),665933.0999999996,A,bo,O,o,92,1,666.0999999996275,665267.0,7155,WL,C,15.0
4,43.835999965667725,learn,16164.000034332275,Mon Jun 02 2025 15:18:07 GMT-0500 (Central Daylight Time),666133.1999999993,A,bod,O,d,193,1,866.1999999992549,665267.0,7155,WL,C,15.0
4,43.93600010871887,learn,16063.999891281128,Mon Jun 02 2025 15:18:07 GMT-0500 (Central Daylight Time),666233.1999999993,A,body,O,y,88,1,966.1999999992549,665267.0,7155,WL,C,15.0
4,44.319000005722046,learn,15680.999994277954,Mon Jun 02 2025 15:18:07 GMT-0500 (Central Daylight Time),666616.5,A,bodyenter,O,enter,372,1,1349.5,665267.0,7155,WL,C,15.0
5,1.4660000801086426,learn,60000.0,Mon Jun 02 2025 15:18:07 GMT-0500 (Central Daylight Time),741676.1999999993,A,t,O,t,1452,1,1466.2999999998137,740209.8999999994,7155,WL,C,1.0
5,1.6160001754760742,learn,60000.0,Mon Jun 02 2025 15:18:07 GMT-0500 (Central Daylight Time),741826.1999999993,A,to,O,o,129,1,1616.2999999998137,740209.8999999994,7155,WL,C,1.0
5,1.815999984741211,learn,60000.0,Mon Jun 02 2025 15:18:07 GMT-0500 (Central Daylight Time),742026.0999999996,A,tow,O,w,195,1,1816.2000000001863,740209.8999999994,7155,WL,C,1.0
5,1.9660000801086426,learn,60000.0,Mon Jun 02 2025 15:18:07 GMT-0500 (Central Daylight Time),742175.8999999994,A,towe,O,e,131,1,1966.0,740209.8999999994,7155,WL,C,1.0
5,2.2990000247955322,learn,60000.0,Mon Jun 02 2025 15:18:07 GMT-0500 (Central Daylight Time),742509.0999999996,A,tower,O,r,318,1,2299.2000000001863,740209.8999999994,7155,WL,C,1.0
5,2.7829999923706055,learn,60000.0,Mon Jun 02 2025 15:18:07 GMT-0500 (Central Daylight Time),742992.1999999993,A,towerenter,O,enter,465,1,2782.2999999998137,740209.8999999994,7155,WL,C,1.0
5,3.315999984741211,learn,60000.0,Mon Jun 02 2025 15:18:07 GMT-0500 (Central Daylight Time),743525.3999999994,A,w,O,w,525,1,532.7999999998137,742992.5999999996,7155,WL,C,2.0
5,3.449000120162964,learn,60000.0,Mon Jun 02 2025 15:18:07 GMT-0500 (Central Daylight Time),743658.7999999998,A,wh,O,h,120,1,666.2000000001863,742992.5999999996,7155,WL,C,2.0
5,3.5989999771118164,learn,60000.0,Mon Jun 02 2025 15:18:07 GMT-0500 (Central Daylight Time),743808.7999999998,A,whe,O,e,130,1,816.2000000001863,742992.5999999996,7155,WL,C,2.0
5,3.749000072479248,learn,60000.0,Mon Jun 02 2025 15:18:07 GMT-0500 (Central Daylight Time),743958.6999999993,A,whea,O,a,133,1,966.0999999996275,742992.5999999996,7155,WL,C,2.0
5,3.9820001125335693,learn,60000.0,Mon Jun 02 2025 15:18:07 GMT-0500 (Central Daylight Time),744192.1999999993,A,wheat,O,t,215,1,1199.5999999996275,742992.5999999996,7155,WL,C,2.0
5,4.5320000648498535,learn,60000.0,Mon Jun 02 2025 15:18:07 GMT-0500 (Central Daylight Time),744741.7999999998,A,wheatenter,O,enter,533,1,1749.2000000001863,742992.5999999996,7155,WL,C,2.0
5,4.965000152587891,learn,60000.0,Mon Jun 02 2025 15:18:07 GMT-0500 (Central Daylight Time),745175.0999999996,A,q,O,q,424,1,432.90000000037253,744742.1999999993,7155,WL,C,3.0
5,5.116000175476074,learn,60000.0,Mon Jun 02 2025 15:18:07 GMT-0500 (Central Daylight Time),745325.3999999994,A,qu,O,u,134,1,583.2000000001863,744742.1999999993,7155,WL,C,3.0
5,5.265000104904175,learn,60000.0,Mon Jun 02 2025 15:18:07 GMT-0500 (Central Daylight Time),745474.8999999994,A,que,O,e,136,1,732.7000000001863,744742.1999999993,7155,WL,C,3.0
5,5.432000160217285,learn,60000.0,Mon Jun 02 2025 15:18:07 GMT-0500 (Central Daylight Time),745641.3999999994,A,quee,O,e,147,1,899.2000000001863,744742.1999999993,7155,WL,C,3.0
5,5.565000057220459,learn,60000.0,Mon Jun 02 2025 15:18:07 GMT-0500 (Central Daylight Time),745774.8999999994,A,queen,O,n,116,1,1032.7000000001863,744742.1999999993,7155,WL,C,3.0
5,6.198000192642212,learn,60000.0,Mon Jun 02 2025 15:18:07 GMT-0500 (Central Daylight Time),746408.0,A,queenenter,O,enter,615,1,1665.800000000745,744742.1999999993,7155,WL,C,3.0
5,6.865000009536743,learn,60000.0,Mon Jun 02 2025 15:18:07 GMT-0500 (Central Daylight Time),747074.2999999998,A,h,O,h,654,1,666.1000000005588,746408.1999999993,7155,WL,C,4.0
5,7.065000057220459,learn,60000.0,Mon Jun 02 2025 15:18:07 GMT-0500 (Central Daylight Time),747274.1999999993,A,ho,O,o,187,1,866.0,746408.1999999993,7155,WL,C,4.0
5,7.315000057220459,learn,60000.0,Mon Jun 02 2025 15:18:07 GMT-0500 (Central Daylight Time),747524.1999999993,A,hom,O,m,243,1,1116.0,746408.1999999993,7155,WL,C,4.0
5,7.481000185012817,learn,60000.0,Mon Jun 02 2025 15:18:07 GMT-0500 (Central Daylight Time),747690.5999999996,A,home,O,e,161,1,1282.4000000003725,746408.1999999993,7155,WL,C,4.0
5,7.79800009727478,learn,60000.0,Mon Jun 02 2025 15:18:07 GMT-0500 (Central Daylight Time),748007.2999999998,A,homeenter,O,enter,299,1,1599.1000000005588,746408.1999999993,7155,WL,C,4.0
5,8.13100004196167,learn,60000.0,Mon Jun 02 2025 15:18:07 GMT-0500 (Central Daylight Time),748340.5999999996,A,b,O,b,326,1,332.90000000037253,748007.6999999993,7155,WL,C,5.0
5,8.264000177383423,learn,60000.0,Mon Jun 02 2025 15:18:07 GMT-0500 (Central Daylight Time),748474.0,A,bo,O,o,113,1,466.30000000074506,748007.6999999993,7155,WL,C,5.0
5,8.498000144958496,learn,60000.0,Mon Jun 02 2025 15:18:07 GMT-0500 (Central Daylight Time),748707.0999999996,A,boy,O,y,220,1,699.4000000003725,748007.6999999993,7155,WL,C,5.0
5,9.13100004196167,learn,60000.0,Mon Jun 02 2025 15:18:07 GMT-0500 (Central Daylight Time),749340.1999999993,A,boys,O,s,618,1,1332.5,748007.6999999993,7155,WL,C,5.0
5,9.746999979019165,learn,60000.0,Mon Jun 02 2025 15:18:07 GMT-0500 (Central Daylight Time),749956.7999999998,A,boy,O,backspace,609,1,1949.1000000005588,748007.6999999993,7155,WL,C,5.0
5,10.19700002670288,learn,60000.0,Mon Jun 02 2025 15:18:07 GMT-0500 (Central Daylight Time),750406.3999999994,A,boyenter,O,enter,441,1,2398.7000000001863,748007.6999999993,7155,WL,C,5.0
5,10.69700002670288,learn,60000.0,Mon Jun 02 2025 15:18:07 GMT-0500 (Central Daylight Time),750906.7999999998,A,s,O,s,479,1,500.1000000005588,750406.6999999993,7155,WL,C,6.0
5,10.897000074386597,learn,60000.0,Mon Jun 02 2025 15:18:07 GMT-0500 (Central Daylight Time),751106.5,A,su,O,u,180,1,699.8000000007451,750406.6999999993,7155,WL,C,6.0
5,11.19700002670288,learn,60000.0,Mon Jun 02 2025 15:18:07 GMT-0500 (Central Daylight Time),751406.3999999994,A,sug,O,g,283,1,999.7000000001863,750406.6999999993,7155,WL,C,6.0
5,11.496000051498413,learn,60000.0,Mon Jun 02 2025 15:18:07 GMT-0500 (Central Daylight Time),751706.0999999996,A,suga,O,a,287,1,1299.4000000003725,750406.6999999993,7155,WL,C,6.0
5,11.680000066757202,learn,60000.0,Mon Jun 02 2025 15:18:07 GMT-0500 (Central Daylight Time),751889.3999999994,A,sugar,O,r,171,1,1482.7000000001863,750406.6999999993,7155,WL,C,6.0
5,12.163000106811523,learn,60000.0,Mon Jun 02 2025 15:18:07 GMT-0500 (Central Daylight Time),752372.5999999996,A,sugarenter,O,enter,468,1,1965.9000000003725,750406.6999999993,7155,WL,C,6.0
5,12.546000003814697,learn,60000.0,Mon Jun 02 2025 15:18:07 GMT-0500 (Central Daylight Time),752756.0999999996,A,d,O,d,369,1,383.0,752373.0999999996,7155,WL,C,7.0
5,12.696000099182129,learn,60000.0,Mon Jun 02 2025 15:18:07 GMT-0500 (Central Daylight Time),752906.0,A,do,O,o,137,1,532.9000000003725,752373.0999999996,7155,WL,C,7.0
5,12.84600019454956,learn,60000.0,Mon Jun 02 2025 15:18:07 GMT-0500 (Central Daylight Time),753056.0,A,doc,O,c,132,1,682.9000000003725,752373.0999999996,7155,WL,C,7.0
5,13.063000202178955,learn,60000.0,Mon Jun 02 2025 15:18:07 GMT-0500 (Central Daylight Time),753272.3999999994,A,doct,O,t,198,1,899.2999999998137,752373.0999999996,7155,WL,C,7.0
5,13.163000106811523,learn,60000.0,Mon Jun 02 2025 15:18:07 GMT-0500 (Central Daylight Time),753372.2999999998,A,docto,O,o,93,1,999.2000000001863,752373.0999999996,7155,WL,C,7.0
5,13.296000003814697,learn,60000.0,Mon Jun 02 2025 15:18:07 GMT-0500 (Central Daylight Time),753505.7999999998,A,doctor,O,r,113,1,1132.7000000001863,752373.0999999996,7155,WL,C,7.0
5,14.046000003814697,learn,60000.0,Mon Jun 02 2025 15:18:07 GMT-0500 (Central Daylight Time),754255.2999999998,A,doctorenter,O,enter,731,1,1882.2000000001863,752373.0999999996,7155,WL,C,7.0
5,14.51200008392334,learn,60000.0,Mon Jun 02 2025 15:18:07 GMT-0500 (Central Daylight Time),754722.0,A,c,O,c,454,1,466.30000000074506,754255.6999999993,7155,WL,C,8.0
5,14.712000131607056,learn,60000.0,Mon Jun 02 2025 15:18:07 GMT-0500 (Central Daylight Time),754922.0,A,ca,O,a,187,1,666.3000000007451,754255.6999999993,7155,WL,C,8.0
5,14.812000036239624,learn,60000.0,Mon Jun 02 2025 15:18:07 GMT-0500 (Central Daylight Time),755022.0,A,cam,O,m,83,1,766.3000000007451,754255.6999999993,7155,WL,C,8.0
5,15.078999996185303,learn,60000.0,Mon Jun 02 2025 15:18:07 GMT-0500 (Central Daylight Time),755288.5,A,camp,O,p,247,1,1032.800000000745,754255.6999999993,7155,WL,C,8.0
5,15.763000011444092,learn,60000.0,Mon Jun 02 2025 15:18:07 GMT-0500 (Central Daylight Time),755972.5999999996,A,campenter,O,enter,677,1,1716.9000000003725,754255.6999999993,7155,WL,C,8.0
5,16.41200017929077,learn,60000.0,Mon Jun 02 2025 15:18:07 GMT-0500 (Central Daylight Time),756621.2999999998,A,f,O,f,641,1,648.5,755972.7999999998,7155,WL,C,9.0
5,16.562000036239624,learn,60000.0,Mon Jun 02 2025 15:18:07 GMT-0500 (Central Daylight Time),756771.1999999993,A,fl,O,l,144,1,798.3999999994412,755972.7999999998,7155,WL,C,9.0
5,16.74500012397766,learn,60000.0,Mon Jun 02 2025 15:18:07 GMT-0500 (Central Daylight Time),756954.5,A,fla,O,a,178,1,981.7000000001863,755972.7999999998,7155,WL,C,9.0
5,17.02900004386902,learn,60000.0,Mon Jun 02 2025 15:18:07 GMT-0500 (Central Daylight Time),757238.0999999996,A,flag,O,g,267,1,1265.2999999998137,755972.7999999998,7155,WL,C,9.0
5,17.57800006866455,learn,60000.0,Mon Jun 02 2025 15:18:07 GMT-0500 (Central Daylight Time),757787.5,A,flagenter,O,enter,542,1,1814.7000000001863,755972.7999999998,7155,WL,C,9.0
5,17.92799997329712,learn,60000.0,Mon Jun 02 2025 15:18:07 GMT-0500 (Central Daylight Time),758137.5,A,l,O,l,338,1,349.80000000074506,757787.6999999993,7155,WL,C,10.0
5,18.144999980926514,learn,60000.0,Mon Jun 02 2025 15:18:07 GMT-0500 (Central Daylight Time),758354.1999999993,A,le,O,e,204,1,566.5,757787.6999999993,7155,WL,C,10.0
5,18.394999980926514,learn,60000.0,Mon Jun 02 2025 15:18:07 GMT-0500 (Central Daylight Time),758604.1999999993,A,let,O,t,235,1,816.5,757787.6999999993,7155,WL,C,10.0
5,18.544000148773193,learn,60000.0,Mon Jun 02 2025 15:18:07 GMT-0500 (Central Daylight Time),758754.0,A,lett,O,t,129,1,966.3000000007451,757787.6999999993,7155,WL,C,10.0
5,18.711000204086304,learn,60000.0,Mon Jun 02 2025 15:18:07 GMT-0500 (Central Daylight Time),758920.5,A,lette,O,e,155,1,1132.800000000745,757787.6999999993,7155,WL,C,10.0
5,18.794000148773193,learn,60000.0,Mon Jun 02 2025 15:18:07 GMT-0500 (Central Daylight Time),759004.0,A,letter,O,r,69,1,1216.300000000745,757787.6999999993,7155,WL,C,10.0
5,19.66000008583069,learn,60000.0,Mon Jun 02 2025 15:18:07 GMT-0500 (Central Daylight Time),759869.8999999994,A,letterenter,O,enter,857,1,2082.2000000001863,757787.6999999993,7155,WL,C,10.0
5,20.127000093460083,learn,60000.0,Mon Jun 02 2025 15:18:07 GMT-0500 (Central Daylight Time),760337.0,A,n,O,n,445,1,466.80000000074506,759870.1999999993,7155,WL,C,11.0
5,20.710000038146973,learn,60000.0,Mon Jun 02 2025 15:18:07 GMT-0500 (Central Daylight Time),760920.0999999996,A,na,O,a,573,1,1049.9000000003725,759870.1999999993,7155,WL,C,11.0
5,20.8270001411438,learn,60000.0,Mon Jun 02 2025 15:18:07 GMT-0500 (Central Daylight Time),761036.3999999994,A,nai,O,i,109,1,1166.2000000001863,759870.1999999993,7155,WL,C,11.0
5,21.06000018119812,learn,60000.0,Mon Jun 02 2025 15:18:07 GMT-0500 (Central Daylight Time),761269.5,A,nail,O,l,217,1,1399.300000000745,759870.1999999993,7155,WL,C,11.0
5,21.677000045776367,learn,60000.0,Mon Jun 02 2025 15:18:07 GMT-0500 (Central Daylight Time),761886.1999999993,A,nailenter,O,enter,608,1,2016.0,759870.1999999993,7155,WL,C,11.0
5,23.676000118255615,learn,60000.0,Mon Jun 02 2025 15:18:07 GMT-0500 (Central Daylight Time),763885.7999999998,A,c,O,c,1983,1,1999.2999999998137,761886.5,7155,WL,C,12.0
5,23.95900011062622,learn,60000.0,Mon Jun 02 2025 15:18:07 GMT-0500 (Central Daylight Time),764168.5999999996,A,co,O,o,272,1,2282.0999999996275,761886.5,7155,WL,C,12.0
5,24.159000158309937,learn,60000.0,Mon Jun 02 2025 15:18:07 GMT-0500 (Central Daylight Time),764369.0,A,cor,O,r,180,1,2482.5,761886.5,7155,WL,C,12.0
5,24.926000118255615,learn,60000.0,Mon Jun 02 2025 15:18:07 GMT-0500 (Central Daylight Time),765135.2999999998,A,corn,O,n,748,1,3248.7999999998137,761886.5,7155,WL,C,12.0
5,25.45900011062622,learn,60000.0,Mon Jun 02 2025 15:18:07 GMT-0500 (Central Daylight Time),765668.5,A,cornenter,O,enter,526,1,3782.0,761886.5,7155,WL,C,12.0
5,25.926000118255615,learn,60000.0,Mon Jun 02 2025 15:18:07 GMT-0500 (Central Daylight Time),766135.1999999993,A,c,O,c,449,1,466.5,765668.6999999993,7155,WL,C,13.0
5,26.175000190734863,learn,60000.0,Mon Jun 02 2025 15:18:07 GMT-0500 (Central Daylight Time),766384.6999999993,A,ca,O,a,230,1,716.0,765668.6999999993,7155,WL,C,13.0
5,26.409000158309937,learn,60000.0,Mon Jun 02 2025 15:18:07 GMT-0500 (Central Daylight Time),766618.1999999993,A,cat,O,t,229,1,949.5,765668.6999999993,7155,WL,C,13.0
5,26.79200005531311,learn,60000.0,Mon Jun 02 2025 15:18:07 GMT-0500 (Central Daylight Time),767001.3999999994,A,catt,O,t,371,1,1332.7000000001863,765668.6999999993,7155,WL,C,13.0
5,26.975000143051147,learn,60000.0,Mon Jun 02 2025 15:18:07 GMT-0500 (Central Daylight Time),767184.6999999993,A,cattl,O,l,164,1,1516.0,765668.6999999993,7155,WL,C,13.0
5,27.125,learn,60000.0,Mon Jun 02 2025 15:18:07 GMT-0500 (Central Daylight Time),767334.7999999998,A,cattle,O,e,140,1,1666.1000000005588,765668.6999999993,7155,WL,C,13.0
5,28.058000087738037,learn,60000.0,Mon Jun 02 2025 15:18:07 GMT-0500 (Central Daylight Time),768267.5999999996,A,cattleenter,O,enter,919,1,2598.9000000003725,765668.6999999993,7155,WL,C,13.0
5,28.60800004005432,learn,60000.0,Mon Jun 02 2025 15:18:07 GMT-0500 (Central Daylight Time),768817.6999999993,A,s,O,s,530,1,549.7999999998137,768267.8999999994,7155,WL,C,14.0
5,28.79100012779236,learn,60000.0,Mon Jun 02 2025 15:18:07 GMT-0500 (Central Daylight Time),769000.7999999998,A,sh,O,h,172,1,732.9000000003725,768267.8999999994,7155,WL,C,14.0
5,28.924000024795532,learn,60000.0,Mon Jun 02 2025 15:18:07 GMT-0500 (Central Daylight Time),769134.0,A,sho,O,o,125,1,866.1000000005588,768267.8999999994,7155,WL,C,14.0
5,29.091000080108643,learn,60000.0,Mon Jun 02 2025 15:18:07 GMT-0500 (Central Daylight Time),769300.7999999998,A,shor,O,r,152,1,1032.9000000003725,768267.8999999994,7155,WL,C,14.0
5,29.19099998474121,learn,60000.0,Mon Jun 02 2025 15:18:07 GMT-0500 (Central Daylight Time),769400.5999999996,A,shore,O,e,89,1,1132.7000000001863,768267.8999999994,7155,WL,C,14.0
5,30.141000032424927,learn,60000.0,Mon Jun 02 2025 15:18:07 GMT-0500 (Central Daylight Time),770350.3999999994,A,shoreenter,O,enter,933,1,2082.5,768267.8999999994,7155,WL,C,14.0
5,30.59000015258789,learn,60000.0,Mon Jun 02 2025 15:18:07 GMT-0500 (Central Daylight Time),770800.0999999996,A,b,O,b,431,1,449.40000000037253,770350.6999999993,7155,WL,C,15.0
5,30.657000064849854,learn,60000.0,Mon Jun 02 2025 15:18:07 GMT-0500 (Central Daylight Time),770866.5,A,bo,O,o,62,1,515.8000000007451,770350.6999999993,7155,WL,C,15.0
5,30.85700011253357,learn,60000.0,Mon Jun 02 2025 15:18:07 GMT-0500 (Central Daylight Time),771066.5999999996,A,bod,O,d,195,1,715.9000000003725,770350.6999999993,7155,WL,C,15.0
5,30.991000175476074,learn,60000.0,Mon Jun 02 2025 15:18:07 GMT-0500 (Central Daylight Time),771200.1999999993,A,body,O,y,115,1,849.5,770350.6999999993,7155,WL,C,15.0
5,32.17300009727478,learn,60000.0,Mon Jun 02 2025 15:18:07 GMT-0500 (Central Daylight Time),772383.0999999996,A,bodyenter,O,enter,1174,1,2032.4000000003725,770350.6999999993,7155,WL,C,15.0
6,0.8499999046325684,distr,59150.00009536743,Mon Jun 02 2025 15:18:07 GMT-0500 (Central Daylight Time),846442.8999999994,B,s,O,s,845,1,849.2999999998137,845593.5999999996,7155,WL,C,1.0
6,1.1329998970031738,distr,58867.000102996826,Mon Jun 02 2025 15:18:07 GMT-0500 (Central Daylight Time),846726.5,B,sk,O,k,266,1,1132.9000000003725,845593.5999999996,7155,WL,C,1.0
6,1.3999998569488525,distr,58600.00014305115,Mon Jun 02 2025 15:18:07 GMT-0500 (Central Daylight Time),846993.0999999996,B,sky,O,y,255,1,1399.5,845593.5999999996,7155,WL,C,1.0
6,1.7999999523162842,distr,58200.000047683716,Mon Jun 02 2025 15:18:07 GMT-0500 (Central Daylight Time),847392.6999999993,B,skyenter,O,enter,388,1,1799.0999999996275,845593.5999999996,7155,WL,C,1.0
6,2.1659998893737793,distr,57834.00011062622,Mon Jun 02 2025 15:18:07 GMT-0500 (Central Daylight Time),847759.0,B,d,O,d,348,1,366.1000000005588,847392.8999999994,7155,WL,C,2.0
6,2.5160000324249268,distr,57483.99996757507,Mon Jun 02 2025 15:18:07 GMT-0500 (Central Daylight Time),848109.0,B,dl,O,l,342,1,716.1000000005588,847392.8999999994,7155,WL,C,2.0
6,3.0329999923706055,distr,56967.000007629395,Mon Jun 02 2025 15:18:07 GMT-0500 (Central Daylight Time),848625.8999999994,B,d,O,backspace,496,1,1233.0,847392.8999999994,7155,WL,C,2.0
6,3.8989999294281006,distr,56101.0000705719,Mon Jun 02 2025 15:18:07 GMT-0500 (Central Daylight Time),849492.1999999993,B,do,O,o,860,1,2099.2999999998137,847392.8999999994,7155,WL,C,2.0
6,4.248999834060669,distr,55751.00016593933,Mon Jun 02 2025 15:18:07 GMT-0500 (Central Daylight Time),849842.1999999993,B,dol,O,l,337,1,2449.2999999998137,847392.8999999994,7155,WL,C,2.0
6,4.398999929428101,distr,55601.0000705719,Mon Jun 02 2025 15:18:07 GMT-0500 (Central Daylight Time),849991.8999999994,B,doll,O,l,139,1,2599.0,847392.8999999994,7155,WL,C,2.0
6,4.582000017166138,distr,55417.99998283386,Mon Jun 02 2025 15:18:07 GMT-0500 (Central Daylight Time),850174.8999999994,B,dolla,O,a,174,1,2782.0,847392.8999999994,7155,WL,C,2.0
6,4.998999834060669,distr,55001.00016593933,Mon Jun 02 2025 15:18:07 GMT-0500 (Central Daylight Time),850591.7999999998,B,dollar,O,r,399,1,3198.9000000003725,847392.8999999994,7155,WL,C,2.0
6,5.332000017166138,distr,54667.99998283386,Mon Jun 02 2025 15:18:07 GMT-0500 (Central Daylight Time),850925.0,B,dollarenter,O,enter,318,1,3532.100000000559,847392.8999999994,7155,WL,C,2.0
6,5.73199987411499,distr,54268.00012588501,Mon Jun 02 2025 15:18:07 GMT-0500 (Central Daylight Time),851325.0,B,v,O,v,385,1,399.70000000018626,850925.2999999998,7155,WL,C,3.0
6,5.914999961853027,distr,54085.00003814697,Mon Jun 02 2025 15:18:07 GMT-0500 (Central Daylight Time),851508.0999999996,B,va,O,a,168,1,582.7999999998137,850925.2999999998,7155,WL,C,3.0
6,6.049000024795532,distr,53950.99997520447,Mon Jun 02 2025 15:18:07 GMT-0500 (Central Daylight Time),851641.6999999993,B,val,O,l,122,1,716.3999999994412,850925.2999999998,7155,WL,C,3.0
6,6.23199987411499,distr,53768.00012588501,Mon Jun 02 2025 15:18:07 GMT-0500 (Central Daylight Time),851824.8999999994,B,vall,O,l,164,1,899.5999999996275,850925.2999999998,7155,WL,C,3.0
6,6.4649999141693115,distr,53535.00008583069,Mon Jun 02 2025 15:18:07 GMT-0500 (Central Daylight Time),852057.8999999994,B,valle,O,e,220,1,1132.5999999996275,850925.2999999998,7155,WL,C,3.0
6,6.648000001907349,distr,53351.99999809265,Mon Jun 02 2025 15:18:07 GMT-0500 (Central Daylight Time),852241.0999999996,B,valley,O,y,171,1,1315.7999999998137,850925.2999999998,7155,WL,C,3.0
6,7.047999858856201,distr,52952.0001411438,Mon Jun 02 2025 15:18:07 GMT-0500 (Central Daylight Time),852641.0999999996,B,valleyenter,O,enter,380,1,1715.7999999998137,850925.2999999998,7155,WL,C,3.0
6,11.829999923706055,distr,48170.000076293945,Mon Jun 02 2025 15:18:07 GMT-0500 (Central Daylight Time),857423.1999999993,B,s,O,s,4772,1,4781.799999999814,852641.3999999994,7155,WL,C,4.0
6,12.763000011444092,distr,47236.99998855591,Mon Jun 02 2025 15:18:07 GMT-0500 (Central Daylight Time),858356.1999999993,B,,O,backspace,926,1,5714.799999999814,852641.3999999994,7155,WL,C,4.0
6,17.312000036239624,distr,42687.999963760376,Mon Jun 02 2025 15:18:07 GMT-0500 (Central Daylight Time),862904.7999999998,B,b,O,b,4530,1,10263.400000000373,852641.3999999994,7155,WL,C,4.0
6,17.460999965667725,distr,42539.000034332275,Mon Jun 02 2025 15:18:07 GMT-0500 (Central Daylight Time),863054.5999999996,B,bu,O,u,140,1,10413.200000000186,852641.3999999994,7155,WL,C,4.0
6,17.727999925613403,distr,42272.0000743866,Mon Jun 02 2025 15:18:07 GMT-0500 (Central Daylight Time),863321.1999999993,B,but,O,t,255,1,10679.799999999814,852641.3999999994,7155,WL,C,4.0
6,17.878000020980835,distr,42121.999979019165,Mon Jun 02 2025 15:18:07 GMT-0500 (Central Daylight Time),863471.1999999993,B,butt,O,t,140,1,10829.799999999814,852641.3999999994,7155,WL,C,4.0
6,18.09500002861023,distr,41904.99997138977,Mon Jun 02 2025 15:18:07 GMT-0500 (Central Daylight Time),863687.8999999994,B,butte,O,e,207,1,11046.5,852641.3999999994,7155,WL,C,4.0
6,18.17799997329712,distr,41822.00002670288,Mon Jun 02 2025 15:18:07 GMT-0500 (Central Daylight Time),863770.6999999993,B,butter,O,r,70,1,11129.299999999814,852641.3999999994,7155,WL,C,4.0
6,18.82800006866455,distr,41171.99993133545,Mon Jun 02 2025 15:18:07 GMT-0500 (Central Daylight Time),864420.7999999998,B,butterenter,O,enter,643,1,11779.400000000373,852641.3999999994,7155,WL,C,4.0
6,20.876999855041504,distr,39123.000144958496,Mon Jun 02 2025 15:18:07 GMT-0500 (Central Daylight Time),866470.1999999993,B,v,O,v,2033,1,2049.0999999996275,864421.0999999996,7155,WL,C,5.0
6,21.111000061035156,distr,38888.999938964844,Mon Jun 02 2025 15:18:07 GMT-0500 (Central Daylight Time),866703.5999999996,B,va,O,a,215,1,2282.5,864421.0999999996,7155,WL,C,5.0
6,21.776999950408936,distr,38223.000049591064,Mon Jun 02 2025 15:18:07 GMT-0500 (Central Daylight Time),867369.8999999994,B,v,O,backspace,654,1,2948.7999999998137,864421.0999999996,7155,WL,C,5.0
6,21.97699999809265,distr,38023.00000190735,Mon Jun 02 2025 15:18:07 GMT-0500 (Central Daylight Time),867570.0,B,,O,backspace,180,1,3148.9000000003725,864421.0999999996,7155,WL,C,5.0
6,22.126999855041504,distr,37873.000144958496,Mon Jun 02 2025 15:18:07 GMT-0500 (Central Daylight Time),867719.5999999996,B,,O,backspace,131,1,3298.5,864421.0999999996,7155,WL,C,5.0
6,23.14299988746643,distr,36857.00011253357,Mon Jun 02 2025 15:18:07 GMT-0500 (Central Daylight Time),868736.2999999998,B,h,O,h,1006,1,4315.200000000186,864421.0999999996,7155,WL,C,5.0
6,23.276000022888184,distr,36723.99997711182,Mon Jun 02 2025 15:18:07 GMT-0500 (Central Daylight Time),868869.1999999993,B,ha,O,a,125,1,4448.0999999996275,864421.0999999996,7155,WL,C,5.0
6,23.4760000705719,distr,36523.9999294281,Mon Jun 02 2025 15:18:07 GMT-0500 (Central Daylight Time),869069.2999999998,B,hal,O,l,185,1,4648.200000000186,864421.0999999996,7155,WL,C,5.0
6,23.608999967575073,distr,36391.00003242493,Mon Jun 02 2025 15:18:07 GMT-0500 (Central Daylight Time),869202.3999999994,B,hall,O,l,128,1,4781.299999999814,864421.0999999996,7155,WL,C,5.0
6,24.009999990463257,distr,35990.00000953674,Mon Jun 02 2025 15:18:07 GMT-0500 (Central Daylight Time),869602.5999999996,B,hallenter,O,enter,387,1,5181.5,864421.0999999996,7155,WL,C,5.0
6,25.30900001525879,distr,34690.99998474121,Mon Jun 02 2025 15:18:07 GMT-0500 (Central Daylight Time),870902.0999999996,B,w,O,w,1283,1,1299.0999999996275,869603.0,7155,WL,C,6.0
6,25.408999919891357,distr,34591.00008010864,Mon Jun 02 2025 15:18:07 GMT-0500 (Central Daylight Time),871002.0999999996,B,wi,O,i,87,1,1399.0999999996275,869603.0,7155,WL,C,6.0
6,25.55900001525879,distr,34440.99998474121,Mon Jun 02 2025 15:18:07 GMT-0500 (Central Daylight Time),871152.0999999996,B,win,O,n,131,1,1549.0999999996275,869603.0,7155,WL,C,6.0
6,25.691999912261963,distr,34308.00008773804,Mon Jun 02 2025 15:18:07 GMT-0500 (Central Daylight Time),871285.3999999994,B,wint,O,t,126,1,1682.3999999994412,869603.0,7155,WL,C,6.0
6,25.842999935150146,distr,34157.00006484985,Mon Jun 02 2025 15:18:07 GMT-0500 (Central Daylight Time),871436.2999999998,B,winte,O,e,144,1,1833.2999999998137,869603.0,7155,WL,C,6.0
6,25.925999879837036,distr,34074.000120162964,Mon Jun 02 2025 15:18:07 GMT-0500 (Central Daylight Time),871518.6999999993,B,winter,O,r,73,1,1915.699999999255,869603.0,7155,WL,C,6.0
6,26.22499990463257,distr,33775.00009536743,Mon Jun 02 2025 15:18:07 GMT-0500 (Central Daylight Time),871818.3999999994,B,winterenter,O,enter,295,1,2215.399999999441,869603.0,7155,WL,C,6.0
6,26.55900001525879,distr,33440.99998474121,Mon Jun 02 2025 15:18:07 GMT-0500 (Central Daylight Time),872151.7999999998,B,c,O,c,316,1,333.20000000018626,871818.5999999996,7155,WL,C,7.0
6,26.64199995994568,distr,33358.00004005432,Mon Jun 02 2025 15:18:07 GMT-0500 (Central Daylight Time),872234.8999999994,B,ch,O,h,70,1,416.29999999981374,871818.5999999996,7155,WL,C,7.0
6,26.825000047683716,distr,33174.999952316284,Mon Jun 02 2025 15:18:07 GMT-0500 (Central Daylight Time),872418.5,B,chi,O,i,171,1,599.9000000003725,871818.5999999996,7155,WL,C,7.0
6,26.924999952316284,distr,33075.000047683716,Mon Jun 02 2025 15:18:07 GMT-0500 (Central Daylight Time),872518.1999999993,B,chir,O,r,91,1,699.5999999996275,871818.5999999996,7155,WL,C,7.0
6,27.22499990463257,distr,32775.00009536743,Mon Jun 02 2025 15:18:07 GMT-0500 (Central Daylight Time),872818.2999999998,B,chirs,O,s,287,1,999.7000000001863,871818.5999999996,7155,WL,C,7.0
6,27.524999856948853,distr,32475.000143051147,Mon Jun 02 2025 15:18:07 GMT-0500 (Central Daylight Time),873118.3999999994,B,chirst,O,t,283,1,1299.7999999998137,871818.5999999996,7155,WL,C,7.0
6,27.875,distr,32125.0,Mon Jun 02 2025 15:18:07 GMT-0500 (Central Daylight Time),873467.7999999998,B,chirstm,O,m,343,1,1649.2000000001863,871818.5999999996,7155,WL,C,7.0
6,28.04200005531311,distr,31957.99994468689,Mon Jun 02 2025 15:18:07 GMT-0500 (Central Daylight Time),873634.6999999993,B,chirstma,O,a,147,1,1816.0999999996275,871818.5999999996,7155,WL,C,7.0
6,28.191999912261963,distr,31808.000087738037,Mon Jun 02 2025 15:18:07 GMT-0500 (Central Daylight Time),873784.7999999998,B,chirstmas,O,s,139,1,1966.2000000001863,871818.5999999996,7155,WL,C,7.0
6,28.44099998474121,distr,31559.00001525879,Mon Jun 02 2025 15:18:07 GMT-0500 (Central Daylight Time),874034.3999999994,B,chirstmasenter,O,enter,245,1,2215.7999999998137,871818.5999999996,7155,WL,C,7.0
6,28.840999841690063,distr,31159.000158309937,Mon Jun 02 2025 15:18:07 GMT-0500 (Central Daylight Time),874434.2999999998,B,m,O,m,379,1,399.6000000005588,874034.6999999993,7155,WL,C,8.0
6,29.007999897003174,distr,30992.000102996826,Mon Jun 02 2025 15:18:07 GMT-0500 (Central Daylight Time),874601.0,B,mo,O,o,155,1,566.3000000007451,874034.6999999993,7155,WL,C,8.0
6,29.12399983406067,distr,30876.00016593933,Mon Jun 02 2025 15:18:07 GMT-0500 (Central Daylight Time),874717.5,B,mot,O,t,109,1,682.8000000007451,874034.6999999993,7155,WL,C,8.0
6,29.240999937057495,distr,30759.000062942505,Mon Jun 02 2025 15:18:07 GMT-0500 (Central Daylight Time),874834.3999999994,B,moth,O,h,104,1,799.7000000001863,874034.6999999993,7155,WL,C,8.0
6,29.323999881744385,distr,30676.000118255615,Mon Jun 02 2025 15:18:07 GMT-0500 (Central Daylight Time),874917.5,B,mothe,O,e,67,1,882.8000000007451,874034.6999999993,7155,WL,C,8.0
6,29.44099998474121,distr,30559.00001525879,Mon Jun 02 2025 15:18:07 GMT-0500 (Central Daylight Time),875034.1999999993,B,mother,O,r,112,1,999.5,874034.6999999993,7155,WL,C,8.0
6,29.94099998474121,distr,30059.00001525879,Mon Jun 02 2025 15:18:07 GMT-0500 (Central Daylight Time),875534.0999999996,B,motherenter,O,enter,491,1,1499.4000000003725,874034.6999999993,7155,WL,C,8.0
6,32.10800004005432,distr,27891.99995994568,Mon Jun 02 2025 15:18:07 GMT-0500 (Central Daylight Time),877701.3999999994,B,m,O,m,2154,1,2167.0,875534.3999999994,7155,WL,C,9.0
6,32.28999996185303,distr,27710.000038146973,Mon Jun 02 2025 15:18:07 GMT-0500 (Central Daylight Time),877883.1999999993,B,mo,O,o,176,1,2348.7999999998137,875534.3999999994,7155,WL,C,9.0
6,32.45700001716614,distr,27542.999982833862,Mon Jun 02 2025 15:18:07 GMT-0500 (Central Daylight Time),878049.8999999994,B,mon,O,n,146,1,2515.5,875534.3999999994,7155,WL,C,9.0
6,32.639999866485596,distr,27360.000133514404,Mon Jun 02 2025 15:18:07 GMT-0500 (Central Daylight Time),878233.1999999993,B,mone,O,e,163,1,2698.7999999998137,875534.3999999994,7155,WL,C,9.0
6,32.82299995422363,distr,27177.000045776367,Mon Jun 02 2025 15:18:07 GMT-0500 (Central Daylight Time),878416.3999999994,B,money,O,y,164,1,2882.0,875534.3999999994,7155,WL,C,9.0
6,33.19000005722046,distr,26809.99994277954,Mon Jun 02 2025 15:18:07 GMT-0500 (Central Daylight Time),878783.0,B,moneyenter,O,enter,349,1,3248.600000000559,875534.3999999994,7155,WL,C,9.0
6,34.02300000190735,distr,25976.99999809265,Mon Jun 02 2025 15:18:07 GMT-0500 (Central Daylight Time),879616.0,B,h,O,h,815,1,832.6000000005588,878783.3999999994,7155,WL,C,10.0
6,34.37299990653992,distr,25627.000093460083,Mon Jun 02 2025 15:18:07 GMT-0500 (Central Daylight Time),879965.8999999994,B,ho,O,o,341,1,1182.5,878783.3999999994,7155,WL,C,10.0
6,34.723000049591064,distr,25276.999950408936,Mon Jun 02 2025 15:18:07 GMT-0500 (Central Daylight Time),880315.8999999994,B,hot,O,t,343,1,1532.5,878783.3999999994,7155,WL,C,10.0
6,34.888999938964844,distr,25111.000061035156,Mon Jun 02 2025 15:18:07 GMT-0500 (Central Daylight Time),880482.5,B,hote,O,e,161,1,1699.1000000005588,878783.3999999994,7155,WL,C,10.0
6,35.15599989891052,distr,24844.000101089478,Mon Jun 02 2025 15:18:07 GMT-0500 (Central Daylight Time),880749.0999999996,B,hotel,O,l,251,1,1965.7000000001863,878783.3999999994,7155,WL,C,10.0
6,36.73899984359741,distr,23261.000156402588,Mon Jun 02 2025 15:18:07 GMT-0500 (Central Daylight Time),882332.0,B,hotelenter,O,enter,1576,1,3548.600000000559,878783.3999999994,7155,WL,C,10.0
6,50.8510000705719,distr,9148.9999294281,Mon Jun 02 2025 15:18:07 GMT-0500 (Central Daylight Time),896444.1999999993,B,d,O,d,14106,1,14111.899999999441,882332.2999999998,7155,WL,C,11.0
6,51.00099992752075,distr,8999.000072479248,Mon Jun 02 2025 15:18:07 GMT-0500 (Central Daylight Time),896594.0999999996,B,di,O,i,145,1,14261.799999999814,882332.2999999998,7155,WL,C,11.0
6,51.25099992752075,distr,8749.000072479248,Mon Jun 02 2025 15:18:07 GMT-0500 (Central Daylight Time),896843.8999999994,B,dia,O,a,244,1,14511.599999999627,882332.2999999998,7155,WL,C,11.0
6,51.58399987220764,distr,8416.000127792358,Mon Jun 02 2025 15:18:07 GMT-0500 (Central Daylight Time),897177.0999999996,B,diam,O,m,322,1,14844.799999999814,882332.2999999998,7155,WL,C,11.0
6,51.75099992752075,distr,8249.000072479248,Mon Jun 02 2025 15:18:07 GMT-0500 (Central Daylight Time),897343.7999999998,B,diamo,O,o,157,1,15011.5,882332.2999999998,7155,WL,C,11.0
6,51.93400001525879,distr,8065.999984741211,Mon Jun 02 2025 15:18:07 GMT-0500 (Central Daylight Time),897527.1999999993,B,diamon,O,n,166,1,15194.899999999441,882332.2999999998,7155,WL,C,11.0
6,52.08399987220764,distr,7916.000127792358,Mon Jun 02 2025 15:18:07 GMT-0500 (Central Daylight Time),897677.3999999994,B,diamond,O,d,134,1,15345.099999999627,882332.2999999998,7155,WL,C,11.0
6,52.884000062942505,distr,7115.999937057495,Mon Jun 02 2025 15:18:07 GMT-0500 (Central Daylight Time),898476.7999999998,B,diamondenter,O,enter,784,1,16144.5,882332.2999999998,7155,WL,C,11.0
6,60.014999866485596,distr,-14.999866485595703,Mon Jun 02 2025 15:18:07 GMT-0500 (Central Daylight Time),905608.0,B,None,O,None,7127,1,7130.9000000003725,898477.0999999996,7155,WL,C,12.0
7,2.949000120162964,immed,57050.999879837036,Mon Jun 02 2025 15:18:07 GMT-0500 (Central Daylight Time),915488.1999999993,A,s,O,s,2939,1,2949.0,912539.1999999993,7155,WL,C,1.0
7,3.365000009536743,immed,56634.99999046326,Mon Jun 02 2025 15:18:07 GMT-0500 (Central Daylight Time),915904.5999999996,A,sk,O,k,397,1,3365.4000000003725,912539.1999999993,7155,WL,C,1.0
7,3.632000207901001,immed,56367.999792099,Mon Jun 02 2025 15:18:07 GMT-0500 (Central Daylight Time),916171.0,A,sky,O,y,261,1,3631.800000000745,912539.1999999993,7155,WL,C,1.0
7,4.265000104904175,immed,55734.999895095825,Mon Jun 02 2025 15:18:07 GMT-0500 (Central Daylight Time),916804.5,A,skyenter,O,enter,619,1,4265.300000000745,912539.1999999993,7155,WL,C,1.0
7,4.7820000648498535,immed,55217.99993515015,Mon Jun 02 2025 15:18:07 GMT-0500 (Central Daylight Time),917320.8999999994,A,d,O,d,505,1,516.2000000001863,916804.6999999993,7155,WL,C,2.0
7,4.9150002002716064,immed,55084.99979972839,Mon Jun 02 2025 15:18:07 GMT-0500 (Central Daylight Time),917454.2999999998,A,do,O,o,115,1,649.6000000005588,916804.6999999993,7155,WL,C,2.0
7,5.0980000495910645,immed,54901.999950408936,Mon Jun 02 2025 15:18:07 GMT-0500 (Central Daylight Time),917637.3999999994,A,dol,O,l,175,1,832.7000000001863,916804.6999999993,7155,WL,C,2.0
7,5.265000104904175,immed,54734.999895095825,Mon Jun 02 2025 15:18:07 GMT-0500 (Central Daylight Time),917803.8999999994,A,doll,O,l,152,1,999.2000000001863,916804.6999999993,7155,WL,C,2.0
7,5.765000104904175,immed,54234.999895095825,Mon Jun 02 2025 15:18:07 GMT-0500 (Central Daylight Time),918303.8999999994,A,dolla,O,a,482,1,1499.2000000001863,916804.6999999993,7155,WL,C,2.0
7,5.898000001907349,immed,54101.99999809265,Mon Jun 02 2025 15:18:07 GMT-0500 (Central Daylight Time),918437.1999999993,A,dollar,O,r,118,1,1632.5,916804.6999999993,7155,WL,C,2.0
7,6.215000152587891,immed,53784.99984741211,Mon Jun 02 2025 15:18:07 GMT-0500 (Central Daylight Time),918753.7999999998,A,dollarenter,O,enter,304,1,1949.1000000005588,916804.6999999993,7155,WL,C,2.0
7,7.731000185012817,immed,52268.99981498718,Mon Jun 02 2025 15:18:07 GMT-0500 (Central Daylight Time),920270.0,A,d,O,d,1499,1,1516.0,918754.0,7155,WL,C,3.0
7,8.047000169754028,immed,51952.99983024597,Mon Jun 02 2025 15:18:07 GMT-0500 (Central Daylight Time),920586.5,A,di,O,i,312,1,1832.5,918754.0,7155,WL,C,3.0
7,8.28000020980835,immed,51719.99979019165,Mon Jun 02 2025 15:18:07 GMT-0500 (Central Daylight Time),920819.6999999993,A,dia,O,a,219,1,2065.699999999255,918754.0,7155,WL,C,3.0
7,8.430000066757202,immed,51569.9999332428,Mon Jun 02 2025 15:18:07 GMT-0500 (Central Daylight Time),920969.6999999993,A,diam,O,m,138,1,2215.699999999255,918754.0,7155,WL,C,3.0
7,8.597000122070312,immed,51402.99987792969,Mon Jun 02 2025 15:18:07 GMT-0500 (Central Daylight Time),921136.2999999998,A,diamo,O,o,156,1,2382.2999999998137,918754.0,7155,WL,C,3.0
7,8.78000020980835,immed,51219.99979019165,Mon Jun 02 2025 15:18:07 GMT-0500 (Central Daylight Time),921319.5999999996,A,diamon,O,n,173,1,2565.5999999996275,918754.0,7155,WL,C,3.0
7,9.080000162124634,immed,50919.999837875366,Mon Jun 02 2025 15:18:07 GMT-0500 (Central Daylight Time),921619.5999999996,A,diamond,O,d,286,1,2865.5999999996275,918754.0,7155,WL,C,3.0
7,9.263000011444092,immed,50736.99998855591,Mon Jun 02 2025 15:18:07 GMT-0500 (Central Daylight Time),921802.5,A,diamondenter,O,enter,177,1,3048.5,918754.0,7155,WL,C,3.0
7,9.815000057220459,immed,50184.99994277954,Mon Jun 02 2025 15:18:07 GMT-0500 (Central Daylight Time),922354.0999999996,A,m,O,m,547,1,551.2999999998137,921802.7999999998,7155,WL,C,4.0
7,9.963000059127808,immed,50036.99994087219,Mon Jun 02 2025 15:18:07 GMT-0500 (Central Daylight Time),922502.6999999993,A,mo,O,o,140,1,699.8999999994412,921802.7999999998,7155,WL,C,4.0
7,10.146000146865845,immed,49853.999853134155,Mon Jun 02 2025 15:18:07 GMT-0500 (Central Daylight Time),922685.6999999993,A,mot,O,t,175,1,882.8999999994412,921802.7999999998,7155,WL,C,4.0
7,10.230000019073486,immed,49769.999980926514,Mon Jun 02 2025 15:18:07 GMT-0500 (Central Daylight Time),922769.2999999998,A,moth,O,h,72,1,966.5,921802.7999999998,7155,WL,C,4.0
7,10.330000162124634,immed,49669.999837875366,Mon Jun 02 2025 15:18:07 GMT-0500 (Central Daylight Time),922869.1999999993,A,mothe,O,e,84,1,1066.3999999994412,921802.7999999998,7155,WL,C,4.0
7,10.413000106811523,immed,49586.99989318848,Mon Jun 02 2025 15:18:07 GMT-0500 (Central Daylight Time),922952.2999999998,A,mother,O,r,64,1,1149.5,921802.7999999998,7155,WL,C,4.0
7,11.430000066757202,immed,48569.9999332428,Mon Jun 02 2025 15:18:07 GMT-0500 (Central Daylight Time),923969.0999999996,A,motherenter,O,enter,997,1,2166.2999999998137,921802.7999999998,7155,WL,C,4.0
7,11.913000106811523,immed,48086.99989318848,Mon Jun 02 2025 15:18:07 GMT-0500 (Central Daylight Time),924452.1999999993,A,c,O,c,476,1,482.69999999925494,923969.5,7155,WL,C,5.0
7,12.058000087738037,immed,47941.99991226196,Mon Jun 02 2025 15:18:07 GMT-0500 (Central Daylight Time),924597.2999999998,A,ch,O,h,140,1,627.7999999998137,923969.5,7155,WL,C,5.0
