block_c,block_dur,condition,countdown,datetime,endtime,list,multichar_response,project,response,response_time,session_number,start_end,starttime,subject_id,task,task_vers,trial
,,,,Thu Mar 19 2026 15:08:51 GMT-0500 (Central Daylight Time),,,,O,space,593,1,,,7781,WL,C,
prac,,0,,Thu Mar 19 2026 15:08:51 GMT-0500 (Central Daylight Time),,NA,b,O,b,3979,1,,,7781,WL,C,1.0
prac,,0,,Thu Mar 19 2026 15:08:51 GMT-0500 (Central Daylight Time),,NA,bo,O,o,1282,1,,,7781,WL,C,1.0
prac,,0,,Thu Mar 19 2026 15:08:51 GMT-0500 (Central Daylight Time),,NA,boo,O,o,147,1,,,7781,WL,C,1.0
prac,,0,,Thu Mar 19 2026 15:08:51 GMT-0500 (Central Daylight Time),,NA,boos,O,s,95,1,,,7781,WL,C,1.0
prac,,0,,Thu Mar 19 2026 15:08:51 GMT-0500 (Central Daylight Time),,NA,boost,O,t,177,1,,,7781,WL,C,1.0
prac,,0,,Thu Mar 19 2026 15:08:51 GMT-0500 (Central Daylight Time),,NA,boostenter,O,enter,2120,1,,,7781,WL,C,1.0
1,11.793999910354614,learn,48206.000089645386,Thu Mar 19 2026 15:08:51 GMT-0500 (Central Daylight Time),362003.8000000715,A,c,O,c,11779,1,11794.600000023842,350209.2000000477,7781,WL,C,1.0
1,13.194000005722046,learn,46805.999994277954,Thu Mar 19 2026 15:08:51 GMT-0500 (Central Daylight Time),363403.8000000715,A,co,O,o,1388,1,13194.600000023842,350209.2000000477,7781,WL,C,1.0
1,13.47599983215332,learn,46524.00016784668,Thu Mar 19 2026 15:08:51 GMT-0500 (Central Daylight Time),363686.5,A,cor,O,r,261,1,13477.299999952316,350209.2000000477,7781,WL,C,1.0
1,14.359999895095825,learn,45640.000104904175,Thu Mar 19 2026 15:08:51 GMT-0500 (Central Daylight Time),364569.7000000477,A,corn,O,n,870,1,14360.5,350209.2000000477,7781,WL,C,1.0
1,18.424999952316284,learn,41575.000047683716,Thu Mar 19 2026 15:08:51 GMT-0500 (Central Daylight Time),368635.2000000477,A,cornenter,O,enter,4059,1,18426.0,350209.2000000477,7781,WL,C,1.0
1,19.656999826431274,learn,40343.000173568726,Thu Mar 19 2026 15:08:51 GMT-0500 (Central Daylight Time),369867.3000000715,A,w,O,w,1222,1,1231.7000000476837,368635.60000002384,7781,WL,C,2.0
1,19.806999921798706,learn,40193.000078201294,Thu Mar 19 2026 15:08:51 GMT-0500 (Central Daylight Time),370017.60000002384,A,wh,O,h,142,1,1382.0,368635.60000002384,7781,WL,C,2.0
1,19.95799994468689,learn,40042.00005531311,Thu Mar 19 2026 15:08:51 GMT-0500 (Central Daylight Time),370167.8000000715,A,whe,O,e,127,1,1532.2000000476837,368635.60000002384,7781,WL,C,2.0
1,20.10800004005432,learn,39891.99995994568,Thu Mar 19 2026 15:08:51 GMT-0500 (Central Daylight Time),370318.2000000477,A,whea,O,a,137,1,1682.6000000238419,368635.60000002384,7781,WL,C,2.0
1,20.240999937057495,learn,39759.000062942505,Thu Mar 19 2026 15:08:51 GMT-0500 (Central Daylight Time),370451.5,A,wheat,O,t,113,1,1815.8999999761581,368635.60000002384,7781,WL,C,2.0
1,21.44099998474121,learn,38559.00001525879,Thu Mar 19 2026 15:08:51 GMT-0500 (Central Daylight Time),371651.0,A,wheatenter,O,enter,1188,1,3015.399999976158,368635.60000002384,7781,WL,C,2.0
1,25.072999954223633,learn,34927.00004577637,Thu Mar 19 2026 15:08:51 GMT-0500 (Central Daylight Time),375283.5,A,d,O,d,3615,1,3631.1999999284744,371652.3000000715,7781,WL,C,3.0
1,25.289999961853027,learn,34710.00003814697,Thu Mar 19 2026 15:08:51 GMT-0500 (Central Daylight Time),375499.8000000715,A,do,O,o,207,1,3847.5,371652.3000000715,7781,WL,C,3.0
1,25.605000019073486,learn,34394.999980926514,Thu Mar 19 2026 15:08:51 GMT-0500 (Central Daylight Time),375815.10000002384,A,doc,O,c,300,1,4162.799999952316,371652.3000000715,7781,WL,C,3.0
1,26.006999969482422,learn,33993.00003051758,Thu Mar 19 2026 15:08:51 GMT-0500 (Central Daylight Time),376216.90000009537,A,doct,O,t,378,1,4564.600000023842,371652.3000000715,7781,WL,C,3.0
1,26.138999938964844,learn,33861.000061035156,Thu Mar 19 2026 15:08:51 GMT-0500 (Central Daylight Time),376349.2000000477,A,docto,O,o,112,1,4696.899999976158,371652.3000000715,7781,WL,C,3.0
1,26.32200002670288,learn,33677.99997329712,Thu Mar 19 2026 15:08:51 GMT-0500 (Central Daylight Time),376532.5,A,doctor,O,r,168,1,4880.199999928474,371652.3000000715,7781,WL,C,3.0
1,28.97000002861023,learn,31029.99997138977,Thu Mar 19 2026 15:08:51 GMT-0500 (Central Daylight Time),379180.5,A,doctorw,O,w,2626,1,7528.199999928474,371652.3000000715,7781,WL,C,3.0
1,29.054999828338623,learn,30945.000171661377,Thu Mar 19 2026 15:08:51 GMT-0500 (Central Daylight Time),379264.90000009537,A,doctorwh,O,h,68,1,7612.600000023842,371652.3000000715,7781,WL,C,3.0
1,29.188999891281128,learn,30811.000108718872,Thu Mar 19 2026 15:08:51 GMT-0500 (Central Daylight Time),379399.10000002384,A,doctorwhe,O,e,118,1,7746.799999952316,371652.3000000715,7781,WL,C,3.0
1,29.304999828338623,learn,30695.000171661377,Thu Mar 19 2026 15:08:51 GMT-0500 (Central Daylight Time),379515.3000000715,A,doctorwhea,O,a,106,1,7863.0,371652.3000000715,7781,WL,C,3.0
1,29.421000003814697,learn,30578.999996185303,Thu Mar 19 2026 15:08:51 GMT-0500 (Central Daylight Time),379631.40000009537,A,doctorwheat,O,t,89,1,7979.100000023842,371652.3000000715,7781,WL,C,3.0
1,30.97099995613098,learn,29029.00004386902,Thu Mar 19 2026 15:08:51 GMT-0500 (Central Daylight Time),381181.10000002384,A,doctorwheatenter,O,enter,1530,1,9528.799999952316,371652.3000000715,7781,WL,C,3.0
1,31.97099995613098,learn,28029.00004386902,Thu Mar 19 2026 15:08:51 GMT-0500 (Central Daylight Time),382180.90000009537,A,f,O,f,982,1,999.6000000238419,381181.3000000715,7781,WL,C,4.0
1,32.12100005149841,learn,27878.999948501587,Thu Mar 19 2026 15:08:51 GMT-0500 (Central Daylight Time),382331.0,A,fl,O,l,133,1,1149.6999999284744,381181.3000000715,7781,WL,C,4.0
1,32.23599982261658,learn,27764.000177383423,Thu Mar 19 2026 15:08:51 GMT-0500 (Central Daylight Time),382446.5,A,fla,O,a,89,1,1265.1999999284744,381181.3000000715,7781,WL,C,4.0
1,32.520999908447266,learn,27479.000091552734,Thu Mar 19 2026 15:08:51 GMT-0500 (Central Daylight Time),382730.60000002384,A,flag,O,g,270,1,1549.2999999523163,381181.3000000715,7781,WL,C,4.0
1,33.32099986076355,learn,26679.00013923645,Thu Mar 19 2026 15:08:51 GMT-0500 (Central Daylight Time),383531.10000002384,A,flagenter,O,enter,780,1,2349.7999999523163,381181.3000000715,7781,WL,C,4.0
1,43.64800000190735,learn,16351.999998092651,Thu Mar 19 2026 15:08:51 GMT-0500 (Central Daylight Time),393858.10000002384,A,b,O,b,10318,1,10326.699999928474,383531.40000009537,7781,WL,C,5.0
1,43.83200001716614,learn,16167.999982833862,Thu Mar 19 2026 15:08:51 GMT-0500 (Central Daylight Time),394041.8000000715,A,ba,O,a,177,1,10510.399999976158,383531.40000009537,7781,WL,C,5.0
1,43.99799990653992,learn,16002.000093460083,Thu Mar 19 2026 15:08:51 GMT-0500 (Central Daylight Time),394208.40000009537,A,bar,O,r,154,1,10677.0,383531.40000009537,7781,WL,C,5.0
1,44.264999866485596,learn,15735.000133514404,Thu Mar 19 2026 15:08:51 GMT-0500 (Central Daylight Time),394474.8000000715,A,barn,O,n,251,1,10943.399999976158,383531.40000009537,7781,WL,C,5.0
1,45.06499981880188,learn,14935.00018119812,Thu Mar 19 2026 15:08:51 GMT-0500 (Central Daylight Time),395275.0,A,barnenter,O,enter,785,1,11743.599999904633,383531.40000009537,7781,WL,C,5.0
1,58.39699983596802,learn,1603.0001640319824,Thu Mar 19 2026 15:08:51 GMT-0500 (Central Daylight Time),408606.90000009537,A,n,O,n,13323,1,13331.700000047684,395275.2000000477,7781,WL,C,6.0
1,58.562999963760376,learn,1437.000036239624,Thu Mar 19 2026 15:08:51 GMT-0500 (Central Daylight Time),408773.5,A,na,O,a,148,1,13498.299999952316,395275.2000000477,7781,WL,C,6.0
1,58.87899994850159,learn,1121.000051498413,Thu Mar 19 2026 15:08:51 GMT-0500 (Central Daylight Time),409089.5,A,nai,O,i,293,1,13814.299999952316,395275.2000000477,7781,WL,C,6.0
1,59.4449999332428,learn,555.0000667572021,Thu Mar 19 2026 15:08:51 GMT-0500 (Central Daylight Time),409654.8000000715,A,nail,O,l,552,1,14379.600000023842,395275.2000000477,7781,WL,C,6.0
1,60.01300001144409,learn,-13.000011444091797,Thu Mar 19 2026 15:08:51 GMT-0500 (Central Daylight Time),410223.3000000715,A,nailNone,O,None,562,1,14948.100000023842,395275.2000000477,7781,WL,C,6.0
2,1.6820001602172852,learn,58317.999839782715,Thu Mar 19 2026 15:08:51 GMT-0500 (Central Daylight Time),486247.7000000477,A,w,O,w,1659,1,1681.7000000476837,484566.0,7781,WL,C,1.0
2,1.9300000667572021,learn,58069.9999332428,Thu Mar 19 2026 15:08:51 GMT-0500 (Central Daylight Time),486495.8000000715,A,wh,O,h,224,1,1929.8000000715256,484566.0,7781,WL,C,1.0
2,2.0810000896453857,learn,57918.999910354614,Thu Mar 19 2026 15:08:51 GMT-0500 (Central Daylight Time),486647.0,A,whe,O,e,133,1,2081.0,484566.0,7781,WL,C,1.0
2,2.198000192642212,learn,57801.99980735779,Thu Mar 19 2026 15:08:51 GMT-0500 (Central Daylight Time),486764.10000002384,A,whea,O,a,109,1,2198.100000023842,484566.0,7781,WL,C,1.0
2,2.3320000171661377,learn,57667.99998283386,Thu Mar 19 2026 15:08:51 GMT-0500 (Central Daylight Time),486898.0,A,wheat,O,t,113,1,2332.0,484566.0,7781,WL,C,1.0
2,3.365000009536743,learn,56634.99999046326,Thu Mar 19 2026 15:08:51 GMT-0500 (Central Daylight Time),487931.0,A,wheatenter,O,enter,1017,1,3365.0,484566.0,7781,WL,C,1.0
2,3.864000082015991,learn,56135.99991798401,Thu Mar 19 2026 15:08:51 GMT-0500 (Central Daylight Time),488430.0,A,c,O,c,488,1,498.59999990463257,487931.40000009537,7781,WL,C,2.0
2,4.031000137329102,learn,55968.9998626709,Thu Mar 19 2026 15:08:51 GMT-0500 (Central Daylight Time),488596.60000002384,A,co,O,o,148,1,665.1999999284744,487931.40000009537,7781,WL,C,2.0
2,4.213000059127808,learn,55786.99994087219,Thu Mar 19 2026 15:08:51 GMT-0500 (Central Daylight Time),488779.2000000477,A,cor,O,r,173,1,847.7999999523163,487931.40000009537,7781,WL,C,2.0
2,4.5980000495910645,learn,55401.999950408936,Thu Mar 19 2026 15:08:51 GMT-0500 (Central Daylight Time),489163.8000000715,A,corn,O,n,375,1,1232.3999999761581,487931.40000009537,7781,WL,C,2.0
2,5.63100004196167,learn,54368.99995803833,Thu Mar 19 2026 15:08:51 GMT-0500 (Central Daylight Time),490196.8000000715,A,cornenter,O,enter,1020,1,2265.399999976158,487931.40000009537,7781,WL,C,2.0
2,6.832000017166138,learn,53167.99998283386,Thu Mar 19 2026 15:08:51 GMT-0500 (Central Daylight Time),491397.7000000477,A,c,O,c,1191,1,1200.5,490197.2000000477,7781,WL,C,3.0
2,7.0320000648498535,learn,52967.99993515015,Thu Mar 19 2026 15:08:51 GMT-0500 (Central Daylight Time),491597.60000002384,A,ca,O,a,183,1,1400.3999999761581,490197.2000000477,7781,WL,C,3.0
2,7.315000057220459,learn,52684.99994277954,Thu Mar 19 2026 15:08:51 GMT-0500 (Central Daylight Time),491880.60000002384,A,cat,O,t,270,1,1683.3999999761581,490197.2000000477,7781,WL,C,3.0
2,7.447000026702881,learn,52552.99997329712,Thu Mar 19 2026 15:08:51 GMT-0500 (Central Daylight Time),492012.40000009537,A,catt,O,t,122,1,1815.2000000476837,490197.2000000477,7781,WL,C,3.0
2,7.680000066757202,learn,52319.9999332428,Thu Mar 19 2026 15:08:51 GMT-0500 (Central Daylight Time),492245.60000002384,A,cattl,O,l,209,1,2048.399999976158,490197.2000000477,7781,WL,C,3.0
2,7.815000057220459,learn,52184.99994277954,Thu Mar 19 2026 15:08:51 GMT-0500 (Central Daylight Time),492381.10000002384,A,cattle,O,e,126,1,2183.899999976158,490197.2000000477,7781,WL,C,3.0
2,8.546000003814697,learn,51453.9999961853,Thu Mar 19 2026 15:08:51 GMT-0500 (Central Daylight Time),493111.8000000715,A,cattleenter,O,enter,717,1,2914.600000023842,490197.2000000477,7781,WL,C,3.0
2,8.980000019073486,learn,51019.999980926514,Thu Mar 19 2026 15:08:51 GMT-0500 (Central Daylight Time),493545.90000009537,A,c,O,c,428,1,433.8000000715256,493112.10000002384,7781,WL,C,4.0
2,9.163000106811523,learn,50836.99989318848,Thu Mar 19 2026 15:08:51 GMT-0500 (Central Daylight Time),493728.90000009537,A,ca,O,a,177,1,616.8000000715256,493112.10000002384,7781,WL,C,4.0
2,9.396000146865845,learn,50603.999853134155,Thu Mar 19 2026 15:08:51 GMT-0500 (Central Daylight Time),493962.2000000477,A,cam,O,m,220,1,850.1000000238419,493112.10000002384,7781,WL,C,4.0
2,10.080000162124634,learn,49919.999837875366,Thu Mar 19 2026 15:08:51 GMT-0500 (Central Daylight Time),494646.3000000715,A,camp,O,p,674,1,1534.2000000476837,493112.10000002384,7781,WL,C,4.0
2,11.412000179290771,learn,48587.99982070923,Thu Mar 19 2026 15:08:51 GMT-0500 (Central Daylight Time),495978.0,A,campenter,O,enter,1317,1,2865.899999976158,493112.10000002384,7781,WL,C,4.0
2,12.229000091552734,learn,47770.999908447266,Thu Mar 19 2026 15:08:51 GMT-0500 (Central Daylight Time),496794.5,A,l,O,l,803,1,816.0999999046326,495978.40000009537,7781,WL,C,5.0
2,12.394999980926514,learn,47605.000019073486,Thu Mar 19 2026 15:08:51 GMT-0500 (Central Daylight Time),496960.8000000715,A,le,O,e,151,1,982.3999999761581,495978.40000009537,7781,WL,C,5.0
2,12.695000171661377,learn,47304.99982833862,Thu Mar 19 2026 15:08:51 GMT-0500 (Central Daylight Time),497261.3000000715,A,let,O,t,289,1,1282.8999999761581,495978.40000009537,7781,WL,C,5.0
2,12.812999963760376,learn,47187.000036239624,Thu Mar 19 2026 15:08:51 GMT-0500 (Central Daylight Time),497379.0,A,lett,O,t,110,1,1400.5999999046326,495978.40000009537,7781,WL,C,5.0
2,12.995000123977661,learn,47004.99987602234,Thu Mar 19 2026 15:08:51 GMT-0500 (Central Daylight Time),497561.3000000715,A,lette,O,e,166,1,1582.8999999761581,495978.40000009537,7781,WL,C,5.0
2,13.07800006866455,learn,46921.99993133545,Thu Mar 19 2026 15:08:51 GMT-0500 (Central Daylight Time),497644.40000009537,A,letter,O,r,73,1,1666.0,495978.40000009537,7781,WL,C,5.0
2,13.878000020980835,learn,46121.999979019165,Thu Mar 19 2026 15:08:51 GMT-0500 (Central Daylight Time),498443.5,A,letterenter,O,enter,781,1,2465.0999999046326,495978.40000009537,7781,WL,C,5.0
2,14.42799997329712,learn,45572.00002670288,Thu Mar 19 2026 15:08:51 GMT-0500 (Central Daylight Time),498994.2000000477,A,d,O,d,544,1,550.3999999761581,498443.8000000715,7781,WL,C,6.0
2,14.59500002861023,learn,45404.99997138977,Thu Mar 19 2026 15:08:51 GMT-0500 (Central Daylight Time),499160.8000000715,A,do,O,o,160,1,717.0,498443.8000000715,7781,WL,C,6.0
2,14.74400019645691,learn,45255.99980354309,Thu Mar 19 2026 15:08:51 GMT-0500 (Central Daylight Time),499310.10000002384,A,doc,O,c,135,1,866.2999999523163,498443.8000000715,7781,WL,C,6.0
2,15.062999963760376,learn,44937.000036239624,Thu Mar 19 2026 15:08:51 GMT-0500 (Central Daylight Time),499629.2000000477,A,doct,O,t,311,1,1185.3999999761581,498443.8000000715,7781,WL,C,6.0
2,15.177000045776367,learn,44822.99995422363,Thu Mar 19 2026 15:08:51 GMT-0500 (Central Daylight Time),499742.60000002384,A,docto,O,o,100,1,1298.7999999523163,498443.8000000715,7781,WL,C,6.0
2,15.360000133514404,learn,44639.999866485596,Thu Mar 19 2026 15:08:51 GMT-0500 (Central Daylight Time),499926.2000000477,A,doctor,O,r,164,1,1482.3999999761581,498443.8000000715,7781,WL,C,6.0
2,16.343000173568726,learn,43656.999826431274,Thu Mar 19 2026 15:08:51 GMT-0500 (Central Daylight Time),500909.40000009537,A,doctorenter,O,enter,970,1,2465.600000023842,498443.8000000715,7781,WL,C,6.0
2,17.045000076293945,learn,42954.999923706055,Thu Mar 19 2026 15:08:51 GMT-0500 (Central Daylight Time),501610.5,A,b,O,b,678,1,700.8999999761581,500909.60000002384,7781,WL,C,7.0
2,17.259999990463257,learn,42740.00000953674,Thu Mar 19 2026 15:08:51 GMT-0500 (Central Daylight Time),501825.90000009537,A,bo,O,o,208,1,916.3000000715256,500909.60000002384,7781,WL,C,7.0
2,17.66000008583069,learn,42339.99991416931,Thu Mar 19 2026 15:08:51 GMT-0500 (Central Daylight Time),502225.5,A,bod,O,d,383,1,1315.8999999761581,500909.60000002384,7781,WL,C,7.0
2,17.993000030517578,learn,42006.99996948242,Thu Mar 19 2026 15:08:51 GMT-0500 (Central Daylight Time),502558.90000009537,A,body,O,y,312,1,1649.3000000715256,500909.60000002384,7781,WL,C,7.0
2,18.659000158309937,learn,41340.99984169006,Thu Mar 19 2026 15:08:51 GMT-0500 (Central Daylight Time),503225.40000009537,A,bodyenter,O,enter,660,1,2315.8000000715256,500909.60000002384,7781,WL,C,7.0
2,22.358999967575073,learn,37641.00003242493,Thu Mar 19 2026 15:08:51 GMT-0500 (Central Daylight Time),506924.90000009537,A,s,O,s,3681,1,3698.7000000476837,503226.2000000477,7781,WL,C,8.0
2,22.475000143051147,learn,37524.99985694885,Thu Mar 19 2026 15:08:51 GMT-0500 (Central Daylight Time),507041.10000002384,A,sh,O,h,93,1,3814.899999976158,503226.2000000477,7781,WL,C,8.0
2,22.657999992370605,learn,37342.000007629395,Thu Mar 19 2026 15:08:51 GMT-0500 (Central Daylight Time),507223.90000009537,A,sho,O,o,169,1,3997.7000000476837,503226.2000000477,7781,WL,C,8.0
2,22.843000173568726,learn,37156.999826431274,Thu Mar 19 2026 15:08:51 GMT-0500 (Central Daylight Time),507409.40000009537,A,shor,O,r,170,1,4183.200000047684,503226.2000000477,7781,WL,C,8.0
2,23.125,learn,36875.0,Thu Mar 19 2026 15:08:51 GMT-0500 (Central Daylight Time),507690.8000000715,A,shore,O,e,262,1,4464.600000023842,503226.2000000477,7781,WL,C,8.0
2,23.841000080108643,learn,36158.99991989136,Thu Mar 19 2026 15:08:51 GMT-0500 (Central Daylight Time),508406.7000000477,A,shoreenter,O,enter,694,1,5180.5,503226.2000000477,7781,WL,C,8.0
2,28.973999977111816,learn,31026.000022888184,Thu Mar 19 2026 15:08:51 GMT-0500 (Central Daylight Time),513540.10000002384,A,s,O,s,5125,1,5133.100000023842,508407.0,7781,WL,C,9.0
2,29.506999969482422,learn,30493.000030517578,Thu Mar 19 2026 15:08:51 GMT-0500 (Central Daylight Time),514072.60000002384,A,su,O,u,526,1,5665.600000023842,508407.0,7781,WL,C,9.0
2,30.006999969482422,learn,29993.000030517578,Thu Mar 19 2026 15:08:51 GMT-0500 (Central Daylight Time),514573.10000002384,A,sug,O,g,482,1,6166.100000023842,508407.0,7781,WL,C,9.0
2,30.207000017166138,learn,29792.999982833862,Thu Mar 19 2026 15:08:51 GMT-0500 (Central Daylight Time),514772.60000002384,A,suga,O,a,189,1,6365.600000023842,508407.0,7781,WL,C,9.0
2,30.356000185012817,learn,29643.999814987183,Thu Mar 19 2026 15:08:51 GMT-0500 (Central Daylight Time),514921.90000009537,A,sugar,O,r,137,1,6514.900000095367,508407.0,7781,WL,C,9.0
2,31.07100009918213,learn,28928.99990081787,Thu Mar 19 2026 15:08:51 GMT-0500 (Central Daylight Time),515637.40000009537,A,sugarenter,O,enter,706,1,7230.400000095367,508407.0,7781,WL,C,9.0
2,34.7720000743866,learn,25227.999925613403,Thu Mar 19 2026 15:08:51 GMT-0500 (Central Daylight Time),519338.0,A,t,O,t,3679,1,3700.2999999523163,515637.7000000477,7781,WL,C,10.0
2,34.92200016975403,learn,25077.99983024597,Thu Mar 19 2026 15:08:51 GMT-0500 (Central Daylight Time),519487.90000009537,A,to,O,o,135,1,3850.2000000476837,515637.7000000477,7781,WL,C,10.0
2,35.73699998855591,learn,24263.00001144409,Thu Mar 19 2026 15:08:51 GMT-0500 (Central Daylight Time),520303.0,A,tow,O,w,803,1,4665.299999952316,515637.7000000477,7781,WL,C,10.0
2,35.97100019454956,learn,24028.99980545044,Thu Mar 19 2026 15:08:51 GMT-0500 (Central Daylight Time),520537.10000002384,A,towe,O,e,224,1,4899.399999976158,515637.7000000477,7781,WL,C,10.0
2,36.2039999961853,learn,23796.000003814697,Thu Mar 19 2026 15:08:51 GMT-0500 (Central Daylight Time),520770.2000000477,A,tower,O,r,216,1,5132.5,515637.7000000477,7781,WL,C,10.0
2,36.9210000038147,learn,23078.999996185303,Thu Mar 19 2026 15:08:51 GMT-0500 (Central Daylight Time),521486.7000000477,A,towerenter,O,enter,696,1,5849.0,515637.7000000477,7781,WL,C,10.0
2,37.687000036239624,learn,22312.999963760376,Thu Mar 19 2026 15:08:51 GMT-0500 (Central Daylight Time),522252.90000009537,A,q,O,q,757,1,765.9000000953674,521487.0,7781,WL,C,11.0
2,37.854000091552734,learn,22145.999908447266,Thu Mar 19 2026 15:08:51 GMT-0500 (Central Daylight Time),522419.90000009537,A,qu,O,u,151,1,932.9000000953674,521487.0,7781,WL,C,11.0
2,38.07000017166138,learn,21929.999828338623,Thu Mar 19 2026 15:08:51 GMT-0500 (Central Daylight Time),522636.40000009537,A,que,O,e,199,1,1149.4000000953674,521487.0,7781,WL,C,11.0
2,38.187000036239624,learn,21812.999963760376,Thu Mar 19 2026 15:08:51 GMT-0500 (Central Daylight Time),522753.0,A,quee,O,e,112,1,1266.0,521487.0,7781,WL,C,11.0
2,38.57000017166138,learn,21429.999828338623,Thu Mar 19 2026 15:08:51 GMT-0500 (Central Daylight Time),523136.10000002384,A,queen,O,n,369,1,1649.1000000238419,521487.0,7781,WL,C,11.0
2,39.15300011634827,learn,20846.999883651733,Thu Mar 19 2026 15:08:51 GMT-0500 (Central Daylight Time),523718.7000000477,A,queenenter,O,enter,570,1,2231.7000000476837,521487.0,7781,WL,C,11.0
2,60.01300001144409,learn,-13.000011444091797,Thu Mar 19 2026 15:08:51 GMT-0500 (Central Daylight Time),544579.8000000715,A,None,O,None,20855,1,20860.800000071526,523719.0,7781,WL,C,12.0
3,1.1659998893737793,learn,58834.00011062622,Thu Mar 19 2026 15:08:51 GMT-0500 (Central Daylight Time),615973.2000000477,A,t,O,t,1157,1,1166.5,614806.7000000477,7781,WL,C,1.0
3,1.3329999446868896,learn,58667.00005531311,Thu Mar 19 2026 15:08:51 GMT-0500 (Central Daylight Time),616139.4000000954,A,to,O,o,155,1,1332.7000000476837,614806.7000000477,7781,WL,C,1.0
3,1.5499999523162842,learn,58450.000047683716,Thu Mar 19 2026 15:08:51 GMT-0500 (Central Daylight Time),616356.8000000715,A,tow,O,w,201,1,1550.1000000238419,614806.7000000477,7781,WL,C,1.0
3,1.6159999370574951,learn,58384.000062942505,Thu Mar 19 2026 15:08:51 GMT-0500 (Central Daylight Time),616422.8000000715,A,towe,O,e,52,1,1616.1000000238419,614806.7000000477,7781,WL,C,1.0
3,1.7170000076293945,learn,58282.999992370605,Thu Mar 19 2026 15:08:51 GMT-0500 (Central Daylight Time),616523.3000000715,A,tower,O,r,96,1,1716.6000000238419,614806.7000000477,7781,WL,C,1.0
3,2.8329999446868896,learn,57167.00005531311,Thu Mar 19 2026 15:08:51 GMT-0500 (Central Daylight Time),617639.4000000954,A,towerenter,O,enter,1093,1,2832.7000000476837,614806.7000000477,7781,WL,C,1.0
3,3.433000087738037,learn,56566.99991226196,Thu Mar 19 2026 15:08:51 GMT-0500 (Central Daylight Time),618239.3000000715,A,q,O,q,581,1,599.6000000238419,617639.7000000477,7781,WL,C,2.0
3,3.5829999446868896,learn,56417.00005531311,Thu Mar 19 2026 15:08:51 GMT-0500 (Central Daylight Time),618389.6000000238,A,qu,O,u,139,1,749.8999999761581,617639.7000000477,7781,WL,C,2.0
3,3.7820000648498535,learn,56217.99993515015,Thu Mar 19 2026 15:08:51 GMT-0500 (Central Daylight Time),618589.0,A,que,O,e,184,1,949.2999999523163,617639.7000000477,7781,WL,C,2.0
3,3.9489998817443848,learn,56051.000118255615,Thu Mar 19 2026 15:08:51 GMT-0500 (Central Daylight Time),618755.5,A,quee,O,e,157,1,1115.7999999523163,617639.7000000477,7781,WL,C,2.0
3,4.315999984741211,learn,55684.00001525879,Thu Mar 19 2026 15:08:51 GMT-0500 (Central Daylight Time),619122.6000000238,A,queen,O,n,361,1,1482.8999999761581,617639.7000000477,7781,WL,C,2.0
3,4.980999946594238,learn,55019.00005340576,Thu Mar 19 2026 15:08:51 GMT-0500 (Central Daylight Time),619787.7000000477,A,queenenter,O,enter,654,1,2148.0,617639.7000000477,7781,WL,C,2.0
3,5.565000057220459,learn,54434.99994277954,Thu Mar 19 2026 15:08:51 GMT-0500 (Central Daylight Time),620371.8000000715,A,b,O,b,563,1,583.8000000715256,619788.0,7781,WL,C,3.0
3,5.664999961853027,learn,54335.00003814697,Thu Mar 19 2026 15:08:51 GMT-0500 (Central Daylight Time),620472.0,A,bo,O,o,94,1,684.0,619788.0,7781,WL,C,3.0
3,5.865999937057495,learn,54134.000062942505,Thu Mar 19 2026 15:08:51 GMT-0500 (Central Daylight Time),620673.3000000715,A,bod,O,d,179,1,885.3000000715256,619788.0,7781,WL,C,3.0
3,6.04800009727478,learn,53951.99990272522,Thu Mar 19 2026 15:08:51 GMT-0500 (Central Daylight Time),620854.9000000954,A,body,O,y,169,1,1066.9000000953674,619788.0,7781,WL,C,3.0
3,6.7809998989105225,learn,53219.00010108948,Thu Mar 19 2026 15:08:51 GMT-0500 (Central Daylight Time),621587.5,A,bodyenter,O,enter,716,1,1799.5,619788.0,7781,WL,C,3.0
3,8.631999969482422,learn,51368.00003051758,Thu Mar 19 2026 15:08:51 GMT-0500 (Central Daylight Time),623438.8000000715,A,d,O,d,1841,1,1851.1000000238419,621587.7000000477,7781,WL,C,4.0
3,8.914000034332275,learn,51085.999965667725,Thu Mar 19 2026 15:08:51 GMT-0500 (Central Daylight Time),623720.7000000477,A,do,O,o,266,1,2133.0,621587.7000000477,7781,WL,C,4.0
3,9.079999923706055,learn,50920.000076293945,Thu Mar 19 2026 15:08:51 GMT-0500 (Central Daylight Time),623886.9000000954,A,doc,O,c,154,1,2299.2000000476837,621587.7000000477,7781,WL,C,4.0
3,9.463000059127808,learn,50536.99994087219,Thu Mar 19 2026 15:08:51 GMT-0500 (Central Daylight Time),624270.2000000477,A,doct,O,t,362,1,2682.5,621587.7000000477,7781,WL,C,4.0
3,9.614000082015991,learn,50385.99991798401,Thu Mar 19 2026 15:08:51 GMT-0500 (Central Daylight Time),624420.2000000477,A,docto,O,o,139,1,2832.5,621587.7000000477,7781,WL,C,4.0
3,9.711999893188477,learn,50288.00010681152,Thu Mar 19 2026 15:08:51 GMT-0500 (Central Daylight Time),624519.2000000477,A,doctor,O,r,95,1,2931.5,621587.7000000477,7781,WL,C,4.0
3,10.430000066757202,learn,49569.9999332428,Thu Mar 19 2026 15:08:51 GMT-0500 (Central Daylight Time),625236.4000000954,A,doctorenter,O,enter,701,1,3648.7000000476837,621587.7000000477,7781,WL,C,4.0
3,12.229000091552734,learn,47770.999908447266,Thu Mar 19 2026 15:08:51 GMT-0500 (Central Daylight Time),627035.8000000715,A,h,O,h,1783,1,1799.1000000238419,625236.7000000477,7781,WL,C,5.0
3,12.48200011253357,learn,47517.99988746643,Thu Mar 19 2026 15:08:51 GMT-0500 (Central Daylight Time),627288.9000000954,A,ho,O,o,231,1,2052.2000000476837,625236.7000000477,7781,WL,C,5.0
3,12.6010000705719,learn,47398.9999294281,Thu Mar 19 2026 15:08:51 GMT-0500 (Central Daylight Time),627407.8000000715,A,hom,O,m,96,1,2171.100000023842,625236.7000000477,7781,WL,C,5.0
3,12.779000043869019,learn,47220.99995613098,Thu Mar 19 2026 15:08:51 GMT-0500 (Central Daylight Time),627585.6000000238,A,home,O,e,164,1,2348.899999976158,625236.7000000477,7781,WL,C,5.0
3,13.463000059127808,learn,46536.99994087219,Thu Mar 19 2026 15:08:51 GMT-0500 (Central Daylight Time),628269.3000000715,A,homeenter,O,enter,673,1,3032.600000023842,625236.7000000477,7781,WL,C,5.0
3,14.163000106811523,learn,45836.99989318848,Thu Mar 19 2026 15:08:51 GMT-0500 (Central Daylight Time),628969.9000000954,A,b,O,b,695,1,700.3000000715256,628269.6000000238,7781,WL,C,6.0
3,14.32800006866455,learn,45671.99993133545,Thu Mar 19 2026 15:08:51 GMT-0500 (Central Daylight Time),629134.9000000954,A,bo,O,o,151,1,865.3000000715256,628269.6000000238,7781,WL,C,6.0
3,14.611999988555908,learn,45388.00001144409,Thu Mar 19 2026 15:08:51 GMT-0500 (Central Daylight Time),629419.2000000477,A,boy,O,y,266,1,1149.6000000238419,628269.6000000238,7781,WL,C,6.0
3,15.196000099182129,learn,44803.99990081787,Thu Mar 19 2026 15:08:51 GMT-0500 (Central Daylight Time),630002.8000000715,A,boyenter,O,enter,568,1,1733.2000000476837,628269.6000000238,7781,WL,C,6.0
3,16.111999988555908,learn,43888.00001144409,Thu Mar 19 2026 15:08:51 GMT-0500 (Central Daylight Time),630918.8000000715,A,n,O,n,905,1,915.7000000476837,630003.1000000238,7781,WL,C,7.0
3,16.27999997138977,learn,43720.00002861023,Thu Mar 19 2026 15:08:51 GMT-0500 (Central Daylight Time),631086.3000000715,A,na,O,a,149,1,1083.2000000476837,630003.1000000238,7781,WL,C,7.0
3,16.463000059127808,learn,43536.99994087219,Thu Mar 19 2026 15:08:51 GMT-0500 (Central Daylight Time),631269.5,A,nai,O,i,164,1,1266.3999999761581,630003.1000000238,7781,WL,C,7.0
3,16.911999940872192,learn,43088.00005912781,Thu Mar 19 2026 15:08:51 GMT-0500 (Central Daylight Time),631719.2000000477,A,nail,O,l,439,1,1716.1000000238419,630003.1000000238,7781,WL,C,7.0
3,18.24399995803833,learn,41756.00004196167,Thu Mar 19 2026 15:08:51 GMT-0500 (Central Daylight Time),633050.9000000954,A,nailenter,O,enter,1323,1,3047.8000000715256,630003.1000000238,7781,WL,C,7.0
3,23.358999967575073,learn,36641.00003242493,Thu Mar 19 2026 15:08:51 GMT-0500 (Central Daylight Time),638165.5,A,s,O,s,5106,1,5114.299999952316,633051.2000000477,7781,WL,C,8.0
3,23.526999950408936,learn,36473.000049591064,Thu Mar 19 2026 15:08:51 GMT-0500 (Central Daylight Time),638333.5,A,sh,O,h,146,1,5282.299999952316,633051.2000000477,7781,WL,C,8.0
3,23.691999912261963,learn,36308.00008773804,Thu Mar 19 2026 15:08:51 GMT-0500 (Central Daylight Time),638499.0,A,sho,O,o,151,1,5447.799999952316,633051.2000000477,7781,WL,C,8.0
3,23.89199995994568,learn,36108.00004005432,Thu Mar 19 2026 15:08:51 GMT-0500 (Central Daylight Time),638699.2000000477,A,shor,O,r,178,1,5648.0,633051.2000000477,7781,WL,C,8.0
3,24.009999990463257,learn,35990.00000953674,Thu Mar 19 2026 15:08:51 GMT-0500 (Central Daylight Time),638816.8000000715,A,shore,O,e,101,1,5765.600000023842,633051.2000000477,7781,WL,C,8.0
3,25.10700011253357,learn,34892.99988746643,Thu Mar 19 2026 15:08:51 GMT-0500 (Central Daylight Time),639914.1000000238,A,shoreenter,O,enter,1080,1,6862.899999976158,633051.2000000477,7781,WL,C,8.0
3,25.97499990463257,learn,34025.00009536743,Thu Mar 19 2026 15:08:51 GMT-0500 (Central Daylight Time),640781.7000000477,A,s,O,s,849,1,867.3999999761581,639914.3000000715,7781,WL,C,9.0
3,26.125,learn,33875.0,Thu Mar 19 2026 15:08:51 GMT-0500 (Central Daylight Time),640931.9000000954,A,su,O,u,132,1,1017.6000000238419,639914.3000000715,7781,WL,C,9.0
3,26.342000007629395,learn,33657.999992370605,Thu Mar 19 2026 15:08:51 GMT-0500 (Central Daylight Time),641148.3000000715,A,sug,O,g,197,1,1234.0,639914.3000000715,7781,WL,C,9.0
3,26.52500009536743,learn,33474.99990463257,Thu Mar 19 2026 15:08:51 GMT-0500 (Central Daylight Time),641331.9000000954,A,suga,O,a,166,1,1417.6000000238419,639914.3000000715,7781,WL,C,9.0
3,26.625999927520752,learn,33374.00007247925,Thu Mar 19 2026 15:08:51 GMT-0500 (Central Daylight Time),641432.5,A,sugar,O,r,80,1,1518.1999999284744,639914.3000000715,7781,WL,C,9.0
3,27.276000022888184,learn,32723.999977111816,Thu Mar 19 2026 15:08:51 GMT-0500 (Central Daylight Time),642082.7000000477,A,sugarenter,O,enter,643,1,2168.399999976158,639914.3000000715,7781,WL,C,9.0
3,28.19099998474121,learn,31809.00001525879,Thu Mar 19 2026 15:08:51 GMT-0500 (Central Daylight Time),642997.8000000715,A,c,O,c,906,1,914.8999999761581,642082.9000000954,7781,WL,C,10.0
3,28.308000087738037,learn,31691.999912261963,Thu Mar 19 2026 15:08:51 GMT-0500 (Central Daylight Time),643114.7000000477,A,co,O,o,101,1,1031.7999999523163,642082.9000000954,7781,WL,C,10.0
3,28.592000007629395,learn,31407.999992370605,Thu Mar 19 2026 15:08:51 GMT-0500 (Central Daylight Time),643398.4000000954,A,cor,O,r,265,1,1315.5,642082.9000000954,7781,WL,C,10.0
3,28.891000032424927,learn,31108.999967575073,Thu Mar 19 2026 15:08:51 GMT-0500 (Central Daylight Time),643697.3000000715,A,corn,O,n,276,1,1614.3999999761581,642082.9000000954,7781,WL,C,10.0
3,29.591000080108643,learn,30408.999919891357,Thu Mar 19 2026 15:08:51 GMT-0500 (Central Daylight Time),644397.6000000238,A,cornenter,O,enter,687,1,2314.6999999284744,642082.9000000954,7781,WL,C,10.0
3,30.124000072479248,learn,29875.999927520752,Thu Mar 19 2026 15:08:51 GMT-0500 (Central Daylight Time),644931.1000000238,A,c,O,c,513,1,533.3999999761581,644397.7000000477,7781,WL,C,11.0
3,30.30900001525879,learn,29690.99998474121,Thu Mar 19 2026 15:08:51 GMT-0500 (Central Daylight Time),645115.9000000954,A,ca,O,a,168,1,718.2000000476837,644397.7000000477,7781,WL,C,11.0
3,30.625,learn,29375.0,Thu Mar 19 2026 15:08:51 GMT-0500 (Central Daylight Time),645431.4000000954,A,cat,O,t,295,1,1033.7000000476837,644397.7000000477,7781,WL,C,11.0
3,30.77300000190735,learn,29226.99999809265,Thu Mar 19 2026 15:08:51 GMT-0500 (Central Daylight Time),645580.0,A,catt,O,t,140,1,1182.2999999523163,644397.7000000477,7781,WL,C,11.0
3,30.990000009536743,learn,29009.999990463257,Thu Mar 19 2026 15:08:51 GMT-0500 (Central Daylight Time),645796.8000000715,A,cattl,O,l,206,1,1399.1000000238419,644397.7000000477,7781,WL,C,11.0
3,31.155999898910522,learn,28844.000101089478,Thu Mar 19 2026 15:08:51 GMT-0500 (Central Daylight Time),645963.2000000477,A,cattle,O,e,150,1,1565.5,644397.7000000477,7781,WL,C,11.0
3,31.723999977111816,learn,28276.000022888184,Thu Mar 19 2026 15:08:51 GMT-0500 (Central Daylight Time),646530.9000000954,A,cattleenter,O,enter,551,1,2133.2000000476837,644397.7000000477,7781,WL,C,11.0
3,32.2739999294281,learn,27726.0000705719,Thu Mar 19 2026 15:08:51 GMT-0500 (Central Daylight Time),647080.8000000715,A,w,O,w,529,1,549.6000000238419,646531.2000000477,7781,WL,C,12.0
3,32.390000104904175,learn,27609.999895095825,Thu Mar 19 2026 15:08:51 GMT-0500 (Central Daylight Time),647197.0,A,wh,O,h,98,1,665.7999999523163,646531.2000000477,7781,WL,C,12.0
3,32.555999994277954,learn,27444.000005722046,Thu Mar 19 2026 15:08:51 GMT-0500 (Central Daylight Time),647362.8000000715,A,whe,O,e,159,1,831.6000000238419,646531.2000000477,7781,WL,C,12.0
3,32.70700001716614,learn,27292.999982833862,Thu Mar 19 2026 15:08:51 GMT-0500 (Central Daylight Time),647513.4000000954,A,whea,O,a,134,1,982.2000000476837,646531.2000000477,7781,WL,C,12.0
3,32.83899998664856,learn,27161.00001335144,Thu Mar 19 2026 15:08:51 GMT-0500 (Central Daylight Time),647645.3000000715,A,wheat,O,t,114,1,1114.1000000238419,646531.2000000477,7781,WL,C,12.0
3,33.57299995422363,learn,26427.000045776367,Thu Mar 19 2026 15:08:51 GMT-0500 (Central Daylight Time),648379.7000000477,A,wheatenter,O,enter,712,1,1848.5,646531.2000000477,7781,WL,C,12.0
3,37.638999938964844,learn,22361.000061035156,Thu Mar 19 2026 15:08:51 GMT-0500 (Central Daylight Time),652446.2000000477,A,c,O,c,4047,1,4066.2999999523163,648379.9000000954,7781,WL,C,13.0
3,37.80900001525879,learn,22190.99998474121,Thu Mar 19 2026 15:08:51 GMT-0500 (Central Daylight Time),652615.8000000715,A,ca,O,a,158,1,4235.899999976158,648379.9000000954,7781,WL,C,13.0
3,38.0220000743866,learn,21977.999925613403,Thu Mar 19 2026 15:08:51 GMT-0500 (Central Daylight Time),652828.5,A,cam,O,m,198,1,4448.599999904633,648379.9000000954,7781,WL,C,13.0
3,38.86999988555908,learn,21130.000114440918,Thu Mar 19 2026 15:08:51 GMT-0500 (Central Daylight Time),653677.1000000238,A,camp,O,p,841,1,5297.199999928474,648379.9000000954,7781,WL,C,13.0
3,39.73799991607666,learn,20262.00008392334,Thu Mar 19 2026 15:08:51 GMT-0500 (Central Daylight Time),654545.3000000715,A,campenter,O,enter,847,1,6165.399999976158,648379.9000000954,7781,WL,C,13.0
3,40.1710000038147,learn,19828.999996185303,Thu Mar 19 2026 15:08:51 GMT-0500 (Central Daylight Time),654978.6000000238,A,l,O,l,428,1,433.10000002384186,654545.5,7781,WL,C,14.0
3,40.32100009918213,learn,19678.99990081787,Thu Mar 19 2026 15:08:51 GMT-0500 (Central Daylight Time),655128.9000000954,A,le,O,e,142,1,583.4000000953674,654545.5,7781,WL,C,14.0
3,40.670000076293945,learn,19329.999923706055,Thu Mar 19 2026 15:08:51 GMT-0500 (Central Daylight Time),655477.1000000238,A,let,O,t,337,1,931.6000000238419,654545.5,7781,WL,C,14.0
3,40.83699989318848,learn,19163.000106811523,Thu Mar 19 2026 15:08:51 GMT-0500 (Central Daylight Time),655644.7000000477,A,lett,O,t,161,1,1099.2000000476837,654545.5,7781,WL,C,14.0
3,41.019999980926514,learn,18980.000019073486,Thu Mar 19 2026 15:08:51 GMT-0500 (Central Daylight Time),655827.4000000954,A,lette,O,e,167,1,1281.9000000953674,654545.5,7781,WL,C,14.0
3,41.11999988555908,learn,18880.000114440918,Thu Mar 19 2026 15:08:51 GMT-0500 (Central Daylight Time),655927.5,A,letter,O,r,79,1,1382.0,654545.5,7781,WL,C,14.0
3,41.65300011634827,learn,18346.999883651733,Thu Mar 19 2026 15:08:51 GMT-0500 (Central Daylight Time),656461.0,A,letterenter,O,enter,522,1,1915.5,654545.5,7781,WL,C,14.0
3,60.013999938964844,learn,-13.99993896484375,Thu Mar 19 2026 15:08:51 GMT-0500 (Central Daylight Time),674822.0,A,None,O,None,18356,1,18360.699999928474,656461.3000000715,7781,WL,C,15.0
4,1.13100004196167,learn,58868.99995803833,Thu Mar 19 2026 15:08:51 GMT-0500 (Central Daylight Time),744664.7000000477,A,s,O,s,1124,1,1131.0,743533.7000000477,7781,WL,C,1.0
4,1.3489999771118164,learn,58651.00002288818,Thu Mar 19 2026 15:08:51 GMT-0500 (Central Daylight Time),744882.8000000715,A,sh,O,h,202,1,1349.1000000238419,743533.7000000477,7781,WL,C,1.0
4,1.746999979019165,learn,58253.000020980835,Thu Mar 19 2026 15:08:51 GMT-0500 (Central Daylight Time),745280.5,A,sho,O,o,392,1,1746.7999999523163,743533.7000000477,7781,WL,C,1.0
4,2.014000177383423,learn,57985.99982261658,Thu Mar 19 2026 15:08:51 GMT-0500 (Central Daylight Time),745547.3000000715,A,shor,O,r,252,1,2013.6000000238419,743533.7000000477,7781,WL,C,1.0
4,2.198000192642212,learn,57801.99980735779,Thu Mar 19 2026 15:08:51 GMT-0500 (Central Daylight Time),745731.5,A,shore,O,e,169,1,2197.7999999523163,743533.7000000477,7781,WL,C,1.0
4,2.998000144958496,learn,57001.999855041504,Thu Mar 19 2026 15:08:51 GMT-0500 (Central Daylight Time),746531.3000000715,A,shoreenter,O,enter,778,1,2997.600000023842,743533.7000000477,7781,WL,C,1.0
4,3.366000175476074,learn,56633.999824523926,Thu Mar 19 2026 15:08:51 GMT-0500 (Central Daylight Time),746900.0,A,n,O,n,359,1,368.39999997615814,746531.6000000238,7781,WL,C,2.0
4,3.515000104904175,learn,56484.999895095825,Thu Mar 19 2026 15:08:51 GMT-0500 (Central Daylight Time),747048.6000000238,A,na,O,a,134,1,517.0,746531.6000000238,7781,WL,C,2.0
4,3.7810001373291016,learn,56218.9998626709,Thu Mar 19 2026 15:08:51 GMT-0500 (Central Daylight Time),747314.2000000477,A,nai,O,i,245,1,782.6000000238419,746531.6000000238,7781,WL,C,2.0
4,4.2820000648498535,learn,55717.99993515015,Thu Mar 19 2026 15:08:51 GMT-0500 (Central Daylight Time),747815.2000000477,A,nail,O,l,478,1,1283.6000000238419,746531.6000000238,7781,WL,C,2.0
4,4.981000185012817,learn,55018.99981498718,Thu Mar 19 2026 15:08:51 GMT-0500 (Central Daylight Time),748514.8000000715,A,nailenter,O,enter,690,1,1983.2000000476837,746531.6000000238,7781,WL,C,2.0
4,5.3470001220703125,learn,54652.99987792969,Thu Mar 19 2026 15:08:51 GMT-0500 (Central Daylight Time),748880.9000000954,A,c,O,c,352,1,365.90000009536743,748515.0,7781,WL,C,3.0
4,5.496000051498413,learn,54503.99994850159,Thu Mar 19 2026 15:08:51 GMT-0500 (Central Daylight Time),749029.3000000715,A,ca,O,a,128,1,514.3000000715256,748515.0,7781,WL,C,3.0
4,5.746000051498413,learn,54253.99994850159,Thu Mar 19 2026 15:08:51 GMT-0500 (Central Daylight Time),749279.4000000954,A,cam,O,m,230,1,764.4000000953674,748515.0,7781,WL,C,3.0
4,6.313000202178955,learn,53686.999797821045,Thu Mar 19 2026 15:08:51 GMT-0500 (Central Daylight Time),749846.9000000954,A,camp,O,p,549,1,1331.9000000953674,748515.0,7781,WL,C,3.0
4,7.5320000648498535,learn,52467.99993515015,Thu Mar 19 2026 15:08:51 GMT-0500 (Central Daylight Time),751065.5,A,campenter,O,enter,1204,1,2550.5,748515.0,7781,WL,C,3.0
4,7.963000059127808,learn,52036.99994087219,Thu Mar 19 2026 15:08:51 GMT-0500 (Central Daylight Time),751496.3000000715,A,l,O,l,411,1,430.60000002384186,751065.7000000477,7781,WL,C,4.0
4,8.164000034332275,learn,51835.999965667725,Thu Mar 19 2026 15:08:51 GMT-0500 (Central Daylight Time),751697.4000000954,A,le,O,e,180,1,631.7000000476837,751065.7000000477,7781,WL,C,4.0
4,8.430999994277954,learn,51569.000005722046,Thu Mar 19 2026 15:08:51 GMT-0500 (Central Daylight Time),751964.4000000954,A,let,O,t,252,1,898.7000000476837,751065.7000000477,7781,WL,C,4.0
4,8.563000202178955,learn,51436.999797821045,Thu Mar 19 2026 15:08:51 GMT-0500 (Central Daylight Time),752096.3000000715,A,lett,O,t,110,1,1030.6000000238419,751065.7000000477,7781,WL,C,4.0
4,8.730000019073486,learn,51269.999980926514,Thu Mar 19 2026 15:08:51 GMT-0500 (Central Daylight Time),752263.6000000238,A,lette,O,e,153,1,1197.8999999761581,751065.7000000477,7781,WL,C,4.0
4,8.813000202178955,learn,51186.999797821045,Thu Mar 19 2026 15:08:51 GMT-0500 (Central Daylight Time),752346.6000000238,A,letter,O,r,76,1,1280.8999999761581,751065.7000000477,7781,WL,C,4.0
4,9.529000043869019,learn,50470.99995613098,Thu Mar 19 2026 15:08:51 GMT-0500 (Central Daylight Time),753062.4000000954,A,letterenter,O,enter,695,1,1996.7000000476837,751065.7000000477,7781,WL,C,4.0
4,10.513000011444092,learn,49486.99998855591,Thu Mar 19 2026 15:08:51 GMT-0500 (Central Daylight Time),754046.4000000954,A,c,O,c,975,1,983.8000000715256,753062.6000000238,7781,WL,C,5.0
4,10.67900013923645,learn,49320.99986076355,Thu Mar 19 2026 15:08:51 GMT-0500 (Central Daylight Time),754212.5,A,co,O,o,156,1,1149.8999999761581,753062.6000000238,7781,WL,C,5.0
4,10.879000186920166,learn,49120.999813079834,Thu Mar 19 2026 15:08:51 GMT-0500 (Central Daylight Time),754412.9000000954,A,cor,O,r,179,1,1350.3000000715256,753062.6000000238,7781,WL,C,5.0
4,11.162000179290771,learn,48837.99982070923,Thu Mar 19 2026 15:08:51 GMT-0500 (Central Daylight Time),754695.7000000477,A,corn,O,n,271,1,1633.1000000238419,753062.6000000238,7781,WL,C,5.0
4,11.894999980926514,learn,48105.000019073486,Thu Mar 19 2026 15:08:51 GMT-0500 (Central Daylight Time),755428.3000000715,A,cornenter,O,enter,715,1,2365.7000000476837,753062.6000000238,7781,WL,C,5.0
4,12.279000043869019,learn,47720.99995613098,Thu Mar 19 2026 15:08:51 GMT-0500 (Central Daylight Time),755813.1000000238,A,c,O,c,367,1,384.5,755428.6000000238,7781,WL,C,6.0
4,12.445000171661377,learn,47554.99982833862,Thu Mar 19 2026 15:08:51 GMT-0500 (Central Daylight Time),755978.3000000715,A,ca,O,a,158,1,549.7000000476837,755428.6000000238,7781,WL,C,6.0
4,12.746000051498413,learn,47253.99994850159,Thu Mar 19 2026 15:08:51 GMT-0500 (Central Daylight Time),756279.2000000477,A,cat,O,t,288,1,850.6000000238419,755428.6000000238,7781,WL,C,6.0
4,12.894000053405762,learn,47105.99994659424,Thu Mar 19 2026 15:08:51 GMT-0500 (Central Daylight Time),756427.9000000954,A,catt,O,t,139,1,999.3000000715256,755428.6000000238,7781,WL,C,6.0
4,13.09500002861023,learn,46904.99997138977,Thu Mar 19 2026 15:08:51 GMT-0500 (Central Daylight Time),756628.4000000954,A,cattl,O,l,183,1,1199.8000000715256,755428.6000000238,7781,WL,C,6.0
4,13.228000164031982,learn,46771.99983596802,Thu Mar 19 2026 15:08:51 GMT-0500 (Central Daylight Time),756761.2000000477,A,cattle,O,e,126,1,1332.6000000238419,755428.6000000238,7781,WL,C,6.0
4,14.660000085830688,learn,45339.99991416931,Thu Mar 19 2026 15:08:51 GMT-0500 (Central Daylight Time),758193.4000000954,A,cattleenter,O,enter,1425,1,2764.8000000715256,755428.6000000238,7781,WL,C,6.0
4,15.09500002861023,learn,44904.99997138977,Thu Mar 19 2026 15:08:51 GMT-0500 (Central Daylight Time),758628.6000000238,A,w,O,w,420,1,434.89999997615814,758193.7000000477,7781,WL,C,7.0
4,15.32800006866455,learn,44671.99993133545,Thu Mar 19 2026 15:08:51 GMT-0500 (Central Daylight Time),758861.2000000477,A,wh,O,h,215,1,667.5,758193.7000000477,7781,WL,C,7.0
4,15.49400019645691,learn,44505.99980354309,Thu Mar 19 2026 15:08:51 GMT-0500 (Central Daylight Time),759027.5,A,whe,O,e,158,1,833.7999999523163,758193.7000000477,7781,WL,C,7.0
4,15.644000053405762,learn,44355.99994659424,Thu Mar 19 2026 15:08:51 GMT-0500 (Central Daylight Time),759177.8000000715,A,whea,O,a,145,1,984.1000000238419,758193.7000000477,7781,WL,C,7.0
4,15.794000148773193,learn,44205.99985122681,Thu Mar 19 2026 15:08:51 GMT-0500 (Central Daylight Time),759327.8000000715,A,wheat,O,t,136,1,1134.1000000238419,758193.7000000477,7781,WL,C,7.0
4,16.759999990463257,learn,43240.00000953674,Thu Mar 19 2026 15:08:51 GMT-0500 (Central Daylight Time),760293.5,A,wheatenter,O,enter,955,1,2099.7999999523163,758193.7000000477,7781,WL,C,7.0
4,17.3270001411438,learn,42672.9998588562,Thu Mar 19 2026 15:08:51 GMT-0500 (Central Daylight Time),760860.7000000477,A,t,O,t,562,1,567.0,760293.7000000477,7781,WL,C,8.0
4,17.659000158309937,learn,42340.99984169006,Thu Mar 19 2026 15:08:51 GMT-0500 (Central Daylight Time),761192.9000000954,A,to,O,o,316,1,899.2000000476837,760293.7000000477,7781,WL,C,8.0
4,18.009999990463257,learn,41990.00000953674,Thu Mar 19 2026 15:08:51 GMT-0500 (Central Daylight Time),761543.6000000238,A,tow,O,w,328,1,1249.8999999761581,760293.7000000477,7781,WL,C,8.0
4,18.259999990463257,learn,41740.00000953674,Thu Mar 19 2026 15:08:51 GMT-0500 (Central Daylight Time),761793.6000000238,A,towe,O,e,228,1,1499.8999999761581,760293.7000000477,7781,WL,C,8.0
4,18.49400019645691,learn,41505.99980354309,Thu Mar 19 2026 15:08:51 GMT-0500 (Central Daylight Time),762027.5,A,tower,O,r,227,1,1733.7999999523163,760293.7000000477,7781,WL,C,8.0
4,20.45900011062622,learn,39540.99988937378,Thu Mar 19 2026 15:08:51 GMT-0500 (Central Daylight Time),763992.7000000477,A,towerenter,O,enter,1952,1,3699.0,760293.7000000477,7781,WL,C,8.0
4,21.092000007629395,learn,38907.999992370605,Thu Mar 19 2026 15:08:51 GMT-0500 (Central Daylight Time),764625.3000000715,A,q,O,q,620,1,632.3999999761581,763992.9000000954,7781,WL,C,9.0
4,21.258000135421753,learn,38741.99986457825,Thu Mar 19 2026 15:08:51 GMT-0500 (Central Daylight Time),764791.9000000954,A,qu,O,u,159,1,799.0,763992.9000000954,7781,WL,C,9.0
4,21.4760000705719,learn,38523.9999294281,Thu Mar 19 2026 15:08:51 GMT-0500 (Central Daylight Time),765009.9000000954,A,que,O,e,215,1,1017.0,763992.9000000954,7781,WL,C,9.0
4,21.625,learn,38375.0,Thu Mar 19 2026 15:08:51 GMT-0500 (Central Daylight Time),765159.0,A,quee,O,e,137,1,1166.0999999046326,763992.9000000954,7781,WL,C,9.0
4,21.925000190734863,learn,38074.99980926514,Thu Mar 19 2026 15:08:51 GMT-0500 (Central Daylight Time),765458.7000000477,A,queen,O,n,293,1,1465.7999999523163,763992.9000000954,7781,WL,C,9.0
4,22.659000158309937,learn,37340.99984169006,Thu Mar 19 2026 15:08:51 GMT-0500 (Central Daylight Time),766192.2000000477,A,queenenter,O,enter,719,1,2199.2999999523163,763992.9000000954,7781,WL,C,9.0
4,27.790000200271606,learn,32209.999799728394,Thu Mar 19 2026 15:08:51 GMT-0500 (Central Daylight Time),771323.8000000715,A,d,O,d,5123,1,5131.300000071526,766192.5,7781,WL,C,10.0
4,27.957000017166138,learn,32042.999982833862,Thu Mar 19 2026 15:08:51 GMT-0500 (Central Daylight Time),771490.5,A,do,O,o,151,1,5298.0,766192.5,7781,WL,C,10.0
4,28.074000120162964,learn,31925.999879837036,Thu Mar 19 2026 15:08:51 GMT-0500 (Central Daylight Time),771607.1000000238,A,doc,O,c,103,1,5414.600000023842,766192.5,7781,WL,C,10.0
4,28.390000104904175,learn,31609.999895095825,Thu Mar 19 2026 15:08:51 GMT-0500 (Central Daylight Time),771923.5,A,doct,O,t,301,1,5731.0,766192.5,7781,WL,C,10.0
4,28.54100012779236,learn,31458.99987220764,Thu Mar 19 2026 15:08:51 GMT-0500 (Central Daylight Time),772074.2000000477,A,docto,O,o,135,1,5881.700000047684,766192.5,7781,WL,C,10.0
4,28.657000064849854,learn,31342.999935150146,Thu Mar 19 2026 15:08:51 GMT-0500 (Central Daylight Time),772190.3000000715,A,doctor,O,r,103,1,5997.800000071526,766192.5,7781,WL,C,10.0
4,29.706000089645386,learn,30293.999910354614,Thu Mar 19 2026 15:08:51 GMT-0500 (Central Daylight Time),773239.1000000238,A,doctorenter,O,enter,1031,1,7046.600000023842,766192.5,7781,WL,C,10.0
4,30.27300000190735,learn,29726.99999809265,Thu Mar 19 2026 15:08:51 GMT-0500 (Central Daylight Time),773806.3000000715,A,b,O,b,557,1,566.8999999761581,773239.4000000954,7781,WL,C,11.0
4,30.42200016975403,learn,29577.99983024597,Thu Mar 19 2026 15:08:51 GMT-0500 (Central Daylight Time),773955.6000000238,A,bo,O,o,141,1,716.1999999284744,773239.4000000954,7781,WL,C,11.0
4,31.555999994277954,learn,28444.000005722046,Thu Mar 19 2026 15:08:51 GMT-0500 (Central Daylight Time),775089.9000000954,A,bod,O,d,1121,1,1850.5,773239.4000000954,7781,WL,C,11.0
4,31.907000064849854,learn,28092.999935150146,Thu Mar 19 2026 15:08:51 GMT-0500 (Central Daylight Time),775441.1000000238,A,body,O,y,345,1,2201.6999999284744,773239.4000000954,7781,WL,C,11.0
4,32.65500020980835,learn,27344.99979019165,Thu Mar 19 2026 15:08:51 GMT-0500 (Central Daylight Time),776189.0,A,bodyenter,O,enter,730,1,2949.5999999046326,773239.4000000954,7781,WL,C,11.0
4,43.8510000705719,learn,16148.9999294281,Thu Mar 19 2026 15:08:51 GMT-0500 (Central Daylight Time),787385.7000000477,A,s,O,s,11175,1,11196.5,776189.2000000477,7781,WL,C,12.0
4,44.00100016593933,learn,15998.999834060669,Thu Mar 19 2026 15:08:51 GMT-0500 (Central Daylight Time),787535.2000000477,A,su,O,u,135,1,11346.0,776189.2000000477,7781,WL,C,12.0
4,44.31700015068054,learn,15682.999849319458,Thu Mar 19 2026 15:08:51 GMT-0500 (Central Daylight Time),787851.5,A,sug,O,g,298,1,11662.299999952316,776189.2000000477,7781,WL,C,12.0
4,44.56599998474121,learn,15434.000015258789,Thu Mar 19 2026 15:08:51 GMT-0500 (Central Daylight Time),788100.5,A,suga,O,a,239,1,11911.299999952316,776189.2000000477,7781,WL,C,12.0
4,44.64900016784668,learn,15350.99983215332,Thu Mar 19 2026 15:08:51 GMT-0500 (Central Daylight Time),788183.7000000477,A,sugar,O,r,64,1,11994.5,776189.2000000477,7781,WL,C,12.0
4,45.23300004005432,learn,14766.999959945679,Thu Mar 19 2026 15:08:51 GMT-0500 (Central Daylight Time),788767.0,A,sugarenter,O,enter,573,1,12577.799999952316,776189.2000000477,7781,WL,C,12.0
4,50.06700015068054,learn,9932.999849319458,Thu Mar 19 2026 15:08:51 GMT-0500 (Central Daylight Time),793600.9000000954,A,b,O,b,4813,1,4833.600000023842,788767.3000000715,7781,WL,C,13.0
4,50.23300004005432,learn,9766.999959945679,Thu Mar 19 2026 15:08:51 GMT-0500 (Central Daylight Time),793767.7000000477,A,bo,O,o,153,1,5000.399999976158,788767.3000000715,7781,WL,C,13.0
4,50.40500020980835,learn,9594.99979019165,Thu Mar 19 2026 15:08:51 GMT-0500 (Central Daylight Time),793939.6000000238,A,bod,O,d,155,1,5172.299999952316,788767.3000000715,7781,WL,C,13.0
4,50.598999977111816,learn,9401.000022888184,Thu Mar 19 2026 15:08:51 GMT-0500 (Central Daylight Time),794132.9000000954,A,body,O,y,185,1,5365.600000023842,788767.3000000715,7781,WL,C,13.0
4,51.16600012779236,learn,8833.999872207642,Thu Mar 19 2026 15:08:51 GMT-0500 (Central Daylight Time),794700.5,A,bodyenter,O,enter,550,1,5933.199999928474,788767.3000000715,7781,WL,C,13.0
4,51.54800009727478,learn,8451.99990272522,Thu Mar 19 2026 15:08:51 GMT-0500 (Central Daylight Time),795082.4000000954,A,c,O,c,367,1,381.7000000476837,794700.7000000477,7781,WL,C,14.0
4,51.71500015258789,learn,8284.99984741211,Thu Mar 19 2026 15:08:51 GMT-0500 (Central Daylight Time),795249.0,A,co,O,o,152,1,548.2999999523163,794700.7000000477,7781,WL,C,14.0
4,53.132000207901,learn,6867.999792098999,Thu Mar 19 2026 15:08:51 GMT-0500 (Central Daylight Time),796665.9000000954,A,c,O,backspace,1411,1,1965.2000000476837,794700.7000000477,7781,WL,C,14.0
4,53.414000034332275,learn,6585.999965667725,Thu Mar 19 2026 15:08:51 GMT-0500 (Central Daylight Time),796948.6000000238,A,,O,backspace,274,1,2247.899999976158,794700.7000000477,7781,WL,C,14.0
4,60.01300001144409,learn,-13.000011444091797,Thu Mar 19 2026 15:08:51 GMT-0500 (Central Daylight Time),803547.6000000238,A,None,O,None,6593,1,8846.899999976158,794700.7000000477,7781,WL,C,14.0
5,1.819000005722046,learn,60000.0,Thu Mar 19 2026 15:08:51 GMT-0500 (Central Daylight Time),878540.9000000954,A,h,O,h,1803,1,1817.9000000953674,876723.0,7781,WL,C,1.0
5,2.1000001430511475,learn,60000.0,Thu Mar 19 2026 15:08:51 GMT-0500 (Central Daylight Time),878822.7000000477,A,ho,O,o,260,1,2099.7000000476837,876723.0,7781,WL,C,1.0
5,2.317000150680542,learn,60000.0,Thu Mar 19 2026 15:08:51 GMT-0500 (Central Daylight Time),879039.6000000238,A,hom,O,m,195,1,2316.600000023842,876723.0,7781,WL,C,1.0
5,2.7190001010894775,learn,60000.0,Thu Mar 19 2026 15:08:51 GMT-0500 (Central Daylight Time),879441.3000000715,A,home,O,e,381,1,2718.3000000715256,876723.0,7781,WL,C,1.0
5,5.2829999923706055,learn,60000.0,Thu Mar 19 2026 15:08:51 GMT-0500 (Central Daylight Time),882005.3000000715,A,homeenter,O,enter,2556,1,5282.300000071526,876723.0,7781,WL,C,1.0
5,6.016999959945679,learn,60000.0,Thu Mar 19 2026 15:08:51 GMT-0500 (Central Daylight Time),882739.4000000954,A,b,O,b,727,1,733.9000000953674,882005.5,7781,WL,C,2.0
5,6.200000047683716,learn,60000.0,Thu Mar 19 2026 15:08:51 GMT-0500 (Central Daylight Time),882922.0,A,bo,O,o,169,1,916.5,882005.5,7781,WL,C,2.0
5,6.465000152587891,learn,60000.0,Thu Mar 19 2026 15:08:51 GMT-0500 (Central Daylight Time),883187.1000000238,A,boy,O,y,249,1,1181.6000000238419,882005.5,7781,WL,C,2.0
5,7.249000072479248,learn,60000.0,Thu Mar 19 2026 15:08:51 GMT-0500 (Central Daylight Time),883971.8000000715,A,boyenter,O,enter,769,1,1966.3000000715256,882005.5,7781,WL,C,2.0
5,8.25,learn,60000.0,Thu Mar 19 2026 15:08:51 GMT-0500 (Central Daylight Time),884972.2000000477,A,n,O,n,994,1,1000.2000000476837,883972.0,7781,WL,C,3.0
5,8.416000127792358,learn,60000.0,Thu Mar 19 2026 15:08:51 GMT-0500 (Central Daylight Time),885138.4000000954,A,na,O,a,157,1,1166.4000000953674,883972.0,7781,WL,C,3.0
5,8.54800009727478,learn,60000.0,Thu Mar 19 2026 15:08:51 GMT-0500 (Central Daylight Time),885270.2000000477,A,nai,O,i,119,1,1298.2000000476837,883972.0,7781,WL,C,3.0
5,8.748000144958496,learn,60000.0,Thu Mar 19 2026 15:08:51 GMT-0500 (Central Daylight Time),885470.6000000238,A,nail,O,l,181,1,1498.6000000238419,883972.0,7781,WL,C,3.0
5,9.414999961853027,learn,60000.0,Thu Mar 19 2026 15:08:51 GMT-0500 (Central Daylight Time),886137.5,A,nailenter,O,enter,653,1,2165.5,883972.0,7781,WL,C,3.0
5,10.115000009536743,learn,60000.0,Thu Mar 19 2026 15:08:51 GMT-0500 (Central Daylight Time),886837.4000000954,A,s,O,s,691,1,699.6000000238419,886137.8000000715,7781,WL,C,4.0
5,10.263999938964844,learn,60000.0,Thu Mar 19 2026 15:08:51 GMT-0500 (Central Daylight Time),886986.4000000954,A,su,O,u,134,1,848.6000000238419,886137.8000000715,7781,WL,C,4.0
5,10.531000137329102,learn,60000.0,Thu Mar 19 2026 15:08:51 GMT-0500 (Central Daylight Time),887253.1000000238,A,sug,O,g,256,1,1115.2999999523163,886137.8000000715,7781,WL,C,4.0
5,10.716000080108643,learn,60000.0,Thu Mar 19 2026 15:08:51 GMT-0500 (Central Daylight Time),887438.1000000238,A,suga,O,a,161,1,1300.2999999523163,886137.8000000715,7781,WL,C,4.0
5,10.815000057220459,learn,60000.0,Thu Mar 19 2026 15:08:51 GMT-0500 (Central Daylight Time),887537.0,A,sugar,O,r,87,1,1399.1999999284744,886137.8000000715,7781,WL,C,4.0
5,11.71500015258789,learn,60000.0,Thu Mar 19 2026 15:08:51 GMT-0500 (Central Daylight Time),888437.4000000954,A,sugarenter,O,enter,893,1,2299.600000023842,886137.8000000715,7781,WL,C,4.0
5,13.246999979019165,learn,60000.0,Thu Mar 19 2026 15:08:51 GMT-0500 (Central Daylight Time),889969.8000000715,A,c,O,c,1520,1,1532.2000000476837,888437.6000000238,7781,WL,C,5.0
5,13.39900016784668,learn,60000.0,Thu Mar 19 2026 15:08:51 GMT-0500 (Central Daylight Time),890121.3000000715,A,ca,O,a,137,1,1683.7000000476837,888437.6000000238,7781,WL,C,5.0
5,13.513999938964844,learn,60000.0,Thu Mar 19 2026 15:08:51 GMT-0500 (Central Daylight Time),890236.4000000954,A,cam,O,m,106,1,1798.8000000715256,888437.6000000238,7781,WL,C,5.0
5,13.746999979019165,learn,60000.0,Thu Mar 19 2026 15:08:51 GMT-0500 (Central Daylight Time),890469.6000000238,A,camp,O,p,214,1,2032.0,888437.6000000238,7781,WL,C,5.0
5,14.580000162124634,learn,60000.0,Thu Mar 19 2026 15:08:51 GMT-0500 (Central Daylight Time),891302.1000000238,A,campenter,O,enter,814,1,2864.5,888437.6000000238,7781,WL,C,5.0
5,15.02999997138977,learn,60000.0,Thu Mar 19 2026 15:08:51 GMT-0500 (Central Daylight Time),891752.1000000238,A,l,O,l,437,1,449.7999999523163,891302.3000000715,7781,WL,C,6.0
5,15.213000059127808,learn,60000.0,Thu Mar 19 2026 15:08:51 GMT-0500 (Central Daylight Time),891935.0,A,le,O,e,171,1,632.6999999284744,891302.3000000715,7781,WL,C,6.0
5,15.480999946594238,learn,60000.0,Thu Mar 19 2026 15:08:51 GMT-0500 (Central Daylight Time),892203.5,A,let,O,t,260,1,901.1999999284744,891302.3000000715,7781,WL,C,6.0
5,15.630000114440918,learn,60000.0,Thu Mar 19 2026 15:08:51 GMT-0500 (Central Daylight Time),892352.2000000477,A,lett,O,t,134,1,1049.8999999761581,891302.3000000715,7781,WL,C,6.0
5,15.79800009727478,learn,60000.0,Thu Mar 19 2026 15:08:51 GMT-0500 (Central Daylight Time),892520.1000000238,A,lette,O,e,148,1,1217.7999999523163,891302.3000000715,7781,WL,C,6.0
5,15.878999948501587,learn,60000.0,Thu Mar 19 2026 15:08:51 GMT-0500 (Central Daylight Time),892601.8000000715,A,letter,O,r,68,1,1299.5,891302.3000000715,7781,WL,C,6.0
5,16.411999940872192,learn,60000.0,Thu Mar 19 2026 15:08:51 GMT-0500 (Central Daylight Time),893134.5,A,letterenter,O,enter,521,1,1832.1999999284744,891302.3000000715,7781,WL,C,6.0
5,17.17900013923645,learn,60000.0,Thu Mar 19 2026 15:08:51 GMT-0500 (Central Daylight Time),893901.0,A,t,O,t,759,1,766.1999999284744,893134.8000000715,7781,WL,C,7.0
5,17.430000066757202,learn,60000.0,Thu Mar 19 2026 15:08:51 GMT-0500 (Central Daylight Time),894152.4000000954,A,to,O,o,230,1,1017.6000000238419,893134.8000000715,7781,WL,C,7.0
5,17.811000108718872,learn,60000.0,Thu Mar 19 2026 15:08:51 GMT-0500 (Central Daylight Time),894534.4000000954,A,tow,O,w,372,1,1399.6000000238419,893134.8000000715,7781,WL,C,7.0
5,17.99500012397766,learn,60000.0,Thu Mar 19 2026 15:08:51 GMT-0500 (Central Daylight Time),894717.8000000715,A,towe,O,e,173,1,1583.0,893134.8000000715,7781,WL,C,7.0
5,18.094000101089478,learn,60000.0,Thu Mar 19 2026 15:08:51 GMT-0500 (Central Daylight Time),894817.5,A,tower,O,r,85,1,1682.6999999284744,893134.8000000715,7781,WL,C,7.0
5,19.09500002861023,learn,60000.0,Thu Mar 19 2026 15:08:51 GMT-0500 (Central Daylight Time),895817.9000000954,A,towerenter,O,enter,993,1,2683.100000023842,893134.8000000715,7781,WL,C,7.0
5,19.944000005722046,learn,60000.0,Thu Mar 19 2026 15:08:51 GMT-0500 (Central Daylight Time),896667.3000000715,A,q,O,q,843,1,849.1000000238419,895818.2000000477,7781,WL,C,8.0
5,20.0770001411438,learn,60000.0,Thu Mar 19 2026 15:08:51 GMT-0500 (Central Daylight Time),896799.9000000954,A,qu,O,u,124,1,981.7000000476837,895818.2000000477,7781,WL,C,8.0
5,20.3270001411438,learn,60000.0,Thu Mar 19 2026 15:08:51 GMT-0500 (Central Daylight Time),897049.8000000715,A,que,O,e,236,1,1231.6000000238419,895818.2000000477,7781,WL,C,8.0
5,20.462000131607056,learn,60000.0,Thu Mar 19 2026 15:08:51 GMT-0500 (Central Daylight Time),897185.3000000715,A,quee,O,e,119,1,1367.1000000238419,895818.2000000477,7781,WL,C,8.0
5,20.72699999809265,learn,60000.0,Thu Mar 19 2026 15:08:51 GMT-0500 (Central Daylight Time),897450.6000000238,A,queen,O,n,258,1,1632.3999999761581,895818.2000000477,7781,WL,C,8.0
5,21.243000030517578,learn,60000.0,Thu Mar 19 2026 15:08:51 GMT-0500 (Central Daylight Time),897966.4000000954,A,queenenter,O,enter,505,1,2148.2000000476837,895818.2000000477,7781,WL,C,8.0
5,22.14300012588501,learn,60000.0,Thu Mar 19 2026 15:08:51 GMT-0500 (Central Daylight Time),898866.6000000238,A,c,O,c,894,1,900.1000000238419,897966.5,7781,WL,C,9.0
5,22.358999967575073,learn,60000.0,Thu Mar 19 2026 15:08:51 GMT-0500 (Central Daylight Time),899081.9000000954,A,ca,O,a,201,1,1115.4000000953674,897966.5,7781,WL,C,9.0
5,22.657999992370605,learn,60000.0,Thu Mar 19 2026 15:08:51 GMT-0500 (Central Daylight Time),899381.6000000238,A,cat,O,t,282,1,1415.1000000238419,897966.5,7781,WL,C,9.0
5,22.80900001525879,learn,60000.0,Thu Mar 19 2026 15:08:51 GMT-0500 (Central Daylight Time),899532.5,A,catt,O,t,134,1,1566.0,897966.5,7781,WL,C,9.0
5,23.0770001411438,learn,60000.0,Thu Mar 19 2026 15:08:51 GMT-0500 (Central Daylight Time),899800.2000000477,A,cattl,O,l,256,1,1833.7000000476837,897966.5,7781,WL,C,9.0
5,23.243000030517578,learn,60000.0,Thu Mar 19 2026 15:08:51 GMT-0500 (Central Daylight Time),899965.8000000715,A,cattle,O,e,157,1,1999.3000000715256,897966.5,7781,WL,C,9.0
5,23.792999982833862,learn,60000.0,Thu Mar 19 2026 15:08:51 GMT-0500 (Central Daylight Time),900516.0,A,cattleenter,O,enter,532,1,2549.5,897966.5,7781,WL,C,9.0
5,24.427000045776367,learn,60000.0,Thu Mar 19 2026 15:08:51 GMT-0500 (Central Daylight Time),901150.2000000477,A,c,O,c,615,1,633.8999999761581,900516.3000000715,7781,WL,C,10.0
5,24.89400005340576,learn,60000.0,Thu Mar 19 2026 15:08:51 GMT-0500 (Central Daylight Time),901617.3000000715,A,co,O,o,462,1,1101.0,900516.3000000715,7781,WL,C,10.0
5,25.242000102996826,learn,60000.0,Thu Mar 19 2026 15:08:51 GMT-0500 (Central Daylight Time),901965.0,A,cor,O,r,338,1,1448.6999999284744,900516.3000000715,7781,WL,C,10.0
5,25.5770001411438,learn,60000.0,Thu Mar 19 2026 15:08:51 GMT-0500 (Central Daylight Time),902299.9000000954,A,corn,O,n,319,1,1783.6000000238419,900516.3000000715,7781,WL,C,10.0
5,26.14199995994568,learn,60000.0,Thu Mar 19 2026 15:08:51 GMT-0500 (Central Daylight Time),902865.3000000715,A,cornenter,O,enter,552,1,2349.0,900516.3000000715,7781,WL,C,10.0
5,26.64199995994568,learn,60000.0,Thu Mar 19 2026 15:08:51 GMT-0500 (Central Daylight Time),903365.1000000238,A,w,O,w,483,1,499.60000002384186,902865.5,7781,WL,C,11.0
5,26.70799994468689,learn,60000.0,Thu Mar 19 2026 15:08:51 GMT-0500 (Central Daylight Time),903431.2000000477,A,wh,O,h,46,1,565.7000000476837,902865.5,7781,WL,C,11.0
5,26.858999967575073,learn,60000.0,Thu Mar 19 2026 15:08:51 GMT-0500 (Central Daylight Time),903582.2000000477,A,whe,O,e,131,1,716.7000000476837,902865.5,7781,WL,C,11.0
5,26.975000143051147,learn,60000.0,Thu Mar 19 2026 15:08:51 GMT-0500 (Central Daylight Time),903698.5,A,whea,O,a,102,1,833.0,902865.5,7781,WL,C,11.0
5,27.108999967575073,learn,60000.0,Thu Mar 19 2026 15:08:51 GMT-0500 (Central Daylight Time),903831.8000000715,A,wheat,O,t,119,1,966.3000000715256,902865.5,7781,WL,C,11.0
5,27.70799994468689,learn,60000.0,Thu Mar 19 2026 15:08:51 GMT-0500 (Central Daylight Time),904431.2000000477,A,wheatenter,O,enter,586,1,1565.7000000476837,902865.5,7781,WL,C,11.0
5,31.575000047683716,learn,60000.0,Thu Mar 19 2026 15:08:51 GMT-0500 (Central Daylight Time),908298.4000000954,A,d,O,d,3862,1,3867.0,904431.4000000954,7781,WL,C,12.0
5,31.723000049591064,learn,60000.0,Thu Mar 19 2026 15:08:51 GMT-0500 (Central Daylight Time),908445.8000000715,A,do,O,o,135,1,4014.399999976158,904431.4000000954,7781,WL,C,12.0
5,31.85599994659424,learn,60000.0,Thu Mar 19 2026 15:08:51 GMT-0500 (Central Daylight Time),908579.3000000715,A,doc,O,c,124,1,4147.899999976158,904431.4000000954,7781,WL,C,12.0
5,32.307000160217285,learn,60000.0,Thu Mar 19 2026 15:08:51 GMT-0500 (Central Daylight Time),909030.2000000477,A,doco,O,o,439,1,4598.799999952316,904431.4000000954,7781,WL,C,12.0
5,32.42400002479553,learn,60000.0,Thu Mar 19 2026 15:08:51 GMT-0500 (Central Daylight Time),909147.0,A,docor,O,r,110,1,4715.599999904633,904431.4000000954,7781,WL,C,12.0
5,32.973999977111816,learn,60000.0,Thu Mar 19 2026 15:08:51 GMT-0500 (Central Daylight Time),909696.6000000238,A,docorenter,O,enter,536,1,5265.199999928474,904431.4000000954,7781,WL,C,12.0
5,33.77400016784668,learn,60000.0,Thu Mar 19 2026 15:08:51 GMT-0500 (Central Daylight Time),910496.7000000477,A,b,O,b,789,1,799.7999999523163,909696.9000000954,7781,WL,C,13.0
5,33.94000005722046,learn,60000.0,Thu Mar 19 2026 15:08:51 GMT-0500 (Central Daylight Time),910663.4000000954,A,bo,O,o,146,1,966.5,909696.9000000954,7781,WL,C,13.0
5,34.07299995422363,learn,60000.0,Thu Mar 19 2026 15:08:51 GMT-0500 (Central Daylight Time),910795.7000000477,A,bod,O,d,117,1,1098.7999999523163,909696.9000000954,7781,WL,C,13.0
5,34.23800015449524,learn,60000.0,Thu Mar 19 2026 15:08:51 GMT-0500 (Central Daylight Time),910961.3000000715,A,body,O,y,151,1,1264.3999999761581,909696.9000000954,7781,WL,C,13.0
5,34.86400008201599,learn,60000.0,Thu Mar 19 2026 15:08:51 GMT-0500 (Central Daylight Time),911587.0,A,bodyenter,O,enter,610,1,1890.0999999046326,909696.9000000954,7781,WL,C,13.0
5,37.83899998664856,learn,60000.0,Thu Mar 19 2026 15:08:51 GMT-0500 (Central Daylight Time),914562.5,A,n,O,n,2972,1,2975.2999999523163,911587.2000000477,7781,WL,C,14.0
5,38.00500011444092,learn,60000.0,Thu Mar 19 2026 15:08:51 GMT-0500 (Central Daylight Time),914728.5,A,na,O,a,151,1,3141.2999999523163,911587.2000000477,7781,WL,C,14.0
5,38.121999979019165,learn,60000.0,Thu Mar 19 2026 15:08:51 GMT-0500 (Central Daylight Time),914845.1000000238,A,nai,O,i,104,1,3257.899999976158,911587.2000000477,7781,WL,C,14.0
5,38.28800010681152,learn,60000.0,Thu Mar 19 2026 15:08:51 GMT-0500 (Central Daylight Time),915011.5,A,nail,O,l,162,1,3424.2999999523163,911587.2000000477,7781,WL,C,14.0
5,38.82200002670288,learn,60000.0,Thu Mar 19 2026 15:08:51 GMT-0500 (Central Daylight Time),915545.1000000238,A,nailenter,O,enter,521,1,3957.899999976158,911587.2000000477,7781,WL,C,14.0
5,40.30299997329712,learn,60000.0,Thu Mar 19 2026 15:08:51 GMT-0500 (Central Daylight Time),917026.0,A,s,O,s,1466,1,1480.5999999046326,915545.4000000954,7781,WL,C,15.0
5,40.4210000038147,learn,60000.0,Thu Mar 19 2026 15:08:51 GMT-0500 (Central Daylight Time),917144.4000000954,A,sh,O,h,97,1,1599.0,915545.4000000954,7781,WL,C,15.0
5,40.5550000667572,learn,60000.0,Thu Mar 19 2026 15:08:51 GMT-0500 (Central Daylight Time),917277.7000000477,A,sho,O,o,113,1,1732.2999999523163,915545.4000000954,7781,WL,C,15.0
5,40.73699998855591,learn,60000.0,Thu Mar 19 2026 15:08:51 GMT-0500 (Central Daylight Time),917460.2000000477,A,shor,O,r,165,1,1914.7999999523163,915545.4000000954,7781,WL,C,15.0
5,40.937999963760376,learn,60000.0,Thu Mar 19 2026 15:08:51 GMT-0500 (Central Daylight Time),917660.9000000954,A,shore,O,e,183,1,2115.5,915545.4000000954,7781,WL,C,15.0
5,41.47200012207031,learn,60000.0,Thu Mar 19 2026 15:08:51 GMT-0500 (Central Daylight Time),918194.8000000715,A,shoreenter,O,enter,527,1,2649.399999976158,915545.4000000954,7781,WL,C,15.0
6,1.1150000095367432,distr,58884.99999046326,Thu Mar 19 2026 15:08:51 GMT-0500 (Central Daylight Time),995968.6000000238,B,s,O,s,1092,1,1115.0,994853.6000000238,7781,WL,C,1.0
6,1.633000135421753,distr,58366.99986457825,Thu Mar 19 2026 15:08:51 GMT-0500 (Central Daylight Time),996486.4000000954,B,sk,O,k,496,1,1632.8000000715256,994853.6000000238,7781,WL,C,1.0
6,2.0329999923706055,distr,57967.000007629395,Thu Mar 19 2026 15:08:51 GMT-0500 (Central Daylight Time),996885.6000000238,B,sky,O,y,389,1,2032.0,994853.6000000238,7781,WL,C,1.0
6,2.8490002155303955,distr,57150.999784469604,Thu Mar 19 2026 15:08:51 GMT-0500 (Central Daylight Time),997701.9000000954,B,skyenter,O,enter,805,1,2848.3000000715256,994853.6000000238,7781,WL,C,1.0
6,3.5820000171661377,distr,56417.99998283386,Thu Mar 19 2026 15:08:51 GMT-0500 (Central Daylight Time),998434.9000000954,B,w,O,w,727,1,732.7000000476837,997702.2000000477,7781,WL,C,2.0
6,3.749000072479248,distr,56250.99992752075,Thu Mar 19 2026 15:08:51 GMT-0500 (Central Daylight Time),998601.8000000715,B,wi,O,i,158,1,899.6000000238419,997702.2000000477,7781,WL,C,2.0
6,3.830000162124634,distr,56169.999837875366,Thu Mar 19 2026 15:08:51 GMT-0500 (Central Daylight Time),998683.3000000715,B,win,O,n,74,1,981.1000000238419,997702.2000000477,7781,WL,C,2.0
6,4.081000089645386,distr,55918.999910354614,Thu Mar 19 2026 15:08:51 GMT-0500 (Central Daylight Time),998934.2000000477,B,wint,O,t,229,1,1232.0,997702.2000000477,7781,WL,C,2.0
6,4.248000144958496,distr,55751.999855041504,Thu Mar 19 2026 15:08:51 GMT-0500 (Central Daylight Time),999100.8000000715,B,winte,O,e,155,1,1398.6000000238419,997702.2000000477,7781,WL,C,2.0
6,4.332000017166138,distr,55667.99998283386,Thu Mar 19 2026 15:08:51 GMT-0500 (Central Daylight Time),999185.5,B,winter,O,r,78,1,1483.2999999523163,997702.2000000477,7781,WL,C,2.0
6,4.88100004196167,distr,55118.99995803833,Thu Mar 19 2026 15:08:51 GMT-0500 (Central Daylight Time),999734.0,B,winterenter,O,enter,537,1,2031.7999999523163,997702.2000000477,7781,WL,C,2.0
6,5.581000089645386,distr,54418.999910354614,Thu Mar 19 2026 15:08:51 GMT-0500 (Central Daylight Time),1000434.2000000477,B,m,O,m,695,1,699.8999999761581,999734.3000000715,7781,WL,C,3.0
6,5.78000020980835,distr,54219.99979019165,Thu Mar 19 2026 15:08:51 GMT-0500 (Central Daylight Time),1000632.8000000715,B,mo,O,o,183,1,898.5,999734.3000000715,7781,WL,C,3.0
6,6.0990002155303955,distr,53900.999784469604,Thu Mar 19 2026 15:08:51 GMT-0500 (Central Daylight Time),1000951.6000000238,B,mot,O,t,300,1,1217.2999999523163,999734.3000000715,7781,WL,C,3.0
6,6.198000192642212,distr,53801.99980735779,Thu Mar 19 2026 15:08:51 GMT-0500 (Central Daylight Time),1001050.9000000954,B,moth,O,h,83,1,1316.6000000238419,999734.3000000715,7781,WL,C,3.0
6,6.364000082015991,distr,53635.99991798401,Thu Mar 19 2026 15:08:51 GMT-0500 (Central Daylight Time),1001217.4000000954,B,mothe,O,e,152,1,1483.1000000238419,999734.3000000715,7781,WL,C,3.0
6,6.447000026702881,distr,53552.99997329712,Thu Mar 19 2026 15:08:51 GMT-0500 (Central Daylight Time),1001300.5,B,mother,O,r,65,1,1566.1999999284744,999734.3000000715,7781,WL,C,3.0
6,7.047000169754028,distr,52952.99983024597,Thu Mar 19 2026 15:08:51 GMT-0500 (Central Daylight Time),1001900.5,B,motherenter,O,enter,589,1,2166.1999999284744,999734.3000000715,7781,WL,C,3.0
6,8.902000188827515,distr,51097.999811172485,Thu Mar 19 2026 15:08:51 GMT-0500 (Central Daylight Time),1003754.7000000477,B,c,O,c,1840,1,1854.0,1001900.7000000477,7781,WL,C,4.0
6,9.080000162124634,distr,50919.999837875366,Thu Mar 19 2026 15:08:51 GMT-0500 (Central Daylight Time),1003933.0,B,ch,O,h,155,1,2032.2999999523163,1001900.7000000477,7781,WL,C,4.0
6,9.28000020980835,distr,50719.99979019165,Thu Mar 19 2026 15:08:51 GMT-0500 (Central Daylight Time),1004133.0,B,chr,O,r,191,1,2232.2999999523163,1001900.7000000477,7781,WL,C,4.0
6,9.44700002670288,distr,50552.99997329712,Thu Mar 19 2026 15:08:51 GMT-0500 (Central Daylight Time),1004300.5,B,chri,O,i,144,1,2399.7999999523163,1001900.7000000477,7781,WL,C,4.0
6,9.59600019454956,distr,50403.99980545044,Thu Mar 19 2026 15:08:51 GMT-0500 (Central Daylight Time),1004449.5,B,chris,O,s,134,1,2548.7999999523163,1001900.7000000477,7781,WL,C,4.0
6,9.84500002861023,distr,50154.99997138977,Thu Mar 19 2026 15:08:51 GMT-0500 (Central Daylight Time),1004698.4000000954,B,christ,O,t,239,1,2797.7000000476837,1001900.7000000477,7781,WL,C,4.0
6,10.130000114440918,distr,49869.99988555908,Thu Mar 19 2026 15:08:51 GMT-0500 (Central Daylight Time),1004983.3000000715,B,christm,O,m,263,1,3082.600000023842,1001900.7000000477,7781,WL,C,4.0
6,10.380000114440918,distr,49619.99988555908,Thu Mar 19 2026 15:08:51 GMT-0500 (Central Daylight Time),1005233.3000000715,B,christma,O,a,227,1,3332.600000023842,1001900.7000000477,7781,WL,C,4.0
6,10.67900013923645,distr,49320.99986076355,Thu Mar 19 2026 15:08:51 GMT-0500 (Central Daylight Time),1005532.4000000954,B,christmas,O,s,287,1,3631.7000000476837,1001900.7000000477,7781,WL,C,4.0
6,11.261000156402588,distr,48738.99984359741,Thu Mar 19 2026 15:08:51 GMT-0500 (Central Daylight Time),1006114.1000000238,B,christmasenter,O,enter,574,1,4213.399999976158,1001900.7000000477,7781,WL,C,4.0
6,17.112000226974487,distr,42887.99977302551,Thu Mar 19 2026 15:08:51 GMT-0500 (Central Daylight Time),1011965.0,B,b,O,b,5848,1,5850.699999928474,1006114.3000000715,7781,WL,C,5.0
6,17.32800006866455,distr,42671.99993133545,Thu Mar 19 2026 15:08:51 GMT-0500 (Central Daylight Time),1012180.6000000238,B,bu,O,u,206,1,6066.299999952316,1006114.3000000715,7781,WL,C,5.0
6,17.64400005340576,distr,42355.99994659424,Thu Mar 19 2026 15:08:51 GMT-0500 (Central Daylight Time),1012497.2000000477,B,but,O,t,293,1,6382.899999976158,1006114.3000000715,7781,WL,C,5.0
6,17.777000188827515,distr,42222.999811172485,Thu Mar 19 2026 15:08:51 GMT-0500 (Central Daylight Time),1012630.5,B,butt,O,t,123,1,6516.199999928474,1006114.3000000715,7781,WL,C,5.0
6,17.993000030517578,distr,42006.99996948242,Thu Mar 19 2026 15:08:51 GMT-0500 (Central Daylight Time),1012846.5,B,butte,O,e,196,1,6732.199999928474,1006114.3000000715,7781,WL,C,5.0
6,18.05900001525879,distr,41940.99998474121,Thu Mar 19 2026 15:08:51 GMT-0500 (Central Daylight Time),1012912.2000000477,B,butter,O,r,52,1,6797.899999976158,1006114.3000000715,7781,WL,C,5.0
6,18.627000093460083,distr,41372.99990653992,Thu Mar 19 2026 15:08:51 GMT-0500 (Central Daylight Time),1013480.0,B,butterenter,O,enter,556,1,7365.699999928474,1006114.3000000715,7781,WL,C,5.0
6,25.891000032424927,distr,34108.99996757507,Thu Mar 19 2026 15:08:51 GMT-0500 (Central Daylight Time),1020744.5,B,h,O,h,7254,1,7264.199999928474,1013480.3000000715,7781,WL,C,6.0
6,26.142000198364258,distr,33857.99980163574,Thu Mar 19 2026 15:08:51 GMT-0500 (Central Daylight Time),1020996.0,B,ho,O,o,235,1,7515.699999928474,1013480.3000000715,7781,WL,C,6.0
6,26.392000198364258,distr,33607.99980163574,Thu Mar 19 2026 15:08:51 GMT-0500 (Central Daylight Time),1021245.5,B,hot,O,t,228,1,7765.199999928474,1013480.3000000715,7781,WL,C,6.0
6,26.624000072479248,distr,33375.99992752075,Thu Mar 19 2026 15:08:51 GMT-0500 (Central Daylight Time),1021477.7000000477,B,hote,O,e,214,1,7997.399999976158,1013480.3000000715,7781,WL,C,6.0
6,26.990000009536743,distr,33009.99999046326,Thu Mar 19 2026 15:08:51 GMT-0500 (Central Daylight Time),1021843.5,B,hotel,O,l,358,1,8363.199999928474,1013480.3000000715,7781,WL,C,6.0
6,27.641000032424927,distr,32358.999967575073,Thu Mar 19 2026 15:08:51 GMT-0500 (Central Daylight Time),1022494.8000000715,B,hotelenter,O,enter,631,1,9014.5,1013480.3000000715,7781,WL,C,6.0
6,38.77000021934509,distr,21229.999780654907,Thu Mar 19 2026 15:08:51 GMT-0500 (Central Daylight Time),1033624.4000000954,B,p,O,p,11108,1,11129.400000095367,1022495.0,7781,WL,C,7.0
6,38.96900010108948,distr,21030.999898910522,Thu Mar 19 2026 15:08:51 GMT-0500 (Central Daylight Time),1033823.3000000715,B,pl,O,l,187,1,11328.300000071526,1022495.0,7781,WL,C,7.0
6,39.11900019645691,distr,20880.99980354309,Thu Mar 19 2026 15:08:51 GMT-0500 (Central Daylight Time),1033973.3000000715,B,pla,O,a,130,1,11478.300000071526,1022495.0,7781,WL,C,7.0
6,39.28600001335144,distr,20713.99998664856,Thu Mar 19 2026 15:08:51 GMT-0500 (Central Daylight Time),1034140.0,B,plan,O,n,159,1,11645.0,1022495.0,7781,WL,C,7.0
6,39.65300011634827,distr,20346.999883651733,Thu Mar 19 2026 15:08:51 GMT-0500 (Central Daylight Time),1034507.2000000477,B,plant,O,t,362,1,12012.200000047684,1022495.0,7781,WL,C,7.0
6,40.10300016403198,distr,19896.999835968018,Thu Mar 19 2026 15:08:51 GMT-0500 (Central Daylight Time),1034956.6000000238,B,plantenter,O,enter,431,1,12461.600000023842,1022495.0,7781,WL,C,7.0
6,60.01400017738342,distr,-14.000177383422852,Thu Mar 19 2026 15:08:51 GMT-0500 (Central Daylight Time),1054868.1000000238,B,None,O,None,19906,1,19911.199999928474,1034956.9000000954,7781,WL,C,8.0
7,2.934000015258789,immed,57065.99998474121,Thu Mar 19 2026 15:08:51 GMT-0500 (Central Daylight Time),1072711.7000000477,A,c,O,c,2921,1,2933.7999999523163,1069777.9000000954,7781,WL,C,1.0
7,3.133000135421753,immed,56866.99986457825,Thu Mar 19 2026 15:08:51 GMT-0500 (Central Daylight Time),1072910.6000000238,A,ca,O,a,189,1,3132.6999999284744,1069777.9000000954,7781,WL,C,1.0
7,3.4160001277923584,immed,56583.99987220764,Thu Mar 19 2026 15:08:51 GMT-0500 (Central Daylight Time),1073194.1000000238,A,cat,O,t,269,1,3416.1999999284744,1069777.9000000954,7781,WL,C,1.0
7,3.6010000705718994,immed,56398.9999294281,Thu Mar 19 2026 15:08:51 GMT-0500 (Central Daylight Time),1073379.2000000477,A,catt,O,t,180,1,3601.2999999523163,1069777.9000000954,7781,WL,C,1.0
7,3.8340001106262207,immed,56165.99988937378,Thu Mar 19 2026 15:08:51 GMT-0500 (Central Daylight Time),1073611.5,A,cattl,O,l,216,1,3833.5999999046326,1069777.9000000954,7781,WL,C,1.0
7,4.017000198364258,immed,55982.99980163574,Thu Mar 19 2026 15:08:51 GMT-0500 (Central Daylight Time),1073794.8000000715,A,cattle,O,e,177,1,4016.899999976158,1069777.9000000954,7781,WL,C,1.0
7,4.64900016784668,immed,55350.99983215332,Thu Mar 19 2026 15:08:51 GMT-0500 (Central Daylight Time),1074427.3000000715,A,cattleenter,O,enter,624,1,4649.399999976158,1069777.9000000954,7781,WL,C,1.0
7,5.550000190734863,immed,54449.99980926514,Thu Mar 19 2026 15:08:51 GMT-0500 (Central Daylight Time),1075328.9000000954,A,c,O,c,896,1,901.3000000715256,1074427.6000000238,7781,WL,C,2.0
7,5.731000185012817,immed,54268.99981498718,Thu Mar 19 2026 15:08:51 GMT-0500 (Central Daylight Time),1075510.1000000238,A,co,O,o,162,1,1082.5,1074427.6000000238,7781,WL,C,2.0
7,5.948000192642212,immed,54051.99980735779,Thu Mar 19 2026 15:08:51 GMT-0500 (Central Daylight Time),1075726.8000000715,A,cor,O,r,194,1,1299.2000000476837,1074427.6000000238,7781,WL,C,2.0
7,6.233000040054321,immed,53766.99995994568,Thu Mar 19 2026 15:08:51 GMT-0500 (Central Daylight Time),1076011.4000000954,A,corn,O,n,277,1,1583.8000000715256,1074427.6000000238,7781,WL,C,2.0
7,6.866000175476074,immed,53133.999824523926,Thu Mar 19 2026 15:08:51 GMT-0500 (Central Daylight Time),1076645.1000000238,A,cornenter,O,enter,613,1,2217.5,1074427.6000000238,7781,WL,C,2.0
7,7.980000019073486,immed,52019.999980926514,Thu Mar 19 2026 15:08:51 GMT-0500 (Central Daylight Time),1077758.8000000715,A,w,O,w,1102,1,1113.3999999761581,1076645.4000000954,7781,WL,C,3.0
7,8.116000175476074,immed,51883.999824523926,Thu Mar 19 2026 15:08:51 GMT-0500 (Central Daylight Time),1077894.3000000715,A,wh,O,h,126,1,1248.8999999761581,1076645.4000000954,7781,WL,C,3.0
7,8.248000144958496,immed,51751.999855041504,Thu Mar 19 2026 15:08:51 GMT-0500 (Central Daylight Time),1078026.8000000715,A,whe,O,e,119,1,1381.3999999761581,1076645.4000000954,7781,WL,C,3.0
7,8.416000127792358,immed,51583.99987220764,Thu Mar 19 2026 15:08:51 GMT-0500 (Central Daylight Time),1078194.5,A,whea,O,a,154,1,1549.0999999046326,1076645.4000000954,7781,WL,C,3.0
7,8.496999979019165,immed,51503.000020980835,Thu Mar 19 2026 15:08:51 GMT-0500 (Central Daylight Time),1078275.3000000715,A,wheat,O,t,65,1,1629.8999999761581,1076645.4000000954,7781,WL,C,3.0
7,9.115000009536743,immed,50884.99999046326,Thu Mar 19 2026 15:08:51 GMT-0500 (Central Daylight Time),1078893.2000000477,A,wheatenter,O,enter,610,1,2247.7999999523163,1076645.4000000954,7781,WL,C,3.0
7,9.86300015449524,immed,50136.99984550476,Thu Mar 19 2026 15:08:51 GMT-0500 (Central Daylight Time),1079641.2000000477,A,s,O,s,733,1,747.7000000476837,1078893.5,7781,WL,C,4.0
7,10.312000036239624,immed,49687.999963760376,Thu Mar 19 2026 15:08:51 GMT-0500 (Central Daylight Time),1080091.0,A,su,O,u,442,1,1197.5,1078893.5,7781,WL,C,4.0
7,10.663000106811523,immed,49336.99989318848,Thu Mar 19 2026 15:08:51 GMT-0500 (Central Daylight Time),1080441.4000000954,A,sug,O,g,337,1,1547.9000000953674,1078893.5,7781,WL,C,4.0
7,10.91100001335144,immed,49088.99998664856,Thu Mar 19 2026 15:08:51 GMT-0500 (Central Daylight Time),1080690.1000000238,A,suga,O,a,235,1,1796.6000000238419,1078893.5,7781,WL,C,4.0
7,11.146000146865845,immed,48853.999853134155,Thu Mar 19 2026 15:08:51 GMT-0500 (Central Daylight Time),1080924.7000000477,A,sugar,O,r,219,1,2031.2000000476837,1078893.5,7781,WL,C,4.0
7,11.580000162124634,immed,48419.999837875366,Thu Mar 19 2026 15:08:51 GMT-0500 (Central Daylight Time),1081358.3000000715,A,sugarenter,O,enter,418,1,2464.8000000715256,1078893.5,7781,WL,C,4.0
7,12.229000091552734,immed,47770.999908447266,Thu Mar 19 2026 15:08:51 GMT-0500 (Central Daylight Time),1082007.8000000715,A,d,O,d,638,1,649.2000000476837,1081358.6000000238,7781,WL,C,5.0
7,12.41100001335144,immed,47588.99998664856,Thu Mar 19 2026 15:08:51 GMT-0500 (Central Daylight Time),1082189.6000000238,A,do,O,o,168,1,831.0,1081358.6000000238,7781,WL,C,5.0
7,12.562000036239624,immed,47437.999963760376,Thu Mar 19 2026 15:08:51 GMT-0500 (Central Daylight Time),1082341.2000000477,A,doc,O,c,135,1,982.6000000238419,1081358.6000000238,7781,WL,C,5.0
7,13.01200008392334,immed,46987.99991607666,Thu Mar 19 2026 15:08:51 GMT-0500 (Central Daylight Time),1082790.6000000238,A,doct,O,t,433,1,1432.0,1081358.6000000238,7781,WL,C,5.0
7,13.17900013923645,immed,46820.99986076355,Thu Mar 19 2026 15:08:51 GMT-0500 (Central Daylight Time),1082957.5,A,docto,O,o,148,1,1598.8999999761581,1081358.6000000238,7781,WL,C,5.0
7,13.379000186920166,immed,46620.999813079834,Thu Mar 19 2026 15:08:51 GMT-0500 (Central Daylight Time),1083157.5,A,doctor,O,r,189,1,1798.8999999761581,1081358.6000000238,7781,WL,C,5.0
7,14.011000156402588,immed,45988.99984359741,Thu Mar 19 2026 15:08:51 GMT-0500 (Central Daylight Time),1083789.4000000954,A,doctorenter,O,enter,611,1,2430.8000000715256,1081358.6000000238,7781,WL,C,5.0
7,14.795000076293945,immed,45204.999923706055,Thu Mar 19 2026 15:08:51 GMT-0500 (Central Daylight Time),1084573.7000000477,A,b,O,b,774,1,784.0,1083789.7000000477,7781,WL,C,6.0
7,14.894999980926514,immed,45105.000019073486,Thu Mar 19 2026 15:08:51 GMT-0500 (Central Daylight Time),1084673.7000000477,A,bo,O,o,90,1,884.0,1083789.7000000477,7781,WL,C,6.0
7,15.128000020980835,immed,44871.999979019165,Thu Mar 19 2026 15:08:51 GMT-0500 (Central Daylight Time),1084907.0,A,bod,O,d,223,1,1117.2999999523163,1083789.7000000477,7781,WL,C,6.0
7,15.328999996185303,immed,44671.0000038147,Thu Mar 19 2026 15:08:51 GMT-0500 (Central Daylight Time),1085107.9000000954,A,body,O,y,182,1,1318.2000000476837,1083789.7000000477,7781,WL,C,6.0
7,16.011000156402588,immed,43988.99984359741,Thu Mar 19 2026 15:08:51 GMT-0500 (Central Daylight Time),1085790.0,A,bodyenter,O,enter,662,1,2000.2999999523163,1083789.7000000477,7781,WL,C,6.0
7,17.044000148773193,immed,42955.99985122681,Thu Mar 19 2026 15:08:51 GMT-0500 (Central Daylight Time),1086822.5,A,h,O,h,1014,1,1032.2999999523163,1085790.2000000477,7781,WL,C,7.0
7,17.312000036239624,immed,42687.999963760376,Thu Mar 19 2026 15:08:51 GMT-0500 (Central Daylight Time),1087090.4000000954,A,ho,O,o,254,1,1300.2000000476837,1085790.2000000477,7781,WL,C,7.0
7,17.39400005340576,immed,42605.99994659424,Thu Mar 19 2026 15:08:51 GMT-0500 (Central Daylight Time),1087172.9000000954,A,hom,O,m,62,1,1382.7000000476837,1085790.2000000477,7781,WL,C,7.0
7,17.575999975204468,immed,42424.00002479553,Thu Mar 19 2026 15:08:51 GMT-0500 (Central Daylight Time),1087354.9000000954,A,home,O,e,170,1,1564.7000000476837,1085790.2000000477,7781,WL,C,7.0
7,18.06000018119812,immed,41939.99981880188,Thu Mar 19 2026 15:08:51 GMT-0500 (Central Daylight Time),1087838.7000000477,A,homeenter,O,enter,471,1,2048.5,1085790.2000000477,7781,WL,C,7.0
7,18.8270001411438,immed,41172.9998588562,Thu Mar 19 2026 15:08:51 GMT-0500 (Central Daylight Time),1088605.9000000954,A,b,O,b,757,1,766.8000000715256,1087839.1000000238,7781,WL,C,8.0
7,18.960000038146973,immed,41039.99996185303,Thu Mar 19 2026 15:08:51 GMT-0500 (Central Daylight Time),1088739.0,A,bo,O,o,115,1,899.8999999761581,1087839.1000000238,7781,WL,C,8.0
7,19.228000164031982,immed,40771.99983596802,Thu Mar 19 2026 15:08:51 GMT-0500 (Central Daylight Time),1089006.8000000715,A,boy,O,y,247,1,1167.7000000476837,1087839.1000000238,7781,WL,C,8.0
7,19.843000173568726,immed,40156.999826431274,Thu Mar 19 2026 15:08:51 GMT-0500 (Central Daylight Time),1089622.1000000238,A,boyenter,O,enter,595,1,1783.0,1087839.1000000238,7781,WL,C,8.0
7,21.792999982833862,immed,38207.00001716614,Thu Mar 19 2026 15:08:51 GMT-0500 (Central Daylight Time),1091571.4000000954,A,q,O,q,1943,1,1949.0,1089622.4000000954,7781,WL,C,9.0
7,21.99400019645691,immed,38005.99980354309,Thu Mar 19 2026 15:08:51 GMT-0500 (Central Daylight Time),1091772.7000000477,A,qu,O,u,188,1,2150.2999999523163,1089622.4000000954,7781,WL,C,9.0
7,22.210000038146973,immed,37789.99996185303,Thu Mar 19 2026 15:08:51 GMT-0500 (Central Daylight Time),1091988.6000000238,A,que,O,e,200,1,2366.1999999284744,1089622.4000000954,7781,WL,C,9.0
7,22.74400019645691,immed,37255.99980354309,Thu Mar 19 2026 15:08:51 GMT-0500 (Central Daylight Time),1092523.2000000477,A,quee,O,e,524,1,2900.7999999523163,1089622.4000000954,7781,WL,C,9.0
7,23.12600016593933,immed,36873.99983406067,Thu Mar 19 2026 15:08:51 GMT-0500 (Central Daylight Time),1092904.7000000477,A,queen,O,n,367,1,3282.2999999523163,1089622.4000000954,7781,WL,C,9.0
7,23.659000158309937,immed,36340.99984169006,Thu Mar 19 2026 15:08:51 GMT-0500 (Central Daylight Time),1093437.8000000715,A,queenenter,O,enter,513,1,3815.399999976158,1089622.4000000954,7781,WL,C,9.0
7,24.125,immed,35875.0,Thu Mar 19 2026 15:08:51 GMT-0500 (Central Daylight Time),1093904.0,A,t,O,t,454,1,465.89999997615814,1093438.1000000238,7781,WL,C,10.0
7,24.27500009536743,immed,35724.99990463257,Thu Mar 19 2026 15:08:51 GMT-0500 (Central Daylight Time),1094053.9000000954,A,to,O,o,128,1,615.8000000715256,1093438.1000000238,7781,WL,C,10.0
7,24.509000062942505,immed,35490.999937057495,Thu Mar 19 2026 15:08:51 GMT-0500 (Central Daylight Time),1094288.1000000238,A,tow,O,w,211,1,850.0,1093438.1000000238,7781,WL,C,10.0
7,24.657999992370605,immed,35342.000007629395,Thu Mar 19 2026 15:08:51 GMT-0500 (Central Daylight Time),1094437.0,A,towe,O,e,137,1,998.8999999761581,1093438.1000000238,7781,WL,C,10.0
7,24.759000062942505,immed,35240.999937057495,Thu Mar 19 2026 15:08:51 GMT-0500 (Central Daylight Time),1094537.8000000715,A,tower,O,r,95,1,1099.7000000476837,1093438.1000000238,7781,WL,C,10.0
7,25.558000087738037,immed,34441.99991226196,Thu Mar 19 2026 15:08:51 GMT-0500 (Central Daylight Time),1095337.0,A,towerenter,O,enter,782,1,1898.8999999761581,1093438.1000000238,7781,WL,C,10.0
7,33.039000034332275,immed,26960.999965667725,Thu Mar 19 2026 15:08:51 GMT-0500 (Central Daylight Time),1102817.7000000477,A,c,O,c,7466,1,7480.5,1095337.2000000477,7781,WL,C,11.0
7,33.223000049591064,immed,26776.999950408936,Thu Mar 19 2026 15:08:51 GMT-0500 (Central Daylight Time),1103001.9000000954,A,ca,O,a,175,1,7664.700000047684,1095337.2000000477,7781,WL,C,11.0
7,33.4060001373291,immed,26593.9998626709,Thu Mar 19 2026 15:08:51 GMT-0500 (Central Daylight Time),1103185.0,A,can,O,n,160,1,7847.799999952316,1095337.2000000477,7781,WL,C,11.0
7,34.23900008201599,immed,25760.99991798401,Thu Mar 19 2026 15:08:51 GMT-0500 (Central Daylight Time),1104018.2000000477,A,ca,O,backspace,815,1,8681.0,1095337.2000000477,7781,WL,C,11.0
7,34.65499997138977,immed,25345.00002861023,Thu Mar 19 2026 15:08:51 GMT-0500 (Central Daylight Time),1104433.9000000954,A,cam,O,m,407,1,9096.700000047684,1095337.2000000477,7781,WL,C,11.0
7,35.223000049591064,immed,24776.999950408936,Thu Mar 19 2026 15:08:51 GMT-0500 (Central Daylight Time),1105001.3000000715,A,camp,O,p,551,1,9664.100000023842,1095337.2000000477,7781,WL,C,11.0
7,36.254000186920166,immed,23745.999813079834,Thu Mar 19 2026 15:08:51 GMT-0500 (Central Daylight Time),1106033.2000000477,A,campenter,O,enter,1024,1,10696.0,1095337.2000000477,7781,WL,C,11.0
7,36.75500011444092,immed,23244.999885559082,Thu Mar 19 2026 15:08:51 GMT-0500 (Central Daylight Time),1106533.4000000954,A,l,O,l,483,1,499.90000009536743,1106033.5,7781,WL,C,12.0
7,36.97100019454956,immed,23028.99980545044,Thu Mar 19 2026 15:08:51 GMT-0500 (Central Daylight Time),1106749.9000000954,A,le,O,e,194,1,716.4000000953674,1106033.5,7781,WL,C,12.0
7,37.2720000743866,immed,22727.999925613403,Thu Mar 19 2026 15:08:51 GMT-0500 (Central Daylight Time),1107050.9000000954,A,let,O,t,293,1,1017.4000000953674,1106033.5,7781,WL,C,12.0
7,37.438000202178955,immed,22561.999797821045,Thu Mar 19 2026 15:08:51 GMT-0500 (Central Daylight Time),1107217.1000000238,A,lett,O,t,150,1,1183.6000000238419,1106033.5,7781,WL,C,12.0
7,37.604000091552734,immed,22395.999908447266,Thu Mar 19 2026 15:08:51 GMT-0500 (Central Daylight Time),1107382.9000000954,A,lette,O,e,153,1,1349.4000000953674,1106033.5,7781,WL,C,12.0
7,37.7039999961853,immed,22296.000003814697,Thu Mar 19 2026 15:08:51 GMT-0500 (Central Daylight Time),1107482.9000000954,A,letter,O,r,73,1,1449.4000000953674,1106033.5,7781,WL,C,12.0
7,38.12000012397766,immed,21879.99987602234,Thu Mar 19 2026 15:08:51 GMT-0500 (Central Daylight Time),1107898.8000000715,A,letterenter,O,enter,397,1,1865.3000000715256,1106033.5,7781,WL,C,12.0
7,58.449000120162964,immed,1550.9998798370361,Thu Mar 19 2026 15:08:51 GMT-0500 (Central Daylight Time),1128227.3000000715,A,n,O,n,20324,1,20328.399999976158,1107898.9000000954,7781,WL,C,13.0
7,58.748000144958496,immed,1251.999855041504,Thu Mar 19 2026 15:08:51 GMT-0500 (Central Daylight Time),1128526.7000000477,A,na,O,a,276,1,20627.799999952316,1107898.9000000954,7781,WL,C,13.0
7,58.94800019264221,immed,1051.999807357788,Thu Mar 19 2026 15:08:51 GMT-0500 (Central Daylight Time),1128726.5,A,nai,O,i,188,1,20827.599999904633,1107898.9000000954,7781,WL,C,13.0
7,59.496999979019165,immed,503.00002098083496,Thu Mar 19 2026 15:08:51 GMT-0500 (Central Daylight Time),1129275.8000000715,A,nail,O,l,541,1,21376.899999976158,1107898.9000000954,7781,WL,C,13.0
7,60.01600003242493,immed,-16.000032424926758,Thu Mar 19 2026 15:08:51 GMT-0500 (Central Daylight Time),1129794.2000000477,A,nailNone,O,None,511,1,21895.299999952316,1107898.9000000954,7781,WL,C,13.0
