acc_sum,block,block_c,change,condition,correct,correct_response,datetime,endtime,face,project,response,response_time,row_sel,session_number,start_end,starttime,subject_id,task,task_vers,trial
0,prac,1,,1-Back,,,Fri May 09 2025 09:27:26 GMT-0500 (Central Daylight Time),,093_m_f_n_a.png,O,space,5491,1,1,,,7140,NNB,C,0
1,prac,1,0.0,1-Back,1,m,Fri May 09 2025 09:27:26 GMT-0500 (Central Daylight Time),118212.39999999106,098_y_f_n_a.png,O,m,1016,2,1,1886.2000000029802,116326.19999998808,7140,NNB,C,1
2,prac,1,1.0,1-Back,1,z,Fri May 09 2025 09:27:26 GMT-0500 (Central Daylight Time),119878.69999998808,098_y_f_n_a.png,O,z,882,3,1,1654.2999999970198,118224.39999999106,7140,NNB,C,2
3,prac,1,0.0,1-Back,1,m,Fri May 09 2025 09:27:26 GMT-0500 (Central Daylight Time),121611.39999999106,059_o_m_n_a.png,O,m,852,4,1,1721.0,119890.39999999106,7140,NNB,C,3
4,prac,1,0.0,1-Back,1,m,Fri May 09 2025 09:27:26 GMT-0500 (Central Daylight Time),123444.89999999106,092_m_m_n_a.png,O,m,945,5,1,1821.2000000029802,121623.69999998808,7140,NNB,C,4
5,prac,1,1.0,1-Back,1,z,Fri May 09 2025 09:27:26 GMT-0500 (Central Daylight Time),124943.79999999702,092_m_m_n_a.png,O,z,713,6,1,1487.2000000029802,123456.59999999404,7140,NNB,C,5
6,prac,1,0.0,1-Back,1,m,Fri May 09 2025 09:27:26 GMT-0500 (Central Daylight Time),126593.19999998808,130_o_f_n_a.png,O,m,743,7,1,1636.8999999910593,124956.29999999702,7140,NNB,C,6
6,prac,1,0.0,1-Back,0,m,Fri May 09 2025 09:27:26 GMT-0500 (Central Daylight Time),128109.39999999106,082_m_m_n_a.png,O,z,633,8,1,1501.7000000029802,126607.69999998808,7140,NNB,C,7
7,prac,1,0.0,1-Back,1,m,Fri May 09 2025 09:27:26 GMT-0500 (Central Daylight Time),130425.29999999702,093_m_f_n_a.png,O,m,1519,9,1,2301.9000000059605,128123.39999999106,7140,NNB,C,8
8,prac,1,1.0,1-Back,1,z,Fri May 09 2025 09:27:26 GMT-0500 (Central Daylight Time),132024.69999998808,093_m_f_n_a.png,O,z,805,10,1,1588.0999999940395,130436.59999999404,7140,NNB,C,9
9,prac,1,0.0,1-Back,1,m,Fri May 09 2025 09:27:26 GMT-0500 (Central Daylight Time),133707.39999999106,059_o_m_n_a.png,O,m,898,11,1,1668.0999999940395,132039.29999999702,7140,NNB,C,10
10,prac,1,0.0,1-Back,1,m,Fri May 09 2025 09:27:26 GMT-0500 (Central Daylight Time),135307.19999998808,028_y_f_n_a.png,O,m,714,12,1,1587.2999999970198,133719.89999999106,7140,NNB,C,11
0,test,1,0.0,1-Back,,,Fri May 09 2025 09:27:26 GMT-0500 (Central Daylight Time),135307.19999998808,098_y_f_n_a.png,O,space,4205,1,1,1587.2999999970198,133719.89999999106,7140,NNB,C,0
1,test,1,0.0,1-Back,1,m,Fri May 09 2025 09:27:26 GMT-0500 (Central Daylight Time),149635.69999998808,006_m_f_n_a.png,O,m,696,2,1,1703.7999999970198,147931.89999999106,7140,NNB,C,1
2,test,1,0.0,1-Back,1,m,Fri May 09 2025 09:27:26 GMT-0500 (Central Daylight Time),151385.29999999702,028_y_f_n_a.png,O,m,726,3,1,1738.0,149647.29999999702,7140,NNB,C,2
3,test,1,1.0,1-Back,1,z,Fri May 09 2025 09:27:26 GMT-0500 (Central Daylight Time),153034.69999998808,028_y_f_n_a.png,O,z,625,4,1,1637.0,151397.69999998808,7140,NNB,C,3
4,test,1,0.0,1-Back,1,m,Fri May 09 2025 09:27:26 GMT-0500 (Central Daylight Time),154684.29999999702,006_m_f_n_a.png,O,m,623,5,1,1639.2999999970198,153045.0,7140,NNB,C,4
5,test,1,0.0,1-Back,1,m,Fri May 09 2025 09:27:26 GMT-0500 (Central Daylight Time),156350.09999999404,059_o_m_n_a.png,O,m,645,6,1,1656.2000000029802,154693.89999999106,7140,NNB,C,5
6,test,1,1.0,1-Back,1,z,Fri May 09 2025 09:27:26 GMT-0500 (Central Daylight Time),158066.59999999404,059_o_m_n_a.png,O,z,691,7,1,1706.2000000029802,156360.39999999106,7140,NNB,C,6
7,test,1,0.0,1-Back,1,m,Fri May 09 2025 09:27:26 GMT-0500 (Central Daylight Time),159766.0,092_m_m_n_a.png,O,m,679,8,1,1689.1000000089407,158076.89999999106,7140,NNB,C,7
8,test,1,0.0,1-Back,1,m,Fri May 09 2025 09:27:26 GMT-0500 (Central Daylight Time),162298.79999999702,130_o_f_n_a.png,O,m,1500,9,1,2518.2000000029802,159780.59999999404,7140,NNB,C,8
9,test,1,0.0,1-Back,1,m,Fri May 09 2025 09:27:26 GMT-0500 (Central Daylight Time),164081.29999999702,092_m_m_n_a.png,O,m,751,10,1,1772.0,162309.29999999702,7140,NNB,C,9
10,test,1,0.0,1-Back,1,m,Fri May 09 2025 09:27:26 GMT-0500 (Central Daylight Time),165630.79999999702,057_y_m_n_a.png,O,m,528,11,1,1538.6000000089407,164092.19999998808,7140,NNB,C,10
11,test,1,1.0,1-Back,1,z,Fri May 09 2025 09:27:26 GMT-0500 (Central Daylight Time),167230.29999999702,057_y_m_n_a.png,O,z,571,12,1,1587.6000000089407,165642.69999998808,7140,NNB,C,11
12,test,1,0.0,1-Back,1,m,Fri May 09 2025 09:27:26 GMT-0500 (Central Daylight Time),169063.09999999404,030_o_f_n_a.png,O,m,811,13,1,1823.4000000059605,167239.69999998808,7140,NNB,C,12
13,test,1,1.0,1-Back,1,z,Fri May 09 2025 09:27:26 GMT-0500 (Central Daylight Time),170912.79999999702,030_o_f_n_a.png,O,z,818,14,1,1838.7999999970198,169074.0,7140,NNB,C,13
14,test,1,0.0,1-Back,1,m,Fri May 09 2025 09:27:26 GMT-0500 (Central Daylight Time),172562.19999998808,031_y_m_n_a.png,O,m,616,15,1,1637.2999999970198,170924.89999999106,7140,NNB,C,14
15,test,1,0.0,1-Back,1,m,Fri May 09 2025 09:27:26 GMT-0500 (Central Daylight Time),174411.5,093_m_f_n_a.png,O,m,823,16,1,1838.1000000089407,172573.39999999106,7140,NNB,C,15
16,test,1,0.0,1-Back,1,m,Fri May 09 2025 09:27:26 GMT-0500 (Central Daylight Time),175960.89999999106,146_o_m_n_a.png,O,m,526,17,1,1538.5999999940395,174422.29999999702,7140,NNB,C,16
17,test,1,0.0,1-Back,1,m,Fri May 09 2025 09:27:26 GMT-0500 (Central Daylight Time),177610.69999998808,093_m_f_n_a.png,O,m,632,18,1,1636.2999999970198,175974.39999999106,7140,NNB,C,17
0,test,2,0.0,1-Back,,,Fri May 09 2025 09:27:26 GMT-0500 (Central Daylight Time),177610.69999998808,092_m_m_n_a.png,O,space,3046,1,1,1636.2999999970198,175974.39999999106,7140,NNB,C,0
1,test,2,0.0,1-Back,1,m,Fri May 09 2025 09:27:26 GMT-0500 (Central Daylight Time),184841.39999999106,006_m_f_n_a.png,O,m,1117,2,1,2138.7999999970198,182702.59999999404,7140,NNB,C,1
2,test,2,1.0,1-Back,1,z,Fri May 09 2025 09:27:26 GMT-0500 (Central Daylight Time),186541.0,006_m_f_n_a.png,O,z,680,3,1,1688.1000000089407,184852.89999999106,7140,NNB,C,2
3,test,2,0.0,1-Back,1,m,Fri May 09 2025 09:27:26 GMT-0500 (Central Daylight Time),188574.79999999702,092_m_m_n_a.png,O,m,1004,4,1,2020.9000000059605,186553.89999999106,7140,NNB,C,3
4,test,2,0.0,1-Back,1,m,Fri May 09 2025 09:27:26 GMT-0500 (Central Daylight Time),190106.79999999702,057_y_m_n_a.png,O,m,500,5,1,1520.9000000059605,188585.89999999106,7140,NNB,C,4
5,test,2,0.0,1-Back,1,m,Fri May 09 2025 09:27:26 GMT-0500 (Central Daylight Time),191639.5,098_y_f_n_a.png,O,m,503,6,1,1522.1000000089407,190117.39999999106,7140,NNB,C,5
6,test,2,1.0,1-Back,1,z,Fri May 09 2025 09:27:26 GMT-0500 (Central Daylight Time),193172.29999999702,098_y_f_n_a.png,O,z,514,7,1,1520.2000000029802,191652.09999999404,7140,NNB,C,6
7,test,2,0.0,1-Back,1,m,Fri May 09 2025 09:27:26 GMT-0500 (Central Daylight Time),194788.29999999702,057_y_m_n_a.png,O,m,589,8,1,1606.6000000089407,193181.69999998808,7140,NNB,C,7
8,test,2,0.0,1-Back,1,m,Fri May 09 2025 09:27:26 GMT-0500 (Central Daylight Time),196338.09999999404,030_o_f_n_a.png,O,m,526,9,1,1540.2000000029802,194797.89999999106,7140,NNB,C,8
9,test,2,0.0,1-Back,1,m,Fri May 09 2025 09:27:26 GMT-0500 (Central Daylight Time),197887.39999999106,082_m_m_n_a.png,O,m,519,10,1,1535.7000000029802,196351.69999998808,7140,NNB,C,9
10,test,2,1.0,1-Back,1,z,Fri May 09 2025 09:27:26 GMT-0500 (Central Daylight Time),199420.39999999106,082_m_m_n_a.png,O,z,507,11,1,1522.7000000029802,197897.69999998808,7140,NNB,C,10
11,test,2,0.0,1-Back,1,m,Fri May 09 2025 09:27:26 GMT-0500 (Central Daylight Time),200903.19999998808,030_o_f_n_a.png,O,m,461,12,1,1472.0999999940395,199431.09999999404,7140,NNB,C,11
11,test,2,0.0,1-Back,0,m,Fri May 09 2025 09:27:26 GMT-0500 (Central Daylight Time),202602.69999998808,130_o_f_n_a.png,O,z,682,13,1,1689.2999999970198,200913.39999999106,7140,NNB,C,12
12,test,2,0.0,1-Back,1,m,Fri May 09 2025 09:27:26 GMT-0500 (Central Daylight Time),204237.59999999404,059_o_m_n_a.png,O,m,601,14,1,1621.0999999940395,202616.5,7140,NNB,C,13
13,test,2,0.0,1-Back,1,m,Fri May 09 2025 09:27:26 GMT-0500 (Central Daylight Time),206051.19999998808,146_o_m_n_a.png,O,m,782,15,1,1798.699999988079,204252.5,7140,NNB,C,14
14,test,2,1.0,1-Back,1,z,Fri May 09 2025 09:27:26 GMT-0500 (Central Daylight Time),207751.19999998808,146_o_m_n_a.png,O,z,679,16,1,1688.7999999970198,206062.39999999106,7140,NNB,C,15
15,test,2,0.0,1-Back,1,m,Fri May 09 2025 09:27:26 GMT-0500 (Central Daylight Time),209367.39999999106,031_y_m_n_a.png,O,m,595,17,1,1605.5,207761.89999999106,7140,NNB,C,16
16,test,2,1.0,1-Back,1,z,Fri May 09 2025 09:27:26 GMT-0500 (Central Daylight Time),211083.09999999404,031_y_m_n_a.png,O,z,699,18,1,1702.7999999970198,209380.29999999702,7140,NNB,C,17
0,test,3,1.0,1-Back,,,Fri May 09 2025 09:27:26 GMT-0500 (Central Daylight Time),211083.09999999404,028_y_f_n_a.png,O,space,1182,1,1,1702.7999999970198,209380.29999999702,7140,NNB,C,0
1,test,3,0.0,1-Back,1,m,Fri May 09 2025 09:27:26 GMT-0500 (Central Daylight Time),216231.5,146_o_m_n_a.png,O,m,827,1,1,1835.2000000029802,214396.29999999702,7140,NNB,C,1
2,test,3,1.0,1-Back,1,z,Fri May 09 2025 09:27:26 GMT-0500 (Central Daylight Time),218330.89999999106,146_o_m_n_a.png,O,z,1083,1,1,2088.8999999910593,216242.0,7140,NNB,C,2
3,test,3,0.0,1-Back,1,m,Fri May 09 2025 09:27:26 GMT-0500 (Central Daylight Time),220047.19999998808,093_m_f_n_a.png,O,m,686,1,1,1705.8999999910593,218341.29999999702,7140,NNB,C,3
4,test,3,1.0,1-Back,1,z,Fri May 09 2025 09:27:26 GMT-0500 (Central Daylight Time),221746.69999998808,093_m_f_n_a.png,O,z,682,1,1,1688.0,220058.69999998808,7140,NNB,C,4
5,test,3,0.0,1-Back,1,m,Fri May 09 2025 09:27:26 GMT-0500 (Central Daylight Time),223362.79999999702,030_o_f_n_a.png,O,m,599,1,1,1606.7999999970198,221756.0,7140,NNB,C,5
6,test,3,0.0,1-Back,1,m,Fri May 09 2025 09:27:26 GMT-0500 (Central Daylight Time),224895.79999999702,057_y_m_n_a.png,O,m,511,1,1,1518.7000000029802,223377.09999999404,7140,NNB,C,6
7,test,3,0.0,1-Back,1,m,Fri May 09 2025 09:27:26 GMT-0500 (Central Daylight Time),226461.89999999106,030_o_f_n_a.png,O,m,537,1,1,1552.5,224909.39999999106,7140,NNB,C,7
8,test,3,0.0,1-Back,1,m,Fri May 09 2025 09:27:26 GMT-0500 (Central Daylight Time),228177.89999999106,031_y_m_n_a.png,O,m,581,1,1,1703.5,226474.39999999106,7140,NNB,C,8
9,test,3,1.0,1-Back,1,z,Fri May 09 2025 09:27:26 GMT-0500 (Central Daylight Time),229744.29999999702,031_y_m_n_a.png,O,z,543,1,1,1557.6000000089407,228186.69999998808,7140,NNB,C,9
10,test,3,0.0,1-Back,1,m,Fri May 09 2025 09:27:26 GMT-0500 (Central Daylight Time),231776.89999999106,006_m_f_n_a.png,O,m,1002,1,1,2023.2000000029802,229753.69999998808,7140,NNB,C,10
11,test,3,0.0,1-Back,1,m,Fri May 09 2025 09:27:26 GMT-0500 (Central Daylight Time),233276.39999999106,098_y_f_n_a.png,O,m,480,1,1,1489.3999999910593,231787.0,7140,NNB,C,11
12,test,3,1.0,1-Back,1,z,Fri May 09 2025 09:27:26 GMT-0500 (Central Daylight Time),234942.39999999106,098_y_f_n_a.png,O,z,638,1,1,1655.3999999910593,233287.0,7140,NNB,C,12
13,test,3,0.0,1-Back,1,m,Fri May 09 2025 09:27:26 GMT-0500 (Central Daylight Time),236475.39999999106,006_m_f_n_a.png,O,m,507,1,1,1522.2000000029802,234953.19999998808,7140,NNB,C,13
14,test,3,0.0,1-Back,1,m,Fri May 09 2025 09:27:26 GMT-0500 (Central Daylight Time),237941.5,092_m_m_n_a.png,O,m,439,1,1,1455.6000000089407,236485.89999999106,7140,NNB,C,14
15,test,3,1.0,1-Back,1,z,Fri May 09 2025 09:27:26 GMT-0500 (Central Daylight Time),239491.0,092_m_m_n_a.png,O,z,532,1,1,1538.4000000059605,237952.59999999404,7140,NNB,C,15
16,test,3,0.0,1-Back,1,m,Fri May 09 2025 09:27:26 GMT-0500 (Central Daylight Time),241073.79999999702,130_o_f_n_a.png,O,m,559,1,1,1571.5,239502.29999999702,7140,NNB,C,16
17,test,3,1.0,1-Back,1,z,Fri May 09 2025 09:27:26 GMT-0500 (Central Daylight Time),242723.19999998808,130_o_f_n_a.png,O,z,632,1,1,1638.0,241085.19999998808,7140,NNB,C,17
0,test,4,1.0,1-Back,,,Fri May 09 2025 09:27:26 GMT-0500 (Central Daylight Time),242723.19999998808,093_m_f_n_a.png,O,space,998,1,1,1638.0,241085.19999998808,7140,NNB,C,0
1,test,4,0.0,1-Back,1,m,Fri May 09 2025 09:27:26 GMT-0500 (Central Daylight Time),247055.5,146_o_m_n_a.png,O,m,211,2,1,1222.300000011921,245833.19999998808,7140,NNB,C,1
2,test,4,0.0,1-Back,1,m,Fri May 09 2025 09:27:26 GMT-0500 (Central Daylight Time),248755.09999999404,093_m_f_n_a.png,O,m,667,3,1,1689.0999999940395,247066.0,7140,NNB,C,2
3,test,4,0.0,1-Back,1,m,Fri May 09 2025 09:27:26 GMT-0500 (Central Daylight Time),250454.29999999702,030_o_f_n_a.png,O,m,670,4,1,1689.1000000089407,248765.19999998808,7140,NNB,C,3
4,test,4,1.0,1-Back,1,z,Fri May 09 2025 09:27:26 GMT-0500 (Central Daylight Time),252154.0,030_o_f_n_a.png,O,z,676,5,1,1688.7000000029802,250465.29999999702,7140,NNB,C,4
5,test,4,0.0,1-Back,1,m,Fri May 09 2025 09:27:26 GMT-0500 (Central Daylight Time),254120.0,098_y_f_n_a.png,O,m,945,6,1,1956.6000000089407,252163.39999999106,7140,NNB,C,5
6,test,4,0.0,1-Back,1,m,Fri May 09 2025 09:27:26 GMT-0500 (Central Daylight Time),255602.59999999404,057_y_m_n_a.png,O,m,458,7,1,1472.0,254130.59999999404,7140,NNB,C,6
6,test,4,1.0,1-Back,0,z,Fri May 09 2025 09:27:26 GMT-0500 (Central Daylight Time),257002.59999999404,057_y_m_n_a.png,O,m,375,8,1,1388.5,255614.09999999404,7140,NNB,C,7
7,test,4,0.0,1-Back,1,m,Fri May 09 2025 09:27:26 GMT-0500 (Central Daylight Time),258551.79999999702,098_y_f_n_a.png,O,m,519,9,1,1538.7000000029802,257013.09999999404,7140,NNB,C,8
8,test,4,0.0,1-Back,1,m,Fri May 09 2025 09:27:26 GMT-0500 (Central Daylight Time),260069.09999999404,082_m_m_n_a.png,O,m,490,10,1,1507.7999999970198,258561.29999999702,7140,NNB,C,9
9,test,4,1.0,1-Back,1,z,Fri May 09 2025 09:27:26 GMT-0500 (Central Daylight Time),261550.69999998808,082_m_m_n_a.png,O,z,462,11,1,1468.199999988079,260082.5,7140,NNB,C,10
10,test,4,0.0,1-Back,1,m,Fri May 09 2025 09:27:26 GMT-0500 (Central Daylight Time),263167.0,130_o_f_n_a.png,O,m,595,12,1,1606.7000000029802,261560.29999999702,7140,NNB,C,11
11,test,4,0.0,1-Back,1,m,Fri May 09 2025 09:27:26 GMT-0500 (Central Daylight Time),264649.799999997,059_o_m_n_a.png,O,m,450,13,1,1469.7999999970198,263180.0,7140,NNB,C,12
12,test,4,0.0,1-Back,1,m,Fri May 09 2025 09:27:26 GMT-0500 (Central Daylight Time),266099.5,130_o_f_n_a.png,O,m,423,14,1,1437.7000000029802,264661.799999997,7140,NNB,C,13
13,test,4,0.0,1-Back,1,m,Fri May 09 2025 09:27:26 GMT-0500 (Central Daylight Time),267532.39999999106,028_y_f_n_a.png,O,m,414,15,1,1422.0999999940395,266110.299999997,7140,NNB,C,14
14,test,4,1.0,1-Back,1,z,Fri May 09 2025 09:27:26 GMT-0500 (Central Daylight Time),269081.799999997,028_y_f_n_a.png,O,z,517,16,1,1537.7000000029802,267544.09999999404,7140,NNB,C,15
15,test,4,0.0,1-Back,1,m,Fri May 09 2025 09:27:26 GMT-0500 (Central Daylight Time),270647.89999999106,006_m_f_n_a.png,O,m,544,17,1,1553.0999999940395,269094.799999997,7140,NNB,C,16
16,test,4,1.0,1-Back,1,z,Fri May 09 2025 09:27:26 GMT-0500 (Central Daylight Time),272230.89999999106,006_m_f_n_a.png,O,z,561,18,1,1570.2999999970198,270660.59999999404,7140,NNB,C,17
0,test,5,1.0,1-Back,,,Fri May 09 2025 09:27:26 GMT-0500 (Central Daylight Time),272230.89999999106,059_o_m_n_a.png,O,space,1074,1,1,1570.2999999970198,270660.59999999404,7140,NNB,C,0
1,test,5,1.0,1-Back,1,z,Fri May 09 2025 09:27:26 GMT-0500 (Central Daylight Time),277146.09999999404,059_o_m_n_a.png,O,z,792,2,1,1806.7999999970198,275339.299999997,7140,NNB,C,1
2,test,5,0.0,1-Back,1,m,Fri May 09 2025 09:27:26 GMT-0500 (Central Daylight Time),278912.299999997,098_y_f_n_a.png,O,m,735,3,1,1756.7000000029802,277155.59999999404,7140,NNB,C,2
3,test,5,0.0,1-Back,1,m,Fri May 09 2025 09:27:26 GMT-0500 (Central Daylight Time),280428.299999997,057_y_m_n_a.png,O,m,490,4,1,1506.4000000059605,278921.89999999106,7140,NNB,C,3
4,test,5,0.0,1-Back,1,m,Fri May 09 2025 09:27:26 GMT-0500 (Central Daylight Time),282127.6999999881,098_y_f_n_a.png,O,m,669,5,1,1688.0,280439.6999999881,7140,NNB,C,4
5,test,5,0.0,1-Back,1,m,Fri May 09 2025 09:27:26 GMT-0500 (Central Daylight Time),283693.89999999106,092_m_m_n_a.png,O,m,539,6,1,1556.5999999940395,282137.299999997,7140,NNB,C,5
6,test,5,1.0,1-Back,1,z,Fri May 09 2025 09:27:26 GMT-0500 (Central Daylight Time),285243.39999999106,092_m_m_n_a.png,O,z,523,7,1,1538.5,283704.89999999106,7140,NNB,C,6
7,test,5,0.0,1-Back,1,m,Fri May 09 2025 09:27:26 GMT-0500 (Central Daylight Time),286742.89999999106,028_y_f_n_a.png,O,m,479,8,1,1490.2000000029802,285252.6999999881,7140,NNB,C,7
8,test,5,0.0,1-Back,1,m,Fri May 09 2025 09:27:26 GMT-0500 (Central Daylight Time),288292.6999999881,031_y_m_n_a.png,O,m,521,9,1,1540.0999999940395,286752.59999999404,7140,NNB,C,8
9,test,5,0.0,1-Back,1,m,Fri May 09 2025 09:27:26 GMT-0500 (Central Daylight Time),290108.5,028_y_f_n_a.png,O,m,797,10,1,1804.9000000059605,288303.59999999404,7140,NNB,C,9
10,test,5,0.0,1-Back,1,m,Fri May 09 2025 09:27:26 GMT-0500 (Central Daylight Time),291641.59999999404,130_o_f_n_a.png,O,m,507,11,1,1523.0999999940395,290118.5,7140,NNB,C,10
11,test,5,1.0,1-Back,1,z,Fri May 09 2025 09:27:26 GMT-0500 (Central Daylight Time),293207.6999999881,130_o_f_n_a.png,O,z,536,12,1,1555.5,291652.1999999881,7140,NNB,C,11
12,test,5,0.0,1-Back,1,m,Fri May 09 2025 09:27:26 GMT-0500 (Central Daylight Time),294757.0,146_o_m_n_a.png,O,m,530,13,1,1539.9000000059605,293217.09999999404,7140,NNB,C,12
13,test,5,0.0,1-Back,1,m,Fri May 09 2025 09:27:26 GMT-0500 (Central Daylight Time),296289.89999999106,093_m_f_n_a.png,O,m,500,14,1,1521.7999999970198,294768.09999999404,7140,NNB,C,13
14,test,5,1.0,1-Back,1,z,Fri May 09 2025 09:27:26 GMT-0500 (Central Daylight Time),298006.09999999404,093_m_f_n_a.png,O,z,688,15,1,1705.7999999970198,296300.299999997,7140,NNB,C,14
15,test,5,0.0,1-Back,1,m,Fri May 09 2025 09:27:26 GMT-0500 (Central Daylight Time),299772.1999999881,146_o_m_n_a.png,O,m,740,16,1,1755.0999999940395,298017.09999999404,7140,NNB,C,15
16,test,5,0.0,1-Back,1,m,Fri May 09 2025 09:27:26 GMT-0500 (Central Daylight Time),301354.89999999106,006_m_f_n_a.png,O,m,565,17,1,1573.0999999940395,299781.799999997,7140,NNB,C,16
17,test,5,0.0,1-Back,1,m,Fri May 09 2025 09:27:26 GMT-0500 (Central Daylight Time),302821.39999999106,082_m_m_n_a.png,O,m,438,18,1,1455.7999999970198,301365.59999999404,7140,NNB,C,17
0,prac,1,0.0,2-Back,,,Fri May 09 2025 09:27:26 GMT-0500 (Central Daylight Time),302821.39999999106,031_y_m_n_a.png,O,space,4676,1,1,1455.7999999970198,301365.59999999404,7140,NNB,C,0
0,prac,1,0.0,2-Back,,,Fri May 09 2025 09:27:26 GMT-0500 (Central Daylight Time),302821.39999999106,006_m_f_n_a.png,O,space,4676,2,1,1455.7999999970198,301365.59999999404,7140,NNB,C,0
0,prac,1,1.0,2-Back,0,m,Fri May 09 2025 09:27:26 GMT-0500 (Central Daylight Time),402940.0,146_o_m_n_a.png,O,None,2005,3,1,2888.4000000059605,400051.59999999404,7140,NNB,C,1
0,prac,1,0.0,2-Back,0,m,Fri May 09 2025 09:27:26 GMT-0500 (Central Daylight Time),405855.89999999106,130_o_f_n_a.png,O,None,2011,4,1,2903.2999999970198,402952.59999999404,7140,NNB,C,2
0,prac,1,0.0,2-Back,0,z,Fri May 09 2025 09:27:26 GMT-0500 (Central Daylight Time),408638.299999997,146_o_m_n_a.png,O,None,2004,5,1,2770.4000000059605,405867.89999999106,7140,NNB,C,3
0,prac,1,1.0,2-Back,0,z,Fri May 09 2025 09:27:26 GMT-0500 (Central Daylight Time),411420.5,130_o_f_n_a.png,O,None,2001,6,1,2767.300000011921,408653.1999999881,7140,NNB,C,4
0,prac,1,0.0,2-Back,0,m,Fri May 09 2025 09:27:26 GMT-0500 (Central Daylight Time),414303.09999999404,082_m_m_n_a.png,O,None,2008,7,1,2871.9000000059605,411431.1999999881,7140,NNB,C,5
1,prac,1,0.0,2-Back,1,m,Fri May 09 2025 09:27:26 GMT-0500 (Central Daylight Time),416050.1999999881,059_o_m_n_a.png,O,m,770,8,1,1734.5,414315.6999999881,7140,NNB,C,6
1,prac,1,0.0,2-Back,0,m,Fri May 09 2025 09:27:26 GMT-0500 (Central Daylight Time),418934.89999999106,028_y_f_n_a.png,O,None,2011,9,1,2872.2999999970198,416062.59999999404,7140,NNB,C,7
2,prac,1,1.0,2-Back,1,z,Fri May 09 2025 09:27:26 GMT-0500 (Central Daylight Time),420801.0,059_o_m_n_a.png,O,z,1080,10,1,1854.300000011921,418946.6999999881,7140,NNB,C,8
3,prac,1,0.0,2-Back,1,m,Fri May 09 2025 09:27:26 GMT-0500 (Central Daylight Time),422683.89999999106,098_y_f_n_a.png,O,m,1002,11,1,1871.2000000029802,420812.6999999881,7140,NNB,C,9
3,prac,1,0.0,2-Back,0,m,Fri May 09 2025 09:27:26 GMT-0500 (Central Daylight Time),424533.09999999404,082_m_m_n_a.png,O,z,1056,12,1,1835.4000000059605,422697.6999999881,7140,NNB,C,10
0,prac,2,0.0,2-Back,,,Fri May 09 2025 09:27:26 GMT-0500 (Central Daylight Time),424533.09999999404,031_y_m_n_a.png,O,a,5242,1,1,1835.4000000059605,422697.6999999881,7140,NNB,C,0
0,prac,2,0.0,2-Back,,,Fri May 09 2025 09:27:26 GMT-0500 (Central Daylight Time),424533.09999999404,006_m_f_n_a.png,O,a,5242,2,1,1835.4000000059605,422697.6999999881,7140,NNB,C,0
1,prac,2,1.0,2-Back,1,m,Fri May 09 2025 09:27:26 GMT-0500 (Central Daylight Time),436862.799999997,146_o_m_n_a.png,O,m,918,3,1,1805.1000000089407,435057.6999999881,7140,NNB,C,1
1,prac,2,0.0,2-Back,0,m,Fri May 09 2025 09:27:26 GMT-0500 (Central Daylight Time),438595.39999999106,130_o_f_n_a.png,O,z,826,4,1,1720.7000000029802,436874.6999999881,7140,NNB,C,2
1,prac,2,0.0,2-Back,0,z,Fri May 09 2025 09:27:26 GMT-0500 (Central Daylight Time),440794.89999999106,146_o_m_n_a.png,O,m,1417,5,1,2185.2000000029802,438609.6999999881,7140,NNB,C,3
1,prac,2,1.0,2-Back,0,z,Fri May 09 2025 09:27:26 GMT-0500 (Central Daylight Time),443577.299999997,130_o_f_n_a.png,O,None,2004,6,1,2770.4000000059605,440806.89999999106,7140,NNB,C,4
2,prac,2,0.0,2-Back,1,m,Fri May 09 2025 09:27:26 GMT-0500 (Central Daylight Time),445526.799999997,082_m_m_n_a.png,O,m,1165,7,1,1937.5,443589.299999997,7140,NNB,C,5
3,prac,2,0.0,2-Back,1,m,Fri May 09 2025 09:27:26 GMT-0500 (Central Daylight Time),447359.59999999404,059_o_m_n_a.png,O,m,949,8,1,1821.4000000059605,445538.1999999881,7140,NNB,C,6
4,prac,2,0.0,2-Back,1,m,Fri May 09 2025 09:27:26 GMT-0500 (Central Daylight Time),449242.09999999404,028_y_f_n_a.png,O,m,997,9,1,1870.0999999940395,447372.0,7140,NNB,C,7
5,prac,2,1.0,2-Back,1,z,Fri May 09 2025 09:27:26 GMT-0500 (Central Daylight Time),450924.89999999106,059_o_m_n_a.png,O,z,893,10,1,1671.0,449253.89999999106,7140,NNB,C,8
6,prac,2,0.0,2-Back,1,m,Fri May 09 2025 09:27:26 GMT-0500 (Central Daylight Time),452641.1999999881,098_y_f_n_a.png,O,m,846,11,1,1704.3999999910593,450936.799999997,7140,NNB,C,9
7,prac,2,0.0,2-Back,1,m,Fri May 09 2025 09:27:26 GMT-0500 (Central Daylight Time),454190.799999997,082_m_m_n_a.png,O,m,757,12,1,1536.7999999970198,452654.0,7140,NNB,C,10
0,prac,3,0.0,2-Back,,,Fri May 09 2025 09:27:26 GMT-0500 (Central Daylight Time),454190.799999997,031_y_m_n_a.png,O,a,9139,1,1,1536.7999999970198,452654.0,7140,NNB,C,0
0,prac,3,0.0,2-Back,,,Fri May 09 2025 09:27:26 GMT-0500 (Central Daylight Time),454190.799999997,006_m_f_n_a.png,O,a,9139,2,1,1536.7999999970198,452654.0,7140,NNB,C,0
1,prac,3,1.0,2-Back,1,m,Fri May 09 2025 09:27:26 GMT-0500 (Central Daylight Time),470735.39999999106,146_o_m_n_a.png,O,m,1209,3,1,2088.7999999970198,468646.59999999404,7140,NNB,C,1
1,prac,3,0.0,2-Back,0,m,Fri May 09 2025 09:27:26 GMT-0500 (Central Daylight Time),473634.39999999106,130_o_f_n_a.png,O,None,2001,4,1,2887.0999999940395,470747.299999997,7140,NNB,C,2
1,prac,3,0.0,2-Back,0,z,Fri May 09 2025 09:27:26 GMT-0500 (Central Daylight Time),475800.299999997,146_o_m_n_a.png,O,m,1380,5,1,2153.9000000059605,473646.39999999106,7140,NNB,C,3
1,prac,3,1.0,2-Back,0,z,Fri May 09 2025 09:27:26 GMT-0500 (Central Daylight Time),478582.6999999881,130_o_f_n_a.png,O,None,2005,6,1,2771.0,475811.6999999881,7140,NNB,C,4
2,prac,3,0.0,2-Back,1,m,Fri May 09 2025 09:27:26 GMT-0500 (Central Daylight Time),480149.299999997,082_m_m_n_a.png,O,m,776,7,1,1554.7999999970198,478594.5,7140,NNB,C,5
3,prac,3,0.0,2-Back,1,m,Fri May 09 2025 09:27:26 GMT-0500 (Central Daylight Time),481698.6999999881,059_o_m_n_a.png,O,m,662,8,1,1537.7999999970198,480160.89999999106,7140,NNB,C,6
4,prac,3,0.0,2-Back,1,m,Fri May 09 2025 09:27:26 GMT-0500 (Central Daylight Time),483148.39999999106,028_y_f_n_a.png,O,m,562,9,1,1437.5999999940395,481710.799999997,7140,NNB,C,7
5,prac,3,1.0,2-Back,1,z,Fri May 09 2025 09:27:26 GMT-0500 (Central Daylight Time),484697.799999997,059_o_m_n_a.png,O,z,754,10,1,1537.2999999970198,483160.5,7140,NNB,C,8
6,prac,3,0.0,2-Back,1,m,Fri May 09 2025 09:27:26 GMT-0500 (Central Daylight Time),486280.59999999404,098_y_f_n_a.png,O,m,707,11,1,1571.7000000029802,484708.89999999106,7140,NNB,C,9
6,prac,3,0.0,2-Back,0,m,Fri May 09 2025 09:27:26 GMT-0500 (Central Daylight Time),488063.39999999106,082_m_m_n_a.png,O,z,998,12,1,1770.8999999910593,486292.5,7140,NNB,C,10
0,test,1,0.0,2-Back,,,Fri May 09 2025 09:27:26 GMT-0500 (Central Daylight Time),488063.39999999106,057_y_m_n_a.png,O,space,2654,1,1,1770.8999999910593,486292.5,7140,NNB,C,0
0,test,1,0.0,2-Back,,,Fri May 09 2025 09:27:26 GMT-0500 (Central Daylight Time),488063.39999999106,057_y_m_n_a.png,O,space,2654,2,1,1770.8999999910593,486292.5,7140,NNB,C,0
1,test,1,0.0,2-Back,1,m,Fri May 09 2025 09:27:26 GMT-0500 (Central Daylight Time),503208.6999999881,130_o_f_n_a.png,O,m,935,3,1,1956.0,501252.6999999881,7140,NNB,C,1
2,test,1,0.0,2-Back,1,m,Fri May 09 2025 09:27:26 GMT-0500 (Central Daylight Time),505174.799999997,092_m_m_n_a.png,O,m,945,4,1,1956.9000000059605,503217.89999999106,7140,NNB,C,2
3,test,1,1.0,2-Back,1,z,Fri May 09 2025 09:27:26 GMT-0500 (Central Daylight Time),506790.89999999106,130_o_f_n_a.png,O,z,596,5,1,1605.2999999970198,505185.59999999404,7140,NNB,C,3
4,test,1,0.0,2-Back,1,m,Fri May 09 2025 09:27:26 GMT-0500 (Central Daylight Time),508907.0,098_y_f_n_a.png,O,m,1099,6,1,2104.800000011921,506802.1999999881,7140,NNB,C,4
4,test,1,0.0,2-Back,0,m,Fri May 09 2025 09:27:26 GMT-0500 (Central Daylight Time),510972.89999999106,092_m_m_n_a.png,O,z,1047,7,1,2056.5,508916.39999999106,7140,NNB,C,5
5,test,1,1.0,2-Back,1,z,Fri May 09 2025 09:27:26 GMT-0500 (Central Daylight Time),513038.6999999881,098_y_f_n_a.png,O,z,1037,8,1,2054.5,510984.1999999881,7140,NNB,C,6
6,test,1,0.0,2-Back,1,m,Fri May 09 2025 09:27:26 GMT-0500 (Central Daylight Time),515038.1999999881,031_y_m_n_a.png,O,m,979,9,1,1987.5,513050.6999999881,7140,NNB,C,7
7,test,1,0.0,2-Back,1,m,Fri May 09 2025 09:27:26 GMT-0500 (Central Daylight Time),517070.89999999106,030_o_f_n_a.png,O,m,1004,10,1,2022.0999999940395,515048.799999997,7140,NNB,C,8
8,test,1,1.0,2-Back,1,z,Fri May 09 2025 09:27:26 GMT-0500 (Central Daylight Time),519153.6999999881,031_y_m_n_a.png,O,z,1051,11,1,2071.0999999940395,517082.59999999404,7140,NNB,C,9
9,test,1,0.0,2-Back,1,m,Fri May 09 2025 09:27:26 GMT-0500 (Central Daylight Time),521202.89999999106,006_m_f_n_a.png,O,m,1033,12,1,2040.0,519162.89999999106,7140,NNB,C,10
10,test,1,0.0,2-Back,1,m,Fri May 09 2025 09:27:26 GMT-0500 (Central Daylight Time),523452.1999999881,006_m_f_n_a.png,O,m,1231,13,1,2236.0,521216.1999999881,7140,NNB,C,11
11,test,1,0.0,2-Back,1,m,Fri May 09 2025 09:27:26 GMT-0500 (Central Daylight Time),525451.3999999911,146_o_m_n_a.png,O,m,982,14,1,1989.2999999970198,523462.09999999404,7140,NNB,C,12
12,test,1,0.0,2-Back,1,m,Fri May 09 2025 09:27:26 GMT-0500 (Central Daylight Time),527351.0,030_o_f_n_a.png,O,m,879,15,1,1888.5,525462.5,7140,NNB,C,13
13,test,1,1.0,2-Back,1,z,Fri May 09 2025 09:27:26 GMT-0500 (Central Daylight Time),528950.599999994,146_o_m_n_a.png,O,z,571,16,1,1590.0999999940395,527360.5,7140,NNB,C,14
14,test,1,0.0,2-Back,1,m,Fri May 09 2025 09:27:26 GMT-0500 (Central Daylight Time),530799.8999999911,093_m_f_n_a.png,O,m,820,17,1,1838.5,528961.3999999911,7140,NNB,C,15
15,test,1,0.0,2-Back,1,m,Fri May 09 2025 09:27:26 GMT-0500 (Central Daylight Time),533032.6999999881,082_m_m_n_a.png,O,m,1208,18,1,2221.5999999940395,530811.099999994,7140,NNB,C,16
0,test,2,0.0,2-Back,,,Fri May 09 2025 09:27:26 GMT-0500 (Central Daylight Time),533032.6999999881,082_m_m_n_a.png,O,space,1538,1,1,2221.5999999940395,530811.099999994,7140,NNB,C,0
0,test,2,0.0,2-Back,,,Fri May 09 2025 09:27:26 GMT-0500 (Central Daylight Time),533032.6999999881,028_y_f_n_a.png,O,space,1538,2,1,2221.5999999940395,530811.099999994,7140,NNB,C,0
1,test,2,1.0,2-Back,1,z,Fri May 09 2025 09:27:26 GMT-0500 (Central Daylight Time),542063.0,082_m_m_n_a.png,O,z,1312,3,1,2320.6000000089407,539742.3999999911,7140,NNB,C,1
2,test,2,0.0,2-Back,1,m,Fri May 09 2025 09:27:26 GMT-0500 (Central Daylight Time),543795.6999999881,093_m_f_n_a.png,O,m,715,4,1,1723.3999999910593,542072.299999997,7140,NNB,C,2
2,test,2,0.0,2-Back,0,m,Fri May 09 2025 09:27:26 GMT-0500 (Central Daylight Time),545845.0,028_y_f_n_a.png,O,z,1030,5,1,2039.1000000089407,543805.8999999911,7140,NNB,C,3
3,test,2,0.0,2-Back,1,m,Fri May 09 2025 09:27:26 GMT-0500 (Central Daylight Time),547761.1999999881,146_o_m_n_a.png,O,m,885,6,1,1906.5,545854.6999999881,7140,NNB,C,4
4,test,2,0.0,2-Back,1,m,Fri May 09 2025 09:27:26 GMT-0500 (Central Daylight Time),549677.299999997,098_y_f_n_a.png,O,m,889,7,1,1906.5,547770.799999997,7140,NNB,C,5
5,test,2,1.0,2-Back,1,z,Fri May 09 2025 09:27:26 GMT-0500 (Central Daylight Time),551243.3999999911,146_o_m_n_a.png,O,z,549,8,1,1554.7999999970198,549688.599999994,7140,NNB,C,6
6,test,2,0.0,2-Back,1,m,Fri May 09 2025 09:27:26 GMT-0500 (Central Daylight Time),553043.099999994,031_y_m_n_a.png,O,m,783,9,1,1790.4000000059605,551252.6999999881,7140,NNB,C,7
7,test,2,0.0,2-Back,1,m,Fri May 09 2025 09:27:26 GMT-0500 (Central Daylight Time),554975.8999999911,031_y_m_n_a.png,O,m,903,10,1,1921.0,553054.8999999911,7140,NNB,C,8
8,test,2,0.0,2-Back,1,m,Fri May 09 2025 09:27:26 GMT-0500 (Central Daylight Time),556992.3999999911,006_m_f_n_a.png,O,m,994,11,1,2006.7000000029802,554985.6999999881,7140,NNB,C,9
9,test,2,0.0,2-Back,1,m,Fri May 09 2025 09:27:26 GMT-0500 (Central Daylight Time),558724.5,028_y_f_n_a.png,O,m,714,12,1,1720.4000000059605,557004.099999994,7140,NNB,C,10
10,test,2,1.0,2-Back,1,z,Fri May 09 2025 09:27:26 GMT-0500 (Central Daylight Time),560440.6999999881,006_m_f_n_a.png,O,z,686,13,1,1706.7999999970198,558733.8999999911,7140,NNB,C,11
11,test,2,0.0,2-Back,1,m,Fri May 09 2025 09:27:26 GMT-0500 (Central Daylight Time),562356.799999997,059_o_m_n_a.png,O,m,897,14,1,1906.6000000089407,560450.1999999881,7140,NNB,C,12
12,test,2,0.0,2-Back,1,m,Fri May 09 2025 09:27:26 GMT-0500 (Central Daylight Time),564389.599999994,059_o_m_n_a.png,O,m,1013,15,1,2021.4000000059605,562368.1999999881,7140,NNB,C,13
13,test,2,0.0,2-Back,1,m,Fri May 09 2025 09:27:26 GMT-0500 (Central Daylight Time),566322.299999997,030_o_f_n_a.png,O,m,909,16,1,1921.0,564401.299999997,7140,NNB,C,14
14,test,2,0.0,2-Back,1,m,Fri May 09 2025 09:27:26 GMT-0500 (Central Daylight Time),568205.099999994,092_m_m_n_a.png,O,m,864,17,1,1871.7999999970198,566333.299999997,7140,NNB,C,15
15,test,2,1.0,2-Back,1,z,Fri May 09 2025 09:27:26 GMT-0500 (Central Daylight Time),569971.099999994,030_o_f_n_a.png,O,z,734,18,1,1754.5999999940395,568216.5,7140,NNB,C,16
0,test,3,1.0,2-Back,,,Fri May 09 2025 09:27:26 GMT-0500 (Central Daylight Time),569971.099999994,057_y_m_n_a.png,O,space,1031,1,1,1754.5999999940395,568216.5,7140,NNB,C,0
0,test,3,1.0,2-Back,,,Fri May 09 2025 09:27:26 GMT-0500 (Central Daylight Time),569971.099999994,057_y_m_n_a.png,O,space,1031,2,1,1754.5999999940395,568216.5,7140,NNB,C,0
1,test,3,0.0,2-Back,1,m,Fri May 09 2025 09:27:26 GMT-0500 (Central Daylight Time),577985.099999994,030_o_f_n_a.png,O,m,809,3,1,1822.2000000029802,576162.8999999911,7140,NNB,C,1
2,test,3,0.0,2-Back,1,m,Fri May 09 2025 09:27:26 GMT-0500 (Central Daylight Time),579667.8999999911,082_m_m_n_a.png,O,m,665,4,1,1673.2999999970198,577994.599999994,7140,NNB,C,2
3,test,3,1.0,2-Back,1,z,Fri May 09 2025 09:27:26 GMT-0500 (Central Daylight Time),581384.3999999911,030_o_f_n_a.png,O,z,694,5,1,1703.2999999970198,579681.099999994,7140,NNB,C,3
4,test,3,0.0,2-Back,1,m,Fri May 09 2025 09:27:26 GMT-0500 (Central Daylight Time),583199.8999999911,031_y_m_n_a.png,O,m,785,6,1,1805.2999999970198,581394.599999994,7140,NNB,C,4
4,test,3,0.0,2-Back,0,m,Fri May 09 2025 09:27:26 GMT-0500 (Central Daylight Time),584982.8999999911,082_m_m_n_a.png,O,z,761,7,1,1771.0,583211.8999999911,7140,NNB,C,5
5,test,3,1.0,2-Back,1,z,Fri May 09 2025 09:27:26 GMT-0500 (Central Daylight Time),586715.799999997,031_y_m_n_a.png,O,z,715,8,1,1722.7999999970198,584993.0,7140,NNB,C,6
6,test,3,0.0,2-Back,1,m,Fri May 09 2025 09:27:26 GMT-0500 (Central Daylight Time),588348.599999994,028_y_f_n_a.png,O,m,614,9,1,1623.2999999970198,586725.299999997,7140,NNB,C,7
7,test,3,0.0,2-Back,1,m,Fri May 09 2025 09:27:26 GMT-0500 (Central Daylight Time),590081.599999994,092_m_m_n_a.png,O,m,702,10,1,1720.5999999940395,588361.0,7140,NNB,C,8
8,test,3,1.0,2-Back,1,z,Fri May 09 2025 09:27:26 GMT-0500 (Central Daylight Time),591514.1999999881,028_y_f_n_a.png,O,z,409,11,1,1422.7999999970198,590091.3999999911,7140,NNB,C,9
9,test,3,1.0,2-Back,1,z,Fri May 09 2025 09:27:26 GMT-0500 (Central Daylight Time),593647.0,092_m_m_n_a.png,O,z,1104,12,1,2122.6000000089407,591524.3999999911,7140,NNB,C,10
10,test,3,0.0,2-Back,1,m,Fri May 09 2025 09:27:26 GMT-0500 (Central Daylight Time),595179.8999999911,030_o_f_n_a.png,O,m,507,13,1,1520.0,593659.8999999911,7140,NNB,C,11
11,test,3,0.0,2-Back,1,m,Fri May 09 2025 09:27:26 GMT-0500 (Central Daylight Time),596895.8999999911,093_m_f_n_a.png,O,m,694,14,1,1706.2000000029802,595189.6999999881,7140,NNB,C,12
12,test,3,0.0,2-Back,1,m,Fri May 09 2025 09:27:26 GMT-0500 (Central Daylight Time),598645.5,146_o_m_n_a.png,O,m,730,15,1,1737.800000011921,596907.6999999881,7140,NNB,C,13
12,test,3,1.0,2-Back,0,z,Fri May 09 2025 09:27:26 GMT-0500 (Central Daylight Time),600378.1999999881,093_m_f_n_a.png,O,m,701,16,1,1720.8999999910593,598657.299999997,7140,NNB,C,14
13,test,3,0.0,2-Back,1,m,Fri May 09 2025 09:27:26 GMT-0500 (Central Daylight Time),602161.099999994,130_o_f_n_a.png,O,m,752,17,1,1771.5999999940395,600389.5,7140,NNB,C,15
14,test,3,0.0,2-Back,1,m,Fri May 09 2025 09:27:26 GMT-0500 (Central Daylight Time),603993.799999997,130_o_f_n_a.png,O,m,801,18,1,1821.5,602172.299999997,7140,NNB,C,16
0,test,4,0.0,2-Back,,,Fri May 09 2025 09:27:26 GMT-0500 (Central Daylight Time),603993.799999997,059_o_m_n_a.png,O,space,1049,1,1,1821.5,602172.299999997,7140,NNB,C,0
0,test,4,0.0,2-Back,,,Fri May 09 2025 09:27:26 GMT-0500 (Central Daylight Time),603993.799999997,098_y_f_n_a.png,O,space,1049,2,1,1821.5,602172.299999997,7140,NNB,C,0
1,test,4,1.0,2-Back,1,z,Fri May 09 2025 09:27:26 GMT-0500 (Central Daylight Time),612124.599999994,059_o_m_n_a.png,O,z,823,3,1,1839.9000000059605,610284.6999999881,7140,NNB,C,1
2,test,4,1.0,2-Back,1,z,Fri May 09 2025 09:27:26 GMT-0500 (Central Daylight Time),613690.799999997,098_y_f_n_a.png,O,z,540,4,1,1555.1000000089407,612135.6999999881,7140,NNB,C,2
3,test,4,0.0,2-Back,1,m,Fri May 09 2025 09:27:26 GMT-0500 (Central Daylight Time),615423.6999999881,030_o_f_n_a.png,O,m,712,5,1,1722.7999999970198,613700.8999999911,7140,NNB,C,3
4,test,4,0.0,2-Back,1,m,Fri May 09 2025 09:27:26 GMT-0500 (Central Daylight Time),617323.0,030_o_f_n_a.png,O,m,867,6,1,1887.4000000059605,615435.599999994,7140,NNB,C,4
5,test,4,0.0,2-Back,1,m,Fri May 09 2025 09:27:26 GMT-0500 (Central Daylight Time),619588.8999999911,006_m_f_n_a.png,O,m,1239,7,1,2255.5999999940395,617333.299999997,7140,NNB,C,5
6,test,4,0.0,2-Back,1,m,Fri May 09 2025 09:27:26 GMT-0500 (Central Daylight Time),621138.299999997,031_y_m_n_a.png,O,m,525,8,1,1538.2000000029802,619600.099999994,7140,NNB,C,6
7,test,4,1.0,2-Back,1,z,Fri May 09 2025 09:27:26 GMT-0500 (Central Daylight Time),622887.8999999911,006_m_f_n_a.png,O,z,720,9,1,1735.2999999970198,621152.599999994,7140,NNB,C,7
7,test,4,0.0,2-Back,0,m,Fri May 09 2025 09:27:26 GMT-0500 (Central Daylight Time),625920.099999994,092_m_m_n_a.png,O,None,2015,10,1,3020.0999999940395,622900.0,7140,NNB,C,8
7,test,4,0.0,2-Back,0,m,Fri May 09 2025 09:27:26 GMT-0500 (Central Daylight Time),628185.8999999911,031_y_m_n_a.png,O,z,1242,11,1,2253.5999999940395,625932.299999997,7140,NNB,C,9
8,test,4,0.0,2-Back,1,m,Fri May 09 2025 09:27:26 GMT-0500 (Central Daylight Time),630085.3999999911,130_o_f_n_a.png,O,m,856,12,1,1882.5999999940395,628202.799999997,7140,NNB,C,10
9,test,4,0.0,2-Back,1,m,Fri May 09 2025 09:27:26 GMT-0500 (Central Daylight Time),631702.6999999881,057_y_m_n_a.png,O,m,596,13,1,1605.699999988079,630097.0,7140,NNB,C,11
10,test,4,1.0,2-Back,1,z,Fri May 09 2025 09:27:26 GMT-0500 (Central Daylight Time),633701.0,130_o_f_n_a.png,O,z,981,14,1,1986.800000011921,631714.1999999881,7140,NNB,C,12
11,test,4,1.0,2-Back,1,z,Fri May 09 2025 09:27:26 GMT-0500 (Central Daylight Time),635350.599999994,057_y_m_n_a.png,O,z,621,15,1,1636.7999999970198,633713.799999997,7140,NNB,C,13
12,test,4,0.0,2-Back,1,m,Fri May 09 2025 09:27:26 GMT-0500 (Central Daylight Time),637249.799999997,082_m_m_n_a.png,O,m,876,16,1,1889.4000000059605,635360.3999999911,7140,NNB,C,14
13,test,4,0.0,2-Back,1,m,Fri May 09 2025 09:27:26 GMT-0500 (Central Daylight Time),638849.299999997,093_m_f_n_a.png,O,m,567,17,1,1588.5,637260.799999997,7140,NNB,C,15
14,test,4,1.0,2-Back,1,z,Fri May 09 2025 09:27:26 GMT-0500 (Central Daylight Time),640449.0,082_m_m_n_a.png,O,z,576,18,1,1587.1000000089407,638861.8999999911,7140,NNB,C,16
0,test,5,1.0,2-Back,,,Fri May 09 2025 09:27:26 GMT-0500 (Central Daylight Time),640449.0,057_y_m_n_a.png,O,space,1321,1,1,1587.1000000089407,638861.8999999911,7140,NNB,C,0
0,test,5,1.0,2-Back,,,Fri May 09 2025 09:27:26 GMT-0500 (Central Daylight Time),640449.0,093_m_f_n_a.png,O,space,1321,2,1,1587.1000000089407,638861.8999999911,7140,NNB,C,0
1,test,5,1.0,2-Back,1,z,Fri May 09 2025 09:27:26 GMT-0500 (Central Daylight Time),648863.099999994,057_y_m_n_a.png,O,z,1012,3,1,2023.2000000029802,646839.8999999911,7140,NNB,C,1
2,test,5,1.0,2-Back,1,z,Fri May 09 2025 09:27:26 GMT-0500 (Central Daylight Time),650379.299999997,093_m_f_n_a.png,O,z,491,4,1,1506.7999999970198,648872.5,7140,NNB,C,2
3,test,5,0.0,2-Back,1,m,Fri May 09 2025 09:27:26 GMT-0500 (Central Daylight Time),652245.5,130_o_f_n_a.png,O,m,847,5,1,1856.2000000029802,650389.299999997,7140,NNB,C,3
4,test,5,0.0,2-Back,1,m,Fri May 09 2025 09:27:26 GMT-0500 (Central Daylight Time),654477.8999999911,057_y_m_n_a.png,O,m,1213,6,1,2221.5999999940395,652256.299999997,7140,NNB,C,4
5,test,5,0.0,2-Back,1,m,Fri May 09 2025 09:27:26 GMT-0500 (Central Daylight Time),656360.6999999881,028_y_f_n_a.png,O,m,860,7,1,1873.0999999940395,654487.599999994,7140,NNB,C,5
6,test,5,0.0,2-Back,1,m,Fri May 09 2025 09:27:26 GMT-0500 (Central Daylight Time),658243.1999999881,130_o_f_n_a.png,O,m,865,8,1,1870.8999999910593,656372.299999997,7140,NNB,C,6
7,test,5,1.0,2-Back,1,z,Fri May 09 2025 09:27:26 GMT-0500 (Central Daylight Time),660509.5,028_y_f_n_a.png,O,z,1239,9,1,2253.300000011921,658256.1999999881,7140,NNB,C,7
8,test,5,0.0,2-Back,1,m,Fri May 09 2025 09:27:26 GMT-0500 (Central Daylight Time),662308.8999999911,146_o_m_n_a.png,O,m,773,10,1,1789.0999999940395,660519.799999997,7140,NNB,C,8
9,test,5,0.0,2-Back,1,m,Fri May 09 2025 09:27:26 GMT-0500 (Central Daylight Time),664141.6999999881,006_m_f_n_a.png,O,m,806,11,1,1821.0,662320.6999999881,7140,NNB,C,9
10,test,5,0.0,2-Back,1,m,Fri May 09 2025 09:27:26 GMT-0500 (Central Daylight Time),665857.799999997,092_m_m_n_a.png,O,m,693,12,1,1704.9000000059605,664152.8999999911,7140,NNB,C,10
11,test,5,0.0,2-Back,1,m,Fri May 09 2025 09:27:26 GMT-0500 (Central Daylight Time),667873.8999999911,146_o_m_n_a.png,O,m,985,13,1,2004.0999999940395,665869.799999997,7140,NNB,C,11
11,test,5,1.0,2-Back,0,z,Fri May 09 2025 09:27:26 GMT-0500 (Central Daylight Time),670489.6999999881,092_m_m_n_a.png,O,m,1592,14,1,2603.2999999970198,667886.3999999911,7140,NNB,C,12
12,test,5,0.0,2-Back,1,m,Fri May 09 2025 09:27:26 GMT-0500 (Central Daylight Time),672139.3999999911,098_y_f_n_a.png,O,m,633,15,1,1640.2000000029802,670499.1999999881,7140,NNB,C,13
13,test,5,0.0,2-Back,1,m,Fri May 09 2025 09:27:26 GMT-0500 (Central Daylight Time),673705.1999999881,059_o_m_n_a.png,O,m,543,16,1,1555.199999988079,672150.0,7140,NNB,C,14
14,test,5,0.0,2-Back,1,m,Fri May 09 2025 09:27:26 GMT-0500 (Central Daylight Time),675264.099999994,006_m_f_n_a.png,O,m,542,17,1,1548.0,673716.099999994,7140,NNB,C,15
14,test,5,1.0,2-Back,0,z,Fri May 09 2025 09:27:26 GMT-0500 (Central Daylight Time),677637.599999994,059_o_m_n_a.png,O,m,1347,18,1,2359.5,675278.099999994,7140,NNB,C,16
