Q,Q1,Q2,Q3,Q4,acc_sum,block,block_c,correct,correct_response,datetime,endtime,project,response,response_time,row_sel,session_number,squiggle1,squiggle1x,squiggle1y,squiggle2,squiggle2x,squiggle2y,squiggle3,squiggle3x,squiggle3y,squiggle4,squiggle4x,squiggle4y,start_end,starttime,subject_id,target_congruent,task,task_vers,testsquiggle,testsquigglex,testsquiggley,time_practice_delay,time_practice_fixation,time_practice_stimuli,time_practice_study,time_test_delay,time_test_fixation,time_test_stimuli,time_test_study,trial
1,1,0,0,0,0,prac,1,0,z,Thu May 08 2025 10:27:05 GMT-0500 (Central Daylight Time),101741.10000000149,I,m,1644,1,2,16.bmp,-120,-120,17.bmp,120,-120,18.bmp,-120,120,19.bmp,120,120,10460.40000000596,91280.69999999553,8012,yes,SM,B,16.bmp,-120,-120,95625,89597,97642,91610,,,,,1
3,0,0,1,0,0,prac,1,0,m,Thu May 08 2025 10:27:05 GMT-0500 (Central Daylight Time),112571.10000000149,I,None,2017,2,2,20.bmp,-120,-120,21.bmp,120,-120,22.bmp,-120,120,23.bmp,120,120,10826.40000000596,101744.69999999553,8012,no,SM,B,23.bmp,-120,120,106089,100061,108105,102074,,,,,2
4,0,0,0,1,1,prac,1,1,m,Thu May 08 2025 10:27:05 GMT-0500 (Central Daylight Time),122617.89999999851,I,m,1231,3,2,24.bmp,-120,-120,25.bmp,120,-120,26.bmp,-120,120,27.bmp,120,120,10043.0,112574.89999999851,8012,no,SM,B,24.bmp,120,120,116919,110891,118935,112903,,,,,3
2,0,1,0,0,2,prac,1,1,z,Thu May 08 2025 10:27:05 GMT-0500 (Central Daylight Time),132498.5,I,z,1057,4,2,28.bmp,-120,-120,29.bmp,120,-120,30.bmp,-120,120,31.bmp,120,120,9877.20000000298,122621.29999999702,8012,yes,SM,B,29.bmp,120,-120,126966,120938,128982,122951,,,,,4
3,0,0,1,0,2,prac,1,0,z,Thu May 08 2025 10:27:05 GMT-0500 (Central Daylight Time),142412.79999999702,I,m,1097,5,2,32.bmp,-120,-120,33.bmp,120,-120,34.bmp,-120,120,35.bmp,120,120,9910.89999999851,132501.8999999985,8012,yes,SM,B,34.bmp,-120,120,136846,130818,138862,132831,,,,,5
1,1,0,0,0,3,prac,1,1,m,Thu May 08 2025 10:27:05 GMT-0500 (Central Daylight Time),152308.8999999985,I,m,1079,6,2,36.bmp,-120,-120,37.bmp,120,-120,38.bmp,-120,120,39.bmp,120,120,9892.5,142416.3999999985,8012,no,SM,B,39.bmp,-120,-120,146759,140733,148776,142744,,,,,6
2,0,1,0,0,4,prac,1,1,m,Thu May 08 2025 10:27:05 GMT-0500 (Central Daylight Time),162322.19999999553,I,m,1189,7,2,40.bmp,-120,-120,41.bmp,120,-120,42.bmp,-120,120,43.bmp,120,120,10010.0,152312.19999999553,8012,no,SM,B,40.bmp,120,-120,156656,150632,158672,152641,,,,,7
4,0,0,0,1,5,prac,1,1,z,Thu May 08 2025 10:27:05 GMT-0500 (Central Daylight Time),172918.8999999985,I,z,1768,8,2,44.bmp,-120,-120,45.bmp,120,-120,46.bmp,-120,120,47.bmp,120,120,10592.5,162326.3999999985,8012,yes,SM,B,47.bmp,120,120,166670,160643,168686,162655,,,,,8
4,0,0,0,1,1,test,1,1,m,Thu May 08 2025 10:27:05 GMT-0500 (Central Daylight Time),196879.19999999553,I,m,937,1,2,48.bmp,-120,-120,49.bmp,120,-120,50.bmp,-120,120,43.bmp,120,120,8995.59999999404,187883.6000000015,8012,yes,SM,B,50.bmp,120,120,166670,160643,168686,162655,192228.0,186200.0,194245.0,188213.0,1
2,0,1,0,0,2,test,1,1,m,Thu May 08 2025 10:27:05 GMT-0500 (Central Daylight Time),206025.29999999702,I,m,1085,2,2,1.bmp,-120,-120,2.bmp,120,-120,3.bmp,-120,120,4.bmp,120,120,9141.69999999553,196883.6000000015,8012,yes,SM,B,3.bmp,120,-120,166670,160643,168686,162655,201226.0,195200.0,203242.0,197211.0,2
1,1,0,0,0,3,test,1,1,z,Thu May 08 2025 10:27:05 GMT-0500 (Central Daylight Time),215305.3999999985,I,z,1220,3,2,5.bmp,-120,-120,6.bmp,120,-120,7.bmp,-120,120,8.bmp,120,120,9277.20000000298,206028.19999999553,8012,yes,SM,B,5.bmp,-120,-120,166670,160643,168686,162655,210373.0,204345.0,212386.0,206358.0,3
3,0,0,1,0,4,test,1,1,m,Thu May 08 2025 10:27:05 GMT-0500 (Central Daylight Time),224569.3999999985,I,m,1209,4,2,9.bmp,-120,-120,10.bmp,120,-120,11.bmp,-120,120,12.bmp,120,120,9260.20000000298,215309.19999999553,8012,yes,SM,B,9.bmp,-120,120,166670,160643,168686,162655,219653.0,213625.0,221670.0,215638.0,4
2,0,1,0,0,5,test,1,1,z,Thu May 08 2025 10:27:05 GMT-0500 (Central Daylight Time),233899.6000000015,I,z,1281,5,2,13.bmp,-120,-120,14.bmp,120,-120,15.bmp,-120,120,16.bmp,120,120,9326.90000000596,224572.69999999553,8012,yes,SM,B,14.bmp,120,-120,166670,160643,168686,162655,228917.0,222889.0,230933.0,224902.0,5
3,0,0,1,0,6,test,1,1,z,Thu May 08 2025 10:27:05 GMT-0500 (Central Daylight Time),243330.3999999985,I,z,1375,6,2,17.bmp,-120,-120,18.bmp,120,-120,19.bmp,-120,120,20.bmp,120,120,9427.70000000298,233902.69999999553,8012,yes,SM,B,19.bmp,-120,120,166670,160643,168686,162655,238248.0,232219.0,240264.0,234232.0,6
4,0,0,0,1,7,test,1,1,z,Thu May 08 2025 10:27:05 GMT-0500 (Central Daylight Time),252310.6000000015,I,z,921,7,2,21.bmp,-120,-120,22.bmp,120,-120,23.bmp,-120,120,24.bmp,120,120,8977.20000000298,243333.3999999985,8012,yes,SM,B,24.bmp,120,120,166670,160643,168686,162655,247678.0,241650.0,249694.0,243663.0,7
2,0,1,0,0,8,test,1,1,m,Thu May 08 2025 10:27:05 GMT-0500 (Central Daylight Time),261741.1000000015,I,m,1372,8,2,25.bmp,-120,-120,26.bmp,120,-120,27.bmp,-120,120,28.bmp,120,120,9427.40000000596,252313.69999999553,8012,yes,SM,B,25.bmp,120,-120,166670,160643,168686,162655,256658.0,250630.0,258675.0,252643.0,8
3,0,0,1,0,9,test,1,1,m,Thu May 08 2025 10:27:05 GMT-0500 (Central Daylight Time),271054.8999999985,I,m,1262,9,2,29.bmp,-120,-120,30.bmp,120,-120,31.bmp,-120,120,32.bmp,120,120,9310.39999999851,261744.5,8012,yes,SM,B,30.bmp,-120,120,166670,160643,168686,162655,266089.0,260061.0,268105.0,262073.0,9
4,0,0,0,1,10,test,1,1,z,Thu May 08 2025 10:27:05 GMT-0500 (Central Daylight Time),280785.1000000015,I,z,1676,10,2,37.bmp,-120,-120,38.bmp,120,-120,39.bmp,-120,120,40.bmp,120,120,9724.80000000447,271060.299999997,8012,yes,SM,B,40.bmp,120,120,166670,160643,168686,162655,275403.0,269377.0,277419.0,271387.0,10
3,0,0,1,0,11,test,1,1,z,Thu May 08 2025 10:27:05 GMT-0500 (Central Daylight Time),290632.0,I,z,1794,11,2,33.bmp,-120,-120,34.bmp,120,-120,35.bmp,-120,120,36.bmp,120,120,9843.39999999851,280788.6000000015,8012,yes,SM,B,35.bmp,-120,120,166670,160643,168686,162655,285133.0,279105.0,287149.0,281118.0,11
2,0,1,0,0,12,test,1,1,m,Thu May 08 2025 10:27:05 GMT-0500 (Central Daylight Time),299795.799999997,I,m,1107,12,2,41.bmp,-120,-120,42.bmp,120,-120,43.bmp,-120,120,44.bmp,120,120,9160.39999999851,290635.3999999985,8012,yes,SM,B,41.bmp,120,-120,166670,160643,168686,162655,294980.0,288952.0,296996.0,290965.0,12
3,0,0,1,0,13,test,1,1,m,Thu May 08 2025 10:27:05 GMT-0500 (Central Daylight Time),309326.19999999553,I,m,1479,13,2,45.bmp,-120,-120,46.bmp,120,-120,47.bmp,-120,120,48.bmp,120,120,9527.0,299799.19999999553,8012,yes,SM,B,46.bmp,-120,120,166670,160643,168686,162655,304144.0,298115.0,306160.0,300128.0,13
1,1,0,0,0,14,test,1,1,z,Thu May 08 2025 10:27:05 GMT-0500 (Central Daylight Time),318606.799999997,I,z,1221,14,2,49.bmp,-120,-120,50.bmp,120,-120,4.bmp,-120,120,1.bmp,120,120,9276.89999999851,309329.8999999985,8012,yes,SM,B,49.bmp,-120,-120,166670,160643,168686,162655,313674.0,307646.0,315690.0,309659.0,14
4,0,0,0,1,15,test,1,1,m,Thu May 08 2025 10:27:05 GMT-0500 (Central Daylight Time),328153.6000000015,I,m,1492,15,2,10.bmp,-120,-120,11.bmp,120,-120,12.bmp,-120,120,13.bmp,120,120,9543.5,318610.1000000015,8012,yes,SM,B,11.bmp,120,120,166670,160643,168686,162655,322954.0,316926.0,324971.0,318939.0,15
1,1,0,0,0,16,test,1,1,m,Thu May 08 2025 10:27:05 GMT-0500 (Central Daylight Time),337317.5,I,m,1113,16,2,2.bmp,-120,-120,3.bmp,120,-120,4.bmp,-120,120,5.bmp,120,120,9160.89999999851,328156.6000000015,8012,yes,SM,B,5.bmp,-120,-120,166670,160643,168686,162655,332501.0,326473.0,334518.0,328486.0,16
3,0,0,1,0,17,test,1,1,m,Thu May 08 2025 10:27:05 GMT-0500 (Central Daylight Time),346414.69999999553,I,m,1046,17,2,22.bmp,-120,-120,23.bmp,120,-120,24.bmp,-120,120,25.bmp,120,120,9094.0,337320.69999999553,8012,yes,SM,B,22.bmp,-120,120,166670,160643,168686,162655,341665.0,335637.0,343681.0,337650.0,17
1,1,0,0,0,18,test,1,1,z,Thu May 08 2025 10:27:05 GMT-0500 (Central Daylight Time),355711.799999997,I,z,1244,18,2,6.bmp,-120,-120,7.bmp,120,-120,8.bmp,-120,120,9.bmp,120,120,9293.89999999851,346417.8999999985,8012,yes,SM,B,6.bmp,-120,-120,166670,160643,168686,162655,350762.0,344734.0,352779.0,346748.0,18
2,0,1,0,0,19,test,1,1,z,Thu May 08 2025 10:27:05 GMT-0500 (Central Daylight Time),365208.69999999553,I,z,1435,19,2,26.bmp,-120,-120,27.bmp,120,-120,28.bmp,-120,120,29.bmp,120,120,9493.69999999553,355715.0,8012,yes,SM,B,27.bmp,120,-120,166670,160643,168686,162655,360059.0,354031.0,362076.0,356044.0,19
3,0,0,1,0,20,test,1,1,z,Thu May 08 2025 10:27:05 GMT-0500 (Central Daylight Time),375072.1000000015,I,z,1810,20,2,30.bmp,-120,-120,31.bmp,120,-120,32.bmp,-120,120,33.bmp,120,120,9860.30000000447,365211.799999997,8012,yes,SM,B,32.bmp,-120,120,166670,160643,168686,162655,369556.0,363528.0,371573.0,365542.0,20
1,1,0,0,0,21,test,1,1,m,Thu May 08 2025 10:27:05 GMT-0500 (Central Daylight Time),384353.0,I,m,1219,21,2,14.bmp,-120,-120,15.bmp,120,-120,16.bmp,-120,120,17.bmp,120,120,9277.39999999851,375075.6000000015,8012,yes,SM,B,16.bmp,-120,-120,166670,160643,168686,162655,379420.0,373392.0,381436.0,375405.0,21
4,0,0,0,1,21,test,1,0,z,Thu May 08 2025 10:27:05 GMT-0500 (Central Daylight Time),394416.299999997,I,None,2015,22,2,18.bmp,-120,-120,19.bmp,120,-120,20.bmp,-120,120,21.bmp,120,120,10060.5,384355.799999997,8012,yes,SM,B,21.bmp,120,120,166670,160643,168686,162655,388701.0,382672.0,390717.0,384685.0,22
1,1,0,0,0,22,test,1,1,m,Thu May 08 2025 10:27:05 GMT-0500 (Central Daylight Time),403730.0,I,m,1244,23,2,34.bmp,-120,-120,35.bmp,120,-120,36.bmp,-120,120,37.bmp,120,120,9310.5,394419.5,8012,yes,SM,B,37.bmp,-120,-120,166670,160643,168686,162655,398764.0,392736.0,400795.0,394749.0,23
2,0,1,0,0,23,test,1,1,z,Thu May 08 2025 10:27:05 GMT-0500 (Central Daylight Time),413143.799999997,I,z,1360,24,2,42.bmp,-120,-120,43.bmp,120,-120,44.bmp,-120,120,45.bmp,120,120,9410.79999999702,403733.0,8012,yes,SM,B,43.bmp,120,-120,166670,160643,168686,162655,408078.0,402049.0,410095.0,404063.0,24
4,0,0,0,1,24,test,1,1,m,Thu May 08 2025 10:27:05 GMT-0500 (Central Daylight Time),422557.6000000015,I,m,1363,25,2,46.bmp,-120,-120,47.bmp,120,-120,48.bmp,-120,120,49.bmp,120,120,9410.70000000298,413146.8999999985,8012,yes,SM,B,48.bmp,120,120,166670,160643,168686,162655,417491.0,411463.0,419508.0,413476.0,25
1,1,0,0,0,25,test,1,1,z,Thu May 08 2025 10:27:05 GMT-0500 (Central Daylight Time),431771.3999999985,I,z,1157,26,2,38.bmp,-120,-120,39.bmp,120,-120,40.bmp,-120,120,41.bmp,120,120,9210.70000000298,422560.69999999553,8012,yes,SM,B,38.bmp,-120,-120,166670,160643,168686,162655,426905.0,420877.0,428922.0,422890.0,26
4,0,0,0,1,26,test,1,1,z,Thu May 08 2025 10:27:05 GMT-0500 (Central Daylight Time),441035.1000000015,I,z,1208,27,2,50.bmp,-120,-120,11.bmp,120,-120,1.bmp,-120,120,2.bmp,120,120,9260.30000000447,431774.799999997,8012,yes,SM,B,2.bmp,120,120,166670,160643,168686,162655,436119.0,430091.0,438135.0,432104.0,27
3,0,0,1,0,27,test,1,1,m,Thu May 08 2025 10:27:05 GMT-0500 (Central Daylight Time),450265.5,I,m,1167,28,2,3.bmp,-120,-120,4.bmp,120,-120,5.bmp,-120,120,6.bmp,120,120,9227.30000000447,441038.19999999553,8012,yes,SM,B,3.bmp,-120,120,166670,160643,168686,162655,445383.0,439358.0,447400.0,441367.0,28
2,0,1,0,0,28,test,1,1,z,Thu May 08 2025 10:27:05 GMT-0500 (Central Daylight Time),459712.5,I,z,1385,29,2,7.bmp,-120,-120,8.bmp,120,-120,9.bmp,-120,120,10.bmp,120,120,9443.39999999851,450269.1000000015,8012,yes,SM,B,8.bmp,120,-120,166670,160643,168686,162655,454613.0,448585.0,456630.0,450598.0,29
3,0,0,1,0,29,test,1,1,z,Thu May 08 2025 10:27:05 GMT-0500 (Central Daylight Time),469359.5,I,z,1602,30,2,11.bmp,-120,-120,12.bmp,120,-120,13.bmp,-120,120,14.bmp,120,120,9643.80000000447,459715.69999999553,8012,yes,SM,B,13.bmp,-120,120,166670,160643,168686,162655,464060.0,458032.0,466061.0,460045.0,30
1,1,0,0,0,30,test,1,1,z,Thu May 08 2025 10:27:05 GMT-0500 (Central Daylight Time),479090.0,I,z,1675,31,2,15.bmp,-120,-120,16.bmp,120,-120,17.bmp,-120,120,18.bmp,120,120,9727.20000000298,469362.799999997,8012,yes,SM,B,15.bmp,-120,-120,166670,160643,168686,162655,473707.0,467679.0,475724.0,469692.0,31
2,0,1,0,0,31,test,1,1,m,Thu May 08 2025 10:27:05 GMT-0500 (Central Daylight Time),488670.19999999553,I,m,1521,32,2,19.bmp,-120,-120,20.bmp,120,-120,21.bmp,-120,120,22.bmp,120,120,9577.09999999404,479093.1000000015,8012,yes,SM,B,19.bmp,120,-120,166670,160643,168686,162655,483437.0,477409.0,485454.0,479422.0,32
4,0,0,0,1,32,test,1,1,z,Thu May 08 2025 10:27:05 GMT-0500 (Central Daylight Time),497917.19999999553,I,z,1097,33,2,31.bmp,-120,-120,32.bmp,120,-120,33.bmp,-120,120,34.bmp,120,120,9243.79999999702,488673.3999999985,8012,yes,SM,B,34.bmp,120,120,166670,160643,168686,162655,493018.0,486990.0,495126.0,489003.0,33
2,0,1,0,0,33,test,1,1,z,Thu May 08 2025 10:27:05 GMT-0500 (Central Daylight Time),506797.8999999985,I,z,822,34,2,23.bmp,-120,-120,24.bmp,120,-120,25.bmp,-120,120,26.bmp,120,120,8877.39999999851,497920.5,8012,yes,SM,B,24.bmp,120,-120,166670,160643,168686,162655,502265.0,496237.0,504281.0,498250.0,34
4,0,0,0,1,34,test,1,1,m,Thu May 08 2025 10:27:05 GMT-0500 (Central Daylight Time),516144.799999997,I,m,1285,35,2,27.bmp,-120,-120,28.bmp,120,-120,29.bmp,-120,120,30.bmp,120,120,9343.39999999851,506801.3999999985,8012,yes,SM,B,29.bmp,120,120,166670,160643,168686,162655,511145.0,505118.0,513162.0,507130.0,35
3,0,0,1,0,35,test,1,1,m,Thu May 08 2025 10:27:05 GMT-0500 (Central Daylight Time),525692.1000000015,I,m,1498,36,2,35.bmp,-120,-120,36.bmp,120,-120,37.bmp,-120,120,38.bmp,120,120,9544.0,516148.1000000015,8012,yes,SM,B,35.bmp,-120,120,166670,160643,168686,162655,520493.0,514464.0,522509.0,516477.0,36
1,1,0,0,0,36,test,1,1,m,Thu May 08 2025 10:27:05 GMT-0500 (Central Daylight Time),534905.6999999955,I,m,1159,37,2,39.bmp,-120,-120,40.bmp,120,-120,41.bmp,-120,120,42.bmp,120,120,9210.59999999404,525695.1000000015,8012,yes,SM,B,40.bmp,-120,-120,166670,160643,168686,162655,530040.0,524011.0,532056.0,526025.0,37
2,0,1,0,0,37,test,1,1,m,Thu May 08 2025 10:27:05 GMT-0500 (Central Daylight Time),544252.8999999985,I,m,1297,38,2,43.bmp,-120,-120,44.bmp,120,-120,45.bmp,-120,120,46.bmp,120,120,9343.70000000298,534909.1999999955,8012,yes,SM,B,45.bmp,120,-120,166670,160643,168686,162655,539254.0,533226.0,541269.0,535238.0,38
4,0,0,0,1,38,test,1,1,z,Thu May 08 2025 10:27:05 GMT-0500 (Central Daylight Time),554216.3999999985,I,z,1902,39,2,47.bmp,-120,-120,48.bmp,120,-120,49.bmp,-120,120,50.bmp,120,120,9960.5,544255.8999999985,8012,yes,SM,B,50.bmp,120,120,166670,160643,168686,162655,548600.0,542572.0,550617.0,544586.0,39
3,0,0,1,0,39,test,1,1,m,Thu May 08 2025 10:27:05 GMT-0500 (Central Daylight Time),563430.299999997,I,m,1163,40,2,4.bmp,-120,-120,5.bmp,120,-120,6.bmp,-120,120,7.bmp,120,120,9210.5,554219.799999997,8012,yes,SM,B,5.bmp,-120,120,166670,160643,168686,162655,558564.0,552536.0,560580.0,554549.0,40
1,1,0,0,0,40,test,1,1,z,Thu May 08 2025 10:27:05 GMT-0500 (Central Daylight Time),572861.6000000015,I,z,1373,41,2,8.bmp,-120,-120,9.bmp,120,-120,10.bmp,-120,120,11.bmp,120,120,9428.0,563433.6000000015,8012,yes,SM,B,8.bmp,-120,-120,166670,160643,168686,162655,567778.0,561750.0,569794.0,563763.0,41
4,0,0,0,1,41,test,1,1,z,Thu May 08 2025 10:27:05 GMT-0500 (Central Daylight Time),582407.6000000015,I,z,1486,42,2,12.bmp,-120,-120,13.bmp,120,-120,14.bmp,-120,120,15.bmp,120,120,9542.5,572865.1000000015,8012,yes,SM,B,15.bmp,120,120,166670,160643,168686,162655,577208.0,571181.0,579225.0,573193.0,42
1,1,0,0,0,42,test,1,1,z,Thu May 08 2025 10:27:05 GMT-0500 (Central Daylight Time),591937.8999999985,I,z,1468,43,2,16.bmp,-120,-120,17.bmp,120,-120,18.bmp,-120,120,19.bmp,120,120,9527.29999999702,582410.6000000015,8012,yes,SM,B,16.bmp,-120,-120,166670,160643,168686,162655,586755.0,580727.0,588771.0,582740.0,43
4,0,0,0,1,43,test,1,1,m,Thu May 08 2025 10:27:05 GMT-0500 (Central Daylight Time),601051.5,I,m,1065,44,2,4.bmp,-120,-120,1.bmp,120,-120,2.bmp,-120,120,3.bmp,120,120,9110.20000000298,591941.299999997,8012,yes,SM,B,4.bmp,120,120,166670,160643,168686,162655,596285.0,590258.0,598302.0,592270.0,44
1,1,0,0,0,44,test,1,1,m,Thu May 08 2025 10:27:05 GMT-0500 (Central Daylight Time),610315.6999999955,I,m,1199,45,2,28.bmp,-120,-120,29.bmp,120,-120,30.bmp,-120,120,31.bmp,120,120,9261.19999999553,601054.5,8012,yes,SM,B,31.bmp,-120,-120,166670,160643,168686,162655,605399.0,599371.0,607416.0,601384.0,45
1,1,0,0,0,45,test,1,1,m,Thu May 08 2025 10:27:05 GMT-0500 (Central Daylight Time),619329.299999997,I,m,951,46,2,20.bmp,-120,-120,21.bmp,120,-120,22.bmp,-120,120,23.bmp,120,120,9010.5,610318.799999997,8012,yes,SM,B,21.bmp,-120,-120,166670,160643,168686,162655,614663.0,608635.0,616680.0,610648.0,46
3,0,0,1,0,46,test,1,1,z,Thu May 08 2025 10:27:05 GMT-0500 (Central Daylight Time),628676.3999999985,I,z,1298,47,2,24.bmp,-120,-120,25.bmp,120,-120,26.bmp,-120,120,27.bmp,120,120,9344.29999999702,619332.1000000015,8012,yes,SM,B,26.bmp,-120,120,166670,160643,168686,162655,623677.0,617648.0,625693.0,619662.0,47
3,0,0,1,0,47,test,1,1,z,Thu May 08 2025 10:27:05 GMT-0500 (Central Daylight Time),637970.6999999955,I,z,1247,48,2,40.bmp,-120,-120,41.bmp,120,-120,42.bmp,-120,120,43.bmp,120,120,9291.59999999404,628679.1000000015,8012,yes,SM,B,42.bmp,-120,120,166670,160643,168686,162655,633024.0,626995.0,635040.0,629009.0,48
2,0,1,0,0,48,test,1,1,z,Thu May 08 2025 10:27:05 GMT-0500 (Central Daylight Time),647137.5,I,z,1101,49,2,36.bmp,-120,-120,37.bmp,120,-120,38.bmp,-120,120,39.bmp,120,120,9159.80000000447,637977.6999999955,8012,yes,SM,B,37.bmp,120,-120,166670,160643,168686,162655,642321.0,636294.0,644338.0,638306.0,49
3,0,0,1,0,49,test,1,1,m,Thu May 08 2025 10:27:05 GMT-0500 (Central Daylight Time),656434.299999997,I,m,1234,50,2,32.bmp,-120,-120,33.bmp,120,-120,34.bmp,-120,120,35.bmp,120,120,9293.89999999851,647140.3999999985,8012,yes,SM,B,32.bmp,-120,120,166670,160643,168686,162655,651485.0,645457.0,653501.0,647470.0,50
2,0,1,0,0,50,test,1,1,z,Thu May 08 2025 10:27:05 GMT-0500 (Central Daylight Time),666331.6000000015,I,z,1849,51,2,44.bmp,-120,-120,45.bmp,120,-120,46.bmp,-120,120,47.bmp,120,120,9894.0,656437.6000000015,8012,yes,SM,B,45.bmp,120,-120,166670,160643,168686,162655,660782.0,654754.0,662798.0,656767.0,51
4,0,0,0,1,51,test,1,1,m,Thu May 08 2025 10:27:05 GMT-0500 (Central Daylight Time),675545.1000000015,I,m,1160,52,2,48.bmp,-120,-120,49.bmp,120,-120,50.bmp,-120,120,31.bmp,120,120,9210.80000000447,666334.299999997,8012,yes,SM,B,48.bmp,120,120,166670,160643,168686,162655,670679.0,664651.0,672695.0,666664.0,52
3,0,0,1,0,52,test,1,1,z,Thu May 08 2025 10:27:05 GMT-0500 (Central Daylight Time),684708.799999997,I,z,1114,53,2,1.bmp,-120,-120,2.bmp,120,-120,3.bmp,-120,120,4.bmp,120,120,9160.89999999851,675547.8999999985,8012,yes,SM,B,3.bmp,-120,120,166670,160643,168686,162655,679893.0,673864.0,681909.0,675877.0,53
1,1,0,0,0,53,test,1,1,m,Thu May 08 2025 10:27:05 GMT-0500 (Central Daylight Time),693939.5,I,m,1167,54,2,5.bmp,-120,-120,6.bmp,120,-120,7.bmp,-120,120,8.bmp,120,120,9226.70000000298,684712.799999997,8012,yes,SM,B,7.bmp,-120,-120,166670,160643,168686,162655,689056.0,683029.0,691073.0,685041.0,54
4,0,0,0,1,54,test,1,1,z,Thu May 08 2025 10:27:05 GMT-0500 (Central Daylight Time),703069.799999997,I,z,1072,55,2,9.bmp,-120,-120,10.bmp,120,-120,11.bmp,-120,120,12.bmp,120,120,9125.79999999702,693944.0,8012,yes,SM,B,12.bmp,120,120,166670,160643,168686,162655,698287.0,692260.0,700303.0,694272.0,55
2,0,1,0,0,55,test,1,1,m,Thu May 08 2025 10:27:05 GMT-0500 (Central Daylight Time),712250.3999999985,I,m,1125,56,2,13.bmp,-120,-120,14.bmp,120,-120,15.bmp,-120,120,16.bmp,120,120,9177.29999999702,703073.1000000015,8012,yes,SM,B,13.bmp,120,-120,166670,160643,168686,162655,707417.0,701389.0,709434.0,703402.0,56
4,0,0,0,1,56,test,1,1,m,Thu May 08 2025 10:27:05 GMT-0500 (Central Daylight Time),721364.1000000015,I,m,1057,57,2,17.bmp,-120,-120,18.bmp,120,-120,19.bmp,-120,120,20.bmp,120,120,9110.70000000298,712253.3999999985,8012,yes,SM,B,18.bmp,120,120,166670,160643,168686,162655,716598.0,710570.0,718614.0,712583.0,57
3,0,0,1,0,57,test,1,1,z,Thu May 08 2025 10:27:05 GMT-0500 (Central Daylight Time),731011.1999999955,I,z,1583,58,2,21.bmp,-120,-120,22.bmp,120,-120,23.bmp,-120,120,24.bmp,120,120,9644.39999999851,721366.799999997,8012,yes,SM,B,23.bmp,-120,120,166670,160643,168686,162655,725712.0,719683.0,727728.0,721697.0,58
2,0,1,0,0,58,test,1,1,m,Thu May 08 2025 10:27:05 GMT-0500 (Central Daylight Time),740825.0,I,m,1752,59,2,25.bmp,-120,-120,26.bmp,120,-120,27.bmp,-120,120,28.bmp,120,120,9810.5,731014.5,8012,yes,SM,B,28.bmp,120,-120,166670,160643,168686,162655,735359.0,729331.0,737375.0,731344.0,59
1,1,0,0,0,59,test,1,1,z,Thu May 08 2025 10:27:05 GMT-0500 (Central Daylight Time),750604.6999999955,I,z,1730,60,2,29.bmp,-120,-120,30.bmp,120,-120,31.bmp,-120,120,32.bmp,120,120,9776.79999999702,740827.8999999985,8012,yes,SM,B,29.bmp,-120,-120,166670,160643,168686,162655,745172.0,739144.0,747189.0,741157.0,60
2,0,1,0,0,60,test,1,1,z,Thu May 08 2025 10:27:05 GMT-0500 (Central Daylight Time),760235.299999997,I,z,1574,61,2,33.bmp,-120,-120,34.bmp,120,-120,35.bmp,-120,120,36.bmp,120,120,9627.79999999702,750607.5,8012,yes,SM,B,34.bmp,120,-120,166670,160643,168686,162655,754953.0,748924.0,756969.0,750937.0,61
4,0,0,0,1,61,test,1,1,z,Thu May 08 2025 10:27:05 GMT-0500 (Central Daylight Time),769632.1999999955,I,z,1344,62,2,41.bmp,-120,-120,42.bmp,120,-120,43.bmp,-120,120,44.bmp,120,120,9393.79999999702,760238.3999999985,8012,yes,SM,B,44.bmp,120,120,166670,160643,168686,162655,764583.0,758555.0,766599.0,760568.0,62
1,1,0,0,0,61,test,1,0,m,Thu May 08 2025 10:27:05 GMT-0500 (Central Daylight Time),779696.1000000015,I,None,2015,63,2,45.bmp,-120,-120,46.bmp,120,-120,47.bmp,-120,120,48.bmp,120,120,10060.90000000596,769635.1999999955,8012,yes,SM,B,45.bmp,-120,120,166670,160643,168686,162655,773980.0,767951.0,775997.0,769965.0,63
2,0,1,0,0,62,test,1,1,z,Thu May 08 2025 10:27:05 GMT-0500 (Central Daylight Time),788692.799999997,I,z,947,64,2,49.bmp,-120,-120,50.bmp,120,-120,12.bmp,-120,120,1.bmp,120,120,8993.5,779699.299999997,8012,yes,SM,B,50.bmp,120,-120,166670,160643,168686,162655,784043.0,778015.0,786060.0,780028.0,64
4,0,0,0,1,63,test,1,1,m,Thu May 08 2025 10:27:05 GMT-0500 (Central Daylight Time),797707.0,I,m,958,65,2,2.bmp,-120,-120,3.bmp,120,-120,4.bmp,-120,120,5.bmp,120,120,9011.39999999851,788695.6000000015,8012,yes,SM,B,4.bmp,120,120,166670,160643,168686,162655,793041.0,787012.0,795057.0,789026.0,65
3,0,0,1,0,64,test,1,1,m,Thu May 08 2025 10:27:05 GMT-0500 (Central Daylight Time),806787.299999997,I,m,1024,66,2,6.bmp,-120,-120,7.bmp,120,-120,8.bmp,-120,120,9.bmp,120,120,9077.39999999851,797709.8999999985,8012,yes,SM,B,9.bmp,-120,120,166670,160643,168686,162655,802055.0,796026.0,804071.0,798039.0,66
2,0,1,0,0,65,test,1,1,m,Thu May 08 2025 10:27:05 GMT-0500 (Central Daylight Time),816051.3999999985,I,m,1216,67,2,37.bmp,-120,-120,38.bmp,120,-120,39.bmp,-120,120,40.bmp,120,120,9260.79999999702,806790.6000000015,8012,yes,SM,B,39.bmp,120,-120,166670,160643,168686,162655,811135.0,805107.0,813151.0,807120.0,67
3,0,0,1,0,66,test,1,1,z,Thu May 08 2025 10:27:05 GMT-0500 (Central Daylight Time),825165.1000000015,I,z,1056,68,2,10.bmp,-120,-120,11.bmp,120,-120,12.bmp,-120,120,13.bmp,120,120,9110.80000000447,816054.299999997,8012,yes,SM,B,12.bmp,-120,120,166670,160643,168686,162655,820399.0,814371.0,822415.0,816384.0,68
1,1,0,0,0,67,test,1,1,m,Thu May 08 2025 10:27:05 GMT-0500 (Central Daylight Time),834311.8999999985,I,m,1094,69,2,14.bmp,-120,-120,15.bmp,120,-120,16.bmp,-120,120,17.bmp,120,120,9144.0,825167.8999999985,8012,yes,SM,B,15.bmp,-120,-120,166670,160643,168686,162655,829513.0,823484.0,831529.0,825498.0,69
2,0,1,0,0,68,test,1,1,m,Thu May 08 2025 10:27:05 GMT-0500 (Central Daylight Time),843292.3999999985,I,m,931,70,2,18.bmp,-120,-120,19.bmp,120,-120,20.bmp,-120,120,21.bmp,120,120,8977.0,834315.3999999985,8012,yes,SM,B,20.bmp,120,-120,166670,160643,168686,162655,838660.0,832632.0,840676.0,834645.0,70
4,0,0,0,1,69,test,1,1,z,Thu May 08 2025 10:27:05 GMT-0500 (Central Daylight Time),852839.6000000015,I,z,1486,71,2,22.bmp,-120,-120,23.bmp,120,-120,24.bmp,-120,120,25.bmp,120,120,9544.40000000596,843295.1999999955,8012,yes,SM,B,25.bmp,120,120,166670,160643,168686,162655,847640.0,841611.0,849657.0,843625.0,71
1,1,0,0,0,70,test,1,1,z,Thu May 08 2025 10:27:05 GMT-0500 (Central Daylight Time),861870.299999997,I,z,979,72,2,26.bmp,-120,-120,27.bmp,120,-120,28.bmp,-120,120,29.bmp,120,120,9027.60000000149,852842.6999999955,8012,yes,SM,B,26.bmp,-120,-120,166670,160643,168686,162655,857188.0,851159.0,859204.0,853172.0,72
2,0,1,0,0,71,test,1,1,z,Thu May 08 2025 10:27:05 GMT-0500 (Central Daylight Time),870867.6999999955,I,z,949,73,2,30.bmp,-120,-120,31.bmp,120,-120,32.bmp,-120,120,33.bmp,120,120,8994.5,861873.1999999955,8012,yes,SM,B,31.bmp,120,-120,166670,160643,168686,162655,866218.0,860189.0,868234.0,862203.0,73
4,0,0,0,1,72,test,1,1,m,Thu May 08 2025 10:27:05 GMT-0500 (Central Daylight Time),879947.799999997,I,m,1033,74,2,34.bmp,-120,-120,35.bmp,120,-120,36.bmp,-120,120,37.bmp,120,120,9076.69999999553,870871.1000000015,8012,yes,SM,B,36.bmp,120,120,166670,160643,168686,162655,875215.0,869187.0,877231.0,871200.0,74
2,0,1,0,0,72,test,1,0,m,Thu May 08 2025 10:27:05 GMT-0500 (Central Daylight Time),889661.5,I,z,1663,75,2,38.bmp,-120,-120,39.bmp,120,-120,40.bmp,-120,120,41.bmp,120,120,9710.70000000298,879950.799999997,8012,yes,SM,B,41.bmp,120,-120,166670,160643,168686,162655,884296.0,878267.0,886312.0,880280.0,75
1,1,0,0,0,73,test,1,1,z,Thu May 08 2025 10:27:05 GMT-0500 (Central Daylight Time),898742.1000000015,I,z,1021,76,2,42.bmp,-120,-120,43.bmp,120,-120,44.bmp,-120,120,45.bmp,120,120,9077.20000000298,889664.8999999985,8012,yes,SM,B,42.bmp,-120,-120,166670,160643,168686,162655,894009.0,887981.0,896026.0,889994.0,76
3,0,0,1,0,74,test,1,1,z,Thu May 08 2025 10:27:05 GMT-0500 (Central Daylight Time),907989.1999999955,I,z,1197,77,2,50.bmp,-120,-120,11.bmp,120,-120,1.bmp,-120,120,2.bmp,120,120,9244.29999999702,898744.8999999985,8012,yes,SM,B,1.bmp,-120,120,166670,160643,168686,162655,903090.0,897061.0,905106.0,899074.0,77
1,1,0,0,0,75,test,1,1,m,Thu May 08 2025 10:27:05 GMT-0500 (Central Daylight Time),917019.5,I,m,967,78,2,46.bmp,-120,-120,47.bmp,120,-120,48.bmp,-120,120,49.bmp,120,120,9027.0,907992.5,8012,yes,SM,B,47.bmp,-120,-120,166670,160643,168686,162655,912337.0,906309.0,914353.0,908322.0,78
4,0,0,0,1,76,test,1,1,m,Thu May 08 2025 10:27:05 GMT-0500 (Central Daylight Time),926383.6000000015,I,m,1304,79,2,7.bmp,-120,-120,8.bmp,120,-120,9.bmp,-120,120,10.bmp,120,120,9356.5,917027.1000000015,8012,yes,SM,B,7.bmp,120,120,166670,160643,168686,162655,921367.0,915343.0,923384.0,917352.0,79
3,0,0,1,0,77,test,1,1,m,Thu May 08 2025 10:27:05 GMT-0500 (Central Daylight Time),935347.1999999955,I,m,908,80,2,3.bmp,-120,-120,4.bmp,120,-120,5.bmp,-120,120,6.bmp,120,120,8960.19999999553,926387.0,8012,yes,SM,B,6.bmp,-120,120,166670,160643,168686,162655,930731.0,924703.0,932747.0,926716.0,80
