acc_sum,block,block_c,condition,correct,correct_response,datetime,endtime,flanker,jitter,project,response,response_test_buffer_response,response_test_target_response,response_time,response_time_test_buffer_response,response_time_test_target_response,row_sel,session_number,start_end,starttime,subject_id,target,task,task_vers,time_test_buffer,time_test_buffer_response,time_test_constants,time_test_flanker,time_test_jitter,time_test_logger,time_test_target,time_test_target_response,time_test_variables,trial
1,prac,1,inc,1,z,Wed May 21 2025 14:00:49 GMT-0500 (Central Daylight Time),84227.10000002384,napkin,1100,I,z,,,981,,,12,1,3377.899999976158,80849.20000004768,8032,friend,AF,B,,,,,,,,,,1
1,prac,1,con,0,z,Wed May 21 2025 14:00:49 GMT-0500 (Central Daylight Time),87059.60000002384,rage,1000,I,m,,,532,,,15,1,2827.399999976158,84232.20000004768,8032,rage,AF,B,,,,,,,,,,2
2,prac,1,con,1,m,Wed May 21 2025 14:00:49 GMT-0500 (Central Daylight Time),89942.0,bell,1000,I,m,,,569,,,3,1,2877.7999999523163,87064.20000004768,8032,bell,AF,B,,,,,,,,,,3
3,prac,1,con,1,z,Wed May 21 2025 14:00:49 GMT-0500 (Central Daylight Time),92738.70000004768,love,1000,I,z,,,465,,,11,1,2792.2000000476837,89946.5,8032,love,AF,B,,,,,,,,,,4
4,prac,1,inc,1,z,Wed May 21 2025 14:00:49 GMT-0500 (Central Daylight Time),95790.30000007153,window,1100,I,z,,,645,,,16,1,3046.3000000715256,92744.0,8032,temper,AF,B,,,,,,,,,,5
5,prac,1,con,1,z,Wed May 21 2025 14:00:49 GMT-0500 (Central Daylight Time),98555.89999997616,elated,800,I,z,,,662,,,9,1,2761.1999999284744,95794.70000004768,8032,elated,AF,B,,,,,,,,,,6
6,prac,1,inc,1,m,Wed May 21 2025 14:00:49 GMT-0500 (Central Daylight Time),101438.30000007153,brutal,1100,I,m,,,478,,,8,1,2878.3000000715256,98560.0,8032,window,AF,B,,,,,,,,,,7
7,prac,1,con,1,z,Wed May 21 2025 14:00:49 GMT-0500 (Central Daylight Time),104087.39999997616,brutal,800,I,z,,,558,,,13,1,2645.0,101442.39999997616,8032,brutal,AF,B,,,,,,,,,,8
8,prac,1,con,1,m,Wed May 21 2025 14:00:49 GMT-0500 (Central Daylight Time),107053.20000004768,step,800,I,m,,,861,,,1,1,2961.399999976158,104091.80000007153,8032,step,AF,B,,,,,,,,,,9
9,prac,1,con,1,m,Wed May 21 2025 14:00:49 GMT-0500 (Central Daylight Time),109819.30000007153,remote,1000,I,m,,,463,,,7,1,2761.7000000476837,107057.60000002384,8032,remote,AF,B,,,,,,,,,,10
10,prac,1,inc,1,m,Wed May 21 2025 14:00:49 GMT-0500 (Central Daylight Time),112634.70000004768,elated,900,I,m,,,606,,,6,1,2810.600000023842,109824.10000002384,8032,napkin,AF,B,,,,,,,,,,11
11,prac,1,inc,1,m,Wed May 21 2025 14:00:49 GMT-0500 (Central Daylight Time),115583.89999997616,kind,900,I,m,,,742,,,2,1,2944.7999999523163,112639.10000002384,8032,rock,AF,B,,,,,,,,,,12
12,prac,1,inc,1,m,Wed May 21 2025 14:00:49 GMT-0500 (Central Daylight Time),118582.89999997616,hate,1100,I,m,,,593,,,4,1,2994.7999999523163,115588.10000002384,8032,film,AF,B,,,,,,,,,,13
13,prac,1,inc,1,z,Wed May 21 2025 14:00:49 GMT-0500 (Central Daylight Time),121448.89999997616,rock,900,I,z,,,659,,,10,1,2861.899999976158,118587.0,8032,kind,AF,B,,,,,,,,,,14
14,prac,1,con,1,m,Wed May 21 2025 14:00:49 GMT-0500 (Central Daylight Time),124014.5,jacket,800,I,m,,,452,,,5,1,2561.2999999523163,121453.20000004768,8032,jacket,AF,B,,,,,,,,,,15
15,prac,1,inc,1,z,Wed May 21 2025 14:00:49 GMT-0500 (Central Daylight Time),126913.70000004768,film,900,I,z,,,690,,,14,1,2894.899999976158,124018.80000007153,8032,hate,AF,B,,,,,,,,,,16
1,test,1,con,1,z,Wed May 21 2025 14:00:49 GMT-0500 (Central Daylight Time),141109.30000007153,brutal,1000,I,z,z,None,439,240.0,199.0,35,1,1979.6000000238419,139129.70000004768,8032,brutal,AF,B,136278,136278,134549,135563,134549,136528,136079,136079,136528,1
2,test,1,con,1,z,Wed May 21 2025 14:00:49 GMT-0500 (Central Daylight Time),143191.70000004768,elated,1100,I,z,z,None,445,245.0,200.0,4,1,2077.399999976158,141114.30000007153,8032,elated,AF,B,138361,138361,136533,137645,136534,138611,138161,138161,138611,2
3,test,1,con,1,m,Wed May 21 2025 14:00:49 GMT-0500 (Central Daylight Time),145224.5,remote,1000,I,m,m,None,486,286.0,200.0,115,1,2028.3999999761581,143196.10000002384,8032,remote,AF,B,140344,140344,138615,139628,138615,140644,140144,140144,140644,3
4,test,1,con,1,m,Wed May 21 2025 14:00:49 GMT-0500 (Central Daylight Time),147007.30000007153,napkin,800,I,m,m,None,445,245.0,200.0,105,1,1778.7000000476837,145228.60000002384,8032,napkin,AF,B,142177,142177,140648,141460,140648,142426,141977,141977,142426,4
5,test,1,con,1,m,Wed May 21 2025 14:00:49 GMT-0500 (Central Daylight Time),148856.60000002384,rock,900,I,m,m,None,402,203.0,199.0,74,1,1844.8999999761581,147011.70000004768,8032,rock,AF,B,144059,144059,142431,143344,142431,144276,143859,143860,144276,5
6,test,1,con,1,m,Wed May 21 2025 14:00:49 GMT-0500 (Central Daylight Time),150822.89999997616,napkin,1000,I,m,m,None,420,221.0,199.0,107,1,1961.0999999046326,148861.80000007153,8032,napkin,AF,B,146009,146009,144281,145292,144281,146242,145809,145809,146242,6
7,test,1,inc,1,m,Wed May 21 2025 14:00:49 GMT-0500 (Central Daylight Time),153138.70000004768,hate,1100,I,m,m,None,667,467.0,200.0,72,1,2312.100000023842,150826.60000002384,8032,step,AF,B,148075,148075,146246,147359,146246,148558,147875,147875,148558,7
8,test,1,con,1,z,Wed May 21 2025 14:00:49 GMT-0500 (Central Daylight Time),155304.5,hate,1000,I,z,z,None,626,427.0,199.0,43,1,2161.5,153143.0,8032,hate,AF,B,150291,150291,148562,149574,148562,150724,150091,150091,150724,8
9,test,1,inc,1,m,Wed May 21 2025 14:00:49 GMT-0500 (Central Daylight Time),157387.5,temper,1000,I,m,m,None,540,341.0,199.0,111,1,2078.399999976158,155309.10000002384,8032,napkin,AF,B,152457,152457,150728,151740,150729,152807,152257,152257,152806,9
10,test,1,inc,1,m,Wed May 21 2025 14:00:49 GMT-0500 (Central Daylight Time),159586.89999997616,friend,1100,I,m,m,None,549,350.0,199.0,104,1,2195.5,157391.39999997616,8032,jacket,AF,B,154640,154640,152810,153923,152811,155006,154440,154440,155006,10
11,test,1,inc,1,m,Wed May 21 2025 14:00:49 GMT-0500 (Central Daylight Time),161536.20000004768,elated,800,I,m,m,None,612,412.0,200.0,109,1,1945.1000000238419,159591.10000002384,8032,napkin,AF,B,156539,156539,155010,155823,155010,156955,156339,156339,156955,11
12,test,1,con,1,m,Wed May 21 2025 14:00:49 GMT-0500 (Central Daylight Time),163463.5,jacket,1000,I,m,m,None,394,194.0,200.0,99,1,1923.1999999284744,161540.30000007153,8032,jacket,AF,B,158688,158688,156959,157972,156960,158883,158488,158488,158882,12
13,test,1,con,1,z,Wed May 21 2025 14:00:49 GMT-0500 (Central Daylight Time),165485.20000004768,hate,1100,I,z,z,None,398,198.0,200.0,44,1,2017.7000000476837,163467.5,8032,hate,AF,B,160704,160704,158886,159988,158887,160904,160504,160504,160904,13
14,test,1,inc,1,z,Wed May 21 2025 14:00:49 GMT-0500 (Central Daylight Time),167834.10000002384,jacket,800,I,z,z,None,1002,802.0,200.0,29,1,2344.7000000476837,165489.39999997616,8032,friend,AF,B,162437,162437,160908,161721,160909,163253,162237,162237,163253,14
15,test,1,inc,1,z,Wed May 21 2025 14:00:49 GMT-0500 (Central Daylight Time),170166.5,window,1100,I,z,z,None,688,488.0,200.0,40,1,2328.0,167838.5,8032,brutal,AF,B,165086,165086,163258,164370,163258,165586,164886,164886,165586,15
16,test,1,con,1,m,Wed May 21 2025 14:00:49 GMT-0500 (Central Daylight Time),172282.70000004768,rock,1100,I,m,m,None,475,276.0,199.0,76,1,2112.100000023842,170170.60000002384,8032,rock,AF,B,167419,167419,165590,166702,165590,167702,167219,167219,167702,16
17,test,1,inc,1,z,Wed May 21 2025 14:00:49 GMT-0500 (Central Daylight Time),174432.30000007153,remote,1000,I,z,z,None,611,411.0,200.0,39,1,2145.5,172286.80000007153,8032,brutal,AF,B,169435,169435,167706,168718,167706,169851,169235,169235,169851,17
18,test,1,con,1,m,Wed May 21 2025 14:00:49 GMT-0500 (Central Daylight Time),176381.39999997616,jacket,800,I,m,m,None,613,414.0,199.0,97,1,1945.1999999284744,174436.20000004768,8032,jacket,AF,B,171384,171384,169855,170668,169856,171800,171184,171185,171800,18
19,test,1,inc,1,m,Wed May 21 2025 14:00:49 GMT-0500 (Central Daylight Time),178297.39999997616,rage,800,I,m,m,None,568,368.0,200.0,85,1,1912.3999999761581,176385.0,8032,bell,AF,B,173333,173334,171804,172617,171804,173716,173133,173133,173716,19
20,test,1,con,1,z,Wed May 21 2025 14:00:49 GMT-0500 (Central Daylight Time),180396.89999997616,rage,800,I,z,z,None,763,564.0,199.0,49,1,2095.5,178301.39999997616,8032,rage,AF,B,175250,175250,173720,174533,173721,175816,175050,175050,175816,20
21,test,1,con,1,z,Wed May 21 2025 14:00:49 GMT-0500 (Central Daylight Time),182563.0,rage,1000,I,z,z,None,617,417.0,200.0,51,1,2161.7999999523163,180401.20000004768,8032,rage,AF,B,177549,177549,175820,176833,175820,177982,177349,177349,177982,21
22,test,1,con,1,z,Wed May 21 2025 14:00:49 GMT-0500 (Central Daylight Time),184595.5,rage,1100,I,z,z,None,382,183.0,199.0,52,1,2027.1999999284744,182568.30000007153,8032,rage,AF,B,179815,179815,177987,179099,177988,180015,179615,179615,180015,22
23,test,1,con,1,m,Wed May 21 2025 14:00:49 GMT-0500 (Central Daylight Time),186778.20000004768,remote,1100,I,m,m,None,542,343.0,199.0,116,1,2177.899999976158,184600.30000007153,8032,remote,AF,B,181847,181847,180019,181131,180020,182197,181648,181648,182197,23
24,test,1,inc,1,z,Wed May 21 2025 14:00:49 GMT-0500 (Central Daylight Time),188911.0,remote,1000,I,z,z,None,588,388.0,200.0,7,1,2128.600000023842,186782.39999997616,8032,elated,AF,B,183930,183930,182201,183214,182202,184330,183730,183730,184330,24
25,test,1,con,1,m,Wed May 21 2025 14:00:49 GMT-0500 (Central Daylight Time),190876.70000004768,remote,800,I,m,m,None,631,431.0,200.0,113,1,1961.8000000715256,188914.89999997616,8032,remote,AF,B,185863,185863,184334,185147,184334,186296,185663,185663,186296,25
26,test,1,con,1,z,Wed May 21 2025 14:00:49 GMT-0500 (Central Daylight Time),192976.39999997616,love,1100,I,z,z,None,461,262.0,199.0,20,1,2095.899999976158,190880.5,8032,love,AF,B,188129,188129,186300,187413,186300,188395,187929,187929,188395,26
27,test,1,inc,1,m,Wed May 21 2025 14:00:49 GMT-0500 (Central Daylight Time),194959.10000002384,kind,900,I,m,m,None,553,338.0,215.0,86,1,1978.6000000238419,192980.5,8032,bell,AF,B,190028,190028,188400,189312,188400,190378,189813,189813,190378,27
28,test,1,con,1,m,Wed May 21 2025 14:00:49 GMT-0500 (Central Daylight Time),197258.30000007153,window,1100,I,m,m,None,651,451.0,200.0,124,1,2295.0,194963.30000007153,8032,window,AF,B,192211,192211,190382,191495,190383,192677,192011,192011,192677,28
29,test,1,inc,1,z,Wed May 21 2025 14:00:49 GMT-0500 (Central Daylight Time),199457.5,window,1100,I,z,z,None,559,360.0,199.0,64,1,2195.5,197262.0,8032,temper,AF,B,194510,194510,192681,193794,192681,194877,194311,194311,194876,29
30,test,1,con,1,m,Wed May 21 2025 14:00:49 GMT-0500 (Central Daylight Time),201706.80000007153,film,1100,I,m,m,None,608,409.0,199.0,92,1,2245.3000000715256,199461.5,8032,film,AF,B,196710,196710,194881,195993,194881,197126,196510,196510,197126,30
31,test,1,con,1,z,Wed May 21 2025 14:00:49 GMT-0500 (Central Daylight Time),203789.39999997616,temper,900,I,z,z,None,647,447.0,200.0,58,1,2078.6999999284744,201710.70000004768,8032,temper,AF,B,198759,198759,197130,198042,197130,199208,198559,198559,199208,31
32,test,1,con,1,m,Wed May 21 2025 14:00:49 GMT-0500 (Central Daylight Time),205822.10000002384,film,900,I,m,m,None,587,388.0,199.0,90,1,2029.1000000238419,203793.0,8032,film,AF,B,200842,200842,199212,200125,199212,201241,200642,200642,201241,32
33,test,1,inc,1,m,Wed May 21 2025 14:00:49 GMT-0500 (Central Daylight Time),208154.80000007153,hate,1100,I,m,m,None,693,493.0,200.0,96,1,2328.8000000715256,205826.0,8032,film,AF,B,203074,203074,201245,202358,201245,203574,202874,202874,203574,33
34,test,1,inc,1,m,Wed May 21 2025 14:00:49 GMT-0500 (Central Daylight Time),210104.39999997616,elated,800,I,m,m,None,602,402.0,200.0,117,1,1946.0,208158.39999997616,8032,remote,AF,B,205108,205108,203577,204390,203578,205523,204907,204907,205523,34
35,test,1,inc,1,m,Wed May 21 2025 14:00:49 GMT-0500 (Central Daylight Time),212353.39999997616,friend,1100,I,m,m,None,601,402.0,199.0,120,1,2244.899999976158,210108.5,8032,remote,AF,B,207356,207356,205527,206640,205528,207773,207157,207157,207772,35
36,test,1,con,1,z,Wed May 21 2025 14:00:49 GMT-0500 (Central Daylight Time),214436.60000002384,brutal,800,I,z,z,None,739,540.0,199.0,33,1,2079.5,212357.10000002384,8032,brutal,AF,B,209306,209306,207776,208589,207777,209856,209106,209106,209856,36
37,test,1,inc,1,z,Wed May 21 2025 14:00:49 GMT-0500 (Central Daylight Time),216735.39999997616,window,1100,I,z,z,None,654,454.0,200.0,8,1,2295.1999999284744,214440.20000004768,8032,elated,AF,B,211688,211688,209859,210972,209860,212154,211488,211488,212154,37
38,test,1,con,1,m,Wed May 21 2025 14:00:49 GMT-0500 (Central Daylight Time),218718.30000007153,window,900,I,m,m,None,546,347.0,199.0,122,1,1979.1000000238419,216739.20000004768,8032,window,AF,B,213787,213787,212158,213071,212158,214137,213588,213588,214137,38
39,test,1,inc,1,z,Wed May 21 2025 14:00:49 GMT-0500 (Central Daylight Time),220651.10000002384,jacket,800,I,z,z,None,584,384.0,200.0,61,1,1928.8999999761581,218722.20000004768,8032,temper,AF,B,215670,215670,214141,214954,214142,216070,215470,215470,216070,39
40,test,1,con,1,m,Wed May 21 2025 14:00:49 GMT-0500 (Central Daylight Time),223050.10000002384,jacket,1100,I,m,m,None,751,551.0,200.0,100,1,2394.899999976158,220655.20000004768,8032,jacket,AF,B,217903,217903,216074,217187,216075,218469,217703,217703,218469,40
41,test,1,con,1,m,Wed May 21 2025 14:00:49 GMT-0500 (Central Daylight Time),225099.70000004768,film,1000,I,m,m,None,501,301.0,200.0,91,1,2045.8000000715256,223053.89999997616,8032,film,AF,B,220202,220202,218473,219486,218473,220519,220002,220002,220519,41
42,test,1,inc,1,m,Wed May 21 2025 14:00:49 GMT-0500 (Central Daylight Time),227048.89999997616,elated,800,I,m,m,None,609,410.0,199.0,125,1,1945.3999999761581,225103.5,8032,window,AF,B,222052,222052,220523,221335,220523,222468,221852,221852,222468,42
43,test,1,inc,1,m,Wed May 21 2025 14:00:49 GMT-0500 (Central Daylight Time),229064.89999997616,brutal,900,I,m,m,None,569,368.0,201.0,102,1,2012.0999999046326,227052.80000007153,8032,jacket,AF,B,224102,224102,222472,223385,222472,224484,223901,223901,224484,43
44,test,1,con,1,z,Wed May 21 2025 14:00:49 GMT-0500 (Central Daylight Time),230931.0,love,800,I,z,z,None,517,317.0,200.0,17,1,1862.2999999523163,229068.70000004768,8032,love,AF,B,226017,226017,224488,225301,224488,226350,225817,225817,226350,44
44,test,1,con,0,z,Wed May 21 2025 14:00:49 GMT-0500 (Central Daylight Time),233213.70000004768,friend,1100,I,m,m,None,647,447.0,200.0,28,1,2278.899999976158,230934.80000007153,8032,friend,AF,B,228183,228183,226354,227467,226354,228633,227983,227983,228633,45
44,test,1,con,0,z,Wed May 21 2025 14:00:49 GMT-0500 (Central Daylight Time),235329.89999997616,kind,1000,I,m,m,None,544,344.0,200.0,11,1,2112.2999999523163,233217.60000002384,8032,kind,AF,B,230399,230399,228637,229692,228637,230749,230199,230199,230749,46
45,test,1,con,1,m,Wed May 21 2025 14:00:49 GMT-0500 (Central Daylight Time),237145.89999997616,film,800,I,m,m,None,476,276.0,200.0,89,1,1812.0999999046326,235333.80000007153,8032,film,AF,B,232282,232282,230753,231566,230753,232565,232082,232082,232565,47
46,test,1,con,1,z,Wed May 21 2025 14:00:49 GMT-0500 (Central Daylight Time),239011.89999997616,rage,900,I,z,z,None,424,224.0,200.0,50,1,1862.1999999284744,237149.70000004768,8032,rage,AF,B,234198,234198,232569,233482,232569,234431,233998,233998,234431,48
47,test,1,con,1,m,Wed May 21 2025 14:00:49 GMT-0500 (Central Daylight Time),240944.30000007153,step,800,I,m,m,None,594,394.0,200.0,65,1,1928.7000000476837,239015.60000002384,8032,step,AF,B,235964,235964,234435,235248,234435,236363,235764,235764,236363,49
48,test,1,inc,1,z,Wed May 21 2025 14:00:49 GMT-0500 (Central Daylight Time),243177.30000007153,film,1100,I,z,z,None,592,393.0,199.0,24,1,2229.2000000476837,240948.10000002384,8032,love,AF,B,238197,238197,236367,237480,236367,238596,237997,237997,238596,50
49,test,1,inc,1,z,Wed May 21 2025 14:00:49 GMT-0500 (Central Daylight Time),245443.10000002384,film,1100,I,z,z,None,625,426.0,199.0,16,1,2262.0,243181.10000002384,8032,kind,AF,B,240429,240429,238600,239713,238600,240862,240230,240230,240862,51
50,test,1,con,1,z,Wed May 21 2025 14:00:49 GMT-0500 (Central Daylight Time),247459.80000007153,hate,900,I,z,z,None,582,383.0,199.0,42,1,2013.1000000238419,245446.70000004768,8032,hate,AF,B,242495,242495,240866,241779,240866,242879,242296,242296,242879,52
51,test,1,inc,1,z,Wed May 21 2025 14:00:49 GMT-0500 (Central Daylight Time),249475.20000004768,napkin,900,I,z,z,None,582,383.0,199.0,6,1,2011.6000000238419,247463.60000002384,8032,elated,AF,B,244511,244511,242883,243795,242883,244894,244312,244312,244894,53
52,test,1,inc,1,z,Wed May 21 2025 14:00:49 GMT-0500 (Central Daylight Time),251507.80000007153,rock,900,I,z,z,None,590,391.0,199.0,22,1,2028.5,249479.30000007153,8032,love,AF,B,246527,246527,244898,245811,244899,246927,246328,246328,246927,54
53,test,1,inc,1,z,Wed May 21 2025 14:00:49 GMT-0500 (Central Daylight Time),253640.60000002384,step,800,I,z,z,None,794,594.0,200.0,13,1,2128.7000000476837,251511.89999997616,8032,kind,AF,B,248460,248460,246931,247744,246931,249060,248260,248260,249060,55
54,test,1,inc,1,m,Wed May 21 2025 14:00:49 GMT-0500 (Central Daylight Time),255939.70000004768,kind,900,I,m,m,None,850,650.0,200.0,94,1,2295.600000023842,253644.10000002384,8032,film,AF,B,250693,250693,249063,249976,249063,251359,250493,250493,251359,56
55,test,1,inc,1,z,Wed May 21 2025 14:00:49 GMT-0500 (Central Daylight Time),257940.39999997616,jacket,800,I,z,z,None,666,466.0,200.0,37,1,1996.7999999523163,255943.60000002384,8032,brutal,AF,B,252892,252892,251363,252176,251363,253359,252692,252692,253359,57
56,test,1,inc,1,z,Wed May 21 2025 14:00:49 GMT-0500 (Central Daylight Time),260121.80000007153,bell,1000,I,z,z,None,642,443.0,199.0,55,1,2177.600000023842,257944.20000004768,8032,rage,AF,B,255091,255092,253363,254375,253363,255541,254892,254892,255541,58
57,test,1,con,1,z,Wed May 21 2025 14:00:49 GMT-0500 (Central Daylight Time),262187.8000000715,kind,800,I,z,z,None,717,517.0,200.0,9,1,2062.4000000953674,260125.39999997616,8032,kind,AF,B,257074,257074,255544,256358,255545,257607,256874,256874,257607,59
58,test,1,inc,1,z,Wed May 21 2025 14:00:49 GMT-0500 (Central Daylight Time),264220.5,napkin,900,I,z,z,None,590,390.0,200.0,62,1,2029.1000000238419,262191.39999997616,8032,temper,AF,B,259240,259240,257610,258523,257611,259640,259040,259040,259640,60
59,test,1,inc,1,z,Wed May 21 2025 14:00:49 GMT-0500 (Central Daylight Time),266386.7000000477,remote,1000,I,z,z,None,633,434.0,199.0,63,1,2162.3000000715256,264224.39999997616,8032,temper,AF,B,261356,261356,259643,260656,259644,261806,261157,261157,261806,61
60,test,1,con,1,m,Wed May 21 2025 14:00:49 GMT-0500 (Central Daylight Time),268569.39999997616,rock,1000,I,m,m,None,642,443.0,199.0,75,1,2178.5,266390.89999997616,8032,rock,AF,B,263539,263539,261810,262822,261810,263988,263339,263339,263988,62
61,test,1,con,1,m,Wed May 21 2025 14:00:49 GMT-0500 (Central Daylight Time),270418.60000002384,bell,800,I,m,m,None,500,301.0,199.0,81,1,1845.3999999761581,268573.2000000477,8032,bell,AF,B,265521,265521,263992,264805,263993,265838,265322,265322,265838,63
62,test,1,inc,1,z,Wed May 21 2025 14:00:49 GMT-0500 (Central Daylight Time),272434.7000000477,napkin,900,I,z,z,None,574,375.0,199.0,38,1,2012.3999999761581,270422.3000000715,8032,brutal,AF,B,267471,267471,265841,266754,265842,267854,267271,267271,267854,64
63,test,1,inc,1,m,Wed May 21 2025 14:00:49 GMT-0500 (Central Daylight Time),274650.7000000477,hate,1100,I,m,m,None,566,367.0,199.0,88,1,2212.2000000476837,272438.5,8032,bell,AF,B,269687,269687,267858,268971,267858,270070,269487,269487,270070,65
64,test,1,con,1,m,Wed May 21 2025 14:00:49 GMT-0500 (Central Daylight Time),276516.7000000477,window,800,I,m,m,None,522,323.0,199.0,121,1,1862.1000000238419,274654.60000002384,8032,window,AF,B,271603,271603,270074,270886,270074,271936,271403,271403,271936,66
65,test,1,inc,1,z,Wed May 21 2025 14:00:49 GMT-0500 (Central Daylight Time),278616.10000002384,bell,1000,I,z,z,None,553,353.0,200.0,23,1,2095.899999976158,276520.2000000477,8032,love,AF,B,273669,273669,271939,272952,271939,274035,273469,273469,274035,67
66,test,1,con,1,m,Wed May 21 2025 14:00:49 GMT-0500 (Central Daylight Time),280465.5,rock,800,I,m,m,None,502,302.0,200.0,73,1,1845.1000000238419,278620.39999997616,8032,rock,AF,B,275568,275568,274039,274852,274040,275885,275368,275368,275885,68
67,test,1,inc,1,m,Wed May 21 2025 14:00:49 GMT-0500 (Central Daylight Time),282431.7000000477,kind,900,I,m,m,None,527,328.0,199.0,78,1,1962.3000000715256,280469.39999997616,8032,rock,AF,B,277518,277518,275888,276804,275889,277851,277318,277318,277851,69
68,test,1,con,1,z,Wed May 21 2025 14:00:49 GMT-0500 (Central Daylight Time),284731.0,brutal,1100,I,z,z,None,649,450.0,199.0,36,1,2295.6999999284744,282435.3000000715,8032,brutal,AF,B,279684,279684,277854,278967,277855,280150,279484,279484,280150,70
69,test,1,inc,1,m,Wed May 21 2025 14:00:49 GMT-0500 (Central Daylight Time),286913.3000000715,temper,1000,I,m,m,None,644,444.0,200.0,127,1,2178.8000000715256,284734.5,8032,window,AF,B,281883,281883,280154,281166,280154,282332,281683,281683,282332,71
70,test,1,inc,1,z,Wed May 21 2025 14:00:49 GMT-0500 (Central Daylight Time),289096.2000000477,bell,1000,I,z,z,None,635,436.0,199.0,15,1,2179.0,286917.2000000477,8032,kind,AF,B,284066,284066,282336,283349,282337,284515,283866,283866,284515,72
71,test,1,con,1,z,Wed May 21 2025 14:00:49 GMT-0500 (Central Daylight Time),290962.2000000477,temper,800,I,z,z,None,525,325.0,200.0,57,1,1862.3000000715256,289099.89999997616,8032,temper,AF,B,286048,286049,284519,285332,284519,286381,285848,285848,286381,73
72,test,1,con,1,m,Wed May 21 2025 14:00:49 GMT-0500 (Central Daylight Time),293044.89999997616,step,1000,I,m,m,None,548,348.0,200.0,67,1,2078.899999976158,290966.0,8032,step,AF,B,288114,288114,286385,287398,286386,288464,287914,287914,288464,74
73,test,1,inc,1,m,Wed May 21 2025 14:00:49 GMT-0500 (Central Daylight Time),295043.89999997616,kind,900,I,m,m,None,565,365.0,200.0,70,1,1995.0999999046326,293048.8000000715,8032,step,AF,B,290097,290097,288468,289381,288468,290463,289897,289897,290463,75
74,test,1,inc,1,m,Wed May 21 2025 14:00:49 GMT-0500 (Central Daylight Time),297193.60000002384,love,1000,I,m,m,None,600,401.0,199.0,71,1,2146.100000023842,295047.5,8032,step,AF,B,292196,292197,290467,291480,290467,292613,291997,291997,292613,76
74,test,1,con,0,z,Wed May 21 2025 14:00:49 GMT-0500 (Central Daylight Time),299543.10000002384,friend,800,I,m,m,None,1004,804.0,200.0,25,1,2345.7999999523163,297197.3000000715,8032,friend,AF,B,294146,294146,292616,293429,292617,294962,293946,293946,294962,77
75,test,1,inc,1,m,Wed May 21 2025 14:00:49 GMT-0500 (Central Daylight Time),301675.5,temper,1000,I,m,m,None,591,391.0,200.0,119,1,2128.5,299547.0,8032,remote,AF,B,296695,296695,294966,295978,294967,297095,296495,296495,297095,78
76,test,1,inc,1,m,Wed May 21 2025 14:00:49 GMT-0500 (Central Daylight Time),303774.89999997616,elated,800,I,m,m,None,761,562.0,199.0,101,1,2095.5,301679.39999997616,8032,jacket,AF,B,298628,298628,297098,297911,297099,299194,298428,298428,299194,79
77,test,1,con,1,m,Wed May 21 2025 14:00:49 GMT-0500 (Central Daylight Time),306157.10000002384,step,1100,I,m,m,None,706,506.0,200.0,68,1,2378.600000023842,303778.5,8032,step,AF,B,301060,301060,299198,300355,299198,301576,300860,300860,301576,80
77,test,1,con,0,z,Wed May 21 2025 14:00:49 GMT-0500 (Central Daylight Time),308223.3000000715,friend,1000,I,m,m,None,520,321.0,199.0,27,1,2062.4000000953674,306160.89999997616,8032,friend,AF,B,303309,303309,301580,302593,301580,303642,303110,303110,303642,81
78,test,1,con,1,m,Wed May 21 2025 14:00:49 GMT-0500 (Central Daylight Time),310306.10000002384,bell,1100,I,m,m,None,441,242.0,199.0,84,1,2079.100000023842,308227.0,8032,bell,AF,B,305476,305476,303646,304759,303646,305725,305275,305276,305725,82
79,test,1,inc,1,m,Wed May 21 2025 14:00:49 GMT-0500 (Central Daylight Time),312338.7000000477,brutal,900,I,m,m,None,582,383.0,199.0,126,1,2028.8999999761581,310309.8000000715,8032,window,AF,B,307358,307359,305729,306642,305729,307758,307159,307159,307758,83
80,test,1,con,1,z,Wed May 21 2025 14:00:49 GMT-0500 (Central Daylight Time),314338.10000002384,hate,800,I,z,z,None,660,460.0,200.0,41,1,1995.7000000476837,312342.39999997616,8032,hate,AF,B,309291,309291,307761,308575,307762,309757,309091,309091,309757,84
81,test,1,inc,1,m,Wed May 21 2025 14:00:49 GMT-0500 (Central Daylight Time),316404.0,brutal,900,I,m,m,None,631,432.0,199.0,110,1,2062.100000023842,314341.89999997616,8032,napkin,AF,B,311390,311390,309761,310674,309761,311823,311191,311191,311823,85
82,test,1,inc,1,m,Wed May 21 2025 14:00:49 GMT-0500 (Central Daylight Time),318503.60000002384,love,1000,I,m,m,None,553,354.0,199.0,79,1,2095.899999976158,316407.7000000477,8032,rock,AF,B,313557,313557,311827,312840,311827,313923,313357,313357,313923,86
83,test,1,inc,1,z,Wed May 21 2025 14:00:49 GMT-0500 (Central Daylight Time),320836.10000002384,remote,1000,I,z,z,None,789,590.0,199.0,31,1,2328.899999976158,318507.2000000477,8032,friend,AF,B,315656,315656,313926,314940,313927,316255,315456,315456,316255,87
84,test,1,con,1,m,Wed May 21 2025 14:00:49 GMT-0500 (Central Daylight Time),323035.60000002384,bell,1000,I,m,m,None,657,458.0,199.0,83,1,2195.7000000476837,320839.89999997616,8032,bell,AF,B,317988,317988,316259,317272,316259,318455,317789,317789,318455,88
85,test,1,con,1,z,Wed May 21 2025 14:00:49 GMT-0500 (Central Daylight Time),325334.7000000477,temper,1000,I,z,z,None,754,555.0,199.0,59,1,2295.100000023842,323039.60000002384,8032,temper,AF,B,320187,320187,318459,319472,318459,320754,319988,319988,320754,89
86,test,1,inc,1,m,Wed May 21 2025 14:00:49 GMT-0500 (Central Daylight Time),327417.39999997616,love,1000,I,m,m,None,543,343.0,200.0,95,1,2078.7999999523163,325338.60000002384,8032,film,AF,B,322487,322487,320758,321770,320758,322837,322287,322287,322836,90
87,test,1,inc,1,m,Wed May 21 2025 14:00:49 GMT-0500 (Central Daylight Time),329766.60000002384,friend,1100,I,m,m,None,711,512.0,199.0,128,1,2345.600000023842,327421.0,8032,window,AF,B,324669,324670,322840,323953,322840,325186,324470,324470,325186,91
88,test,1,con,1,z,Wed May 21 2025 14:00:49 GMT-0500 (Central Daylight Time),331766.0,friend,900,I,z,z,None,563,363.0,200.0,26,1,1995.7999999523163,329770.2000000477,8032,friend,AF,B,326819,326819,325189,326102,325190,327185,326619,326619,327185,92
89,test,1,con,1,z,Wed May 21 2025 14:00:49 GMT-0500 (Central Daylight Time),333915.7000000477,kind,900,I,z,z,None,700,500.0,200.0,10,1,2145.600000023842,331770.10000002384,8032,kind,AF,B,328818,328818,327189,328102,327189,329335,328618,328618,329335,93
90,test,1,con,1,m,Wed May 21 2025 14:00:49 GMT-0500 (Central Daylight Time),335764.89999997616,napkin,900,I,m,m,None,405,206.0,199.0,106,1,1845.5999999046326,333919.3000000715,8032,napkin,AF,B,330968,330968,329338,330251,329339,331184,330768,330768,331184,94
91,test,1,con,1,z,Wed May 21 2025 14:00:49 GMT-0500 (Central Daylight Time),338114.10000002384,kind,1100,I,z,z,None,701,501.0,200.0,12,1,2345.5,335768.60000002384,8032,kind,AF,B,333017,333017,331188,332301,331188,333533,332817,332817,333533,95
92,test,1,inc,1,m,Wed May 21 2025 14:00:49 GMT-0500 (Central Daylight Time),340063.7000000477,rage,800,I,m,m,None,611,412.0,199.0,93,1,1945.7000000476837,338118.0,8032,film,AF,B,335066,335066,333537,334350,333537,335483,334867,334867,335483,96
93,test,1,con,1,m,Wed May 21 2025 14:00:49 GMT-0500 (Central Daylight Time),342179.60000002384,window,1000,I,m,m,None,581,382.0,199.0,123,1,2112.2000000476837,340067.39999997616,8032,window,AF,B,337216,337216,335486,336499,335487,337599,337016,337016,337599,97
94,test,1,inc,1,m,Wed May 21 2025 14:00:49 GMT-0500 (Central Daylight Time),344095.7000000477,rage,800,I,m,m,None,577,378.0,199.0,77,1,1912.1000000238419,342183.60000002384,8032,rock,AF,B,339132,339132,337603,338415,337603,339515,338932,338932,339515,98
95,test,1,inc,1,m,Wed May 21 2025 14:00:49 GMT-0500 (Central Daylight Time),346278.2000000477,friend,1100,I,m,m,None,545,346.0,199.0,112,1,2179.0,344099.2000000477,8032,napkin,AF,B,341348,341348,339518,340631,339518,341697,341148,341148,341697,99
96,test,1,con,1,m,Wed May 21 2025 14:00:49 GMT-0500 (Central Daylight Time),348294.2000000477,step,900,I,m,m,None,579,380.0,199.0,66,1,2012.1000000238419,346282.10000002384,8032,step,AF,B,343330,343330,341701,342614,341701,343713,343131,343131,343713,100
97,test,1,con,1,m,Wed May 21 2025 14:00:49 GMT-0500 (Central Daylight Time),350110.2000000477,remote,900,I,m,m,None,380,180.0,200.0,114,1,1812.3999999761581,348297.8000000715,8032,remote,AF,B,345346,345346,343717,344630,343717,345529,345146,345146,345529,101
98,test,1,inc,1,z,Wed May 21 2025 14:00:49 GMT-0500 (Central Daylight Time),352067.8000000715,jacket,800,I,z,z,None,623,424.0,199.0,5,1,1953.8000000715256,350114.0,8032,elated,AF,B,347063,347063,345533,346346,345533,347487,346863,346863,347487,102
99,test,1,con,1,z,Wed May 21 2025 14:00:49 GMT-0500 (Central Daylight Time),354042.3000000715,love,900,I,z,z,None,542,342.0,200.0,18,1,1970.7000000476837,352071.60000002384,8032,love,AF,B,349112,349112,347491,348395,347491,349461,348912,348912,349461,103
100,test,1,con,1,z,Wed May 21 2025 14:00:49 GMT-0500 (Central Daylight Time),356241.7000000477,elated,1000,I,z,z,None,650,451.0,199.0,3,1,2195.600000023842,354046.10000002384,8032,elated,AF,B,351195,351195,349465,350478,349465,351661,350995,350995,351661,104
101,test,1,inc,1,z,Wed May 21 2025 14:00:49 GMT-0500 (Central Daylight Time),358441.2000000477,film,1100,I,z,z,None,552,352.0,200.0,56,1,2195.899999976158,356245.3000000715,8032,rage,AF,B,353494,353494,351664,352778,351665,353860,353294,353294,353860,105
102,test,1,inc,1,z,Wed May 21 2025 14:00:49 GMT-0500 (Central Daylight Time),360473.89999997616,rock,900,I,z,z,None,585,385.0,200.0,46,1,2028.8999999761581,358445.0,8032,hate,AF,B,355493,355493,353864,354778,353864,355893,355293,355293,355893,106
103,test,1,inc,1,z,Wed May 21 2025 14:00:49 GMT-0500 (Central Daylight Time),362439.7000000477,bell,1000,I,z,z,None,428,228.0,200.0,47,1,1962.3000000715256,360477.39999997616,8032,hate,AF,B,357626,357626,355896,356910,355897,357859,357426,357426,357859,107
104,test,1,inc,1,z,Wed May 21 2025 14:00:49 GMT-0500 (Central Daylight Time),364439.10000002384,rock,900,I,z,z,None,562,362.0,200.0,54,1,1995.6000000238419,362443.5,8032,rage,AF,B,359492,359492,357863,358776,357863,359858,359292,359292,359858,108
105,test,1,inc,1,z,Wed May 21 2025 14:00:49 GMT-0500 (Central Daylight Time),366405.2000000477,step,800,I,z,z,None,623,423.0,200.0,21,1,1962.0,364443.2000000477,8032,love,AF,B,361391,361391,359862,360675,359863,361824,361191,361191,361824,109
106,test,1,inc,1,z,Wed May 21 2025 14:00:49 GMT-0500 (Central Daylight Time),368488.0,film,1100,I,z,z,None,435,236.0,199.0,48,1,2079.0,366409.0,8032,hate,AF,B,363658,363658,361828,362941,361829,363907,363458,363458,363907,110
107,test,1,con,1,z,Wed May 21 2025 14:00:49 GMT-0500 (Central Daylight Time),370537.2000000477,elated,900,I,z,z,None,602,402.0,200.0,2,1,2045.1000000238419,368492.10000002384,8032,elated,AF,B,365540,365540,363911,364824,363911,365956,365340,365340,365956,111
108,test,1,con,1,m,Wed May 21 2025 14:00:49 GMT-0500 (Central Daylight Time),372520.10000002384,bell,900,I,m,m,None,537,337.0,200.0,82,1,1979.1000000238419,370541.0,8032,bell,AF,B,367589,367589,365960,366873,365960,367939,367389,367389,367939,112
109,test,1,inc,1,m,Wed May 21 2025 14:00:49 GMT-0500 (Central Daylight Time),374635.89999997616,temper,1000,I,m,m,None,567,367.0,200.0,103,1,2112.0999999046326,372523.8000000715,8032,jacket,AF,B,369672,369672,367943,368956,367943,370055,369472,369472,370055,113
110,test,1,inc,1,m,Wed May 21 2025 14:00:49 GMT-0500 (Central Daylight Time),377018.60000002384,brutal,900,I,m,m,None,884,684.0,200.0,118,1,2378.7000000476837,374639.89999997616,8032,remote,AF,B,371738,371738,370059,371032,370059,372438,371538,371538,372438,114
111,test,1,con,1,m,Wed May 21 2025 14:00:49 GMT-0500 (Central Daylight Time),379118.0,napkin,1100,I,m,m,None,455,256.0,199.0,108,1,2095.7999999523163,377022.2000000477,8032,napkin,AF,B,374270,374270,372441,373554,372442,374537,374071,374071,374537,115
112,test,1,con,1,z,Wed May 21 2025 14:00:49 GMT-0500 (Central Daylight Time),381100.60000002384,elated,800,I,z,z,None,641,441.0,200.0,1,1,1979.0,379121.60000002384,8032,elated,AF,B,376070,376070,374541,375354,374541,376520,375870,375870,376520,116
113,test,1,inc,1,z,Wed May 21 2025 14:00:49 GMT-0500 (Central Daylight Time),383083.39999997616,step,800,I,z,z,None,640,441.0,199.0,53,1,1979.1999999284744,381104.2000000477,8032,rage,AF,B,378053,378053,376523,377336,376523,378502,377853,377853,378502,117
114,test,1,con,1,z,Wed May 21 2025 14:00:49 GMT-0500 (Central Daylight Time),385066.10000002384,brutal,900,I,z,z,None,541,342.0,199.0,34,1,1979.1000000238419,383087.0,8032,brutal,AF,B,380136,380136,378506,379420,378506,380485,379936,379936,380485,118
115,test,1,con,1,z,Wed May 21 2025 14:00:49 GMT-0500 (Central Daylight Time),387048.60000002384,love,1000,I,z,z,None,436,236.0,200.0,19,1,1978.7999999523163,385069.8000000715,8032,love,AF,B,382218,382218,380489,381502,380489,382468,382018,382018,382468,119
116,test,1,inc,1,z,Wed May 21 2025 14:00:49 GMT-0500 (Central Daylight Time),389414.5,rock,900,I,z,z,None,929,730.0,199.0,14,1,2362.0,387052.5,8032,kind,AF,B,384101,384101,382472,383385,382472,384834,383901,383901,384834,120
117,test,1,con,1,m,Wed May 21 2025 14:00:49 GMT-0500 (Central Daylight Time),391363.89999997616,jacket,900,I,m,m,None,515,315.0,200.0,98,1,1945.5999999046326,389418.3000000715,8032,jacket,AF,B,386467,386467,384837,385751,384838,386783,386267,386267,386783,121
117,test,1,con,0,z,Wed May 21 2025 14:00:49 GMT-0500 (Central Daylight Time),393480.2000000477,temper,1100,I,m,m,None,478,278.0,200.0,60,1,2113.0,391367.2000000477,8032,temper,AF,B,388616,388616,386786,387900,386787,388899,388416,388416,388899,122
118,test,1,inc,1,m,Wed May 21 2025 14:00:49 GMT-0500 (Central Daylight Time),395396.2000000477,rage,800,I,m,m,None,573,374.0,199.0,69,1,1912.1000000238419,393484.10000002384,8032,step,AF,B,390432,390432,388903,389716,388903,390815,390233,390233,390815,123
119,test,1,inc,1,m,Wed May 21 2025 14:00:49 GMT-0500 (Central Daylight Time),397579.10000002384,hate,1100,I,m,m,None,534,334.0,200.0,80,1,2179.100000023842,395400.0,8032,rock,AF,B,392648,392648,390819,391932,390819,392998,392448,392448,392998,124
120,test,1,inc,1,z,Wed May 21 2025 14:00:49 GMT-0500 (Central Daylight Time),399678.2000000477,napkin,900,I,z,z,None,632,430.0,202.0,30,1,2095.5,397582.7000000477,8032,friend,AF,B,394664,394664,393002,393914,393002,395097,394462,394462,395097,125
121,test,1,inc,1,m,Wed May 21 2025 14:00:49 GMT-0500 (Central Daylight Time),401710.8000000715,love,1000,I,m,m,None,496,296.0,200.0,87,1,2028.8000000715256,399682.0,8032,bell,AF,B,396830,396830,395101,396114,395101,397130,396630,396630,397130,126
122,test,1,inc,1,z,Wed May 21 2025 14:00:49 GMT-0500 (Central Daylight Time),404059.89999997616,step,800,I,z,z,None,1015,815.0,200.0,45,1,2345.399999976158,401714.5,8032,hate,AF,B,398663,398663,397134,397947,397134,399479,398463,398463,399479,127
123,test,1,inc,1,z,Wed May 21 2025 14:00:49 GMT-0500 (Central Daylight Time),406425.89999997616,window,1100,I,z,z,None,726,526.0,200.0,32,1,2362.5999999046326,404063.3000000715,8032,friend,AF,B,401312,401312,399482,400596,399483,401845,401112,401112,401845,128
