acc_sum,block,block_c,condition,correct,correct_response,datetime,endtime,flanker,jitter,project,response,response_test_buffer_response,response_test_target_response,response_time,response_time_test_buffer_response,response_time_test_target_response,row_sel,session_number,start_end,starttime,subject_id,target,task,task_vers,time_test_buffer,time_test_buffer_response,time_test_constants,time_test_flanker,time_test_jitter,time_test_logger,time_test_target,time_test_target_response,time_test_variables,trial
1,prac,1,inc,1,m,Tue Nov 11 2025 17:56:24 GMT-0600 (Central Standard Time),131682.5,brutal,1100,I,m,,,755,,,8,,3162.199999988079,128520.30000001192,8053,window,AF,A,,,,,,,,,,1
2,prac,1,inc,1,z,Tue Nov 11 2025 17:56:24 GMT-0600 (Central Standard Time),134763.69999998808,window,1100,I,z,,,670,,,16,,3076.100000023842,131687.59999996424,8053,temper,AF,A,,,,,,,,,,2
3,prac,1,con,1,m,Tue Nov 11 2025 17:56:24 GMT-0600 (Central Standard Time),137746.09999996424,remote,1000,I,m,,,680,,,7,,2978.0,134768.09999996424,8053,remote,AF,A,,,,,,,,,,3
4,prac,1,con,1,m,Tue Nov 11 2025 17:56:24 GMT-0600 (Central Standard Time),140512.09999996424,step,800,I,m,,,650,,,1,,2761.599999964237,137750.5,8053,step,AF,A,,,,,,,,,,4
5,prac,1,con,1,z,Tue Nov 11 2025 17:56:24 GMT-0600 (Central Standard Time),143294.59999996424,brutal,800,I,z,,,676,,,13,,2777.899999976158,140516.69999998808,8053,brutal,AF,A,,,,,,,,,,5
6,prac,1,inc,1,z,Tue Nov 11 2025 17:56:24 GMT-0600 (Central Standard Time),146360.09999996424,napkin,1100,I,z,,,665,,,12,,3061.099999964237,143299.0,8053,friend,AF,A,,,,,,,,,,6
7,prac,1,inc,1,m,Tue Nov 11 2025 17:56:24 GMT-0600 (Central Standard Time),149409.19999998808,hate,1100,I,m,,,641,,,4,,3044.300000011921,146364.89999997616,8053,film,AF,A,,,,,,,,,,7
8,prac,1,inc,1,z,Tue Nov 11 2025 17:56:24 GMT-0600 (Central Standard Time),152241.59999996424,rock,900,I,z,,,631,,,10,,2828.199999988079,149413.39999997616,8053,kind,AF,A,,,,,,,,,,8
9,prac,1,con,1,m,Tue Nov 11 2025 17:56:24 GMT-0600 (Central Standard Time),154907.59999996424,jacket,800,I,m,,,562,,,5,,2661.7999999523163,152245.80000001192,8053,jacket,AF,A,,,,,,,,,,9
10,prac,1,con,1,z,Tue Nov 11 2025 17:56:24 GMT-0600 (Central Standard Time),157756.69999998808,elated,800,I,z,,,735,,,9,,2844.399999976158,154912.30000001192,8053,elated,AF,A,,,,,,,,,,10
11,prac,1,inc,1,m,Tue Nov 11 2025 17:56:24 GMT-0600 (Central Standard Time),160639.0,kind,900,I,m,,,623,,,2,,2877.400000035763,157761.59999996424,8053,rock,AF,A,,,,,,,,,,11
12,prac,1,inc,1,z,Tue Nov 11 2025 17:56:24 GMT-0600 (Central Standard Time),163571.19999998808,film,900,I,z,,,722,,,14,,2927.399999976158,160643.80000001192,8053,hate,AF,A,,,,,,,,,,12
13,prac,1,inc,1,m,Tue Nov 11 2025 17:56:24 GMT-0600 (Central Standard Time),166487.19999998808,elated,900,I,m,,,707,,,6,,2912.0,163575.19999998808,8053,napkin,AF,A,,,,,,,,,,13
14,prac,1,con,1,z,Tue Nov 11 2025 17:56:24 GMT-0600 (Central Standard Time),169286.30000001192,love,1000,I,z,,,485,,,11,,2795.0,166491.30000001192,8053,love,AF,A,,,,,,,,,,14
15,prac,1,con,1,z,Tue Nov 11 2025 17:56:24 GMT-0600 (Central Standard Time),172252.19999998808,rage,1000,I,z,,,652,,,15,,2961.699999988079,169290.5,8053,rage,AF,A,,,,,,,,,,15
16,prac,1,con,1,m,Tue Nov 11 2025 17:56:24 GMT-0600 (Central Standard Time),175217.80000001192,bell,1000,I,m,,,656,,,3,,2961.7000000476837,172256.09999996424,8053,bell,AF,A,,,,,,,,,,16
1,test,1,inc,1,z,Tue Nov 11 2025 17:56:24 GMT-0600 (Central Standard Time),187413.69999998808,remote,1000,I,z,z,None,621,421.0,200.0,31,,2162.199999988079,185251.5,8053,friend,AF,A,184562,184562,182832,183846,182833,184995,184362,184362,184995,1
2,test,1,con,1,m,Tue Nov 11 2025 17:56:24 GMT-0600 (Central Standard Time),189546.59999996424,napkin,1100,I,m,m,None,498,298.0,200.0,108,,2128.199999988079,187418.39999997616,8053,napkin,AF,A,186828,186828,184999,186111,185000,187128,186628,186628,187128,2
3,test,1,con,1,m,Tue Nov 11 2025 17:56:24 GMT-0600 (Central Standard Time),191729.39999997616,window,1000,I,m,m,None,640,441.0,199.0,123,,2178.899999976158,189550.5,8053,window,AF,A,188861,188861,187132,188144,187132,189311,188662,188662,189310,3
4,test,1,inc,1,m,Tue Nov 11 2025 17:56:24 GMT-0600 (Central Standard Time),193978.5,love,1000,I,m,m,None,708,508.0,200.0,79,,2244.699999988079,191733.80000001192,8053,rock,AF,A,191043,191043,189315,190327,189315,191560,190843,190843,191559,4
5,test,1,inc,1,m,Tue Nov 11 2025 17:56:24 GMT-0600 (Central Standard Time),196177.59999996424,elated,800,I,m,m,None,864,665.0,199.0,117,,2195.099999964237,193982.5,8053,remote,AF,A,193093,193093,191564,192376,191564,193759,192893,192893,193759,5
6,test,1,inc,1,z,Tue Nov 11 2025 17:56:24 GMT-0600 (Central Standard Time),198360.5,napkin,900,I,z,z,None,742,542.0,200.0,38,,2179.199999988079,196181.30000001192,8053,brutal,AF,A,195392,195392,193762,194676,193763,195942,195192,195192,195941,6
7,test,1,inc,1,z,Tue Nov 11 2025 17:56:24 GMT-0600 (Central Standard Time),200543.30000001192,bell,1000,I,z,z,None,635,436.0,199.0,23,,2178.800000011921,198364.5,8053,love,AF,A,197674,197675,195946,196958,195946,198124,197475,197475,198124,7
8,test,1,con,1,m,Tue Nov 11 2025 17:56:24 GMT-0600 (Central Standard Time),202709.0,napkin,1000,I,m,m,None,629,429.0,200.0,107,,2161.699999988079,200547.30000001192,8053,napkin,AF,A,199857,199857,198128,199142,198129,200290,199657,199657,200290,8
9,test,1,inc,1,z,Tue Nov 11 2025 17:56:24 GMT-0600 (Central Standard Time),204809.0,bell,1000,I,z,z,None,567,367.0,200.0,15,,2095.900000035763,202713.09999996424,8053,kind,AF,A,202023,202023,200294,201307,200294,202390,201823,201823,202390,9
10,test,1,inc,1,z,Tue Nov 11 2025 17:56:24 GMT-0600 (Central Standard Time),206874.69999998808,step,800,I,z,z,None,694,490.0,204.0,21,,2061.600000023842,204813.09999996424,8053,love,AF,A,203957,203957,202394,203206,202394,204456,203753,203753,204456,10
11,test,1,inc,1,z,Tue Nov 11 2025 17:56:24 GMT-0600 (Central Standard Time),208990.5,rock,900,I,z,z,None,677,478.0,199.0,14,,2111.600000023842,206878.89999997616,8053,kind,AF,A,206089,206089,204460,205372,204460,206572,205889,205889,206572,11
12,test,1,con,1,m,Tue Nov 11 2025 17:56:24 GMT-0600 (Central Standard Time),211056.5,remote,800,I,m,m,None,724,525.0,199.0,113,,2061.800000011921,208994.69999998808,8053,remote,AF,A,208105,208105,206576,207388,206576,208638,207905,207905,208637,12
13,test,1,inc,1,m,Tue Nov 11 2025 17:56:24 GMT-0600 (Central Standard Time),213255.89999997616,love,1000,I,m,m,None,658,459.0,199.0,87,,2195.0,211060.89999997616,8053,bell,AF,A,210371,210371,208642,209655,208642,210837,210171,210171,210837,13
14,test,1,con,1,z,Tue Nov 11 2025 17:56:24 GMT-0600 (Central Standard Time),215521.80000001192,temper,1000,I,z,z,None,724,525.0,199.0,59,,2262.0,213259.80000001192,8053,temper,AF,A,212570,212570,210841,211854,210841,213103,212370,212370,213103,14
15,test,1,inc,1,z,Tue Nov 11 2025 17:56:24 GMT-0600 (Central Standard Time),217437.80000001192,step,800,I,z,z,None,577,378.0,199.0,13,,1911.9000000357628,215525.89999997616,8053,kind,AF,A,214636,214636,213107,213920,213107,215019,214436,214436,215019,15
16,test,1,inc,1,m,Tue Nov 11 2025 17:56:24 GMT-0600 (Central Standard Time),219504.0,kind,900,I,m,m,None,626,426.0,200.0,86,,2062.199999988079,217441.80000001192,8053,bell,AF,A,216652,216652,215023,215937,215023,217085,216452,216452,217085,16
17,test,1,con,1,m,Tue Nov 11 2025 17:56:24 GMT-0600 (Central Standard Time),221603.39999997616,film,1000,I,m,m,None,557,357.0,200.0,91,,2095.399999976158,219508.0,8053,film,AF,A,218818,218818,217089,218102,217089,219184,218618,218618,219184,17
18,test,1,inc,1,z,Tue Nov 11 2025 17:56:24 GMT-0600 (Central Standard Time),223586.0,jacket,800,I,z,z,None,641,441.0,200.0,29,,1978.800000011921,221607.19999998808,8053,friend,AF,A,220717,220717,219188,220001,219189,221167,220517,220517,221167,18
19,test,1,inc,1,m,Tue Nov 11 2025 17:56:24 GMT-0600 (Central Standard Time),225835.09999996424,temper,1000,I,m,m,None,707,507.0,200.0,111,,2245.199999988079,223589.89999997616,8053,napkin,AF,A,222900,222900,221171,222183,221171,223416,222700,222700,223416,19
20,test,1,inc,1,z,Tue Nov 11 2025 17:56:24 GMT-0600 (Central Standard Time),228084.59999996424,remote,1000,I,z,z,None,706,506.0,200.0,63,,2245.599999964237,225839.0,8053,temper,AF,A,225149,225149,223420,224433,223420,225666,224949,224949,225666,20
21,test,1,con,1,m,Tue Nov 11 2025 17:56:24 GMT-0600 (Central Standard Time),230433.69999998808,remote,1000,I,m,m,None,702,500.0,202.0,115,,2345.100000023842,228088.59999996424,8053,remote,AF,A,227515,227515,225670,226682,225670,228015,227313,227313,228015,21
22,test,1,con,1,z,Tue Nov 11 2025 17:56:24 GMT-0600 (Central Standard Time),232949.69999998808,temper,1100,I,z,z,None,878,679.0,199.0,60,,2511.399999976158,230438.30000001192,8053,temper,AF,A,229848,229848,228019,229131,228020,230531,229648,229648,230531,22
23,test,1,con,1,z,Tue Nov 11 2025 17:56:24 GMT-0600 (Central Standard Time),235032.39999997616,elated,800,I,z,z,None,742,543.0,199.0,1,,2078.199999988079,232954.19999998808,8053,elated,AF,A,232064,232064,230535,231347,230536,232613,231864,231864,232613,23
24,test,1,inc,1,m,Tue Nov 11 2025 17:56:24 GMT-0600 (Central Standard Time),237131.59999996424,brutal,900,I,m,m,None,662,463.0,199.0,110,,2095.5,235036.09999996424,8053,napkin,AF,A,234246,234247,232617,233530,232617,234713,234047,234047,234713,24
25,test,1,con,1,m,Tue Nov 11 2025 17:56:24 GMT-0600 (Central Standard Time),239130.89999997616,step,800,I,m,m,None,656,457.0,199.0,65,,1995.3999999761581,237135.5,8053,step,AF,A,236246,236246,234717,235529,234717,236712,236046,236046,236712,25
26,test,1,con,1,z,Tue Nov 11 2025 17:56:24 GMT-0600 (Central Standard Time),241080.39999997616,friend,900,I,z,z,None,509,309.0,200.0,26,,1945.5,239134.89999997616,8053,friend,AF,A,238345,238345,236716,237629,236716,238661,238145,238145,238661,26
27,test,1,inc,1,z,Tue Nov 11 2025 17:56:24 GMT-0600 (Central Standard Time),243179.89999997616,jacket,800,I,z,z,None,765,564.0,201.0,5,,2095.5,241084.39999997616,8053,elated,AF,A,240195,240195,238665,239478,238666,240761,239994,239994,240761,27
28,test,1,con,1,m,Tue Nov 11 2025 17:56:24 GMT-0600 (Central Standard Time),245045.89999997616,film,800,I,m,m,None,521,321.0,200.0,89,,1862.0,243183.89999997616,8053,film,AF,A,242294,242294,240765,241577,240765,242627,242094,242094,242627,28
29,test,1,inc,1,z,Tue Nov 11 2025 17:56:24 GMT-0600 (Central Standard Time),246995.39999997616,step,800,I,z,z,None,615,415.0,200.0,45,,1945.8999999761581,245049.5,8053,hate,AF,A,244160,244160,242631,243444,242631,244577,243960,243960,244576,29
30,test,1,inc,1,m,Tue Nov 11 2025 17:56:24 GMT-0600 (Central Standard Time),249078.0,brutal,900,I,m,m,None,638,438.0,200.0,126,,2078.900000035763,246999.09999996424,8053,window,AF,A,246209,246209,244580,245493,244580,246659,246009,246009,246659,30
31,test,1,con,1,m,Tue Nov 11 2025 17:56:24 GMT-0600 (Central Standard Time),251277.09999996424,step,1000,I,m,m,None,662,462.0,200.0,67,,2195.0,249082.09999996424,8053,step,AF,A,248392,248392,246663,247675,246663,248858,248192,248192,248858,31
32,test,1,inc,1,m,Tue Nov 11 2025 17:56:24 GMT-0600 (Central Standard Time),253421.69999998808,rage,800,I,m,m,None,664,465.0,199.0,85,,2140.600000023842,251281.09999996424,8053,bell,AF,A,250391,250391,248862,249675,248862,251003,250192,250192,251003,32
33,test,1,inc,1,z,Tue Nov 11 2025 17:56:24 GMT-0600 (Central Standard Time),255459.0,jacket,800,I,z,z,None,715,515.0,200.0,37,,2032.800000011921,253426.19999998808,8053,brutal,AF,A,252524,252524,251007,251808,251007,253040,252324,252324,253040,33
34,test,1,con,1,z,Tue Nov 11 2025 17:56:24 GMT-0600 (Central Standard Time),257308.69999998808,love,800,I,z,z,None,504,305.0,199.0,17,,1846.1000000238419,255462.59999996424,8053,love,AF,A,254573,254573,253044,253857,253044,254890,254374,254374,254890,34
35,test,1,inc,1,z,Tue Nov 11 2025 17:56:24 GMT-0600 (Central Standard Time),259574.80000001192,remote,1000,I,z,z,None,719,520.0,199.0,39,,2262.400000035763,257312.39999997616,8053,brutal,AF,A,256623,256623,254893,255906,254894,257156,256423,256423,257156,35
36,test,1,con,1,z,Tue Nov 11 2025 17:56:24 GMT-0600 (Central Standard Time),261723.69999998808,rage,900,I,z,z,None,706,506.0,200.0,50,,2145.199999988079,259578.5,8053,rage,AF,A,258789,258789,257160,258072,257160,259305,258589,258589,259305,36
37,test,1,con,1,m,Tue Nov 11 2025 17:56:24 GMT-0600 (Central Standard Time),263906.39999997616,bell,1000,I,m,m,None,640,440.0,200.0,83,,2178.599999964237,261727.80000001192,8053,bell,AF,A,261038,261038,259309,260322,259309,261488,260838,260838,261487,37
38,test,1,con,1,z,Tue Nov 11 2025 17:56:24 GMT-0600 (Central Standard Time),265989.1999999881,hate,900,I,z,z,None,645,446.0,199.0,42,,2079.100000023842,263910.09999996424,8053,hate,AF,A,263121,263121,261491,262404,261491,263570,262921,262921,263570,38
39,test,1,con,1,m,Tue Nov 11 2025 17:56:24 GMT-0600 (Central Standard Time),268038.5,napkin,800,I,m,m,None,702,501.0,201.0,105,,2045.300000011921,265993.1999999881,8053,napkin,AF,A,265105,265105,263574,264387,263574,265620,264903,264903,265620,39
40,test,1,inc,1,m,Tue Nov 11 2025 17:56:24 GMT-0600 (Central Standard Time),270054.5,rage,800,I,m,m,None,670,470.0,200.0,77,,2011.9000000357628,268042.59999996424,8053,rock,AF,A,267153,267153,265624,266436,265624,267636,266953,266953,267636,40
41,test,1,con,1,m,Tue Nov 11 2025 17:56:24 GMT-0600 (Central Standard Time),272287.39999997616,remote,900,I,m,m,None,793,594.0,199.0,114,,2229.300000011921,270058.09999996424,8053,remote,AF,A,269269,269269,267639,268553,267639,269868,269069,269069,269868,41
42,test,1,inc,1,m,Tue Nov 11 2025 17:56:24 GMT-0600 (Central Standard Time),274469.89999997616,friend,1100,I,m,m,None,537,337.0,200.0,128,,2178.5,272291.39999997616,8053,window,AF,A,271702,271702,269872,270985,269873,272051,271502,271502,272051,42
43,test,1,inc,1,z,Tue Nov 11 2025 17:56:24 GMT-0600 (Central Standard Time),276848.8000000119,window,1100,I,z,z,None,746,546.0,200.0,8,,2375.300000011921,274473.5,8053,elated,AF,A,273884,273884,272055,273168,272055,274430,273684,273684,274430,43
44,test,1,con,1,z,Tue Nov 11 2025 17:56:24 GMT-0600 (Central Standard Time),279035.5,love,1000,I,z,z,None,640,441.0,199.0,19,,2182.5,276853.0,8053,love,AF,A,276166,276166,274434,275450,274434,276617,275967,275967,276617,44
45,test,1,con,1,m,Tue Nov 11 2025 17:56:24 GMT-0600 (Central Standard Time),280951.1999999881,jacket,800,I,m,m,None,570,370.0,200.0,97,,1911.8999999761581,279039.3000000119,8053,jacket,AF,A,278149,278149,276620,277433,276621,278532,277949,277949,278532,45
46,test,1,con,1,z,Tue Nov 11 2025 17:56:24 GMT-0600 (Central Standard Time),283250.59999996424,temper,900,I,z,z,None,858,658.0,200.0,58,,2295.699999988079,280954.89999997616,8053,temper,AF,A,280165,280165,278536,279449,278536,280832,279965,279965,280832,46
47,test,1,con,1,m,Tue Nov 11 2025 17:56:24 GMT-0600 (Central Standard Time),285467.3000000119,rock,1100,I,m,m,None,581,381.0,200.0,76,,2212.7000000476837,283254.59999996424,8053,rock,AF,A,282665,282665,280836,281948,280836,283048,282464,282464,283048,47
48,test,1,inc,1,z,Tue Nov 11 2025 17:56:24 GMT-0600 (Central Standard Time),287499.3000000119,jacket,800,I,z,z,None,698,498.0,200.0,61,,2028.1000000238419,285471.1999999881,8053,temper,AF,A,284581,284581,283052,283864,283053,285080,284381,284381,285080,48
49,test,1,inc,1,m,Tue Nov 11 2025 17:56:24 GMT-0600 (Central Standard Time),289448.59999996424,elated,800,I,m,m,None,600,401.0,199.0,101,,1945.699999988079,287502.89999997616,8053,jacket,AF,A,286613,286613,285084,285897,285084,287030,286413,286414,287030,49
50,test,1,con,1,z,Tue Nov 11 2025 17:56:24 GMT-0600 (Central Standard Time),291531.3000000119,brutal,800,I,z,z,None,738,539.0,199.0,33,,2078.900000035763,289452.39999997616,8053,brutal,AF,A,288563,288563,287033,287846,287034,289112,288363,288363,289112,50
51,test,1,con,1,m,Tue Nov 11 2025 17:56:24 GMT-0600 (Central Standard Time),293497.39999997616,window,900,I,m,m,None,515,316.0,199.0,122,,1962.3999999761581,291535.0,8053,window,AF,A,290746,290746,289116,290029,289116,291079,290546,290546,291078,51
52,test,1,inc,1,z,Tue Nov 11 2025 17:56:24 GMT-0600 (Central Standard Time),295830.09999996424,film,1100,I,z,z,None,695,495.0,200.0,48,,2329.0,293501.09999996424,8053,hate,AF,A,292911,292912,291082,292195,291082,293411,292711,292711,293411,52
53,test,1,con,1,z,Tue Nov 11 2025 17:56:24 GMT-0600 (Central Standard Time),297862.8000000119,friend,800,I,z,z,None,687,487.0,200.0,25,,2029.0,295833.8000000119,8053,friend,AF,A,294944,294944,293415,294228,293415,295444,294744,294744,295444,53
54,test,1,inc,1,m,Tue Nov 11 2025 17:56:24 GMT-0600 (Central Standard Time),300145.1999999881,hate,1100,I,m,m,None,648,449.0,199.0,96,,2278.600000023842,297866.59999996424,8053,film,AF,A,297277,297277,295448,296560,295448,297726,297077,297077,297726,54
55,test,1,inc,1,z,Tue Nov 11 2025 17:56:24 GMT-0600 (Central Standard Time),302228.09999996424,step,800,I,z,z,None,739,540.0,199.0,53,,2079.399999976158,300148.6999999881,8053,rage,AF,A,299259,299259,297730,298543,297730,299809,299060,299060,299809,55
56,test,1,con,1,z,Tue Nov 11 2025 17:56:24 GMT-0600 (Central Standard Time),304460.8000000119,brutal,1000,I,z,z,None,696,496.0,200.0,35,,2229.0,302231.8000000119,8053,brutal,AF,A,301542,301542,299813,300826,299813,302042,301342,301342,302042,56
57,test,1,con,1,m,Tue Nov 11 2025 17:56:24 GMT-0600 (Central Standard Time),306676.5,rock,900,I,m,m,None,779,579.0,200.0,74,,2212.100000023842,304464.39999997616,8053,rock,AF,A,303674,303675,302045,302958,302046,304258,303474,303474,304258,57
58,test,1,inc,1,m,Tue Nov 11 2025 17:56:24 GMT-0600 (Central Standard Time),308925.6999999881,love,1000,I,m,m,None,711,512.0,199.0,71,,2245.300000011921,306680.39999997616,8053,step,AF,A,305991,305991,304261,305274,304262,306507,305791,305791,306507,58
59,test,1,inc,1,m,Tue Nov 11 2025 17:56:24 GMT-0600 (Central Standard Time),311241.89999997616,hate,1100,I,m,m,None,675,475.0,200.0,88,,2312.5,308929.39999997616,8053,bell,AF,A,308340,308340,306510,307624,306511,308823,308140,308140,308823,59
60,test,1,inc,1,m,Tue Nov 11 2025 17:56:24 GMT-0600 (Central Standard Time),313357.6999999881,brutal,900,I,m,m,None,671,471.0,200.0,118,,2111.800000011921,311245.89999997616,8053,remote,AF,A,310456,310456,308827,309740,308827,310939,310256,310256,310939,60
61,test,1,con,1,m,Tue Nov 11 2025 17:56:24 GMT-0600 (Central Standard Time),315640.39999997616,film,1100,I,m,m,None,634,434.0,200.0,92,,2279.0,313361.39999997616,8053,film,AF,A,312772,312772,310942,312055,310943,313221,312572,312572,313221,61
62,test,1,con,1,z,Tue Nov 11 2025 17:56:24 GMT-0600 (Central Standard Time),318023.0,temper,800,I,z,z,None,1034,835.0,199.0,57,,2378.199999988079,315644.8000000119,8053,temper,AF,A,314755,314755,313226,314038,313226,315604,314555,314555,315604,62
63,test,1,inc,1,m,Tue Nov 11 2025 17:56:24 GMT-0600 (Central Standard Time),320255.6999999881,love,1000,I,m,m,None,685,485.0,200.0,95,,2229.199999988079,318026.5,8053,film,AF,A,317337,317337,315608,316621,315608,317837,317137,317137,317837,63
64,test,1,inc,1,m,Tue Nov 11 2025 17:56:24 GMT-0600 (Central Standard Time),322388.59999996424,kind,900,I,m,m,None,689,489.0,200.0,78,,2129.199999988079,320259.39999997616,8053,rock,AF,A,319470,319470,317840,318754,317841,319970,319270,319270,319970,64
65,test,1,inc,1,m,Tue Nov 11 2025 17:56:24 GMT-0600 (Central Standard Time),324687.6999999881,temper,1000,I,m,m,None,662,461.0,201.0,127,,2295.300000011921,322392.39999997616,8053,window,AF,A,321802,321802,319973,320986,319974,322269,321601,321601,322269,65
66,test,1,con,1,m,Tue Nov 11 2025 17:56:24 GMT-0600 (Central Standard Time),326837.09999996424,bell,1100,I,m,m,None,512,313.0,199.0,84,,2145.399999976158,324691.6999999881,8053,bell,AF,A,324102,324102,322273,323385,322273,324418,323901,323902,324418,66
67,test,1,con,1,m,Tue Nov 11 2025 17:56:24 GMT-0600 (Central Standard Time),328819.59999996424,bell,800,I,m,m,None,639,439.0,200.0,81,,1978.7999999523163,326840.8000000119,8053,bell,AF,A,325951,325951,324422,325235,324422,326401,325751,325751,326401,67
68,test,1,con,1,m,Tue Nov 11 2025 17:56:24 GMT-0600 (Central Standard Time),330852.39999997616,rock,1000,I,m,m,None,487,288.0,199.0,75,,2029.199999988079,328823.1999999881,8053,rock,AF,A,328134,328134,326404,327417,326404,328433,327934,327934,328433,68
69,test,1,inc,1,m,Tue Nov 11 2025 17:56:24 GMT-0600 (Central Standard Time),332901.6999999881,kind,900,I,m,m,None,612,413.0,199.0,70,,2045.699999988079,330856.0,8053,step,AF,A,330066,330066,328437,329350,328437,330483,329867,329867,330483,69
70,test,1,con,1,m,Tue Nov 11 2025 17:56:24 GMT-0600 (Central Standard Time),335050.8000000119,window,1100,I,m,m,None,515,315.0,200.0,124,,2145.5,332905.3000000119,8053,window,AF,A,332316,332316,330486,331599,330486,332632,332116,332116,332632,70
71,test,1,con,1,z,Tue Nov 11 2025 17:56:24 GMT-0600 (Central Standard Time),337233.59999996424,friend,1100,I,z,z,None,549,349.0,200.0,28,,2179.199999988079,335054.39999997616,8053,friend,AF,A,334465,334465,332635,333749,332636,334815,334265,334265,334815,71
72,test,1,con,1,m,Tue Nov 11 2025 17:56:24 GMT-0600 (Central Standard Time),339316.39999997616,jacket,900,I,m,m,None,645,446.0,199.0,98,,2079.099999964237,337237.3000000119,8053,jacket,AF,A,336448,336448,334818,335731,334819,336897,336248,336248,336897,72
73,test,1,con,1,z,Tue Nov 11 2025 17:56:24 GMT-0600 (Central Standard Time),341549.09999996424,elated,1100,I,z,z,None,588,388.0,200.0,4,,2229.099999964237,339320.0,8053,elated,AF,A,338730,338730,336901,338014,336901,339130,338530,338530,339130,73
74,test,1,con,1,m,Tue Nov 11 2025 17:56:24 GMT-0600 (Central Standard Time),344048.1999999881,jacket,1000,I,m,m,None,959,759.0,200.0,99,,2495.600000023842,341552.59999996424,8053,jacket,AF,A,340863,340863,339134,340147,339134,341629,340663,340663,341629,74
75,test,1,con,1,z,Tue Nov 11 2025 17:56:24 GMT-0600 (Central Standard Time),346164.5,love,1100,I,z,z,None,473,273.0,200.0,20,,2112.699999988079,344051.8000000119,8053,love,AF,A,343462,343462,341633,342746,341633,343746,343262,343262,343746,75
76,test,1,con,1,z,Tue Nov 11 2025 17:56:24 GMT-0600 (Central Standard Time),348213.59999996424,hate,1000,I,z,z,None,462,255.0,207.0,43,,2045.3999999761581,346168.1999999881,8053,hate,AF,A,345528,345528,343749,344762,343749,345795,345321,345321,345795,76
77,test,1,con,1,m,Tue Nov 11 2025 17:56:24 GMT-0600 (Central Standard Time),350462.6999999881,remote,1100,I,m,m,None,602,403.0,199.0,116,,2245.0,348217.6999999881,8053,remote,AF,A,347628,347628,345799,346911,345799,348044,347428,347428,348044,77
78,test,1,inc,1,m,Tue Nov 11 2025 17:56:24 GMT-0600 (Central Standard Time),352745.3000000119,temper,1000,I,m,m,None,749,549.0,200.0,119,,2278.800000011921,350466.5,8053,remote,AF,A,349777,349777,348048,349060,348048,350326,349577,349577,350326,78
79,test,1,con,1,z,Tue Nov 11 2025 17:56:24 GMT-0600 (Central Standard Time),354711.8000000119,hate,800,I,z,z,None,618,419.0,199.0,41,,1962.9000000357628,352748.89999997616,8053,hate,AF,A,351860,351860,350330,351143,350330,352293,351660,351660,352293,79
80,test,1,con,1,z,Tue Nov 11 2025 17:56:24 GMT-0600 (Central Standard Time),356877.39999997616,brutal,900,I,z,z,None,727,528.0,199.0,34,,2162.099999964237,354715.3000000119,8053,brutal,AF,A,353926,353926,352296,353209,352297,354459,353726,353726,354458,80
81,test,1,inc,1,z,Tue Nov 11 2025 17:56:24 GMT-0600 (Central Standard Time),359177.09999996424,window,1100,I,z,z,None,649,450.0,199.0,40,,2295.699999988079,356881.39999997616,8053,brutal,AF,A,356292,356292,354462,355575,354463,356758,356092,356092,356758,81
82,test,1,con,1,z,Tue Nov 11 2025 17:56:24 GMT-0600 (Central Standard Time),361726.1999999881,rage,1000,I,z,z,None,1004,804.0,200.0,51,,2545.199999988079,359181.0,8053,rage,AF,A,358491,358491,356762,357774,356762,359307,358291,358291,359307,82
83,test,1,inc,1,m,Tue Nov 11 2025 17:56:24 GMT-0600 (Central Standard Time),363742.09999996424,elated,800,I,m,m,None,671,471.0,200.0,109,,2012.3999999761581,361729.6999999881,8053,napkin,AF,A,360840,360840,359311,360124,359311,361323,360640,360640,361323,83
84,test,1,con,1,z,Tue Nov 11 2025 17:56:24 GMT-0600 (Central Standard Time),365574.5,rage,800,I,z,z,None,486,286.0,200.0,49,,1828.1000000238419,363746.39999997616,8053,rage,AF,A,362856,362856,361327,362140,361328,363156,362656,362656,363156,84
85,test,1,inc,1,z,Tue Nov 11 2025 17:56:24 GMT-0600 (Central Standard Time),367691.0,napkin,900,I,z,z,None,674,474.0,200.0,6,,2112.5,365578.5,8053,elated,AF,A,364789,364789,363160,364073,363160,365272,364589,364589,365272,85
86,test,1,inc,1,z,Tue Nov 11 2025 17:56:24 GMT-0600 (Central Standard Time),369840.0,remote,1000,I,z,z,None,600,401.0,199.0,7,,2145.300000011921,367694.6999999881,8053,elated,AF,A,367005,367005,365276,366288,365276,367421,366805,366805,367421,86
87,test,1,inc,1,z,Tue Nov 11 2025 17:56:24 GMT-0600 (Central Standard Time),372122.89999997616,film,1100,I,z,z,None,640,440.0,200.0,56,,2279.099999964237,369843.8000000119,8053,rage,AF,A,369254,369254,367425,368538,367425,369704,369054,369054,369704,87
88,test,1,con,1,z,Tue Nov 11 2025 17:56:24 GMT-0600 (Central Standard Time),374305.3000000119,hate,1100,I,z,z,None,542,342.0,200.0,44,,2178.2000000476837,372127.09999996424,8053,hate,AF,A,371537,371537,369708,370820,369708,371886,371337,371337,371886,88
89,test,1,con,1,m,Tue Nov 11 2025 17:56:24 GMT-0600 (Central Standard Time),376421.5,film,900,I,m,m,None,669,470.0,199.0,90,,2112.199999988079,374309.3000000119,8053,film,AF,A,373520,373520,371890,372803,371890,374003,373320,373320,374002,89
90,test,1,inc,1,z,Tue Nov 11 2025 17:56:24 GMT-0600 (Central Standard Time),378520.89999997616,bell,1000,I,z,z,None,551,351.0,200.0,47,,2095.899999976158,376425.0,8053,hate,AF,A,375735,375735,374006,375019,374006,376102,375535,375535,376102,90
91,test,1,con,1,m,Tue Nov 11 2025 17:56:24 GMT-0600 (Central Standard Time),380436.89999997616,rock,800,I,m,m,None,581,381.0,200.0,73,,1912.5999999642372,378524.3000000119,8053,rock,AF,A,377634,377634,376105,376918,376106,378018,377434,377434,378018,91
92,test,1,con,1,z,Tue Nov 11 2025 17:56:24 GMT-0600 (Central Standard Time),382569.39999997616,rage,1100,I,z,z,None,498,299.0,199.0,52,,2128.5,380440.89999997616,8053,rage,AF,A,379851,379851,378022,379134,378022,380151,379651,379651,380150,92
93,test,1,inc,1,m,Tue Nov 11 2025 17:56:24 GMT-0600 (Central Standard Time),384952.09999996424,friend,1100,I,m,m,None,733,533.0,200.0,104,,2378.7999999523163,382573.3000000119,8053,jacket,AF,A,381985,381985,380154,381267,380155,382533,381784,381784,382533,93
94,test,1,inc,1,z,Tue Nov 11 2025 17:56:24 GMT-0600 (Central Standard Time),386968.39999997616,rock,900,I,z,z,None,577,377.0,200.0,22,,2012.5999999642372,384955.8000000119,8053,love,AF,A,384166,384166,382537,383450,382537,384549,383966,383966,384549,94
95,test,1,con,1,m,Tue Nov 11 2025 17:56:24 GMT-0600 (Central Standard Time),389051.0,bell,900,I,m,m,None,641,441.0,200.0,82,,2078.400000035763,386972.59999996424,8053,bell,AF,A,386182,386182,384554,385466,384554,386632,385982,385982,386632,95
96,test,1,con,1,z,Tue Nov 11 2025 17:56:24 GMT-0600 (Central Standard Time),391050.39999997616,love,900,I,z,z,None,574,375.0,199.0,18,,1995.800000011921,389054.59999996424,8053,love,AF,A,388248,388248,386636,387548,386636,388631,388049,388049,388631,96
97,test,1,con,1,z,Tue Nov 11 2025 17:56:24 GMT-0600 (Central Standard Time),393132.89999997616,kind,900,I,z,z,None,647,447.0,200.0,10,,2078.399999976158,391054.5,8053,kind,AF,A,390264,390264,388636,389548,388636,390714,390064,390064,390714,97
98,test,1,con,1,m,Tue Nov 11 2025 17:56:24 GMT-0600 (Central Standard Time),395015.39999997616,window,800,I,m,m,None,543,281.0,262.0,121,,1878.8999999761581,393136.5,8053,window,AF,A,392310,392310,390718,391531,390718,392597,392048,392048,392596,98
99,test,1,inc,1,z,Tue Nov 11 2025 17:56:24 GMT-0600 (Central Standard Time),397165.1999999881,film,1100,I,z,z,None,504,305.0,199.0,24,,2146.0,395019.1999999881,8053,love,AF,A,394430,394430,392600,393713,392601,394746,394230,394230,394746,99
99,test,1,con,0,z,Tue Nov 11 2025 17:56:24 GMT-0600 (Central Standard Time),399397.5,brutal,1100,I,m,m,None,587,387.0,200.0,36,,2228.699999988079,397168.8000000119,8053,brutal,AF,A,396579,396579,394750,395862,394750,396979,396379,396379,396979,100
100,test,1,inc,1,z,Tue Nov 11 2025 17:56:24 GMT-0600 (Central Standard Time),401713.89999997616,window,1100,I,z,z,None,665,466.0,199.0,32,,2312.699999988079,399401.1999999881,8053,friend,AF,A,398812,398812,396982,398095,396982,399295,398612,398612,399295,101
101,test,1,con,1,m,Tue Nov 11 2025 17:56:24 GMT-0600 (Central Standard Time),403996.09999996424,step,1100,I,m,m,None,639,439.0,200.0,68,,2278.099999964237,401718.0,8053,step,AF,A,401127,401127,399299,400411,399299,401577,400927,400927,401577,102
102,test,1,inc,1,z,Tue Nov 11 2025 17:56:24 GMT-0600 (Central Standard Time),406095.6999999881,rock,900,I,z,z,None,661,461.0,200.0,46,,2095.699999988079,404000.0,8053,hate,AF,A,403210,403210,401581,402494,401581,403677,403010,403010,403677,103
103,test,1,inc,1,z,Tue Nov 11 2025 17:56:24 GMT-0600 (Central Standard Time),408544.59999996424,window,1100,I,z,z,None,809,610.0,199.0,64,,2445.099999964237,406099.5,8053,temper,AF,A,405509,405509,403681,404793,403681,406126,405310,405310,406126,104
104,test,1,con,1,z,Tue Nov 11 2025 17:56:24 GMT-0600 (Central Standard Time),410677.5,kind,1000,I,z,z,None,595,395.0,200.0,11,,2129.100000023842,408548.39999997616,8053,kind,AF,A,407859,407859,406129,407142,406130,408259,407659,407659,408259,105
105,test,1,inc,1,m,Tue Nov 11 2025 17:56:24 GMT-0600 (Central Standard Time),412859.8000000119,temper,1000,I,m,m,None,647,448.0,199.0,103,,2178.5,410681.3000000119,8053,jacket,AF,A,409991,409991,408262,409275,408263,410441,409792,409792,410441,106
106,test,1,con,1,z,Tue Nov 11 2025 17:56:24 GMT-0600 (Central Standard Time),415009.3000000119,elated,1000,I,z,z,None,616,416.0,200.0,3,,2145.800000011921,412863.5,8053,elated,AF,A,412174,412174,410445,411457,410445,412590,411974,411974,412590,107
107,test,1,con,1,m,Tue Nov 11 2025 17:56:24 GMT-0600 (Central Standard Time),417008.6999999881,napkin,900,I,m,m,None,560,360.0,200.0,106,,1995.699999988079,415013.0,8053,napkin,AF,A,414223,414223,412594,413507,412594,414590,414023,414023,414590,108
108,test,1,inc,1,m,Tue Nov 11 2025 17:56:24 GMT-0600 (Central Standard Time),419324.59999996424,hate,1100,I,m,m,None,671,471.0,200.0,72,,2311.699999988079,417012.89999997616,8053,step,AF,A,416423,416423,414594,415706,414594,416906,416223,416223,416906,109
109,test,1,inc,1,z,Tue Nov 11 2025 17:56:24 GMT-0600 (Central Standard Time),421524.1999999881,napkin,900,I,z,z,None,755,556.0,199.0,62,,2195.699999988079,419328.5,8053,temper,AF,A,418539,418539,416910,417822,416910,419105,418339,418339,419105,110
110,test,1,inc,1,z,Tue Nov 11 2025 17:56:24 GMT-0600 (Central Standard Time),423790.0,bell,1000,I,z,z,None,729,528.0,201.0,55,,2261.900000035763,421528.09999996424,8053,rage,AF,A,420839,420839,419109,420121,419109,421371,420638,420638,421371,111
111,test,1,inc,1,m,Tue Nov 11 2025 17:56:24 GMT-0600 (Central Standard Time),426155.5,friend,1100,I,m,m,None,730,530.0,200.0,112,,2361.300000011921,423794.1999999881,8053,napkin,AF,A,423204,423204,421375,422487,421375,423737,423004,423004,423737,112
112,test,1,inc,1,m,Tue Nov 11 2025 17:56:24 GMT-0600 (Central Standard Time),428321.6999999881,kind,900,I,m,m,None,724,524.0,200.0,94,,2162.5,426159.1999999881,8053,film,AF,A,425370,425370,423740,424654,423740,425903,425170,425170,425903,113
113,test,1,con,1,z,Tue Nov 11 2025 17:56:24 GMT-0600 (Central Standard Time),430654.1999999881,kind,1100,I,z,z,None,686,486.0,200.0,12,,2328.899999976158,428325.3000000119,8053,kind,AF,A,427735,427736,425906,427019,425906,428235,427535,427535,428235,114
114,test,1,inc,1,m,Tue Nov 11 2025 17:56:24 GMT-0600 (Central Standard Time),432686.89999997616,rage,800,I,m,m,None,694,494.0,200.0,69,,2029.0999999642372,430657.8000000119,8053,step,AF,A,429768,429768,428239,429052,428239,430268,429568,429568,430268,115
115,test,1,inc,1,m,Tue Nov 11 2025 17:56:24 GMT-0600 (Central Standard Time),434769.59999996424,elated,800,I,m,m,None,749,549.0,200.0,125,,2078.599999964237,432691.0,8053,window,AF,A,431801,431801,430272,431084,430272,432351,431601,431601,432351,116
116,test,1,inc,1,m,Tue Nov 11 2025 17:56:24 GMT-0600 (Central Standard Time),437185.39999997616,friend,1100,I,m,m,None,774,575.0,199.0,120,,2411.800000011921,434773.59999996424,8053,remote,AF,A,434183,434183,432355,433467,432355,434766,433984,433984,434766,117
117,test,1,inc,1,m,Tue Nov 11 2025 17:56:24 GMT-0600 (Central Standard Time),439301.3000000119,brutal,900,I,m,m,None,678,479.0,199.0,102,,2112.400000035763,437188.89999997616,8053,jacket,AF,A,436399,436399,434770,435683,434770,436882,436200,436200,436882,118
118,test,1,inc,1,m,Tue Nov 11 2025 17:56:24 GMT-0600 (Central Standard Time),441534.0,hate,1100,I,m,m,None,587,387.0,200.0,80,,2229.199999988079,439304.8000000119,8053,rock,AF,A,438715,438715,436886,437999,436886,439115,438515,438515,439115,119
119,test,1,con,1,z,Tue Nov 11 2025 17:56:24 GMT-0600 (Central Standard Time),443666.6999999881,kind,800,I,z,z,None,798,598.0,200.0,9,,2128.800000011921,441537.89999997616,8053,kind,AF,A,440648,440648,439119,439932,439119,441248,440448,440448,441248,120
120,test,1,inc,1,z,Tue Nov 11 2025 17:56:24 GMT-0600 (Central Standard Time),445799.3000000119,rock,900,I,z,z,None,693,493.0,200.0,54,,2128.900000035763,443670.39999997616,8053,rage,AF,A,442881,442881,441251,442164,441252,443380,442681,442681,443380,121
121,test,1,con,1,z,Tue Nov 11 2025 17:56:24 GMT-0600 (Central Standard Time),447865.39999997616,friend,1000,I,z,z,None,532,333.0,199.0,27,,2062.300000011921,445803.09999996424,8053,friend,AF,A,445113,445113,443384,444397,443384,445446,444913,444914,445446,122
122,test,1,inc,1,m,Tue Nov 11 2025 17:56:24 GMT-0600 (Central Standard Time),449948.09999996424,rage,800,I,m,m,None,736,522.0,214.0,93,,2079.099999964237,447869.0,8053,film,AF,A,446996,446996,445450,446263,445450,447529,446782,446782,447529,123
123,test,1,con,1,z,Tue Nov 11 2025 17:56:24 GMT-0600 (Central Standard Time),451997.39999997616,elated,900,I,z,z,None,604,404.0,200.0,2,,2045.3999999761581,449952.0,8053,elated,AF,A,449162,449162,447533,448447,447533,449578,448962,448962,449578,124
124,test,1,inc,1,z,Tue Nov 11 2025 17:56:24 GMT-0600 (Central Standard Time),454213.59999996424,napkin,900,I,z,z,None,769,570.0,199.0,30,,2212.5,452001.09999996424,8053,friend,AF,A,451212,451212,449582,450495,449582,451795,451012,451012,451795,125
125,test,1,con,1,m,Tue Nov 11 2025 17:56:24 GMT-0600 (Central Standard Time),456429.39999997616,step,900,I,m,m,None,777,578.0,199.0,66,,2211.899999976158,454217.5,8053,step,AF,A,453428,453428,451798,452711,451799,454011,453228,453228,454010,126
126,test,1,inc,1,z,Tue Nov 11 2025 17:56:24 GMT-0600 (Central Standard Time),458645.1999999881,film,1100,I,z,z,None,571,371.0,200.0,16,,2211.5,456433.6999999881,8053,kind,AF,A,455843,455843,454015,455127,454015,456226,455643,455643,456226,127
127,test,1,con,1,m,Tue Nov 11 2025 17:56:24 GMT-0600 (Central Standard Time),460911.3000000119,jacket,1100,I,m,m,None,627,427.0,200.0,100,,2262.400000035763,458648.89999997616,8053,jacket,AF,A,458059,458059,456230,457343,456230,458492,457859,457859,458492,128
