Q,Q1,Q2,Q3,Q4,acc_sum,block,block_c,correct,correct_response,datetime,endtime,project,response,response_time,row_sel,session_number,squiggle1,squiggle1x,squiggle1y,squiggle2,squiggle2x,squiggle2y,squiggle3,squiggle3x,squiggle3y,squiggle4,squiggle4x,squiggle4y,start_end,starttime,subject_id,target_congruent,task,task_vers,testsquiggle,testsquigglex,testsquiggley,time_practice_delay,time_practice_fixation,time_practice_stimuli,time_practice_study,time_test_delay,time_test_fixation,time_test_stimuli,time_test_study,trial
1,1,0,0,0,0,prac,1,0,z,Wed Jul 02 2025 14:36:58 GMT-0500 (Central Daylight Time),144448.89999997616,I,None,2014,1,1,116.bmp,-120,-120,117.bmp,120,-120,118.bmp,-120,120,119.bmp,120,120,10807.299999982119,133641.59999999404,8056,yes,SM,A,116.bmp,-120,-120,137214,131190,139216,133201,,,,,1
3,0,0,1,0,0,prac,1,0,m,Wed Jul 02 2025 14:36:58 GMT-0500 (Central Daylight Time),154427.69999998808,I,z,1148,2,1,120.bmp,-120,-120,121.bmp,120,-120,122.bmp,-120,120,123.bmp,120,120,9974.09999999404,144453.59999999404,8056,no,SM,A,123.bmp,-120,120,148029,142002,150046,144014,,,,,2
4,0,0,0,1,1,prac,1,1,m,Wed Jul 02 2025 14:36:58 GMT-0500 (Central Daylight Time),164875.09999999404,I,m,1633,3,1,124.bmp,-120,-120,125.bmp,120,-120,126.bmp,-120,120,127.bmp,120,120,10442.09999999404,154433.0,8056,no,SM,A,124.bmp,120,120,158009,151981,160024,153992,,,,,3
2,0,1,0,0,1,prac,1,0,z,Wed Jul 02 2025 14:36:58 GMT-0500 (Central Daylight Time),175003.59999999404,I,m,1311,4,1,128.bmp,-120,-120,129.bmp,120,-120,130.bmp,-120,120,131.bmp,120,120,10124.700000017881,164878.89999997616,8056,yes,SM,A,129.bmp,120,-120,168455,162427,170472,164440,,,,,4
3,0,0,1,0,1,prac,1,0,z,Wed Jul 02 2025 14:36:58 GMT-0500 (Central Daylight Time),185500.79999998212,I,m,1685,5,1,132.bmp,-120,-120,133.bmp,120,-120,134.bmp,-120,120,135.bmp,120,120,10494.09999999404,175006.69999998808,8056,yes,SM,A,134.bmp,-120,120,178583,172555,180585,174569,,,,,5
1,1,0,0,0,2,prac,1,1,m,Wed Jul 02 2025 14:36:58 GMT-0500 (Central Daylight Time),195681.79999998212,I,m,1366,6,1,136.bmp,-120,-120,137.bmp,120,-120,138.bmp,-120,120,139.bmp,120,120,10175.5,185506.29999998212,8056,no,SM,A,139.bmp,-120,-120,189082,183054,191098,185066,,,,,6
2,0,1,0,0,3,prac,1,1,m,Wed Jul 02 2025 14:36:58 GMT-0500 (Central Daylight Time),206464.79999998212,I,m,1960,7,1,140.bmp,-120,-120,141.bmp,120,-120,142.bmp,-120,120,143.bmp,120,120,10778.0,195686.79999998212,8056,no,SM,A,140.bmp,120,-120,199262,193235,201277,195246,,,,,7
4,0,0,0,1,4,prac,1,1,z,Wed Jul 02 2025 14:36:58 GMT-0500 (Central Daylight Time),216658.09999999404,I,z,1367,8,1,144.bmp,-120,-120,145.bmp,120,-120,146.bmp,-120,120,147.bmp,120,120,10190.09999999404,206468.0,8056,yes,SM,A,147.bmp,120,120,210041,204016,212057,206025,,,,,8
4,0,0,0,1,1,test,1,1,m,Wed Jul 02 2025 14:36:58 GMT-0500 (Central Daylight Time),237135.89999997616,I,m,1945,1,1,148.bmp,-120,-120,149.bmp,120,-120,150.bmp,-120,120,143.bmp,120,120,9994.699999988079,227141.19999998808,8056,no,SM,A,150.bmp,120,120,210041,204016,212057,206025,230720.0,224689.0,232733.0,226704.0,1
2,0,1,0,0,2,test,1,1,m,Wed Jul 02 2025 14:36:58 GMT-0500 (Central Daylight Time),246798.59999999404,I,m,1601,2,1,101.bmp,-120,-120,102.bmp,120,-120,103.bmp,-120,120,104.bmp,120,120,9658.800000011921,237139.79999998212,8056,no,SM,A,103.bmp,120,-120,210041,204016,212057,206025,240716.0,234688.0,242733.0,236700.0,2
1,1,0,0,0,3,test,1,1,z,Wed Jul 02 2025 14:36:58 GMT-0500 (Central Daylight Time),256295.89999997616,I,z,1443,3,1,105.bmp,-120,-120,106.bmp,120,-120,107.bmp,-120,120,108.bmp,120,120,9494.5,246801.39999997616,8056,yes,SM,A,105.bmp,-120,-120,210041,204016,212057,206025,250378.0,244350.0,252396.0,246364.0,3
3,0,0,1,0,3,test,1,0,m,Wed Jul 02 2025 14:36:58 GMT-0500 (Central Daylight Time),265975.2999999821,I,z,1624,4,1,109.bmp,-120,-120,110.bmp,120,-120,111.bmp,-120,120,112.bmp,120,120,9675.09999999404,256300.19999998808,8056,no,SM,A,109.bmp,-120,120,210041,204016,212057,206025,259876.0,253848.0,261895.0,255861.0,4
2,0,1,0,0,3,test,1,0,z,Wed Jul 02 2025 14:36:58 GMT-0500 (Central Daylight Time),275572.59999999404,I,m,1536,5,1,113.bmp,-120,-120,114.bmp,120,-120,115.bmp,-120,120,116.bmp,120,120,9593.09999999404,265979.5,8056,yes,SM,A,114.bmp,120,-120,210041,204016,212057,206025,269556.0,263528.0,271574.0,265541.0,5
3,0,0,1,0,3,test,1,0,z,Wed Jul 02 2025 14:36:58 GMT-0500 (Central Daylight Time),285635.6999999881,I,None,2015,6,1,117.bmp,-120,-120,118.bmp,120,-120,119.bmp,-120,120,120.bmp,120,120,10059.199999988079,275576.5,8056,yes,SM,A,119.bmp,-120,120,210041,204016,212057,206025,279152.0,273125.0,281169.0,275138.0,6
4,0,0,0,1,4,test,1,1,z,Wed Jul 02 2025 14:36:58 GMT-0500 (Central Daylight Time),294750.7999999821,I,z,1047,7,1,121.bmp,-120,-120,122.bmp,120,-120,123.bmp,-120,120,124.bmp,120,120,9111.09999999404,285639.6999999881,8056,yes,SM,A,124.bmp,120,120,210041,204016,212057,206025,289217.0,283188.0,291234.0,285200.0,7
2,0,1,0,0,5,test,1,1,m,Wed Jul 02 2025 14:36:58 GMT-0500 (Central Daylight Time),303947.2999999821,I,m,1133,8,1,125.bmp,-120,-120,126.bmp,120,-120,127.bmp,-120,120,128.bmp,120,120,9192.799999982119,294754.5,8056,no,SM,A,125.bmp,120,-120,210041,204016,212057,206025,298333.0,292303.0,300346.0,294314.0,8
3,0,0,1,0,5,test,1,0,m,Wed Jul 02 2025 14:36:58 GMT-0500 (Central Daylight Time),313660.0,I,z,1664,9,1,129.bmp,-120,-120,130.bmp,120,-120,131.bmp,-120,120,132.bmp,120,120,9709.300000011921,303950.6999999881,8056,no,SM,A,130.bmp,-120,120,210041,204016,212057,206025,307528.0,301499.0,309543.0,303512.0,9
4,0,0,0,1,5,test,1,0,z,Wed Jul 02 2025 14:36:58 GMT-0500 (Central Daylight Time),323723.0,I,None,2013,10,1,137.bmp,-120,-120,138.bmp,120,-120,139.bmp,-120,120,140.bmp,120,120,10058.40000000596,313664.59999999404,8056,yes,SM,A,140.bmp,120,120,210041,204016,212057,206025,317240.0,311213.0,319258.0,313225.0,10
3,0,0,1,0,6,test,1,1,z,Wed Jul 02 2025 14:36:58 GMT-0500 (Central Daylight Time),332971.6999999881,I,z,1189,11,1,133.bmp,-120,-120,134.bmp,120,-120,135.bmp,-120,120,136.bmp,120,120,9246.199999988079,323725.5,8056,yes,SM,A,135.bmp,-120,120,210041,204016,212057,206025,327306.0,321274.0,329321.0,323290.0,11
2,0,1,0,0,7,test,1,1,m,Wed Jul 02 2025 14:36:58 GMT-0500 (Central Daylight Time),342284.09999999404,I,m,1263,12,1,141.bmp,-120,-120,142.bmp,120,-120,143.bmp,-120,120,144.bmp,120,120,9308.90000000596,332975.1999999881,8056,no,SM,A,141.bmp,120,-120,210041,204016,212057,206025,336553.0,330523.0,338568.0,332536.0,12
3,0,0,1,0,8,test,1,1,m,Wed Jul 02 2025 14:36:58 GMT-0500 (Central Daylight Time),352084.39999997616,I,m,1783,13,1,145.bmp,-120,-120,146.bmp,120,-120,147.bmp,-120,120,148.bmp,120,120,9793.399999976158,342291.0,8056,no,SM,A,146.bmp,-120,120,210041,204016,212057,206025,345848.0,339839.0,347849.0,341847.0,13
1,1,0,0,0,9,test,1,1,z,Wed Jul 02 2025 14:36:58 GMT-0500 (Central Daylight Time),361278.59999999404,I,z,1144,14,1,149.bmp,-120,-120,150.bmp,120,-120,104.bmp,-120,120,101.bmp,120,120,9186.800000011921,352091.7999999821,8056,yes,SM,A,149.bmp,-120,-120,210041,204016,212057,206025,355662.0,349640.0,357679.0,351647.0,14
4,0,0,0,1,10,test,1,1,m,Wed Jul 02 2025 14:36:58 GMT-0500 (Central Daylight Time),370493.59999999404,I,m,1163,15,1,110.bmp,-120,-120,111.bmp,120,-120,112.bmp,-120,120,113.bmp,120,120,9209.40000000596,361284.1999999881,8056,no,SM,A,111.bmp,120,120,210041,204016,212057,206025,364859.0,358832.0,366876.0,360844.0,15
1,1,0,0,0,11,test,1,1,m,Wed Jul 02 2025 14:36:58 GMT-0500 (Central Daylight Time),379707.0,I,m,1157,16,1,102.bmp,-120,-120,103.bmp,120,-120,104.bmp,-120,120,105.bmp,120,120,9209.0,370498.0,8056,no,SM,A,105.bmp,-120,-120,210041,204016,212057,206025,374072.0,368046.0,376090.0,370057.0,16
3,0,0,1,0,12,test,1,1,m,Wed Jul 02 2025 14:36:58 GMT-0500 (Central Daylight Time),388605.1999999881,I,m,849,17,1,122.bmp,-120,-120,123.bmp,120,-120,124.bmp,-120,120,125.bmp,120,120,8888.09999999404,379717.09999999404,8056,no,SM,A,122.bmp,-120,120,210041,204016,212057,206025,383287.0,377265.0,385303.0,379271.0,17
1,1,0,0,0,12,test,1,0,z,Wed Jul 02 2025 14:36:58 GMT-0500 (Central Daylight Time),398666.6999999881,I,None,2015,18,1,106.bmp,-120,-120,107.bmp,120,-120,108.bmp,-120,120,109.bmp,120,120,10057.699999988079,388609.0,8056,yes,SM,A,106.bmp,-120,-120,210041,204016,212057,206025,392184.0,386157.0,394200.0,388169.0,18
2,0,1,0,0,13,test,1,1,z,Wed Jul 02 2025 14:36:58 GMT-0500 (Central Daylight Time),408030.59999999404,I,z,1302,19,1,126.bmp,-120,-120,127.bmp,120,-120,128.bmp,-120,120,129.bmp,120,120,9358.700000017881,398671.89999997616,8056,yes,SM,A,127.bmp,120,-120,210041,204016,212057,206025,402247.0,396220.0,404264.0,398231.0,19
3,0,0,1,0,14,test,1,1,z,Wed Jul 02 2025 14:36:58 GMT-0500 (Central Daylight Time),417577.39999997616,I,z,1492,20,1,130.bmp,-120,-120,131.bmp,120,-120,132.bmp,-120,120,133.bmp,120,120,9543.09999999404,408034.2999999821,8056,yes,SM,A,132.bmp,-120,120,210041,204016,212057,206025,411611.0,405582.0,413627.0,407596.0,20
1,1,0,0,0,14,test,1,0,m,Wed Jul 02 2025 14:36:58 GMT-0500 (Central Daylight Time),427457.89999997616,I,z,1825,21,1,114.bmp,-120,-120,115.bmp,120,-120,116.bmp,-120,120,117.bmp,120,120,9876.799999982119,417581.09999999404,8056,no,SM,A,116.bmp,-120,-120,210041,204016,212057,206025,421157.0,415129.0,423174.0,417142.0,21
4,0,0,0,1,14,test,1,0,z,Wed Jul 02 2025 14:36:58 GMT-0500 (Central Daylight Time),437321.6999999881,I,m,1808,22,1,118.bmp,-120,-120,119.bmp,120,-120,120.bmp,-120,120,121.bmp,120,120,9860.699999988079,427461.0,8056,yes,SM,A,121.bmp,120,120,210041,204016,212057,206025,431038.0,425009.0,433054.0,427023.0,22
1,1,0,0,0,15,test,1,1,m,Wed Jul 02 2025 14:36:58 GMT-0500 (Central Daylight Time),446568.0,I,m,1192,23,1,134.bmp,-120,-120,135.bmp,120,-120,136.bmp,-120,120,137.bmp,120,120,9243.5,437324.5,8056,no,SM,A,137.bmp,-120,-120,210041,204016,212057,206025,440902.0,434873.0,442918.0,436886.0,23
2,0,1,0,0,16,test,1,1,z,Wed Jul 02 2025 14:36:58 GMT-0500 (Central Daylight Time),456298.7999999821,I,z,1675,24,1,142.bmp,-120,-120,143.bmp,120,-120,144.bmp,-120,120,145.bmp,120,120,9727.199999988079,446571.59999999404,8056,yes,SM,A,143.bmp,120,-120,210041,204016,212057,206025,450149.0,444120.0,452164.0,446133.0,24
4,0,0,0,1,17,test,1,1,m,Wed Jul 02 2025 14:36:58 GMT-0500 (Central Daylight Time),465411.1999999881,I,m,1063,25,1,146.bmp,-120,-120,147.bmp,120,-120,148.bmp,-120,120,149.bmp,120,120,9109.09999999404,456302.09999999404,8056,no,SM,A,148.bmp,120,120,210041,204016,212057,206025,459880.0,453850.0,461895.0,455863.0,25
1,1,0,0,0,17,test,1,0,z,Wed Jul 02 2025 14:36:58 GMT-0500 (Central Daylight Time),475475.1999999881,I,None,2013,26,1,138.bmp,-120,-120,139.bmp,120,-120,140.bmp,-120,120,141.bmp,120,120,10055.300000011921,465419.89999997616,8056,yes,SM,A,138.bmp,-120,-120,210041,204016,212057,206025,468992.0,462968.0,471010.0,464977.0,26
4,0,0,0,1,18,test,1,1,z,Wed Jul 02 2025 14:36:58 GMT-0500 (Central Daylight Time),484756.7999999821,I,z,1238,27,1,150.bmp,-120,-120,111.bmp,120,-120,101.bmp,-120,120,102.bmp,120,120,9277.299999982119,475479.5,8056,yes,SM,A,102.bmp,120,120,210041,204016,212057,206025,479055.0,473028.0,481056.0,475039.0,27
3,0,0,1,0,19,test,1,1,m,Wed Jul 02 2025 14:36:58 GMT-0500 (Central Daylight Time),494103.5,I,m,1302,28,1,103.bmp,-120,-120,104.bmp,120,-120,105.bmp,-120,120,106.bmp,120,120,9340.800000011921,484762.6999999881,8056,no,SM,A,103.bmp,-120,120,210041,204016,212057,206025,488320.0,482311.0,490337.0,484319.0,28
2,0,1,0,0,20,test,1,1,z,Wed Jul 02 2025 14:36:58 GMT-0500 (Central Daylight Time),503949.5,I,z,1785,29,1,107.bmp,-120,-120,108.bmp,120,-120,109.bmp,-120,120,110.bmp,120,120,9842.40000000596,494107.09999999404,8056,yes,SM,A,108.bmp,120,-120,210041,204016,212057,206025,497683.0,491655.0,499700.0,493670.0,29
3,0,0,1,0,21,test,1,1,z,Wed Jul 02 2025 14:36:58 GMT-0500 (Central Daylight Time),513681.1999999881,I,z,1677,30,1,111.bmp,-120,-120,112.bmp,120,-120,113.bmp,-120,120,114.bmp,120,120,9727.800000011921,503953.39999997616,8056,yes,SM,A,113.bmp,-120,120,210041,204016,212057,206025,507529.0,501502.0,509545.0,503515.0,30
1,1,0,0,0,22,test,1,1,z,Wed Jul 02 2025 14:36:58 GMT-0500 (Central Daylight Time),523627.5,I,z,1890,31,1,115.bmp,-120,-120,116.bmp,120,-120,117.bmp,-120,120,118.bmp,120,120,9943.200000017881,513684.2999999821,8056,yes,SM,A,115.bmp,-120,-120,210041,204016,212057,206025,517261.0,511233.0,519277.0,513245.0,31
2,0,1,0,0,23,test,1,1,m,Wed Jul 02 2025 14:36:58 GMT-0500 (Central Daylight Time),532890.6999999881,I,m,1224,32,1,119.bmp,-120,-120,120.bmp,120,-120,121.bmp,-120,120,122.bmp,120,120,9260.40000000596,523630.2999999821,8056,no,SM,A,119.bmp,120,-120,210041,204016,212057,206025,527206.0,521178.0,529207.0,523192.0,32
4,0,0,0,1,23,test,1,0,z,Wed Jul 02 2025 14:36:58 GMT-0500 (Central Daylight Time),542887.7999999821,I,m,1943,33,1,131.bmp,-120,-120,132.bmp,120,-120,133.bmp,-120,120,134.bmp,120,120,9994.0,532893.7999999821,8056,yes,SM,A,134.bmp,120,120,210041,204016,212057,206025,536471.0,530442.0,538487.0,532454.0,33
2,0,1,0,0,24,test,1,1,z,Wed Jul 02 2025 14:36:58 GMT-0500 (Central Daylight Time),552534.2999999821,I,z,1586,34,1,123.bmp,-120,-120,124.bmp,120,-120,125.bmp,-120,120,126.bmp,120,120,9642.90000000596,542891.3999999762,8056,yes,SM,A,124.bmp,120,-120,210041,204016,212057,206025,546467.0,540440.0,548484.0,542453.0,34
4,0,0,0,1,25,test,1,1,m,Wed Jul 02 2025 14:36:58 GMT-0500 (Central Daylight Time),561996.7999999821,I,m,1403,35,1,127.bmp,-120,-120,128.bmp,120,-120,129.bmp,-120,120,130.bmp,120,120,9458.0,552538.7999999821,8056,no,SM,A,129.bmp,120,120,210041,204016,212057,206025,556114.0,550087.0,558131.0,552099.0,35
3,0,0,1,0,25,test,1,0,m,Wed Jul 02 2025 14:36:58 GMT-0500 (Central Daylight Time),571461.2999999821,I,z,1400,36,1,135.bmp,-120,-120,136.bmp,120,-120,137.bmp,-120,120,138.bmp,120,120,9460.199999988079,562001.099999994,8056,no,SM,A,135.bmp,-120,120,210041,204016,212057,206025,565577.0,559549.0,567594.0,561564.0,36
1,1,0,0,0,26,test,1,1,m,Wed Jul 02 2025 14:36:58 GMT-0500 (Central Daylight Time),580958.1999999881,I,m,1445,37,1,139.bmp,-120,-120,140.bmp,120,-120,141.bmp,-120,120,142.bmp,120,120,9494.199999988079,571464.0,8056,no,SM,A,140.bmp,-120,-120,210041,204016,212057,206025,575041.0,569012.0,577058.0,571025.0,37
2,0,1,0,0,26,test,1,0,m,Wed Jul 02 2025 14:36:58 GMT-0500 (Central Daylight Time),591021.7999999821,I,None,2016,38,1,143.bmp,-120,-120,144.bmp,120,-120,145.bmp,-120,120,146.bmp,120,120,10060.0,580961.7999999821,8056,no,SM,A,145.bmp,120,-120,210041,204016,212057,206025,584541.0,578510.0,586554.0,580525.0,38
4,0,0,0,1,27,test,1,1,z,Wed Jul 02 2025 14:36:58 GMT-0500 (Central Daylight Time),600554.599999994,I,z,1500,39,1,147.bmp,-120,-120,148.bmp,120,-120,149.bmp,-120,120,150.bmp,120,120,9527.300000011921,591027.2999999821,8056,yes,SM,A,150.bmp,120,120,210041,204016,212057,206025,594600.0,588575.0,596602.0,590587.0,39
3,0,0,1,0,27,test,1,0,m,Wed Jul 02 2025 14:36:58 GMT-0500 (Central Daylight Time),610618.1999999881,I,None,2017,40,1,104.bmp,-120,-120,105.bmp,120,-120,106.bmp,-120,120,107.bmp,120,120,10059.199999988079,600559.0,8056,no,SM,A,105.bmp,-120,120,210041,204016,212057,206025,604135.0,598107.0,606149.0,600119.0,40
1,1,0,0,0,28,test,1,1,z,Wed Jul 02 2025 14:36:58 GMT-0500 (Central Daylight Time),620078.7999999821,I,z,1401,41,1,108.bmp,-120,-120,109.bmp,120,-120,110.bmp,-120,120,111.bmp,120,120,9456.59999999404,610622.1999999881,8056,yes,SM,A,108.bmp,-120,-120,210041,204016,212057,206025,614195.0,608170.0,616213.0,610180.0,41
4,0,0,0,1,28,test,1,0,z,Wed Jul 02 2025 14:36:58 GMT-0500 (Central Daylight Time),629725.8999999762,I,m,1596,42,1,112.bmp,-120,-120,113.bmp,120,-120,114.bmp,-120,120,115.bmp,120,120,9643.799999982119,620082.099999994,8056,yes,SM,A,115.bmp,120,120,210041,204016,212057,206025,623660.0,617630.0,625675.0,619644.0,42
1,1,0,0,0,28,test,1,0,z,Wed Jul 02 2025 14:36:58 GMT-0500 (Central Daylight Time),639439.099999994,I,m,1650,43,1,116.bmp,-120,-120,117.bmp,120,-120,118.bmp,-120,120,119.bmp,120,120,9709.59999999404,629729.5,8056,yes,SM,A,116.bmp,-120,-120,210041,204016,212057,206025,633306.0,627278.0,635324.0,629291.0,43
4,0,0,0,1,29,test,1,1,m,Wed Jul 02 2025 14:36:58 GMT-0500 (Central Daylight Time),649137.0,I,m,1658,44,1,104.bmp,-120,-120,101.bmp,120,-120,102.bmp,-120,120,103.bmp,120,120,9693.90000000596,639443.099999994,8056,no,SM,A,104.bmp,120,120,210041,204016,212057,206025,643019.0,636991.0,645021.0,639005.0,44
1,1,0,0,0,30,test,1,1,m,Wed Jul 02 2025 14:36:58 GMT-0500 (Central Daylight Time),658732.6999999881,I,m,1539,45,1,128.bmp,-120,-120,129.bmp,120,-120,130.bmp,-120,120,131.bmp,120,120,9592.5,649140.1999999881,8056,no,SM,A,131.bmp,-120,-120,210041,204016,212057,206025,652715.0,646688.0,654731.0,648703.0,45
1,1,0,0,0,31,test,1,1,m,Wed Jul 02 2025 14:36:58 GMT-0500 (Central Daylight Time),668230.599999994,I,m,1445,46,1,120.bmp,-120,-120,121.bmp,120,-120,122.bmp,-120,120,123.bmp,120,120,9495.5,658735.099999994,8056,no,SM,A,121.bmp,-120,-120,210041,204016,212057,206025,662315.0,656283.0,664329.0,658299.0,46
3,0,0,1,0,32,test,1,1,z,Wed Jul 02 2025 14:36:58 GMT-0500 (Central Daylight Time),677962.7999999821,I,z,1699,47,1,124.bmp,-120,-120,125.bmp,120,-120,126.bmp,-120,120,127.bmp,120,120,9729.299999982119,668233.5,8056,yes,SM,A,126.bmp,-120,120,210041,204016,212057,206025,671810.0,665782.0,673811.0,667794.0,47
3,0,0,1,0,33,test,1,1,z,Wed Jul 02 2025 14:36:58 GMT-0500 (Central Daylight Time),687591.0,I,z,1576,48,1,140.bmp,-120,-120,141.bmp,120,-120,142.bmp,-120,120,143.bmp,120,120,9625.200000017881,677965.7999999821,8056,yes,SM,A,142.bmp,-120,120,210041,204016,212057,206025,681541.0,675514.0,683559.0,677526.0,48
2,0,1,0,0,33,test,1,0,z,Wed Jul 02 2025 14:36:58 GMT-0500 (Central Daylight Time),697655.5,I,None,2015,49,1,136.bmp,-120,-120,137.bmp,120,-120,138.bmp,-120,120,139.bmp,120,120,10061.40000000596,687594.099999994,8056,yes,SM,A,137.bmp,120,-120,210041,204016,212057,206025,691171.0,685142.0,693188.0,687157.0,49
3,0,0,1,0,34,test,1,1,m,Wed Jul 02 2025 14:36:58 GMT-0500 (Central Daylight Time),707452.8999999762,I,m,1738,50,1,132.bmp,-120,-120,133.bmp,120,-120,134.bmp,-120,120,135.bmp,120,120,9793.299999982119,697659.599999994,8056,no,SM,A,132.bmp,-120,120,210041,204016,212057,206025,701236.0,695208.0,703253.0,697221.0,50
2,0,1,0,0,34,test,1,0,z,Wed Jul 02 2025 14:36:58 GMT-0500 (Central Daylight Time),717513.5,I,None,2015,51,1,144.bmp,-120,-120,145.bmp,120,-120,146.bmp,-120,120,147.bmp,120,120,10055.700000017881,707457.7999999821,8056,yes,SM,A,145.bmp,120,-120,210041,204016,212057,206025,711032.0,705006.0,713046.0,707017.0,51
4,0,0,0,1,34,test,1,0,m,Wed Jul 02 2025 14:36:58 GMT-0500 (Central Daylight Time),727577.599999994,I,None,2013,52,1,148.bmp,-120,-120,149.bmp,120,-120,150.bmp,-120,120,131.bmp,120,120,10062.0,717515.599999994,8056,no,SM,A,148.bmp,120,120,210041,204016,212057,206025,721097.0,715064.0,723113.0,717083.0,52
3,0,0,1,0,35,test,1,1,z,Wed Jul 02 2025 14:36:58 GMT-0500 (Central Daylight Time),736542.099999994,I,z,902,53,1,101.bmp,-120,-120,102.bmp,120,-120,103.bmp,-120,120,104.bmp,120,120,8961.90000000596,727580.1999999881,8056,yes,SM,A,103.bmp,-120,120,210041,204016,212057,206025,731158.0,725128.0,733175.0,727144.0,53
1,1,0,0,0,35,test,1,0,m,Wed Jul 02 2025 14:36:58 GMT-0500 (Central Daylight Time),746606.599999994,I,None,2016,54,1,105.bmp,-120,-120,106.bmp,120,-120,107.bmp,-120,120,108.bmp,120,120,10060.200000017881,736546.3999999762,8056,no,SM,A,107.bmp,-120,-120,210041,204016,212057,206025,740124.0,734095.0,742138.0,736108.0,54
4,0,0,0,1,35,test,1,0,z,Wed Jul 02 2025 14:36:58 GMT-0500 (Central Daylight Time),755952.3999999762,I,m,1283,55,1,109.bmp,-120,-120,110.bmp,120,-120,111.bmp,-120,120,112.bmp,120,120,9341.09999999404,746611.2999999821,8056,yes,SM,A,112.bmp,120,120,210041,204016,212057,206025,750186.0,744160.0,752203.0,746171.0,55
2,0,1,0,0,36,test,1,1,m,Wed Jul 02 2025 14:36:58 GMT-0500 (Central Daylight Time),765634.8999999762,I,m,1618,56,1,113.bmp,-120,-120,114.bmp,120,-120,115.bmp,-120,120,116.bmp,120,120,9678.59999999404,755956.2999999821,8056,no,SM,A,113.bmp,120,-120,210041,204016,212057,206025,759532.0,753505.0,761549.0,755519.0,56
4,0,0,0,1,37,test,1,1,m,Wed Jul 02 2025 14:36:58 GMT-0500 (Central Daylight Time),774913.0,I,m,1224,57,1,117.bmp,-120,-120,118.bmp,120,-120,119.bmp,-120,120,120.bmp,120,120,9274.200000017881,765638.7999999821,8056,no,SM,A,118.bmp,120,120,210041,204016,212057,206025,769213.0,763187.0,771230.0,765199.0,57
3,0,0,1,0,37,test,1,0,z,Wed Jul 02 2025 14:36:58 GMT-0500 (Central Daylight Time),784961.599999994,I,None,2016,58,1,121.bmp,-120,-120,122.bmp,120,-120,123.bmp,-120,120,124.bmp,120,120,10046.700000017881,774914.8999999762,8056,yes,SM,A,123.bmp,-120,120,210041,204016,212057,206025,778477.0,772463.0,780494.0,774476.0,58
2,0,1,0,0,38,test,1,1,m,Wed Jul 02 2025 14:36:58 GMT-0500 (Central Daylight Time),794590.5,I,m,1576,59,1,125.bmp,-120,-120,126.bmp,120,-120,127.bmp,-120,120,128.bmp,120,120,9625.600000023842,784964.8999999762,8056,no,SM,A,128.bmp,120,-120,210041,204016,212057,206025,788541.0,782513.0,790557.0,784526.0,59
1,1,0,0,0,39,test,1,1,z,Wed Jul 02 2025 14:36:58 GMT-0500 (Central Daylight Time),803587.3999999762,I,z,941,60,1,129.bmp,-120,-120,130.bmp,120,-120,131.bmp,-120,120,132.bmp,120,120,8994.699999988079,794592.6999999881,8056,yes,SM,A,129.bmp,-120,-120,210041,204016,212057,206025,798171.0,792141.0,800186.0,794156.0,60
2,0,1,0,0,39,test,1,0,z,Wed Jul 02 2025 14:36:58 GMT-0500 (Central Daylight Time),812868.5,I,m,1222,61,1,133.bmp,-120,-120,134.bmp,120,-120,135.bmp,-120,120,136.bmp,120,120,9278.100000023842,803590.3999999762,8056,yes,SM,A,134.bmp,120,-120,210041,204016,212057,206025,807168.0,801139.0,809184.0,803152.0,61
4,0,0,0,1,39,test,1,0,z,Wed Jul 02 2025 14:36:58 GMT-0500 (Central Daylight Time),822315.6999999881,I,m,1399,62,1,141.bmp,-120,-120,142.bmp,120,-120,143.bmp,-120,120,144.bmp,120,120,9443.90000000596,812871.7999999821,8056,yes,SM,A,144.bmp,120,120,210041,204016,212057,206025,816432.0,810420.0,818448.0,812430.0,62
1,1,0,0,0,40,test,1,1,m,Wed Jul 02 2025 14:36:58 GMT-0500 (Central Daylight Time),831962.1999999881,I,m,1590,63,1,145.bmp,-120,-120,146.bmp,120,-120,147.bmp,-120,120,148.bmp,120,120,9641.800000011921,822320.3999999762,8056,no,SM,A,145.bmp,-120,120,210041,204016,212057,206025,825896.0,819869.0,827912.0,821880.0,63
2,0,1,0,0,40,test,1,0,z,Wed Jul 02 2025 14:36:58 GMT-0500 (Central Daylight Time),841643.2999999821,I,m,1631,64,1,149.bmp,-120,-120,150.bmp,120,-120,112.bmp,-120,120,101.bmp,120,120,9677.5,831965.7999999821,8056,yes,SM,A,150.bmp,120,-120,210041,204016,212057,206025,835540.0,829514.0,837544.0,831528.0,64
4,0,0,0,1,41,test,1,1,m,Wed Jul 02 2025 14:36:58 GMT-0500 (Central Daylight Time),851339.2999999821,I,m,1639,65,1,102.bmp,-120,-120,103.bmp,120,-120,104.bmp,-120,120,105.bmp,120,120,9692.0,841647.2999999821,8056,no,SM,A,104.bmp,120,120,210041,204016,212057,206025,845223.0,839196.0,847239.0,841208.0,65
3,0,0,1,0,42,test,1,1,m,Wed Jul 02 2025 14:36:58 GMT-0500 (Central Daylight Time),861003.7999999821,I,m,1616,66,1,106.bmp,-120,-120,107.bmp,120,-120,108.bmp,-120,120,109.bmp,120,120,9661.5,851342.2999999821,8056,no,SM,A,109.bmp,-120,120,210041,204016,212057,206025,854920.0,848891.0,856936.0,850904.0,66
2,0,1,0,0,43,test,1,1,m,Wed Jul 02 2025 14:36:58 GMT-0500 (Central Daylight Time),870750.0,I,m,1687,67,1,137.bmp,-120,-120,138.bmp,120,-120,139.bmp,-120,120,140.bmp,120,120,9742.700000017881,861007.2999999821,8056,no,SM,A,139.bmp,120,-120,210041,204016,212057,206025,864584.0,858556.0,866600.0,860567.0,67
3,0,0,1,0,44,test,1,1,z,Wed Jul 02 2025 14:36:58 GMT-0500 (Central Daylight Time),880597.0,I,z,1798,68,1,110.bmp,-120,-120,111.bmp,120,-120,112.bmp,-120,120,113.bmp,120,120,9843.40000000596,870753.599999994,8056,yes,SM,A,112.bmp,-120,120,210041,204016,212057,206025,874328.0,868302.0,876345.0,870314.0,68
1,1,0,0,0,45,test,1,1,m,Wed Jul 02 2025 14:36:58 GMT-0500 (Central Daylight Time),890444.099999994,I,m,1799,69,1,114.bmp,-120,-120,115.bmp,120,-120,116.bmp,-120,120,117.bmp,120,120,9843.200000017881,880600.8999999762,8056,no,SM,A,115.bmp,-120,-120,210041,204016,212057,206025,884176.0,878149.0,886193.0,880160.0,69
2,0,1,0,0,46,test,1,1,m,Wed Jul 02 2025 14:36:58 GMT-0500 (Central Daylight Time),900089.1999999881,I,m,1583,70,1,118.bmp,-120,-120,119.bmp,120,-120,120.bmp,-120,120,121.bmp,120,120,9641.699999988079,890447.5,8056,no,SM,A,120.bmp,120,-120,210041,204016,212057,206025,894021.0,887996.0,896037.0,890009.0,70
4,0,0,0,1,46,test,1,0,z,Wed Jul 02 2025 14:36:58 GMT-0500 (Central Daylight Time),909837.5,I,m,1686,71,1,122.bmp,-120,-120,123.bmp,120,-120,124.bmp,-120,120,125.bmp,120,120,9743.300000011921,900094.1999999881,8056,yes,SM,A,125.bmp,120,120,210041,204016,212057,206025,903669.0,897643.0,905688.0,899656.0,71
1,1,0,0,0,47,test,1,1,z,Wed Jul 02 2025 14:36:58 GMT-0500 (Central Daylight Time),919783.2999999821,I,z,1910,72,1,126.bmp,-120,-120,127.bmp,120,-120,128.bmp,-120,120,129.bmp,120,120,9941.799999982119,909841.5,8056,yes,SM,A,126.bmp,-120,-120,210041,204016,212057,206025,913414.0,907390.0,915417.0,909403.0,72
2,0,1,0,0,47,test,1,0,z,Wed Jul 02 2025 14:36:58 GMT-0500 (Central Daylight Time),929198.6999999881,I,m,1362,73,1,130.bmp,-120,-120,131.bmp,120,-120,132.bmp,-120,120,133.bmp,120,120,9408.0,919790.6999999881,8056,yes,SM,A,131.bmp,120,-120,210041,204016,212057,206025,923364.0,917339.0,925381.0,919349.0,73
4,0,0,0,1,48,test,1,1,m,Wed Jul 02 2025 14:36:58 GMT-0500 (Central Daylight Time),938977.8999999762,I,m,1723,74,1,134.bmp,-120,-120,135.bmp,120,-120,136.bmp,-120,120,137.bmp,120,120,9775.799999982119,929202.099999994,8056,no,SM,A,136.bmp,120,120,210041,204016,212057,206025,932777.0,926750.0,934795.0,928762.0,74
2,0,1,0,0,48,test,1,0,m,Wed Jul 02 2025 14:36:58 GMT-0500 (Central Daylight Time),949042.8999999762,I,None,2016,75,1,138.bmp,-120,-120,139.bmp,120,-120,140.bmp,-120,120,141.bmp,120,120,10061.199999988079,938981.6999999881,8056,no,SM,A,141.bmp,120,-120,210041,204016,212057,206025,942559.0,936530.0,944575.0,938542.0,75
1,1,0,0,0,49,test,1,1,z,Wed Jul 02 2025 14:36:58 GMT-0500 (Central Daylight Time),958553.2999999821,I,z,1459,76,1,142.bmp,-120,-120,143.bmp,120,-120,144.bmp,-120,120,145.bmp,120,120,9505.59999999404,949047.6999999881,8056,yes,SM,A,142.bmp,-120,-120,210041,204016,212057,206025,952619.0,946596.0,954635.0,948607.0,76
3,0,0,1,0,49,test,1,0,z,Wed Jul 02 2025 14:36:58 GMT-0500 (Central Daylight Time),968617.7999999821,I,None,2014,77,1,150.bmp,-120,-120,111.bmp,120,-120,101.bmp,-120,120,102.bmp,120,120,10061.799999982119,958556.0,8056,yes,SM,A,101.bmp,-120,120,210041,204016,212057,206025,962136.0,956104.0,964152.0,958121.0,77
1,1,0,0,0,50,test,1,1,m,Wed Jul 02 2025 14:36:58 GMT-0500 (Central Daylight Time),978248.599999994,I,m,1567,78,1,146.bmp,-120,-120,147.bmp,120,-120,148.bmp,-120,120,149.bmp,120,120,9627.59999999404,968621.0,8056,no,SM,A,147.bmp,-120,-120,210041,204016,212057,206025,972199.0,966169.0,974215.0,968185.0,78
4,0,0,0,1,51,test,1,1,m,Wed Jul 02 2025 14:36:58 GMT-0500 (Central Daylight Time),987728.8999999762,I,m,1415,79,1,107.bmp,-120,-120,108.bmp,120,-120,109.bmp,-120,120,110.bmp,120,120,9470.59999999404,978258.2999999821,8056,no,SM,A,107.bmp,120,120,210041,204016,212057,206025,981829.0,975806.0,983846.0,977813.0,79
3,0,0,1,0,52,test,1,1,m,Wed Jul 02 2025 14:36:58 GMT-0500 (Central Daylight Time),997077.0,I,m,1289,80,1,103.bmp,-120,-120,104.bmp,120,-120,105.bmp,-120,120,106.bmp,120,120,9343.700000017881,987733.2999999821,8056,no,SM,A,106.bmp,-120,120,210041,204016,212057,206025,991311.0,985281.0,993326.0,987293.0,80
