acc_sum,block,block_c,change,condition,correct,correct_response,datetime,endtime,face,project,response,response_time,row_sel,session_number,start_end,starttime,subject_id,task,task_vers,trial
0,prac,1,,1-Back,,,Wed May 07 2025 11:06:15 GMT-0400 (Eastern Daylight Time),,124_o_f_d_a.png,I,space,17893,1,1,,,9017,VNB,A,0
1,prac,1,0.0,1-Back,1,m,Wed May 07 2025 11:06:15 GMT-0400 (Eastern Daylight Time),182908.0,071_y_f_n_a.png,I,m,1772,2,1,2600.199999809265,180307.80000019073,9017,VNB,A,1
1,prac,1,0.0,1-Back,0,m,Wed May 07 2025 11:06:15 GMT-0400 (Eastern Daylight Time),185741.19999980927,165_m_m_h_a.png,I,None,2005,3,1,2817.6000003814697,182923.5999994278,9017,VNB,A,2
2,prac,1,0.0,1-Back,1,m,Wed May 07 2025 11:06:15 GMT-0400 (Eastern Daylight Time),187857.80000019073,109_y_m_d_a.png,I,m,1257,4,1,2093.7000007629395,185764.0999994278,9017,VNB,A,3
2,prac,1,0.0,1-Back,0,m,Wed May 07 2025 11:06:15 GMT-0400 (Eastern Daylight Time),189924.5,124_o_f_n_a.png,I,z,1179,5,1,2052.4000005722046,187872.0999994278,9017,VNB,A,4
3,prac,1,1.0,1-Back,1,z,Wed May 07 2025 11:06:15 GMT-0400 (Eastern Daylight Time),192141.30000019073,109_y_m_n_a.png,I,z,1370,6,1,2201.6000003814697,189939.69999980927,9017,VNB,A,5
4,prac,1,0.0,1-Back,1,m,Wed May 07 2025 11:06:15 GMT-0400 (Eastern Daylight Time),194358.0,039_o_m_h_a.png,I,m,1391,7,1,2201.699999809265,192156.30000019073,9017,VNB,A,6
5,prac,1,0.0,1-Back,1,m,Wed May 07 2025 11:06:15 GMT-0400 (Eastern Daylight Time),196591.30000019073,139_m_f_d_a.png,I,m,1403,8,1,2217.6000003814697,194373.69999980927,9017,VNB,A,7
6,prac,1,1.0,1-Back,1,z,Wed May 07 2025 11:06:15 GMT-0400 (Eastern Daylight Time),198491.30000019073,071_y_f_d_a.png,I,z,1062,9,1,1880.6000003814697,196610.69999980927,9017,VNB,A,8
7,prac,1,0.0,1-Back,1,m,Wed May 07 2025 11:06:15 GMT-0400 (Eastern Daylight Time),200574.5999994278,165_m_m_n_a.png,I,m,1246,10,1,2068.699999809265,198505.89999961853,9017,VNB,A,9
8,prac,1,0.0,1-Back,1,m,Wed May 07 2025 11:06:15 GMT-0400 (Eastern Daylight Time),202724.39999961853,124_o_f_h_a.png,I,m,1297,11,1,2134.699999809265,200589.69999980927,9017,VNB,A,10
9,prac,1,0.0,1-Back,1,m,Wed May 07 2025 11:06:15 GMT-0400 (Eastern Daylight Time),204791.30000019073,109_y_m_d_a.png,I,m,1279,12,1,2051.2000007629395,202740.0999994278,9017,VNB,A,11
0,test,1,0.0,1-Back,,,Wed May 07 2025 11:06:15 GMT-0400 (Eastern Daylight Time),204791.30000019073,071_y_f_d_a.png,I,space,17474,1,1,2051.2000007629395,202740.0999994278,9017,VNB,A,0
1,test,1,0.0,1-Back,1,m,Wed May 07 2025 11:06:15 GMT-0400 (Eastern Daylight Time),237874.39999961853,139_m_f_n_a.png,I,m,869,2,1,1887.0,235987.39999961853,9017,VNB,A,1
2,test,1,0.0,1-Back,1,m,Wed May 07 2025 11:06:15 GMT-0400 (Eastern Daylight Time),239924.5,039_o_m_h_a.png,I,m,1017,3,1,2038.1000003814697,237886.39999961853,9017,VNB,A,2
3,test,1,1.0,1-Back,1,z,Wed May 07 2025 11:06:15 GMT-0400 (Eastern Daylight Time),242040.89999961853,165_m_m_h_a.png,I,z,1095,4,1,2103.5,239937.39999961853,9017,VNB,A,3
4,test,1,0.0,1-Back,1,m,Wed May 07 2025 11:06:15 GMT-0400 (Eastern Daylight Time),243940.5999994278,124_o_f_n_a.png,I,m,865,5,1,1886.1999998092651,242054.39999961853,9017,VNB,A,4
5,test,1,0.0,1-Back,1,m,Wed May 07 2025 11:06:15 GMT-0400 (Eastern Daylight Time),246274.39999961853,109_y_m_d_a.png,I,m,1311,6,1,2322.800000190735,243951.5999994278,9017,VNB,A,5
6,test,1,1.0,1-Back,1,z,Wed May 07 2025 11:06:15 GMT-0400 (Eastern Daylight Time),248340.30000019073,139_m_f_d_a.png,I,z,1032,7,1,2051.2000007629395,246289.0999994278,9017,VNB,A,6
7,test,1,0.0,1-Back,1,m,Wed May 07 2025 11:06:15 GMT-0400 (Eastern Daylight Time),250441.0,071_y_f_h_a.png,I,m,1078,8,1,2091.1000003814697,248349.89999961853,9017,VNB,A,7
8,test,1,0.0,1-Back,1,m,Wed May 07 2025 11:06:15 GMT-0400 (Eastern Daylight Time),252524.30000019073,039_o_m_n_a.png,I,m,1057,9,1,2070.0,250454.30000019073,9017,VNB,A,8
9,test,1,0.0,1-Back,1,m,Wed May 07 2025 11:06:15 GMT-0400 (Eastern Daylight Time),255357.69999980927,109_y_m_h_a.png,I,m,1815,10,1,2819.3999996185303,252538.30000019073,9017,VNB,A,9
10,test,1,0.0,1-Back,1,m,Wed May 07 2025 11:06:15 GMT-0400 (Eastern Daylight Time),257691.0,039_o_m_d_a.png,I,m,1310,11,1,2320.199999809265,255370.80000019073,9017,VNB,A,10
11,test,1,1.0,1-Back,1,z,Wed May 07 2025 11:06:15 GMT-0400 (Eastern Daylight Time),259641.0999994278,124_o_f_d_a.png,I,z,920,12,1,1937.1999998092651,257703.89999961853,9017,VNB,A,11
12,test,1,0.0,1-Back,1,m,Wed May 07 2025 11:06:15 GMT-0400 (Eastern Daylight Time),261757.5,165_m_m_n_a.png,I,m,1090,13,1,2103.300000190735,259654.19999980927,9017,VNB,A,12
13,test,1,1.0,1-Back,1,z,Wed May 07 2025 11:06:15 GMT-0400 (Eastern Daylight Time),263907.89999961853,071_y_f_n_a.png,I,z,1118,14,1,2136.800000190735,261771.0999994278,9017,VNB,A,13
14,test,1,0.0,1-Back,1,m,Wed May 07 2025 11:06:15 GMT-0400 (Eastern Daylight Time),265991.0,139_m_f_h_a.png,I,m,1056,15,1,2069.5,263921.5,9017,VNB,A,14
15,test,1,0.0,1-Back,1,m,Wed May 07 2025 11:06:15 GMT-0400 (Eastern Daylight Time),268107.69999980927,165_m_m_d_a.png,I,m,1092,16,1,2102.699999809265,266005.0,9017,VNB,A,15
16,test,1,0.0,1-Back,1,m,Wed May 07 2025 11:06:15 GMT-0400 (Eastern Daylight Time),270207.5999994278,109_y_m_n_a.png,I,m,1071,17,1,2086.0999994277954,268121.5,9017,VNB,A,16
17,test,1,0.0,1-Back,1,m,Wed May 07 2025 11:06:15 GMT-0400 (Eastern Daylight Time),272291.0,124_o_f_h_a.png,I,m,1060,18,1,2068.199999809265,270222.80000019073,9017,VNB,A,17
0,test,2,0.0,1-Back,,,Wed May 07 2025 11:06:15 GMT-0400 (Eastern Daylight Time),272291.0,109_y_m_n_a.png,I,space,1424,1,1,2068.199999809265,270222.80000019073,9017,VNB,A,0
1,test,2,0.0,1-Back,1,m,Wed May 07 2025 11:06:15 GMT-0400 (Eastern Daylight Time),277840.80000019073,071_y_f_h_a.png,I,m,1078,2,1,2091.1000003814697,275749.69999980927,9017,VNB,A,1
2,test,2,1.0,1-Back,1,m,Wed May 07 2025 11:06:15 GMT-0400 (Eastern Daylight Time),279874.39999961853,039_o_m_n_a.png,I,m,1003,3,1,2020.5999994277954,277853.80000019073,9017,VNB,A,2
2,test,2,0.0,1-Back,0,m,Wed May 07 2025 11:06:15 GMT-0400 (Eastern Daylight Time),282007.5999994278,139_m_f_d_a.png,I,z,1105,4,1,2119.7999992370605,279887.80000019073,9017,VNB,A,3
3,test,2,0.0,1-Back,1,z,Wed May 07 2025 11:06:15 GMT-0400 (Eastern Daylight Time),283990.89999961853,165_m_m_d_a.png,I,z,956,5,1,1969.8000001907349,282021.0999994278,9017,VNB,A,4
4,test,2,0.0,1-Back,1,m,Wed May 07 2025 11:06:15 GMT-0400 (Eastern Daylight Time),286057.5999994278,109_y_m_h_a.png,I,m,1044,6,1,2053.5999994277954,284004.0,9017,VNB,A,5
4,test,2,1.0,1-Back,0,z,Wed May 07 2025 11:06:15 GMT-0400 (Eastern Daylight Time),288474.39999961853,124_o_f_h_a.png,I,m,1394,7,1,2403.5,286070.89999961853,9017,VNB,A,6
5,test,2,0.0,1-Back,1,m,Wed May 07 2025 11:06:15 GMT-0400 (Eastern Daylight Time),290974.19999980927,139_m_f_n_a.png,I,m,1474,8,1,2486.699999809265,288487.5,9017,VNB,A,7
6,test,2,0.0,1-Back,1,m,Wed May 07 2025 11:06:15 GMT-0400 (Eastern Daylight Time),293357.69999980927,071_y_f_d_a.png,I,m,1340,9,1,2363.8999996185303,290993.80000019073,9017,VNB,A,8
7,test,2,0.0,1-Back,1,m,Wed May 07 2025 11:06:15 GMT-0400 (Eastern Daylight Time),295641.0,165_m_m_n_a.png,I,m,1262,10,1,2270.0,293371.0,9017,VNB,A,9
8,test,2,1.0,1-Back,1,m,Wed May 07 2025 11:06:15 GMT-0400 (Eastern Daylight Time),298374.39999961853,139_m_f_h_a.png,I,m,1706,11,1,2719.199999809265,295655.19999980927,9017,VNB,A,10
9,test,2,0.0,1-Back,1,z,Wed May 07 2025 11:06:15 GMT-0400 (Eastern Daylight Time),300441.0,039_o_m_h_a.png,I,z,1037,12,1,2053.9000005722046,298387.0999994278,9017,VNB,A,11
10,test,2,0.0,1-Back,1,m,Wed May 07 2025 11:06:15 GMT-0400 (Eastern Daylight Time),302474.39999961853,109_y_m_d_a.png,I,m,1011,13,1,2020.6999998092651,300453.69999980927,9017,VNB,A,12
11,test,2,0.0,1-Back,1,m,Wed May 07 2025 11:06:15 GMT-0400 (Eastern Daylight Time),304757.5,124_o_f_n_a.png,I,m,1257,14,1,2270.0,302487.5,9017,VNB,A,13
12,test,2,0.0,1-Back,1,z,Wed May 07 2025 11:06:15 GMT-0400 (Eastern Daylight Time),306940.80000019073,071_y_f_n_a.png,I,z,1158,15,1,2169.800000190735,304771.0,9017,VNB,A,14
12,test,2,1.0,1-Back,0,m,Wed May 07 2025 11:06:15 GMT-0400 (Eastern Daylight Time),309024.19999980927,165_m_m_h_a.png,I,z,1062,16,1,2070.1000003814697,306954.0999994278,9017,VNB,A,15
13,test,2,0.0,1-Back,1,m,Wed May 07 2025 11:06:15 GMT-0400 (Eastern Daylight Time),311290.89999961853,124_o_f_d_a.png,I,m,1243,17,1,2251.699999809265,309039.19999980927,9017,VNB,A,16
13,test,2,1.0,1-Back,0,z,Wed May 07 2025 11:06:15 GMT-0400 (Eastern Daylight Time),313474.19999980927,039_o_m_d_a.png,I,m,1144,18,1,2166.1000003814697,311308.0999994278,9017,VNB,A,17
0,test,3,1.0,1-Back,,,Wed May 07 2025 11:06:15 GMT-0400 (Eastern Daylight Time),313474.19999980927,124_o_f_h_a.png,I,space,1937,1,1,2166.1000003814697,311308.0999994278,9017,VNB,A,0
1,test,3,0.0,1-Back,1,m,Wed May 07 2025 11:06:15 GMT-0400 (Eastern Daylight Time),319590.80000019073,139_m_f_d_a.png,I,m,1064,2,1,2070.9000005722046,317519.89999961853,9017,VNB,A,1
2,test,3,1.0,1-Back,1,m,Wed May 07 2025 11:06:15 GMT-0400 (Eastern Daylight Time),322007.30000019073,165_m_m_n_a.png,I,m,1387,3,1,2403.6000003814697,319603.69999980927,9017,VNB,A,2
3,test,3,0.0,1-Back,1,z,Wed May 07 2025 11:06:15 GMT-0400 (Eastern Daylight Time),324374.0,124_o_f_n_a.png,I,z,1348,4,1,2357.1000003814697,322016.89999961853,9017,VNB,A,3
4,test,3,1.0,1-Back,1,m,Wed May 07 2025 11:06:15 GMT-0400 (Eastern Daylight Time),326390.89999961853,039_o_m_d_a.png,I,m,989,5,1,2005.0999994277954,324385.80000019073,9017,VNB,A,4
5,test,3,0.0,1-Back,1,m,Wed May 07 2025 11:06:15 GMT-0400 (Eastern Daylight Time),328690.80000019073,071_y_f_h_a.png,I,m,1276,6,1,2287.300000190735,326403.5,9017,VNB,A,5
6,test,3,0.0,1-Back,1,z,Wed May 07 2025 11:06:15 GMT-0400 (Eastern Daylight Time),330790.69999980927,109_y_m_h_a.png,I,z,1080,7,1,2086.6000003814697,328704.0999994278,9017,VNB,A,6
7,test,3,0.0,1-Back,1,m,Wed May 07 2025 11:06:15 GMT-0400 (Eastern Daylight Time),332740.80000019073,139_m_f_n_a.png,I,m,924,8,1,1936.9000005722046,330803.89999961853,9017,VNB,A,7
7,test,3,0.0,1-Back,0,m,Wed May 07 2025 11:06:15 GMT-0400 (Eastern Daylight Time),335407.39999961853,071_y_f_d_a.png,I,z,1646,9,1,2654.0,332753.39999961853,9017,VNB,A,8
8,test,3,1.0,1-Back,1,m,Wed May 07 2025 11:06:15 GMT-0400 (Eastern Daylight Time),337890.89999961853,039_o_m_n_a.png,I,m,1452,10,1,2470.699999809265,335420.19999980927,9017,VNB,A,9
9,test,3,0.0,1-Back,1,m,Wed May 07 2025 11:06:15 GMT-0400 (Eastern Daylight Time),340390.80000019073,165_m_m_h_a.png,I,m,1472,11,1,2486.5,337904.30000019073,9017,VNB,A,10
10,test,3,0.0,1-Back,1,z,Wed May 07 2025 11:06:15 GMT-0400 (Eastern Daylight Time),342340.89999961853,139_m_f_h_a.png,I,z,924,12,1,1937.3000001907349,340403.5999994278,9017,VNB,A,11
10,test,3,1.0,1-Back,0,m,Wed May 07 2025 11:06:15 GMT-0400 (Eastern Daylight Time),345374.39999961853,124_o_f_d_a.png,I,None,2015,13,1,3019.3999996185303,342355.0,9017,VNB,A,12
11,test,3,0.0,1-Back,1,z,Wed May 07 2025 11:06:15 GMT-0400 (Eastern Daylight Time),347707.5999994278,165_m_m_d_a.png,I,z,1300,14,1,2319.2999992370605,345388.30000019073,9017,VNB,A,13
12,test,3,0.0,1-Back,1,m,Wed May 07 2025 11:06:15 GMT-0400 (Eastern Daylight Time),350257.5999994278,109_y_m_n_a.png,I,m,1520,15,1,2536.7999992370605,347720.80000019073,9017,VNB,A,14
13,test,3,1.0,1-Back,1,m,Wed May 07 2025 11:06:15 GMT-0400 (Eastern Daylight Time),352424.0999994278,039_o_m_h_a.png,I,m,1146,16,1,2153.0999994277954,350271.0,9017,VNB,A,15
13,test,3,0.0,1-Back,0,m,Wed May 07 2025 11:06:15 GMT-0400 (Eastern Daylight Time),354690.80000019073,109_y_m_d_a.png,I,z,1226,17,1,2249.300000190735,352441.5,9017,VNB,A,16
14,test,3,1.0,1-Back,1,m,Wed May 07 2025 11:06:15 GMT-0400 (Eastern Daylight Time),356690.89999961853,071_y_f_n_a.png,I,m,952,18,1,1984.8000001907349,354706.0999994278,9017,VNB,A,17
0,test,4,1.0,1-Back,,,Wed May 07 2025 11:06:15 GMT-0400 (Eastern Daylight Time),356690.89999961853,165_m_m_d_a.png,I,space,24464,1,1,1984.8000001907349,354706.0999994278,9017,VNB,A,0
0,test,4,0.0,1-Back,0,z,Wed May 07 2025 11:06:15 GMT-0400 (Eastern Daylight Time),386207.5999994278,039_o_m_d_a.png,I,None,2015,2,1,3021.199999809265,383186.39999961853,9017,VNB,A,1
1,test,4,0.0,1-Back,1,m,Wed May 07 2025 11:06:15 GMT-0400 (Eastern Daylight Time),388174.0999994278,109_y_m_h_a.png,I,m,940,3,1,1953.2999992370605,386220.80000019073,9017,VNB,A,2
2,test,4,0.0,1-Back,1,m,Wed May 07 2025 11:06:15 GMT-0400 (Eastern Daylight Time),390857.5,139_m_f_n_a.png,I,m,1653,4,1,2670.9000005722046,388186.5999994278,9017,VNB,A,3
2,test,4,1.0,1-Back,0,m,Wed May 07 2025 11:06:15 GMT-0400 (Eastern Daylight Time),392940.89999961853,124_o_f_h_a.png,I,z,1050,5,1,2070.300000190735,390870.5999994278,9017,VNB,A,4
3,test,4,0.0,1-Back,1,m,Wed May 07 2025 11:06:15 GMT-0400 (Eastern Daylight Time),395007.19999980927,165_m_m_n_a.png,I,m,1046,6,1,2053.5,392953.69999980927,9017,VNB,A,5
4,test,4,0.0,1-Back,1,m,Wed May 07 2025 11:06:15 GMT-0400 (Eastern Daylight Time),397440.5999994278,109_y_m_d_a.png,I,m,1405,7,1,2423.0,395017.5999994278,9017,VNB,A,6
5,test,4,1.0,1-Back,1,z,Wed May 07 2025 11:06:15 GMT-0400 (Eastern Daylight Time),399524.0999994278,071_y_f_d_a.png,I,z,1044,8,1,2070.199999809265,397453.89999961853,9017,VNB,A,7
6,test,4,0.0,1-Back,1,m,Wed May 07 2025 11:06:15 GMT-0400 (Eastern Daylight Time),401741.39999961853,139_m_f_h_a.png,I,m,1198,9,1,2204.5999994277954,399536.80000019073,9017,VNB,A,8
6,test,4,0.0,1-Back,0,z,Wed May 07 2025 11:06:15 GMT-0400 (Eastern Daylight Time),403890.80000019073,039_o_m_h_a.png,I,m,1127,10,1,2136.1000003814697,401754.69999980927,9017,VNB,A,9
7,test,4,1.0,1-Back,1,m,Wed May 07 2025 11:06:15 GMT-0400 (Eastern Daylight Time),406357.39999961853,124_o_f_n_a.png,I,m,1424,11,1,2448.699999809265,403908.69999980927,9017,VNB,A,10
8,test,4,0.0,1-Back,1,m,Wed May 07 2025 11:06:15 GMT-0400 (Eastern Daylight Time),409090.89999961853,139_m_f_d_a.png,I,m,1685,12,1,2717.0,406373.89999961853,9017,VNB,A,11
9,test,4,0.0,1-Back,1,m,Wed May 07 2025 11:06:15 GMT-0400 (Eastern Daylight Time),411890.80000019073,071_y_f_n_a.png,I,m,1752,13,1,2784.300000190735,409106.5,9017,VNB,A,12
10,test,4,0.0,1-Back,1,m,Wed May 07 2025 11:06:15 GMT-0400 (Eastern Daylight Time),414224.0999994278,124_o_f_d_a.png,I,m,1296,14,1,2318.0,411906.0999994278,9017,VNB,A,13
11,test,4,0.0,1-Back,1,m,Wed May 07 2025 11:06:15 GMT-0400 (Eastern Daylight Time),416223.89999961853,071_y_f_h_a.png,I,m,972,15,1,1986.3999996185303,414237.5,9017,VNB,A,14
12,test,4,1.0,1-Back,1,z,Wed May 07 2025 11:06:15 GMT-0400 (Eastern Daylight Time),418107.5999994278,165_m_m_h_a.png,I,z,859,16,1,1870.8999996185303,416236.69999980927,9017,VNB,A,15
13,test,4,0.0,1-Back,1,m,Wed May 07 2025 11:06:15 GMT-0400 (Eastern Daylight Time),420057.19999980927,039_o_m_n_a.png,I,m,920,17,1,1936.6999998092651,418120.5,9017,VNB,A,16
13,test,4,1.0,1-Back,0,z,Wed May 07 2025 11:06:15 GMT-0400 (Eastern Daylight Time),422724.19999980927,109_y_m_n_a.png,I,m,1642,18,1,2653.300000190735,420070.89999961853,9017,VNB,A,17
0,test,5,1.0,1-Back,,,Wed May 07 2025 11:06:15 GMT-0400 (Eastern Daylight Time),422724.19999980927,039_o_m_n_a.png,I,space,7815,1,1,2653.300000190735,420070.89999961853,9017,VNB,A,0
1,test,5,1.0,1-Back,1,m,Wed May 07 2025 11:06:15 GMT-0400 (Eastern Daylight Time),434757.39999961853,124_o_f_h_a.png,I,m,1165,2,1,2168.8999996185303,432588.5,9017,VNB,A,1
2,test,5,0.0,1-Back,1,m,Wed May 07 2025 11:06:15 GMT-0400 (Eastern Daylight Time),437007.39999961853,109_y_m_d_a.png,I,m,1230,3,1,2237.3999996185303,434770.0,9017,VNB,A,2
3,test,5,0.0,1-Back,1,z,Wed May 07 2025 11:06:15 GMT-0400 (Eastern Daylight Time),439157.69999980927,039_o_m_d_a.png,I,z,1115,4,1,2133.6000003814697,437024.0999994278,9017,VNB,A,3
4,test,5,0.0,1-Back,1,m,Wed May 07 2025 11:06:15 GMT-0400 (Eastern Daylight Time),441423.89999961853,139_m_f_h_a.png,I,m,1229,5,1,2250.0,439173.89999961853,9017,VNB,A,4
5,test,5,0.0,1-Back,1,m,Wed May 07 2025 11:06:15 GMT-0400 (Eastern Daylight Time),443640.69999980927,071_y_f_n_a.png,I,m,1195,6,1,2201.3999996185303,441439.30000019073,9017,VNB,A,5
6,test,5,1.0,1-Back,1,z,Wed May 07 2025 11:06:15 GMT-0400 (Eastern Daylight Time),445957.39999961853,124_o_f_n_a.png,I,z,1266,7,1,2301.0999994277954,443656.30000019073,9017,VNB,A,6
7,test,5,0.0,1-Back,1,m,Wed May 07 2025 11:06:15 GMT-0400 (Eastern Daylight Time),447874.0,139_m_f_d_a.png,I,m,869,8,1,1901.3000001907349,445972.69999980927,9017,VNB,A,7
8,test,5,0.0,1-Back,1,m,Wed May 07 2025 11:06:15 GMT-0400 (Eastern Daylight Time),450374.0999994278,109_y_m_h_a.png,I,m,1457,9,1,2484.0,447890.0999994278,9017,VNB,A,8
9,test,5,0.0,1-Back,1,m,Wed May 07 2025 11:06:15 GMT-0400 (Eastern Daylight Time),453090.69999980927,071_y_f_d_a.png,I,m,1685,10,1,2702.800000190735,450387.89999961853,9017,VNB,A,9
10,test,5,0.0,1-Back,1,m,Wed May 07 2025 11:06:15 GMT-0400 (Eastern Daylight Time),455624.0,165_m_m_n_a.png,I,m,1505,11,1,2519.0,453105.0,9017,VNB,A,10
11,test,5,1.0,1-Back,1,z,Wed May 07 2025 11:06:15 GMT-0400 (Eastern Daylight Time),457590.5,139_m_f_n_a.png,I,z,947,12,1,1953.3000001907349,455637.19999980927,9017,VNB,A,11
12,test,5,0.0,1-Back,1,m,Wed May 07 2025 11:06:15 GMT-0400 (Eastern Daylight Time),460207.39999961853,039_o_m_h_a.png,I,m,1589,13,1,2605.5999994277954,457601.80000019073,9017,VNB,A,12
13,test,5,0.0,1-Back,1,z,Wed May 07 2025 11:06:15 GMT-0400 (Eastern Daylight Time),462240.69999980927,165_m_m_h_a.png,I,z,1013,14,1,2020.0,460220.69999980927,9017,VNB,A,13
14,test,5,1.0,1-Back,1,m,Wed May 07 2025 11:06:15 GMT-0400 (Eastern Daylight Time),464274.0,124_o_f_d_a.png,I,m,1011,15,1,2021.1000003814697,462252.89999961853,9017,VNB,A,14
15,test,5,0.0,1-Back,1,m,Wed May 07 2025 11:06:15 GMT-0400 (Eastern Daylight Time),466674.0999994278,109_y_m_n_a.png,I,m,1369,16,1,2386.5999994277954,464287.5,9017,VNB,A,15
16,test,5,0.0,1-Back,1,m,Wed May 07 2025 11:06:15 GMT-0400 (Eastern Daylight Time),468573.80000019073,071_y_f_h_a.png,I,m,873,17,1,1886.6000003814697,466687.19999980927,9017,VNB,A,16
17,test,5,0.0,1-Back,1,m,Wed May 07 2025 11:06:15 GMT-0400 (Eastern Daylight Time),470624.0999994278,165_m_m_d_a.png,I,m,1021,18,1,2036.1999998092651,468587.89999961853,9017,VNB,A,17
0,prac,1,0.0,2-Back,,,Wed May 07 2025 11:06:15 GMT-0400 (Eastern Daylight Time),470624.0999994278,139_m_f_n_a.png,I,space,20800,1,1,2036.1999998092651,468587.89999961853,9017,VNB,A,0
0,prac,1,0.0,2-Back,,,Wed May 07 2025 11:06:15 GMT-0400 (Eastern Daylight Time),470624.0999994278,124_o_f_h_a.png,I,space,20800,2,1,2036.1999998092651,468587.89999961853,9017,VNB,A,0
0,prac,1,0.0,2-Back,0,m,Wed May 07 2025 11:06:15 GMT-0400 (Eastern Daylight Time),592573.3999996185,039_o_m_d_a.png,I,None,2015,3,1,2847.3999996185303,589726.0,9017,VNB,A,1
0,prac,1,1.0,2-Back,0,z,Wed May 07 2025 11:06:15 GMT-0400 (Eastern Daylight Time),595156.5999994278,165_m_m_h_a.png,I,m,1624,4,1,2567.5,592589.0999994278,9017,VNB,A,2
0,prac,1,0.0,2-Back,0,m,Wed May 07 2025 11:06:15 GMT-0400 (Eastern Daylight Time),597723.8000001907,071_y_f_n_a.png,I,z,1678,5,1,2552.7000007629395,595171.0999994278,9017,VNB,A,3
0,prac,1,1.0,2-Back,0,z,Wed May 07 2025 11:06:15 GMT-0400 (Eastern Daylight Time),599973.8000001907,039_o_m_h_a.png,I,m,1388,6,1,2234.9000005722046,597738.8999996185,9017,VNB,A,4
1,prac,1,1.0,2-Back,1,z,Wed May 07 2025 11:06:15 GMT-0400 (Eastern Daylight Time),602540.5999994278,109_y_m_n_a.png,I,z,1661,7,1,2551.5999994277954,599989.0,9017,VNB,A,5
2,prac,1,0.0,2-Back,1,m,Wed May 07 2025 11:06:15 GMT-0400 (Eastern Daylight Time),604973.8999996185,139_m_f_d_a.png,I,m,1492,8,1,2417.199999809265,602556.6999998093,9017,VNB,A,6
2,prac,1,0.0,2-Back,0,m,Wed May 07 2025 11:06:15 GMT-0400 (Eastern Daylight Time),607590.0,124_o_f_d_a.png,I,z,1677,9,1,2597.9000005722046,604992.0999994278,9017,VNB,A,7
3,prac,1,0.0,2-Back,1,m,Wed May 07 2025 11:06:15 GMT-0400 (Eastern Daylight Time),610090.5999994278,165_m_m_h_a.png,I,m,1658,10,1,2485.8999996185303,607604.6999998093,9017,VNB,A,8
3,prac,1,1.0,2-Back,0,z,Wed May 07 2025 11:06:15 GMT-0400 (Eastern Daylight Time),612873.6999998093,071_y_f_d_a.png,I,m,1925,11,1,2768.0,610105.6999998093,9017,VNB,A,9
3,prac,1,0.0,2-Back,0,m,Wed May 07 2025 11:06:15 GMT-0400 (Eastern Daylight Time),615290.5,039_o_m_n_a.png,I,z,1439,12,1,2402.199999809265,612888.3000001907,9017,VNB,A,10
0,prac,2,0.0,2-Back,,,Wed May 07 2025 11:06:15 GMT-0400 (Eastern Daylight Time),615290.5,139_m_f_n_a.png,I,a,9817,1,1,2402.199999809265,612888.3000001907,9017,VNB,A,0
0,prac,2,0.0,2-Back,,,Wed May 07 2025 11:06:15 GMT-0400 (Eastern Daylight Time),615290.5,124_o_f_h_a.png,I,a,9817,2,1,2402.199999809265,612888.3000001907,9017,VNB,A,0
0,prac,2,0.0,2-Back,0,m,Wed May 07 2025 11:06:15 GMT-0400 (Eastern Daylight Time),633140.5,039_o_m_d_a.png,I,None,2012,3,1,2819.199999809265,630321.3000001907,9017,VNB,A,1
0,prac,2,1.0,2-Back,0,z,Wed May 07 2025 11:06:15 GMT-0400 (Eastern Daylight Time),635423.6999998093,165_m_m_h_a.png,I,m,1454,4,1,2268.8999996185303,633154.8000001907,9017,VNB,A,2
1,prac,2,0.0,2-Back,1,m,Wed May 07 2025 11:06:15 GMT-0400 (Eastern Daylight Time),637390.5999994278,071_y_f_n_a.png,I,m,1136,5,1,1951.7999992370605,635438.8000001907,9017,VNB,A,3
2,prac,2,1.0,2-Back,1,z,Wed May 07 2025 11:06:15 GMT-0400 (Eastern Daylight Time),639607.1999998093,039_o_m_h_a.png,I,z,1391,6,1,2202.6000003814697,637404.5999994278,9017,VNB,A,4
2,prac,2,1.0,2-Back,0,z,Wed May 07 2025 11:06:15 GMT-0400 (Eastern Daylight Time),641907.1999998093,109_y_m_n_a.png,I,m,1448,7,1,2284.8999996185303,639622.3000001907,9017,VNB,A,5
2,prac,2,0.0,2-Back,0,m,Wed May 07 2025 11:06:15 GMT-0400 (Eastern Daylight Time),644257.0,139_m_f_d_a.png,I,z,1507,8,1,2331.0,641926.0,9017,VNB,A,6
3,prac,2,0.0,2-Back,1,m,Wed May 07 2025 11:06:15 GMT-0400 (Eastern Daylight Time),646957.5999994278,124_o_f_d_a.png,I,m,1704,9,1,2686.2999992370605,644271.3000001907,9017,VNB,A,7
3,prac,2,0.0,2-Back,0,m,Wed May 07 2025 11:06:15 GMT-0400 (Eastern Daylight Time),649390.3000001907,165_m_m_h_a.png,I,z,1607,10,1,2421.1000003814697,646969.1999998093,9017,VNB,A,8
3,prac,2,1.0,2-Back,0,z,Wed May 07 2025 11:06:15 GMT-0400 (Eastern Daylight Time),652157.0999994278,071_y_f_d_a.png,I,m,1840,11,1,2749.0,649408.0999994278,9017,VNB,A,9
3,prac,2,0.0,2-Back,0,m,Wed May 07 2025 11:06:15 GMT-0400 (Eastern Daylight Time),654990.3000001907,039_o_m_n_a.png,I,None,2010,12,1,2818.5,652171.8000001907,9017,VNB,A,10
0,test,1,0.0,2-Back,,,Wed May 07 2025 11:06:15 GMT-0400 (Eastern Daylight Time),654990.3000001907,109_y_m_h_a.png,I,space,17432,1,1,2818.5,652171.8000001907,9017,VNB,A,0
0,test,1,0.0,2-Back,,,Wed May 07 2025 11:06:15 GMT-0400 (Eastern Daylight Time),654990.3000001907,124_o_f_n_a.png,I,space,17432,2,1,2818.5,652171.8000001907,9017,VNB,A,0
1,test,1,0.0,2-Back,1,z,Wed May 07 2025 11:06:15 GMT-0400 (Eastern Daylight Time),713473.8000001907,039_o_m_h_a.png,I,z,1869,3,1,2887.1000003814697,710586.6999998093,9017,VNB,A,1
1,test,1,0.0,2-Back,0,m,Wed May 07 2025 11:06:15 GMT-0400 (Eastern Daylight Time),715740.1999998093,139_m_f_d_a.png,I,z,1233,4,1,2252.300000190735,713487.8999996185,9017,VNB,A,2
2,test,1,1.0,2-Back,1,m,Wed May 07 2025 11:06:15 GMT-0400 (Eastern Daylight Time),718673.8000001907,109_y_m_n_a.png,I,m,1885,5,1,2910.2000007629395,715763.5999994278,9017,VNB,A,3
3,test,1,0.0,2-Back,1,z,Wed May 07 2025 11:06:15 GMT-0400 (Eastern Daylight Time),721456.3999996185,071_y_f_d_a.png,I,z,1760,6,1,2768.5,718687.8999996185,9017,VNB,A,4
3,test,1,0.0,2-Back,0,m,Wed May 07 2025 11:06:15 GMT-0400 (Eastern Daylight Time),724490.3999996185,165_m_m_h_a.png,I,None,2015,7,1,3023.5999994277954,721466.8000001907,9017,VNB,A,5
3,test,1,1.0,2-Back,0,m,Wed May 07 2025 11:06:15 GMT-0400 (Eastern Daylight Time),727523.8000001907,071_y_f_n_a.png,I,None,2016,8,1,3019.800000190735,724504.0,9017,VNB,A,6
3,test,1,0.0,2-Back,0,z,Wed May 07 2025 11:06:15 GMT-0400 (Eastern Daylight Time),729973.1999998093,124_o_f_h_a.png,I,m,1431,9,1,2437.1000003814697,727536.0999994278,9017,VNB,A,7
3,test,1,0.0,2-Back,0,m,Wed May 07 2025 11:06:15 GMT-0400 (Eastern Daylight Time),733007.0,039_o_m_d_a.png,I,None,2016,10,1,3020.0,729987.0,9017,VNB,A,8
3,test,1,1.0,2-Back,0,m,Wed May 07 2025 11:06:15 GMT-0400 (Eastern Daylight Time),736023.6999998093,165_m_m_d_a.png,I,z,1987,11,1,3003.8999996185303,733019.8000001907,9017,VNB,A,9
4,test,1,0.0,2-Back,1,m,Wed May 07 2025 11:06:15 GMT-0400 (Eastern Daylight Time),739006.8999996185,139_m_f_n_a.png,I,m,1946,12,1,2966.3999996185303,736040.5,9017,VNB,A,10
4,test,1,0.0,2-Back,0,m,Wed May 07 2025 11:06:15 GMT-0400 (Eastern Daylight Time),742056.8000001907,071_y_f_h_a.png,I,None,2016,13,1,3032.6000003814697,739024.1999998093,9017,VNB,A,11
4,test,1,0.0,2-Back,0,z,Wed May 07 2025 11:06:15 GMT-0400 (Eastern Daylight Time),744391.3000001907,165_m_m_n_a.png,I,m,1298,14,1,2316.5,742074.8000001907,9017,VNB,A,12
4,test,1,0.0,2-Back,0,m,Wed May 07 2025 11:06:15 GMT-0400 (Eastern Daylight Time),747290.0999994278,109_y_m_d_a.png,I,z,1851,15,1,2883.5,744406.5999994278,9017,VNB,A,13
4,test,1,1.0,2-Back,0,m,Wed May 07 2025 11:06:15 GMT-0400 (Eastern Daylight Time),750340.1999998093,139_m_f_h_a.png,I,None,2015,16,1,3033.699999809265,747306.5,9017,VNB,A,14
5,test,1,0.0,2-Back,1,z,Wed May 07 2025 11:06:15 GMT-0400 (Eastern Daylight Time),752807.0,124_o_f_d_a.png,I,z,1446,17,1,2453.5,750353.5,9017,VNB,A,15
6,test,1,0.0,2-Back,1,m,Wed May 07 2025 11:06:15 GMT-0400 (Eastern Daylight Time),755390.3999996185,039_o_m_n_a.png,I,m,1540,18,1,2568.699999809265,752821.6999998093,9017,VNB,A,16
0,test,2,0.0,2-Back,,,Wed May 07 2025 11:06:15 GMT-0400 (Eastern Daylight Time),755390.3999996185,165_m_m_h_a.png,I,space,2252,1,1,2568.699999809265,752821.6999998093,9017,VNB,A,0
0,test,2,0.0,2-Back,,,Wed May 07 2025 11:06:15 GMT-0400 (Eastern Daylight Time),755390.3999996185,071_y_f_n_a.png,I,space,2252,2,1,2568.699999809265,752821.6999998093,9017,VNB,A,0
1,test,2,1.0,2-Back,1,z,Wed May 07 2025 11:06:15 GMT-0400 (Eastern Daylight Time),765340.1999998093,124_o_f_h_a.png,I,z,1507,3,1,2519.300000190735,762820.8999996185,9017,VNB,A,1
2,test,2,0.0,2-Back,1,m,Wed May 07 2025 11:06:15 GMT-0400 (Eastern Daylight Time),767440.0,039_o_m_d_a.png,I,m,1080,4,1,2086.6000003814697,765353.3999996185,9017,VNB,A,2
3,test,2,0.0,2-Back,1,m,Wed May 07 2025 11:06:15 GMT-0400 (Eastern Daylight Time),769957.3000001907,139_m_f_d_a.png,I,m,1482,5,1,2500.800000190735,767456.5,9017,VNB,A,3
3,test,2,0.0,2-Back,0,m,Wed May 07 2025 11:06:15 GMT-0400 (Eastern Daylight Time),772689.8000001907,109_y_m_h_a.png,I,z,1701,6,1,2718.5,769971.3000001907,9017,VNB,A,4
4,test,2,0.0,2-Back,1,m,Wed May 07 2025 11:06:15 GMT-0400 (Eastern Daylight Time),775156.1999998093,124_o_f_n_a.png,I,m,1439,7,1,2455.3999996185303,772700.8000001907,9017,VNB,A,5
5,test,2,1.0,2-Back,1,z,Wed May 07 2025 11:06:15 GMT-0400 (Eastern Daylight Time),777973.3999996185,039_o_m_h_a.png,I,z,1798,8,1,2805.800000190735,775167.5999994278,9017,VNB,A,6
6,test,2,0.0,2-Back,1,m,Wed May 07 2025 11:06:15 GMT-0400 (Eastern Daylight Time),780690.3000001907,071_y_f_d_a.png,I,m,1693,9,1,2705.4000005722046,777984.8999996185,9017,VNB,A,7
6,test,2,0.0,2-Back,0,m,Wed May 07 2025 11:06:15 GMT-0400 (Eastern Daylight Time),783723.6999998093,109_y_m_d_a.png,I,None,2015,10,1,3020.1000003814697,780703.5999994278,9017,VNB,A,8
6,test,2,0.0,2-Back,0,m,Wed May 07 2025 11:06:15 GMT-0400 (Eastern Daylight Time),786506.8999996185,165_m_m_n_a.png,I,z,1759,11,1,2769.5,783737.3999996185,9017,VNB,A,9
6,test,2,0.0,2-Back,0,m,Wed May 07 2025 11:06:15 GMT-0400 (Eastern Daylight Time),789540.1999998093,139_m_f_h_a.png,I,None,2016,12,1,3018.8999996185303,786521.3000001907,9017,VNB,A,10
6,test,2,1.0,2-Back,0,z,Wed May 07 2025 11:06:15 GMT-0400 (Eastern Daylight Time),792573.6999998093,039_o_m_n_a.png,I,None,2015,13,1,3020.699999809265,789553.0,9017,VNB,A,11
6,test,2,0.0,2-Back,0,m,Wed May 07 2025 11:06:15 GMT-0400 (Eastern Daylight Time),795606.1999998093,124_o_f_d_a.png,I,None,2015,14,1,3019.5,792586.6999998093,9017,VNB,A,12
6,test,2,0.0,2-Back,0,m,Wed May 07 2025 11:06:15 GMT-0400 (Eastern Daylight Time),798640.3000001907,071_y_f_h_a.png,I,None,2016,15,1,3023.7000007629395,795616.5999994278,9017,VNB,A,13
7,test,2,0.0,2-Back,1,z,Wed May 07 2025 11:06:15 GMT-0400 (Eastern Daylight Time),801023.5,165_m_m_d_a.png,I,z,1363,16,1,2369.800000190735,798653.6999998093,9017,VNB,A,14
8,test,2,0.0,2-Back,1,m,Wed May 07 2025 11:06:15 GMT-0400 (Eastern Daylight Time),803423.3999996185,109_y_m_n_a.png,I,m,1379,17,1,2387.0999994277954,801036.3000001907,9017,VNB,A,15
8,test,2,1.0,2-Back,0,m,Wed May 07 2025 11:06:15 GMT-0400 (Eastern Daylight Time),806457.0,139_m_f_n_a.png,I,None,2016,18,1,3020.4000005722046,803436.5999994278,9017,VNB,A,16
0,test,3,1.0,2-Back,,,Wed May 07 2025 11:06:15 GMT-0400 (Eastern Daylight Time),806457.0,039_o_m_n_a.png,I,space,2745,1,1,3020.4000005722046,803436.5999994278,9017,VNB,A,0
0,test,3,1.0,2-Back,,,Wed May 07 2025 11:06:15 GMT-0400 (Eastern Daylight Time),806457.0,124_o_f_d_a.png,I,space,2745,2,1,3020.4000005722046,803436.5999994278,9017,VNB,A,0
1,test,3,0.0,2-Back,1,m,Wed May 07 2025 11:06:15 GMT-0400 (Eastern Daylight Time),816390.0999994278,071_y_f_h_a.png,I,m,1106,3,1,2122.7999992370605,814267.3000001907,9017,VNB,A,1
1,test,3,0.0,2-Back,0,z,Wed May 07 2025 11:06:15 GMT-0400 (Eastern Daylight Time),819073.5,139_m_f_d_a.png,I,m,1660,4,1,2669.699999809265,816403.8000001907,9017,VNB,A,2
1,test,3,1.0,2-Back,0,m,Wed May 07 2025 11:06:15 GMT-0400 (Eastern Daylight Time),821640.0999994278,109_y_m_n_a.png,I,z,1537,5,1,2552.7999992370605,819087.3000001907,9017,VNB,A,3
2,test,3,0.0,2-Back,1,m,Wed May 07 2025 11:06:15 GMT-0400 (Eastern Daylight Time),824307.0,039_o_m_h_a.png,I,m,1642,6,1,2652.199999809265,821654.8000001907,9017,VNB,A,4
3,test,3,0.0,2-Back,1,z,Wed May 07 2025 11:06:15 GMT-0400 (Eastern Daylight Time),826406.8999996185,071_y_f_n_a.png,I,z,1073,7,1,2085.800000190735,824321.0999994278,9017,VNB,A,5
3,test,3,1.0,2-Back,0,m,Wed May 07 2025 11:06:15 GMT-0400 (Eastern Daylight Time),829040.1999998093,165_m_m_d_a.png,I,z,1603,8,1,2620.1000003814697,826420.0999994278,9017,VNB,A,6
3,test,3,0.0,2-Back,0,m,Wed May 07 2025 11:06:15 GMT-0400 (Eastern Daylight Time),831306.8000001907,109_y_m_d_a.png,I,z,1234,9,1,2253.800000190735,829053.0,9017,VNB,A,7
3,test,3,0.0,2-Back,0,m,Wed May 07 2025 11:06:15 GMT-0400 (Eastern Daylight Time),834340.1999998093,124_o_f_h_a.png,I,None,2015,10,1,3019.699999809265,831320.5,9017,VNB,A,8
4,test,3,1.0,2-Back,1,m,Wed May 07 2025 11:06:15 GMT-0400 (Eastern Daylight Time),836956.8000001907,139_m_f_n_a.png,I,m,1584,11,1,2602.6000003814697,834354.1999998093,9017,VNB,A,9
5,test,3,1.0,2-Back,1,z,Wed May 07 2025 11:06:15 GMT-0400 (Eastern Daylight Time),838940.0,165_m_m_h_a.png,I,z,949,12,1,1969.9000005722046,836970.0999994278,9017,VNB,A,10
5,test,3,0.0,2-Back,0,m,Wed May 07 2025 11:06:15 GMT-0400 (Eastern Daylight Time),841423.5999994278,071_y_f_d_a.png,I,z,1454,13,1,2470.3999996185303,838953.1999998093,9017,VNB,A,11
5,test,3,0.0,2-Back,0,m,Wed May 07 2025 11:06:15 GMT-0400 (Eastern Daylight Time),844456.5999994278,124_o_f_n_a.png,I,None,2016,14,1,3019.8999996185303,841436.6999998093,9017,VNB,A,12
5,test,3,0.0,2-Back,0,z,Wed May 07 2025 11:06:15 GMT-0400 (Eastern Daylight Time),847490.6999998093,039_o_m_d_a.png,I,None,2017,15,1,3020.5,844470.1999998093,9017,VNB,A,13
6,test,3,1.0,2-Back,1,m,Wed May 07 2025 11:06:15 GMT-0400 (Eastern Daylight Time),850240.0999994278,139_m_f_h_a.png,I,m,1720,16,1,2736.0,847504.0999994278,9017,VNB,A,14
6,test,3,0.0,2-Back,0,m,Wed May 07 2025 11:06:15 GMT-0400 (Eastern Daylight Time),853290.0,165_m_m_n_a.png,I,None,2016,17,1,3033.4000005722046,850256.5999994278,9017,VNB,A,15
7,test,3,0.0,2-Back,1,z,Wed May 07 2025 11:06:15 GMT-0400 (Eastern Daylight Time),856240.1999998093,109_y_m_h_a.png,I,z,1920,18,1,2936.699999809265,853303.5,9017,VNB,A,16
0,test,4,0.0,2-Back,,,Wed May 07 2025 11:06:15 GMT-0400 (Eastern Daylight Time),856240.1999998093,139_m_f_n_a.png,I,space,3194,1,1,2936.699999809265,853303.5,9017,VNB,A,0
0,test,4,0.0,2-Back,,,Wed May 07 2025 11:06:15 GMT-0400 (Eastern Daylight Time),856240.1999998093,039_o_m_n_a.png,I,space,3194,2,1,2936.699999809265,853303.5,9017,VNB,A,0
1,test,4,1.0,2-Back,1,m,Wed May 07 2025 11:06:15 GMT-0400 (Eastern Daylight Time),866923.5999994278,109_y_m_h_a.png,I,m,1350,3,1,2370.0,864553.5999994278,9017,VNB,A,1
1,test,4,1.0,2-Back,0,m,Wed May 07 2025 11:06:15 GMT-0400 (Eastern Daylight Time),869956.8000001907,124_o_f_d_a.png,I,None,2016,4,1,3019.2000007629395,866937.5999994278,9017,VNB,A,2
2,test,4,0.0,2-Back,1,z,Wed May 07 2025 11:06:15 GMT-0400 (Eastern Daylight Time),872540.0999994278,039_o_m_h_a.png,I,z,1550,5,1,2570.0,869970.0999994278,9017,VNB,A,3
3,test,4,0.0,2-Back,1,m,Wed May 07 2025 11:06:15 GMT-0400 (Eastern Daylight Time),875173.0,165_m_m_n_a.png,I,m,1613,6,1,2619.9000005722046,872553.0999994278,9017,VNB,A,4
4,test,4,0.0,2-Back,1,m,Wed May 07 2025 11:06:15 GMT-0400 (Eastern Daylight Time),877206.5,139_m_f_d_a.png,I,m,1005,7,1,2021.8000001907349,875184.6999998093,9017,VNB,A,5
5,test,4,0.0,2-Back,1,z,Wed May 07 2025 11:06:15 GMT-0400 (Eastern Daylight Time),879856.8000001907,071_y_f_n_a.png,I,z,1611,8,1,2634.5,877222.3000001907,9017,VNB,A,6
5,test,4,1.0,2-Back,0,m,Wed May 07 2025 11:06:15 GMT-0400 (Eastern Daylight Time),882106.0,124_o_f_h_a.png,I,z,1225,9,1,2235.300000190735,879870.6999998093,9017,VNB,A,7
6,test,4,0.0,2-Back,1,m,Wed May 07 2025 11:06:15 GMT-0400 (Eastern Daylight Time),884623.3000001907,165_m_m_h_a.png,I,m,1495,10,1,2502.300000190735,882121.0,9017,VNB,A,8
7,test,4,0.0,2-Back,1,m,Wed May 07 2025 11:06:15 GMT-0400 (Eastern Daylight Time),887289.5999994278,071_y_f_d_a.png,I,m,1643,11,1,2653.0999994277954,884636.5,9017,VNB,A,9
7,test,4,0.0,2-Back,0,m,Wed May 07 2025 11:06:15 GMT-0400 (Eastern Daylight Time),890323.3999996185,109_y_m_n_a.png,I,None,2015,12,1,3022.800000190735,887300.5999994278,9017,VNB,A,10
7,test,4,0.0,2-Back,0,z,Wed May 07 2025 11:06:15 GMT-0400 (Eastern Daylight Time),892706.6999998093,039_o_m_d_a.png,I,m,1359,13,1,2369.3999996185303,890337.3000001907,9017,VNB,A,11
8,test,4,1.0,2-Back,1,m,Wed May 07 2025 11:06:15 GMT-0400 (Eastern Daylight Time),895006.0999994278,139_m_f_h_a.png,I,m,1278,14,1,2286.0999994277954,892720.0,9017,VNB,A,12
8,test,4,1.0,2-Back,0,m,Wed May 07 2025 11:06:15 GMT-0400 (Eastern Daylight Time),897223.3000001907,071_y_f_h_a.png,I,z,1171,15,1,2198.7000007629395,895024.5999994278,9017,VNB,A,13
8,test,4,0.0,2-Back,0,m,Wed May 07 2025 11:06:15 GMT-0400 (Eastern Daylight Time),900023.5,124_o_f_n_a.png,I,z,1754,16,1,2783.699999809265,897239.8000001907,9017,VNB,A,14
9,test,4,0.0,2-Back,1,m,Wed May 07 2025 11:06:15 GMT-0400 (Eastern Daylight Time),902073.1999998093,109_y_m_d_a.png,I,m,1002,17,1,2034.3999996185303,900038.8000001907,9017,VNB,A,15
10,test,4,1.0,2-Back,1,m,Wed May 07 2025 11:06:15 GMT-0400 (Eastern Daylight Time),904623.3000001907,165_m_m_d_a.png,I,m,1512,18,1,2533.0,902090.3000001907,9017,VNB,A,16
0,test,5,1.0,2-Back,,,Wed May 07 2025 11:06:15 GMT-0400 (Eastern Daylight Time),904623.3000001907,071_y_f_d_a.png,I,space,1755,1,1,2533.0,902090.3000001907,9017,VNB,A,0
0,test,5,1.0,2-Back,,,Wed May 07 2025 11:06:15 GMT-0400 (Eastern Daylight Time),904623.3000001907,124_o_f_h_a.png,I,space,1755,2,1,2533.0,902090.3000001907,9017,VNB,A,0
1,test,5,1.0,2-Back,1,z,Wed May 07 2025 11:06:15 GMT-0400 (Eastern Daylight Time),914423.3000001907,039_o_m_d_a.png,I,z,1821,3,1,2837.6000003814697,911585.6999998093,9017,VNB,A,1
2,test,5,1.0,2-Back,1,m,Wed May 07 2025 11:06:15 GMT-0400 (Eastern Daylight Time),916456.0999994278,139_m_f_n_a.png,I,m,1010,4,1,2019.1999998092651,914436.8999996185,9017,VNB,A,2
3,test,5,0.0,2-Back,1,m,Wed May 07 2025 11:06:15 GMT-0400 (Eastern Daylight Time),919056.5,165_m_m_h_a.png,I,m,1566,5,1,2587.300000190735,916469.1999998093,9017,VNB,A,3
3,test,5,0.0,2-Back,0,z,Wed May 07 2025 11:06:15 GMT-0400 (Eastern Daylight Time),921506.5,071_y_f_n_a.png,I,m,1418,6,1,2437.300000190735,919069.1999998093,9017,VNB,A,4
3,test,5,0.0,2-Back,0,m,Wed May 07 2025 11:06:15 GMT-0400 (Eastern Daylight Time),923856.5,124_o_f_d_a.png,I,z,1320,7,1,2336.9000005722046,921519.5999994278,9017,VNB,A,5
3,test,5,0.0,2-Back,0,m,Wed May 07 2025 11:06:15 GMT-0400 (Eastern Daylight Time),926189.6999998093,039_o_m_h_a.png,I,z,1315,8,1,2319.5,923870.1999998093,9017,VNB,A,6
4,test,5,1.0,2-Back,1,z,Wed May 07 2025 11:06:15 GMT-0400 (Eastern Daylight Time),928589.6999998093,139_m_f_d_a.png,I,z,1380,9,1,2387.3999996185303,926202.3000001907,9017,VNB,A,7
5,test,5,0.0,2-Back,1,m,Wed May 07 2025 11:06:15 GMT-0400 (Eastern Daylight Time),930439.8999996185,109_y_m_n_a.png,I,m,828,10,1,1836.8000001907349,928603.0999994278,9017,VNB,A,8
6,test,5,0.0,2-Back,1,m,Wed May 07 2025 11:06:15 GMT-0400 (Eastern Daylight Time),932756.3999996185,165_m_m_n_a.png,I,m,1289,11,1,2301.3999996185303,930455.0,9017,VNB,A,9
7,test,5,0.0,2-Back,1,m,Wed May 07 2025 11:06:15 GMT-0400 (Eastern Daylight Time),934823.3999996185,071_y_f_h_a.png,I,m,1038,12,1,2054.199999809265,932769.1999998093,9017,VNB,A,10
8,test,5,0.0,2-Back,1,m,Wed May 07 2025 11:06:15 GMT-0400 (Eastern Daylight Time),937539.5,109_y_m_d_a.png,I,m,1690,13,1,2702.5,934837.0,9017,VNB,A,11
9,test,5,1.0,2-Back,1,z,Wed May 07 2025 11:06:15 GMT-0400 (Eastern Daylight Time),939206.3999996185,139_m_f_h_a.png,I,z,646,14,1,1657.0,937549.3999996185,9017,VNB,A,12
9,test,5,0.0,2-Back,0,m,Wed May 07 2025 11:06:15 GMT-0400 (Eastern Daylight Time),942240.0,039_o_m_n_a.png,I,None,2016,15,1,3019.6000003814697,939220.3999996185,9017,VNB,A,13
10,test,5,0.0,2-Back,1,m,Wed May 07 2025 11:06:15 GMT-0400 (Eastern Daylight Time),944756.6999998093,165_m_m_d_a.png,I,m,1490,16,1,2503.300000190735,942253.3999996185,9017,VNB,A,14
11,test,5,0.0,2-Back,1,z,Wed May 07 2025 11:06:15 GMT-0400 (Eastern Daylight Time),947656.3000001907,124_o_f_n_a.png,I,z,1853,17,1,2882.800000190735,944773.5,9017,VNB,A,15
12,test,5,1.0,2-Back,1,m,Wed May 07 2025 11:06:15 GMT-0400 (Eastern Daylight Time),950189.8999996185,109_y_m_h_a.png,I,m,1507,18,1,2518.0,947671.8999996185,9017,VNB,A,16
