block_c,block_dur,condition,countdown,datetime,endtime,list,multichar_response,project,response,response_time,session_number,start_end,starttime,subject_id,task,task_vers,trial
,,,,Wed Nov 19 2025 12:29:40 GMT-0600 (Central Standard Time),,,,O,space,404,1,,,7705,WL,C,
prac,,0,,Wed Nov 19 2025 12:29:40 GMT-0600 (Central Standard Time),,NA,b,O,b,2259,1,,,7705,WL,C,1.0
prac,,0,,Wed Nov 19 2025 12:29:40 GMT-0600 (Central Standard Time),,NA,bo,O,o,365,1,,,7705,WL,C,1.0
prac,,0,,Wed Nov 19 2025 12:29:40 GMT-0600 (Central Standard Time),,NA,boo,O,o,166,1,,,7705,WL,C,1.0
prac,,0,,Wed Nov 19 2025 12:29:40 GMT-0600 (Central Standard Time),,NA,boos,O,s,136,1,,,7705,WL,C,1.0
prac,,0,,Wed Nov 19 2025 12:29:40 GMT-0600 (Central Standard Time),,NA,boost,O,t,811,1,,,7705,WL,C,1.0
prac,,0,,Wed Nov 19 2025 12:29:40 GMT-0600 (Central Standard Time),,NA,boostenter,O,enter,1977,1,,,7705,WL,C,1.0
1,3.25,learn,56750.0,Wed Nov 19 2025 12:29:40 GMT-0600 (Central Standard Time),149154.0,A,t,O,t,3235,1,3249.5,145904.5,7705,WL,C,1.0
1,3.6010000705718994,learn,56398.9999294281,Wed Nov 19 2025 12:29:40 GMT-0600 (Central Standard Time),149505.0,A,to,O,o,343,1,3600.5,145904.5,7705,WL,C,1.0
1,3.75,learn,56250.0,Wed Nov 19 2025 12:29:40 GMT-0600 (Central Standard Time),149654.30000001192,A,tow,O,w,138,1,3749.800000011921,145904.5,7705,WL,C,1.0
1,3.934999942779541,learn,56065.00005722046,Wed Nov 19 2025 12:29:40 GMT-0600 (Central Standard Time),149839.5,A,towe,O,e,170,1,3935.0,145904.5,7705,WL,C,1.0
1,4.084000110626221,learn,55915.99988937378,Wed Nov 19 2025 12:29:40 GMT-0600 (Central Standard Time),149988.39999997616,A,tower,O,r,130,1,4083.899999976158,145904.5,7705,WL,C,1.0
1,4.766999959945679,learn,55233.00004005432,Wed Nov 19 2025 12:29:40 GMT-0600 (Central Standard Time),150671.10000002384,A,towerw,O,w,669,1,4766.600000023842,145904.5,7705,WL,C,1.0
1,4.933000087738037,learn,55066.99991226196,Wed Nov 19 2025 12:29:40 GMT-0600 (Central Standard Time),150836.80000001192,A,towerwh,O,h,157,1,4932.300000011921,145904.5,7705,WL,C,1.0
1,5.065999984741211,learn,54934.00001525879,Wed Nov 19 2025 12:29:40 GMT-0600 (Central Standard Time),150970.39999997616,A,towerwhe,O,e,117,1,5065.899999976158,145904.5,7705,WL,C,1.0
1,5.5309998989105225,learn,54469.00010108948,Wed Nov 19 2025 12:29:40 GMT-0600 (Central Standard Time),151435.60000002384,A,towerwh,O,backspace,453,1,5531.100000023842,145904.5,7705,WL,C,1.0
1,5.732000112533569,learn,54267.99988746643,Wed Nov 19 2025 12:29:40 GMT-0600 (Central Standard Time),151636.5,A,towerw,O,backspace,192,1,5732.0,145904.5,7705,WL,C,1.0
1,5.915999889373779,learn,54084.00011062622,Wed Nov 19 2025 12:29:40 GMT-0600 (Central Standard Time),151819.89999997616,A,tower,O,backspace,165,1,5915.399999976158,145904.5,7705,WL,C,1.0
1,6.098999977111816,learn,53901.00002288818,Wed Nov 19 2025 12:29:40 GMT-0600 (Central Standard Time),152002.89999997616,A,towe,O,backspace,176,1,6098.399999976158,145904.5,7705,WL,C,1.0
1,6.914999961853027,learn,53085.00003814697,Wed Nov 19 2025 12:29:40 GMT-0600 (Central Standard Time),152819.5,A,tower,O,r,801,1,6915.0,145904.5,7705,WL,C,1.0
1,7.598999977111816,learn,52401.00002288818,Wed Nov 19 2025 12:29:40 GMT-0600 (Central Standard Time),153503.19999998808,A,towerenter,O,enter,664,1,7598.699999988079,145904.5,7705,WL,C,1.0
1,8.698999881744385,learn,51301.000118255615,Wed Nov 19 2025 12:29:40 GMT-0600 (Central Standard Time),154603.5,A,w,O,w,1078,1,1100.0,153503.5,7705,WL,C,2.0
1,8.914999961853027,learn,51085.00003814697,Wed Nov 19 2025 12:29:40 GMT-0600 (Central Standard Time),154819.19999998808,A,wh,O,h,205,1,1315.699999988079,153503.5,7705,WL,C,2.0
1,9.214999914169312,learn,50785.00008583069,Wed Nov 19 2025 12:29:40 GMT-0600 (Central Standard Time),155119.0,A,whe,O,e,286,1,1615.5,153503.5,7705,WL,C,2.0
1,9.447999954223633,learn,50552.00004577637,Wed Nov 19 2025 12:29:40 GMT-0600 (Central Standard Time),155352.5,A,whea,O,a,210,1,1849.0,153503.5,7705,WL,C,2.0
1,9.614000082015991,learn,50385.99991798401,Wed Nov 19 2025 12:29:40 GMT-0600 (Central Standard Time),155518.60000002384,A,wheat,O,t,147,1,2015.1000000238419,153503.5,7705,WL,C,2.0
1,10.332000017166138,learn,49667.99998283386,Wed Nov 19 2025 12:29:40 GMT-0600 (Central Standard Time),156235.89999997616,A,wheatq,O,q,700,1,2732.399999976158,153503.5,7705,WL,C,2.0
1,10.865000009536743,learn,49134.99999046326,Wed Nov 19 2025 12:29:40 GMT-0600 (Central Standard Time),156769.19999998808,A,wheatqenter,O,enter,510,1,3265.699999988079,153503.5,7705,WL,C,2.0
1,12.880000114440918,learn,47119.99988555908,Wed Nov 19 2025 12:29:40 GMT-0600 (Central Standard Time),158784.10000002384,A,q,O,q,2000,1,2013.6000000238419,156770.5,7705,WL,C,3.0
1,13.21399998664856,learn,46786.00001335144,Wed Nov 19 2025 12:29:40 GMT-0600 (Central Standard Time),159118.19999998808,A,qu,O,u,321,1,2347.699999988079,156770.5,7705,WL,C,3.0
1,13.54699993133545,learn,46453.00006866455,Wed Nov 19 2025 12:29:40 GMT-0600 (Central Standard Time),159451.39999997616,A,que,O,e,316,1,2680.899999976158,156770.5,7705,WL,C,3.0
1,13.729000091552734,learn,46270.999908447266,Wed Nov 19 2025 12:29:40 GMT-0600 (Central Standard Time),159633.5,A,quee,O,e,165,1,2863.0,156770.5,7705,WL,C,3.0
1,13.897000074386597,learn,46102.9999256134,Wed Nov 19 2025 12:29:40 GMT-0600 (Central Standard Time),159800.89999997616,A,queen,O,n,162,1,3030.399999976158,156770.5,7705,WL,C,3.0
1,14.21399998664856,learn,45786.00001335144,Wed Nov 19 2025 12:29:40 GMT-0600 (Central Standard Time),160118.5,A,queenenter,O,enter,303,1,3348.0,156770.5,7705,WL,C,3.0
1,18.346999883651733,learn,41653.00011634827,Wed Nov 19 2025 12:29:40 GMT-0600 (Central Standard Time),164250.89999997616,A,b,O,b,4116,1,4132.099999964237,160118.80000001192,7705,WL,C,4.0
1,18.52900004386902,learn,41470.99995613098,Wed Nov 19 2025 12:29:40 GMT-0600 (Central Standard Time),164433.30000001192,A,bo,O,o,168,1,4314.5,160118.80000001192,7705,WL,C,4.0
1,18.828999996185303,learn,41171.0000038147,Wed Nov 19 2025 12:29:40 GMT-0600 (Central Standard Time),164733.39999997616,A,boy,O,y,282,1,4614.599999964237,160118.80000001192,7705,WL,C,4.0
1,19.295000076293945,learn,40704.999923706055,Wed Nov 19 2025 12:29:40 GMT-0600 (Central Standard Time),165199.39999997616,A,boyenter,O,enter,454,1,5080.599999964237,160118.80000001192,7705,WL,C,4.0
1,19.996999979019165,learn,40003.000020980835,Wed Nov 19 2025 12:29:40 GMT-0600 (Central Standard Time),165901.19999998808,A,h,O,h,694,1,701.5,165199.69999998808,7705,WL,C,5.0
1,20.177000045776367,learn,39822.99995422363,Wed Nov 19 2025 12:29:40 GMT-0600 (Central Standard Time),166081.60000002384,A,ho,O,o,165,1,881.9000000357628,165199.69999998808,7705,WL,C,5.0
1,20.311000108718872,learn,39688.99989128113,Wed Nov 19 2025 12:29:40 GMT-0600 (Central Standard Time),166215.30000001192,A,hom,O,m,119,1,1015.6000000238419,165199.69999998808,7705,WL,C,5.0
1,20.561000108718872,learn,39438.99989128113,Wed Nov 19 2025 12:29:40 GMT-0600 (Central Standard Time),166465.19999998808,A,home,O,e,240,1,1265.5,165199.69999998808,7705,WL,C,5.0
1,21.513000011444092,learn,38486.99998855591,Wed Nov 19 2025 12:29:40 GMT-0600 (Central Standard Time),167420.0,A,homeenter,O,enter,936,1,2220.300000011921,165199.69999998808,7705,WL,C,5.0
1,22.375999927520752,learn,37624.00007247925,Wed Nov 19 2025 12:29:40 GMT-0600 (Central Standard Time),168280.69999998808,A,f,O,f,844,1,860.0999999642372,167420.60000002384,7705,WL,C,6.0
1,22.594000101089478,learn,37405.99989891052,Wed Nov 19 2025 12:29:40 GMT-0600 (Central Standard Time),168498.19999998808,A,fl,O,l,210,1,1077.5999999642372,167420.60000002384,7705,WL,C,6.0
1,22.74399995803833,learn,37256.00004196167,Wed Nov 19 2025 12:29:40 GMT-0600 (Central Standard Time),168648.5,A,fla,O,a,141,1,1227.8999999761581,167420.60000002384,7705,WL,C,6.0
1,23.042999982833862,learn,36957.00001716614,Wed Nov 19 2025 12:29:40 GMT-0600 (Central Standard Time),168947.69999998808,A,flag,O,g,282,1,1527.0999999642372,167420.60000002384,7705,WL,C,6.0
1,23.361999988555908,learn,36638.00001144409,Wed Nov 19 2025 12:29:40 GMT-0600 (Central Standard Time),169265.80000001192,A,flagenter,O,enter,312,1,1845.199999988079,167420.60000002384,7705,WL,C,6.0
1,24.259999990463257,learn,35740.00000953674,Wed Nov 19 2025 12:29:40 GMT-0600 (Central Standard Time),170164.5,A,c,O,c,882,1,898.5,169266.0,7705,WL,C,7.0
1,24.408999919891357,learn,35591.00008010864,Wed Nov 19 2025 12:29:40 GMT-0600 (Central Standard Time),170313.69999998808,A,co,O,o,134,1,1047.699999988079,169266.0,7705,WL,C,7.0
1,24.594000101089478,learn,35405.99989891052,Wed Nov 19 2025 12:29:40 GMT-0600 (Central Standard Time),170498.30000001192,A,cor,O,r,178,1,1232.300000011921,169266.0,7705,WL,C,7.0
1,24.858999967575073,learn,35141.00003242493,Wed Nov 19 2025 12:29:40 GMT-0600 (Central Standard Time),170763.19999998808,A,corn,O,n,246,1,1497.199999988079,169266.0,7705,WL,C,7.0
1,25.16000008583069,learn,34839.99991416931,Wed Nov 19 2025 12:29:40 GMT-0600 (Central Standard Time),171064.19999998808,A,cornenter,O,enter,285,1,1798.199999988079,169266.0,7705,WL,C,7.0
1,25.793999910354614,learn,34206.000089645386,Wed Nov 19 2025 12:29:40 GMT-0600 (Central Standard Time),171698.60000002384,A,l,O,l,618,1,634.0,171064.60000002384,7705,WL,C,8.0
1,25.908999919891357,learn,34091.00008010864,Wed Nov 19 2025 12:29:40 GMT-0600 (Central Standard Time),171813.39999997616,A,le,O,e,95,1,748.7999999523163,171064.60000002384,7705,WL,C,8.0
1,26.127000093460083,learn,33872.99990653992,Wed Nov 19 2025 12:29:40 GMT-0600 (Central Standard Time),172031.10000002384,A,let,O,t,207,1,966.5,171064.60000002384,7705,WL,C,8.0
1,26.342999935150146,learn,33657.00006484985,Wed Nov 19 2025 12:29:40 GMT-0600 (Central Standard Time),172247.5,A,lett,O,t,194,1,1182.8999999761581,171064.60000002384,7705,WL,C,8.0
1,26.542999982833862,learn,33457.00001716614,Wed Nov 19 2025 12:29:40 GMT-0600 (Central Standard Time),172446.80000001192,A,lette,O,e,180,1,1382.199999988079,171064.60000002384,7705,WL,C,8.0
1,26.608999967575073,learn,33391.00003242493,Wed Nov 19 2025 12:29:40 GMT-0600 (Central Standard Time),172513.19999998808,A,letter,O,r,52,1,1448.5999999642372,171064.60000002384,7705,WL,C,8.0
1,26.97699999809265,learn,33023.00000190735,Wed Nov 19 2025 12:29:40 GMT-0600 (Central Standard Time),172881.30000001192,A,letterenter,O,enter,354,1,1816.699999988079,171064.60000002384,7705,WL,C,8.0
1,27.375999927520752,learn,32624.000072479248,Wed Nov 19 2025 12:29:40 GMT-0600 (Central Standard Time),173280.30000001192,A,s,O,s,378,1,398.69999998807907,172881.60000002384,7705,WL,C,9.0
1,27.543999910354614,learn,32456.000089645386,Wed Nov 19 2025 12:29:40 GMT-0600 (Central Standard Time),173448.30000001192,A,sh,O,h,153,1,566.6999999880791,172881.60000002384,7705,WL,C,9.0
1,27.691999912261963,learn,32308.000087738037,Wed Nov 19 2025 12:29:40 GMT-0600 (Central Standard Time),173596.19999998808,A,sho,O,o,138,1,714.5999999642372,172881.60000002384,7705,WL,C,9.0
1,27.79200005531311,learn,32207.99994468689,Wed Nov 19 2025 12:29:40 GMT-0600 (Central Standard Time),173696.10000002384,A,shor,O,r,86,1,814.5,172881.60000002384,7705,WL,C,9.0
1,27.927000045776367,learn,32072.999954223633,Wed Nov 19 2025 12:29:40 GMT-0600 (Central Standard Time),173831.60000002384,A,shore,O,e,115,1,950.0,172881.60000002384,7705,WL,C,9.0
1,28.757999897003174,learn,31242.000102996826,Wed Nov 19 2025 12:29:40 GMT-0600 (Central Standard Time),174661.89999997616,A,shoreenter,O,enter,819,1,1780.2999999523163,172881.60000002384,7705,WL,C,9.0
1,31.242000102996826,learn,28757.999897003174,Wed Nov 19 2025 12:29:40 GMT-0600 (Central Standard Time),177145.80000001192,A,n,O,n,2470,1,2483.600000023842,174662.19999998808,7705,WL,C,10.0
1,31.407999992370605,learn,28592.000007629395,Wed Nov 19 2025 12:29:40 GMT-0600 (Central Standard Time),177312.5,A,na,O,a,145,1,2650.300000011921,174662.19999998808,7705,WL,C,10.0
1,31.507999897003174,learn,28492.000102996826,Wed Nov 19 2025 12:29:40 GMT-0600 (Central Standard Time),177412.0,A,nai,O,i,83,1,2749.800000011921,174662.19999998808,7705,WL,C,10.0
1,31.707000017166138,learn,28292.999982833862,Wed Nov 19 2025 12:29:40 GMT-0600 (Central Standard Time),177611.69999998808,A,nail,O,l,182,1,2949.5,174662.19999998808,7705,WL,C,10.0
1,32.02500009536743,learn,27974.99990463257,Wed Nov 19 2025 12:29:40 GMT-0600 (Central Standard Time),177929.30000001192,A,nailenter,O,enter,310,1,3267.100000023842,174662.19999998808,7705,WL,C,10.0
1,41.704999923706055,learn,18295.000076293945,Wed Nov 19 2025 12:29:40 GMT-0600 (Central Standard Time),187609.30000001192,A,enter,O,enter,9660,1,9679.699999988079,177929.60000002384,7705,WL,C,11.0
1,42.45300006866455,learn,17546.99993133545,Wed Nov 19 2025 12:29:40 GMT-0600 (Central Standard Time),188357.5,A,enter,O,enter,739,1,747.8999999761581,187609.60000002384,7705,WL,C,12.0
1,42.9539999961853,learn,17046.000003814697,Wed Nov 19 2025 12:29:40 GMT-0600 (Central Standard Time),188858.10000002384,A,enter,O,enter,495,1,500.30000001192093,188357.80000001192,7705,WL,C,13.0
1,43.50500011444092,learn,16494.999885559082,Wed Nov 19 2025 12:29:40 GMT-0600 (Central Standard Time),189409.69999998808,A,enter,O,enter,537,1,551.3000000119209,188858.39999997616,7705,WL,C,14.0
1,44.3050000667572,learn,15694.999933242798,Wed Nov 19 2025 12:29:40 GMT-0600 (Central Standard Time),190208.89999997616,A,enter,O,enter,795,1,799.0,189409.89999997616,7705,WL,C,15.0
2,1.496999979019165,learn,58503.000020980835,Wed Nov 19 2025 12:29:40 GMT-0600 (Central Standard Time),258934.80000001192,A,t,O,t,1486,1,1497.5,257437.30000001192,7705,WL,C,1.0
2,1.7669999599456787,learn,58233.00004005432,Wed Nov 19 2025 12:29:40 GMT-0600 (Central Standard Time),259204.10000002384,A,to,O,o,266,1,1766.800000011921,257437.30000001192,7705,WL,C,1.0
2,1.8650000095367432,learn,58134.99999046326,Wed Nov 19 2025 12:29:40 GMT-0600 (Central Standard Time),259302.39999997616,A,tow,O,w,86,1,1865.0999999642372,257437.30000001192,7705,WL,C,1.0
2,2.183000087738037,learn,57816.99991226196,Wed Nov 19 2025 12:29:40 GMT-0600 (Central Standard Time),259620.10000002384,A,towe,O,e,300,1,2182.800000011921,257437.30000001192,7705,WL,C,1.0
2,2.2139999866485596,learn,57786.00001335144,Wed Nov 19 2025 12:29:40 GMT-0600 (Central Standard Time),259651.10000002384,A,tower,O,r,20,1,2213.800000011921,257437.30000001192,7705,WL,C,1.0
2,2.563999891281128,learn,57436.00010871887,Wed Nov 19 2025 12:29:40 GMT-0600 (Central Standard Time),260001.69999998808,A,towerenter,O,enter,347,1,2564.399999976158,257437.30000001192,7705,WL,C,1.0
2,3.430999994277954,learn,56569.000005722046,Wed Nov 19 2025 12:29:40 GMT-0600 (Central Standard Time),260868.39999997616,A,q,O,q,857,1,866.3999999761581,260002.0,7705,WL,C,2.0
2,3.813999891281128,learn,56186.00010871887,Wed Nov 19 2025 12:29:40 GMT-0600 (Central Standard Time),261251.80000001192,A,qu,O,u,365,1,1249.800000011921,260002.0,7705,WL,C,2.0
2,4.107000112533569,learn,55892.99988746643,Wed Nov 19 2025 12:29:40 GMT-0600 (Central Standard Time),261544.60000002384,A,que,O,e,268,1,1542.6000000238419,260002.0,7705,WL,C,2.0
2,4.312999963760376,learn,55687.000036239624,Wed Nov 19 2025 12:29:40 GMT-0600 (Central Standard Time),261750.5,A,quee,O,e,187,1,1748.5,260002.0,7705,WL,C,2.0
2,4.4670000076293945,learn,55532.999992370605,Wed Nov 19 2025 12:29:40 GMT-0600 (Central Standard Time),261904.69999998808,A,queen,O,n,150,1,1902.699999988079,260002.0,7705,WL,C,2.0
2,4.796999931335449,learn,55203.00006866455,Wed Nov 19 2025 12:29:40 GMT-0600 (Central Standard Time),262234.6999999881,A,queenw,O,w,312,1,2232.699999988079,260002.0,7705,WL,C,2.0
2,4.947999954223633,learn,55052.00004577637,Wed Nov 19 2025 12:29:40 GMT-0600 (Central Standard Time),262385.39999997616,A,queenwh,O,h,142,1,2383.399999976158,260002.0,7705,WL,C,2.0
2,5.232000112533569,learn,54767.99988746643,Wed Nov 19 2025 12:29:40 GMT-0600 (Central Standard Time),262669.8000000119,A,queenwhe,O,e,272,1,2667.800000011921,260002.0,7705,WL,C,2.0
2,5.5970001220703125,learn,54402.99987792969,Wed Nov 19 2025 12:29:40 GMT-0600 (Central Standard Time),263034.3000000119,A,queenwh,O,backspace,340,1,3032.300000011921,260002.0,7705,WL,C,2.0
2,5.796999931335449,learn,54203.00006866455,Wed Nov 19 2025 12:29:40 GMT-0600 (Central Standard Time),263235.0,A,queenw,O,backspace,191,1,3233.0,260002.0,7705,WL,C,2.0
2,5.980000019073486,learn,54019.999980926514,Wed Nov 19 2025 12:29:40 GMT-0600 (Central Standard Time),263417.6999999881,A,queen,O,backspace,172,1,3415.699999988079,260002.0,7705,WL,C,2.0
2,6.413000106811523,learn,53586.99989318848,Wed Nov 19 2025 12:29:40 GMT-0600 (Central Standard Time),263850.8000000119,A,queenenter,O,enter,417,1,3848.800000011921,260002.0,7705,WL,C,2.0
2,7.046999931335449,learn,52953.00006866455,Wed Nov 19 2025 12:29:40 GMT-0600 (Central Standard Time),264484.60000002384,A,w,O,w,625,1,633.5,263851.10000002384,7705,WL,C,3.0
2,7.312999963760376,learn,52687.000036239624,Wed Nov 19 2025 12:29:40 GMT-0600 (Central Standard Time),264750.39999997616,A,wh,O,h,251,1,899.2999999523163,263851.10000002384,7705,WL,C,3.0
2,7.446000099182129,learn,52553.99990081787,Wed Nov 19 2025 12:29:40 GMT-0600 (Central Standard Time),264883.5,A,whe,O,e,116,1,1032.3999999761581,263851.10000002384,7705,WL,C,3.0
2,7.663000106811523,learn,52336.99989318848,Wed Nov 19 2025 12:29:40 GMT-0600 (Central Standard Time),265100.1999999881,A,whea,O,a,195,1,1249.0999999642372,263851.10000002384,7705,WL,C,3.0
2,7.796000003814697,learn,52203.9999961853,Wed Nov 19 2025 12:29:40 GMT-0600 (Central Standard Time),265233.60000002384,A,wheat,O,t,116,1,1382.5,263851.10000002384,7705,WL,C,3.0
2,8.29699993133545,learn,51703.00006866455,Wed Nov 19 2025 12:29:40 GMT-0600 (Central Standard Time),265734.6999999881,A,wheatenter,O,enter,480,1,1883.5999999642372,263851.10000002384,7705,WL,C,3.0
2,8.847000122070312,learn,51152.99987792969,Wed Nov 19 2025 12:29:40 GMT-0600 (Central Standard Time),266284.10000002384,A,s,O,s,532,1,549.2000000476837,265734.89999997616,7705,WL,C,4.0
2,8.995000123977661,learn,51004.99987602234,Wed Nov 19 2025 12:29:40 GMT-0600 (Central Standard Time),266432.89999997616,A,su,O,u,138,1,698.0,265734.89999997616,7705,WL,C,4.0
2,9.19700002670288,learn,50802.99997329712,Wed Nov 19 2025 12:29:40 GMT-0600 (Central Standard Time),266634.5,A,sug,O,g,194,1,899.6000000238419,265734.89999997616,7705,WL,C,4.0
2,9.480000019073486,learn,50519.999980926514,Wed Nov 19 2025 12:29:40 GMT-0600 (Central Standard Time),266917.39999997616,A,suga,O,a,262,1,1182.5,265734.89999997616,7705,WL,C,4.0
2,9.696000099182129,learn,50303.99990081787,Wed Nov 19 2025 12:29:40 GMT-0600 (Central Standard Time),267133.8000000119,A,sugar,O,r,194,1,1398.9000000357628,265734.89999997616,7705,WL,C,4.0
2,10.611999988555908,learn,49388.00001144409,Wed Nov 19 2025 12:29:40 GMT-0600 (Central Standard Time),268049.60000002384,A,sugarenter,O,enter,900,1,2314.7000000476837,265734.89999997616,7705,WL,C,4.0
2,11.245000123977661,learn,48754.99987602234,Wed Nov 19 2025 12:29:40 GMT-0600 (Central Standard Time),268682.89999997616,A,h,O,h,618,1,633.0999999642372,268049.8000000119,7705,WL,C,5.0
2,11.461999893188477,learn,48538.00010681152,Wed Nov 19 2025 12:29:40 GMT-0600 (Central Standard Time),268899.1999999881,A,ho,O,o,199,1,849.3999999761581,268049.8000000119,7705,WL,C,5.0
2,11.562000036239624,learn,48437.999963760376,Wed Nov 19 2025 12:29:40 GMT-0600 (Central Standard Time),268999.60000002384,A,hom,O,m,87,1,949.8000000119209,268049.8000000119,7705,WL,C,5.0
2,11.746000051498413,learn,48253.99994850159,Wed Nov 19 2025 12:29:40 GMT-0600 (Central Standard Time),269183.3000000119,A,home,O,e,166,1,1133.5,268049.8000000119,7705,WL,C,5.0
2,12.01200008392334,learn,47987.99991607666,Wed Nov 19 2025 12:29:40 GMT-0600 (Central Standard Time),269449.1999999881,A,homeenter,O,enter,250,1,1399.3999999761581,268049.8000000119,7705,WL,C,5.0
2,13.260999917984009,learn,46739.00008201599,Wed Nov 19 2025 12:29:40 GMT-0600 (Central Standard Time),270698.89999997616,A,b,O,b,1234,1,1249.5,269449.39999997616,7705,WL,C,6.0
2,13.42799997329712,learn,46572.00002670288,Wed Nov 19 2025 12:29:40 GMT-0600 (Central Standard Time),270865.5,A,bo,O,o,149,1,1416.1000000238419,269449.39999997616,7705,WL,C,6.0
2,13.677000045776367,learn,46322.99995422363,Wed Nov 19 2025 12:29:40 GMT-0600 (Central Standard Time),271114.60000002384,A,boy,O,y,230,1,1665.2000000476837,269449.39999997616,7705,WL,C,6.0
2,14.144999980926514,learn,45855.000019073486,Wed Nov 19 2025 12:29:40 GMT-0600 (Central Standard Time),271582.1999999881,A,boyenter,O,enter,456,1,2132.800000011921,269449.39999997616,7705,WL,C,6.0
2,15.260999917984009,learn,44739.00008201599,Wed Nov 19 2025 12:29:40 GMT-0600 (Central Standard Time),272698.5,A,d,O,d,1111,1,1116.0,271582.5,7705,WL,C,7.0
2,15.41100001335144,learn,44588.99998664856,Wed Nov 19 2025 12:29:40 GMT-0600 (Central Standard Time),272848.39999997616,A,do,O,o,128,1,1265.8999999761581,271582.5,7705,WL,C,7.0
2,15.57699990272522,learn,44423.00009727478,Wed Nov 19 2025 12:29:40 GMT-0600 (Central Standard Time),273015.0,A,doc,O,c,151,1,1432.5,271582.5,7705,WL,C,7.0
2,15.812000036239624,learn,44187.999963760376,Wed Nov 19 2025 12:29:40 GMT-0600 (Central Standard Time),273249.3000000119,A,doct,O,t,223,1,1666.800000011921,271582.5,7705,WL,C,7.0
2,16.026999950408936,learn,43973.000049591064,Wed Nov 19 2025 12:29:40 GMT-0600 (Central Standard Time),273464.0,A,docto,O,o,206,1,1881.5,271582.5,7705,WL,C,7.0
2,16.227999925613403,learn,43772.0000743866,Wed Nov 19 2025 12:29:40 GMT-0600 (Central Standard Time),273665.3000000119,A,doctor,O,r,178,1,2082.800000011921,271582.5,7705,WL,C,7.0
2,16.543999910354614,learn,43456.000089645386,Wed Nov 19 2025 12:29:40 GMT-0600 (Central Standard Time),273981.3000000119,A,doctorenter,O,enter,303,1,2398.800000011921,271582.5,7705,WL,C,7.0
2,17.24399995803833,learn,42756.00004196167,Wed Nov 19 2025 12:29:40 GMT-0600 (Central Standard Time),274681.10000002384,A,c,O,c,694,1,699.5,273981.60000002384,7705,WL,C,8.0
2,17.49399995803833,learn,42506.00004196167,Wed Nov 19 2025 12:29:40 GMT-0600 (Central Standard Time),274931.5,A,ca,O,a,243,1,949.8999999761581,273981.60000002384,7705,WL,C,8.0
2,17.609999895095825,learn,42390.000104904175,Wed Nov 19 2025 12:29:40 GMT-0600 (Central Standard Time),275047.60000002384,A,cam,O,m,103,1,1066.0,273981.60000002384,7705,WL,C,8.0
2,17.877000093460083,learn,42122.99990653992,Wed Nov 19 2025 12:29:40 GMT-0600 (Central Standard Time),275314.39999997616,A,camp,O,p,247,1,1332.7999999523163,273981.60000002384,7705,WL,C,8.0
2,18.443000078201294,learn,41556.999921798706,Wed Nov 19 2025 12:29:40 GMT-0600 (Central Standard Time),275880.60000002384,A,campenter,O,enter,554,1,1899.0,273981.60000002384,7705,WL,C,8.0
2,19.676000118255615,learn,40323.999881744385,Wed Nov 19 2025 12:29:40 GMT-0600 (Central Standard Time),277113.5,A,f,O,f,1226,1,1232.6000000238419,275880.89999997616,7705,WL,C,9.0
2,19.9760000705719,learn,40023.9999294281,Wed Nov 19 2025 12:29:40 GMT-0600 (Central Standard Time),277413.8000000119,A,fl,O,l,279,1,1532.9000000357628,275880.89999997616,7705,WL,C,9.0
2,20.127000093460083,learn,39872.99990653992,Wed Nov 19 2025 12:29:40 GMT-0600 (Central Standard Time),277564.6999999881,A,fla,O,a,131,1,1683.800000011921,275880.89999997616,7705,WL,C,9.0
2,20.408999919891357,learn,39591.00008010864,Wed Nov 19 2025 12:29:40 GMT-0600 (Central Standard Time),277846.39999997616,A,flag,O,g,270,1,1965.5,275880.89999997616,7705,WL,C,9.0
2,20.842999935150146,learn,39157.00006484985,Wed Nov 19 2025 12:29:40 GMT-0600 (Central Standard Time),278280.0,A,flagenter,O,enter,415,1,2399.100000023842,275880.89999997616,7705,WL,C,9.0
2,21.342999935150146,learn,38657.00006484985,Wed Nov 19 2025 12:29:40 GMT-0600 (Central Standard Time),278780.10000002384,A,l,O,l,491,1,499.9000000357628,278280.1999999881,7705,WL,C,10.0
2,21.507999897003174,learn,38492.000102996826,Wed Nov 19 2025 12:29:40 GMT-0600 (Central Standard Time),278945.89999997616,A,le,O,e,149,1,665.6999999880791,278280.1999999881,7705,WL,C,10.0
2,21.694000005722046,learn,38305.999994277954,Wed Nov 19 2025 12:29:40 GMT-0600 (Central Standard Time),279131.6999999881,A,let,O,t,176,1,851.5,278280.1999999881,7705,WL,C,10.0
2,21.907999992370605,learn,38092.000007629395,Wed Nov 19 2025 12:29:40 GMT-0600 (Central Standard Time),279345.5,A,lett,O,t,199,1,1065.300000011921,278280.1999999881,7705,WL,C,10.0
2,22.092000007629395,learn,37907.999992370605,Wed Nov 19 2025 12:29:40 GMT-0600 (Central Standard Time),279529.10000002384,A,lette,O,e,177,1,1248.9000000357628,278280.1999999881,7705,WL,C,10.0
2,22.157999992370605,learn,37842.000007629395,Wed Nov 19 2025 12:29:40 GMT-0600 (Central Standard Time),279595.39999997616,A,letter,O,r,55,1,1315.199999988079,278280.1999999881,7705,WL,C,10.0
2,23.05900001525879,learn,36940.99998474121,Wed Nov 19 2025 12:29:40 GMT-0600 (Central Standard Time),280496.10000002384,A,letterenter,O,enter,876,1,2215.900000035763,278280.1999999881,7705,WL,C,10.0
2,23.64199995994568,learn,36358.00004005432,Wed Nov 19 2025 12:29:40 GMT-0600 (Central Standard Time),281079.6999999881,A,n,O,n,564,1,583.3999999761581,280496.3000000119,7705,WL,C,11.0
2,23.79200005531311,learn,36207.99994468689,Wed Nov 19 2025 12:29:40 GMT-0600 (Central Standard Time),281229.39999997616,A,na,O,a,135,1,733.0999999642372,280496.3000000119,7705,WL,C,11.0
2,23.908999919891357,learn,36091.00008010864,Wed Nov 19 2025 12:29:40 GMT-0600 (Central Standard Time),281346.1999999881,A,nai,O,i,98,1,849.8999999761581,280496.3000000119,7705,WL,C,11.0
2,24.124000072479248,learn,35875.99992752075,Wed Nov 19 2025 12:29:40 GMT-0600 (Central Standard Time),281562.0,A,nail,O,l,200,1,1065.699999988079,280496.3000000119,7705,WL,C,11.0
2,24.60700011253357,learn,35392.99988746643,Wed Nov 19 2025 12:29:40 GMT-0600 (Central Standard Time),282044.8000000119,A,nailc,O,c,470,1,1548.5,280496.3000000119,7705,WL,C,11.0
2,24.79099988937378,learn,35209.00011062622,Wed Nov 19 2025 12:29:40 GMT-0600 (Central Standard Time),282228.10000002384,A,nailco,O,o,162,1,1731.800000011921,280496.3000000119,7705,WL,C,11.0
2,25.240999937057495,learn,34759.000062942505,Wed Nov 19 2025 12:29:40 GMT-0600 (Central Standard Time),282678.3000000119,A,nailc,O,backspace,438,1,2182.0,280496.3000000119,7705,WL,C,11.0
2,25.44099998474121,learn,34559.00001525879,Wed Nov 19 2025 12:29:40 GMT-0600 (Central Standard Time),282878.8000000119,A,nail,O,backspace,190,1,2382.5,280496.3000000119,7705,WL,C,11.0
2,25.824000120162964,learn,34175.999879837036,Wed Nov 19 2025 12:29:40 GMT-0600 (Central Standard Time),283261.8000000119,A,nailenter,O,enter,361,1,2765.5,280496.3000000119,7705,WL,C,11.0
2,26.374000072479248,learn,33625.99992752075,Wed Nov 19 2025 12:29:40 GMT-0600 (Central Standard Time),283811.6999999881,A,c,O,c,541,1,549.5999999642372,283262.10000002384,7705,WL,C,12.0
2,26.54099988937378,learn,33459.00011062622,Wed Nov 19 2025 12:29:40 GMT-0600 (Central Standard Time),283978.89999997616,A,co,O,o,154,1,716.7999999523163,283262.10000002384,7705,WL,C,12.0
2,26.740999937057495,learn,33259.000062942505,Wed Nov 19 2025 12:29:40 GMT-0600 (Central Standard Time),284178.6999999881,A,cor,O,r,180,1,916.5999999642372,283262.10000002384,7705,WL,C,12.0
2,26.973999977111816,learn,33026.00002288818,Wed Nov 19 2025 12:29:40 GMT-0600 (Central Standard Time),284411.10000002384,A,corn,O,n,222,1,1149.0,283262.10000002384,7705,WL,C,12.0
2,27.64199995994568,learn,32358.00004005432,Wed Nov 19 2025 12:29:40 GMT-0600 (Central Standard Time),285079.39999997616,A,cornenter,O,enter,650,1,1817.2999999523163,283262.10000002384,7705,WL,C,12.0
2,28.256999969482422,learn,31743.000030517578,Wed Nov 19 2025 12:29:40 GMT-0600 (Central Standard Time),285694.1999999881,A,s,O,s,602,1,610.8999999761581,285083.3000000119,7705,WL,C,13.0
2,28.375,learn,31625.0,Wed Nov 19 2025 12:29:40 GMT-0600 (Central Standard Time),285812.0,A,sh,O,h,110,1,728.6999999880791,285083.3000000119,7705,WL,C,13.0
2,28.52300000190735,learn,31476.99999809265,Wed Nov 19 2025 12:29:40 GMT-0600 (Central Standard Time),285960.8000000119,A,sho,O,o,139,1,877.5,285083.3000000119,7705,WL,C,13.0
2,28.622999906539917,learn,31377.000093460083,Wed Nov 19 2025 12:29:40 GMT-0600 (Central Standard Time),286060.0,A,shor,O,r,79,1,976.6999999880791,285083.3000000119,7705,WL,C,13.0
2,28.740999937057495,learn,31259.000062942505,Wed Nov 19 2025 12:29:40 GMT-0600 (Central Standard Time),286178.10000002384,A,shore,O,e,102,1,1094.800000011921,285083.3000000119,7705,WL,C,13.0
2,29.456000089645386,learn,30543.999910354614,Wed Nov 19 2025 12:29:40 GMT-0600 (Central Standard Time),286893.10000002384,A,shoreenter,O,enter,700,1,1809.800000011921,285083.3000000119,7705,WL,C,13.0
2,29.706000089645386,learn,30293.999910354614,Wed Nov 19 2025 12:29:40 GMT-0600 (Central Standard Time),287143.60000002384,A,b,O,b,230,1,250.20000004768372,286893.39999997616,7705,WL,C,14.0
2,29.94000005722046,learn,30059.99994277954,Wed Nov 19 2025 12:29:40 GMT-0600 (Central Standard Time),287377.0,A,bo,O,o,225,1,483.60000002384186,286893.39999997616,7705,WL,C,14.0
2,30.206000089645386,learn,29793.999910354614,Wed Nov 19 2025 12:29:40 GMT-0600 (Central Standard Time),287643.10000002384,A,bod,O,d,257,1,749.7000000476837,286893.39999997616,7705,WL,C,14.0
2,30.50600004196167,learn,29493.99995803833,Wed Nov 19 2025 12:29:40 GMT-0600 (Central Standard Time),287943.39999997616,A,body,O,y,286,1,1050.0,286893.39999997616,7705,WL,C,14.0
2,31.388999938964844,learn,28611.000061035156,Wed Nov 19 2025 12:29:40 GMT-0600 (Central Standard Time),288826.6999999881,A,bodyenter,O,enter,864,1,1933.300000011921,286893.39999997616,7705,WL,C,14.0
2,36.65400004386902,learn,23345.99995613098,Wed Nov 19 2025 12:29:40 GMT-0600 (Central Standard Time),294091.1999999881,A,enter,O,enter,5256,1,5264.199999988079,288827.0,7705,WL,C,15.0
3,2.116999864578247,learn,57883.00013542175,Wed Nov 19 2025 12:29:40 GMT-0600 (Central Standard Time),365852.39999997616,A,t,O,t,2099,1,2116.199999988079,363736.1999999881,7705,WL,C,1.0
3,2.3320000171661377,learn,57667.99998283386,Wed Nov 19 2025 12:29:40 GMT-0600 (Central Standard Time),366067.6999999881,A,to,O,o,198,1,2331.5,363736.1999999881,7705,WL,C,1.0
3,2.4499998092651367,learn,57550.00019073486,Wed Nov 19 2025 12:29:40 GMT-0600 (Central Standard Time),366185.60000002384,A,tow,O,w,104,1,2449.400000035763,363736.1999999881,7705,WL,C,1.0
3,2.6659998893737793,learn,57334.00011062622,Wed Nov 19 2025 12:29:40 GMT-0600 (Central Standard Time),366402.0,A,towe,O,e,211,1,2665.800000011921,363736.1999999881,7705,WL,C,1.0
3,2.7319998741149902,learn,57268.00012588501,Wed Nov 19 2025 12:29:40 GMT-0600 (Central Standard Time),366467.8000000119,A,tower,O,r,56,1,2731.600000023842,363736.1999999881,7705,WL,C,1.0
3,3.5829999446868896,learn,56417.00005531311,Wed Nov 19 2025 12:29:40 GMT-0600 (Central Standard Time),367318.6999999881,A,towerenter,O,enter,832,1,3582.5,363736.1999999881,7705,WL,C,1.0
3,4.266999959945679,learn,55733.00004005432,Wed Nov 19 2025 12:29:40 GMT-0600 (Central Standard Time),368002.1999999881,A,w,O,w,676,1,683.1999999880791,367319.0,7705,WL,C,2.0
3,4.56499981880188,learn,55435.00018119812,Wed Nov 19 2025 12:29:40 GMT-0600 (Central Standard Time),368300.8000000119,A,wh,O,h,288,1,981.8000000119209,367319.0,7705,WL,C,2.0
3,4.747999906539917,learn,55252.00009346008,Wed Nov 19 2025 12:29:40 GMT-0600 (Central Standard Time),368484.10000002384,A,whe,O,e,175,1,1165.1000000238419,367319.0,7705,WL,C,2.0
3,4.998999834060669,learn,55001.00016593933,Wed Nov 19 2025 12:29:40 GMT-0600 (Central Standard Time),368734.5,A,whea,O,a,242,1,1415.5,367319.0,7705,WL,C,2.0
3,5.132999897003174,learn,54867.000102996826,Wed Nov 19 2025 12:29:40 GMT-0600 (Central Standard Time),368868.6999999881,A,wheat,O,t,116,1,1549.699999988079,367319.0,7705,WL,C,2.0
3,5.380999803543091,learn,54619.00019645691,Wed Nov 19 2025 12:29:40 GMT-0600 (Central Standard Time),369116.60000002384,A,wheatenter,O,enter,229,1,1797.6000000238419,367319.0,7705,WL,C,2.0
3,5.932999849319458,learn,54067.00015068054,Wed Nov 19 2025 12:29:40 GMT-0600 (Central Standard Time),369668.1999999881,A,q,O,q,535,1,551.3000000119209,369116.89999997616,7705,WL,C,3.0
3,6.082000017166138,learn,53917.99998283386,Wed Nov 19 2025 12:29:40 GMT-0600 (Central Standard Time),369817.5,A,qu,O,u,144,1,700.6000000238419,369116.89999997616,7705,WL,C,3.0
3,6.264999866485596,learn,53735.000133514404,Wed Nov 19 2025 12:29:40 GMT-0600 (Central Standard Time),370000.89999997616,A,que,O,e,162,1,884.0,369116.89999997616,7705,WL,C,3.0
3,6.4649999141693115,learn,53535.00008583069,Wed Nov 19 2025 12:29:40 GMT-0600 (Central Standard Time),370200.3000000119,A,quee,O,e,185,1,1083.4000000357628,369116.89999997616,7705,WL,C,3.0
3,6.665999889373779,learn,53334.00011062622,Wed Nov 19 2025 12:29:40 GMT-0600 (Central Standard Time),370401.60000002384,A,queen,O,n,197,1,1284.7000000476837,369116.89999997616,7705,WL,C,3.0
3,7.097999811172485,learn,52902.000188827515,Wed Nov 19 2025 12:29:40 GMT-0600 (Central Standard Time),370833.6999999881,A,queenenter,O,enter,418,1,1716.800000011921,369116.89999997616,7705,WL,C,3.0
3,8.131999969482422,learn,51868.00003051758,Wed Nov 19 2025 12:29:40 GMT-0600 (Central Standard Time),371867.60000002384,A,s,O,s,1012,1,1033.6000000238419,370834.0,7705,WL,C,4.0
3,8.367999792098999,learn,51632.000207901,Wed Nov 19 2025 12:29:40 GMT-0600 (Central Standard Time),372103.89999997616,A,su,O,u,216,1,1269.8999999761581,370834.0,7705,WL,C,4.0
3,8.514999866485596,learn,51485.000133514404,Wed Nov 19 2025 12:29:40 GMT-0600 (Central Standard Time),372250.60000002384,A,sug,O,g,131,1,1416.6000000238419,370834.0,7705,WL,C,4.0
3,8.830999851226807,learn,51169.00014877319,Wed Nov 19 2025 12:29:40 GMT-0600 (Central Standard Time),372566.60000002384,A,suga,O,a,297,1,1732.6000000238419,370834.0,7705,WL,C,4.0
3,9.02999997138977,learn,50970.00002861023,Wed Nov 19 2025 12:29:40 GMT-0600 (Central Standard Time),372766.0,A,sugar,O,r,181,1,1932.0,370834.0,7705,WL,C,4.0
3,9.363999843597412,learn,50636.00015640259,Wed Nov 19 2025 12:29:40 GMT-0600 (Central Standard Time),373099.1999999881,A,sugarenter,O,enter,318,1,2265.199999988079,370834.0,7705,WL,C,4.0
3,10.346999883651733,learn,49653.00011634827,Wed Nov 19 2025 12:29:40 GMT-0600 (Central Standard Time),374082.3000000119,A,h,O,h,968,1,982.8000000119209,373099.5,7705,WL,C,5.0
3,10.513999938964844,learn,49486.000061035156,Wed Nov 19 2025 12:29:40 GMT-0600 (Central Standard Time),374249.8000000119,A,ho,O,o,162,1,1150.300000011921,373099.5,7705,WL,C,5.0
3,10.662999868392944,learn,49337.000131607056,Wed Nov 19 2025 12:29:40 GMT-0600 (Central Standard Time),374398.89999997616,A,hom,O,m,137,1,1299.3999999761581,373099.5,7705,WL,C,5.0
3,10.83299994468689,learn,49167.00005531311,Wed Nov 19 2025 12:29:40 GMT-0600 (Central Standard Time),374568.3000000119,A,home,O,e,165,1,1468.800000011921,373099.5,7705,WL,C,5.0
3,11.13099980354309,learn,48869.00019645691,Wed Nov 19 2025 12:29:40 GMT-0600 (Central Standard Time),374866.3000000119,A,homeenter,O,enter,283,1,1766.800000011921,373099.5,7705,WL,C,5.0
3,11.846999883651733,learn,48153.00011634827,Wed Nov 19 2025 12:29:40 GMT-0600 (Central Standard Time),375582.3000000119,A,b,O,b,704,1,715.4000000357628,374866.89999997616,7705,WL,C,6.0
3,11.962999820709229,learn,48037.00017929077,Wed Nov 19 2025 12:29:40 GMT-0600 (Central Standard Time),375698.8000000119,A,bo,O,o,109,1,831.9000000357628,374866.89999997616,7705,WL,C,6.0
3,12.245999813079834,learn,47754.000186920166,Wed Nov 19 2025 12:29:40 GMT-0600 (Central Standard Time),375981.6999999881,A,boy,O,y,272,1,1114.800000011921,374866.89999997616,7705,WL,C,6.0
3,12.71399998664856,learn,47286.00001335144,Wed Nov 19 2025 12:29:40 GMT-0600 (Central Standard Time),376449.89999997616,A,boyenter,O,enter,447,1,1583.0,374866.89999997616,7705,WL,C,6.0
3,13.328999996185303,learn,46671.0000038147,Wed Nov 19 2025 12:29:40 GMT-0600 (Central Standard Time),377064.89999997616,A,d,O,d,601,1,614.6999999880791,376450.1999999881,7705,WL,C,7.0
3,13.462999820709229,learn,46537.00017929077,Wed Nov 19 2025 12:29:40 GMT-0600 (Central Standard Time),377198.39999997616,A,do,O,o,114,1,748.1999999880791,376450.1999999881,7705,WL,C,7.0
3,13.644999980926514,learn,46355.000019073486,Wed Nov 19 2025 12:29:40 GMT-0600 (Central Standard Time),377380.89999997616,A,doc,O,c,166,1,930.6999999880791,376450.1999999881,7705,WL,C,7.0
3,13.896999835968018,learn,46103.00016403198,Wed Nov 19 2025 12:29:40 GMT-0600 (Central Standard Time),377632.8000000119,A,doct,O,t,239,1,1182.6000000238419,376450.1999999881,7705,WL,C,7.0
3,14.244999885559082,learn,45755.00011444092,Wed Nov 19 2025 12:29:40 GMT-0600 (Central Standard Time),377981.0,A,docto,O,o,340,1,1530.800000011921,376450.1999999881,7705,WL,C,7.0
3,14.444999933242798,learn,45555.0000667572,Wed Nov 19 2025 12:29:40 GMT-0600 (Central Standard Time),378180.6999999881,A,doctor,O,r,183,1,1730.5,376450.1999999881,7705,WL,C,7.0
3,14.811999797821045,learn,45188.000202178955,Wed Nov 19 2025 12:29:40 GMT-0600 (Central Standard Time),378547.0,A,doctorenter,O,enter,352,1,2096.800000011921,376450.1999999881,7705,WL,C,7.0
3,15.41100001335144,learn,44588.99998664856,Wed Nov 19 2025 12:29:40 GMT-0600 (Central Standard Time),379147.10000002384,A,c,O,c,592,1,599.8000000119209,378547.3000000119,7705,WL,C,8.0
3,15.649999856948853,learn,44350.00014305115,Wed Nov 19 2025 12:29:40 GMT-0600 (Central Standard Time),379385.89999997616,A,ca,O,a,224,1,838.5999999642372,378547.3000000119,7705,WL,C,8.0
3,15.816999912261963,learn,44183.00008773804,Wed Nov 19 2025 12:29:40 GMT-0600 (Central Standard Time),379552.8000000119,A,cam,O,m,147,1,1005.5,378547.3000000119,7705,WL,C,8.0
3,16.078999996185303,learn,43921.0000038147,Wed Nov 19 2025 12:29:40 GMT-0600 (Central Standard Time),379814.60000002384,A,camp,O,p,252,1,1267.300000011921,378547.3000000119,7705,WL,C,8.0
3,16.644999980926514,learn,43355.000019073486,Wed Nov 19 2025 12:29:40 GMT-0600 (Central Standard Time),380380.6999999881,A,campenter,O,enter,546,1,1833.3999999761581,378547.3000000119,7705,WL,C,8.0
3,17.115000009536743,learn,42884.99999046326,Wed Nov 19 2025 12:29:40 GMT-0600 (Central Standard Time),380850.6999999881,A,f,O,f,465,1,469.69999998807907,380381.0,7705,WL,C,9.0
3,17.34499979019165,learn,42655.00020980835,Wed Nov 19 2025 12:29:40 GMT-0600 (Central Standard Time),381080.3000000119,A,fa,O,a,208,1,699.3000000119209,380381.0,7705,WL,C,9.0
3,17.460999965667725,learn,42539.000034332275,Wed Nov 19 2025 12:29:40 GMT-0600 (Central Standard Time),381196.89999997616,A,fal,O,l,98,1,815.8999999761581,380381.0,7705,WL,C,9.0
3,18.194999933242798,learn,41805.0000667572,Wed Nov 19 2025 12:29:40 GMT-0600 (Central Standard Time),381930.10000002384,A,fa,O,backspace,712,1,1549.1000000238419,380381.0,7705,WL,C,9.0
3,18.378999948501587,learn,41621.00005149841,Wed Nov 19 2025 12:29:40 GMT-0600 (Central Standard Time),382114.1999999881,A,f,O,backspace,160,1,1733.199999988079,380381.0,7705,WL,C,9.0
3,18.710999965667725,learn,41289.000034332275,Wed Nov 19 2025 12:29:40 GMT-0600 (Central Standard Time),382446.1999999881,A,fl,O,l,323,1,2065.199999988079,380381.0,7705,WL,C,9.0
3,19.277999877929688,learn,40722.00012207031,Wed Nov 19 2025 12:29:40 GMT-0600 (Central Standard Time),383013.8000000119,A,fla,O,a,548,1,2632.800000011921,380381.0,7705,WL,C,9.0
3,19.460999965667725,learn,40539.000034332275,Wed Nov 19 2025 12:29:40 GMT-0600 (Central Standard Time),383196.5,A,flag,O,g,163,1,2815.5,380381.0,7705,WL,C,9.0
3,19.876999855041504,learn,40123.000144958496,Wed Nov 19 2025 12:29:40 GMT-0600 (Central Standard Time),383612.60000002384,A,flagenter,O,enter,406,1,3231.600000023842,380381.0,7705,WL,C,9.0
3,20.692999839782715,learn,39307.000160217285,Wed Nov 19 2025 12:29:40 GMT-0600 (Central Standard Time),384429.10000002384,A,n,O,n,798,1,816.1000000238419,383613.0,7705,WL,C,10.0
3,20.860999822616577,learn,39139.00017738342,Wed Nov 19 2025 12:29:40 GMT-0600 (Central Standard Time),384596.39999997616,A,na,O,a,156,1,983.3999999761581,383613.0,7705,WL,C,10.0
3,20.99399995803833,learn,39006.00004196167,Wed Nov 19 2025 12:29:40 GMT-0600 (Central Standard Time),384729.39999997616,A,nai,O,i,119,1,1116.3999999761581,383613.0,7705,WL,C,10.0
3,21.242999792099,learn,38757.000207901,Wed Nov 19 2025 12:29:40 GMT-0600 (Central Standard Time),384979.10000002384,A,nail,O,l,233,1,1366.1000000238419,383613.0,7705,WL,C,10.0
3,21.876999855041504,learn,38123.000144958496,Wed Nov 19 2025 12:29:40 GMT-0600 (Central Standard Time),385612.5,A,nailenter,O,enter,614,1,1999.5,383613.0,7705,WL,C,10.0
3,22.276000022888184,learn,37723.99997711182,Wed Nov 19 2025 12:29:40 GMT-0600 (Central Standard Time),386012.0,A,l,O,l,383,1,399.19999998807907,385612.8000000119,7705,WL,C,11.0
3,22.42799997329712,learn,37572.00002670288,Wed Nov 19 2025 12:29:40 GMT-0600 (Central Standard Time),386163.39999997616,A,le,O,e,129,1,550.5999999642372,385612.8000000119,7705,WL,C,11.0
3,22.5939998626709,learn,37406.0001373291,Wed Nov 19 2025 12:29:40 GMT-0600 (Central Standard Time),386329.5,A,let,O,t,149,1,716.6999999880791,385612.8000000119,7705,WL,C,11.0
3,22.80999994277954,learn,37190.00005722046,Wed Nov 19 2025 12:29:40 GMT-0600 (Central Standard Time),386545.39999997616,A,lett,O,t,203,1,932.5999999642372,385612.8000000119,7705,WL,C,11.0
3,23.009999990463257,learn,36990.00000953674,Wed Nov 19 2025 12:29:40 GMT-0600 (Central Standard Time),386745.1999999881,A,lette,O,e,186,1,1132.3999999761581,385612.8000000119,7705,WL,C,11.0
3,23.07699990272522,learn,36923.00009727478,Wed Nov 19 2025 12:29:40 GMT-0600 (Central Standard Time),386812.6999999881,A,letter,O,r,57,1,1199.8999999761581,385612.8000000119,7705,WL,C,11.0
3,23.742999792099,learn,36257.000207901,Wed Nov 19 2025 12:29:40 GMT-0600 (Central Standard Time),387478.5,A,letterenter,O,enter,645,1,1865.699999988079,385612.8000000119,7705,WL,C,11.0
3,24.126999855041504,learn,35873.000144958496,Wed Nov 19 2025 12:29:40 GMT-0600 (Central Standard Time),387862.39999997616,A,c,O,c,365,1,383.69999998807907,387478.6999999881,7705,WL,C,12.0
3,24.276000022888184,learn,35723.99997711182,Wed Nov 19 2025 12:29:40 GMT-0600 (Central Standard Time),388011.10000002384,A,co,O,o,138,1,532.4000000357628,387478.6999999881,7705,WL,C,12.0
3,24.508999824523926,learn,35491.000175476074,Wed Nov 19 2025 12:29:40 GMT-0600 (Central Standard Time),388244.60000002384,A,cor,O,r,222,1,765.9000000357628,387478.6999999881,7705,WL,C,12.0
3,24.80900001525879,learn,35190.99998474121,Wed Nov 19 2025 12:29:40 GMT-0600 (Central Standard Time),388544.60000002384,A,corn,O,n,285,1,1065.9000000357628,387478.6999999881,7705,WL,C,12.0
3,25.30900001525879,learn,34690.99998474121,Wed Nov 19 2025 12:29:40 GMT-0600 (Central Standard Time),389044.8000000119,A,cornenter,O,enter,489,1,1566.1000000238419,387478.6999999881,7705,WL,C,12.0
3,26.39199995994568,learn,33608.00004005432,Wed Nov 19 2025 12:29:40 GMT-0600 (Central Standard Time),390127.39999997616,A,c,O,c,1062,1,1082.3999999761581,389045.0,7705,WL,C,13.0
3,26.625,learn,33375.0,Wed Nov 19 2025 12:29:40 GMT-0600 (Central Standard Time),390360.8000000119,A,ca,O,a,219,1,1315.800000011921,389045.0,7705,WL,C,13.0
3,26.80900001525879,learn,33190.99998474121,Wed Nov 19 2025 12:29:40 GMT-0600 (Central Standard Time),390544.39999997616,A,cat,O,t,160,1,1499.3999999761581,389045.0,7705,WL,C,13.0
3,26.991999864578247,learn,33008.00013542175,Wed Nov 19 2025 12:29:40 GMT-0600 (Central Standard Time),390727.1999999881,A,catt,O,t,171,1,1682.199999988079,389045.0,7705,WL,C,13.0
3,27.241999864578247,learn,32758.000135421753,Wed Nov 19 2025 12:29:40 GMT-0600 (Central Standard Time),390977.3000000119,A,cattl,O,l,237,1,1932.300000011921,389045.0,7705,WL,C,13.0
3,27.378999948501587,learn,32621.000051498413,Wed Nov 19 2025 12:29:40 GMT-0600 (Central Standard Time),391114.1999999881,A,cattle,O,e,113,1,2069.199999988079,389045.0,7705,WL,C,13.0
3,27.825999975204468,learn,32174.000024795532,Wed Nov 19 2025 12:29:40 GMT-0600 (Central Standard Time),391561.39999997616,A,cattleenter,O,enter,431,1,2516.399999976158,389045.0,7705,WL,C,13.0
3,28.258999824523926,learn,31741.000175476074,Wed Nov 19 2025 12:29:40 GMT-0600 (Central Standard Time),391994.3000000119,A,b,O,b,427,1,432.5,391561.8000000119,7705,WL,C,14.0
3,28.442999839782715,learn,31557.000160217285,Wed Nov 19 2025 12:29:40 GMT-0600 (Central Standard Time),392178.1999999881,A,bo,O,o,168,1,616.3999999761581,391561.8000000119,7705,WL,C,14.0
3,28.70799994468689,learn,31292.00005531311,Wed Nov 19 2025 12:29:40 GMT-0600 (Central Standard Time),392443.89999997616,A,boy,O,y,255,1,882.0999999642372,391561.8000000119,7705,WL,C,14.0
3,30.056999921798706,learn,29943.000078201294,Wed Nov 19 2025 12:29:40 GMT-0600 (Central Standard Time),393792.6999999881,A,boyenter,O,enter,1345,1,2230.899999976158,391561.8000000119,7705,WL,C,14.0
3,32.056999921798706,learn,27943.000078201294,Wed Nov 19 2025 12:29:40 GMT-0600 (Central Standard Time),395792.39999997616,A,s,O,s,1986,1,1999.3999999761581,393793.0,7705,WL,C,15.0
3,32.20700001716614,learn,27792.999982833862,Wed Nov 19 2025 12:29:40 GMT-0600 (Central Standard Time),395942.39999997616,A,sh,O,h,129,1,2149.399999976158,393793.0,7705,WL,C,15.0
3,32.42400002479553,learn,27575.999975204468,Wed Nov 19 2025 12:29:40 GMT-0600 (Central Standard Time),396159.3000000119,A,sho,O,o,203,1,2366.300000011921,393793.0,7705,WL,C,15.0
3,32.52300000190735,learn,27476.99999809265,Wed Nov 19 2025 12:29:40 GMT-0600 (Central Standard Time),396258.6999999881,A,shor,O,r,83,1,2465.699999988079,393793.0,7705,WL,C,15.0
3,32.656999826431274,learn,27343.000173568726,Wed Nov 19 2025 12:29:40 GMT-0600 (Central Standard Time),396392.39999997616,A,shore,O,e,119,1,2599.399999976158,393793.0,7705,WL,C,15.0
3,34.105000019073486,learn,25894.999980926514,Wed Nov 19 2025 12:29:40 GMT-0600 (Central Standard Time),397840.60000002384,A,shoreenter,O,enter,1432,1,4047.600000023842,393793.0,7705,WL,C,15.0
4,1.8010001182556152,learn,58198.999881744385,Wed Nov 19 2025 12:29:40 GMT-0600 (Central Standard Time),471035.39999997616,A,t,O,t,1786,1,1800.5,469234.89999997616,7705,WL,C,1.0
4,1.9660000801086426,learn,58033.99991989136,Wed Nov 19 2025 12:29:40 GMT-0600 (Central Standard Time),471200.6999999881,A,to,O,o,159,1,1965.800000011921,469234.89999997616,7705,WL,C,1.0
4,2.0989999771118164,learn,57901.00002288818,Wed Nov 19 2025 12:29:40 GMT-0600 (Central Standard Time),471334.0,A,tow,O,w,124,1,2099.100000023842,469234.89999997616,7705,WL,C,1.0
4,2.2990000247955322,learn,57700.99997520447,Wed Nov 19 2025 12:29:40 GMT-0600 (Central Standard Time),471533.1999999881,A,towe,O,e,182,1,2298.300000011921,469234.89999997616,7705,WL,C,1.0
4,2.381999969482422,learn,57618.00003051758,Wed Nov 19 2025 12:29:40 GMT-0600 (Central Standard Time),471616.89999997616,A,tower,O,r,71,1,2382.0,469234.89999997616,7705,WL,C,1.0
4,2.683000087738037,learn,57316.99991226196,Wed Nov 19 2025 12:29:40 GMT-0600 (Central Standard Time),471917.1999999881,A,towerenter,O,enter,282,1,2682.300000011921,469234.89999997616,7705,WL,C,1.0
4,3.2829999923706055,learn,56717.000007629395,Wed Nov 19 2025 12:29:40 GMT-0600 (Central Standard Time),472517.5,A,q,O,q,583,1,600.0,471917.5,7705,WL,C,2.0
4,3.4650001525878906,learn,56534.99984741211,Wed Nov 19 2025 12:29:40 GMT-0600 (Central Standard Time),472699.89999997616,A,qu,O,u,174,1,782.3999999761581,471917.5,7705,WL,C,2.0
4,3.682000160217285,learn,56317.999839782715,Wed Nov 19 2025 12:29:40 GMT-0600 (Central Standard Time),472916.39999997616,A,que,O,e,199,1,998.8999999761581,471917.5,7705,WL,C,2.0
4,3.8489999771118164,learn,56151.00002288818,Wed Nov 19 2025 12:29:40 GMT-0600 (Central Standard Time),473083.5,A,quee,O,e,160,1,1166.0,471917.5,7705,WL,C,2.0
4,4.101000070571899,learn,55898.9999294281,Wed Nov 19 2025 12:29:40 GMT-0600 (Central Standard Time),473335.3000000119,A,queen,O,n,233,1,1417.800000011921,471917.5,7705,WL,C,2.0
4,4.498000144958496,learn,55501.999855041504,Wed Nov 19 2025 12:29:40 GMT-0600 (Central Standard Time),473732.89999997616,A,queenenter,O,enter,380,1,1815.3999999761581,471917.5,7705,WL,C,2.0
4,5.0320000648498535,learn,54967.99993515015,Wed Nov 19 2025 12:29:40 GMT-0600 (Central Standard Time),474266.5,A,s,O,s,523,1,533.1999999880791,473733.3000000119,7705,WL,C,3.0
4,5.183000087738037,learn,54816.99991226196,Wed Nov 19 2025 12:29:40 GMT-0600 (Central Standard Time),474417.5,A,su,O,u,145,1,684.1999999880791,473733.3000000119,7705,WL,C,3.0
4,5.348999977111816,learn,54651.00002288818,Wed Nov 19 2025 12:29:40 GMT-0600 (Central Standard Time),474583.6999999881,A,sug,O,g,147,1,850.3999999761581,473733.3000000119,7705,WL,C,3.0
4,5.549000024795532,learn,54450.99997520447,Wed Nov 19 2025 12:29:40 GMT-0600 (Central Standard Time),474783.39999997616,A,suga,O,a,196,1,1050.0999999642372,473733.3000000119,7705,WL,C,3.0
4,5.765000104904175,learn,54234.999895095825,Wed Nov 19 2025 12:29:40 GMT-0600 (Central Standard Time),474999.60000002384,A,sugar,O,r,205,1,1266.300000011921,473733.3000000119,7705,WL,C,3.0
4,6.715000152587891,learn,53284.99984741211,Wed Nov 19 2025 12:29:40 GMT-0600 (Central Standard Time),475949.6999999881,A,sugarenter,O,enter,941,1,2216.399999976158,473733.3000000119,7705,WL,C,3.0
4,7.131999969482422,learn,52868.00003051758,Wed Nov 19 2025 12:29:40 GMT-0600 (Central Standard Time),476366.3000000119,A,w,O,w,399,1,416.5,475949.8000000119,7705,WL,C,4.0
4,7.300000190734863,learn,52699.99980926514,Wed Nov 19 2025 12:29:40 GMT-0600 (Central Standard Time),476534.39999997616,A,wh,O,h,156,1,584.5999999642372,475949.8000000119,7705,WL,C,4.0
4,7.433000087738037,learn,52566.99991226196,Wed Nov 19 2025 12:29:40 GMT-0600 (Central Standard Time),476667.3000000119,A,whe,O,e,128,1,717.5,475949.8000000119,7705,WL,C,4.0
4,7.664999961853027,learn,52335.00003814697,Wed Nov 19 2025 12:29:40 GMT-0600 (Central Standard Time),476899.39999997616,A,whea,O,a,210,1,949.5999999642372,475949.8000000119,7705,WL,C,4.0
4,7.864000082015991,learn,52135.99991798401,Wed Nov 19 2025 12:29:40 GMT-0600 (Central Standard Time),477099.10000002384,A,wheat,O,t,183,1,1149.300000011921,475949.8000000119,7705,WL,C,4.0
4,8.248000144958496,learn,51751.999855041504,Wed Nov 19 2025 12:29:40 GMT-0600 (Central Standard Time),477482.89999997616,A,wheatenter,O,enter,368,1,1533.0999999642372,475949.8000000119,7705,WL,C,4.0
4,8.73200011253357,learn,51267.99988746643,Wed Nov 19 2025 12:29:40 GMT-0600 (Central Standard Time),477966.1999999881,A,b,O,b,464,1,483.0999999642372,477483.10000002384,7705,WL,C,5.0
4,8.881999969482422,learn,51118.00003051758,Wed Nov 19 2025 12:29:40 GMT-0600 (Central Standard Time),478116.60000002384,A,bo,O,o,133,1,633.5,477483.10000002384,7705,WL,C,5.0
4,9.148000001907349,learn,50851.99999809265,Wed Nov 19 2025 12:29:40 GMT-0600 (Central Standard Time),478382.6999999881,A,boy,O,y,253,1,899.5999999642372,477483.10000002384,7705,WL,C,5.0
4,9.833000183105469,learn,50166.99981689453,Wed Nov 19 2025 12:29:40 GMT-0600 (Central Standard Time),479067.60000002384,A,boyenter,O,enter,680,1,1584.5,477483.10000002384,7705,WL,C,5.0
4,10.598000049591064,learn,49401.999950408936,Wed Nov 19 2025 12:29:40 GMT-0600 (Central Standard Time),479832.8000000119,A,d,O,d,754,1,765.0,479067.8000000119,7705,WL,C,6.0
4,10.781000137329102,learn,49218.9998626709,Wed Nov 19 2025 12:29:40 GMT-0600 (Central Standard Time),480015.5,A,do,O,o,162,1,947.6999999880791,479067.8000000119,7705,WL,C,6.0
4,10.948000192642212,learn,49051.99980735779,Wed Nov 19 2025 12:29:40 GMT-0600 (Central Standard Time),480182.8000000119,A,doc,O,c,154,1,1115.0,479067.8000000119,7705,WL,C,6.0
4,11.164999961853027,learn,48835.00003814697,Wed Nov 19 2025 12:29:40 GMT-0600 (Central Standard Time),480399.60000002384,A,doct,O,t,196,1,1331.800000011921,479067.8000000119,7705,WL,C,6.0
4,11.496999979019165,learn,48503.000020980835,Wed Nov 19 2025 12:29:40 GMT-0600 (Central Standard Time),480732.10000002384,A,docto,O,o,321,1,1664.300000011921,479067.8000000119,7705,WL,C,6.0
4,11.698000192642212,learn,48301.99980735779,Wed Nov 19 2025 12:29:40 GMT-0600 (Central Standard Time),480932.3000000119,A,doctor,O,r,185,1,1864.5,479067.8000000119,7705,WL,C,6.0
4,11.930999994277954,learn,48069.000005722046,Wed Nov 19 2025 12:29:40 GMT-0600 (Central Standard Time),481165.1999999881,A,doctorenter,O,enter,215,1,2097.399999976158,479067.8000000119,7705,WL,C,6.0
4,13.514000177383423,learn,46485.99982261658,Wed Nov 19 2025 12:29:40 GMT-0600 (Central Standard Time),482748.39999997616,A,c,O,c,1566,1,1582.8999999761581,481165.5,7705,WL,C,7.0
4,13.746999979019165,learn,46253.000020980835,Wed Nov 19 2025 12:29:40 GMT-0600 (Central Standard Time),482981.8000000119,A,ca,O,a,213,1,1816.300000011921,481165.5,7705,WL,C,7.0
4,13.845999956130981,learn,46154.00004386902,Wed Nov 19 2025 12:29:40 GMT-0600 (Central Standard Time),483081.10000002384,A,cam,O,m,84,1,1915.6000000238419,481165.5,7705,WL,C,7.0
4,14.114000082015991,learn,45885.99991798401,Wed Nov 19 2025 12:29:40 GMT-0600 (Central Standard Time),483349.0,A,camp,O,p,248,1,2183.5,481165.5,7705,WL,C,7.0
4,14.496000051498413,learn,45503.99994850159,Wed Nov 19 2025 12:29:40 GMT-0600 (Central Standard Time),483730.8000000119,A,campenter,O,enter,364,1,2565.300000011921,481165.5,7705,WL,C,7.0
4,14.914000034332275,learn,45085.999965667725,Wed Nov 19 2025 12:29:40 GMT-0600 (Central Standard Time),484148.8000000119,A,f,O,f,411,1,417.80000001192093,483731.0,7705,WL,C,8.0
4,15.078999996185303,learn,44921.0000038147,Wed Nov 19 2025 12:29:40 GMT-0600 (Central Standard Time),484314.1999999881,A,fl,O,l,149,1,583.1999999880791,483731.0,7705,WL,C,8.0
4,15.19700002670288,learn,44802.99997329712,Wed Nov 19 2025 12:29:40 GMT-0600 (Central Standard Time),484431.1999999881,A,fla,O,a,103,1,700.1999999880791,483731.0,7705,WL,C,8.0
4,15.529000043869019,learn,44470.99995613098,Wed Nov 19 2025 12:29:40 GMT-0600 (Central Standard Time),484763.60000002384,A,flag,O,g,323,1,1032.6000000238419,483731.0,7705,WL,C,8.0
4,15.812999963760376,learn,44187.000036239624,Wed Nov 19 2025 12:29:40 GMT-0600 (Central Standard Time),485047.89999997616,A,flagenter,O,enter,273,1,1316.8999999761581,483731.0,7705,WL,C,8.0
4,17.164000034332275,learn,42835.999965667725,Wed Nov 19 2025 12:29:40 GMT-0600 (Central Standard Time),486398.6999999881,A,n,O,n,1331,1,1350.5999999642372,485048.10000002384,7705,WL,C,9.0
4,17.314000129699707,learn,42685.99987030029,Wed Nov 19 2025 12:29:40 GMT-0600 (Central Standard Time),486548.1999999881,A,na,O,a,131,1,1500.0999999642372,485048.10000002384,7705,WL,C,9.0
4,17.46500015258789,learn,42534.99984741211,Wed Nov 19 2025 12:29:40 GMT-0600 (Central Standard Time),486699.39999997616,A,nai,O,i,143,1,1651.2999999523163,485048.10000002384,7705,WL,C,9.0
4,17.74500012397766,learn,42254.99987602234,Wed Nov 19 2025 12:29:40 GMT-0600 (Central Standard Time),486979.89999997616,A,nail,O,l,262,1,1931.7999999523163,485048.10000002384,7705,WL,C,9.0
4,18.17900013923645,learn,41820.99986076355,Wed Nov 19 2025 12:29:40 GMT-0600 (Central Standard Time),487413.39999997616,A,nailenter,O,enter,425,1,2365.2999999523163,485048.10000002384,7705,WL,C,9.0
4,18.794000148773193,learn,41205.99985122681,Wed Nov 19 2025 12:29:40 GMT-0600 (Central Standard Time),488029.0,A,l,O,l,597,1,615.3000000119209,487413.6999999881,7705,WL,C,10.0
4,18.92900013923645,learn,41070.99986076355,Wed Nov 19 2025 12:29:40 GMT-0600 (Central Standard Time),488163.39999997616,A,le,O,e,131,1,749.6999999880791,487413.6999999881,7705,WL,C,10.0
4,19.16100001335144,learn,40838.99998664856,Wed Nov 19 2025 12:29:40 GMT-0600 (Central Standard Time),488396.0,A,let,O,t,217,1,982.3000000119209,487413.6999999881,7705,WL,C,10.0
4,19.34500002861023,learn,40654.99997138977,Wed Nov 19 2025 12:29:40 GMT-0600 (Central Standard Time),488579.60000002384,A,lett,O,t,179,1,1165.9000000357628,487413.6999999881,7705,WL,C,10.0
4,19.561000108718872,learn,40438.99989128113,Wed Nov 19 2025 12:29:40 GMT-0600 (Central Standard Time),488796.1999999881,A,lette,O,e,207,1,1382.5,487413.6999999881,7705,WL,C,10.0
4,19.67900013923645,learn,40320.99986076355,Wed Nov 19 2025 12:29:40 GMT-0600 (Central Standard Time),488913.6999999881,A,letter,O,r,95,1,1500.0,487413.6999999881,7705,WL,C,10.0
4,20.32800006866455,learn,39671.99993133545,Wed Nov 19 2025 12:29:40 GMT-0600 (Central Standard Time),489562.8000000119,A,letterenter,O,enter,627,1,2149.100000023842,487413.6999999881,7705,WL,C,10.0
4,21.54700016975403,learn,38452.99983024597,Wed Nov 19 2025 12:29:40 GMT-0600 (Central Standard Time),490781.39999997616,A,c,O,c,1210,1,1218.3999999761581,489563.0,7705,WL,C,11.0
4,21.761000156402588,learn,38238.99984359741,Wed Nov 19 2025 12:29:40 GMT-0600 (Central Standard Time),490995.3000000119,A,ca,O,a,204,1,1432.300000011921,489563.0,7705,WL,C,11.0
4,21.960999965667725,learn,38039.000034332275,Wed Nov 19 2025 12:29:40 GMT-0600 (Central Standard Time),491195.3000000119,A,cat,O,t,183,1,1632.300000011921,489563.0,7705,WL,C,11.0
4,22.16100001335144,learn,37838.99998664856,Wed Nov 19 2025 12:29:40 GMT-0600 (Central Standard Time),491395.60000002384,A,catt,O,t,195,1,1832.6000000238419,489563.0,7705,WL,C,11.0
4,22.377000093460083,learn,37622.99990653992,Wed Nov 19 2025 12:29:40 GMT-0600 (Central Standard Time),491611.60000002384,A,cattl,O,l,207,1,2048.600000023842,489563.0,7705,WL,C,11.0
4,22.49399995803833,learn,37506.00004196167,Wed Nov 19 2025 12:29:40 GMT-0600 (Central Standard Time),491729.0,A,cattle,O,e,112,1,2166.0,489563.0,7705,WL,C,11.0
4,22.960999965667725,learn,37039.000034332275,Wed Nov 19 2025 12:29:40 GMT-0600 (Central Standard Time),492195.1999999881,A,cattleenter,O,enter,458,1,2632.199999988079,489563.0,7705,WL,C,11.0
4,23.426000118255615,learn,36573.999881744385,Wed Nov 19 2025 12:29:40 GMT-0600 (Central Standard Time),492661.10000002384,A,b,O,b,448,1,465.60000002384186,492195.5,7705,WL,C,12.0
4,23.627000093460083,learn,36372.99990653992,Wed Nov 19 2025 12:29:40 GMT-0600 (Central Standard Time),492861.60000002384,A,bo,O,o,187,1,666.1000000238419,492195.5,7705,WL,C,12.0
4,23.89300012588501,learn,36106.99987411499,Wed Nov 19 2025 12:29:40 GMT-0600 (Central Standard Time),493128.10000002384,A,boy,O,y,242,1,932.6000000238419,492195.5,7705,WL,C,12.0
4,24.710000038146973,learn,35289.99996185303,Wed Nov 19 2025 12:29:40 GMT-0600 (Central Standard Time),493944.6999999881,A,boyd,O,d,803,1,1749.199999988079,492195.5,7705,WL,C,12.0
4,25.2260000705719,learn,34773.9999294281,Wed Nov 19 2025 12:29:40 GMT-0600 (Central Standard Time),494460.5,A,boy,O,backspace,503,1,2265.0,492195.5,7705,WL,C,12.0
4,25.460000038146973,learn,34539.99996185303,Wed Nov 19 2025 12:29:40 GMT-0600 (Central Standard Time),494694.8000000119,A,bo,O,backspace,215,1,2499.300000011921,492195.5,7705,WL,C,12.0
4,25.776000022888184,learn,34223.99997711182,Wed Nov 19 2025 12:29:40 GMT-0600 (Central Standard Time),495011.10000002384,A,bod,O,d,301,1,2815.600000023842,492195.5,7705,WL,C,12.0
4,25.960999965667725,learn,34039.000034332275,Wed Nov 19 2025 12:29:40 GMT-0600 (Central Standard Time),495195.39999997616,A,body,O,y,180,1,2999.899999976158,492195.5,7705,WL,C,12.0
4,26.37600016593933,learn,33623.99983406067,Wed Nov 19 2025 12:29:40 GMT-0600 (Central Standard Time),495610.39999997616,A,bodyenter,O,enter,398,1,3414.899999976158,492195.5,7705,WL,C,12.0
4,26.843000173568726,learn,33156.999826431274,Wed Nov 19 2025 12:29:40 GMT-0600 (Central Standard Time),496077.60000002384,A,s,O,s,457,1,466.9000000357628,495610.6999999881,7705,WL,C,13.0
4,26.95900011062622,learn,33040.99988937378,Wed Nov 19 2025 12:29:40 GMT-0600 (Central Standard Time),496193.89999997616,A,sh,O,h,102,1,583.1999999880791,495610.6999999881,7705,WL,C,13.0
4,27.14300012588501,learn,32856.99987411499,Wed Nov 19 2025 12:29:40 GMT-0600 (Central Standard Time),496377.60000002384,A,sho,O,o,169,1,766.9000000357628,495610.6999999881,7705,WL,C,13.0
4,27.29200005531311,learn,32707.99994468689,Wed Nov 19 2025 12:29:40 GMT-0600 (Central Standard Time),496527.10000002384,A,shor,O,r,128,1,916.4000000357628,495610.6999999881,7705,WL,C,13.0
4,27.375,learn,32625.0,Wed Nov 19 2025 12:29:40 GMT-0600 (Central Standard Time),496609.8000000119,A,shore,O,e,72,1,999.1000000238419,495610.6999999881,7705,WL,C,13.0
4,27.98200011253357,learn,32017.99988746643,Wed Nov 19 2025 12:29:40 GMT-0600 (Central Standard Time),497217.1999999881,A,shoreenter,O,enter,602,1,1606.5,495610.6999999881,7705,WL,C,13.0
4,42.72099995613098,learn,17279.00004386902,Wed Nov 19 2025 12:29:40 GMT-0600 (Central Standard Time),511955.8000000119,A,n,O,n,14733,1,14738.5,497217.3000000119,7705,WL,C,14.0
4,42.90400004386902,learn,17095.99995613098,Wed Nov 19 2025 12:29:40 GMT-0600 (Central Standard Time),512139.0,A,na,O,a,168,1,14921.699999988079,497217.3000000119,7705,WL,C,14.0
4,43.0550000667572,learn,16944.999933242798,Wed Nov 19 2025 12:29:40 GMT-0600 (Central Standard Time),512289.6999999881,A,nai,O,i,146,1,15072.399999976158,497217.3000000119,7705,WL,C,14.0
4,43.354000091552734,learn,16645.999908447266,Wed Nov 19 2025 12:29:40 GMT-0600 (Central Standard Time),512588.39999997616,A,nail,O,l,286,1,15371.099999964237,497217.3000000119,7705,WL,C,14.0
4,43.6710000038147,learn,16328.999996185303,Wed Nov 19 2025 12:29:40 GMT-0600 (Central Standard Time),512905.6999999881,A,nailenter,O,enter,311,1,15688.399999976158,497217.3000000119,7705,WL,C,14.0
4,45.15300011634827,learn,14846.999883651733,Wed Nov 19 2025 12:29:40 GMT-0600 (Central Standard Time),514388.0,A,enter,O,enter,1464,1,1481.6000000238419,512906.39999997616,7705,WL,C,15.0
5,1.1660001277923584,learn,60000.0,Wed Nov 19 2025 12:29:40 GMT-0600 (Central Standard Time),582000.1999999881,A,t,O,t,1156,1,1166.0,580834.1999999881,7705,WL,C,1.0
5,1.433000087738037,learn,60000.0,Wed Nov 19 2025 12:29:40 GMT-0600 (Central Standard Time),582266.6000000238,A,to,O,o,260,1,1432.4000000357628,580834.1999999881,7705,WL,C,1.0
5,1.568000078201294,learn,60000.0,Wed Nov 19 2025 12:29:40 GMT-0600 (Central Standard Time),582401.3000000119,A,tow,O,w,111,1,1567.1000000238419,580834.1999999881,7705,WL,C,1.0
5,1.7660000324249268,learn,60000.0,Wed Nov 19 2025 12:29:40 GMT-0600 (Central Standard Time),582599.6000000238,A,towe,O,e,187,1,1765.4000000357628,580834.1999999881,7705,WL,C,1.0
5,2.2150001525878906,learn,60000.0,Wed Nov 19 2025 12:29:40 GMT-0600 (Central Standard Time),583049.1000000238,A,toweenter,O,enter,435,1,2214.900000035763,580834.1999999881,7705,WL,C,1.0
5,3.9840002059936523,learn,60000.0,Wed Nov 19 2025 12:29:40 GMT-0600 (Central Standard Time),584817.8999999762,A,q,O,q,1756,1,1768.5999999642372,583049.3000000119,7705,WL,C,2.0
5,4.148000001907349,learn,60000.0,Wed Nov 19 2025 12:29:40 GMT-0600 (Central Standard Time),584981.5,A,qu,O,u,154,1,1932.199999988079,583049.3000000119,7705,WL,C,2.0
5,4.515000104904175,learn,60000.0,Wed Nov 19 2025 12:29:40 GMT-0600 (Central Standard Time),585349.1999999881,A,que,O,e,350,1,2299.899999976158,583049.3000000119,7705,WL,C,2.0
5,4.698000192642212,learn,60000.0,Wed Nov 19 2025 12:29:40 GMT-0600 (Central Standard Time),585532.0,A,quee,O,e,166,1,2482.699999988079,583049.3000000119,7705,WL,C,2.0
5,4.866000175476074,learn,60000.0,Wed Nov 19 2025 12:29:40 GMT-0600 (Central Standard Time),585699.8000000119,A,queen,O,n,150,1,2650.5,583049.3000000119,7705,WL,C,2.0
5,5.332000017166138,learn,60000.0,Wed Nov 19 2025 12:29:40 GMT-0600 (Central Standard Time),586165.3999999762,A,queenw,O,w,456,1,3116.099999964237,583049.3000000119,7705,WL,C,2.0
5,5.930999994277954,learn,60000.0,Wed Nov 19 2025 12:29:40 GMT-0600 (Central Standard Time),586764.8000000119,A,queen,O,backspace,581,1,3715.5,583049.3000000119,7705,WL,C,2.0
5,6.314000129699707,learn,60000.0,Wed Nov 19 2025 12:29:40 GMT-0600 (Central Standard Time),587148.0,A,queenenter,O,enter,366,1,4098.699999988079,583049.3000000119,7705,WL,C,2.0
5,6.864000082015991,learn,60000.0,Wed Nov 19 2025 12:29:40 GMT-0600 (Central Standard Time),587698.0,A,w,O,w,547,1,549.6999999880791,587148.3000000119,7705,WL,C,3.0
5,7.215000152587891,learn,60000.0,Wed Nov 19 2025 12:29:40 GMT-0600 (Central Standard Time),588049.0,A,wh,O,h,337,1,900.6999999880791,587148.3000000119,7705,WL,C,3.0
5,7.414000034332275,learn,60000.0,Wed Nov 19 2025 12:29:40 GMT-0600 (Central Standard Time),588248.1999999881,A,whe,O,e,187,1,1099.8999999761581,587148.3000000119,7705,WL,C,3.0
5,7.64900016784668,learn,60000.0,Wed Nov 19 2025 12:29:40 GMT-0600 (Central Standard Time),588482.6999999881,A,whea,O,a,229,1,1334.3999999761581,587148.3000000119,7705,WL,C,3.0
5,7.813000202178955,learn,60000.0,Wed Nov 19 2025 12:29:40 GMT-0600 (Central Standard Time),588647.3000000119,A,wheat,O,t,153,1,1499.0,587148.3000000119,7705,WL,C,3.0
5,8.480000019073486,learn,60000.0,Wed Nov 19 2025 12:29:40 GMT-0600 (Central Standard Time),589313.8000000119,A,wheatenter,O,enter,654,1,2165.5,587148.3000000119,7705,WL,C,3.0
5,8.94700002670288,learn,60000.0,Wed Nov 19 2025 12:29:40 GMT-0600 (Central Standard Time),589780.8000000119,A,s,O,s,450,1,466.69999998807907,589314.1000000238,7705,WL,C,4.0
5,9.148000001907349,learn,60000.0,Wed Nov 19 2025 12:29:40 GMT-0600 (Central Standard Time),589981.8000000119,A,su,O,u,184,1,667.6999999880791,589314.1000000238,7705,WL,C,4.0
5,9.296000003814697,learn,60000.0,Wed Nov 19 2025 12:29:40 GMT-0600 (Central Standard Time),590129.8999999762,A,sug,O,g,139,1,815.7999999523163,589314.1000000238,7705,WL,C,4.0
5,9.562000036239624,learn,60000.0,Wed Nov 19 2025 12:29:40 GMT-0600 (Central Standard Time),590395.8000000119,A,suga,O,a,250,1,1081.699999988079,589314.1000000238,7705,WL,C,4.0
5,9.75,learn,60000.0,Wed Nov 19 2025 12:29:40 GMT-0600 (Central Standard Time),590583.3000000119,A,sugar,O,r,168,1,1269.199999988079,589314.1000000238,7705,WL,C,4.0
5,10.129000186920166,learn,60000.0,Wed Nov 19 2025 12:29:40 GMT-0600 (Central Standard Time),590962.8999999762,A,sugarenter,O,enter,365,1,1648.7999999523163,589314.1000000238,7705,WL,C,4.0
5,10.712000131607056,learn,60000.0,Wed Nov 19 2025 12:29:40 GMT-0600 (Central Standard Time),591546.0,A,h,O,h,569,1,582.8999999761581,590963.1000000238,7705,WL,C,5.0
5,10.821000099182129,learn,60000.0,Wed Nov 19 2025 12:29:40 GMT-0600 (Central Standard Time),591654.3000000119,A,ho,O,o,82,1,691.1999999880791,590963.1000000238,7705,WL,C,5.0
5,11.028000116348267,learn,60000.0,Wed Nov 19 2025 12:29:40 GMT-0600 (Central Standard Time),591862.3000000119,A,hom,O,m,197,1,899.1999999880791,590963.1000000238,7705,WL,C,5.0
5,11.212000131607056,learn,60000.0,Wed Nov 19 2025 12:29:40 GMT-0600 (Central Standard Time),592045.3000000119,A,home,O,e,173,1,1082.199999988079,590963.1000000238,7705,WL,C,5.0
5,11.695000171661377,learn,60000.0,Wed Nov 19 2025 12:29:40 GMT-0600 (Central Standard Time),592528.6999999881,A,homeenter,O,enter,463,1,1565.5999999642372,590963.1000000238,7705,WL,C,5.0
5,12.912000179290771,learn,60000.0,Wed Nov 19 2025 12:29:40 GMT-0600 (Central Standard Time),593745.8000000119,A,b,O,b,1202,1,1216.9000000357628,592528.8999999762,7705,WL,C,6.0
5,13.061000108718872,learn,60000.0,Wed Nov 19 2025 12:29:40 GMT-0600 (Central Standard Time),593895.1999999881,A,bo,O,o,139,1,1366.300000011921,592528.8999999762,7705,WL,C,6.0
5,13.394000053405762,learn,60000.0,Wed Nov 19 2025 12:29:40 GMT-0600 (Central Standard Time),594227.8999999762,A,boy,O,y,316,1,1699.0,592528.8999999762,7705,WL,C,6.0
5,13.761000156402588,learn,60000.0,Wed Nov 19 2025 12:29:40 GMT-0600 (Central Standard Time),594594.6999999881,A,boyenter,O,enter,353,1,2065.800000011921,592528.8999999762,7705,WL,C,6.0
5,14.64300012588501,learn,60000.0,Wed Nov 19 2025 12:29:40 GMT-0600 (Central Standard Time),595477.1000000238,A,c,O,c,873,1,882.3000000119209,594594.8000000119,7705,WL,C,7.0
5,15.045000076293945,learn,60000.0,Wed Nov 19 2025 12:29:40 GMT-0600 (Central Standard Time),595878.3999999762,A,ca,O,a,383,1,1283.5999999642372,594594.8000000119,7705,WL,C,7.0
5,15.194000005722046,learn,60000.0,Wed Nov 19 2025 12:29:40 GMT-0600 (Central Standard Time),596028.1000000238,A,cam,O,m,134,1,1433.300000011921,594594.8000000119,7705,WL,C,7.0
5,15.444000005722046,learn,60000.0,Wed Nov 19 2025 12:29:40 GMT-0600 (Central Standard Time),596277.8000000119,A,camp,O,p,231,1,1683.0,594594.8000000119,7705,WL,C,7.0
5,15.878000020980835,learn,60000.0,Wed Nov 19 2025 12:29:40 GMT-0600 (Central Standard Time),596711.3000000119,A,campenter,O,enter,421,1,2116.5,594594.8000000119,7705,WL,C,7.0
5,16.379000186920166,learn,60000.0,Wed Nov 19 2025 12:29:40 GMT-0600 (Central Standard Time),597212.8000000119,A,d,O,d,485,1,501.30000001192093,596711.5,7705,WL,C,8.0
5,16.563000202178955,learn,60000.0,Wed Nov 19 2025 12:29:40 GMT-0600 (Central Standard Time),597396.6999999881,A,do,O,o,165,1,685.1999999880791,596711.5,7705,WL,C,8.0
5,16.711000204086304,learn,60000.0,Wed Nov 19 2025 12:29:40 GMT-0600 (Central Standard Time),597544.8000000119,A,doc,O,c,136,1,833.3000000119209,596711.5,7705,WL,C,8.0
5,16.94600009918213,learn,60000.0,Wed Nov 19 2025 12:29:40 GMT-0600 (Central Standard Time),597780.1000000238,A,doct,O,t,216,1,1068.6000000238419,596711.5,7705,WL,C,8.0
5,17.546000003814697,learn,60000.0,Wed Nov 19 2025 12:29:40 GMT-0600 (Central Standard Time),598379.5,A,docto,O,o,595,1,1668.0,596711.5,7705,WL,C,8.0
5,17.74400019645691,learn,60000.0,Wed Nov 19 2025 12:29:40 GMT-0600 (Central Standard Time),598577.8000000119,A,doctor,O,r,193,1,1866.300000011921,596711.5,7705,WL,C,8.0
5,18.011000156402588,learn,60000.0,Wed Nov 19 2025 12:29:40 GMT-0600 (Central Standard Time),598844.5,A,doctorenter,O,enter,258,1,2133.0,596711.5,7705,WL,C,8.0
5,19.64400005340576,learn,60000.0,Wed Nov 19 2025 12:29:40 GMT-0600 (Central Standard Time),600477.6000000238,A,f,O,f,1617,1,1632.9000000357628,598844.6999999881,7705,WL,C,9.0
5,19.792999982833862,learn,60000.0,Wed Nov 19 2025 12:29:40 GMT-0600 (Central Standard Time),600627.0,A,fl,O,l,145,1,1782.300000011921,598844.6999999881,7705,WL,C,9.0
5,20.009000062942505,learn,60000.0,Wed Nov 19 2025 12:29:40 GMT-0600 (Central Standard Time),600843.1000000238,A,fla,O,a,209,1,1998.4000000357628,598844.6999999881,7705,WL,C,9.0
5,20.292999982833862,learn,60000.0,Wed Nov 19 2025 12:29:40 GMT-0600 (Central Standard Time),601127.3000000119,A,flag,O,g,266,1,2282.600000023842,598844.6999999881,7705,WL,C,9.0
5,20.593000173568726,learn,60000.0,Wed Nov 19 2025 12:29:40 GMT-0600 (Central Standard Time),601427.0,A,flagenter,O,enter,295,1,2582.300000011921,598844.6999999881,7705,WL,C,9.0
5,21.445000171661377,learn,60000.0,Wed Nov 19 2025 12:29:40 GMT-0600 (Central Standard Time),602278.3999999762,A,n,O,n,841,1,851.2999999523163,601427.1000000238,7705,WL,C,10.0
5,21.610000133514404,learn,60000.0,Wed Nov 19 2025 12:29:40 GMT-0600 (Central Standard Time),602444.0,A,na,O,a,159,1,1016.8999999761581,601427.1000000238,7705,WL,C,10.0
5,21.728000164031982,learn,60000.0,Wed Nov 19 2025 12:29:40 GMT-0600 (Central Standard Time),602561.5,A,nai,O,i,112,1,1134.3999999761581,601427.1000000238,7705,WL,C,10.0
5,21.993000030517578,learn,60000.0,Wed Nov 19 2025 12:29:40 GMT-0600 (Central Standard Time),602826.6000000238,A,nail,O,l,250,1,1399.5,601427.1000000238,7705,WL,C,10.0
5,22.45800018310547,learn,60000.0,Wed Nov 19 2025 12:29:40 GMT-0600 (Central Standard Time),603292.1999999881,A,nailenter,O,enter,458,1,1865.0999999642372,601427.1000000238,7705,WL,C,10.0
5,23.142000198364258,learn,60000.0,Wed Nov 19 2025 12:29:40 GMT-0600 (Central Standard Time),603976.0,A,l,O,l,671,1,683.6000000238419,603292.3999999762,7705,WL,C,11.0
5,23.342000007629395,learn,60000.0,Wed Nov 19 2025 12:29:40 GMT-0600 (Central Standard Time),604176.1999999881,A,le,O,e,180,1,883.8000000119209,603292.3999999762,7705,WL,C,11.0
5,23.558000087738037,learn,60000.0,Wed Nov 19 2025 12:29:40 GMT-0600 (Central Standard Time),604391.6999999881,A,let,O,t,204,1,1099.300000011921,603292.3999999762,7705,WL,C,11.0
5,23.758000135421753,learn,60000.0,Wed Nov 19 2025 12:29:40 GMT-0600 (Central Standard Time),604592.0,A,lett,O,t,189,1,1299.6000000238419,603292.3999999762,7705,WL,C,11.0
5,23.95800018310547,learn,60000.0,Wed Nov 19 2025 12:29:40 GMT-0600 (Central Standard Time),604791.8999999762,A,lette,O,e,189,1,1499.5,603292.3999999762,7705,WL,C,11.0
5,24.04100012779236,learn,60000.0,Wed Nov 19 2025 12:29:40 GMT-0600 (Central Standard Time),604874.8999999762,A,letter,O,r,69,1,1582.5,603292.3999999762,7705,WL,C,11.0
5,24.44099998474121,learn,60000.0,Wed Nov 19 2025 12:29:40 GMT-0600 (Central Standard Time),605274.8999999762,A,letterenter,O,enter,393,1,1982.5,603292.3999999762,7705,WL,C,11.0
5,24.892000198364258,learn,60000.0,Wed Nov 19 2025 12:29:40 GMT-0600 (Central Standard Time),605725.3999999762,A,c,O,c,434,1,450.19999998807907,605275.1999999881,7705,WL,C,12.0
5,25.12600016593933,learn,60000.0,Wed Nov 19 2025 12:29:40 GMT-0600 (Central Standard Time),605959.6999999881,A,ca,O,a,222,1,684.5,605275.1999999881,7705,WL,C,12.0
5,25.35800004005432,learn,60000.0,Wed Nov 19 2025 12:29:40 GMT-0600 (Central Standard Time),606191.6000000238,A,cat,O,t,228,1,916.4000000357628,605275.1999999881,7705,WL,C,12.0
5,25.575000047683716,learn,60000.0,Wed Nov 19 2025 12:29:40 GMT-0600 (Central Standard Time),606409.1000000238,A,catt,O,t,214,1,1133.9000000357628,605275.1999999881,7705,WL,C,12.0
5,25.95800018310547,learn,60000.0,Wed Nov 19 2025 12:29:40 GMT-0600 (Central Standard Time),606792.0,A,cattl,O,l,380,1,1516.800000011921,605275.1999999881,7705,WL,C,12.0
5,26.207000017166138,learn,60000.0,Wed Nov 19 2025 12:29:40 GMT-0600 (Central Standard Time),607041.1999999881,A,cattle,O,e,246,1,1766.0,605275.1999999881,7705,WL,C,12.0
5,26.957000017166138,learn,60000.0,Wed Nov 19 2025 12:29:40 GMT-0600 (Central Standard Time),607790.8999999762,A,cattleenter,O,enter,730,1,2515.699999988079,605275.1999999881,7705,WL,C,12.0
5,27.305999994277954,learn,60000.0,Wed Nov 19 2025 12:29:40 GMT-0600 (Central Standard Time),608140.0,A,c,O,c,341,1,348.80000001192093,607791.1999999881,7705,WL,C,13.0
5,27.52400016784668,learn,60000.0,Wed Nov 19 2025 12:29:40 GMT-0600 (Central Standard Time),608358.3000000119,A,co,O,o,201,1,567.1000000238419,607791.1999999881,7705,WL,C,13.0
5,27.740000009536743,learn,60000.0,Wed Nov 19 2025 12:29:40 GMT-0600 (Central Standard Time),608574.3000000119,A,cor,O,r,199,1,783.1000000238419,607791.1999999881,7705,WL,C,13.0
5,28.057000160217285,learn,60000.0,Wed Nov 19 2025 12:29:40 GMT-0600 (Central Standard Time),608891.1000000238,A,corn,O,n,310,1,1099.9000000357628,607791.1999999881,7705,WL,C,13.0
5,28.841000080108643,learn,60000.0,Wed Nov 19 2025 12:29:40 GMT-0600 (Central Standard Time),609674.3999999762,A,cornenter,O,enter,768,1,1883.199999988079,607791.1999999881,7705,WL,C,13.0
5,29.689000129699707,learn,60000.0,Wed Nov 19 2025 12:29:40 GMT-0600 (Central Standard Time),610523.1000000238,A,b,O,b,841,1,848.5,609674.6000000238,7705,WL,C,14.0
5,29.9060001373291,learn,60000.0,Wed Nov 19 2025 12:29:40 GMT-0600 (Central Standard Time),610740.0,A,bo,O,o,209,1,1065.3999999761581,609674.6000000238,7705,WL,C,14.0
5,30.40500020980835,learn,60000.0,Wed Nov 19 2025 12:29:40 GMT-0600 (Central Standard Time),611239.1000000238,A,bod,O,d,480,1,1564.5,609674.6000000238,7705,WL,C,14.0
5,30.621999979019165,learn,60000.0,Wed Nov 19 2025 12:29:40 GMT-0600 (Central Standard Time),611456.1000000238,A,body,O,y,214,1,1781.5,609674.6000000238,7705,WL,C,14.0
5,31.32200002670288,learn,60000.0,Wed Nov 19 2025 12:29:40 GMT-0600 (Central Standard Time),612156.0,A,bodyenter,O,enter,693,1,2481.399999976158,609674.6000000238,7705,WL,C,14.0
5,31.875,learn,60000.0,Wed Nov 19 2025 12:29:40 GMT-0600 (Central Standard Time),612709.3000000119,A,s,O,s,549,1,553.1000000238419,612156.1999999881,7705,WL,C,15.0
5,32.040000200271606,learn,60000.0,Wed Nov 19 2025 12:29:40 GMT-0600 (Central Standard Time),612873.8000000119,A,sh,O,h,160,1,717.6000000238419,612156.1999999881,7705,WL,C,15.0
5,32.25500011444092,learn,60000.0,Wed Nov 19 2025 12:29:40 GMT-0600 (Central Standard Time),613089.3000000119,A,sho,O,o,203,1,933.1000000238419,612156.1999999881,7705,WL,C,15.0
5,32.60600018501282,learn,60000.0,Wed Nov 19 2025 12:29:40 GMT-0600 (Central Standard Time),613439.8000000119,A,shor,O,r,347,1,1283.6000000238419,612156.1999999881,7705,WL,C,15.0
5,32.75500011444092,learn,60000.0,Wed Nov 19 2025 12:29:40 GMT-0600 (Central Standard Time),613588.8000000119,A,shore,O,e,141,1,1432.6000000238419,612156.1999999881,7705,WL,C,15.0
5,33.87100005149841,learn,60000.0,Wed Nov 19 2025 12:29:40 GMT-0600 (Central Standard Time),614705.0,A,shoreenter,O,enter,1104,1,2548.800000011921,612156.1999999881,7705,WL,C,15.0
6,1.9650001525878906,distr,58034.99984741211,Wed Nov 19 2025 12:29:40 GMT-0600 (Central Standard Time),687365.3000000119,B,s,O,s,1949,1,1965.5,685399.8000000119,7705,WL,C,1.0
6,2.183000087738037,distr,57816.99991226196,Wed Nov 19 2025 12:29:40 GMT-0600 (Central Standard Time),687582.5,B,sk,O,k,207,1,2182.699999988079,685399.8000000119,7705,WL,C,1.0
6,2.499000072479248,distr,57500.99992752075,Wed Nov 19 2025 12:29:40 GMT-0600 (Central Standard Time),687898.6000000238,B,sky,O,y,302,1,2498.800000011921,685399.8000000119,7705,WL,C,1.0
6,2.866000175476074,distr,57133.999824523926,Wed Nov 19 2025 12:29:40 GMT-0600 (Central Standard Time),688265.8999999762,B,skyenter,O,enter,364,1,2866.099999964237,685399.8000000119,7705,WL,C,1.0
6,3.2660000324249268,distr,56733.99996757507,Wed Nov 19 2025 12:29:40 GMT-0600 (Central Standard Time),688665.3999999762,B,d,O,d,396,1,399.39999997615814,688266.0,7705,WL,C,2.0
6,3.449000120162964,distr,56550.999879837036,Wed Nov 19 2025 12:29:40 GMT-0600 (Central Standard Time),688849.1000000238,B,do,O,o,171,1,583.1000000238419,688266.0,7705,WL,C,2.0
6,3.6480000019073486,distr,56351.99999809265,Wed Nov 19 2025 12:29:40 GMT-0600 (Central Standard Time),689048.1999999881,B,dol,O,l,196,1,782.1999999880791,688266.0,7705,WL,C,2.0
6,3.8320000171661377,distr,56167.99998283386,Wed Nov 19 2025 12:29:40 GMT-0600 (Central Standard Time),689232.1000000238,B,doll,O,l,166,1,966.1000000238419,688266.0,7705,WL,C,2.0
6,3.9820001125335693,distr,56017.99988746643,Wed Nov 19 2025 12:29:40 GMT-0600 (Central Standard Time),689382.1999999881,B,dolla,O,a,132,1,1116.199999988079,688266.0,7705,WL,C,2.0
6,4.183000087738037,distr,55816.99991226196,Wed Nov 19 2025 12:29:40 GMT-0600 (Central Standard Time),689582.3999999762,B,dollar,O,r,182,1,1316.3999999761581,688266.0,7705,WL,C,2.0
6,4.466000080108643,distr,55533.99991989136,Wed Nov 19 2025 12:29:40 GMT-0600 (Central Standard Time),689865.8000000119,B,dollarenter,O,enter,278,1,1599.800000011921,688266.0,7705,WL,C,2.0
6,5.132000207901001,distr,54867.999792099,Wed Nov 19 2025 12:29:40 GMT-0600 (Central Standard Time),690532.3000000119,B,v,O,v,651,1,666.4000000357628,689865.8999999762,7705,WL,C,3.0
6,5.332000017166138,distr,54667.99998283386,Wed Nov 19 2025 12:29:40 GMT-0600 (Central Standard Time),690731.5,B,va,O,a,191,1,865.6000000238419,689865.8999999762,7705,WL,C,3.0
6,5.432000160217285,distr,54567.999839782715,Wed Nov 19 2025 12:29:40 GMT-0600 (Central Standard Time),690832.1000000238,B,val,O,l,80,1,966.2000000476837,689865.8999999762,7705,WL,C,3.0
6,5.5990002155303955,distr,54400.999784469604,Wed Nov 19 2025 12:29:40 GMT-0600 (Central Standard Time),690998.6000000238,B,vall,O,l,157,1,1132.7000000476837,689865.8999999762,7705,WL,C,3.0
6,5.714000225067139,distr,54285.99977493286,Wed Nov 19 2025 12:29:40 GMT-0600 (Central Standard Time),691114.1999999881,B,valle,O,e,110,1,1248.300000011921,689865.8999999762,7705,WL,C,3.0
6,5.964000225067139,distr,54035.99977493286,Wed Nov 19 2025 12:29:40 GMT-0600 (Central Standard Time),691363.6000000238,B,valley,O,y,235,1,1497.7000000476837,689865.8999999762,7705,WL,C,3.0
6,6.265000104904175,distr,53734.999895095825,Wed Nov 19 2025 12:29:40 GMT-0600 (Central Standard Time),691664.5,B,valleyenter,O,enter,297,1,1798.6000000238419,689865.8999999762,7705,WL,C,3.0
6,6.63100004196167,distr,53368.99995803833,Wed Nov 19 2025 12:29:40 GMT-0600 (Central Standard Time),692031.3000000119,B,d,O,d,356,1,366.60000002384186,691664.6999999881,7705,WL,C,4.0
6,6.897000074386597,distr,53102.9999256134,Wed Nov 19 2025 12:29:40 GMT-0600 (Central Standard Time),692297.1999999881,B,di,O,i,262,1,632.5,691664.6999999881,7705,WL,C,4.0
6,7.064000129699707,distr,52935.99987030029,Wed Nov 19 2025 12:29:40 GMT-0600 (Central Standard Time),692463.6999999881,B,dia,O,a,164,1,799.0,691664.6999999881,7705,WL,C,4.0
6,7.249000072479248,distr,52750.99992752075,Wed Nov 19 2025 12:29:40 GMT-0600 (Central Standard Time),692649.0,B,diam,O,m,181,1,984.3000000119209,691664.6999999881,7705,WL,C,4.0
6,7.481000185012817,distr,52518.99981498718,Wed Nov 19 2025 12:29:40 GMT-0600 (Central Standard Time),692881.1000000238,B,diamo,O,o,220,1,1216.4000000357628,691664.6999999881,7705,WL,C,4.0
6,7.5970001220703125,distr,52402.99987792969,Wed Nov 19 2025 12:29:40 GMT-0600 (Central Standard Time),692997.0,B,diamon,O,n,108,1,1332.300000011921,691664.6999999881,7705,WL,C,4.0
6,7.930999994277954,distr,52069.000005722046,Wed Nov 19 2025 12:29:40 GMT-0600 (Central Standard Time),693330.6999999881,B,diamond,O,d,328,1,1666.0,691664.6999999881,7705,WL,C,4.0
6,8.13100004196167,distr,51868.99995803833,Wed Nov 19 2025 12:29:40 GMT-0600 (Central Standard Time),693530.8999999762,B,diamondenter,O,enter,186,1,1866.199999988079,691664.6999999881,7705,WL,C,4.0
6,8.531000137329102,distr,51468.9998626709,Wed Nov 19 2025 12:29:40 GMT-0600 (Central Standard Time),693930.5,B,m,O,m,384,1,399.39999997615814,693531.1000000238,7705,WL,C,5.0
6,8.764000177383423,distr,51235.99982261658,Wed Nov 19 2025 12:29:40 GMT-0600 (Central Standard Time),694163.8000000119,B,mo,O,o,226,1,632.6999999880791,693531.1000000238,7705,WL,C,5.0
6,8.88100004196167,distr,51118.99995803833,Wed Nov 19 2025 12:29:40 GMT-0600 (Central Standard Time),694281.3000000119,B,mot,O,t,105,1,750.1999999880791,693531.1000000238,7705,WL,C,5.0
6,9.031000137329102,distr,50968.9998626709,Wed Nov 19 2025 12:29:40 GMT-0600 (Central Standard Time),694431.0,B,moth,O,h,131,1,899.8999999761581,693531.1000000238,7705,WL,C,5.0
6,9.13100004196167,distr,50868.99995803833,Wed Nov 19 2025 12:29:40 GMT-0600 (Central Standard Time),694530.6000000238,B,mothe,O,e,94,1,999.5,693531.1000000238,7705,WL,C,5.0
6,9.231000185012817,distr,50768.99981498718,Wed Nov 19 2025 12:29:40 GMT-0600 (Central Standard Time),694630.8000000119,B,mother,O,r,82,1,1099.699999988079,693531.1000000238,7705,WL,C,5.0
6,9.497000217437744,distr,50502.999782562256,Wed Nov 19 2025 12:29:40 GMT-0600 (Central Standard Time),694897.3000000119,B,motherenter,O,enter,254,1,1366.199999988079,693531.1000000238,7705,WL,C,5.0
6,16.962000131607056,distr,43037.999868392944,Wed Nov 19 2025 12:29:40 GMT-0600 (Central Standard Time),702361.3999999762,B,c,O,c,7458,1,7463.899999976158,694897.5,7705,WL,C,6.0
6,17.094000101089478,distr,42905.99989891052,Wed Nov 19 2025 12:29:40 GMT-0600 (Central Standard Time),702493.6999999881,B,ch,O,h,122,1,7596.199999988079,694897.5,7705,WL,C,6.0
6,17.344000101089478,distr,42655.99989891052,Wed Nov 19 2025 12:29:40 GMT-0600 (Central Standard Time),702744.1000000238,B,chr,O,r,247,1,7846.600000023842,694897.5,7705,WL,C,6.0
6,17.645000219345093,distr,42354.99978065491,Wed Nov 19 2025 12:29:40 GMT-0600 (Central Standard Time),703044.5,B,chrs,O,s,293,1,8147.0,694897.5,7705,WL,C,6.0
6,18.16100001335144,distr,41838.99998664856,Wed Nov 19 2025 12:29:40 GMT-0600 (Central Standard Time),703561.1000000238,B,chr,O,backspace,513,1,8663.600000023842,694897.5,7705,WL,C,6.0
6,18.528000116348267,distr,41471.99988365173,Wed Nov 19 2025 12:29:40 GMT-0600 (Central Standard Time),703927.3999999762,B,chri,O,i,348,1,9029.899999976158,694897.5,7705,WL,C,6.0
6,19.1780002117157,distr,40821.9997882843,Wed Nov 19 2025 12:29:40 GMT-0600 (Central Standard Time),704577.3999999762,B,chris,O,s,645,1,9679.899999976158,694897.5,7705,WL,C,6.0
6,19.561000108718872,distr,40438.99989128113,Wed Nov 19 2025 12:29:40 GMT-0600 (Central Standard Time),704961.0,B,christ,O,t,363,1,10063.5,694897.5,7705,WL,C,6.0
6,19.927000045776367,distr,40072.99995422363,Wed Nov 19 2025 12:29:40 GMT-0600 (Central Standard Time),705326.6999999881,B,christm,O,m,356,1,10429.199999988079,694897.5,7705,WL,C,6.0
6,20.2260000705719,distr,39773.9999294281,Wed Nov 19 2025 12:29:40 GMT-0600 (Central Standard Time),705625.6999999881,B,christma,O,a,294,1,10728.199999988079,694897.5,7705,WL,C,6.0
6,20.593000173568726,distr,39406.999826431274,Wed Nov 19 2025 12:29:40 GMT-0600 (Central Standard Time),705993.3000000119,B,christmas,O,s,364,1,11095.800000011921,694897.5,7705,WL,C,6.0
6,20.99400019645691,distr,39005.99980354309,Wed Nov 19 2025 12:29:40 GMT-0600 (Central Standard Time),706393.8999999762,B,christmasenter,O,enter,388,1,11496.399999976158,694897.5,7705,WL,C,6.0
6,25.492000102996826,distr,34507.999897003174,Wed Nov 19 2025 12:29:40 GMT-0600 (Central Standard Time),710891.5,B,enter,O,enter,4491,1,4497.5,706394.0,7705,WL,C,7.0
6,25.759000062942505,distr,34240.999937057495,Wed Nov 19 2025 12:29:40 GMT-0600 (Central Standard Time),711159.1000000238,B,enter,O,enter,257,1,267.4000000357628,710891.6999999881,7705,WL,C,8.0
6,25.974000215530396,distr,34025.999784469604,Wed Nov 19 2025 12:29:40 GMT-0600 (Central Standard Time),711374.3000000119,B,enter,O,enter,206,1,214.9000000357628,711159.3999999762,7705,WL,C,9.0
6,26.158000230789185,distr,33841.999769210815,Wed Nov 19 2025 12:29:40 GMT-0600 (Central Standard Time),711558.1999999881,B,enter,O,enter,167,1,183.69999998807907,711374.5,7705,WL,C,10.0
6,26.341000080108643,distr,33658.99991989136,Wed Nov 19 2025 12:29:40 GMT-0600 (Central Standard Time),711741.0,B,enter,O,enter,166,1,182.5,711558.5,7705,WL,C,11.0
6,26.625,distr,33375.0,Wed Nov 19 2025 12:29:40 GMT-0600 (Central Standard Time),712025.1999999881,B,enter,O,enter,272,1,283.89999997615814,711741.3000000119,7705,WL,C,12.0
6,26.825000047683716,distr,33174.999952316284,Wed Nov 19 2025 12:29:40 GMT-0600 (Central Standard Time),712224.6999999881,B,enter,O,enter,186,1,199.19999998807907,712025.5,7705,WL,C,13.0
6,27.20800018310547,distr,32791.99981689453,Wed Nov 19 2025 12:29:40 GMT-0600 (Central Standard Time),712607.8999999762,B,enter,O,enter,379,1,382.89999997615814,712225.0,7705,WL,C,14.0
6,28.257000207901,distr,31742.999792099,Wed Nov 19 2025 12:29:40 GMT-0600 (Central Standard Time),713656.8000000119,B,enter,O,enter,1037,1,1048.800000011921,712608.0,7705,WL,C,15.0
7,1.1929998397827148,immed,58807.000160217285,Wed Nov 19 2025 12:29:40 GMT-0600 (Central Standard Time),732760.8000000119,A,t,O,t,1174,1,1193.1000000238419,731567.6999999881,7705,WL,C,1.0
7,1.4179999828338623,immed,58582.00001716614,Wed Nov 19 2025 12:29:40 GMT-0600 (Central Standard Time),732986.5,A,to,O,o,212,1,1418.800000011921,731567.6999999881,7705,WL,C,1.0
7,1.5999999046325684,immed,58400.00009536743,Wed Nov 19 2025 12:29:40 GMT-0600 (Central Standard Time),733168.3000000119,A,tow,O,w,156,1,1600.6000000238419,731567.6999999881,7705,WL,C,1.0
7,1.7659997940063477,immed,58234.00020599365,Wed Nov 19 2025 12:29:40 GMT-0600 (Central Standard Time),733334.1999999881,A,towe,O,e,149,1,1766.5,731567.6999999881,7705,WL,C,1.0
7,1.8509998321533203,immed,58149.00016784668,Wed Nov 19 2025 12:29:40 GMT-0600 (Central Standard Time),733418.6000000238,A,tower,O,r,80,1,1850.9000000357628,731567.6999999881,7705,WL,C,1.0
7,2.316999912261963,immed,57683.00008773804,Wed Nov 19 2025 12:29:40 GMT-0600 (Central Standard Time),733884.6999999881,A,towerenter,O,enter,450,1,2317.0,731567.6999999881,7705,WL,C,1.0
7,3.182999849319458,immed,56817.00015068054,Wed Nov 19 2025 12:29:40 GMT-0600 (Central Standard Time),734750.6999999881,A,q,O,q,848,1,865.8000000119209,733884.8999999762,7705,WL,C,2.0
7,3.383999824523926,immed,56616.000175476074,Wed Nov 19 2025 12:29:40 GMT-0600 (Central Standard Time),734951.6000000238,A,qu,O,u,190,1,1066.7000000476837,733884.8999999762,7705,WL,C,2.0
7,3.798999786376953,immed,56201.00021362305,Wed Nov 19 2025 12:29:40 GMT-0600 (Central Standard Time),735366.6999999881,A,q,O,backspace,396,1,1481.800000011921,733884.8999999762,7705,WL,C,2.0
7,3.982999801635742,immed,56017.00019836426,Wed Nov 19 2025 12:29:40 GMT-0600 (Central Standard Time),735550.8000000119,A,,O,backspace,166,1,1665.9000000357628,733884.8999999762,7705,WL,C,2.0
7,4.182999849319458,immed,55817.00015068054,Wed Nov 19 2025 12:29:40 GMT-0600 (Central Standard Time),735750.6999999881,A,w,O,w,182,1,1865.800000011921,733884.8999999762,7705,WL,C,2.0
7,4.331999778747559,immed,55668.00022125244,Wed Nov 19 2025 12:29:40 GMT-0600 (Central Standard Time),735900.3999999762,A,wh,O,h,141,1,2015.5,733884.8999999762,7705,WL,C,2.0
7,4.549999952316284,immed,55450.000047683716,Wed Nov 19 2025 12:29:40 GMT-0600 (Central Standard Time),736117.5,A,whe,O,e,201,1,2232.600000023842,733884.8999999762,7705,WL,C,2.0
7,5.031999826431274,immed,54968.000173568726,Wed Nov 19 2025 12:29:40 GMT-0600 (Central Standard Time),736600.1999999881,A,whea,O,a,479,1,2715.300000011921,733884.8999999762,7705,WL,C,2.0
7,5.181999921798706,immed,54818.000078201294,Wed Nov 19 2025 12:29:40 GMT-0600 (Central Standard Time),736749.5,A,wheat,O,t,132,1,2864.600000023842,733884.8999999762,7705,WL,C,2.0
7,5.482999801635742,immed,54517.00019836426,Wed Nov 19 2025 12:29:40 GMT-0600 (Central Standard Time),737050.8000000119,A,wheatenter,O,enter,298,1,3165.900000035763,733884.8999999762,7705,WL,C,2.0
7,5.931999921798706,immed,54068.000078201294,Wed Nov 19 2025 12:29:40 GMT-0600 (Central Standard Time),737499.6999999881,A,q,O,q,433,1,448.5999999642372,737051.1000000238,7705,WL,C,3.0
7,6.115000009536743,immed,53884.99999046326,Wed Nov 19 2025 12:29:40 GMT-0600 (Central Standard Time),737682.6000000238,A,qu,O,u,177,1,631.5,737051.1000000238,7705,WL,C,3.0
7,6.281999826431274,immed,53718.000173568726,Wed Nov 19 2025 12:29:40 GMT-0600 (Central Standard Time),737850.1000000238,A,que,O,e,154,1,799.0,737051.1000000238,7705,WL,C,3.0
7,6.515999794006348,immed,53484.00020599365,Wed Nov 19 2025 12:29:40 GMT-0600 (Central Standard Time),738083.6999999881,A,quee,O,e,219,1,1032.5999999642372,737051.1000000238,7705,WL,C,3.0
7,6.7829999923706055,immed,53217.000007629395,Wed Nov 19 2025 12:29:40 GMT-0600 (Central Standard Time),738351.1999999881,A,queen,O,n,249,1,1300.0999999642372,737051.1000000238,7705,WL,C,3.0
7,7.297999858856201,immed,52702.0001411438,Wed Nov 19 2025 12:29:40 GMT-0600 (Central Standard Time),738865.6999999881,A,queenenter,O,enter,501,1,1814.5999999642372,737051.1000000238,7705,WL,C,3.0
7,8.097999811172485,immed,51902.000188827515,Wed Nov 19 2025 12:29:40 GMT-0600 (Central Standard Time),739666.1999999881,A,s,O,s,796,1,800.3000000119209,738865.8999999762,7705,WL,C,4.0
7,8.230999946594238,immed,51769.00005340576,Wed Nov 19 2025 12:29:40 GMT-0600 (Central Standard Time),739798.6999999881,A,su,O,u,123,1,932.8000000119209,738865.8999999762,7705,WL,C,4.0
7,8.38099980354309,immed,51619.00019645691,Wed Nov 19 2025 12:29:40 GMT-0600 (Central Standard Time),739949.3999999762,A,sug,O,g,141,1,1083.5,738865.8999999762,7705,WL,C,4.0
7,8.580999851226807,immed,51419.00014877319,Wed Nov 19 2025 12:29:40 GMT-0600 (Central Standard Time),740148.8000000119,A,suga,O,a,184,1,1282.9000000357628,738865.8999999762,7705,WL,C,4.0
7,8.79699993133545,immed,51203.00006866455,Wed Nov 19 2025 12:29:40 GMT-0600 (Central Standard Time),740365.3000000119,A,sugar,O,r,200,1,1499.4000000357628,738865.8999999762,7705,WL,C,4.0
7,9.014999866485596,immed,50985.000133514404,Wed Nov 19 2025 12:29:40 GMT-0600 (Central Standard Time),740583.0,A,sugarenter,O,enter,208,1,1717.1000000238419,738865.8999999762,7705,WL,C,4.0
7,9.631999969482422,immed,50368.00003051758,Wed Nov 19 2025 12:29:40 GMT-0600 (Central Standard Time),741199.8000000119,A,h,O,h,606,1,616.6000000238419,740583.1999999881,7705,WL,C,5.0
7,9.763999938964844,immed,50236.000061035156,Wed Nov 19 2025 12:29:40 GMT-0600 (Central Standard Time),741331.5,A,ho,O,o,124,1,748.3000000119209,740583.1999999881,7705,WL,C,5.0
7,9.912999868392944,immed,50087.000131607056,Wed Nov 19 2025 12:29:40 GMT-0600 (Central Standard Time),741481.3000000119,A,hom,O,m,137,1,898.1000000238419,740583.1999999881,7705,WL,C,5.0
7,10.146999835968018,immed,49853.00016403198,Wed Nov 19 2025 12:29:40 GMT-0600 (Central Standard Time),741715.3000000119,A,home,O,e,227,1,1132.1000000238419,740583.1999999881,7705,WL,C,5.0
7,10.52999997138977,immed,49470.00002861023,Wed Nov 19 2025 12:29:40 GMT-0600 (Central Standard Time),742097.5,A,homeenter,O,enter,370,1,1514.300000011921,740583.1999999881,7705,WL,C,5.0
7,11.762999773025513,immed,48237.00022697449,Wed Nov 19 2025 12:29:40 GMT-0600 (Central Standard Time),743331.3000000119,A,b,O,b,1218,1,1233.6000000238419,742097.6999999881,7705,WL,C,6.0
7,11.913999795913696,immed,48086.000204086304,Wed Nov 19 2025 12:29:40 GMT-0600 (Central Standard Time),743482.0,A,bo,O,o,137,1,1384.300000011921,742097.6999999881,7705,WL,C,6.0
7,12.196999788284302,immed,47803.0002117157,Wed Nov 19 2025 12:29:40 GMT-0600 (Central Standard Time),743764.5,A,boy,O,y,266,1,1666.800000011921,742097.6999999881,7705,WL,C,6.0
7,12.547999858856201,immed,47452.0001411438,Wed Nov 19 2025 12:29:40 GMT-0600 (Central Standard Time),744115.5,A,boyenter,O,enter,336,1,2017.800000011921,742097.6999999881,7705,WL,C,6.0
7,13.078999996185303,immed,46921.0000038147,Wed Nov 19 2025 12:29:40 GMT-0600 (Central Standard Time),744647.1999999881,A,d,O,d,520,1,531.5,744115.6999999881,7705,WL,C,7.0
7,13.228999853134155,immed,46771.000146865845,Wed Nov 19 2025 12:29:40 GMT-0600 (Central Standard Time),744797.3000000119,A,do,O,o,134,1,681.6000000238419,744115.6999999881,7705,WL,C,7.0
7,13.361999988555908,immed,46638.00001144409,Wed Nov 19 2025 12:29:40 GMT-0600 (Central Standard Time),744930.3000000119,A,doc,O,c,127,1,814.6000000238419,744115.6999999881,7705,WL,C,7.0
7,13.562999963760376,immed,46437.000036239624,Wed Nov 19 2025 12:29:40 GMT-0600 (Central Standard Time),745131.1999999881,A,doct,O,t,195,1,1015.5,744115.6999999881,7705,WL,C,7.0
7,13.79699993133545,immed,46203.00006866455,Wed Nov 19 2025 12:29:40 GMT-0600 (Central Standard Time),745364.8000000119,A,docto,O,o,218,1,1249.1000000238419,744115.6999999881,7705,WL,C,7.0
7,13.944999933242798,immed,46055.0000667572,Wed Nov 19 2025 12:29:40 GMT-0600 (Central Standard Time),745513.0,A,doctor,O,r,141,1,1397.300000011921,744115.6999999881,7705,WL,C,7.0
7,14.194999933242798,immed,45805.0000667572,Wed Nov 19 2025 12:29:40 GMT-0600 (Central Standard Time),745763.3000000119,A,doctorenter,O,enter,235,1,1647.6000000238419,744115.6999999881,7705,WL,C,7.0
7,17.944000005722046,immed,42055.999994277954,Wed Nov 19 2025 12:29:40 GMT-0600 (Central Standard Time),749512.3999999762,A,f,O,f,3737,1,3748.7999999523163,745763.6000000238,7705,WL,C,8.0
7,19.126999855041504,immed,40873.000144958496,Wed Nov 19 2025 12:29:40 GMT-0600 (Central Standard Time),750695.1000000238,A,,O,backspace,1173,1,4931.5,745763.6000000238,7705,WL,C,8.0
7,19.34499979019165,immed,40655.00020980835,Wed Nov 19 2025 12:29:40 GMT-0600 (Central Standard Time),750912.8999999762,A,c,O,c,206,1,5149.299999952316,745763.6000000238,7705,WL,C,8.0
7,19.643999814987183,immed,40356.00018501282,Wed Nov 19 2025 12:29:40 GMT-0600 (Central Standard Time),751212.1000000238,A,ca,O,a,284,1,5448.5,745763.6000000238,7705,WL,C,8.0
7,19.777999877929688,immed,40222.00012207031,Wed Nov 19 2025 12:29:40 GMT-0600 (Central Standard Time),751346.1999999881,A,cam,O,m,130,1,5582.599999964237,745763.6000000238,7705,WL,C,8.0
7,20.07699990272522,immed,39923.00009727478,Wed Nov 19 2025 12:29:40 GMT-0600 (Central Standard Time),751645.1000000238,A,camp,O,p,283,1,5881.5,745763.6000000238,7705,WL,C,8.0
7,20.444000005722046,immed,39555.999994277954,Wed Nov 19 2025 12:29:40 GMT-0600 (Central Standard Time),752011.5,A,campenter,O,enter,351,1,6247.899999976158,745763.6000000238,7705,WL,C,8.0
7,21.07699990272522,immed,38923.00009727478,Wed Nov 19 2025 12:29:40 GMT-0600 (Central Standard Time),752644.6000000238,A,f,O,f,617,1,633.0,752011.6000000238,7705,WL,C,9.0
7,21.259999990463257,immed,38740.00000953674,Wed Nov 19 2025 12:29:40 GMT-0600 (Central Standard Time),752828.1000000238,A,fl,O,l,167,1,816.5,752011.6000000238,7705,WL,C,9.0
7,21.425999879837036,immed,38574.000120162964,Wed Nov 19 2025 12:29:40 GMT-0600 (Central Standard Time),752994.3999999762,A,fla,O,a,153,1,982.7999999523163,752011.6000000238,7705,WL,C,9.0
7,21.67799997329712,immed,38322.00002670288,Wed Nov 19 2025 12:29:40 GMT-0600 (Central Standard Time),753245.6000000238,A,flag,O,g,242,1,1234.0,752011.6000000238,7705,WL,C,9.0
7,21.97699999809265,immed,38023.00000190735,Wed Nov 19 2025 12:29:40 GMT-0600 (Central Standard Time),753544.8000000119,A,flagenter,O,enter,295,1,1533.199999988079,752011.6000000238,7705,WL,C,9.0
7,23.625999927520752,immed,36374.00007247925,Wed Nov 19 2025 12:29:40 GMT-0600 (Central Standard Time),755194.1999999881,A,n,O,n,1635,1,1649.0999999642372,753545.1000000238,7705,WL,C,10.0
7,23.775999784469604,immed,36224.000215530396,Wed Nov 19 2025 12:29:40 GMT-0600 (Central Standard Time),755343.5,A,na,O,a,146,1,1798.3999999761581,753545.1000000238,7705,WL,C,10.0
7,23.90999984741211,immed,36090.00015258789,Wed Nov 19 2025 12:29:40 GMT-0600 (Central Standard Time),755478.1000000238,A,nai,O,i,126,1,1933.0,753545.1000000238,7705,WL,C,10.0
7,24.15999984741211,immed,35840.00015258789,Wed Nov 19 2025 12:29:40 GMT-0600 (Central Standard Time),755727.8999999762,A,nail,O,l,231,1,2182.7999999523163,753545.1000000238,7705,WL,C,10.0
7,24.625,immed,35375.0,Wed Nov 19 2025 12:29:40 GMT-0600 (Central Standard Time),756193.3999999762,A,nailenter,O,enter,454,1,2648.2999999523163,753545.1000000238,7705,WL,C,10.0
7,25.174999952316284,immed,34825.000047683716,Wed Nov 19 2025 12:29:40 GMT-0600 (Central Standard Time),756743.3999999762,A,l,O,l,530,1,549.7999999523163,756193.6000000238,7705,WL,C,11.0
7,25.275999784469604,immed,34724.000215530396,Wed Nov 19 2025 12:29:40 GMT-0600 (Central Standard Time),756844.0,A,le,O,e,94,1,650.3999999761581,756193.6000000238,7705,WL,C,11.0
7,25.492999792099,immed,34507.000207901,Wed Nov 19 2025 12:29:40 GMT-0600 (Central Standard Time),757060.6999999881,A,let,O,t,201,1,867.0999999642372,756193.6000000238,7705,WL,C,11.0
7,25.674999952316284,immed,34325.000047683716,Wed Nov 19 2025 12:29:40 GMT-0600 (Central Standard Time),757243.3000000119,A,lett,O,t,167,1,1049.699999988079,756193.6000000238,7705,WL,C,11.0
7,25.908999919891357,immed,34091.00008010864,Wed Nov 19 2025 12:29:40 GMT-0600 (Central Standard Time),757476.8000000119,A,lette,O,e,218,1,1283.199999988079,756193.6000000238,7705,WL,C,11.0
7,25.97499990463257,immed,34025.00009536743,Wed Nov 19 2025 12:29:40 GMT-0600 (Central Standard Time),757543.3000000119,A,letter,O,r,48,1,1349.699999988079,756193.6000000238,7705,WL,C,11.0
7,26.425999879837036,immed,33574.000120162964,Wed Nov 19 2025 12:29:40 GMT-0600 (Central Standard Time),757993.8999999762,A,letterenter,O,enter,431,1,1800.2999999523163,756193.6000000238,7705,WL,C,11.0
7,26.89199995994568,immed,33108.00004005432,Wed Nov 19 2025 12:29:40 GMT-0600 (Central Standard Time),758459.8000000119,A,c,O,c,451,1,465.80000001192093,757994.0,7705,WL,C,12.0
7,27.108999967575073,immed,32891.00003242493,Wed Nov 19 2025 12:29:40 GMT-0600 (Central Standard Time),758676.6999999881,A,ca,O,a,209,1,682.6999999880791,757994.0,7705,WL,C,12.0
7,27.274999856948853,immed,32725.000143051147,Wed Nov 19 2025 12:29:40 GMT-0600 (Central Standard Time),758843.1000000238,A,cat,O,t,163,1,849.1000000238419,757994.0,7705,WL,C,12.0
7,27.473999977111816,immed,32526.000022888184,Wed Nov 19 2025 12:29:40 GMT-0600 (Central Standard Time),759042.3999999762,A,catt,O,t,194,1,1048.3999999761581,757994.0,7705,WL,C,12.0
7,27.742999792099,immed,32257.000207901,Wed Nov 19 2025 12:29:40 GMT-0600 (Central Standard Time),759310.5,A,cattl,O,l,250,1,1316.5,757994.0,7705,WL,C,12.0
7,27.924999952316284,immed,32075.000047683716,Wed Nov 19 2025 12:29:40 GMT-0600 (Central Standard Time),759492.5,A,cattle,O,e,166,1,1498.5,757994.0,7705,WL,C,12.0
7,28.30899977684021,immed,31691.00022315979,Wed Nov 19 2025 12:29:40 GMT-0600 (Central Standard Time),759876.6000000238,A,cattleenter,O,enter,368,1,1882.6000000238419,757994.0,7705,WL,C,12.0
7,29.62399983406067,immed,30376.00016593933,Wed Nov 19 2025 12:29:40 GMT-0600 (Central Standard Time),761192.1999999881,A,c,O,c,1304,1,1315.300000011921,759876.8999999762,7705,WL,C,13.0
