block_c,block_dur,condition,countdown,datetime,endtime,list,multichar_response,project,response,response_time,session_number,start_end,starttime,subject_id,task,task_vers,trial
,,,,Mon Dec 01 2025 17:19:19 GMT-0600 (Central Standard Time),,,,I,space,611,1,,,8084,WL,C,
prac,,0,,Mon Dec 01 2025 17:19:19 GMT-0600 (Central Standard Time),,NA,b,I,b,9690,1,,,8084,WL,C,1.0
prac,,0,,Mon Dec 01 2025 17:19:19 GMT-0600 (Central Standard Time),,NA,bo,I,o,205,1,,,8084,WL,C,1.0
prac,,0,,Mon Dec 01 2025 17:19:19 GMT-0600 (Central Standard Time),,NA,boo,I,o,146,1,,,8084,WL,C,1.0
prac,,0,,Mon Dec 01 2025 17:19:19 GMT-0600 (Central Standard Time),,NA,boos,I,s,399,1,,,8084,WL,C,1.0
prac,,0,,Mon Dec 01 2025 17:19:19 GMT-0600 (Central Standard Time),,NA,boost,I,t,150,1,,,8084,WL,C,1.0
prac,,0,,Mon Dec 01 2025 17:19:19 GMT-0600 (Central Standard Time),,NA,boostenter,I,enter,263,1,,,8084,WL,C,1.0
1,1.7160000801086426,learn,58283.99991989136,Mon Dec 01 2025 17:19:19 GMT-0600 (Central Standard Time),157369.3999999985,A,t,I,t,1708,1,1715.8999999985099,155653.5,8084,WL,C,1.0
1,1.8650000095367432,learn,58134.99999046326,Mon Dec 01 2025 17:19:19 GMT-0600 (Central Standard Time),157518.79999999702,A,to,I,o,142,1,1865.2999999970198,155653.5,8084,WL,C,1.0
1,1.999000072479248,learn,58000.99992752075,Mon Dec 01 2025 17:19:19 GMT-0600 (Central Standard Time),157652.5,A,tow,I,w,114,1,1999.0,155653.5,8084,WL,C,1.0
1,2.131999969482422,learn,57868.00003051758,Mon Dec 01 2025 17:19:19 GMT-0600 (Central Standard Time),157785.6000000015,A,towe,I,e,124,1,2132.10000000149,155653.5,8084,WL,C,1.0
1,2.2660000324249268,learn,57733.99996757507,Mon Dec 01 2025 17:19:19 GMT-0600 (Central Standard Time),157919.19999999553,A,tower,I,r,112,1,2265.6999999955297,155653.5,8084,WL,C,1.0
1,2.615000009536743,learn,57384.99999046326,Mon Dec 01 2025 17:19:19 GMT-0600 (Central Standard Time),158268.79999999702,A,towerenter,I,enter,339,1,2615.2999999970198,155653.5,8084,WL,C,1.0
1,3.315000057220459,learn,56684.99994277954,Mon Dec 01 2025 17:19:19 GMT-0600 (Central Standard Time),158968.6000000015,A,q,I,q,683,1,699.2000000029802,158269.3999999985,8084,WL,C,2.0
1,3.4489998817443848,learn,56551.000118255615,Mon Dec 01 2025 17:19:19 GMT-0600 (Central Standard Time),159102.1000000015,A,qu,I,u,121,1,832.7000000029802,158269.3999999985,8084,WL,C,2.0
1,3.697999954223633,learn,56302.00004577637,Mon Dec 01 2025 17:19:19 GMT-0600 (Central Standard Time),159352.0,A,que,I,e,236,1,1082.6000000014901,158269.3999999985,8084,WL,C,2.0
1,4.131999969482422,learn,55868.00003051758,Mon Dec 01 2025 17:19:19 GMT-0600 (Central Standard Time),159785.1000000015,A,quee,I,e,417,1,1515.7000000029802,158269.3999999985,8084,WL,C,2.0
1,4.3480000495910645,learn,55651.999950408936,Mon Dec 01 2025 17:19:19 GMT-0600 (Central Standard Time),160001.6000000015,A,queen,I,n,199,1,1732.2000000029802,158269.3999999985,8084,WL,C,2.0
1,5.763999938964844,learn,54236.000061035156,Mon Dec 01 2025 17:19:19 GMT-0600 (Central Standard Time),161417.8999999985,A,queenenter,I,enter,1408,1,3148.5,158269.3999999985,8084,WL,C,2.0
1,6.247999906539917,learn,53752.00009346008,Mon Dec 01 2025 17:19:19 GMT-0600 (Central Standard Time),161901.1000000015,A,d,I,d,463,1,482.6000000014901,161418.5,8084,WL,C,3.0
1,6.38100004196167,learn,53618.99995803833,Mon Dec 01 2025 17:19:19 GMT-0600 (Central Standard Time),162034.6000000015,A,do,I,o,125,1,616.1000000014901,161418.5,8084,WL,C,3.0
1,6.563999891281128,learn,53436.00010871887,Mon Dec 01 2025 17:19:19 GMT-0600 (Central Standard Time),162217.29999999702,A,doc,I,c,175,1,798.7999999970198,161418.5,8084,WL,C,3.0
1,6.7809998989105225,learn,53219.00010108948,Mon Dec 01 2025 17:19:19 GMT-0600 (Central Standard Time),162434.1000000015,A,doco,I,o,207,1,1015.6000000014901,161418.5,8084,WL,C,3.0
1,7.313999891281128,learn,52686.00010871887,Mon Dec 01 2025 17:19:19 GMT-0600 (Central Standard Time),162967.3999999985,A,doc,I,backspace,520,1,1548.8999999985099,161418.5,8084,WL,C,3.0
1,7.414000034332275,learn,52585.999965667725,Mon Dec 01 2025 17:19:19 GMT-0600 (Central Standard Time),163067.3999999985,A,doct,I,t,91,1,1648.8999999985099,161418.5,8084,WL,C,3.0
1,7.581000089645386,learn,52418.999910354614,Mon Dec 01 2025 17:19:19 GMT-0600 (Central Standard Time),163234.1000000015,A,docto,I,o,149,1,1815.6000000014901,161418.5,8084,WL,C,3.0
1,7.7799999713897705,learn,52220.00002861023,Mon Dec 01 2025 17:19:19 GMT-0600 (Central Standard Time),163433.8999999985,A,doctor,I,r,192,1,2015.3999999985099,161418.5,8084,WL,C,3.0
1,7.980000019073486,learn,52019.999980926514,Mon Dec 01 2025 17:19:19 GMT-0600 (Central Standard Time),163633.8999999985,A,doctorenter,I,enter,184,1,2215.39999999851,161418.5,8084,WL,C,3.0
1,9.645999908447266,learn,50354.000091552734,Mon Dec 01 2025 17:19:19 GMT-0600 (Central Standard Time),165299.8999999985,A,b,I,b,1656,1,1665.5,163634.3999999985,8084,WL,C,4.0
1,9.812999963760376,learn,50187.000036239624,Mon Dec 01 2025 17:19:19 GMT-0600 (Central Standard Time),165466.5,A,bo,I,o,157,1,1832.1000000014901,163634.3999999985,8084,WL,C,4.0
1,10.013000011444092,learn,49986.99998855591,Mon Dec 01 2025 17:19:19 GMT-0600 (Central Standard Time),165666.6000000015,A,bod,I,d,192,1,2032.2000000029802,163634.3999999985,8084,WL,C,4.0
1,10.162999868392944,learn,49837.000131607056,Mon Dec 01 2025 17:19:19 GMT-0600 (Central Standard Time),165816.69999999553,A,body,I,y,143,1,2182.2999999970198,163634.3999999985,8084,WL,C,4.0
1,10.36299991607666,learn,49637.00008392334,Mon Dec 01 2025 17:19:19 GMT-0600 (Central Standard Time),166016.5,A,bodyenter,I,enter,192,1,2382.10000000149,163634.3999999985,8084,WL,C,4.0
1,33.12100005149841,learn,26878.999948501587,Mon Dec 01 2025 17:19:19 GMT-0600 (Central Standard Time),188775.79999999702,A,enter,I,enter,22744,1,22758.79999999702,166017.0,8084,WL,C,5.0
1,34.80399990081787,learn,25196.00009918213,Mon Dec 01 2025 17:19:19 GMT-0600 (Central Standard Time),190458.3999999985,A,enter,I,enter,1664,1,1682.2000000029802,188776.19999999553,8084,WL,C,6.0
1,35.019999980926514,learn,24980.000019073486,Mon Dec 01 2025 17:19:19 GMT-0600 (Central Standard Time),190675.19999999553,A,enter,I,enter,199,1,216.39999999850988,190458.79999999702,8084,WL,C,7.0
1,35.33699989318848,learn,24663.000106811523,Mon Dec 01 2025 17:19:19 GMT-0600 (Central Standard Time),190991.69999999553,A,enter,I,enter,309,1,316.09999999403954,190675.6000000015,8084,WL,C,8.0
1,35.5699999332428,learn,24430.000066757202,Mon Dec 01 2025 17:19:19 GMT-0600 (Central Standard Time),191224.8999999985,A,enter,I,enter,225,1,232.89999999850988,190992.0,8084,WL,C,9.0
1,36.1010000705719,learn,23898.9999294281,Mon Dec 01 2025 17:19:19 GMT-0600 (Central Standard Time),191756.19999999553,A,enter,I,enter,384,1,530.7999999970198,191225.3999999985,8084,WL,C,10.0
1,36.36999988555908,learn,23630.000114440918,Mon Dec 01 2025 17:19:19 GMT-0600 (Central Standard Time),192024.79999999702,A,enter,I,enter,252,1,268.19999999552965,191756.6000000015,8084,WL,C,11.0
1,36.769999980926514,learn,23230.000019073486,Mon Dec 01 2025 17:19:19 GMT-0600 (Central Standard Time),192424.6000000015,A,enter,I,enter,384,1,399.5,192025.1000000015,8084,WL,C,12.0
1,37.15299987792969,learn,22847.000122070312,Mon Dec 01 2025 17:19:19 GMT-0600 (Central Standard Time),192807.79999999702,A,enter,I,enter,376,1,382.69999999552965,192425.1000000015,8084,WL,C,13.0
1,37.40299987792969,learn,22597.000122070312,Mon Dec 01 2025 17:19:19 GMT-0600 (Central Standard Time),193057.69999999553,A,enter,I,enter,233,1,249.59999999403954,192808.1000000015,8084,WL,C,14.0
1,37.6029999256134,learn,22397.000074386597,Mon Dec 01 2025 17:19:19 GMT-0600 (Central Standard Time),193257.6000000015,A,enter,I,enter,183,1,199.60000000149012,193058.0,8084,WL,C,15.0
2,0.8499999046325684,learn,59150.00009536743,Mon Dec 01 2025 17:19:19 GMT-0600 (Central Standard Time),263735.69999999553,A,t,I,t,837,1,849.3999999985099,262886.299999997,8084,WL,C,1.0
2,0.9830000400543213,learn,59016.99995994568,Mon Dec 01 2025 17:19:19 GMT-0600 (Central Standard Time),263869.1000000015,A,to,I,o,121,1,982.8000000044703,262886.299999997,8084,WL,C,1.0
2,1.116999864578247,learn,58883.00013542175,Mon Dec 01 2025 17:19:19 GMT-0600 (Central Standard Time),264002.69999999553,A,tow,I,w,125,1,1116.3999999985099,262886.299999997,8084,WL,C,1.0
2,1.2330000400543213,learn,58766.99995994568,Mon Dec 01 2025 17:19:19 GMT-0600 (Central Standard Time),264119.1000000015,A,towe,I,e,104,1,1232.8000000044703,262886.299999997,8084,WL,C,1.0
2,1.3329999446868896,learn,58667.00005531311,Mon Dec 01 2025 17:19:19 GMT-0600 (Central Standard Time),264219.0,A,tower,I,r,91,1,1332.7000000029802,262886.299999997,8084,WL,C,1.0
2,1.5829999446868896,learn,58417.00005531311,Mon Dec 01 2025 17:19:19 GMT-0600 (Central Standard Time),264468.69999999553,A,towerenter,I,enter,230,1,1582.3999999985099,262886.299999997,8084,WL,C,1.0
2,2.066999912261963,learn,57933.00008773804,Mon Dec 01 2025 17:19:19 GMT-0600 (Central Standard Time),264952.3999999985,A,w,I,w,477,1,483.29999999701977,264469.1000000015,8084,WL,C,2.0
2,2.25,learn,57750.0,Mon Dec 01 2025 17:19:19 GMT-0600 (Central Standard Time),265135.299999997,A,wh,I,h,162,1,666.1999999955297,264469.1000000015,8084,WL,C,2.0
2,2.382999897003174,learn,57617.000102996826,Mon Dec 01 2025 17:19:19 GMT-0600 (Central Standard Time),265268.799999997,A,whe,I,e,114,1,799.6999999955297,264469.1000000015,8084,WL,C,2.0
2,2.882999897003174,learn,57117.000102996826,Mon Dec 01 2025 17:19:19 GMT-0600 (Central Standard Time),265768.6000000015,A,whea,I,a,494,1,1299.5,264469.1000000015,8084,WL,C,2.0
2,2.950000047683716,learn,57049.999952316284,Mon Dec 01 2025 17:19:19 GMT-0600 (Central Standard Time),265835.299999997,A,wheat,I,t,58,1,1366.1999999955297,264469.1000000015,8084,WL,C,2.0
2,3.2990000247955322,learn,56700.99997520447,Mon Dec 01 2025 17:19:19 GMT-0600 (Central Standard Time),266185.19999999553,A,wheatenter,I,enter,343,1,1716.0999999940395,264469.1000000015,8084,WL,C,2.0
2,3.865999937057495,learn,56134.000062942505,Mon Dec 01 2025 17:19:19 GMT-0600 (Central Standard Time),266751.5,A,h,I,h,560,1,565.8999999985099,266185.6000000015,8084,WL,C,3.0
2,4.016000032424927,learn,55983.99996757507,Mon Dec 01 2025 17:19:19 GMT-0600 (Central Standard Time),266901.5,A,ho,I,o,130,1,715.8999999985099,266185.6000000015,8084,WL,C,3.0
2,4.249000072479248,learn,55750.99992752075,Mon Dec 01 2025 17:19:19 GMT-0600 (Central Standard Time),267134.69999999553,A,hoo,I,o,213,1,949.0999999940395,266185.6000000015,8084,WL,C,3.0
2,4.499000072479248,learn,55500.99992752075,Mon Dec 01 2025 17:19:19 GMT-0600 (Central Standard Time),267384.69999999553,A,hoom,I,m,236,1,1199.0999999940395,266185.6000000015,8084,WL,C,3.0
2,4.799000024795532,learn,55200.99997520447,Mon Dec 01 2025 17:19:19 GMT-0600 (Central Standard Time),267684.6000000015,A,hoo,I,backspace,282,1,1499.0,266185.6000000015,8084,WL,C,3.0
2,4.931999921798706,learn,55068.000078201294,Mon Dec 01 2025 17:19:19 GMT-0600 (Central Standard Time),267817.8999999985,A,ho,I,backspace,125,1,1632.2999999970198,266185.6000000015,8084,WL,C,3.0
2,5.164999961853027,learn,54835.00003814697,Mon Dec 01 2025 17:19:19 GMT-0600 (Central Standard Time),268051.1000000015,A,hom,I,m,217,1,1865.5,266185.6000000015,8084,WL,C,3.0
2,5.264999866485596,learn,54735.000133514404,Mon Dec 01 2025 17:19:19 GMT-0600 (Central Standard Time),268151.0,A,home,I,e,96,1,1965.3999999985099,266185.6000000015,8084,WL,C,3.0
2,6.148999929428101,learn,53851.0000705719,Mon Dec 01 2025 17:19:19 GMT-0600 (Central Standard Time),269034.19999999553,A,homeenter,I,enter,875,1,2848.5999999940395,266185.6000000015,8084,WL,C,3.0
2,6.582000017166138,learn,53417.99998283386,Mon Dec 01 2025 17:19:19 GMT-0600 (Central Standard Time),269467.299999997,A,b,I,b,423,1,432.79999999701977,269034.5,8084,WL,C,4.0
2,6.7149999141693115,learn,53285.00008583069,Mon Dec 01 2025 17:19:19 GMT-0600 (Central Standard Time),269600.69999999553,A,bo,I,o,119,1,566.1999999955297,269034.5,8084,WL,C,4.0
2,6.9649999141693115,learn,53035.00008583069,Mon Dec 01 2025 17:19:19 GMT-0600 (Central Standard Time),269850.6000000015,A,boy,I,y,240,1,816.1000000014901,269034.5,8084,WL,C,4.0
2,7.3480000495910645,learn,52651.999950408936,Mon Dec 01 2025 17:19:19 GMT-0600 (Central Standard Time),270234.0,A,boyenter,I,enter,367,1,1199.5,269034.5,8084,WL,C,4.0
2,8.098000049591064,learn,51901.999950408936,Mon Dec 01 2025 17:19:19 GMT-0600 (Central Standard Time),270983.5,A,c,I,c,735,1,749.2000000029802,270234.299999997,8084,WL,C,5.0
2,8.214999914169312,learn,51785.00008583069,Mon Dec 01 2025 17:19:19 GMT-0600 (Central Standard Time),271100.299999997,A,co,I,o,97,1,866.0,270234.299999997,8084,WL,C,5.0
2,8.398000001907349,learn,51601.99999809265,Mon Dec 01 2025 17:19:19 GMT-0600 (Central Standard Time),271283.5,A,cor,I,r,166,1,1049.2000000029802,270234.299999997,8084,WL,C,5.0
2,8.563999891281128,learn,51436.00010871887,Mon Dec 01 2025 17:19:19 GMT-0600 (Central Standard Time),271450.0,A,corn,I,n,157,1,1215.7000000029802,270234.299999997,8084,WL,C,5.0
2,8.848000049591064,learn,51151.999950408936,Mon Dec 01 2025 17:19:19 GMT-0600 (Central Standard Time),271733.19999999553,A,cornenter,I,enter,271,1,1498.8999999985099,270234.299999997,8084,WL,C,5.0
2,9.29699993133545,learn,50703.00006866455,Mon Dec 01 2025 17:19:19 GMT-0600 (Central Standard Time),272183.19999999553,A,c,I,c,429,1,449.5,271733.69999999553,8084,WL,C,6.0
2,9.54699993133545,learn,50453.00006866455,Mon Dec 01 2025 17:19:19 GMT-0600 (Central Standard Time),272433.0,A,ca,I,a,243,1,699.3000000044703,271733.69999999553,8084,WL,C,6.0
2,9.897000074386597,learn,50102.9999256134,Mon Dec 01 2025 17:19:19 GMT-0600 (Central Standard Time),272782.69999999553,A,cat,I,t,344,1,1049.0,271733.69999999553,8084,WL,C,6.0
2,10.063999891281128,learn,49936.00010871887,Mon Dec 01 2025 17:19:19 GMT-0600 (Central Standard Time),272949.69999999553,A,catt,I,t,156,1,1216.0,271733.69999999553,8084,WL,C,6.0
2,10.21399998664856,learn,49786.00001335144,Mon Dec 01 2025 17:19:19 GMT-0600 (Central Standard Time),273099.799999997,A,cattl,I,l,132,1,1366.1000000014901,271733.69999999553,8084,WL,C,6.0
2,10.330999851226807,learn,49669.00014877319,Mon Dec 01 2025 17:19:19 GMT-0600 (Central Standard Time),273216.3999999985,A,cattle,I,e,110,1,1482.7000000029802,271733.69999999553,8084,WL,C,6.0
2,12.062999963760376,learn,47937.000036239624,Mon Dec 01 2025 17:19:19 GMT-0600 (Central Standard Time),274949.0,A,cattleenter,I,enter,1722,1,3215.3000000044703,271733.69999999553,8084,WL,C,6.0
2,12.69700002670288,learn,47302.99997329712,Mon Dec 01 2025 17:19:19 GMT-0600 (Central Standard Time),275582.3999999985,A,t,I,t,621,1,632.8999999985099,274949.5,8084,WL,C,7.0
2,12.812999963760376,learn,47187.000036239624,Mon Dec 01 2025 17:19:19 GMT-0600 (Central Standard Time),275698.6000000015,A,to,I,o,108,1,749.1000000014901,274949.5,8084,WL,C,7.0
2,13.079999923706055,learn,46920.000076293945,Mon Dec 01 2025 17:19:19 GMT-0600 (Central Standard Time),275965.3999999985,A,tow,I,w,256,1,1015.8999999985099,274949.5,8084,WL,C,7.0
2,13.263000011444092,learn,46736.99998855591,Mon Dec 01 2025 17:19:19 GMT-0600 (Central Standard Time),276148.799999997,A,towe,I,e,172,1,1199.2999999970198,274949.5,8084,WL,C,7.0
2,13.328999996185303,learn,46671.0000038147,Mon Dec 01 2025 17:19:19 GMT-0600 (Central Standard Time),276215.0,A,tower,I,r,62,1,1265.5,274949.5,8084,WL,C,7.0
2,13.645999908447266,learn,46354.000091552734,Mon Dec 01 2025 17:19:19 GMT-0600 (Central Standard Time),276531.69999999553,A,towerenter,I,enter,299,1,1582.1999999955297,274949.5,8084,WL,C,7.0
2,19.24399995803833,learn,40756.00004196167,Mon Dec 01 2025 17:19:19 GMT-0600 (Central Standard Time),282130.1000000015,A,b,I,b,5591,1,5598.0,276532.1000000015,8084,WL,C,8.0
2,19.361000061035156,learn,40638.999938964844,Mon Dec 01 2025 17:19:19 GMT-0600 (Central Standard Time),282246.69999999553,A,bo,I,o,95,1,5714.5999999940395,276532.1000000015,8084,WL,C,8.0
2,19.57800006866455,learn,40421.99993133545,Mon Dec 01 2025 17:19:19 GMT-0600 (Central Standard Time),282463.3999999985,A,bod,I,d,196,1,5931.29999999702,276532.1000000015,8084,WL,C,8.0
2,19.710999965667725,learn,40289.000034332275,Mon Dec 01 2025 17:19:19 GMT-0600 (Central Standard Time),282596.69999999553,A,body,I,y,122,1,6064.5999999940395,276532.1000000015,8084,WL,C,8.0
2,19.92799997329712,learn,40072.00002670288,Mon Dec 01 2025 17:19:19 GMT-0600 (Central Standard Time),282813.5,A,bodyenter,I,enter,197,1,6281.39999999851,276532.1000000015,8084,WL,C,8.0
2,26.80900001525879,learn,33190.99998474121,Mon Dec 01 2025 17:19:19 GMT-0600 (Central Standard Time),289694.299999997,A,c,I,c,6876,1,6880.5,282813.799999997,8084,WL,C,9.0
2,26.991999864578247,learn,33008.00013542175,Mon Dec 01 2025 17:19:19 GMT-0600 (Central Standard Time),289877.19999999553,A,ca,I,a,171,1,7063.39999999851,282813.799999997,8084,WL,C,9.0
2,27.14199995994568,learn,32858.00004005432,Mon Dec 01 2025 17:19:19 GMT-0600 (Central Standard Time),290027.19999999553,A,cat,I,t,132,1,7213.39999999851,282813.799999997,8084,WL,C,9.0
2,27.342000007629395,learn,32657.999992370605,Mon Dec 01 2025 17:19:19 GMT-0600 (Central Standard Time),290227.5,A,catt,I,t,182,1,7413.70000000298,282813.799999997,8084,WL,C,9.0
2,27.524999856948853,learn,32475.000143051147,Mon Dec 01 2025 17:19:19 GMT-0600 (Central Standard Time),290411.0,A,cattl,I,l,166,1,7597.20000000298,282813.799999997,8084,WL,C,9.0
2,27.64199995994568,learn,32358.00004005432,Mon Dec 01 2025 17:19:19 GMT-0600 (Central Standard Time),290527.3999999985,A,cattle,I,e,102,1,7713.60000000149,282813.799999997,8084,WL,C,9.0
2,27.825000047683716,learn,32174.999952316284,Mon Dec 01 2025 17:19:19 GMT-0600 (Central Standard Time),290710.5,A,cattley,I,y,162,1,7896.70000000298,282813.799999997,8084,WL,C,9.0
2,28.024999856948853,learn,31975.000143051147,Mon Dec 01 2025 17:19:19 GMT-0600 (Central Standard Time),290910.6000000015,A,cattleyenter,I,enter,195,1,8096.80000000447,282813.799999997,8084,WL,C,9.0
2,33.35699987411499,learn,26643.00012588501,Mon Dec 01 2025 17:19:19 GMT-0600 (Central Standard Time),296242.299999997,A,enter,I,enter,5315,1,5331.60000000149,290910.69999999553,8084,WL,C,10.0
2,33.83999991416931,learn,26160.00008583069,Mon Dec 01 2025 17:19:19 GMT-0600 (Central Standard Time),296725.299999997,A,enter,I,enter,471,1,482.6000000014901,296242.69999999553,8084,WL,C,11.0
2,34.18899989128113,learn,25811.000108718872,Mon Dec 01 2025 17:19:19 GMT-0600 (Central Standard Time),297075.1000000015,A,enter,I,enter,340,1,349.5,296725.6000000015,8084,WL,C,12.0
2,34.58899998664856,learn,25411.00001335144,Mon Dec 01 2025 17:19:19 GMT-0600 (Central Standard Time),297475.1000000015,A,enter,I,enter,383,1,399.80000000447035,297075.299999997,8084,WL,C,13.0
2,34.99000000953674,learn,25009.999990463257,Mon Dec 01 2025 17:19:19 GMT-0600 (Central Standard Time),297875.19999999553,A,enter,I,enter,382,1,399.79999999701977,297475.3999999985,8084,WL,C,14.0
2,35.43899989128113,learn,24561.000108718872,Mon Dec 01 2025 17:19:19 GMT-0600 (Central Standard Time),298325.0,A,enter,I,enter,430,1,449.3999999985099,297875.6000000015,8084,WL,C,15.0
3,1.248999834060669,learn,58751.00016593933,Mon Dec 01 2025 17:19:19 GMT-0600 (Central Standard Time),365603.69999999553,A,t,I,t,1241,1,1249.1999999955297,364354.5,8084,WL,C,1.0
3,1.3989999294281006,learn,58601.0000705719,Mon Dec 01 2025 17:19:19 GMT-0600 (Central Standard Time),365753.799999997,A,to,I,o,133,1,1399.2999999970198,364354.5,8084,WL,C,1.0
3,1.5160000324249268,learn,58483.99996757507,Mon Dec 01 2025 17:19:19 GMT-0600 (Central Standard Time),365870.299999997,A,tow,I,w,111,1,1515.7999999970198,364354.5,8084,WL,C,1.0
3,1.6489999294281006,learn,58351.0000705719,Mon Dec 01 2025 17:19:19 GMT-0600 (Central Standard Time),366003.799999997,A,towe,I,e,115,1,1649.2999999970198,364354.5,8084,WL,C,1.0
3,1.6989998817443848,learn,58301.000118255615,Mon Dec 01 2025 17:19:19 GMT-0600 (Central Standard Time),366053.799999997,A,tower,I,r,38,1,1699.2999999970198,364354.5,8084,WL,C,1.0
3,1.9830000400543213,learn,58016.99995994568,Mon Dec 01 2025 17:19:19 GMT-0600 (Central Standard Time),366337.0,A,towerenter,I,enter,277,1,1982.5,364354.5,8084,WL,C,1.0
3,2.5989999771118164,learn,57401.00002288818,Mon Dec 01 2025 17:19:19 GMT-0600 (Central Standard Time),366953.299999997,A,w,I,w,609,1,615.8999999985099,366337.3999999985,8084,WL,C,2.0
3,2.748999834060669,learn,57251.00016593933,Mon Dec 01 2025 17:19:19 GMT-0600 (Central Standard Time),367103.19999999553,A,wh,I,h,144,1,765.7999999970198,366337.3999999985,8084,WL,C,2.0
3,2.7990000247955322,learn,57200.99997520447,Mon Dec 01 2025 17:19:19 GMT-0600 (Central Standard Time),367153.3999999985,A,whe,I,e,34,1,816.0,366337.3999999985,8084,WL,C,2.0
3,3.115999937057495,learn,56884.000062942505,Mon Dec 01 2025 17:19:19 GMT-0600 (Central Standard Time),367470.0,A,whea,I,a,304,1,1132.6000000014901,366337.3999999985,8084,WL,C,2.0
3,3.2149999141693115,learn,56785.00008583069,Mon Dec 01 2025 17:19:19 GMT-0600 (Central Standard Time),367570.0,A,wheat,I,t,83,1,1232.6000000014901,366337.3999999985,8084,WL,C,2.0
3,3.8489999771118164,learn,56151.00002288818,Mon Dec 01 2025 17:19:19 GMT-0600 (Central Standard Time),368202.8999999985,A,wheatenter,I,enter,616,1,1865.5,366337.3999999985,8084,WL,C,2.0
3,4.299000024795532,learn,55700.99997520447,Mon Dec 01 2025 17:19:19 GMT-0600 (Central Standard Time),368653.3999999985,A,q,I,q,439,1,450.0,368203.3999999985,8084,WL,C,3.0
3,4.5320000648498535,learn,55467.99993515015,Mon Dec 01 2025 17:19:19 GMT-0600 (Central Standard Time),368886.3999999985,A,qu,I,u,221,1,683.0,368203.3999999985,8084,WL,C,3.0
3,4.747999906539917,learn,55252.00009346008,Mon Dec 01 2025 17:19:19 GMT-0600 (Central Standard Time),369102.69999999553,A,que,I,e,211,1,899.2999999970198,368203.3999999985,8084,WL,C,3.0
3,5.0980000495910645,learn,54901.999950408936,Mon Dec 01 2025 17:19:19 GMT-0600 (Central Standard Time),369452.69999999553,A,quee,I,e,339,1,1249.2999999970198,368203.3999999985,8084,WL,C,3.0
3,5.3480000495910645,learn,54651.999950408936,Mon Dec 01 2025 17:19:19 GMT-0600 (Central Standard Time),369702.6000000015,A,queen,I,n,238,1,1499.2000000029802,368203.3999999985,8084,WL,C,3.0
3,5.5980000495910645,learn,54401.999950408936,Mon Dec 01 2025 17:19:19 GMT-0600 (Central Standard Time),369952.5,A,queenenter,I,enter,243,1,1749.1000000014901,368203.3999999985,8084,WL,C,3.0
3,6.148000001907349,learn,53851.99999809265,Mon Dec 01 2025 17:19:19 GMT-0600 (Central Standard Time),370502.3999999985,A,s,I,s,538,1,549.5,369952.8999999985,8084,WL,C,4.0
3,6.315000057220459,learn,53684.99994277954,Mon Dec 01 2025 17:19:19 GMT-0600 (Central Standard Time),370669.299999997,A,sh,I,h,156,1,716.3999999985099,369952.8999999985,8084,WL,C,4.0
3,6.565000057220459,learn,53434.99994277954,Mon Dec 01 2025 17:19:19 GMT-0600 (Central Standard Time),370919.0,A,shu,I,u,229,1,966.1000000014901,369952.8999999985,8084,WL,C,4.0
3,7.164000034332275,learn,52835.999965667725,Mon Dec 01 2025 17:19:19 GMT-0600 (Central Standard Time),371518.69999999553,A,sh,I,backspace,595,1,1565.7999999970198,369952.8999999985,8084,WL,C,4.0
3,7.330999851226807,learn,52669.00014877319,Mon Dec 01 2025 17:19:19 GMT-0600 (Central Standard Time),371685.5,A,s,I,backspace,146,1,1732.6000000014901,369952.8999999985,8084,WL,C,4.0
3,7.563999891281128,learn,52436.00010871887,Mon Dec 01 2025 17:19:19 GMT-0600 (Central Standard Time),371918.6000000015,A,su,I,u,221,1,1965.7000000029802,369952.8999999985,8084,WL,C,4.0
3,7.697000026702881,learn,52302.99997329712,Mon Dec 01 2025 17:19:19 GMT-0600 (Central Standard Time),372051.69999999553,A,sug,I,g,124,1,2098.7999999970198,369952.8999999985,8084,WL,C,4.0
3,7.930999994277954,learn,52069.000005722046,Mon Dec 01 2025 17:19:19 GMT-0600 (Central Standard Time),372285.0,A,suga,I,a,214,1,2332.10000000149,369952.8999999985,8084,WL,C,4.0
3,8.04699993133545,learn,51953.00006866455,Mon Dec 01 2025 17:19:19 GMT-0600 (Central Standard Time),372401.799999997,A,sugar,I,r,100,1,2448.89999999851,369952.8999999985,8084,WL,C,4.0
3,8.396999835968018,learn,51603.00016403198,Mon Dec 01 2025 17:19:19 GMT-0600 (Central Standard Time),372751.69999999553,A,sugarenter,I,enter,336,1,2798.7999999970198,369952.8999999985,8084,WL,C,4.0
3,9.730000019073486,learn,50269.999980926514,Mon Dec 01 2025 17:19:19 GMT-0600 (Central Standard Time),374084.3999999985,A,b,I,b,1314,1,1332.2999999970198,372752.1000000015,8084,WL,C,5.0
3,9.829999923706055,learn,50170.000076293945,Mon Dec 01 2025 17:19:19 GMT-0600 (Central Standard Time),374184.5,A,bo,I,o,86,1,1432.3999999985099,372752.1000000015,8084,WL,C,5.0
3,10.146999835968018,learn,49853.00016403198,Mon Dec 01 2025 17:19:19 GMT-0600 (Central Standard Time),374501.19999999553,A,boy,I,y,297,1,1749.0999999940395,372752.1000000015,8084,WL,C,5.0
3,10.480000019073486,learn,49519.999980926514,Mon Dec 01 2025 17:19:19 GMT-0600 (Central Standard Time),374834.5,A,boyenter,I,enter,316,1,2082.39999999851,372752.1000000015,8084,WL,C,5.0
3,11.079999923706055,learn,48920.000076293945,Mon Dec 01 2025 17:19:19 GMT-0600 (Central Standard Time),375434.19999999553,A,c,I,c,583,1,599.5,374834.69999999553,8084,WL,C,6.0
3,11.61299991607666,learn,48387.00008392334,Mon Dec 01 2025 17:19:19 GMT-0600 (Central Standard Time),375967.1000000015,A,ca,I,a,527,1,1132.4000000059605,374834.69999999553,8084,WL,C,6.0
3,11.930000066757202,learn,48069.9999332428,Mon Dec 01 2025 17:19:19 GMT-0600 (Central Standard Time),376284.0,A,cat,I,t,298,1,1449.3000000044703,374834.69999999553,8084,WL,C,6.0
3,12.046000003814697,learn,47953.9999961853,Mon Dec 01 2025 17:19:19 GMT-0600 (Central Standard Time),376400.6000000015,A,catt,I,t,110,1,1565.9000000059605,374834.69999999553,8084,WL,C,6.0
3,12.263000011444092,learn,47736.99998855591,Mon Dec 01 2025 17:19:19 GMT-0600 (Central Standard Time),376617.19999999553,A,cattl,I,l,202,1,1782.5,374834.69999999553,8084,WL,C,6.0
3,12.412999868392944,learn,47587.000131607056,Mon Dec 01 2025 17:19:19 GMT-0600 (Central Standard Time),376767.0,A,cattle,I,e,128,1,1932.3000000044703,374834.69999999553,8084,WL,C,6.0
3,12.578999996185303,learn,47421.0000038147,Mon Dec 01 2025 17:19:19 GMT-0600 (Central Standard Time),376933.6000000015,A,cattleenter,I,enter,154,1,2098.9000000059605,374834.69999999553,8084,WL,C,6.0
3,12.86299991607666,learn,47137.00008392334,Mon Dec 01 2025 17:19:19 GMT-0600 (Central Standard Time),377217.19999999553,A,c,I,c,269,1,283.19999999552965,376934.0,8084,WL,C,7.0
3,13.078999996185303,learn,46921.0000038147,Mon Dec 01 2025 17:19:19 GMT-0600 (Central Standard Time),377433.69999999553,A,co,I,o,209,1,499.69999999552965,376934.0,8084,WL,C,7.0
3,13.228999853134155,learn,46771.000146865845,Mon Dec 01 2025 17:19:19 GMT-0600 (Central Standard Time),377583.299999997,A,cor,I,r,144,1,649.2999999970198,376934.0,8084,WL,C,7.0
3,13.44599986076355,learn,46554.00013923645,Mon Dec 01 2025 17:19:19 GMT-0600 (Central Standard Time),377800.19999999553,A,corn,I,n,203,1,866.1999999955297,376934.0,8084,WL,C,7.0
3,13.779000043869019,learn,46220.99995613098,Mon Dec 01 2025 17:19:19 GMT-0600 (Central Standard Time),378133.1000000015,A,cornenter,I,enter,322,1,1199.1000000014901,376934.0,8084,WL,C,7.0
3,14.062000036239624,learn,45937.999963760376,Mon Dec 01 2025 17:19:19 GMT-0600 (Central Standard Time),378416.6000000015,A,c,I,c,278,1,283.30000000447035,378133.299999997,8084,WL,C,8.0
3,14.294999837875366,learn,45705.000162124634,Mon Dec 01 2025 17:19:19 GMT-0600 (Central Standard Time),378649.6000000015,A,ca,I,a,225,1,516.3000000044703,378133.299999997,8084,WL,C,8.0
3,14.444999933242798,learn,45555.0000667572,Mon Dec 01 2025 17:19:19 GMT-0600 (Central Standard Time),378799.69999999553,A,cam,I,m,144,1,666.3999999985099,378133.299999997,8084,WL,C,8.0
3,14.728999853134155,learn,45271.000146865845,Mon Dec 01 2025 17:19:19 GMT-0600 (Central Standard Time),379083.1000000015,A,camp,I,p,274,1,949.8000000044703,378133.299999997,8084,WL,C,8.0
3,15.26199984550476,learn,44738.00015449524,Mon Dec 01 2025 17:19:19 GMT-0600 (Central Standard Time),379616.19999999553,A,campenter,I,enter,518,1,1482.8999999985099,378133.299999997,8084,WL,C,8.0
3,18.64400005340576,learn,41355.99994659424,Mon Dec 01 2025 17:19:19 GMT-0600 (Central Standard Time),382998.3999999985,A,s,I,s,3378,1,3381.89999999851,379616.5,8084,WL,C,9.0
3,18.89400005340576,learn,41105.99994659424,Mon Dec 01 2025 17:19:19 GMT-0600 (Central Standard Time),383248.5,A,sh,I,h,235,1,3632.0,379616.5,8084,WL,C,9.0
3,18.99399995803833,learn,41006.00004196167,Mon Dec 01 2025 17:19:19 GMT-0600 (Central Standard Time),383348.19999999553,A,sho,I,o,89,1,3731.6999999955297,379616.5,8084,WL,C,9.0
3,19.144999980926514,learn,40855.000019073486,Mon Dec 01 2025 17:19:19 GMT-0600 (Central Standard Time),383499.6000000015,A,shor,I,r,133,1,3883.10000000149,379616.5,8084,WL,C,9.0
3,19.49399995803833,learn,40506.00004196167,Mon Dec 01 2025 17:19:19 GMT-0600 (Central Standard Time),383848.19999999553,A,shore,I,e,334,1,4231.69999999553,379616.5,8084,WL,C,9.0
3,19.710000038146973,learn,40289.99996185303,Mon Dec 01 2025 17:19:19 GMT-0600 (Central Standard Time),384064.69999999553,A,shoreenter,I,enter,210,1,4448.19999999553,379616.5,8084,WL,C,9.0
3,21.55999994277954,learn,38440.00005722046,Mon Dec 01 2025 17:19:19 GMT-0600 (Central Standard Time),385914.3999999985,A,b,I,b,1842,1,1849.3999999985099,384065.0,8084,WL,C,10.0
3,21.677000045776367,learn,38322.99995422363,Mon Dec 01 2025 17:19:19 GMT-0600 (Central Standard Time),386031.299999997,A,bo,I,o,96,1,1966.2999999970198,384065.0,8084,WL,C,10.0
3,21.859999895095825,learn,38140.000104904175,Mon Dec 01 2025 17:19:19 GMT-0600 (Central Standard Time),386214.19999999553,A,boy,I,y,179,1,2149.1999999955297,384065.0,8084,WL,C,10.0
3,22.07699990272522,learn,37923.00009727478,Mon Dec 01 2025 17:19:19 GMT-0600 (Central Standard Time),386431.69999999553,A,boyenter,I,enter,211,1,2366.6999999955297,384065.0,8084,WL,C,10.0
3,26.092000007629395,learn,33907.999992370605,Mon Dec 01 2025 17:19:19 GMT-0600 (Central Standard Time),390446.299999997,A,f,I,f,3994,1,4014.2999999970198,386432.0,8084,WL,C,11.0
3,26.29200005531311,learn,33707.99994468689,Mon Dec 01 2025 17:19:19 GMT-0600 (Central Standard Time),390646.19999999553,A,fl,I,l,188,1,4214.19999999553,386432.0,8084,WL,C,11.0
3,26.47499990463257,learn,33525.00009536743,Mon Dec 01 2025 17:19:19 GMT-0600 (Central Standard Time),390829.6000000015,A,fla,I,a,172,1,4397.60000000149,386432.0,8084,WL,C,11.0
3,27.22499990463257,learn,32775.00009536743,Mon Dec 01 2025 17:19:19 GMT-0600 (Central Standard Time),391579.299999997,A,flag,I,g,741,1,5147.29999999702,386432.0,8084,WL,C,11.0
3,27.424000024795532,learn,32575.999975204468,Mon Dec 01 2025 17:19:19 GMT-0600 (Central Standard Time),391778.799999997,A,flagenter,I,enter,191,1,5346.79999999702,386432.0,8084,WL,C,11.0
3,41.7039999961853,learn,18296.000003814697,Mon Dec 01 2025 17:19:19 GMT-0600 (Central Standard Time),406058.0,A,b,I,b,14263,1,14279.0,391779.0,8084,WL,C,12.0
3,41.80399990081787,learn,18196.00009918213,Mon Dec 01 2025 17:19:19 GMT-0600 (Central Standard Time),406158.0,A,bo,I,o,79,1,14379.0,391779.0,8084,WL,C,12.0
3,42.03699994087219,learn,17963.000059127808,Mon Dec 01 2025 17:19:19 GMT-0600 (Central Standard Time),406391.299999997,A,boy,I,y,220,1,14612.29999999702,391779.0,8084,WL,C,12.0
3,42.23699998855591,learn,17763.00001144409,Mon Dec 01 2025 17:19:19 GMT-0600 (Central Standard Time),406591.0,A,boyenter,I,enter,195,1,14812.0,391779.0,8084,WL,C,12.0
3,43.88599991798401,learn,16114.000082015991,Mon Dec 01 2025 17:19:19 GMT-0600 (Central Standard Time),408240.3999999985,A,q,I,q,1635,1,1649.2000000029802,406591.19999999553,8084,WL,C,13.0
3,43.97000002861023,learn,16029.99997138977,Mon Dec 01 2025 17:19:19 GMT-0600 (Central Standard Time),408324.0,A,qu,I,u,74,1,1732.8000000044703,406591.19999999553,8084,WL,C,13.0
3,44.30299997329712,learn,15697.00002670288,Mon Dec 01 2025 17:19:19 GMT-0600 (Central Standard Time),408657.19999999553,A,que,I,e,326,1,2066.0,406591.19999999553,8084,WL,C,13.0
3,44.585999965667725,learn,15414.000034332275,Mon Dec 01 2025 17:19:19 GMT-0600 (Central Standard Time),408940.1000000015,A,quee,I,e,272,1,2348.9000000059605,406591.19999999553,8084,WL,C,13.0
3,44.76900005340576,learn,15230.999946594238,Mon Dec 01 2025 17:19:19 GMT-0600 (Central Standard Time),409123.69999999553,A,queen,I,n,174,1,2532.5,406591.19999999553,8084,WL,C,13.0
3,44.9689998626709,learn,15031.000137329102,Mon Dec 01 2025 17:19:19 GMT-0600 (Central Standard Time),409323.799999997,A,queenenter,I,enter,190,1,2732.60000000149,406591.19999999553,8084,WL,C,13.0
3,48.46799993515015,learn,11532.000064849854,Mon Dec 01 2025 17:19:19 GMT-0600 (Central Standard Time),412822.5,A,enter,I,enter,3479,1,3498.39999999851,409324.1000000015,8084,WL,C,14.0
3,49.300999879837036,learn,10699.000120162964,Mon Dec 01 2025 17:19:19 GMT-0600 (Central Standard Time),413655.6000000015,A,enter,I,enter,818,1,832.8000000044703,412822.799999997,8084,WL,C,15.0
4,5.015000104904175,learn,54984.999895095825,Mon Dec 01 2025 17:19:19 GMT-0600 (Central Standard Time),486166.1000000015,A,s,I,s,5004,1,5014.70000000298,481151.3999999985,8084,WL,C,1.0
4,5.248000144958496,learn,54751.999855041504,Mon Dec 01 2025 17:19:19 GMT-0600 (Central Standard Time),486399.299999997,A,su,I,u,219,1,5247.89999999851,481151.3999999985,8084,WL,C,1.0
4,5.54800009727478,learn,54451.99990272522,Mon Dec 01 2025 17:19:19 GMT-0600 (Central Standard Time),486699.5,A,sug,I,g,291,1,5548.10000000149,481151.3999999985,8084,WL,C,1.0
4,5.866000175476074,learn,54133.999824523926,Mon Dec 01 2025 17:19:19 GMT-0600 (Central Standard Time),487017.0,A,suga,I,a,311,1,5865.60000000149,481151.3999999985,8084,WL,C,1.0
4,5.914000034332275,learn,54085.999965667725,Mon Dec 01 2025 17:19:19 GMT-0600 (Central Standard Time),487065.6000000015,A,sugar,I,r,33,1,5914.20000000298,481151.3999999985,8084,WL,C,1.0
4,6.248000144958496,learn,53751.999855041504,Mon Dec 01 2025 17:19:19 GMT-0600 (Central Standard Time),487398.69999999553,A,sugarenter,I,enter,328,1,6247.29999999702,481151.3999999985,8084,WL,C,1.0
4,6.63100004196167,learn,53368.99995803833,Mon Dec 01 2025 17:19:19 GMT-0600 (Central Standard Time),487782.299999997,A,h,I,h,363,1,383.29999999701977,487399.0,8084,WL,C,2.0
4,6.814000129699707,learn,53185.99987030029,Mon Dec 01 2025 17:19:19 GMT-0600 (Central Standard Time),487965.6000000015,A,ho,I,o,172,1,566.6000000014901,487399.0,8084,WL,C,2.0
4,7.031000137329102,learn,52968.9998626709,Mon Dec 01 2025 17:19:19 GMT-0600 (Central Standard Time),488182.299999997,A,hom,I,m,196,1,783.2999999970198,487399.0,8084,WL,C,2.0
4,7.180999994277954,learn,52819.000005722046,Mon Dec 01 2025 17:19:19 GMT-0600 (Central Standard Time),488332.1000000015,A,home,I,e,131,1,933.1000000014901,487399.0,8084,WL,C,2.0
4,7.364000082015991,learn,52635.99991798401,Mon Dec 01 2025 17:19:19 GMT-0600 (Central Standard Time),488515.299999997,A,homeenter,I,enter,165,1,1116.2999999970198,487399.0,8084,WL,C,2.0
4,7.731000185012817,learn,52268.99981498718,Mon Dec 01 2025 17:19:19 GMT-0600 (Central Standard Time),488882.0,A,b,I,b,350,1,366.3999999985099,488515.6000000015,8084,WL,C,3.0
4,7.864000082015991,learn,52135.99991798401,Mon Dec 01 2025 17:19:19 GMT-0600 (Central Standard Time),489015.1000000015,A,bo,I,o,112,1,499.5,488515.6000000015,8084,WL,C,3.0
4,8.13100004196167,learn,51868.99995803833,Mon Dec 01 2025 17:19:19 GMT-0600 (Central Standard Time),489282.0,A,boy,I,y,250,1,766.3999999985099,488515.6000000015,8084,WL,C,3.0
4,8.414000034332275,learn,51585.999965667725,Mon Dec 01 2025 17:19:19 GMT-0600 (Central Standard Time),489565.1000000015,A,boyenter,I,enter,263,1,1049.5,488515.6000000015,8084,WL,C,3.0
4,8.864000082015991,learn,51135.99991798401,Mon Dec 01 2025 17:19:19 GMT-0600 (Central Standard Time),490014.799999997,A,l,I,l,444,1,449.3999999985099,489565.3999999985,8084,WL,C,4.0
4,9.064000129699707,learn,50935.99987030029,Mon Dec 01 2025 17:19:19 GMT-0600 (Central Standard Time),490214.8999999985,A,le,I,e,179,1,649.5,489565.3999999985,8084,WL,C,4.0
4,9.297000169754028,learn,50702.99983024597,Mon Dec 01 2025 17:19:19 GMT-0600 (Central Standard Time),490448.1000000015,A,let,I,t,219,1,882.7000000029802,489565.3999999985,8084,WL,C,4.0
4,9.414000034332275,learn,50585.999965667725,Mon Dec 01 2025 17:19:19 GMT-0600 (Central Standard Time),490564.799999997,A,lett,I,t,106,1,999.3999999985099,489565.3999999985,8084,WL,C,4.0
4,10.013000011444092,learn,49986.99998855591,Mon Dec 01 2025 17:19:19 GMT-0600 (Central Standard Time),491164.5,A,lette,I,e,589,1,1599.1000000014901,489565.3999999985,8084,WL,C,4.0
4,10.11300015449524,learn,49886.99984550476,Mon Dec 01 2025 17:19:19 GMT-0600 (Central Standard Time),491264.3999999985,A,letter,I,r,85,1,1699.0,489565.3999999985,8084,WL,C,4.0
4,10.28000020980835,learn,49719.99979019165,Mon Dec 01 2025 17:19:19 GMT-0600 (Central Standard Time),491431.1000000015,A,letterenter,I,enter,154,1,1865.7000000029802,489565.3999999985,8084,WL,C,4.0
4,10.496000051498413,learn,49503.99994850159,Mon Dec 01 2025 17:19:19 GMT-0600 (Central Standard Time),491647.5,A,c,I,c,204,1,216.0,491431.5,8084,WL,C,5.0
4,10.680000066757202,learn,49319.9999332428,Mon Dec 01 2025 17:19:19 GMT-0600 (Central Standard Time),491831.0,A,ca,I,a,171,1,399.5,491431.5,8084,WL,C,5.0
4,10.830000162124634,learn,49169.999837875366,Mon Dec 01 2025 17:19:19 GMT-0600 (Central Standard Time),491980.8999999985,A,cat,I,t,131,1,549.3999999985099,491431.5,8084,WL,C,5.0
4,11.046000003814697,learn,48953.9999961853,Mon Dec 01 2025 17:19:19 GMT-0600 (Central Standard Time),492197.69999999553,A,catt,I,t,205,1,766.1999999955297,491431.5,8084,WL,C,5.0
4,11.296000003814697,learn,48703.9999961853,Mon Dec 01 2025 17:19:19 GMT-0600 (Central Standard Time),492447.5,A,cattl,I,l,237,1,1016.0,491431.5,8084,WL,C,5.0
4,11.446000099182129,learn,48553.99990081787,Mon Dec 01 2025 17:19:19 GMT-0600 (Central Standard Time),492597.6000000015,A,cattle,I,e,139,1,1166.1000000014901,491431.5,8084,WL,C,5.0
4,11.796000003814697,learn,48203.9999961853,Mon Dec 01 2025 17:19:19 GMT-0600 (Central Standard Time),492947.299999997,A,cattleenter,I,enter,340,1,1515.7999999970198,491431.5,8084,WL,C,5.0
4,12.063000202178955,learn,47936.999797821045,Mon Dec 01 2025 17:19:19 GMT-0600 (Central Standard Time),493214.0,A,c,I,c,246,1,266.3999999985099,492947.6000000015,8084,WL,C,6.0
4,12.213000059127808,learn,47786.99994087219,Mon Dec 01 2025 17:19:19 GMT-0600 (Central Standard Time),493363.8999999985,A,co,I,o,140,1,416.29999999701977,492947.6000000015,8084,WL,C,6.0
4,12.36300015449524,learn,47636.99984550476,Mon Dec 01 2025 17:19:19 GMT-0600 (Central Standard Time),493514.0,A,cor,I,r,134,1,566.3999999985099,492947.6000000015,8084,WL,C,6.0
4,12.529000043869019,learn,47470.99995613098,Mon Dec 01 2025 17:19:19 GMT-0600 (Central Standard Time),493680.6000000015,A,corn,I,n,152,1,733.0,492947.6000000015,8084,WL,C,6.0
4,12.996000051498413,learn,47003.99994850159,Mon Dec 01 2025 17:19:19 GMT-0600 (Central Standard Time),494146.8999999985,A,cornenter,I,enter,450,1,1199.2999999970198,492947.6000000015,8084,WL,C,6.0
4,13.51200008392334,learn,46487.99991607666,Mon Dec 01 2025 17:19:19 GMT-0600 (Central Standard Time),494663.5,A,s,I,s,503,1,516.3000000044703,494147.19999999553,8084,WL,C,7.0
4,13.629000186920166,learn,46370.999813079834,Mon Dec 01 2025 17:19:19 GMT-0600 (Central Standard Time),494779.799999997,A,sh,I,h,106,1,632.6000000014901,494147.19999999553,8084,WL,C,7.0
4,14.029000043869019,learn,45970.99995613098,Mon Dec 01 2025 17:19:19 GMT-0600 (Central Standard Time),495180.0,A,sha,I,a,391,1,1032.8000000044703,494147.19999999553,8084,WL,C,7.0
4,14.145000219345093,learn,45854.99978065491,Mon Dec 01 2025 17:19:19 GMT-0600 (Central Standard Time),495296.5,A,shar,I,r,101,1,1149.3000000044703,494147.19999999553,8084,WL,C,7.0
4,14.545000076293945,learn,45454.999923706055,Mon Dec 01 2025 17:19:19 GMT-0600 (Central Standard Time),495696.5,A,sha,I,backspace,386,1,1549.3000000044703,494147.19999999553,8084,WL,C,7.0
4,14.695000171661377,learn,45304.99982833862,Mon Dec 01 2025 17:19:19 GMT-0600 (Central Standard Time),495846.5,A,sh,I,backspace,145,1,1699.3000000044703,494147.19999999553,8084,WL,C,7.0
4,14.928000211715698,learn,45071.9997882843,Mon Dec 01 2025 17:19:19 GMT-0600 (Central Standard Time),496079.69999999553,A,sho,I,o,220,1,1932.5,494147.19999999553,8084,WL,C,7.0
4,15.045000076293945,learn,44954.999923706055,Mon Dec 01 2025 17:19:19 GMT-0600 (Central Standard Time),496196.299999997,A,shor,I,r,99,1,2049.10000000149,494147.19999999553,8084,WL,C,7.0
4,15.17900013923645,learn,44820.99986076355,Mon Dec 01 2025 17:19:19 GMT-0600 (Central Standard Time),496329.69999999553,A,shore,I,e,126,1,2182.5,494147.19999999553,8084,WL,C,7.0
4,15.379000186920166,learn,44620.999813079834,Mon Dec 01 2025 17:19:19 GMT-0600 (Central Standard Time),496529.69999999553,A,shoreenter,I,enter,193,1,2382.5,494147.19999999553,8084,WL,C,7.0
4,15.645000219345093,learn,44354.99978065491,Mon Dec 01 2025 17:19:19 GMT-0600 (Central Standard Time),496796.0,A,c,I,c,248,1,265.8999999985099,496530.1000000015,8084,WL,C,8.0
4,15.812000036239624,learn,44187.999963760376,Mon Dec 01 2025 17:19:19 GMT-0600 (Central Standard Time),496962.799999997,A,ca,I,a,150,1,432.69999999552965,496530.1000000015,8084,WL,C,8.0
4,15.978000164031982,learn,44021.99983596802,Mon Dec 01 2025 17:19:19 GMT-0600 (Central Standard Time),497129.3999999985,A,cam,I,m,151,1,599.2999999970198,496530.1000000015,8084,WL,C,8.0
4,16.544000148773193,learn,43455.99985122681,Mon Dec 01 2025 17:19:19 GMT-0600 (Central Standard Time),497695.6000000015,A,camp,I,p,560,1,1165.5,496530.1000000015,8084,WL,C,8.0
4,16.926000118255615,learn,43073.999881744385,Mon Dec 01 2025 17:19:19 GMT-0600 (Central Standard Time),498077.3999999985,A,campenter,I,enter,377,1,1547.2999999970198,496530.1000000015,8084,WL,C,8.0
4,19.47699999809265,learn,40523.00000190735,Mon Dec 01 2025 17:19:19 GMT-0600 (Central Standard Time),500628.3999999985,A,d,I,d,2541,1,2550.7000000029802,498077.69999999553,8084,WL,C,9.0
4,19.610000133514404,learn,40389.999866485596,Mon Dec 01 2025 17:19:19 GMT-0600 (Central Standard Time),500761.5,A,do,I,o,125,1,2683.8000000044703,498077.69999999553,8084,WL,C,9.0
4,19.760000228881836,learn,40239.999771118164,Mon Dec 01 2025 17:19:19 GMT-0600 (Central Standard Time),500911.6000000015,A,doc,I,c,136,1,2833.9000000059605,498077.69999999553,8084,WL,C,9.0
4,20.04300022125244,learn,39956.99977874756,Mon Dec 01 2025 17:19:19 GMT-0600 (Central Standard Time),501194.69999999553,A,doct,I,t,266,1,3117.0,498077.69999999553,8084,WL,C,9.0
4,20.243000030517578,learn,39756.99996948242,Mon Dec 01 2025 17:19:19 GMT-0600 (Central Standard Time),501394.69999999553,A,docto,I,o,183,1,3317.0,498077.69999999553,8084,WL,C,9.0
4,20.427000045776367,learn,39572.99995422363,Mon Dec 01 2025 17:19:19 GMT-0600 (Central Standard Time),501578.299999997,A,doctor,I,r,168,1,3500.60000000149,498077.69999999553,8084,WL,C,9.0
4,20.610000133514404,learn,39389.999866485596,Mon Dec 01 2025 17:19:19 GMT-0600 (Central Standard Time),501761.299999997,A,doctorenter,I,enter,176,1,3683.60000000149,498077.69999999553,8084,WL,C,9.0
4,22.9760000705719,learn,37023.9999294281,Mon Dec 01 2025 17:19:19 GMT-0600 (Central Standard Time),504127.19999999553,A,q,I,q,2352,1,2365.5999999940395,501761.6000000015,8084,WL,C,10.0
4,23.05900001525879,learn,36940.99998474121,Mon Dec 01 2025 17:19:19 GMT-0600 (Central Standard Time),504210.299999997,A,qu,I,u,75,1,2448.6999999955297,501761.6000000015,8084,WL,C,10.0
4,23.343000173568726,learn,36656.999826431274,Mon Dec 01 2025 17:19:19 GMT-0600 (Central Standard Time),504494.1000000015,A,que,I,e,263,1,2732.5,501761.6000000015,8084,WL,C,10.0
4,23.62600016593933,learn,36373.99983406067,Mon Dec 01 2025 17:19:19 GMT-0600 (Central Standard Time),504777.0,A,quee,I,e,276,1,3015.39999999851,501761.6000000015,8084,WL,C,10.0
4,23.9760000705719,learn,36023.9999294281,Mon Dec 01 2025 17:19:19 GMT-0600 (Central Standard Time),505126.799999997,A,queen,I,n,329,1,3365.1999999955297,501761.6000000015,8084,WL,C,10.0
4,24.192000150680542,learn,35807.99984931946,Mon Dec 01 2025 17:19:19 GMT-0600 (Central Standard Time),505343.1000000015,A,queenenter,I,enter,211,1,3581.5,501761.6000000015,8084,WL,C,10.0
4,25.642000198364258,learn,34357.99980163574,Mon Dec 01 2025 17:19:19 GMT-0600 (Central Standard Time),506793.0,A,t,I,t,1443,1,1449.6000000014901,505343.3999999985,8084,WL,C,11.0
4,25.77500009536743,learn,34224.99990463257,Mon Dec 01 2025 17:19:19 GMT-0600 (Central Standard Time),506926.19999999553,A,to,I,o,129,1,1582.7999999970198,505343.3999999985,8084,WL,C,11.0
4,25.942000150680542,learn,34057.99984931946,Mon Dec 01 2025 17:19:19 GMT-0600 (Central Standard Time),507092.8999999985,A,tow,I,w,155,1,1749.5,505343.3999999985,8084,WL,C,11.0
4,26.142000198364258,learn,33857.99980163574,Mon Dec 01 2025 17:19:19 GMT-0600 (Central Standard Time),507292.799999997,A,towe,I,e,190,1,1949.3999999985099,505343.3999999985,8084,WL,C,11.0
4,26.27500009536743,learn,33724.99990463257,Mon Dec 01 2025 17:19:19 GMT-0600 (Central Standard Time),507426.1000000015,A,tower,I,r,126,1,2082.7000000029802,505343.3999999985,8084,WL,C,11.0
4,26.558000087738037,learn,33441.99991226196,Mon Dec 01 2025 17:19:19 GMT-0600 (Central Standard Time),507709.19999999553,A,towerenter,I,enter,271,1,2365.7999999970198,505343.3999999985,8084,WL,C,11.0
4,27.308000087738037,learn,32691.999912261963,Mon Dec 01 2025 17:19:19 GMT-0600 (Central Standard Time),508459.19999999553,A,s,I,s,742,1,749.6999999955297,507709.5,8084,WL,C,12.0
4,27.424000024795532,learn,32575.999975204468,Mon Dec 01 2025 17:19:19 GMT-0600 (Central Standard Time),508575.69999999553,A,su,I,u,110,1,866.1999999955297,507709.5,8084,WL,C,12.0
4,27.591000080108643,learn,32408.999919891357,Mon Dec 01 2025 17:19:19 GMT-0600 (Central Standard Time),508742.6000000015,A,sur,I,r,154,1,1033.1000000014901,507709.5,8084,WL,C,12.0
4,27.908000230789185,learn,32091.999769210815,Mon Dec 01 2025 17:19:19 GMT-0600 (Central Standard Time),509059.1000000015,A,surg,I,g,299,1,1349.6000000014901,507709.5,8084,WL,C,12.0
4,28.308000087738037,learn,31691.999912261963,Mon Dec 01 2025 17:19:19 GMT-0600 (Central Standard Time),509458.799999997,A,sur,I,backspace,391,1,1749.2999999970198,507709.5,8084,WL,C,12.0
4,28.457000017166138,learn,31542.999982833862,Mon Dec 01 2025 17:19:19 GMT-0600 (Central Standard Time),509608.69999999553,A,su,I,backspace,135,1,1899.1999999955297,507709.5,8084,WL,C,12.0
4,28.558000087738037,learn,31441.999912261963,Mon Dec 01 2025 17:19:19 GMT-0600 (Central Standard Time),509709.1000000015,A,sug,I,g,90,1,1999.6000000014901,507709.5,8084,WL,C,12.0
4,28.79100012779236,learn,31208.99987220764,Mon Dec 01 2025 17:19:19 GMT-0600 (Central Standard Time),509942.1000000015,A,suga,I,a,221,1,2232.60000000149,507709.5,8084,WL,C,12.0
4,28.907000064849854,learn,31092.999935150146,Mon Dec 01 2025 17:19:19 GMT-0600 (Central Standard Time),510058.5,A,sugar,I,r,108,1,2349.0,507709.5,8084,WL,C,12.0
4,29.19100022315979,learn,30808.99977684021,Mon Dec 01 2025 17:19:19 GMT-0600 (Central Standard Time),510341.799999997,A,sugarenter,I,enter,263,1,2632.2999999970198,507709.5,8084,WL,C,12.0
4,33.33900022506714,learn,26660.99977493286,Mon Dec 01 2025 17:19:19 GMT-0600 (Central Standard Time),514490.5,A,f,I,f,4141,1,4148.30000000447,510342.19999999553,8084,WL,C,13.0
4,33.50600004196167,learn,26493.99995803833,Mon Dec 01 2025 17:19:19 GMT-0600 (Central Standard Time),514657.299999997,A,fl,I,l,151,1,4315.10000000149,510342.19999999553,8084,WL,C,13.0
4,33.6560001373291,learn,26343.9998626709,Mon Dec 01 2025 17:19:19 GMT-0600 (Central Standard Time),514806.8999999985,A,fla,I,a,145,1,4464.70000000298,510342.19999999553,8084,WL,C,13.0
4,33.98900008201599,learn,26010.99991798401,Mon Dec 01 2025 17:19:19 GMT-0600 (Central Standard Time),515140.19999999553,A,flag,I,g,316,1,4798.0,510342.19999999553,8084,WL,C,13.0
4,34.10600018501282,learn,25893.999814987183,Mon Dec 01 2025 17:19:19 GMT-0600 (Central Standard Time),515257.19999999553,A,flagenter,I,enter,101,1,4915.0,510342.19999999553,8084,WL,C,13.0
4,36.605000019073486,learn,23394.999980926514,Mon Dec 01 2025 17:19:19 GMT-0600 (Central Standard Time),517756.299999997,A,enter,I,enter,2480,1,2498.6999999955297,515257.6000000015,8084,WL,C,14.0
4,37.223000049591064,learn,22776.999950408936,Mon Dec 01 2025 17:19:19 GMT-0600 (Central Standard Time),518373.69999999553,A,enter,I,enter,598,1,617.0999999940395,517756.6000000015,8084,WL,C,15.0
5,1.5490000247955322,learn,60000.0,Mon Dec 01 2025 17:19:19 GMT-0600 (Central Standard Time),588134.299999997,A,t,I,t,1537,1,1549.2999999970198,586585.0,8084,WL,C,1.0
5,1.749000072479248,learn,60000.0,Mon Dec 01 2025 17:19:19 GMT-0600 (Central Standard Time),588333.8999999985,A,to,I,o,178,1,1748.8999999985099,586585.0,8084,WL,C,1.0
5,1.933000087738037,learn,60000.0,Mon Dec 01 2025 17:19:19 GMT-0600 (Central Standard Time),588517.5,A,tow,I,w,173,1,1932.5,586585.0,8084,WL,C,1.0
5,2.0820000171661377,learn,60000.0,Mon Dec 01 2025 17:19:19 GMT-0600 (Central Standard Time),588667.299999997,A,towe,I,e,132,1,2082.2999999970198,586585.0,8084,WL,C,1.0
5,2.181999921798706,learn,60000.0,Mon Dec 01 2025 17:19:19 GMT-0600 (Central Standard Time),588767.1000000015,A,tower,I,r,94,1,2182.10000000149,586585.0,8084,WL,C,1.0
5,2.4820001125335693,learn,60000.0,Mon Dec 01 2025 17:19:19 GMT-0600 (Central Standard Time),589067.1999999955,A,towerenter,I,enter,283,1,2482.1999999955297,586585.0,8084,WL,C,1.0
5,2.865999937057495,learn,60000.0,Mon Dec 01 2025 17:19:19 GMT-0600 (Central Standard Time),589450.3999999985,A,w,I,w,374,1,382.79999999701977,589067.6000000015,8084,WL,C,2.0
5,3.0160000324249268,learn,60000.0,Mon Dec 01 2025 17:19:19 GMT-0600 (Central Standard Time),589600.5,A,wh,I,h,135,1,532.8999999985099,589067.6000000015,8084,WL,C,2.0
5,3.1649999618530273,learn,60000.0,Mon Dec 01 2025 17:19:19 GMT-0600 (Central Standard Time),589750.299999997,A,whe,I,e,138,1,682.6999999955297,589067.6000000015,8084,WL,C,2.0
5,3.4149999618530273,learn,60000.0,Mon Dec 01 2025 17:19:19 GMT-0600 (Central Standard Time),589999.8999999985,A,whea,I,a,243,1,932.2999999970198,589067.6000000015,8084,WL,C,2.0
5,3.497999906539917,learn,60000.0,Mon Dec 01 2025 17:19:19 GMT-0600 (Central Standard Time),590083.1999999955,A,wheat,I,t,74,1,1015.5999999940395,589067.6000000015,8084,WL,C,2.0
5,3.931999921798706,learn,60000.0,Mon Dec 01 2025 17:19:19 GMT-0600 (Central Standard Time),590516.6999999955,A,wheats,I,s,423,1,1449.0999999940395,589067.6000000015,8084,WL,C,2.0
5,4.148999929428101,learn,60000.0,Mon Dec 01 2025 17:19:19 GMT-0600 (Central Standard Time),590733.6000000015,A,wheatsu,I,u,205,1,1666.0,589067.6000000015,8084,WL,C,2.0
5,4.2820000648498535,learn,60000.0,Mon Dec 01 2025 17:19:19 GMT-0600 (Central Standard Time),590866.8999999985,A,wheatsur,I,r,115,1,1799.2999999970198,589067.6000000015,8084,WL,C,2.0
5,4.664999961853027,learn,60000.0,Mon Dec 01 2025 17:19:19 GMT-0600 (Central Standard Time),591249.799999997,A,wheatsu,I,backspace,376,1,2182.1999999955297,589067.6000000015,8084,WL,C,2.0
5,4.8480000495910645,learn,60000.0,Mon Dec 01 2025 17:19:19 GMT-0600 (Central Standard Time),591433.299999997,A,wheats,I,backspace,176,1,2365.6999999955297,589067.6000000015,8084,WL,C,2.0
5,5.04800009727478,learn,60000.0,Mon Dec 01 2025 17:19:19 GMT-0600 (Central Standard Time),591633.1999999955,A,wheat,I,backspace,185,1,2565.5999999940395,589067.6000000015,8084,WL,C,2.0
5,5.2149999141693115,learn,60000.0,Mon Dec 01 2025 17:19:19 GMT-0600 (Central Standard Time),591799.6000000015,A,whea,I,backspace,153,1,2732.0,589067.6000000015,8084,WL,C,2.0
5,5.940999984741211,learn,60000.0,Mon Dec 01 2025 17:19:19 GMT-0600 (Central Standard Time),592525.3999999985,A,wheat,I,t,720,1,3457.7999999970198,589067.6000000015,8084,WL,C,2.0
5,6.13100004196167,learn,60000.0,Mon Dec 01 2025 17:19:19 GMT-0600 (Central Standard Time),592715.8999999985,A,wheatenter,I,enter,173,1,3648.2999999970198,589067.6000000015,8084,WL,C,2.0
5,10.02999997138977,learn,60000.0,Mon Dec 01 2025 17:19:19 GMT-0600 (Central Standard Time),596614.6000000015,A,s,I,s,3894,1,3898.4000000059605,592716.1999999955,8084,WL,C,3.0
5,10.19700002670288,learn,60000.0,Mon Dec 01 2025 17:19:19 GMT-0600 (Central Standard Time),596781.5,A,su,I,u,147,1,4065.3000000044703,592716.1999999955,8084,WL,C,3.0
5,10.52999997138977,learn,60000.0,Mon Dec 01 2025 17:19:19 GMT-0600 (Central Standard Time),597114.6999999955,A,sug,I,g,324,1,4398.5,592716.1999999955,8084,WL,C,3.0
5,10.847000122070312,learn,60000.0,Mon Dec 01 2025 17:19:19 GMT-0600 (Central Standard Time),597431.3999999985,A,suga,I,a,303,1,4715.20000000298,592716.1999999955,8084,WL,C,3.0
5,10.930000066757202,learn,60000.0,Mon Dec 01 2025 17:19:19 GMT-0600 (Central Standard Time),597514.6999999955,A,sugar,I,r,75,1,4798.5,592716.1999999955,8084,WL,C,3.0
5,11.196000099182129,learn,60000.0,Mon Dec 01 2025 17:19:19 GMT-0600 (Central Standard Time),597781.1999999955,A,sugarenter,I,enter,256,1,5065.0,592716.1999999955,8084,WL,C,3.0
5,11.61299991607666,learn,60000.0,Mon Dec 01 2025 17:19:19 GMT-0600 (Central Standard Time),598197.6000000015,A,h,I,h,397,1,416.20000000298023,597781.3999999985,8084,WL,C,4.0
5,11.845999956130981,learn,60000.0,Mon Dec 01 2025 17:19:19 GMT-0600 (Central Standard Time),598430.8999999985,A,ho,I,o,212,1,649.5,597781.3999999985,8084,WL,C,4.0
5,12.029000043869019,learn,60000.0,Mon Dec 01 2025 17:19:19 GMT-0600 (Central Standard Time),598614.0,A,hom,I,m,172,1,832.6000000014901,597781.3999999985,8084,WL,C,4.0
5,12.161999940872192,learn,60000.0,Mon Dec 01 2025 17:19:19 GMT-0600 (Central Standard Time),598747.3999999985,A,home,I,e,123,1,966.0,597781.3999999985,8084,WL,C,4.0
5,12.828999996185303,learn,60000.0,Mon Dec 01 2025 17:19:19 GMT-0600 (Central Standard Time),599414.3999999985,A,homeb,I,b,646,1,1633.0,597781.3999999985,8084,WL,C,4.0
5,13.01200008392334,learn,60000.0,Mon Dec 01 2025 17:19:19 GMT-0600 (Central Standard Time),599597.1000000015,A,homebo,I,o,163,1,1815.7000000029802,597781.3999999985,8084,WL,C,4.0
5,13.42799997329712,learn,60000.0,Mon Dec 01 2025 17:19:19 GMT-0600 (Central Standard Time),600013.799999997,A,homeb,I,backspace,406,1,2232.39999999851,597781.3999999985,8084,WL,C,4.0
5,13.628000020980835,learn,60000.0,Mon Dec 01 2025 17:19:19 GMT-0600 (Central Standard Time),600213.6999999955,A,home,I,backspace,180,1,2432.2999999970198,597781.3999999985,8084,WL,C,4.0
5,13.911999940872192,learn,60000.0,Mon Dec 01 2025 17:19:19 GMT-0600 (Central Standard Time),600497.0,A,homeenter,I,enter,275,1,2715.60000000149,597781.3999999985,8084,WL,C,4.0
5,14.41100001335144,learn,60000.0,Mon Dec 01 2025 17:19:19 GMT-0600 (Central Standard Time),600996.799999997,A,b,I,b,481,1,499.5,600497.299999997,8084,WL,C,5.0
5,14.628999948501587,learn,60000.0,Mon Dec 01 2025 17:19:19 GMT-0600 (Central Standard Time),601214.3999999985,A,bo,I,o,205,1,717.1000000014901,600497.299999997,8084,WL,C,5.0
5,15.49399995803833,learn,60000.0,Mon Dec 01 2025 17:19:19 GMT-0600 (Central Standard Time),602079.6000000015,A,boy,I,y,851,1,1582.3000000044703,600497.299999997,8084,WL,C,5.0
5,16.14400005340576,learn,60000.0,Mon Dec 01 2025 17:19:19 GMT-0600 (Central Standard Time),602729.6000000015,A,boyenter,I,enter,642,1,2232.3000000044703,600497.299999997,8084,WL,C,5.0
5,17.24399995803833,learn,60000.0,Mon Dec 01 2025 17:19:19 GMT-0600 (Central Standard Time),603829.0,A,f,I,f,1088,1,1099.1000000014901,602729.8999999985,8084,WL,C,6.0
5,17.460000038146973,learn,60000.0,Mon Dec 01 2025 17:19:19 GMT-0600 (Central Standard Time),604045.8999999985,A,fl,I,l,206,1,1316.0,602729.8999999985,8084,WL,C,6.0
5,17.627000093460083,learn,60000.0,Mon Dec 01 2025 17:19:19 GMT-0600 (Central Standard Time),604212.3999999985,A,fla,I,a,155,1,1482.5,602729.8999999985,8084,WL,C,6.0
5,18.094000101089478,learn,60000.0,Mon Dec 01 2025 17:19:19 GMT-0600 (Central Standard Time),604679.0,A,flag,I,g,454,1,1949.1000000014901,602729.8999999985,8084,WL,C,6.0
5,18.276999950408936,learn,60000.0,Mon Dec 01 2025 17:19:19 GMT-0600 (Central Standard Time),604862.5,A,flagenter,I,enter,162,1,2132.60000000149,602729.8999999985,8084,WL,C,6.0
5,18.710000038146973,learn,60000.0,Mon Dec 01 2025 17:19:19 GMT-0600 (Central Standard Time),605295.3999999985,A,c,I,c,420,1,432.6000000014901,604862.799999997,8084,WL,C,7.0
5,18.89300012588501,learn,60000.0,Mon Dec 01 2025 17:19:19 GMT-0600 (Central Standard Time),605478.6999999955,A,ca,I,a,170,1,615.8999999985099,604862.799999997,8084,WL,C,7.0
5,19.026999950408936,learn,60000.0,Mon Dec 01 2025 17:19:19 GMT-0600 (Central Standard Time),605612.0,A,cam,I,m,115,1,749.2000000029802,604862.799999997,8084,WL,C,7.0
5,19.259999990463257,learn,60000.0,Mon Dec 01 2025 17:19:19 GMT-0600 (Central Standard Time),605845.5,A,camp,I,p,214,1,982.7000000029802,604862.799999997,8084,WL,C,7.0
5,19.676000118255615,learn,60000.0,Mon Dec 01 2025 17:19:19 GMT-0600 (Central Standard Time),606261.8999999985,A,campenter,I,enter,404,1,1399.1000000014901,604862.799999997,8084,WL,C,7.0
5,20.042999982833862,learn,60000.0,Mon Dec 01 2025 17:19:19 GMT-0600 (Central Standard Time),606628.1999999955,A,d,I,d,348,1,365.8999999985099,606262.299999997,8084,WL,C,8.0
5,20.14300012588501,learn,60000.0,Mon Dec 01 2025 17:19:19 GMT-0600 (Central Standard Time),606728.299999997,A,do,I,o,94,1,466.0,606262.299999997,8084,WL,C,8.0
5,20.342999935150146,learn,60000.0,Mon Dec 01 2025 17:19:19 GMT-0600 (Central Standard Time),606928.0,A,doc,I,c,193,1,665.7000000029802,606262.299999997,8084,WL,C,8.0
5,20.792999982833862,learn,60000.0,Mon Dec 01 2025 17:19:19 GMT-0600 (Central Standard Time),607378.1000000015,A,doct,I,t,442,1,1115.8000000044703,606262.299999997,8084,WL,C,8.0
5,20.9760000705719,learn,60000.0,Mon Dec 01 2025 17:19:19 GMT-0600 (Central Standard Time),607561.3999999985,A,docto,I,o,175,1,1299.1000000014901,606262.299999997,8084,WL,C,8.0
5,21.125999927520752,learn,60000.0,Mon Dec 01 2025 17:19:19 GMT-0600 (Central Standard Time),607711.3999999985,A,doctor,I,r,129,1,1449.1000000014901,606262.299999997,8084,WL,C,8.0
5,21.426000118255615,learn,60000.0,Mon Dec 01 2025 17:19:19 GMT-0600 (Central Standard Time),608011.299999997,A,doctorenter,I,enter,291,1,1749.0,606262.299999997,8084,WL,C,8.0
5,23.992000102996826,learn,60000.0,Mon Dec 01 2025 17:19:19 GMT-0600 (Central Standard Time),610577.5,A,n,I,n,2551,1,2565.89999999851,608011.6000000015,8084,WL,C,9.0
5,24.157999992370605,learn,60000.0,Mon Dec 01 2025 17:19:19 GMT-0600 (Central Standard Time),610743.8999999985,A,na,I,a,152,1,2732.2999999970198,608011.6000000015,8084,WL,C,9.0
5,24.27500009536743,learn,60000.0,Mon Dec 01 2025 17:19:19 GMT-0600 (Central Standard Time),610860.3999999985,A,nai,I,i,98,1,2848.7999999970198,608011.6000000015,8084,WL,C,9.0
5,24.475000143051147,learn,60000.0,Mon Dec 01 2025 17:19:19 GMT-0600 (Central Standard Time),611060.299999997,A,nail,I,l,181,1,3048.6999999955297,608011.6000000015,8084,WL,C,9.0
5,24.70799994468689,learn,60000.0,Mon Dec 01 2025 17:19:19 GMT-0600 (Central Standard Time),611293.5,A,nailenter,I,enter,221,1,3281.89999999851,608011.6000000015,8084,WL,C,9.0
5,25.808000087738037,learn,60000.0,Mon Dec 01 2025 17:19:19 GMT-0600 (Central Standard Time),612393.1999999955,A,s,I,s,1092,1,1099.3999999985099,611293.799999997,8084,WL,C,10.0
5,25.924000024795532,learn,60000.0,Mon Dec 01 2025 17:19:19 GMT-0600 (Central Standard Time),612509.799999997,A,sh,I,h,105,1,1216.0,611293.799999997,8084,WL,C,10.0
5,26.008000135421753,learn,60000.0,Mon Dec 01 2025 17:19:19 GMT-0600 (Central Standard Time),612593.1000000015,A,sho,I,o,68,1,1299.3000000044703,611293.799999997,8084,WL,C,10.0
5,26.19099998474121,learn,60000.0,Mon Dec 01 2025 17:19:19 GMT-0600 (Central Standard Time),612776.3999999985,A,shor,I,r,169,1,1482.6000000014901,611293.799999997,8084,WL,C,10.0
5,26.29100012779236,learn,60000.0,Mon Dec 01 2025 17:19:19 GMT-0600 (Central Standard Time),612876.5,A,shore,I,e,90,1,1582.7000000029802,611293.799999997,8084,WL,C,10.0
5,26.54100012779236,learn,60000.0,Mon Dec 01 2025 17:19:19 GMT-0600 (Central Standard Time),613126.3999999985,A,shoreenter,I,enter,229,1,1832.6000000014901,611293.799999997,8084,WL,C,10.0
5,29.19099998474121,learn,60000.0,Mon Dec 01 2025 17:19:19 GMT-0600 (Central Standard Time),615776.6000000015,A,b,I,b,2644,1,2649.9000000059605,613126.6999999955,8084,WL,C,11.0
5,29.360000133514404,learn,60000.0,Mon Dec 01 2025 17:19:19 GMT-0600 (Central Standard Time),615945.6000000015,A,bo,I,o,164,1,2818.9000000059605,613126.6999999955,8084,WL,C,11.0
5,29.52500009536743,learn,60000.0,Mon Dec 01 2025 17:19:19 GMT-0600 (Central Standard Time),616110.1000000015,A,bod,I,d,160,1,2983.4000000059605,613126.6999999955,8084,WL,C,11.0
5,29.6560001373291,learn,60000.0,Mon Dec 01 2025 17:19:19 GMT-0600 (Central Standard Time),616241.6000000015,A,body,I,y,121,1,3114.9000000059605,613126.6999999955,8084,WL,C,11.0
5,29.890000104904175,learn,60000.0,Mon Dec 01 2025 17:19:19 GMT-0600 (Central Standard Time),616475.1999999955,A,bodyenter,I,enter,217,1,3348.5,613126.6999999955,8084,WL,C,11.0
5,42.269999980926514,learn,60000.0,Mon Dec 01 2025 17:19:19 GMT-0600 (Central Standard Time),628855.0,A,enter,I,enter,12367,1,12379.5,616475.5,8084,WL,C,12.0
5,43.319000005722046,learn,60000.0,Mon Dec 01 2025 17:19:19 GMT-0600 (Central Standard Time),629904.3999999985,A,enter,I,enter,1034,1,1049.1000000014901,628855.299999997,8084,WL,C,13.0
5,43.63499999046326,learn,60000.0,Mon Dec 01 2025 17:19:19 GMT-0600 (Central Standard Time),630220.8999999985,A,enter,I,enter,306,1,316.1000000014901,629904.799999997,8084,WL,C,14.0
5,44.151999950408936,learn,60000.0,Mon Dec 01 2025 17:19:19 GMT-0600 (Central Standard Time),630737.1999999955,A,enter,I,enter,510,1,515.8999999985099,630221.299999997,8084,WL,C,15.0
6,1.065999984741211,distr,58934.00001525879,Mon Dec 01 2025 17:19:19 GMT-0600 (Central Standard Time),698565.6999999955,B,s,I,s,1054,1,1065.5999999940395,697500.1000000015,8084,WL,C,1.0
6,1.2319998741149902,distr,58768.00012588501,Mon Dec 01 2025 17:19:19 GMT-0600 (Central Standard Time),698732.5,B,sk,I,k,155,1,1232.3999999985099,697500.1000000015,8084,WL,C,1.0
6,1.5320000648498535,distr,58467.99993515015,Mon Dec 01 2025 17:19:19 GMT-0600 (Central Standard Time),699032.5,B,sky,I,y,285,1,1532.3999999985099,697500.1000000015,8084,WL,C,1.0
6,1.749000072479248,distr,58250.99992752075,Mon Dec 01 2025 17:19:19 GMT-0600 (Central Standard Time),699248.799999997,B,skyenter,I,enter,208,1,1748.6999999955297,697500.1000000015,8084,WL,C,1.0
6,2.365999937057495,distr,57634.000062942505,Mon Dec 01 2025 17:19:19 GMT-0600 (Central Standard Time),699865.6000000015,B,m,I,m,601,1,616.4000000059605,699249.1999999955,8084,WL,C,2.0
6,2.5320000648498535,distr,57467.99993515015,Mon Dec 01 2025 17:19:19 GMT-0600 (Central Standard Time),700032.299999997,B,mo,I,o,161,1,783.1000000014901,699249.1999999955,8084,WL,C,2.0
6,2.615000009536743,distr,57384.99999046326,Mon Dec 01 2025 17:19:19 GMT-0600 (Central Standard Time),700115.6999999955,B,mot,I,t,73,1,866.5,699249.1999999955,8084,WL,C,2.0
6,2.7170000076293945,distr,57282.999992370605,Mon Dec 01 2025 17:19:19 GMT-0600 (Central Standard Time),700216.6999999955,B,moth,I,h,94,1,967.5,699249.1999999955,8084,WL,C,2.0
6,2.8489999771118164,distr,57151.00002288818,Mon Dec 01 2025 17:19:19 GMT-0600 (Central Standard Time),700349.0,B,mothe,I,e,113,1,1099.8000000044703,699249.1999999955,8084,WL,C,2.0
6,2.9149999618530273,distr,57085.00003814697,Mon Dec 01 2025 17:19:19 GMT-0600 (Central Standard Time),700415.3999999985,B,mother,I,r,52,1,1166.2000000029802,699249.1999999955,8084,WL,C,2.0
6,3.0320000648498535,distr,56967.99993515015,Mon Dec 01 2025 17:19:19 GMT-0600 (Central Standard Time),700532.5,B,motherenter,I,enter,98,1,1283.3000000044703,699249.1999999955,8084,WL,C,2.0
6,3.4649999141693115,distr,56535.00008583069,Mon Dec 01 2025 17:19:19 GMT-0600 (Central Standard Time),700965.299999997,B,c,I,c,421,1,432.6000000014901,700532.6999999955,8084,WL,C,3.0
6,3.6649999618530273,distr,56335.00003814697,Mon Dec 01 2025 17:19:19 GMT-0600 (Central Standard Time),701165.6000000015,B,ch,I,h,180,1,632.9000000059605,700532.6999999955,8084,WL,C,3.0
6,3.9149999618530273,distr,56085.00003814697,Mon Dec 01 2025 17:19:19 GMT-0600 (Central Standard Time),701415.0,B,chr,I,r,244,1,882.3000000044703,700532.6999999955,8084,WL,C,3.0
6,4.197999954223633,distr,55802.00004577637,Mon Dec 01 2025 17:19:19 GMT-0600 (Central Standard Time),701698.6000000015,B,chri,I,i,267,1,1165.9000000059605,700532.6999999955,8084,WL,C,3.0
6,4.332000017166138,distr,55667.99998283386,Mon Dec 01 2025 17:19:19 GMT-0600 (Central Standard Time),701831.799999997,B,chris,I,s,120,1,1299.1000000014901,700532.6999999955,8084,WL,C,3.0
6,4.4649999141693115,distr,55535.00008583069,Mon Dec 01 2025 17:19:19 GMT-0600 (Central Standard Time),701965.1999999955,B,christ,I,t,114,1,1432.5,700532.6999999955,8084,WL,C,3.0
6,4.765000104904175,distr,55234.999895095825,Mon Dec 01 2025 17:19:19 GMT-0600 (Central Standard Time),702265.1000000015,B,christm,I,m,292,1,1732.4000000059605,700532.6999999955,8084,WL,C,3.0
6,4.914999961853027,distr,55085.00003814697,Mon Dec 01 2025 17:19:19 GMT-0600 (Central Standard Time),702415.0,B,christma,I,a,137,1,1882.3000000044703,700532.6999999955,8084,WL,C,3.0
6,5.230999946594238,distr,54769.00005340576,Mon Dec 01 2025 17:19:19 GMT-0600 (Central Standard Time),702731.6000000015,B,christmas,I,s,299,1,2198.9000000059605,700532.6999999955,8084,WL,C,3.0
6,5.398000001907349,distr,54601.99999809265,Mon Dec 01 2025 17:19:19 GMT-0600 (Central Standard Time),702898.1000000015,B,christmasenter,I,enter,158,1,2365.4000000059605,700532.6999999955,8084,WL,C,3.0
6,21.908999919891357,distr,38091.00008010864,Mon Dec 01 2025 17:19:19 GMT-0600 (Central Standard Time),719409.6000000015,B,enter,I,enter,16495,1,16510.80000000447,702898.799999997,8084,WL,C,4.0
6,22.509000062942505,distr,37490.999937057495,Mon Dec 01 2025 17:19:19 GMT-0600 (Central Standard Time),720009.6000000015,B,enter,I,enter,592,1,599.6000000014901,719410.0,8084,WL,C,5.0
6,22.89199995994568,distr,37108.00004005432,Mon Dec 01 2025 17:19:19 GMT-0600 (Central Standard Time),720392.5,B,enter,I,enter,376,1,382.3999999985099,720010.1000000015,8084,WL,C,6.0
6,23.10800004005432,distr,36891.99995994568,Mon Dec 01 2025 17:19:19 GMT-0600 (Central Standard Time),720609.299999997,B,enter,I,enter,210,1,216.39999999850988,720392.8999999985,8084,WL,C,7.0
6,23.308000087738037,distr,36691.99991226196,Mon Dec 01 2025 17:19:19 GMT-0600 (Central Standard Time),720809.1999999955,B,enter,I,enter,185,1,199.59999999403954,720609.6000000015,8084,WL,C,8.0
6,23.492000102996826,distr,36507.999897003174,Mon Dec 01 2025 17:19:19 GMT-0600 (Central Standard Time),720992.3999999985,B,enter,I,enter,176,1,182.79999999701977,720809.6000000015,8084,WL,C,9.0
6,23.875,distr,36125.0,Mon Dec 01 2025 17:19:19 GMT-0600 (Central Standard Time),721375.3999999985,B,enter,I,enter,378,1,382.5,720992.8999999985,8084,WL,C,10.0
6,24.375,distr,35625.0,Mon Dec 01 2025 17:19:19 GMT-0600 (Central Standard Time),721875.5,B,enter,I,enter,482,1,499.70000000298023,721375.799999997,8084,WL,C,11.0
6,24.808000087738037,distr,35191.99991226196,Mon Dec 01 2025 17:19:19 GMT-0600 (Central Standard Time),722308.6999999955,B,enter,I,enter,423,1,432.8999999985099,721875.799999997,8084,WL,C,12.0
6,25.007999897003174,distr,34992.000102996826,Mon Dec 01 2025 17:19:19 GMT-0600 (Central Standard Time),722508.3999999985,B,enter,I,enter,181,1,199.29999999701977,722309.1000000015,8084,WL,C,13.0
6,25.44099998474121,distr,34559.00001525879,Mon Dec 01 2025 17:19:19 GMT-0600 (Central Standard Time),722941.6999999955,B,enter,I,enter,413,1,433.09999999403954,722508.6000000015,8084,WL,C,14.0
6,25.95799994468689,distr,34042.00005531311,Mon Dec 01 2025 17:19:19 GMT-0600 (Central Standard Time),723458.5,B,enter,I,enter,500,1,516.3999999985099,722942.1000000015,8084,WL,C,15.0
7,1.3829998970031738,immed,58617.000102996826,Mon Dec 01 2025 17:19:19 GMT-0600 (Central Standard Time),738853.5,A,t,I,t,1371,1,1382.7000000029802,737470.799999997,8084,WL,C,1.0
7,1.5499999523162842,immed,58450.000047683716,Mon Dec 01 2025 17:19:19 GMT-0600 (Central Standard Time),739020.1999999955,A,to,I,o,147,1,1549.3999999985099,737470.799999997,8084,WL,C,1.0
7,1.7160000801086426,immed,58283.99991989136,Mon Dec 01 2025 17:19:19 GMT-0600 (Central Standard Time),739186.6999999955,A,tow,I,w,150,1,1715.8999999985099,737470.799999997,8084,WL,C,1.0
7,1.8489999771118164,immed,58151.00002288818,Mon Dec 01 2025 17:19:19 GMT-0600 (Central Standard Time),739320.1000000015,A,towe,I,e,127,1,1849.3000000044703,737470.799999997,8084,WL,C,1.0
7,1.9159998893737793,immed,58084.00011062622,Mon Dec 01 2025 17:19:19 GMT-0600 (Central Standard Time),739386.799999997,A,tower,I,r,57,1,1916.0,737470.799999997,8084,WL,C,1.0
7,2.182999849319458,immed,57817.00015068054,Mon Dec 01 2025 17:19:19 GMT-0600 (Central Standard Time),739653.299999997,A,towerenter,I,enter,246,1,2182.5,737470.799999997,8084,WL,C,1.0
7,2.615999937057495,immed,57384.000062942505,Mon Dec 01 2025 17:19:19 GMT-0600 (Central Standard Time),740086.5,A,q,I,q,412,1,432.8999999985099,739653.6000000015,8084,WL,C,2.0
7,2.7319998741149902,immed,57268.00012588501,Mon Dec 01 2025 17:19:19 GMT-0600 (Central Standard Time),740203.1000000015,A,qu,I,u,100,1,549.5,739653.6000000015,8084,WL,C,2.0
7,2.9489998817443848,immed,57051.000118255615,Mon Dec 01 2025 17:19:19 GMT-0600 (Central Standard Time),740419.799999997,A,que,I,e,207,1,766.1999999955297,739653.6000000015,8084,WL,C,2.0
7,3.3489999771118164,immed,56651.00002288818,Mon Dec 01 2025 17:19:19 GMT-0600 (Central Standard Time),740819.6000000015,A,quee,I,e,390,1,1166.0,739653.6000000015,8084,WL,C,2.0
7,3.5490000247955322,immed,56450.99997520447,Mon Dec 01 2025 17:19:19 GMT-0600 (Central Standard Time),741019.5,A,queen,I,n,182,1,1365.8999999985099,739653.6000000015,8084,WL,C,2.0
7,5.930999994277954,immed,54069.000005722046,Mon Dec 01 2025 17:19:19 GMT-0600 (Central Standard Time),743402.299999997,A,queenenter,I,enter,2366,1,3748.6999999955297,739653.6000000015,8084,WL,C,2.0
7,6.580999851226807,immed,53419.00014877319,Mon Dec 01 2025 17:19:19 GMT-0600 (Central Standard Time),744052.1000000015,A,h,I,h,631,1,649.6000000014901,743402.5,8084,WL,C,3.0
7,6.730999946594238,immed,53269.00005340576,Mon Dec 01 2025 17:19:19 GMT-0600 (Central Standard Time),744201.799999997,A,ho,I,o,134,1,799.2999999970198,743402.5,8084,WL,C,3.0
7,6.88100004196167,immed,53118.99995803833,Mon Dec 01 2025 17:19:19 GMT-0600 (Central Standard Time),744351.799999997,A,hom,I,m,144,1,949.2999999970198,743402.5,8084,WL,C,3.0
7,7.080999851226807,immed,52919.00014877319,Mon Dec 01 2025 17:19:19 GMT-0600 (Central Standard Time),744551.6999999955,A,home,I,e,186,1,1149.1999999955297,743402.5,8084,WL,C,3.0
7,7.514999866485596,immed,52485.000133514404,Mon Dec 01 2025 17:19:19 GMT-0600 (Central Standard Time),744985.299999997,A,homes,I,s,418,1,1582.7999999970198,743402.5,8084,WL,C,3.0
7,8.230999946594238,immed,51769.00005340576,Mon Dec 01 2025 17:19:19 GMT-0600 (Central Standard Time),745701.299999997,A,home,I,backspace,696,1,2298.7999999970198,743402.5,8084,WL,C,3.0
7,9.04699993133545,immed,50953.00006866455,Mon Dec 01 2025 17:19:19 GMT-0600 (Central Standard Time),746517.799999997,A,homeenter,I,enter,805,1,3115.2999999970198,743402.5,8084,WL,C,3.0
7,9.379999876022339,immed,50620.00012397766,Mon Dec 01 2025 17:19:19 GMT-0600 (Central Standard Time),746851.1999999955,A,s,I,s,317,1,333.09999999403954,746518.1000000015,8084,WL,C,4.0
7,9.52999997138977,immed,50470.00002861023,Mon Dec 01 2025 17:19:19 GMT-0600 (Central Standard Time),747001.0,A,su,I,u,134,1,482.8999999985099,746518.1000000015,8084,WL,C,4.0
7,9.71399998664856,immed,50286.00001335144,Mon Dec 01 2025 17:19:19 GMT-0600 (Central Standard Time),747184.299999997,A,sur,I,r,168,1,666.1999999955297,746518.1000000015,8084,WL,C,4.0
7,10.246999979019165,immed,49753.000020980835,Mon Dec 01 2025 17:19:19 GMT-0600 (Central Standard Time),747717.3999999985,A,su,I,backspace,513,1,1199.2999999970198,746518.1000000015,8084,WL,C,4.0
7,10.412999868392944,immed,49587.000131607056,Mon Dec 01 2025 17:19:19 GMT-0600 (Central Standard Time),747884.1999999955,A,sug,I,g,148,1,1366.0999999940395,746518.1000000015,8084,WL,C,4.0
7,10.629999876022339,immed,49370.00012397766,Mon Dec 01 2025 17:19:19 GMT-0600 (Central Standard Time),748100.6999999955,A,suga,I,a,197,1,1582.5999999940395,746518.1000000015,8084,WL,C,4.0
7,10.730000019073486,immed,49269.999980926514,Mon Dec 01 2025 17:19:19 GMT-0600 (Central Standard Time),748200.6000000015,A,sugar,I,r,85,1,1682.5,746518.1000000015,8084,WL,C,4.0
7,10.930000066757202,immed,49069.9999332428,Mon Dec 01 2025 17:19:19 GMT-0600 (Central Standard Time),748400.6000000015,A,sugarenter,I,enter,194,1,1882.5,746518.1000000015,8084,WL,C,4.0
7,11.412999868392944,immed,48587.000131607056,Mon Dec 01 2025 17:19:19 GMT-0600 (Central Standard Time),748883.6999999955,A,b,I,b,473,1,482.69999999552965,748401.0,8084,WL,C,5.0
7,11.61299991607666,immed,48387.00008392334,Mon Dec 01 2025 17:19:19 GMT-0600 (Central Standard Time),749083.799999997,A,bo,I,o,190,1,682.7999999970198,748401.0,8084,WL,C,5.0
7,11.895999908447266,immed,48104.000091552734,Mon Dec 01 2025 17:19:19 GMT-0600 (Central Standard Time),749366.8999999985,A,boy,I,y,271,1,965.8999999985099,748401.0,8084,WL,C,5.0
7,12.162999868392944,immed,47837.000131607056,Mon Dec 01 2025 17:19:19 GMT-0600 (Central Standard Time),749633.5,A,boyenter,I,enter,251,1,1232.5,748401.0,8084,WL,C,5.0
7,12.628999948501587,immed,47371.00005149841,Mon Dec 01 2025 17:19:19 GMT-0600 (Central Standard Time),750100.0,A,b,I,b,448,1,466.30000000447035,749633.6999999955,8084,WL,C,6.0
7,12.728999853134155,immed,47271.000146865845,Mon Dec 01 2025 17:19:19 GMT-0600 (Central Standard Time),750200.1000000015,A,bo,I,o,93,1,566.4000000059605,749633.6999999955,8084,WL,C,6.0
7,12.94599986076355,immed,47054.00013923645,Mon Dec 01 2025 17:19:19 GMT-0600 (Central Standard Time),750416.6999999955,A,bod,I,d,201,1,783.0,749633.6999999955,8084,WL,C,6.0
7,13.078999996185303,immed,46921.0000038147,Mon Dec 01 2025 17:19:19 GMT-0600 (Central Standard Time),750549.8999999985,A,body,I,y,120,1,916.2000000029802,749633.6999999955,8084,WL,C,6.0
7,13.312000036239624,immed,46687.999963760376,Mon Dec 01 2025 17:19:19 GMT-0600 (Central Standard Time),750782.799999997,A,bodyenter,I,enter,229,1,1149.1000000014901,749633.6999999955,8084,WL,C,6.0
7,13.779000043869019,immed,46220.99995613098,Mon Dec 01 2025 17:19:19 GMT-0600 (Central Standard Time),751249.6999999955,A,c,I,c,460,1,466.59999999403954,750783.1000000015,8084,WL,C,7.0
7,13.978999853134155,immed,46021.000146865845,Mon Dec 01 2025 17:19:19 GMT-0600 (Central Standard Time),751449.799999997,A,ca,I,a,184,1,666.6999999955297,750783.1000000015,8084,WL,C,7.0
7,14.095999956130981,immed,45904.00004386902,Mon Dec 01 2025 17:19:19 GMT-0600 (Central Standard Time),751566.299999997,A,cam,I,m,104,1,783.1999999955297,750783.1000000015,8084,WL,C,7.0
7,14.328999996185303,immed,45671.0000038147,Mon Dec 01 2025 17:19:19 GMT-0600 (Central Standard Time),751799.799999997,A,camp,I,p,212,1,1016.6999999955297,750783.1000000015,8084,WL,C,7.0
7,14.694999933242798,immed,45305.0000667572,Mon Dec 01 2025 17:19:19 GMT-0600 (Central Standard Time),752166.1000000015,A,campenter,I,enter,346,1,1383.0,750783.1000000015,8084,WL,C,7.0
7,15.045000076293945,immed,44954.999923706055,Mon Dec 01 2025 17:19:19 GMT-0600 (Central Standard Time),752516.1000000015,A,d,I,d,332,1,349.80000000447035,752166.299999997,8084,WL,C,8.0
7,15.194999933242798,immed,44805.0000667572,Mon Dec 01 2025 17:19:19 GMT-0600 (Central Standard Time),752665.8999999985,A,do,I,o,141,1,499.6000000014901,752166.299999997,8084,WL,C,8.0
7,15.361999988555908,immed,44638.00001144409,Mon Dec 01 2025 17:19:19 GMT-0600 (Central Standard Time),752832.5,A,doc,I,c,160,1,666.2000000029802,752166.299999997,8084,WL,C,8.0
7,15.694999933242798,immed,44305.0000667572,Mon Dec 01 2025 17:19:19 GMT-0600 (Central Standard Time),753166.1000000015,A,doct,I,t,321,1,999.8000000044703,752166.299999997,8084,WL,C,8.0
7,15.894999980926514,immed,44105.000019073486,Mon Dec 01 2025 17:19:19 GMT-0600 (Central Standard Time),753365.799999997,A,docto,I,o,188,1,1199.5,752166.299999997,8084,WL,C,8.0
7,16.027999877929688,immed,43972.00012207031,Mon Dec 01 2025 17:19:19 GMT-0600 (Central Standard Time),753499.1999999955,A,doctor,I,r,115,1,1332.8999999985099,752166.299999997,8084,WL,C,8.0
7,16.277999877929688,immed,43722.00012207031,Mon Dec 01 2025 17:19:19 GMT-0600 (Central Standard Time),753748.8999999985,A,doctorenter,I,enter,239,1,1582.6000000014901,752166.299999997,8084,WL,C,8.0
7,20.30999994277954,immed,39690.00005722046,Mon Dec 01 2025 17:19:19 GMT-0600 (Central Standard Time),757780.8999999985,A,f,I,f,4021,1,4031.7000000029802,753749.1999999955,8084,WL,C,9.0
7,20.443000078201294,immed,39556.999921798706,Mon Dec 01 2025 17:19:19 GMT-0600 (Central Standard Time),757914.1000000015,A,fl,I,l,118,1,4164.9000000059605,753749.1999999955,8084,WL,C,9.0
7,20.65999984741211,immed,39340.00015258789,Mon Dec 01 2025 17:19:19 GMT-0600 (Central Standard Time),758130.799999997,A,fla,I,a,200,1,4381.60000000149,753749.1999999955,8084,WL,C,9.0
7,21.376999855041504,immed,38623.000144958496,Mon Dec 01 2025 17:19:19 GMT-0600 (Central Standard Time),758847.3999999985,A,flag,I,g,696,1,5098.20000000298,753749.1999999955,8084,WL,C,9.0
7,21.609999895095825,immed,38390.000104904175,Mon Dec 01 2025 17:19:19 GMT-0600 (Central Standard Time),759080.5,A,flagenter,I,enter,225,1,5331.30000000447,753749.1999999955,8084,WL,C,9.0
7,21.925999879837036,immed,38074.000120162964,Mon Dec 01 2025 17:19:19 GMT-0600 (Central Standard Time),759397.0,A,s,I,s,306,1,316.20000000298023,759080.799999997,8084,WL,C,10.0
7,22.043999910354614,immed,37956.000089645386,Mon Dec 01 2025 17:19:19 GMT-0600 (Central Standard Time),759514.299999997,A,sh,I,h,102,1,433.5,759080.799999997,8084,WL,C,10.0
7,22.193000078201294,immed,37806.999921798706,Mon Dec 01 2025 17:19:19 GMT-0600 (Central Standard Time),759663.3999999985,A,sho,I,o,144,1,582.6000000014901,759080.799999997,8084,WL,C,10.0
7,22.359999895095825,immed,37640.000104904175,Mon Dec 01 2025 17:19:19 GMT-0600 (Central Standard Time),759830.6000000015,A,shor,I,r,154,1,749.8000000044703,759080.799999997,8084,WL,C,10.0
7,22.542999982833862,immed,37457.00001716614,Mon Dec 01 2025 17:19:19 GMT-0600 (Central Standard Time),760013.5,A,shore,I,e,163,1,932.7000000029802,759080.799999997,8084,WL,C,10.0
7,22.759999990463257,immed,37240.00000953674,Mon Dec 01 2025 17:19:19 GMT-0600 (Central Standard Time),760230.3999999985,A,shoreenter,I,enter,196,1,1149.6000000014901,759080.799999997,8084,WL,C,10.0
7,37.62100005149841,immed,22378.999948501587,Mon Dec 01 2025 17:19:19 GMT-0600 (Central Standard Time),775092.299999997,A,q,I,q,14843,1,14861.69999999553,760230.6000000015,8084,WL,C,11.0
7,37.704999923706055,immed,22295.000076293945,Mon Dec 01 2025 17:19:19 GMT-0600 (Central Standard Time),775175.6000000015,A,qu,I,u,69,1,14945.0,760230.6000000015,8084,WL,C,11.0
7,38.1710000038147,immed,21828.999996185303,Mon Dec 01 2025 17:19:19 GMT-0600 (Central Standard Time),775642.1999999955,A,que,I,e,459,1,15411.59999999404,760230.6000000015,8084,WL,C,11.0
7,38.32099986076355,immed,21679.00013923645,Mon Dec 01 2025 17:19:19 GMT-0600 (Central Standard Time),775792.0,A,quee,I,e,143,1,15561.39999999851,760230.6000000015,8084,WL,C,11.0
7,38.50399994850159,immed,21496.000051498413,Mon Dec 01 2025 17:19:19 GMT-0600 (Central Standard Time),775974.8999999985,A,queen,I,n,178,1,15744.29999999702,760230.6000000015,8084,WL,C,11.0
7,38.770999908447266,immed,21229.000091552734,Mon Dec 01 2025 17:19:19 GMT-0600 (Central Standard Time),776242.1000000015,A,queenenter,I,enter,251,1,16011.5,760230.6000000015,8084,WL,C,11.0
7,46.61800003051758,immed,13381.999969482422,Mon Dec 01 2025 17:19:19 GMT-0600 (Central Standard Time),784089.299999997,A,n,I,n,7832,1,7846.89999999851,776242.3999999985,8084,WL,C,12.0
7,46.800999879837036,immed,13199.000120162964,Mon Dec 01 2025 17:19:19 GMT-0600 (Central Standard Time),784272.6999999955,A,na,I,a,168,1,8030.29999999702,776242.3999999985,8084,WL,C,12.0
7,46.91799998283386,immed,13082.000017166138,Mon Dec 01 2025 17:19:19 GMT-0600 (Central Standard Time),784389.3999999985,A,nai,I,i,97,1,8147.0,776242.3999999985,8084,WL,C,12.0
7,47.13499999046326,immed,12865.000009536743,Mon Dec 01 2025 17:19:19 GMT-0600 (Central Standard Time),784605.8999999985,A,nail,I,l,204,1,8363.5,776242.3999999985,8084,WL,C,12.0
7,47.43400001525879,immed,12565.999984741211,Mon Dec 01 2025 17:19:19 GMT-0600 (Central Standard Time),784905.799999997,A,nailenter,I,enter,284,1,8663.39999999851,776242.3999999985,8084,WL,C,12.0
7,53.431999921798706,immed,6568.000078201294,Mon Dec 01 2025 17:19:19 GMT-0600 (Central Standard Time),790903.5,A,enter,I,enter,5991,1,5997.39999999851,784906.1000000015,8084,WL,C,13.0
7,53.79900002479553,immed,6200.999975204468,Mon Dec 01 2025 17:19:19 GMT-0600 (Central Standard Time),791270.6999999955,A,enter,I,enter,353,1,366.8999999985099,790903.799999997,8084,WL,C,14.0
7,54.1489999294281,immed,5851.000070571899,Mon Dec 01 2025 17:19:19 GMT-0600 (Central Standard Time),791620.299999997,A,enter,I,enter,330,1,349.19999999552965,791271.1000000015,8084,WL,C,15.0
