block_c,block_dur,condition,countdown,datetime,endtime,list,multichar_response,project,response,response_time,session_number,start_end,starttime,subject_id,task,task_vers,trial
,,,,Wed Jun 03 2026 17:26:03 GMT-0500 (Central Daylight Time),,,,I,space,1445,3,,,8084,WL,A,
prac,,0,,Wed Jun 03 2026 17:26:03 GMT-0500 (Central Daylight Time),,NA,b,I,b,2002,3,,,8084,WL,A,1.0
prac,,0,,Wed Jun 03 2026 17:26:03 GMT-0500 (Central Daylight Time),,NA,bo,I,o,245,3,,,8084,WL,A,1.0
prac,,0,,Wed Jun 03 2026 17:26:03 GMT-0500 (Central Daylight Time),,NA,boo,I,o,124,3,,,8084,WL,A,1.0
prac,,0,,Wed Jun 03 2026 17:26:03 GMT-0500 (Central Daylight Time),,NA,boos,I,s,215,3,,,8084,WL,A,1.0
prac,,0,,Wed Jun 03 2026 17:26:03 GMT-0500 (Central Daylight Time),,NA,boost,I,t,373,3,,,8084,WL,A,1.0
prac,,0,,Wed Jun 03 2026 17:26:03 GMT-0500 (Central Daylight Time),,NA,boostenter,I,enter,326,3,,,8084,WL,A,1.0
1,2.382999897003174,learn,57617.000102996826,Wed Jun 03 2026 17:26:03 GMT-0500 (Central Daylight Time),102874.10000002384,A,b,I,b,2377,3,2382.399999976158,100491.70000004768,8084,WL,A,1.0
1,2.5490000247955322,learn,57450.99997520447,Wed Jun 03 2026 17:26:03 GMT-0500 (Central Daylight Time),103040.20000004768,A,bo,I,o,143,3,2548.5,100491.70000004768,8084,WL,A,1.0
1,2.6989998817443848,learn,57301.000118255615,Wed Jun 03 2026 17:26:03 GMT-0500 (Central Daylight Time),103190.40000009537,A,boo,I,o,132,3,2698.7000000476837,100491.70000004768,8084,WL,A,1.0
1,3.0989999771118164,learn,56901.00002288818,Wed Jun 03 2026 17:26:03 GMT-0500 (Central Daylight Time),103590.5,A,book,I,k,389,3,3098.7999999523163,100491.70000004768,8084,WL,A,1.0
1,3.4660000801086426,learn,56533.99991989136,Wed Jun 03 2026 17:26:03 GMT-0500 (Central Daylight Time),103956.80000007153,A,bookenter,I,enter,350,3,3465.100000023842,100491.70000004768,8084,WL,A,1.0
1,5.2820000648498535,learn,54717.99993515015,Wed Jun 03 2026 17:26:03 GMT-0500 (Central Daylight Time),105772.80000007153,A,l,I,l,1807,3,1815.5,103957.30000007153,8084,WL,A,2.0
1,5.865000009536743,learn,54134.99999046326,Wed Jun 03 2026 17:26:03 GMT-0500 (Central Daylight Time),106356.20000004768,A,lf,I,f,575,3,2398.899999976158,103957.30000007153,8084,WL,A,2.0
1,6.4649999141693115,learn,53535.00008583069,Wed Jun 03 2026 17:26:03 GMT-0500 (Central Daylight Time),106955.90000009537,A,l,I,backspace,592,3,2998.600000023842,103957.30000007153,8084,WL,A,2.0
1,6.615000009536743,learn,53384.99999046326,Wed Jun 03 2026 17:26:03 GMT-0500 (Central Daylight Time),107105.80000007153,A,,I,backspace,128,3,3148.5,103957.30000007153,8084,WL,A,2.0
1,6.815000057220459,learn,53184.99994277954,Wed Jun 03 2026 17:26:03 GMT-0500 (Central Daylight Time),107305.90000009537,A,f,I,f,195,3,3348.600000023842,103957.30000007153,8084,WL,A,2.0
1,6.948999881744385,learn,53051.000118255615,Wed Jun 03 2026 17:26:03 GMT-0500 (Central Daylight Time),107439.60000002384,A,fl,I,l,115,3,3482.2999999523163,103957.30000007153,8084,WL,A,2.0
1,7.148999929428101,learn,52851.0000705719,Wed Jun 03 2026 17:26:03 GMT-0500 (Central Daylight Time),107640.20000004768,A,flo,I,o,180,3,3682.899999976158,103957.30000007153,8084,WL,A,2.0
1,7.29800009727478,learn,52701.99990272522,Wed Jun 03 2026 17:26:03 GMT-0500 (Central Daylight Time),107788.90000009537,A,flow,I,w,132,3,3831.600000023842,103957.30000007153,8084,WL,A,2.0
1,7.414999961853027,learn,52585.00003814697,Wed Jun 03 2026 17:26:03 GMT-0500 (Central Daylight Time),107905.80000007153,A,flowe,I,e,104,3,3948.5,103957.30000007153,8084,WL,A,2.0
1,7.497999906539917,learn,52502.00009346008,Wed Jun 03 2026 17:26:03 GMT-0500 (Central Daylight Time),107989.0,A,flower,I,r,74,3,4031.6999999284744,103957.30000007153,8084,WL,A,2.0
1,7.730999946594238,learn,52269.00005340576,Wed Jun 03 2026 17:26:03 GMT-0500 (Central Daylight Time),108222.20000004768,A,flowerenter,I,enter,215,3,4264.899999976158,103957.30000007153,8084,WL,A,2.0
1,8.280999898910522,learn,51719.00010108948,Wed Jun 03 2026 17:26:03 GMT-0500 (Central Daylight Time),108772.20000004768,A,t,I,t,542,3,549.6000000238419,108222.60000002384,8084,WL,A,3.0
1,8.46399998664856,learn,51536.00001335144,Wed Jun 03 2026 17:26:03 GMT-0500 (Central Daylight Time),108955.20000004768,A,tr,I,r,176,3,732.6000000238419,108222.60000002384,8084,WL,A,3.0
1,8.63100004196167,learn,51368.99995803833,Wed Jun 03 2026 17:26:03 GMT-0500 (Central Daylight Time),109121.90000009537,A,tra,I,a,146,3,899.3000000715256,108222.60000002384,8084,WL,A,3.0
1,8.765000104904175,learn,51234.999895095825,Wed Jun 03 2026 17:26:03 GMT-0500 (Central Daylight Time),109256.30000007153,A,trai,I,i,115,3,1033.7000000476837,108222.60000002384,8084,WL,A,3.0
1,8.897000074386597,learn,51102.9999256134,Wed Jun 03 2026 17:26:03 GMT-0500 (Central Daylight Time),109388.10000002384,A,train,I,n,123,3,1165.5,108222.60000002384,8084,WL,A,3.0
1,9.280999898910522,learn,50719.00010108948,Wed Jun 03 2026 17:26:03 GMT-0500 (Central Daylight Time),109771.70000004768,A,trainenter,I,enter,377,3,1549.1000000238419,108222.60000002384,8084,WL,A,3.0
1,9.614000082015991,learn,50385.99991798401,Wed Jun 03 2026 17:26:03 GMT-0500 (Central Daylight Time),110104.90000009537,A,m,I,m,313,3,332.60000002384186,109772.30000007153,8084,WL,A,4.0
1,9.763999938964844,learn,50236.000061035156,Wed Jun 03 2026 17:26:03 GMT-0500 (Central Daylight Time),110254.90000009537,A,me,I,e,131,3,482.60000002384186,109772.30000007153,8084,WL,A,4.0
1,9.96399998664856,learn,50036.00001335144,Wed Jun 03 2026 17:26:03 GMT-0500 (Central Daylight Time),110454.90000009537,A,mea,I,a,181,3,682.6000000238419,109772.30000007153,8084,WL,A,4.0
1,10.380000114440918,learn,49619.99988555908,Wed Jun 03 2026 17:26:03 GMT-0500 (Central Daylight Time),110871.30000007153,A,mead,I,d,406,3,1099.0,109772.30000007153,8084,WL,A,4.0
1,10.579999923706055,learn,49420.000076293945,Wed Jun 03 2026 17:26:03 GMT-0500 (Central Daylight Time),111071.10000002384,A,meado,I,o,181,3,1298.7999999523163,109772.30000007153,8084,WL,A,4.0
1,10.746999979019165,learn,49253.000020980835,Wed Jun 03 2026 17:26:03 GMT-0500 (Central Daylight Time),111237.90000009537,A,meadow,I,w,150,3,1465.6000000238419,109772.30000007153,8084,WL,A,4.0
1,11.04699993133545,learn,48953.00006866455,Wed Jun 03 2026 17:26:03 GMT-0500 (Central Daylight Time),111537.70000004768,A,meadowenter,I,enter,287,3,1765.3999999761581,109772.30000007153,8084,WL,A,4.0
1,15.211999893188477,learn,44788.00010681152,Wed Jun 03 2026 17:26:03 GMT-0500 (Central Daylight Time),115703.0,A,b,I,b,4147,3,4164.799999952316,111538.20000004768,8084,WL,A,5.0
1,15.29699993133545,learn,44703.00006866455,Wed Jun 03 2026 17:26:03 GMT-0500 (Central Daylight Time),115787.60000002384,A,bu,I,u,77,3,4249.399999976158,111538.20000004768,8084,WL,A,5.0
1,15.678999900817871,learn,44321.00009918213,Wed Jun 03 2026 17:26:03 GMT-0500 (Central Daylight Time),116169.80000007153,A,but,I,t,361,3,4631.600000023842,111538.20000004768,8084,WL,A,5.0
1,15.828999996185303,learn,44171.0000038147,Wed Jun 03 2026 17:26:03 GMT-0500 (Central Daylight Time),116319.70000004768,A,butt,I,t,139,3,4781.5,111538.20000004768,8084,WL,A,5.0
1,15.961999893188477,learn,44038.00010681152,Wed Jun 03 2026 17:26:03 GMT-0500 (Central Daylight Time),116453.0,A,butto,I,o,117,3,4914.799999952316,111538.20000004768,8084,WL,A,5.0
1,16.17799997329712,learn,43822.00002670288,Wed Jun 03 2026 17:26:03 GMT-0500 (Central Daylight Time),116669.40000009537,A,button,I,n,198,3,5131.200000047684,111538.20000004768,8084,WL,A,5.0
1,16.494999885559082,learn,43505.00011444092,Wed Jun 03 2026 17:26:03 GMT-0500 (Central Daylight Time),116985.90000009537,A,buttonenter,I,enter,304,3,5447.700000047684,111538.20000004768,8084,WL,A,5.0
1,17.460999965667725,learn,42539.000034332275,Wed Jun 03 2026 17:26:03 GMT-0500 (Central Daylight Time),117952.70000004768,A,m,I,m,954,3,966.3999999761581,116986.30000007153,8084,WL,A,6.0
1,17.594000101089478,learn,42405.99989891052,Wed Jun 03 2026 17:26:03 GMT-0500 (Central Daylight Time),118085.40000009537,A,me,I,e,124,3,1099.1000000238419,116986.30000007153,8084,WL,A,6.0
1,17.72699999809265,learn,42273.00000190735,Wed Jun 03 2026 17:26:03 GMT-0500 (Central Daylight Time),118218.90000009537,A,mea,I,a,127,3,1232.6000000238419,116986.30000007153,8084,WL,A,6.0
1,18.14400005340576,learn,41855.99994659424,Wed Jun 03 2026 17:26:03 GMT-0500 (Central Daylight Time),118635.60000002384,A,mead,I,d,401,3,1649.2999999523163,116986.30000007153,8084,WL,A,6.0
1,18.361000061035156,learn,41638.999938964844,Wed Jun 03 2026 17:26:03 GMT-0500 (Central Daylight Time),118852.0,A,meado,I,o,202,3,1865.6999999284744,116986.30000007153,8084,WL,A,6.0
1,18.526999950408936,learn,41473.000049591064,Wed Jun 03 2026 17:26:03 GMT-0500 (Central Daylight Time),119018.40000009537,A,meadow,I,w,160,3,2032.1000000238419,116986.30000007153,8084,WL,A,6.0
1,18.759999990463257,learn,41240.00000953674,Wed Jun 03 2026 17:26:03 GMT-0500 (Central Daylight Time),119251.80000007153,A,meadowenter,I,enter,219,3,2265.5,116986.30000007153,8084,WL,A,6.0
1,58.331000089645386,learn,1668.9999103546143,Wed Jun 03 2026 17:26:03 GMT-0500 (Central Daylight Time),158822.70000004768,A,enter,I,enter,39552,3,39570.39999997616,119252.30000007153,8084,WL,A,7.0
1,58.81500005722046,learn,1184.999942779541,Wed Jun 03 2026 17:26:03 GMT-0500 (Central Daylight Time),159306.10000002384,A,enter,I,enter,477,3,483.0,158823.10000002384,8084,WL,A,8.0
1,59.44799995422363,learn,552.0000457763672,Wed Jun 03 2026 17:26:03 GMT-0500 (Central Daylight Time),159939.40000009537,A,enter,I,enter,619,3,632.9000000953674,159306.5,8084,WL,A,9.0
1,59.88100004196167,learn,118.99995803833008,Wed Jun 03 2026 17:26:03 GMT-0500 (Central Daylight Time),160372.60000002384,A,enter,I,enter,425,3,432.6999999284744,159939.90000009537,8084,WL,A,10.0
1,60.013999938964844,learn,-13.99993896484375,Wed Jun 03 2026 17:26:03 GMT-0500 (Central Daylight Time),160505.90000009537,A,None,I,None,129,3,132.90000009536743,160373.0,8084,WL,A,11.0
2,2.0169999599456787,learn,57983.00004005432,Wed Jun 03 2026 17:26:03 GMT-0500 (Central Daylight Time),232101.10000002384,A,f,I,f,2010,3,2017.0,230084.10000002384,8084,WL,A,1.0
2,2.6989998817443848,learn,57301.000118255615,Wed Jun 03 2026 17:26:03 GMT-0500 (Central Daylight Time),232783.30000007153,A,,I,backspace,662,3,2699.2000000476837,230084.10000002384,8084,WL,A,1.0
2,3.0160000324249268,learn,56983.99996757507,Wed Jun 03 2026 17:26:03 GMT-0500 (Central Daylight Time),233099.60000002384,A,b,I,b,309,3,3015.5,230084.10000002384,8084,WL,A,1.0
2,3.132999897003174,learn,56867.000102996826,Wed Jun 03 2026 17:26:03 GMT-0500 (Central Daylight Time),233216.60000002384,A,bo,I,o,97,3,3132.5,230084.10000002384,8084,WL,A,1.0
2,3.2990000247955322,learn,56700.99997520447,Wed Jun 03 2026 17:26:03 GMT-0500 (Central Daylight Time),233383.0,A,boo,I,o,156,3,3298.899999976158,230084.10000002384,8084,WL,A,1.0
2,3.565000057220459,learn,56434.99994277954,Wed Jun 03 2026 17:26:03 GMT-0500 (Central Daylight Time),233649.30000007153,A,book,I,k,254,3,3565.2000000476837,230084.10000002384,8084,WL,A,1.0
2,3.865999937057495,learn,56134.000062942505,Wed Jun 03 2026 17:26:03 GMT-0500 (Central Daylight Time),233949.60000002384,A,bookenter,I,enter,292,3,3865.5,230084.10000002384,8084,WL,A,1.0
2,4.332000017166138,learn,55667.99998283386,Wed Jun 03 2026 17:26:03 GMT-0500 (Central Daylight Time),234415.90000009537,A,f,I,f,447,3,465.8000000715256,233950.10000002384,8084,WL,A,2.0
2,4.448999881744385,learn,55551.000118255615,Wed Jun 03 2026 17:26:03 GMT-0500 (Central Daylight Time),234532.70000004768,A,fl,I,l,100,3,582.6000000238419,233950.10000002384,8084,WL,A,2.0
2,4.716000080108643,learn,55283.99991989136,Wed Jun 03 2026 17:26:03 GMT-0500 (Central Daylight Time),234799.5,A,flo,I,o,248,3,849.3999999761581,233950.10000002384,8084,WL,A,2.0
2,4.999000072479248,learn,55000.99992752075,Wed Jun 03 2026 17:26:03 GMT-0500 (Central Daylight Time),235082.5,A,flow,I,w,270,3,1132.3999999761581,233950.10000002384,8084,WL,A,2.0
2,5.148000001907349,learn,54851.99999809265,Wed Jun 03 2026 17:26:03 GMT-0500 (Central Daylight Time),235232.30000007153,A,flowe,I,e,131,3,1282.2000000476837,233950.10000002384,8084,WL,A,2.0
2,5.247999906539917,learn,54752.00009346008,Wed Jun 03 2026 17:26:03 GMT-0500 (Central Daylight Time),235332.30000007153,A,flower,I,r,85,3,1382.2000000476837,233950.10000002384,8084,WL,A,2.0
2,5.433000087738037,learn,54566.99991226196,Wed Jun 03 2026 17:26:03 GMT-0500 (Central Daylight Time),235516.70000004768,A,flowerenter,I,enter,177,3,1566.6000000238419,233950.10000002384,8084,WL,A,2.0
2,5.831000089645386,learn,54168.999910354614,Wed Jun 03 2026 17:26:03 GMT-0500 (Central Daylight Time),235915.40000009537,A,t,I,t,392,3,398.40000009536743,235517.0,8084,WL,A,3.0
2,6.115000009536743,learn,53884.99999046326,Wed Jun 03 2026 17:26:03 GMT-0500 (Central Daylight Time),236198.70000004768,A,tr,I,r,273,3,681.7000000476837,235517.0,8084,WL,A,3.0
2,6.332000017166138,learn,53667.99998283386,Wed Jun 03 2026 17:26:03 GMT-0500 (Central Daylight Time),236415.60000002384,A,tra,I,a,199,3,898.6000000238419,235517.0,8084,WL,A,3.0
2,6.497999906539917,learn,53502.00009346008,Wed Jun 03 2026 17:26:03 GMT-0500 (Central Daylight Time),236582.0,A,trai,I,i,158,3,1065.0,235517.0,8084,WL,A,3.0
2,6.63100004196167,learn,53368.99995803833,Wed Jun 03 2026 17:26:03 GMT-0500 (Central Daylight Time),236715.40000009537,A,train,I,n,112,3,1198.4000000953674,235517.0,8084,WL,A,3.0
2,6.881999969482422,learn,53118.00003051758,Wed Jun 03 2026 17:26:03 GMT-0500 (Central Daylight Time),236966.10000002384,A,trainenter,I,enter,234,3,1449.1000000238419,235517.0,8084,WL,A,3.0
2,7.313999891281128,learn,52686.00010871887,Wed Jun 03 2026 17:26:03 GMT-0500 (Central Daylight Time),237398.40000009537,A,m,I,m,415,3,431.8000000715256,236966.60000002384,8084,WL,A,4.0
2,7.480999946594238,learn,52519.00005340576,Wed Jun 03 2026 17:26:03 GMT-0500 (Central Daylight Time),237565.10000002384,A,me,I,e,151,3,598.5,236966.60000002384,8084,WL,A,4.0
2,7.697000026702881,learn,52302.99997329712,Wed Jun 03 2026 17:26:03 GMT-0500 (Central Daylight Time),237781.60000002384,A,mea,I,a,199,3,815.0,236966.60000002384,8084,WL,A,4.0
2,7.996999979019165,learn,52003.000020980835,Wed Jun 03 2026 17:26:03 GMT-0500 (Central Daylight Time),238081.60000002384,A,mead,I,d,280,3,1115.0,236966.60000002384,8084,WL,A,4.0
2,8.19700002670288,learn,51802.99997329712,Wed Jun 03 2026 17:26:03 GMT-0500 (Central Daylight Time),238281.5,A,meado,I,o,178,3,1314.8999999761581,236966.60000002384,8084,WL,A,4.0
2,8.364000082015991,learn,51635.99991798401,Wed Jun 03 2026 17:26:03 GMT-0500 (Central Daylight Time),238448.30000007153,A,meadow,I,w,147,3,1481.7000000476837,236966.60000002384,8084,WL,A,4.0
2,8.54699993133545,learn,51453.00006866455,Wed Jun 03 2026 17:26:03 GMT-0500 (Central Daylight Time),238631.60000002384,A,meadowenter,I,enter,165,3,1665.0,236966.60000002384,8084,WL,A,4.0
2,9.312999963760376,learn,50687.000036239624,Wed Jun 03 2026 17:26:03 GMT-0500 (Central Daylight Time),239397.70000004768,A,r,I,r,758,3,765.7000000476837,238632.0,8084,WL,A,5.0
2,9.513000011444092,learn,50486.99998855591,Wed Jun 03 2026 17:26:03 GMT-0500 (Central Daylight Time),239597.60000002384,A,ru,I,u,183,3,965.6000000238419,238632.0,8084,WL,A,5.0
2,9.796000003814697,learn,50203.9999961853,Wed Jun 03 2026 17:26:03 GMT-0500 (Central Daylight Time),239880.70000004768,A,rug,I,g,272,3,1248.7000000476837,238632.0,8084,WL,A,5.0
2,10.213000059127808,learn,49786.99994087219,Wed Jun 03 2026 17:26:03 GMT-0500 (Central Daylight Time),240297.40000009537,A,rugenter,I,enter,397,3,1665.4000000953674,238632.0,8084,WL,A,5.0
2,10.730000019073486,learn,49269.999980926514,Wed Jun 03 2026 17:26:03 GMT-0500 (Central Daylight Time),240813.90000009537,A,s,I,s,508,3,516.1000000238419,240297.80000007153,8084,WL,A,6.0
2,10.913000106811523,learn,49086.99989318848,Wed Jun 03 2026 17:26:03 GMT-0500 (Central Daylight Time),240997.30000007153,A,sa,I,a,175,3,699.5,240297.80000007153,8084,WL,A,6.0
2,11.046000003814697,learn,48953.9999961853,Wed Jun 03 2026 17:26:03 GMT-0500 (Central Daylight Time),241130.5,A,sal,I,l,120,3,832.6999999284744,240297.80000007153,8084,WL,A,6.0
2,11.46399998664856,learn,48536.00001335144,Wed Jun 03 2026 17:26:03 GMT-0500 (Central Daylight Time),241548.10000002384,A,salt,I,t,411,3,1250.2999999523163,240297.80000007153,8084,WL,A,6.0
2,12.095999956130981,learn,47904.00004386902,Wed Jun 03 2026 17:26:03 GMT-0500 (Central Daylight Time),242180.30000007153,A,saltenter,I,enter,617,3,1882.5,240297.80000007153,8084,WL,A,6.0
2,12.562000036239624,learn,47437.999963760376,Wed Jun 03 2026 17:26:03 GMT-0500 (Central Daylight Time),242646.60000002384,A,f,I,f,449,3,465.89999997615814,242180.70000004768,8084,WL,A,7.0
2,12.680000066757202,learn,47319.9999332428,Wed Jun 03 2026 17:26:03 GMT-0500 (Central Daylight Time),242764.5,A,fi,I,i,102,3,583.7999999523163,242180.70000004768,8084,WL,A,7.0
2,12.845999956130981,learn,47154.00004386902,Wed Jun 03 2026 17:26:03 GMT-0500 (Central Daylight Time),242930.10000002384,A,fin,I,n,152,3,749.3999999761581,242180.70000004768,8084,WL,A,7.0
2,13.128999948501587,learn,46871.00005149841,Wed Jun 03 2026 17:26:03 GMT-0500 (Central Daylight Time),243213.10000002384,A,fing,I,g,275,3,1032.3999999761581,242180.70000004768,8084,WL,A,7.0
2,13.34500002861023,learn,46654.99997138977,Wed Jun 03 2026 17:26:03 GMT-0500 (Central Daylight Time),243429.80000007153,A,finge,I,e,208,3,1249.1000000238419,242180.70000004768,8084,WL,A,7.0
2,13.428999900817871,learn,46571.00009918213,Wed Jun 03 2026 17:26:03 GMT-0500 (Central Daylight Time),243513.0,A,finger,I,r,71,3,1332.2999999523163,242180.70000004768,8084,WL,A,7.0
2,13.979000091552734,learn,46020.999908447266,Wed Jun 03 2026 17:26:03 GMT-0500 (Central Daylight Time),244062.90000009537,A,fingerenter,I,enter,532,3,1882.2000000476837,242180.70000004768,8084,WL,A,7.0
2,18.72699999809265,learn,41273.00000190735,Wed Jun 03 2026 17:26:03 GMT-0500 (Central Daylight Time),248811.5,A,k,I,k,4735,3,4748.299999952316,244063.20000004768,8084,WL,A,8.0
2,19.07699990272522,learn,40923.00009727478,Wed Jun 03 2026 17:26:03 GMT-0500 (Central Daylight Time),249161.60000002384,A,ke,I,e,329,3,5098.399999976158,244063.20000004768,8084,WL,A,8.0
2,19.292999982833862,learn,40707.00001716614,Wed Jun 03 2026 17:26:03 GMT-0500 (Central Daylight Time),249377.70000004768,A,key,I,y,210,3,5314.5,244063.20000004768,8084,WL,A,8.0
2,19.57699990272522,learn,40423.00009727478,Wed Jun 03 2026 17:26:03 GMT-0500 (Central Daylight Time),249661.10000002384,A,keyenter,I,enter,268,3,5597.899999976158,244063.20000004768,8084,WL,A,8.0
2,20.259999990463257,learn,39740.00000953674,Wed Jun 03 2026 17:26:03 GMT-0500 (Central Daylight Time),250344.30000007153,A,l,I,l,664,3,682.8999999761581,249661.40000009537,8084,WL,A,9.0
2,20.460000038146973,learn,39539.99996185303,Wed Jun 03 2026 17:26:03 GMT-0500 (Central Daylight Time),250544.30000007153,A,lo,I,o,190,3,882.8999999761581,249661.40000009537,8084,WL,A,9.0
2,20.625999927520752,learn,39374.00007247925,Wed Jun 03 2026 17:26:03 GMT-0500 (Central Daylight Time),250710.70000004768,A,log,I,g,156,3,1049.2999999523163,249661.40000009537,8084,WL,A,9.0
2,20.89299988746643,learn,39107.00011253357,Wed Jun 03 2026 17:26:03 GMT-0500 (Central Daylight Time),250977.70000004768,A,logenter,I,enter,255,3,1316.2999999523163,249661.40000009537,8084,WL,A,9.0
2,22.075999975204468,learn,37924.00002479553,Wed Jun 03 2026 17:26:03 GMT-0500 (Central Daylight Time),252160.5,A,c,I,c,1172,3,1182.5,250978.0,8084,WL,A,10.0
2,22.193000078201294,learn,37806.999921798706,Wed Jun 03 2026 17:26:03 GMT-0500 (Central Daylight Time),252277.10000002384,A,ch,I,h,109,3,1299.1000000238419,250978.0,8084,WL,A,10.0
2,22.45899987220764,learn,37541.00012779236,Wed Jun 03 2026 17:26:03 GMT-0500 (Central Daylight Time),252543.70000004768,A,chi,I,i,255,3,1565.7000000476837,250978.0,8084,WL,A,10.0
2,22.759000062942505,learn,37240.999937057495,Wed Jun 03 2026 17:26:03 GMT-0500 (Central Daylight Time),252843.5,A,chim,I,m,285,3,1865.5,250978.0,8084,WL,A,10.0
2,23.375999927520752,learn,36624.00007247925,Wed Jun 03 2026 17:26:03 GMT-0500 (Central Daylight Time),253460.10000002384,A,chimn,I,n,610,3,2482.100000023842,250978.0,8084,WL,A,10.0
2,23.658999919891357,learn,36341.00008010864,Wed Jun 03 2026 17:26:03 GMT-0500 (Central Daylight Time),253743.30000007153,A,chimne,I,e,265,3,2765.3000000715256,250978.0,8084,WL,A,10.0
2,23.825999975204468,learn,36174.00002479553,Wed Jun 03 2026 17:26:03 GMT-0500 (Central Daylight Time),253910.10000002384,A,chimney,I,y,158,3,2932.100000023842,250978.0,8084,WL,A,10.0
2,24.075999975204468,learn,35924.00002479553,Wed Jun 03 2026 17:26:03 GMT-0500 (Central Daylight Time),254159.90000009537,A,chimneyenter,I,enter,231,3,3181.9000000953674,250978.0,8084,WL,A,10.0
2,32.890000104904175,learn,27109.999895095825,Wed Jun 03 2026 17:26:03 GMT-0500 (Central Daylight Time),262974.3000000715,A,r,I,r,8805,3,8814.0,254160.30000007153,8084,WL,A,11.0
2,33.02300000190735,learn,26976.99999809265,Wed Jun 03 2026 17:26:03 GMT-0500 (Central Daylight Time),263107.10000002384,A,ru,I,u,111,3,8946.799999952316,254160.30000007153,8084,WL,A,11.0
2,33.223000049591064,learn,26776.999950408936,Wed Jun 03 2026 17:26:03 GMT-0500 (Central Daylight Time),263307.0,A,rug,I,g,178,3,9146.699999928474,254160.30000007153,8084,WL,A,11.0
2,33.48900008201599,learn,26510.99991798401,Wed Jun 03 2026 17:26:03 GMT-0500 (Central Daylight Time),263573.7000000477,A,rugenter,I,enter,250,3,9413.399999976158,254160.30000007153,8084,WL,A,11.0
2,41.269999980926514,learn,18730.000019073486,Wed Jun 03 2026 17:26:03 GMT-0500 (Central Daylight Time),271354.40000009537,A,enter,I,enter,7760,3,7780.300000071526,263574.10000002384,8084,WL,A,12.0
2,41.72000002861023,learn,18279.99997138977,Wed Jun 03 2026 17:26:03 GMT-0500 (Central Daylight Time),271804.3000000715,A,enter,I,enter,434,3,449.5,271354.8000000715,8084,WL,A,13.0
2,42.15299987792969,learn,17847.000122070312,Wed Jun 03 2026 17:26:03 GMT-0500 (Central Daylight Time),272237.3000000715,A,enter,I,enter,425,3,432.60000002384186,271804.7000000477,8084,WL,A,14.0
2,42.55299997329712,learn,17447.00002670288,Wed Jun 03 2026 17:26:03 GMT-0500 (Central Daylight Time),272637.0,A,enter,I,enter,391,3,399.39999997615814,272237.60000002384,8084,WL,A,15.0
3,0.932999849319458,learn,59067.00015068054,Wed Jun 03 2026 17:26:03 GMT-0500 (Central Daylight Time),342565.60000002384,A,c,I,c,918,3,933.0,341632.60000002384,8084,WL,A,1.0
3,1.0159997940063477,learn,58984.00020599365,Wed Jun 03 2026 17:26:03 GMT-0500 (Central Daylight Time),342648.90000009537,A,ch,I,h,71,3,1016.3000000715256,341632.60000002384,8084,WL,A,1.0
3,1.2329998016357422,learn,58767.00019836426,Wed Jun 03 2026 17:26:03 GMT-0500 (Central Daylight Time),342865.2000000477,A,chi,I,i,206,3,1232.6000000238419,341632.60000002384,8084,WL,A,1.0
3,1.3659999370574951,learn,58634.000062942505,Wed Jun 03 2026 17:26:03 GMT-0500 (Central Daylight Time),342998.7000000477,A,chim,I,m,124,3,1366.1000000238419,341632.60000002384,8084,WL,A,1.0
3,1.9659998416900635,learn,58034.00015830994,Wed Jun 03 2026 17:26:03 GMT-0500 (Central Daylight Time),343598.60000002384,A,chimn,I,n,590,3,1966.0,341632.60000002384,8084,WL,A,1.0
3,2.0989999771118164,learn,57901.00002288818,Wed Jun 03 2026 17:26:03 GMT-0500 (Central Daylight Time),343731.8000000715,A,chimne,I,e,127,3,2099.2000000476837,341632.60000002384,8084,WL,A,1.0
3,2.3329999446868896,learn,57667.00005531311,Wed Jun 03 2026 17:26:03 GMT-0500 (Central Daylight Time),343965.10000002384,A,chimney,I,y,225,3,2332.5,341632.60000002384,8084,WL,A,1.0
3,2.748999834060669,learn,57251.00016593933,Wed Jun 03 2026 17:26:03 GMT-0500 (Central Daylight Time),344381.40000009537,A,chimneyenter,I,enter,408,3,2748.8000000715256,341632.60000002384,8084,WL,A,1.0
3,3.1989998817443848,learn,56801.000118255615,Wed Jun 03 2026 17:26:03 GMT-0500 (Central Daylight Time),344831.40000009537,A,b,I,b,440,3,449.60000002384186,344381.8000000715,8084,WL,A,2.0
3,3.5819997787475586,learn,56418.00022125244,Wed Jun 03 2026 17:26:03 GMT-0500 (Central Daylight Time),345214.40000009537,A,bu,I,u,366,3,832.6000000238419,344381.8000000715,8084,WL,A,2.0
3,3.8980000019073486,learn,56101.99999809265,Wed Jun 03 2026 17:26:03 GMT-0500 (Central Daylight Time),345530.60000002384,A,but,I,t,309,3,1148.7999999523163,344381.8000000715,8084,WL,A,2.0
3,4.06499981880188,learn,55935.00018119812,Wed Jun 03 2026 17:26:03 GMT-0500 (Central Daylight Time),345697.8000000715,A,butt,I,t,161,3,1316.0,344381.8000000715,8084,WL,A,2.0
3,4.181999921798706,learn,55818.000078201294,Wed Jun 03 2026 17:26:03 GMT-0500 (Central Daylight Time),345814.5,A,butto,I,o,108,3,1432.6999999284744,344381.8000000715,8084,WL,A,2.0
3,4.331999778747559,learn,55668.00022125244,Wed Jun 03 2026 17:26:03 GMT-0500 (Central Daylight Time),345964.60000002384,A,button,I,n,135,3,1582.7999999523163,344381.8000000715,8084,WL,A,2.0
3,5.014999866485596,learn,54985.000133514404,Wed Jun 03 2026 17:26:03 GMT-0500 (Central Daylight Time),346647.40000009537,A,buttonenter,I,enter,672,3,2265.600000023842,344381.8000000715,8084,WL,A,2.0
3,5.5309998989105225,learn,54469.00010108948,Wed Jun 03 2026 17:26:03 GMT-0500 (Central Daylight Time),347163.90000009537,A,l,I,l,510,3,516.2000000476837,346647.7000000477,8084,WL,A,3.0
3,5.730999946594238,learn,54269.00005340576,Wed Jun 03 2026 17:26:03 GMT-0500 (Central Daylight Time),347363.7000000477,A,lo,I,o,185,3,716.0,346647.7000000477,8084,WL,A,3.0
3,5.914999961853027,learn,54085.00003814697,Wed Jun 03 2026 17:26:03 GMT-0500 (Central Daylight Time),347547.10000002384,A,log,I,g,177,3,899.3999999761581,346647.7000000477,8084,WL,A,3.0
3,6.130999803543091,learn,53869.00019645691,Wed Jun 03 2026 17:26:03 GMT-0500 (Central Daylight Time),347763.8000000715,A,logenter,I,enter,202,3,1116.1000000238419,346647.7000000477,8084,WL,A,3.0
3,6.513999938964844,learn,53486.000061035156,Wed Jun 03 2026 17:26:03 GMT-0500 (Central Daylight Time),348146.90000009537,A,k,I,k,378,3,382.8000000715256,347764.10000002384,8084,WL,A,4.0
3,6.697999954223633,learn,53302.00004577637,Wed Jun 03 2026 17:26:03 GMT-0500 (Central Daylight Time),348330.3000000715,A,ke,I,e,163,3,566.2000000476837,347764.10000002384,8084,WL,A,4.0
3,6.947999954223633,learn,53052.00004577637,Wed Jun 03 2026 17:26:03 GMT-0500 (Central Daylight Time),348580.2000000477,A,key,I,y,235,3,816.1000000238419,347764.10000002384,8084,WL,A,4.0
3,7.430999994277954,learn,52569.000005722046,Wed Jun 03 2026 17:26:03 GMT-0500 (Central Daylight Time),349063.60000002384,A,keyenter,I,enter,472,3,1299.5,347764.10000002384,8084,WL,A,4.0
3,8.080999851226807,learn,51919.00014877319,Wed Jun 03 2026 17:26:03 GMT-0500 (Central Daylight Time),349713.2000000477,A,t,I,t,638,3,649.2999999523163,349063.90000009537,8084,WL,A,5.0
3,8.54699993133545,learn,51453.00006866455,Wed Jun 03 2026 17:26:03 GMT-0500 (Central Daylight Time),350179.60000002384,A,,I,backspace,459,3,1115.6999999284744,349063.90000009537,8084,WL,A,5.0
3,8.763000011444092,learn,51236.99998855591,Wed Jun 03 2026 17:26:03 GMT-0500 (Central Daylight Time),350396.0,A,b,I,b,208,3,1332.0999999046326,349063.90000009537,8084,WL,A,5.0
3,8.912999868392944,learn,51087.000131607056,Wed Jun 03 2026 17:26:03 GMT-0500 (Central Daylight Time),350545.90000009537,A,bo,I,o,129,3,1482.0,349063.90000009537,8084,WL,A,5.0
3,9.096999883651733,learn,50903.00011634827,Wed Jun 03 2026 17:26:03 GMT-0500 (Central Daylight Time),350729.2000000477,A,boo,I,o,162,3,1665.2999999523163,349063.90000009537,8084,WL,A,5.0
3,9.27999997138977,learn,50720.00002861023,Wed Jun 03 2026 17:26:03 GMT-0500 (Central Daylight Time),350912.60000002384,A,book,I,k,163,3,1848.6999999284744,349063.90000009537,8084,WL,A,5.0
3,9.513000011444092,learn,50486.99998855591,Wed Jun 03 2026 17:26:03 GMT-0500 (Central Daylight Time),351145.8000000715,A,bookenter,I,enter,220,3,2081.899999976158,349063.90000009537,8084,WL,A,5.0
3,9.829999923706055,learn,50170.000076293945,Wed Jun 03 2026 17:26:03 GMT-0500 (Central Daylight Time),351462.60000002384,A,f,I,f,308,3,316.39999997615814,351146.2000000477,8084,WL,A,6.0
3,9.980999946594238,learn,50019.00005340576,Wed Jun 03 2026 17:26:03 GMT-0500 (Central Daylight Time),351613.7000000477,A,fl,I,l,142,3,467.5,351146.2000000477,8084,WL,A,6.0
3,10.212999820709229,learn,49787.00017929077,Wed Jun 03 2026 17:26:03 GMT-0500 (Central Daylight Time),351845.8000000715,A,flo,I,o,215,3,699.6000000238419,351146.2000000477,8084,WL,A,6.0
3,10.346999883651733,learn,49653.00011634827,Wed Jun 03 2026 17:26:03 GMT-0500 (Central Daylight Time),351979.3000000715,A,flow,I,w,128,3,833.1000000238419,351146.2000000477,8084,WL,A,6.0
3,10.496999979019165,learn,49503.000020980835,Wed Jun 03 2026 17:26:03 GMT-0500 (Central Daylight Time),352129.10000002384,A,flowe,I,e,138,3,982.8999999761581,351146.2000000477,8084,WL,A,6.0
3,10.579999923706055,learn,49420.000076293945,Wed Jun 03 2026 17:26:03 GMT-0500 (Central Daylight Time),352212.40000009537,A,flower,I,r,68,3,1066.2000000476837,351146.2000000477,8084,WL,A,6.0
3,10.796000003814697,learn,49203.9999961853,Wed Jun 03 2026 17:26:03 GMT-0500 (Central Daylight Time),352429.0,A,flowerenter,I,enter,201,3,1282.7999999523163,351146.2000000477,8084,WL,A,6.0
3,11.678999900817871,learn,48321.00009918213,Wed Jun 03 2026 17:26:03 GMT-0500 (Central Daylight Time),353312.0,A,t,I,t,864,3,882.5999999046326,352429.40000009537,8084,WL,A,7.0
3,11.912999868392944,learn,48087.000131607056,Wed Jun 03 2026 17:26:03 GMT-0500 (Central Daylight Time),353545.5,A,tr,I,r,212,3,1116.0999999046326,352429.40000009537,8084,WL,A,7.0
3,12.128999948501587,learn,47871.00005149841,Wed Jun 03 2026 17:26:03 GMT-0500 (Central Daylight Time),353762.0,A,tra,I,a,196,3,1332.5999999046326,352429.40000009537,8084,WL,A,7.0
3,12.27999997138977,learn,47720.00002861023,Wed Jun 03 2026 17:26:03 GMT-0500 (Central Daylight Time),353912.10000002384,A,trai,I,i,131,3,1482.6999999284744,352429.40000009537,8084,WL,A,7.0
3,12.478999853134155,learn,47521.000146865845,Wed Jun 03 2026 17:26:03 GMT-0500 (Central Daylight Time),354111.60000002384,A,train,I,n,189,3,1682.1999999284744,352429.40000009537,8084,WL,A,7.0
3,12.728999853134155,learn,47271.000146865845,Wed Jun 03 2026 17:26:03 GMT-0500 (Central Daylight Time),354361.8000000715,A,trainenter,I,enter,230,3,1932.3999999761581,352429.40000009537,8084,WL,A,7.0
3,13.01199984550476,learn,46988.00015449524,Wed Jun 03 2026 17:26:03 GMT-0500 (Central Daylight Time),354644.8000000715,A,r,I,r,276,3,282.60000002384186,354362.2000000477,8084,WL,A,8.0
3,13.161999940872192,learn,46838.00005912781,Wed Jun 03 2026 17:26:03 GMT-0500 (Central Daylight Time),354794.8000000715,A,ru,I,u,137,3,432.60000002384186,354362.2000000477,8084,WL,A,8.0
3,13.411999940872192,learn,46588.00005912781,Wed Jun 03 2026 17:26:03 GMT-0500 (Central Daylight Time),355044.8000000715,A,rug,I,g,242,3,682.6000000238419,354362.2000000477,8084,WL,A,8.0
3,13.861999988555908,learn,46138.00001144409,Wed Jun 03 2026 17:26:03 GMT-0500 (Central Daylight Time),355494.7000000477,A,rugenter,I,enter,441,3,1132.5,354362.2000000477,8084,WL,A,8.0
3,14.994999885559082,learn,45005.00011444092,Wed Jun 03 2026 17:26:03 GMT-0500 (Central Daylight Time),356627.5,A,m,I,m,1127,3,1132.3999999761581,355495.10000002384,8084,WL,A,9.0
3,15.144999980926514,learn,44855.000019073486,Wed Jun 03 2026 17:26:03 GMT-0500 (Central Daylight Time),356777.8000000715,A,me,I,e,129,3,1282.7000000476837,355495.10000002384,8084,WL,A,9.0
3,15.311999797821045,learn,44688.000202178955,Wed Jun 03 2026 17:26:03 GMT-0500 (Central Daylight Time),356944.10000002384,A,mea,I,a,147,3,1449.0,355495.10000002384,8084,WL,A,9.0
3,15.67799997329712,learn,44322.00002670288,Wed Jun 03 2026 17:26:03 GMT-0500 (Central Daylight Time),357310.90000009537,A,mead,I,d,357,3,1815.8000000715256,355495.10000002384,8084,WL,A,9.0
3,15.861999988555908,learn,44138.00001144409,Wed Jun 03 2026 17:26:03 GMT-0500 (Central Daylight Time),357494.10000002384,A,meado,I,o,174,3,1999.0,355495.10000002384,8084,WL,A,9.0
3,16.044999837875366,learn,43955.000162124634,Wed Jun 03 2026 17:26:03 GMT-0500 (Central Daylight Time),357677.2000000477,A,meadow,I,w,175,3,2182.100000023842,355495.10000002384,8084,WL,A,9.0
3,16.227999925613403,learn,43772.0000743866,Wed Jun 03 2026 17:26:03 GMT-0500 (Central Daylight Time),357860.90000009537,A,meadowenter,I,enter,175,3,2365.8000000715256,355495.10000002384,8084,WL,A,9.0
3,16.578999996185303,learn,43421.0000038147,Wed Jun 03 2026 17:26:03 GMT-0500 (Central Daylight Time),358211.7000000477,A,h,I,h,328,3,350.5,357861.2000000477,8084,WL,A,10.0
3,16.777999877929688,learn,43222.00012207031,Wed Jun 03 2026 17:26:03 GMT-0500 (Central Daylight Time),358410.5,A,ha,I,a,186,3,549.2999999523163,357861.2000000477,8084,WL,A,10.0
3,16.877999782562256,learn,43122.000217437744,Wed Jun 03 2026 17:26:03 GMT-0500 (Central Daylight Time),358510.7000000477,A,har,I,r,91,3,649.5,357861.2000000477,8084,WL,A,10.0
3,17.17799997329712,learn,42822.00002670288,Wed Jun 03 2026 17:26:03 GMT-0500 (Central Daylight Time),358810.3000000715,A,harp,I,p,294,3,949.1000000238419,357861.2000000477,8084,WL,A,10.0
3,17.57799983024597,learn,42422.00016975403,Wed Jun 03 2026 17:26:03 GMT-0500 (Central Daylight Time),359210.2000000477,A,harpenter,I,enter,379,3,1349.0,357861.2000000477,8084,WL,A,10.0
3,19.49399995803833,learn,40506.00004196167,Wed Jun 03 2026 17:26:03 GMT-0500 (Central Daylight Time),361126.2000000477,A,r,I,r,1906,3,1915.6000000238419,359210.60000002384,8084,WL,A,11.0
3,19.676999807357788,learn,40323.00019264221,Wed Jun 03 2026 17:26:03 GMT-0500 (Central Daylight Time),361309.60000002384,A,ra,I,a,175,3,2099.0,359210.60000002384,8084,WL,A,11.0
3,19.8439998626709,learn,40156.0001373291,Wed Jun 03 2026 17:26:03 GMT-0500 (Central Daylight Time),361476.2000000477,A,rat,I,t,152,3,2265.600000023842,359210.60000002384,8084,WL,A,11.0
3,20.009999990463257,learn,39990.00000953674,Wed Jun 03 2026 17:26:03 GMT-0500 (Central Daylight Time),361642.7000000477,A,ratt,I,t,153,3,2432.100000023842,359210.60000002384,8084,WL,A,11.0
3,20.14299988746643,learn,39857.00011253357,Wed Jun 03 2026 17:26:03 GMT-0500 (Central Daylight Time),361776.0,A,rattl,I,l,122,3,2565.399999976158,359210.60000002384,8084,WL,A,11.0
3,20.259999990463257,learn,39740.00000953674,Wed Jun 03 2026 17:26:03 GMT-0500 (Central Daylight Time),361892.8000000715,A,rattle,I,e,109,3,2682.2000000476837,359210.60000002384,8084,WL,A,11.0
3,20.426999807357788,learn,39573.00019264221,Wed Jun 03 2026 17:26:03 GMT-0500 (Central Daylight Time),362059.60000002384,A,rattley,I,y,153,3,2849.0,359210.60000002384,8084,WL,A,11.0
3,20.759999990463257,learn,39240.00000953674,Wed Jun 03 2026 17:26:03 GMT-0500 (Central Daylight Time),362392.40000009537,A,rattleyenter,I,enter,314,3,3181.8000000715256,359210.60000002384,8084,WL,A,11.0
3,25.057999849319458,learn,34942.00015068054,Wed Jun 03 2026 17:26:03 GMT-0500 (Central Daylight Time),366691.10000002384,A,k,I,k,4283,3,4298.199999928474,362392.90000009537,8084,WL,A,12.0
3,25.20799994468689,learn,34792.00005531311,Wed Jun 03 2026 17:26:03 GMT-0500 (Central Daylight Time),366841.10000002384,A,ke,I,e,129,3,4448.199999928474,362392.90000009537,8084,WL,A,12.0
3,25.358999967575073,learn,34641.00003242493,Wed Jun 03 2026 17:26:03 GMT-0500 (Central Daylight Time),366991.60000002384,A,key,I,y,131,3,4598.699999928474,362392.90000009537,8084,WL,A,12.0
3,25.674999952316284,learn,34325.000047683716,Wed Jun 03 2026 17:26:03 GMT-0500 (Central Daylight Time),367307.60000002384,A,keyenter,I,enter,310,3,4914.699999928474,362392.90000009537,8084,WL,A,12.0
3,31.9229998588562,learn,28077.0001411438,Wed Jun 03 2026 17:26:03 GMT-0500 (Central Daylight Time),373555.8000000715,A,enter,I,enter,6233,3,6248.0,367307.8000000715,8084,WL,A,13.0
3,32.53999996185303,learn,27460.000038146973,Wed Jun 03 2026 17:26:03 GMT-0500 (Central Daylight Time),374172.40000009537,A,enter,I,enter,602,3,616.2000000476837,373556.2000000477,8084,WL,A,14.0
3,32.98899984359741,learn,27011.000156402588,Wed Jun 03 2026 17:26:03 GMT-0500 (Central Daylight Time),374622.2000000477,A,enter,I,enter,432,3,449.39999997615814,374172.8000000715,8084,WL,A,15.0
4,2.132999897003174,learn,57867.000102996826,Wed Jun 03 2026 17:26:03 GMT-0500 (Central Daylight Time),442450.90000009537,A,b,I,b,2119,3,2132.5,440318.40000009537,8084,WL,A,1.0
4,2.299999952316284,learn,57700.000047683716,Wed Jun 03 2026 17:26:03 GMT-0500 (Central Daylight Time),442617.40000009537,A,bo,I,o,145,3,2299.0,440318.40000009537,8084,WL,A,1.0
4,2.450000047683716,learn,57549.999952316284,Wed Jun 03 2026 17:26:03 GMT-0500 (Central Daylight Time),442767.60000002384,A,boo,I,o,140,3,2449.1999999284744,440318.40000009537,8084,WL,A,1.0
4,2.615999937057495,learn,57384.000062942505,Wed Jun 03 2026 17:26:03 GMT-0500 (Central Daylight Time),442934.2000000477,A,book,I,k,149,3,2615.7999999523163,440318.40000009537,8084,WL,A,1.0
4,2.882999897003174,learn,57117.000102996826,Wed Jun 03 2026 17:26:03 GMT-0500 (Central Daylight Time),443200.5,A,bookenter,I,enter,246,3,2882.0999999046326,440318.40000009537,8084,WL,A,1.0
4,3.312000036239624,learn,56687.999963760376,Wed Jun 03 2026 17:26:03 GMT-0500 (Central Daylight Time),443629.90000009537,A,f,I,f,372,3,428.90000009536743,443201.0,8084,WL,A,2.0
4,3.381999969482422,learn,56618.00003051758,Wed Jun 03 2026 17:26:03 GMT-0500 (Central Daylight Time),443700.3000000715,A,fl,I,l,54,3,499.3000000715256,443201.0,8084,WL,A,2.0
4,3.5989999771118164,learn,56401.00002288818,Wed Jun 03 2026 17:26:03 GMT-0500 (Central Daylight Time),443917.0,A,flo,I,o,209,3,716.0,443201.0,8084,WL,A,2.0
4,3.7660000324249268,learn,56233.99996757507,Wed Jun 03 2026 17:26:03 GMT-0500 (Central Daylight Time),444083.60000002384,A,flow,I,w,152,3,882.6000000238419,443201.0,8084,WL,A,2.0
4,3.881999969482422,learn,56118.00003051758,Wed Jun 03 2026 17:26:03 GMT-0500 (Central Daylight Time),444200.3000000715,A,flowe,I,e,105,3,999.3000000715256,443201.0,8084,WL,A,2.0
4,3.9830000400543213,learn,56016.99995994568,Wed Jun 03 2026 17:26:03 GMT-0500 (Central Daylight Time),444300.60000002384,A,flower,I,r,85,3,1099.6000000238419,443201.0,8084,WL,A,2.0
4,4.115999937057495,learn,55884.000062942505,Wed Jun 03 2026 17:26:03 GMT-0500 (Central Daylight Time),444433.5,A,flowerenter,I,enter,121,3,1232.5,443201.0,8084,WL,A,2.0
4,10.079999923706055,learn,49920.000076293945,Wed Jun 03 2026 17:26:03 GMT-0500 (Central Daylight Time),450398.3000000715,A,t,I,t,5956,3,5964.399999976158,444433.90000009537,8084,WL,A,3.0
4,10.280999898910522,learn,49719.00010108948,Wed Jun 03 2026 17:26:03 GMT-0500 (Central Daylight Time),450598.3000000715,A,tr,I,r,182,3,6164.399999976158,444433.90000009537,8084,WL,A,3.0
4,10.44700002670288,learn,49552.99997329712,Wed Jun 03 2026 17:26:03 GMT-0500 (Central Daylight Time),450764.8000000715,A,tra,I,a,151,3,6330.899999976158,444433.90000009537,8084,WL,A,3.0
4,10.579999923706055,learn,49420.000076293945,Wed Jun 03 2026 17:26:03 GMT-0500 (Central Daylight Time),450898.2000000477,A,trai,I,i,120,3,6464.299999952316,444433.90000009537,8084,WL,A,3.0
4,10.69700002670288,learn,49302.99997329712,Wed Jun 03 2026 17:26:03 GMT-0500 (Central Daylight Time),451014.90000009537,A,train,I,n,107,3,6581.0,444433.90000009537,8084,WL,A,3.0
4,10.94700002670288,learn,49052.99997329712,Wed Jun 03 2026 17:26:03 GMT-0500 (Central Daylight Time),451264.60000002384,A,trainenter,I,enter,230,3,6830.699999928474,444433.90000009537,8084,WL,A,3.0
4,11.480000019073486,learn,48519.999980926514,Wed Jun 03 2026 17:26:03 GMT-0500 (Central Daylight Time),451797.8000000715,A,r,I,r,525,3,532.8999999761581,451264.90000009537,8084,WL,A,4.0
4,11.629999876022339,learn,48370.00012397766,Wed Jun 03 2026 17:26:03 GMT-0500 (Central Daylight Time),451947.7000000477,A,ru,I,u,136,3,682.7999999523163,451264.90000009537,8084,WL,A,4.0
4,11.829999923706055,learn,48170.000076293945,Wed Jun 03 2026 17:26:03 GMT-0500 (Central Daylight Time),452147.7000000477,A,rug,I,g,185,3,882.7999999523163,451264.90000009537,8084,WL,A,4.0
4,12.19599986076355,learn,47804.00013923645,Wed Jun 03 2026 17:26:03 GMT-0500 (Central Daylight Time),452514.10000002384,A,rugenter,I,enter,361,3,1249.1999999284744,451264.90000009537,8084,WL,A,4.0
4,13.02999997138977,learn,46970.00002861023,Wed Jun 03 2026 17:26:03 GMT-0500 (Central Daylight Time),453347.40000009537,A,m,I,m,819,3,833.0,452514.40000009537,8084,WL,A,5.0
4,13.162999868392944,learn,46837.000131607056,Wed Jun 03 2026 17:26:03 GMT-0500 (Central Daylight Time),453481.3000000715,A,me,I,e,121,3,966.8999999761581,452514.40000009537,8084,WL,A,5.0
4,13.395999908447266,learn,46604.000091552734,Wed Jun 03 2026 17:26:03 GMT-0500 (Central Daylight Time),453713.7000000477,A,mea,I,a,220,3,1199.2999999523163,452514.40000009537,8084,WL,A,5.0
4,13.728999853134155,learn,46271.000146865845,Wed Jun 03 2026 17:26:03 GMT-0500 (Central Daylight Time),454047.10000002384,A,mead,I,d,316,3,1532.6999999284744,452514.40000009537,8084,WL,A,5.0
4,13.928999900817871,learn,46071.00009918213,Wed Jun 03 2026 17:26:03 GMT-0500 (Central Daylight Time),454247.3000000715,A,meado,I,o,190,3,1732.8999999761581,452514.40000009537,8084,WL,A,5.0
4,14.095999956130981,learn,45904.00004386902,Wed Jun 03 2026 17:26:03 GMT-0500 (Central Daylight Time),454413.90000009537,A,meadow,I,w,150,3,1899.5,452514.40000009537,8084,WL,A,5.0
4,14.26199984550476,learn,45738.00015449524,Wed Jun 03 2026 17:26:03 GMT-0500 (Central Daylight Time),454580.3000000715,A,meadowenter,I,enter,151,3,2065.899999976158,452514.40000009537,8084,WL,A,5.0
4,14.678999900817871,learn,45321.00009918213,Wed Jun 03 2026 17:26:03 GMT-0500 (Central Daylight Time),454997.0,A,h,I,h,409,3,416.09999990463257,454580.90000009537,8084,WL,A,6.0
4,14.878999948501587,learn,45121.00005149841,Wed Jun 03 2026 17:26:03 GMT-0500 (Central Daylight Time),455196.8000000715,A,ha,I,a,184,3,615.8999999761581,454580.90000009537,8084,WL,A,6.0
4,14.978999853134155,learn,45021.000146865845,Wed Jun 03 2026 17:26:03 GMT-0500 (Central Daylight Time),455297.2000000477,A,har,I,r,89,3,716.2999999523163,454580.90000009537,8084,WL,A,6.0
4,15.428999900817871,learn,44571.00009918213,Wed Jun 03 2026 17:26:03 GMT-0500 (Central Daylight Time),455746.5,A,harp,I,p,429,3,1165.5999999046326,454580.90000009537,8084,WL,A,6.0
4,15.82800006866455,learn,44171.99993133545,Wed Jun 03 2026 17:26:03 GMT-0500 (Central Daylight Time),456146.3000000715,A,harpenter,I,enter,395,3,1565.3999999761581,454580.90000009537,8084,WL,A,6.0
4,16.977999925613403,learn,43022.0000743866,Wed Jun 03 2026 17:26:03 GMT-0500 (Central Daylight Time),457296.0,A,s,I,s,1139,3,1149.5,456146.5,8084,WL,A,7.0
4,17.477999925613403,learn,42522.0000743866,Wed Jun 03 2026 17:26:03 GMT-0500 (Central Daylight Time),457795.8000000715,A,sa,I,a,493,3,1649.3000000715256,456146.5,8084,WL,A,7.0
4,17.710999965667725,learn,42289.000034332275,Wed Jun 03 2026 17:26:03 GMT-0500 (Central Daylight Time),458029.3000000715,A,sal,I,l,226,3,1882.8000000715256,456146.5,8084,WL,A,7.0
4,18.060999870300293,learn,41939.00012969971,Wed Jun 03 2026 17:26:03 GMT-0500 (Central Daylight Time),458379.2000000477,A,salenter,I,enter,336,3,2232.7000000476837,456146.5,8084,WL,A,7.0
4,19.0939998626709,learn,40906.0001373291,Wed Jun 03 2026 17:26:03 GMT-0500 (Central Daylight Time),459412.2000000477,A,f,I,f,1018,3,1032.7999999523163,458379.40000009537,8084,WL,A,8.0
4,19.210999965667725,learn,40789.000034332275,Wed Jun 03 2026 17:26:03 GMT-0500 (Central Daylight Time),459528.8000000715,A,fi,I,i,97,3,1149.3999999761581,458379.40000009537,8084,WL,A,8.0
4,19.378000020980835,learn,40621.999979019165,Wed Jun 03 2026 17:26:03 GMT-0500 (Central Daylight Time),459695.5,A,fin,I,n,149,3,1316.0999999046326,458379.40000009537,8084,WL,A,8.0
4,19.64400005340576,learn,40355.99994659424,Wed Jun 03 2026 17:26:03 GMT-0500 (Central Daylight Time),459961.7000000477,A,fing,I,g,252,3,1582.2999999523163,458379.40000009537,8084,WL,A,8.0
4,19.876999855041504,learn,40123.000144958496,Wed Jun 03 2026 17:26:03 GMT-0500 (Central Daylight Time),460195.0,A,finge,I,e,227,3,1815.5999999046326,458379.40000009537,8084,WL,A,8.0
4,19.97699999809265,learn,40023.00000190735,Wed Jun 03 2026 17:26:03 GMT-0500 (Central Daylight Time),460295.3000000715,A,finger,I,r,82,3,1915.8999999761581,458379.40000009537,8084,WL,A,8.0
4,20.99399995803833,learn,39006.00004196167,Wed Jun 03 2026 17:26:03 GMT-0500 (Central Daylight Time),461311.7000000477,A,fingerenter,I,enter,998,3,2932.2999999523163,458379.40000009537,8084,WL,A,8.0
4,21.960000038146973,learn,38039.99996185303,Wed Jun 03 2026 17:26:03 GMT-0500 (Central Daylight Time),462278.10000002384,A,c,I,c,950,3,966.1000000238419,461312.0,8084,WL,A,9.0
4,22.05999994277954,learn,37940.00005722046,Wed Jun 03 2026 17:26:03 GMT-0500 (Central Daylight Time),462378.0,A,ch,I,h,95,3,1066.0,461312.0,8084,WL,A,9.0
4,22.30999994277954,learn,37690.00005722046,Wed Jun 03 2026 17:26:03 GMT-0500 (Central Daylight Time),462627.8000000715,A,chi,I,i,243,3,1315.8000000715256,461312.0,8084,WL,A,9.0
4,22.509999990463257,learn,37490.00000953674,Wed Jun 03 2026 17:26:03 GMT-0500 (Central Daylight Time),462827.8000000715,A,chim,I,m,193,3,1515.8000000715256,461312.0,8084,WL,A,9.0
4,23.14299988746643,learn,36857.00011253357,Wed Jun 03 2026 17:26:03 GMT-0500 (Central Daylight Time),463460.8000000715,A,chimn,I,n,626,3,2148.8000000715256,461312.0,8084,WL,A,9.0
4,23.30900001525879,learn,36690.99998474121,Wed Jun 03 2026 17:26:03 GMT-0500 (Central Daylight Time),463627.3000000715,A,chimne,I,e,160,3,2315.3000000715256,461312.0,8084,WL,A,9.0
4,23.47699999809265,learn,36523.00000190735,Wed Jun 03 2026 17:26:03 GMT-0500 (Central Daylight Time),463795.3000000715,A,chimney,I,y,154,3,2483.3000000715256,461312.0,8084,WL,A,9.0
4,23.759999990463257,learn,36240.00000953674,Wed Jun 03 2026 17:26:03 GMT-0500 (Central Daylight Time),464077.60000002384,A,chimneyenter,I,enter,274,3,2765.600000023842,461312.0,8084,WL,A,9.0
4,24.092999935150146,learn,35907.00006484985,Wed Jun 03 2026 17:26:03 GMT-0500 (Central Daylight Time),464410.60000002384,A,b,I,b,320,3,332.6999999284744,464077.90000009537,8084,WL,A,10.0
4,24.20899987220764,learn,35791.00012779236,Wed Jun 03 2026 17:26:03 GMT-0500 (Central Daylight Time),464527.40000009537,A,bu,I,u,107,3,449.5,464077.90000009537,8084,WL,A,10.0
4,24.47599983215332,learn,35524.00016784668,Wed Jun 03 2026 17:26:03 GMT-0500 (Central Daylight Time),464793.7000000477,A,but,I,t,254,3,715.7999999523163,464077.90000009537,8084,WL,A,10.0
4,24.692999839782715,learn,35307.000160217285,Wed Jun 03 2026 17:26:03 GMT-0500 (Central Daylight Time),465010.5,A,butt,I,t,204,3,932.5999999046326,464077.90000009537,8084,WL,A,10.0
4,24.80900001525879,learn,35190.99998474121,Wed Jun 03 2026 17:26:03 GMT-0500 (Central Daylight Time),465127.0,A,butto,I,o,107,3,1049.0999999046326,464077.90000009537,8084,WL,A,10.0
4,24.95899987220764,learn,35041.00012779236,Wed Jun 03 2026 17:26:03 GMT-0500 (Central Daylight Time),465276.8000000715,A,button,I,n,142,3,1198.8999999761581,464077.90000009537,8084,WL,A,10.0
4,25.259000062942505,learn,34740.999937057495,Wed Jun 03 2026 17:26:03 GMT-0500 (Central Daylight Time),465577.0,A,buttonenter,I,enter,280,3,1499.0999999046326,464077.90000009537,8084,WL,A,10.0
4,25.608999967575073,learn,34391.00003242493,Wed Jun 03 2026 17:26:03 GMT-0500 (Central Daylight Time),465926.7000000477,A,g,I,g,340,3,349.2999999523163,465577.40000009537,8084,WL,A,11.0
4,25.72599983215332,learn,34274.00016784668,Wed Jun 03 2026 17:26:03 GMT-0500 (Central Daylight Time),466043.40000009537,A,go,I,o,111,3,466.0,465577.40000009537,8084,WL,A,11.0
4,26.026000022888184,learn,33973.99997711182,Wed Jun 03 2026 17:26:03 GMT-0500 (Central Daylight Time),466343.5,A,gol,I,l,282,3,766.0999999046326,465577.40000009537,8084,WL,A,11.0
4,26.29200005531311,learn,33707.99994468689,Wed Jun 03 2026 17:26:03 GMT-0500 (Central Daylight Time),466610.2000000477,A,gold,I,d,244,3,1032.7999999523163,465577.40000009537,8084,WL,A,11.0
4,26.55900001525879,learn,33440.99998474121,Wed Jun 03 2026 17:26:03 GMT-0500 (Central Daylight Time),466876.60000002384,A,goldenter,I,enter,251,3,1299.1999999284744,465577.40000009537,8084,WL,A,11.0
4,28.507999897003174,learn,31492.000102996826,Wed Jun 03 2026 17:26:03 GMT-0500 (Central Daylight Time),468825.7000000477,A,l,I,l,1936,3,1948.8999999761581,466876.8000000715,8084,WL,A,12.0
4,28.741999864578247,learn,31258.000135421753,Wed Jun 03 2026 17:26:03 GMT-0500 (Central Daylight Time),469059.40000009537,A,lo,I,o,211,3,2182.600000023842,466876.8000000715,8084,WL,A,12.0
4,28.891000032424927,learn,31108.999967575073,Wed Jun 03 2026 17:26:03 GMT-0500 (Central Daylight Time),469209.40000009537,A,log,I,g,138,3,2332.600000023842,466876.8000000715,8084,WL,A,12.0
4,29.090999841690063,learn,30909.000158309937,Wed Jun 03 2026 17:26:03 GMT-0500 (Central Daylight Time),469409.2000000477,A,logenter,I,enter,188,3,2532.399999976158,466876.8000000715,8084,WL,A,12.0
4,29.973999977111816,learn,30026.000022888184,Wed Jun 03 2026 17:26:03 GMT-0500 (Central Daylight Time),470292.10000002384,A,r,I,r,876,3,882.6000000238419,469409.5,8084,WL,A,13.0
4,30.141000032424927,learn,29858.999967575073,Wed Jun 03 2026 17:26:03 GMT-0500 (Central Daylight Time),470459.0,A,ra,I,a,153,3,1049.5,469409.5,8084,WL,A,13.0
4,30.307999849319458,learn,29692.000150680542,Wed Jun 03 2026 17:26:03 GMT-0500 (Central Daylight Time),470625.60000002384,A,rat,I,t,155,3,1216.1000000238419,469409.5,8084,WL,A,13.0
4,30.507999897003174,learn,29492.000102996826,Wed Jun 03 2026 17:26:03 GMT-0500 (Central Daylight Time),470825.40000009537,A,ratt,I,t,180,3,1415.9000000953674,469409.5,8084,WL,A,13.0
4,30.657999992370605,learn,29342.000007629395,Wed Jun 03 2026 17:26:03 GMT-0500 (Central Daylight Time),470975.40000009537,A,rattl,I,l,140,3,1565.9000000953674,469409.5,8084,WL,A,13.0
4,30.806999921798706,learn,29193.000078201294,Wed Jun 03 2026 17:26:03 GMT-0500 (Central Daylight Time),471125.40000009537,A,rattle,I,e,134,3,1715.9000000953674,469409.5,8084,WL,A,13.0
4,31.090999841690063,learn,28909.000158309937,Wed Jun 03 2026 17:26:03 GMT-0500 (Central Daylight Time),471408.7000000477,A,rattleenter,I,enter,272,3,1999.2000000476837,469409.5,8084,WL,A,13.0
4,37.63800001144409,learn,22361.99998855591,Wed Jun 03 2026 17:26:03 GMT-0500 (Central Daylight Time),477956.40000009537,A,s,I,s,6541,3,6547.5,471408.90000009537,8084,WL,A,14.0
4,37.787999868392944,learn,22212.000131607056,Wed Jun 03 2026 17:26:03 GMT-0500 (Central Daylight Time),478106.3000000715,A,sa,I,a,128,3,6697.399999976158,471408.90000009537,8084,WL,A,14.0
4,37.90499997138977,learn,22095.00002861023,Wed Jun 03 2026 17:26:03 GMT-0500 (Central Daylight Time),478223.10000002384,A,sal,I,l,107,3,6814.199999928474,471408.90000009537,8084,WL,A,14.0
4,38.355000019073486,learn,21644.999980926514,Wed Jun 03 2026 17:26:03 GMT-0500 (Central Daylight Time),478672.8000000715,A,salt,I,t,429,3,7263.899999976158,471408.90000009537,8084,WL,A,14.0
4,38.537999868392944,learn,21462.000131607056,Wed Jun 03 2026 17:26:03 GMT-0500 (Central Daylight Time),478856.0,A,saltenter,I,enter,172,3,7447.099999904633,471408.90000009537,8084,WL,A,14.0
4,45.63599991798401,learn,14364.000082015991,Wed Jun 03 2026 17:26:03 GMT-0500 (Central Daylight Time),485954.0,A,enter,I,enter,7086,3,7097.799999952316,478856.2000000477,8084,WL,A,15.0
5,1.2829999923706055,learn,60000.0,Wed Jun 03 2026 17:26:03 GMT-0500 (Central Daylight Time),552550.0,A,a,I,a,1275,3,1283.0,551267.0,8084,WL,A,1.0
5,1.4820001125335693,learn,60000.0,Wed Jun 03 2026 17:26:03 GMT-0500 (Central Daylight Time),552749.6000000238,A,ap,I,p,182,3,1482.6000000238419,551267.0,8084,WL,A,1.0
5,1.6319999694824219,learn,60000.0,Wed Jun 03 2026 17:26:03 GMT-0500 (Central Daylight Time),552899.6000000238,A,app,I,p,136,3,1632.6000000238419,551267.0,8084,WL,A,1.0
5,1.815000057220459,learn,60000.0,Wed Jun 03 2026 17:26:03 GMT-0500 (Central Daylight Time),553082.6000000238,A,appl,I,l,178,3,1815.6000000238419,551267.0,8084,WL,A,1.0
5,1.999000072479248,learn,60000.0,Wed Jun 03 2026 17:26:03 GMT-0500 (Central Daylight Time),553265.9000000954,A,apple,I,e,179,3,1998.9000000953674,551267.0,8084,WL,A,1.0
5,2.749000072479248,learn,60000.0,Wed Jun 03 2026 17:26:03 GMT-0500 (Central Daylight Time),554015.9000000954,A,appleenter,I,enter,732,3,2748.9000000953674,551267.0,8084,WL,A,1.0
5,3.2150001525878906,learn,60000.0,Wed Jun 03 2026 17:26:03 GMT-0500 (Central Daylight Time),554482.6000000238,A,b,I,b,445,3,466.39999997615814,554016.2000000477,8084,WL,A,2.0
5,3.365000009536743,learn,60000.0,Wed Jun 03 2026 17:26:03 GMT-0500 (Central Daylight Time),554632.7000000477,A,bo,I,o,131,3,616.5,554016.2000000477,8084,WL,A,2.0
5,3.5320000648498535,learn,60000.0,Wed Jun 03 2026 17:26:03 GMT-0500 (Central Daylight Time),554799.0,A,boo,I,o,148,3,782.7999999523163,554016.2000000477,8084,WL,A,2.0
5,3.7320001125335693,learn,60000.0,Wed Jun 03 2026 17:26:03 GMT-0500 (Central Daylight Time),554998.7000000477,A,book,I,k,182,3,982.5,554016.2000000477,8084,WL,A,2.0
5,4.29800009727478,learn,60000.0,Wed Jun 03 2026 17:26:03 GMT-0500 (Central Daylight Time),555565.4000000954,A,bookenter,I,enter,551,3,1549.2000000476837,554016.2000000477,8084,WL,A,2.0
5,4.981000185012817,learn,60000.0,Wed Jun 03 2026 17:26:03 GMT-0500 (Central Daylight Time),556248.6000000238,A,f,I,f,664,3,682.7999999523163,555565.8000000715,8084,WL,A,3.0
5,5.065000057220459,learn,60000.0,Wed Jun 03 2026 17:26:03 GMT-0500 (Central Daylight Time),556331.8000000715,A,fl,I,l,76,3,766.0,555565.8000000715,8084,WL,A,3.0
5,5.29800009727478,learn,60000.0,Wed Jun 03 2026 17:26:03 GMT-0500 (Central Daylight Time),556565.2000000477,A,flo,I,o,225,3,999.3999999761581,555565.8000000715,8084,WL,A,3.0
5,5.481000185012817,learn,60000.0,Wed Jun 03 2026 17:26:03 GMT-0500 (Central Daylight Time),556748.3000000715,A,flow,I,w,175,3,1182.5,555565.8000000715,8084,WL,A,3.0
5,5.63100004196167,learn,60000.0,Wed Jun 03 2026 17:26:03 GMT-0500 (Central Daylight Time),556898.6000000238,A,flowe,I,e,137,3,1332.7999999523163,555565.8000000715,8084,WL,A,3.0
5,5.731000185012817,learn,60000.0,Wed Jun 03 2026 17:26:03 GMT-0500 (Central Daylight Time),556998.3000000715,A,flower,I,r,83,3,1432.5,555565.8000000715,8084,WL,A,3.0
5,5.930999994277954,learn,60000.0,Wed Jun 03 2026 17:26:03 GMT-0500 (Central Daylight Time),557198.4000000954,A,flowerenter,I,enter,191,3,1632.6000000238419,555565.8000000715,8084,WL,A,3.0
5,6.797000169754028,learn,60000.0,Wed Jun 03 2026 17:26:03 GMT-0500 (Central Daylight Time),558064.5,A,m,I,m,855,3,865.7999999523163,557198.7000000477,8084,WL,A,4.0
5,6.981000185012817,learn,60000.0,Wed Jun 03 2026 17:26:03 GMT-0500 (Central Daylight Time),558248.2000000477,A,me,I,e,165,3,1049.5,557198.7000000477,8084,WL,A,4.0
5,7.0980000495910645,learn,60000.0,Wed Jun 03 2026 17:26:03 GMT-0500 (Central Daylight Time),558364.7000000477,A,mea,I,a,109,3,1166.0,557198.7000000477,8084,WL,A,4.0
5,7.496999979019165,learn,60000.0,Wed Jun 03 2026 17:26:03 GMT-0500 (Central Daylight Time),558764.5,A,mead,I,d,393,3,1565.7999999523163,557198.7000000477,8084,WL,A,4.0
5,7.680999994277954,learn,60000.0,Wed Jun 03 2026 17:26:03 GMT-0500 (Central Daylight Time),558947.8000000715,A,meado,I,o,177,3,1749.1000000238419,557198.7000000477,8084,WL,A,4.0
5,8.314000129699707,learn,60000.0,Wed Jun 03 2026 17:26:03 GMT-0500 (Central Daylight Time),559580.8000000715,A,meadow,I,w,626,3,2382.100000023842,557198.7000000477,8084,WL,A,4.0
5,8.564000129699707,learn,60000.0,Wed Jun 03 2026 17:26:03 GMT-0500 (Central Daylight Time),559830.7000000477,A,meadowenter,I,enter,240,3,2632.0,557198.7000000477,8084,WL,A,4.0
5,9.02999997138977,learn,60000.0,Wed Jun 03 2026 17:26:03 GMT-0500 (Central Daylight Time),560297.1000000238,A,t,I,t,446,3,466.0,559831.1000000238,8084,WL,A,5.0
5,9.297000169754028,learn,60000.0,Wed Jun 03 2026 17:26:03 GMT-0500 (Central Daylight Time),560563.7000000477,A,tr,I,r,259,3,732.6000000238419,559831.1000000238,8084,WL,A,5.0
5,9.595999956130981,learn,60000.0,Wed Jun 03 2026 17:26:03 GMT-0500 (Central Daylight Time),560863.7000000477,A,tra,I,a,289,3,1032.6000000238419,559831.1000000238,8084,WL,A,5.0
5,9.831000089645386,learn,60000.0,Wed Jun 03 2026 17:26:03 GMT-0500 (Central Daylight Time),561097.8000000715,A,trai,I,i,229,3,1266.7000000476837,559831.1000000238,8084,WL,A,5.0
5,10.111000061035156,learn,60000.0,Wed Jun 03 2026 17:26:03 GMT-0500 (Central Daylight Time),561378.0,A,train,I,n,276,3,1546.8999999761581,559831.1000000238,8084,WL,A,5.0
5,10.27999997138977,learn,60000.0,Wed Jun 03 2026 17:26:03 GMT-0500 (Central Daylight Time),561546.9000000954,A,trainenter,I,enter,155,3,1715.8000000715256,559831.1000000238,8084,WL,A,5.0
5,10.61300015449524,learn,60000.0,Wed Jun 03 2026 17:26:03 GMT-0500 (Central Daylight Time),561880.0,A,h,I,h,314,3,332.89999997615814,561547.1000000238,8084,WL,A,6.0
5,10.763000011444092,learn,60000.0,Wed Jun 03 2026 17:26:03 GMT-0500 (Central Daylight Time),562030.0,A,ha,I,a,142,3,482.89999997615814,561547.1000000238,8084,WL,A,6.0
5,10.879000186920166,learn,60000.0,Wed Jun 03 2026 17:26:03 GMT-0500 (Central Daylight Time),562146.6000000238,A,har,I,r,95,3,599.5,561547.1000000238,8084,WL,A,6.0
5,11.330000162124634,learn,60000.0,Wed Jun 03 2026 17:26:03 GMT-0500 (Central Daylight Time),562596.8000000715,A,harp,I,p,435,3,1049.7000000476837,561547.1000000238,8084,WL,A,6.0
5,11.729000091552734,learn,60000.0,Wed Jun 03 2026 17:26:03 GMT-0500 (Central Daylight Time),562996.4000000954,A,harpenter,I,enter,393,3,1449.3000000715256,561547.1000000238,8084,WL,A,6.0
5,13.995000123977661,learn,60000.0,Wed Jun 03 2026 17:26:03 GMT-0500 (Central Daylight Time),565262.1000000238,A,g,I,g,2249,3,2265.399999976158,562996.7000000477,8084,WL,A,7.0
5,14.144999980926514,learn,60000.0,Wed Jun 03 2026 17:26:03 GMT-0500 (Central Daylight Time),565412.3000000715,A,go,I,o,135,3,2415.600000023842,562996.7000000477,8084,WL,A,7.0
5,14.34500002861023,learn,60000.0,Wed Jun 03 2026 17:26:03 GMT-0500 (Central Daylight Time),565612.1000000238,A,gol,I,l,193,3,2615.399999976158,562996.7000000477,8084,WL,A,7.0
5,14.545000076293945,learn,60000.0,Wed Jun 03 2026 17:26:03 GMT-0500 (Central Daylight Time),565812.1000000238,A,gold,I,d,193,3,2815.399999976158,562996.7000000477,8084,WL,A,7.0
5,14.745000123977661,learn,60000.0,Wed Jun 03 2026 17:26:03 GMT-0500 (Central Daylight Time),566012.2000000477,A,goldenter,I,enter,193,3,3015.5,562996.7000000477,8084,WL,A,7.0
5,15.946000099182129,learn,60000.0,Wed Jun 03 2026 17:26:03 GMT-0500 (Central Daylight Time),567212.8000000715,A,l,I,l,1193,3,1200.3000000715256,566012.5,8084,WL,A,8.0
5,16.17799997329712,learn,60000.0,Wed Jun 03 2026 17:26:03 GMT-0500 (Central Daylight Time),567444.9000000954,A,lo,I,o,224,3,1432.4000000953674,566012.5,8084,WL,A,8.0
5,16.311000108718872,learn,60000.0,Wed Jun 03 2026 17:26:03 GMT-0500 (Central Daylight Time),567578.5,A,log,I,g,120,3,1566.0,566012.5,8084,WL,A,8.0
5,16.544000148773193,learn,60000.0,Wed Jun 03 2026 17:26:03 GMT-0500 (Central Daylight Time),567811.7000000477,A,logenter,I,enter,227,3,1799.2000000476837,566012.5,8084,WL,A,8.0
5,17.89400005340576,learn,60000.0,Wed Jun 03 2026 17:26:03 GMT-0500 (Central Daylight Time),569161.3000000715,A,c,I,c,1329,3,1349.3000000715256,567812.0,8084,WL,A,9.0
5,18.011000156402588,learn,60000.0,Wed Jun 03 2026 17:26:03 GMT-0500 (Central Daylight Time),569277.9000000954,A,ch,I,h,109,3,1465.9000000953674,567812.0,8084,WL,A,9.0
5,18.210999965667725,learn,60000.0,Wed Jun 03 2026 17:26:03 GMT-0500 (Central Daylight Time),569477.8000000715,A,chi,I,i,191,3,1665.8000000715256,567812.0,8084,WL,A,9.0
5,18.49399995803833,learn,60000.0,Wed Jun 03 2026 17:26:03 GMT-0500 (Central Daylight Time),569761.0,A,chim,I,m,262,3,1949.0,567812.0,8084,WL,A,9.0
5,19.094000101089478,learn,60000.0,Wed Jun 03 2026 17:26:03 GMT-0500 (Central Daylight Time),570360.8000000715,A,chimn,I,n,580,3,2548.8000000715256,567812.0,8084,WL,A,9.0
5,19.292999982833862,learn,60000.0,Wed Jun 03 2026 17:26:03 GMT-0500 (Central Daylight Time),570560.7000000477,A,chimne,I,e,180,3,2748.7000000476837,567812.0,8084,WL,A,9.0
5,19.47699999809265,learn,60000.0,Wed Jun 03 2026 17:26:03 GMT-0500 (Central Daylight Time),570743.8000000715,A,chimney,I,y,173,3,2931.8000000715256,567812.0,8084,WL,A,9.0
5,19.72699999809265,learn,60000.0,Wed Jun 03 2026 17:26:03 GMT-0500 (Central Daylight Time),570993.9000000954,A,chimneyenter,I,enter,245,3,3181.9000000953674,567812.0,8084,WL,A,9.0
5,20.0770001411438,learn,60000.0,Wed Jun 03 2026 17:26:03 GMT-0500 (Central Daylight Time),571344.1000000238,A,b,I,b,331,3,350.10000002384186,570994.0,8084,WL,A,10.0
5,20.210000038146973,learn,60000.0,Wed Jun 03 2026 17:26:03 GMT-0500 (Central Daylight Time),571477.1000000238,A,bu,I,u,125,3,483.10000002384186,570994.0,8084,WL,A,10.0
5,20.443000078201294,learn,60000.0,Wed Jun 03 2026 17:26:03 GMT-0500 (Central Daylight Time),571710.3000000715,A,but,I,t,224,3,716.3000000715256,570994.0,8084,WL,A,10.0
5,20.64300012588501,learn,60000.0,Wed Jun 03 2026 17:26:03 GMT-0500 (Central Daylight Time),571910.3000000715,A,butt,I,t,183,3,916.3000000715256,570994.0,8084,WL,A,10.0
5,20.743000030517578,learn,60000.0,Wed Jun 03 2026 17:26:03 GMT-0500 (Central Daylight Time),572010.2000000477,A,butto,I,o,79,3,1016.2000000476837,570994.0,8084,WL,A,10.0
5,20.87600016593933,learn,60000.0,Wed Jun 03 2026 17:26:03 GMT-0500 (Central Daylight Time),572143.6000000238,A,button,I,n,116,3,1149.6000000238419,570994.0,8084,WL,A,10.0
5,21.16000008583069,learn,60000.0,Wed Jun 03 2026 17:26:03 GMT-0500 (Central Daylight Time),572426.9000000954,A,buttonenter,I,enter,270,3,1432.9000000953674,570994.0,8084,WL,A,10.0
5,32.77300000190735,learn,60000.0,Wed Jun 03 2026 17:26:03 GMT-0500 (Central Daylight Time),584040.0,A,r,I,r,11594,3,11612.899999976158,572427.1000000238,8084,WL,A,11.0
5,32.98900008201599,learn,60000.0,Wed Jun 03 2026 17:26:03 GMT-0500 (Central Daylight Time),584256.5,A,ra,I,a,205,3,11829.399999976158,572427.1000000238,8084,WL,A,11.0
5,33.1560001373291,learn,60000.0,Wed Jun 03 2026 17:26:03 GMT-0500 (Central Daylight Time),584423.2000000477,A,rat,I,t,157,3,11996.100000023842,572427.1000000238,8084,WL,A,11.0
5,33.33899998664856,learn,60000.0,Wed Jun 03 2026 17:26:03 GMT-0500 (Central Daylight Time),584606.4000000954,A,ratt,I,t,166,3,12179.300000071526,572427.1000000238,8084,WL,A,11.0
5,33.456000089645386,learn,60000.0,Wed Jun 03 2026 17:26:03 GMT-0500 (Central Daylight Time),584722.8000000715,A,rattl,I,l,95,3,12295.700000047684,572427.1000000238,8084,WL,A,11.0
5,33.8510000705719,learn,60000.0,Wed Jun 03 2026 17:26:03 GMT-0500 (Central Daylight Time),585117.9000000954,A,rattle,I,e,243,3,12690.800000071526,572427.1000000238,8084,WL,A,11.0
5,34.22200012207031,learn,60000.0,Wed Jun 03 2026 17:26:03 GMT-0500 (Central Daylight Time),585489.5,A,rattleenter,I,enter,351,3,13062.399999976158,572427.1000000238,8084,WL,A,11.0
5,40.604000091552734,learn,60000.0,Wed Jun 03 2026 17:26:03 GMT-0500 (Central Daylight Time),591870.7000000477,A,k,I,k,6364,3,6380.799999952316,585489.9000000954,8084,WL,A,12.0
5,40.769999980926514,learn,60000.0,Wed Jun 03 2026 17:26:03 GMT-0500 (Central Daylight Time),592037.5,A,ke,I,e,150,3,6547.599999904633,585489.9000000954,8084,WL,A,12.0
5,40.97000002861023,learn,60000.0,Wed Jun 03 2026 17:26:03 GMT-0500 (Central Daylight Time),592237.3000000715,A,key,I,y,184,3,6747.399999976158,585489.9000000954,8084,WL,A,12.0
5,41.37000012397766,learn,60000.0,Wed Jun 03 2026 17:26:03 GMT-0500 (Central Daylight Time),592637.3000000715,A,keyenter,I,enter,392,3,7147.399999976158,585489.9000000954,8084,WL,A,12.0
5,53.71600008010864,learn,60000.0,Wed Jun 03 2026 17:26:03 GMT-0500 (Central Daylight Time),604983.3000000715,A,t,I,t,12337,3,12345.600000023842,592637.7000000477,8084,WL,A,13.0
5,53.93300008773804,learn,60000.0,Wed Jun 03 2026 17:26:03 GMT-0500 (Central Daylight Time),605199.8000000715,A,tr,I,r,198,3,12562.100000023842,592637.7000000477,8084,WL,A,13.0
5,54.13300013542175,learn,60000.0,Wed Jun 03 2026 17:26:03 GMT-0500 (Central Daylight Time),605399.7000000477,A,tra,I,a,181,3,12762.0,592637.7000000477,8084,WL,A,13.0
5,54.282999992370605,learn,60000.0,Wed Jun 03 2026 17:26:03 GMT-0500 (Central Daylight Time),605549.9000000954,A,trai,I,i,142,3,12912.200000047684,592637.7000000477,8084,WL,A,13.0
5,54.449000120162964,learn,60000.0,Wed Jun 03 2026 17:26:03 GMT-0500 (Central Daylight Time),605716.4000000954,A,train,I,n,159,3,13078.700000047684,592637.7000000477,8084,WL,A,13.0
5,54.64900016784668,learn,60000.0,Wed Jun 03 2026 17:26:03 GMT-0500 (Central Daylight Time),605916.4000000954,A,trainenter,I,enter,193,3,13278.700000047684,592637.7000000477,8084,WL,A,13.0
5,60.06400012969971,learn,60000.0,Wed Jun 03 2026 17:26:03 GMT-0500 (Central Daylight Time),611331.4000000954,A,k,I,k,5401,3,5414.600000023842,605916.8000000715,8084,WL,A,14.0
6,0.5499999523162842,distr,59450.000047683716,Wed Jun 03 2026 17:26:03 GMT-0500 (Central Daylight Time),680609.6000000238,B,d,I,d,530,3,549.6000000238419,680060.0,8084,WL,A,1.0
6,0.7160000801086426,distr,59283.99991989136,Wed Jun 03 2026 17:26:03 GMT-0500 (Central Daylight Time),680776.2000000477,B,da,I,a,146,3,716.2000000476837,680060.0,8084,WL,A,1.0
6,0.7660000324249268,distr,59233.99996757507,Wed Jun 03 2026 17:26:03 GMT-0500 (Central Daylight Time),680825.9000000954,B,daw,I,w,44,3,765.9000000953674,680060.0,8084,WL,A,1.0
6,0.9500000476837158,distr,59049.999952316284,Wed Jun 03 2026 17:26:03 GMT-0500 (Central Daylight Time),681010.0,B,dawn,I,n,172,3,950.0,680060.0,8084,WL,A,1.0
6,1.3329999446868896,distr,58667.00005531311,Wed Jun 03 2026 17:26:03 GMT-0500 (Central Daylight Time),681392.7000000477,B,dawnenter,I,enter,364,3,1332.7000000476837,680060.0,8084,WL,A,1.0
6,8.513999938964844,distr,51486.000061035156,Wed Jun 03 2026 17:26:03 GMT-0500 (Central Daylight Time),688573.7000000477,B,s,I,s,7165,3,7180.700000047684,681393.0,8084,WL,A,2.0
6,8.647000074386597,distr,51352.9999256134,Wed Jun 03 2026 17:26:03 GMT-0500 (Central Daylight Time),688707.0,B,sh,I,h,127,3,7314.0,681393.0,8084,WL,A,2.0
6,8.980000019073486,distr,51019.999980926514,Wed Jun 03 2026 17:26:03 GMT-0500 (Central Daylight Time),689040.3000000715,B,she,I,e,314,3,7647.300000071526,681393.0,8084,WL,A,2.0
6,9.147000074386597,distr,50852.9999256134,Wed Jun 03 2026 17:26:03 GMT-0500 (Central Daylight Time),689206.8000000715,B,shee,I,e,157,3,7813.800000071526,681393.0,8084,WL,A,2.0
6,9.29699993133545,distr,50703.00006866455,Wed Jun 03 2026 17:26:03 GMT-0500 (Central Daylight Time),689356.8000000715,B,sheep,I,p,135,3,7963.800000071526,681393.0,8084,WL,A,2.0
6,10.763999938964844,distr,49236.000061035156,Wed Jun 03 2026 17:26:03 GMT-0500 (Central Daylight Time),690823.3000000715,B,sheepm,I,m,1449,3,9430.300000071526,681393.0,8084,WL,A,2.0
6,10.930000066757202,distr,49069.9999332428,Wed Jun 03 2026 17:26:03 GMT-0500 (Central Daylight Time),690990.0,B,sheepme,I,e,150,3,9597.0,681393.0,8084,WL,A,2.0
6,11.081000089645386,distr,48918.999910354614,Wed Jun 03 2026 17:26:03 GMT-0500 (Central Daylight Time),691140.4000000954,B,sheepmea,I,a,143,3,9747.400000095367,681393.0,8084,WL,A,2.0
6,11.263000011444092,distr,48736.99998855591,Wed Jun 03 2026 17:26:03 GMT-0500 (Central Daylight Time),691322.6000000238,B,sheepmeal,I,l,177,3,9929.600000023842,681393.0,8084,WL,A,2.0
6,11.680000066757202,distr,48319.9999332428,Wed Jun 03 2026 17:26:03 GMT-0500 (Central Daylight Time),691739.5,B,sheepmealenter,I,enter,403,3,10346.5,681393.0,8084,WL,A,2.0
6,12.928999900817871,distr,47071.00009918213,Wed Jun 03 2026 17:26:03 GMT-0500 (Central Daylight Time),692989.2000000477,B,c,I,c,1242,3,1249.2999999523163,691739.9000000954,8084,WL,A,3.0
6,13.114000082015991,distr,46885.99991798401,Wed Jun 03 2026 17:26:03 GMT-0500 (Central Daylight Time),693173.5,B,co,I,o,176,3,1433.5999999046326,691739.9000000954,8084,WL,A,3.0
6,13.529000043869019,distr,46470.99995613098,Wed Jun 03 2026 17:26:03 GMT-0500 (Central Daylight Time),693588.6000000238,B,coa,I,a,408,3,1848.6999999284744,691739.9000000954,8084,WL,A,3.0
6,13.979000091552734,distr,46020.999908447266,Wed Jun 03 2026 17:26:03 GMT-0500 (Central Daylight Time),694038.7000000477,B,coat,I,t,433,3,2298.7999999523163,691739.9000000954,8084,WL,A,3.0
6,14.26200008392334,distr,45737.99991607666,Wed Jun 03 2026 17:26:03 GMT-0500 (Central Daylight Time),694322.0,B,coatenter,I,enter,271,3,2582.0999999046326,691739.9000000954,8084,WL,A,3.0
6,17.594000101089478,distr,42405.99989891052,Wed Jun 03 2026 17:26:03 GMT-0500 (Central Daylight Time),697654.1000000238,B,p,I,p,3323,3,3331.7999999523163,694322.3000000715,8084,WL,A,4.0
6,17.778000116348267,distr,42221.99988365173,Wed Jun 03 2026 17:26:03 GMT-0500 (Central Daylight Time),697837.7000000477,B,pl,I,l,166,3,3515.399999976158,694322.3000000715,8084,WL,A,4.0
6,17.960999965667725,distr,42039.000034332275,Wed Jun 03 2026 17:26:03 GMT-0500 (Central Daylight Time),698020.7000000477,B,pla,I,a,175,3,3698.399999976158,694322.3000000715,8084,WL,A,4.0
6,18.111000061035156,distr,41888.999938964844,Wed Jun 03 2026 17:26:03 GMT-0500 (Central Daylight Time),698170.8000000715,B,plan,I,n,137,3,3848.5,694322.3000000715,8084,WL,A,4.0
6,18.344000101089478,distr,41655.99989891052,Wed Jun 03 2026 17:26:03 GMT-0500 (Central Daylight Time),698404.0,B,plane,I,e,219,3,4081.6999999284744,694322.3000000715,8084,WL,A,4.0
6,18.543999910354614,distr,41456.000089645386,Wed Jun 03 2026 17:26:03 GMT-0500 (Central Daylight Time),698603.9000000954,B,planeenter,I,enter,193,3,4281.600000023842,694322.3000000715,8084,WL,A,4.0
6,24.092000007629395,distr,35907.999992370605,Wed Jun 03 2026 17:26:03 GMT-0500 (Central Daylight Time),704152.2000000477,B,s,I,s,5538,3,5548.0,698604.2000000477,8084,WL,A,5.0
6,24.342000007629395,distr,35657.999992370605,Wed Jun 03 2026 17:26:03 GMT-0500 (Central Daylight Time),704402.0,B,st,I,t,245,3,5797.799999952316,698604.2000000477,8084,WL,A,5.0
6,24.658999919891357,distr,35341.00008010864,Wed Jun 03 2026 17:26:03 GMT-0500 (Central Daylight Time),704718.8000000715,B,ste,I,e,307,3,6114.600000023842,698604.2000000477,8084,WL,A,5.0
6,24.80900001525879,distr,35190.99998474121,Wed Jun 03 2026 17:26:03 GMT-0500 (Central Daylight Time),704868.8000000715,B,stee,I,e,134,3,6264.600000023842,698604.2000000477,8084,WL,A,5.0
6,25.125,distr,34875.0,Wed Jun 03 2026 17:26:03 GMT-0500 (Central Daylight Time),705185.2000000477,B,steep,I,p,305,3,6581.0,698604.2000000477,8084,WL,A,5.0
6,25.45900011062622,distr,34540.99988937378,Wed Jun 03 2026 17:26:03 GMT-0500 (Central Daylight Time),705518.8000000715,B,steepenter,I,enter,325,3,6914.600000023842,698604.2000000477,8084,WL,A,5.0
6,31.556999921798706,distr,28443.000078201294,Wed Jun 03 2026 17:26:03 GMT-0500 (Central Daylight Time),711616.7000000477,B,enter,I,enter,6087,3,6097.700000047684,705519.0,8084,WL,A,6.0
6,31.957000017166138,distr,28042.999982833862,Wed Jun 03 2026 17:26:03 GMT-0500 (Central Daylight Time),712016.5,B,enter,I,enter,381,3,399.5,711617.0,8084,WL,A,7.0
6,32.24000000953674,distr,27759.999990463257,Wed Jun 03 2026 17:26:03 GMT-0500 (Central Daylight Time),712299.4000000954,B,enter,I,enter,277,3,282.5,712016.9000000954,8084,WL,A,8.0
6,32.53999996185303,distr,27460.000038146973,Wed Jun 03 2026 17:26:03 GMT-0500 (Central Daylight Time),712599.6000000238,B,enter,I,enter,282,3,300.0,712299.6000000238,8084,WL,A,9.0
6,32.94000005722046,distr,27059.99994277954,Wed Jun 03 2026 17:26:03 GMT-0500 (Central Daylight Time),712999.4000000954,B,enter,I,enter,382,3,399.40000009536743,712600.0,8084,WL,A,10.0
6,33.206000089645386,distr,26793.999910354614,Wed Jun 03 2026 17:26:03 GMT-0500 (Central Daylight Time),713266.0,B,enter,I,enter,254,3,266.09999990463257,712999.9000000954,8084,WL,A,11.0
6,33.58899998664856,distr,26411.00001335144,Wed Jun 03 2026 17:26:03 GMT-0500 (Central Daylight Time),713649.1000000238,B,enter,I,enter,363,3,382.7999999523163,713266.3000000715,8084,WL,A,12.0
6,34.00600004196167,distr,25993.99995803833,Wed Jun 03 2026 17:26:03 GMT-0500 (Central Daylight Time),714065.7000000477,B,enter,I,enter,405,3,416.2999999523163,713649.4000000954,8084,WL,A,13.0
6,34.40700006484985,distr,25592.999935150146,Wed Jun 03 2026 17:26:03 GMT-0500 (Central Daylight Time),714466.7000000477,B,enter,I,enter,387,3,400.7999999523163,714065.9000000954,8084,WL,A,14.0
6,35.23900008201599,distr,24760.99991798401,Wed Jun 03 2026 17:26:03 GMT-0500 (Central Daylight Time),715299.0,B,enter,I,enter,826,3,832.0,714467.0,8084,WL,A,15.0
7,4.24399995803833,immed,55756.00004196167,Wed Jun 03 2026 17:26:03 GMT-0500 (Central Daylight Time),726491.0,A,b,I,b,4241,3,4244.299999952316,722246.7000000477,8084,WL,A,1.0
7,4.398000001907349,immed,55601.99999809265,Wed Jun 03 2026 17:26:03 GMT-0500 (Central Daylight Time),726644.8000000715,A,bo,I,o,145,3,4398.100000023842,722246.7000000477,8084,WL,A,1.0
7,4.547999858856201,immed,55452.0001411438,Wed Jun 03 2026 17:26:03 GMT-0500 (Central Daylight Time),726795.3000000715,A,boo,I,o,138,3,4548.600000023842,722246.7000000477,8084,WL,A,1.0
7,4.730999946594238,immed,55269.00005340576,Wed Jun 03 2026 17:26:03 GMT-0500 (Central Daylight Time),726978.3000000715,A,book,I,k,161,3,4731.600000023842,722246.7000000477,8084,WL,A,1.0
7,5.5309998989105225,immed,54469.00010108948,Wed Jun 03 2026 17:26:03 GMT-0500 (Central Daylight Time),727778.2000000477,A,bookenter,I,enter,779,3,5531.5,722246.7000000477,8084,WL,A,1.0
7,6.180999994277954,immed,53819.000005722046,Wed Jun 03 2026 17:26:03 GMT-0500 (Central Daylight Time),728427.9000000954,A,l,I,l,635,3,649.1000000238419,727778.8000000715,8084,WL,A,2.0
7,6.346999883651733,immed,53653.00011634827,Wed Jun 03 2026 17:26:03 GMT-0500 (Central Daylight Time),728594.2000000477,A,lf,I,f,161,3,815.3999999761581,727778.8000000715,8084,WL,A,2.0
7,6.648000001907349,immed,53351.99999809265,Wed Jun 03 2026 17:26:03 GMT-0500 (Central Daylight Time),728894.5,A,l,I,backspace,292,3,1115.6999999284744,727778.8000000715,8084,WL,A,2.0
7,6.797999858856201,immed,53202.0001411438,Wed Jun 03 2026 17:26:03 GMT-0500 (Central Daylight Time),729044.5,A,,I,backspace,143,3,1265.6999999284744,727778.8000000715,8084,WL,A,2.0
7,6.946999788284302,immed,53053.0002117157,Wed Jun 03 2026 17:26:03 GMT-0500 (Central Daylight Time),729194.2000000477,A,f,I,f,145,3,1415.3999999761581,727778.8000000715,8084,WL,A,2.0
7,7.063999891281128,immed,52936.00010871887,Wed Jun 03 2026 17:26:03 GMT-0500 (Central Daylight Time),729311.2000000477,A,fl,I,l,107,3,1532.3999999761581,727778.8000000715,8084,WL,A,2.0
7,7.2809998989105225,immed,52719.00010108948,Wed Jun 03 2026 17:26:03 GMT-0500 (Central Daylight Time),729527.5,A,flo,I,o,198,3,1748.6999999284744,727778.8000000715,8084,WL,A,2.0
7,7.430999994277954,immed,52569.000005722046,Wed Jun 03 2026 17:26:03 GMT-0500 (Central Daylight Time),729677.6000000238,A,flow,I,w,134,3,1898.7999999523163,727778.8000000715,8084,WL,A,2.0
7,7.547999858856201,immed,52452.0001411438,Wed Jun 03 2026 17:26:03 GMT-0500 (Central Daylight Time),729794.8000000715,A,flowe,I,e,112,3,2016.0,727778.8000000715,8084,WL,A,2.0
7,7.663999795913696,immed,52336.000204086304,Wed Jun 03 2026 17:26:03 GMT-0500 (Central Daylight Time),729910.8000000715,A,flower,I,r,99,3,2132.0,727778.8000000715,8084,WL,A,2.0
7,7.880999803543091,immed,52119.00019645691,Wed Jun 03 2026 17:26:03 GMT-0500 (Central Daylight Time),730127.5,A,flowerenter,I,enter,207,3,2348.6999999284744,727778.8000000715,8084,WL,A,2.0
7,11.046000003814697,immed,48953.9999961853,Wed Jun 03 2026 17:26:03 GMT-0500 (Central Daylight Time),733293.1000000238,A,t,I,t,3158,3,3165.1999999284744,730127.9000000954,8084,WL,A,3.0
7,11.312999963760376,immed,48687.000036239624,Wed Jun 03 2026 17:26:03 GMT-0500 (Central Daylight Time),733559.6000000238,A,tr,I,r,248,3,3431.6999999284744,730127.9000000954,8084,WL,A,3.0
7,11.513000011444092,immed,48486.99998855591,Wed Jun 03 2026 17:26:03 GMT-0500 (Central Daylight Time),733759.7000000477,A,tra,I,a,190,3,3631.7999999523163,730127.9000000954,8084,WL,A,3.0
7,11.712999820709229,immed,48287.00017929077,Wed Jun 03 2026 17:26:03 GMT-0500 (Central Daylight Time),733959.5,A,trai,I,i,182,3,3831.5999999046326,730127.9000000954,8084,WL,A,3.0
7,11.86299991607666,immed,48137.00008392334,Wed Jun 03 2026 17:26:03 GMT-0500 (Central Daylight Time),734109.6000000238,A,train,I,n,142,3,3981.6999999284744,730127.9000000954,8084,WL,A,3.0
7,12.095999956130981,immed,47904.00004386902,Wed Jun 03 2026 17:26:03 GMT-0500 (Central Daylight Time),734342.8000000715,A,trainenter,I,enter,216,3,4214.899999976158,730127.9000000954,8084,WL,A,3.0
7,12.395999908447266,immed,47604.000091552734,Wed Jun 03 2026 17:26:03 GMT-0500 (Central Daylight Time),734642.4000000954,A,r,I,r,295,3,299.3000000715256,734343.1000000238,8084,WL,A,4.0
7,12.578999996185303,immed,47421.0000038147,Wed Jun 03 2026 17:26:03 GMT-0500 (Central Daylight Time),734826.4000000954,A,ru,I,u,162,3,483.3000000715256,734343.1000000238,8084,WL,A,4.0
7,12.77899980545044,immed,47221.00019454956,Wed Jun 03 2026 17:26:03 GMT-0500 (Central Daylight Time),735026.0,A,rug,I,g,179,3,682.8999999761581,734343.1000000238,8084,WL,A,4.0
7,13.078999996185303,immed,46921.0000038147,Wed Jun 03 2026 17:26:03 GMT-0500 (Central Daylight Time),735325.9000000954,A,rugenter,I,enter,291,3,982.8000000715256,734343.1000000238,8084,WL,A,4.0
7,13.428999900817871,immed,46571.00009918213,Wed Jun 03 2026 17:26:03 GMT-0500 (Central Daylight Time),735675.9000000954,A,m,I,m,335,3,349.7000000476837,735326.2000000477,8084,WL,A,5.0
7,13.561999797821045,immed,46438.000202178955,Wed Jun 03 2026 17:26:03 GMT-0500 (Central Daylight Time),735809.3000000715,A,me,I,e,113,3,483.10000002384186,735326.2000000477,8084,WL,A,5.0
7,13.76199984550476,immed,46238.00015449524,Wed Jun 03 2026 17:26:03 GMT-0500 (Central Daylight Time),736009.1000000238,A,mea,I,a,188,3,682.8999999761581,735326.2000000477,8084,WL,A,5.0
7,14.09499979019165,immed,45905.00020980835,Wed Jun 03 2026 17:26:03 GMT-0500 (Central Daylight Time),736341.9000000954,A,mead,I,d,316,3,1015.7000000476837,735326.2000000477,8084,WL,A,5.0
7,14.294999837875366,immed,45705.000162124634,Wed Jun 03 2026 17:26:03 GMT-0500 (Central Daylight Time),736542.0,A,meado,I,o,183,3,1215.7999999523163,735326.2000000477,8084,WL,A,5.0
7,14.461999893188477,immed,45538.00010681152,Wed Jun 03 2026 17:26:03 GMT-0500 (Central Daylight Time),736708.8000000715,A,meadow,I,w,152,3,1382.6000000238419,735326.2000000477,8084,WL,A,5.0
7,14.977999925613403,immed,45022.0000743866,Wed Jun 03 2026 17:26:03 GMT-0500 (Central Daylight Time),737225.1000000238,A,meadowenter,I,enter,504,3,1898.8999999761581,735326.2000000477,8084,WL,A,5.0
7,15.41100001335144,immed,44588.99998664856,Wed Jun 03 2026 17:26:03 GMT-0500 (Central Daylight Time),737658.4000000954,A,h,I,h,412,3,433.0,737225.4000000954,8084,WL,A,6.0
7,15.561999797821045,immed,44438.000202178955,Wed Jun 03 2026 17:26:03 GMT-0500 (Central Daylight Time),737808.5,A,ha,I,a,139,3,583.0999999046326,737225.4000000954,8084,WL,A,6.0
7,15.67799997329712,immed,44322.00002670288,Wed Jun 03 2026 17:26:03 GMT-0500 (Central Daylight Time),737925.1000000238,A,har,I,r,108,3,699.6999999284744,737225.4000000954,8084,WL,A,6.0
7,16.060999870300293,immed,43939.00012969971,Wed Jun 03 2026 17:26:03 GMT-0500 (Central Daylight Time),738308.3000000715,A,harp,I,p,368,3,1082.8999999761581,737225.4000000954,8084,WL,A,6.0
7,16.477999925613403,immed,43522.0000743866,Wed Jun 03 2026 17:26:03 GMT-0500 (Central Daylight Time),738724.7000000477,A,harpenter,I,enter,409,3,1499.2999999523163,737225.4000000954,8084,WL,A,6.0
7,17.8439998626709,immed,42156.0001373291,Wed Jun 03 2026 17:26:03 GMT-0500 (Central Daylight Time),740090.7000000477,A,r,I,r,1361,3,1365.6000000238419,738725.1000000238,8084,WL,A,7.0
7,18.026999950408936,immed,41973.000049591064,Wed Jun 03 2026 17:26:03 GMT-0500 (Central Daylight Time),740274.1000000238,A,ra,I,a,163,3,1549.0,738725.1000000238,8084,WL,A,7.0
7,18.194000005722046,immed,41805.999994277954,Wed Jun 03 2026 17:26:03 GMT-0500 (Central Daylight Time),740440.6000000238,A,rat,I,t,155,3,1715.5,738725.1000000238,8084,WL,A,7.0
7,18.40999984741211,immed,41590.00015258789,Wed Jun 03 2026 17:26:03 GMT-0500 (Central Daylight Time),740657.3000000715,A,ratt,I,t,197,3,1932.2000000476837,738725.1000000238,8084,WL,A,7.0
7,18.609999895095825,immed,41390.000104904175,Wed Jun 03 2026 17:26:03 GMT-0500 (Central Daylight Time),740857.3000000715,A,rattl,I,l,187,3,2132.2000000476837,738725.1000000238,8084,WL,A,7.0
7,18.776999950408936,immed,41223.000049591064,Wed Jun 03 2026 17:26:03 GMT-0500 (Central Daylight Time),741024.0,A,rattle,I,e,156,3,2298.899999976158,738725.1000000238,8084,WL,A,7.0
7,19.05999994277954,immed,40940.00005722046,Wed Jun 03 2026 17:26:03 GMT-0500 (Central Daylight Time),741307.1000000238,A,rattleenter,I,enter,277,3,2582.0,738725.1000000238,8084,WL,A,7.0
7,20.05999994277954,immed,39940.00005722046,Wed Jun 03 2026 17:26:03 GMT-0500 (Central Daylight Time),742306.9000000954,A,l,I,l,979,3,999.7000000476837,741307.2000000477,8084,WL,A,8.0
7,20.276999950408936,immed,39723.000049591064,Wed Jun 03 2026 17:26:03 GMT-0500 (Central Daylight Time),742523.5,A,lo,I,o,210,3,1216.2999999523163,741307.2000000477,8084,WL,A,8.0
7,20.459999799728394,immed,39540.00020027161,Wed Jun 03 2026 17:26:03 GMT-0500 (Central Daylight Time),742706.8000000715,A,log,I,g,170,3,1399.6000000238419,741307.2000000477,8084,WL,A,8.0
7,20.64299988746643,immed,39357.00011253357,Wed Jun 03 2026 17:26:03 GMT-0500 (Central Daylight Time),742890.0,A,logenter,I,enter,179,3,1582.7999999523163,741307.2000000477,8084,WL,A,8.0
7,21.40999984741211,immed,38590.00015258789,Wed Jun 03 2026 17:26:03 GMT-0500 (Central Daylight Time),743656.5,A,c,I,c,757,3,766.1999999284744,742890.3000000715,8084,WL,A,9.0
7,21.609999895095825,immed,38390.000104904175,Wed Jun 03 2026 17:26:03 GMT-0500 (Central Daylight Time),743856.6000000238,A,ch,I,h,181,3,966.2999999523163,742890.3000000715,8084,WL,A,9.0
7,21.97599983215332,immed,38024.00016784668,Wed Jun 03 2026 17:26:03 GMT-0500 (Central Daylight Time),744222.9000000954,A,chi,I,i,357,3,1332.6000000238419,742890.3000000715,8084,WL,A,9.0
7,22.292999982833862,immed,37707.00001716614,Wed Jun 03 2026 17:26:03 GMT-0500 (Central Daylight Time),744539.6000000238,A,chim,I,m,310,3,1649.2999999523163,742890.3000000715,8084,WL,A,9.0
7,22.72599983215332,immed,37274.00016784668,Wed Jun 03 2026 17:26:03 GMT-0500 (Central Daylight Time),744972.6000000238,A,chimn,I,n,426,3,2082.2999999523163,742890.3000000715,8084,WL,A,9.0
7,23.04199981689453,immed,36958.00018310547,Wed Jun 03 2026 17:26:03 GMT-0500 (Central Daylight Time),745289.4000000954,A,chimne,I,e,304,3,2399.100000023842,742890.3000000715,8084,WL,A,9.0
7,23.241999864578247,immed,36758.00013542175,Wed Jun 03 2026 17:26:03 GMT-0500 (Central Daylight Time),745489.3000000715,A,chimney,I,y,179,3,2599.0,742890.3000000715,8084,WL,A,9.0
7,23.524999856948853,immed,36475.00014305115,Wed Jun 03 2026 17:26:03 GMT-0500 (Central Daylight Time),745772.4000000954,A,chimneyenter,I,enter,268,3,2882.100000023842,742890.3000000715,8084,WL,A,9.0
7,23.824999809265137,immed,36175.00019073486,Wed Jun 03 2026 17:26:03 GMT-0500 (Central Daylight Time),746072.4000000954,A,b,I,b,281,3,299.8000000715256,745772.6000000238,8084,WL,A,10.0
7,23.991999864578247,immed,36008.00013542175,Wed Jun 03 2026 17:26:03 GMT-0500 (Central Daylight Time),746239.0,A,bu,I,u,157,3,466.39999997615814,745772.6000000238,8084,WL,A,10.0
7,24.375,immed,35625.0,Wed Jun 03 2026 17:26:03 GMT-0500 (Central Daylight Time),746622.1000000238,A,but,I,t,366,3,849.5,745772.6000000238,8084,WL,A,10.0
7,24.55999994277954,immed,35440.00005722046,Wed Jun 03 2026 17:26:03 GMT-0500 (Central Daylight Time),746806.7000000477,A,butt,I,t,167,3,1034.1000000238419,745772.6000000238,8084,WL,A,10.0
7,24.674999952316284,immed,35325.000047683716,Wed Jun 03 2026 17:26:03 GMT-0500 (Central Daylight Time),746922.0,A,butto,I,o,95,3,1149.3999999761581,745772.6000000238,8084,WL,A,10.0
7,24.842000007629395,immed,35157.999992370605,Wed Jun 03 2026 17:26:03 GMT-0500 (Central Daylight Time),747088.7000000477,A,button,I,n,147,3,1316.1000000238419,745772.6000000238,8084,WL,A,10.0
7,25.125,immed,34875.0,Wed Jun 03 2026 17:26:03 GMT-0500 (Central Daylight Time),747372.3000000715,A,buttonenter,I,enter,268,3,1599.7000000476837,745772.6000000238,8084,WL,A,10.0
7,25.824999809265137,immed,34175.00019073486,Wed Jun 03 2026 17:26:03 GMT-0500 (Central Daylight Time),748071.7000000477,A,g,I,g,689,3,699.1000000238419,747372.6000000238,8084,WL,A,11.0
7,25.95799994468689,immed,34042.00005531311,Wed Jun 03 2026 17:26:03 GMT-0500 (Central Daylight Time),748205.0,A,go,I,o,117,3,832.3999999761581,747372.6000000238,8084,WL,A,11.0
7,26.174999952316284,immed,33825.000047683716,Wed Jun 03 2026 17:26:03 GMT-0500 (Central Daylight Time),748421.6000000238,A,gol,I,l,209,3,1049.0,747372.6000000238,8084,WL,A,11.0
7,26.407999992370605,immed,33592.000007629395,Wed Jun 03 2026 17:26:03 GMT-0500 (Central Daylight Time),748655.1000000238,A,gold,I,d,225,3,1282.5,747372.6000000238,8084,WL,A,11.0
7,26.55900001525879,immed,33440.99998474121,Wed Jun 03 2026 17:26:03 GMT-0500 (Central Daylight Time),748805.8000000715,A,goldenter,I,enter,143,3,1433.2000000476837,747372.6000000238,8084,WL,A,11.0
7,27.107999801635742,immed,32892.00019836426,Wed Jun 03 2026 17:26:03 GMT-0500 (Central Daylight Time),749354.7000000477,A,k,I,k,544,3,548.7000000476837,748806.0,8084,WL,A,12.0
7,27.29099988937378,immed,32709.00011062622,Wed Jun 03 2026 17:26:03 GMT-0500 (Central Daylight Time),749538.2000000477,A,ke,I,e,163,3,732.2000000476837,748806.0,8084,WL,A,12.0
7,27.45799994468689,immed,32542.00005531311,Wed Jun 03 2026 17:26:03 GMT-0500 (Central Daylight Time),749704.8000000715,A,key,I,y,155,3,898.8000000715256,748806.0,8084,WL,A,12.0
7,27.834999799728394,immed,32165.000200271606,Wed Jun 03 2026 17:26:03 GMT-0500 (Central Daylight Time),750082.2000000477,A,keyenter,I,enter,356,3,1276.2000000476837,748806.0,8084,WL,A,12.0
7,33.20599985122681,immed,26794.000148773193,Wed Jun 03 2026 17:26:03 GMT-0500 (Central Daylight Time),755452.9000000954,A,g,I,g,5360,3,5370.400000095367,750082.5,8084,WL,A,13.0
7,33.3219997882843,immed,26678.0002117157,Wed Jun 03 2026 17:26:03 GMT-0500 (Central Daylight Time),755569.3000000715,A,go,I,o,104,3,5486.800000071526,750082.5,8084,WL,A,13.0
7,33.52300000190735,immed,26476.99999809265,Wed Jun 03 2026 17:26:03 GMT-0500 (Central Daylight Time),755769.5,A,gol,I,l,188,3,5687.0,750082.5,8084,WL,A,13.0
7,33.72199988365173,immed,26278.000116348267,Wed Jun 03 2026 17:26:03 GMT-0500 (Central Daylight Time),755969.2000000477,A,gold,I,d,180,3,5886.700000047684,750082.5,8084,WL,A,13.0
7,33.85599994659424,immed,26144.00005340576,Wed Jun 03 2026 17:26:03 GMT-0500 (Central Daylight Time),756102.7000000477,A,goldenter,I,enter,116,3,6020.200000047684,750082.5,8084,WL,A,13.0
7,36.38800001144409,immed,23611.99998855591,Wed Jun 03 2026 17:26:03 GMT-0500 (Central Daylight Time),758634.9000000954,A,a,I,a,2526,3,2531.7000000476837,756103.2000000477,8084,WL,A,14.0
7,36.605000019073486,immed,23394.999980926514,Wed Jun 03 2026 17:26:03 GMT-0500 (Central Daylight Time),758851.7000000477,A,ap,I,p,202,3,2748.5,756103.2000000477,8084,WL,A,14.0
7,36.75499987602234,immed,23245.00012397766,Wed Jun 03 2026 17:26:03 GMT-0500 (Central Daylight Time),759001.6000000238,A,app,I,p,129,3,2898.399999976158,756103.2000000477,8084,WL,A,14.0
7,36.9210000038147,immed,23078.999996185303,Wed Jun 03 2026 17:26:03 GMT-0500 (Central Daylight Time),759168.3000000715,A,appl,I,l,155,3,3065.100000023842,756103.2000000477,8084,WL,A,14.0
7,37.07099986076355,immed,22929.00013923645,Wed Jun 03 2026 17:26:03 GMT-0500 (Central Daylight Time),759318.1000000238,A,apple,I,e,133,3,3214.899999976158,756103.2000000477,8084,WL,A,14.0
7,37.23799991607666,immed,22762.00008392334,Wed Jun 03 2026 17:26:03 GMT-0500 (Central Daylight Time),759485.0,A,appleenter,I,enter,159,3,3381.7999999523163,756103.2000000477,8084,WL,A,14.0
7,45.65299987792969,immed,14347.000122070312,Wed Jun 03 2026 17:26:03 GMT-0500 (Central Daylight Time),767900.0,A,enter,I,enter,8408,3,8414.699999928474,759485.3000000715,8084,WL,A,15.0
