Q,Q1,Q2,Q3,Q4,acc_sum,block,block_c,correct,correct_response,datetime,endtime,project,response,response_time,row_sel,session_number,squiggle1,squiggle1x,squiggle1y,squiggle2,squiggle2x,squiggle2y,squiggle3,squiggle3x,squiggle3y,squiggle4,squiggle4x,squiggle4y,start_end,starttime,subject_id,target_congruent,task,task_vers,testsquiggle,testsquigglex,testsquiggley,time_practice_delay,time_practice_fixation,time_practice_stimuli,time_practice_study,time_test_delay,time_test_fixation,time_test_stimuli,time_test_study,trial
1,1,0,0,0,1,prac,1,1,z,Thu Oct 23 2025 19:07:42 GMT-0500 (Central Daylight Time),87911.7000002861,I,z,1715,1,3,116.bmp,-120,-120,117.bmp,120,-120,118.bmp,-120,120,119.bmp,120,120,10526.5,77385.2000002861,8018,yes,SM,A,116.bmp,-120,-120,80978,74951,82995,76963,,,,,1
3,0,0,1,0,2,prac,1,1,m,Thu Oct 23 2025 19:07:42 GMT-0500 (Central Daylight Time),98675.10000038147,I,m,1947,2,3,120.bmp,-120,-120,121.bmp,120,-120,122.bmp,-120,120,123.bmp,120,120,10759.10000038147,87916.0,8018,no,SM,A,123.bmp,-120,120,91508,85481,93524,87493,,,,,2
4,0,0,0,1,3,prac,1,1,m,Thu Oct 23 2025 19:07:42 GMT-0500 (Central Daylight Time),108805.2000002861,I,m,1303,3,3,124.bmp,-120,-120,125.bmp,120,-120,126.bmp,-120,120,127.bmp,120,120,10126.900000095367,98678.30000019073,8018,no,SM,A,124.bmp,120,120,102271,96244,104288,98257,,,,,3
2,0,1,0,0,3,prac,1,0,z,Thu Oct 23 2025 19:07:42 GMT-0500 (Central Daylight Time),118985.40000009537,I,m,1349,4,3,128.bmp,-120,-120,129.bmp,120,-120,130.bmp,-120,120,131.bmp,120,120,10175.199999809265,108810.2000002861,8018,yes,SM,A,129.bmp,120,-120,112402,106376,114418,108387,,,,,4
3,0,0,1,0,4,prac,1,1,z,Thu Oct 23 2025 19:07:42 GMT-0500 (Central Daylight Time),129649.0,I,z,1833,5,3,132.bmp,-120,-120,133.bmp,120,-120,134.bmp,-120,120,135.bmp,120,120,10660.099999904633,118988.90000009537,8018,yes,SM,A,134.bmp,-120,120,122582,116554,124598,118567,,,,,5
1,1,0,0,0,5,prac,1,1,m,Thu Oct 23 2025 19:07:42 GMT-0500 (Central Daylight Time),139945.30000019073,I,m,1474,6,3,136.bmp,-120,-120,137.bmp,120,-120,138.bmp,-120,120,139.bmp,120,120,10293.099999904633,129652.2000002861,8018,no,SM,A,139.bmp,-120,-120,133245,127217,135261,129230,,,,,6
2,0,1,0,0,6,prac,1,1,m,Thu Oct 23 2025 19:07:42 GMT-0500 (Central Daylight Time),150258.90000009537,I,m,1497,7,3,140.bmp,-120,-120,141.bmp,120,-120,142.bmp,-120,120,143.bmp,120,120,10309.5,139949.40000009537,8018,no,SM,A,140.bmp,120,-120,143542,137515,145558,139527,,,,,7
4,0,0,0,1,7,prac,1,1,z,Thu Oct 23 2025 19:07:42 GMT-0500 (Central Daylight Time),160555.60000038147,I,z,1479,8,3,144.bmp,-120,-120,145.bmp,120,-120,146.bmp,-120,120,147.bmp,120,120,10292.300000190735,150263.30000019073,8018,yes,SM,A,147.bmp,120,120,153855,147829,155871,149840,,,,,8
4,0,0,0,1,0,test,1,0,m,Thu Oct 23 2025 19:07:42 GMT-0500 (Central Daylight Time),181099.2000002861,I,z,1747,1,3,148.bmp,-120,-120,149.bmp,120,-120,150.bmp,-120,120,143.bmp,120,120,9794.700000286102,171304.5,8018,no,SM,A,150.bmp,120,120,153855,147829,155871,149840,174899.0,168870.0,176915.0,170883.0,1
2,0,1,0,0,1,test,1,1,m,Thu Oct 23 2025 19:07:42 GMT-0500 (Central Daylight Time),190262.90000009537,I,m,1110,2,3,101.bmp,-120,-120,102.bmp,120,-120,103.bmp,-120,120,104.bmp,120,120,9160.199999809265,181102.7000002861,8018,no,SM,A,103.bmp,120,-120,153855,147829,155871,149840,184695.0,178668.0,186712.0,180681.0,2
1,1,0,0,0,2,test,1,1,z,Thu Oct 23 2025 19:07:42 GMT-0500 (Central Daylight Time),200226.40000009537,I,z,1907,3,3,105.bmp,-120,-120,106.bmp,120,-120,107.bmp,-120,120,108.bmp,120,120,9960.199999809265,190266.2000002861,8018,yes,SM,A,105.bmp,-120,-120,153855,147829,155871,149840,193859.0,187831.0,195876.0,189844.0,3
3,0,0,1,0,2,test,1,0,m,Thu Oct 23 2025 19:07:42 GMT-0500 (Central Daylight Time),210090.10000038147,I,z,1766,4,3,109.bmp,-120,-120,110.bmp,120,-120,111.bmp,-120,120,112.bmp,120,120,9859.800000190735,200230.30000019073,8018,no,SM,A,109.bmp,-120,120,153855,147829,155871,149840,203884.0,197796.0,205889.0,199807.0,4
2,0,1,0,0,2,test,1,0,z,Thu Oct 23 2025 19:07:42 GMT-0500 (Central Daylight Time),219470.40000009537,I,m,1327,5,3,113.bmp,-120,-120,114.bmp,120,-120,115.bmp,-120,120,116.bmp,120,120,9377.199999809265,210093.2000002861,8018,yes,SM,A,114.bmp,120,-120,153855,147829,155871,149840,213687.0,207658.0,215703.0,209671.0,5
3,0,0,1,0,3,test,1,1,z,Thu Oct 23 2025 19:07:42 GMT-0500 (Central Daylight Time),228934.2000002861,I,z,1412,6,3,117.bmp,-120,-120,118.bmp,120,-120,119.bmp,-120,120,120.bmp,120,120,9460.400000095367,219473.80000019073,8018,yes,SM,A,119.bmp,-120,120,153855,147829,155871,149840,223067.0,217039.0,225083.0,219052.0,6
4,0,0,0,1,3,test,1,0,z,Thu Oct 23 2025 19:07:42 GMT-0500 (Central Daylight Time),238997.80000019073,I,None,2016,7,3,121.bmp,-120,-120,122.bmp,120,-120,123.bmp,-120,120,124.bmp,120,120,10059.5,228938.30000019073,8018,yes,SM,A,124.bmp,120,120,153855,147829,155871,149840,232531.0,226503.0,234547.0,228515.0,7
2,0,1,0,0,4,test,1,1,m,Thu Oct 23 2025 19:07:42 GMT-0500 (Central Daylight Time),248427.7000002861,I,m,1380,8,3,125.bmp,-120,-120,126.bmp,120,-120,127.bmp,-120,120,128.bmp,120,120,9426.800000190735,239000.90000009537,8018,no,SM,A,125.bmp,120,-120,153855,147829,155871,149840,242594.0,236566.0,244610.0,238579.0,8
3,0,0,1,0,5,test,1,1,m,Thu Oct 23 2025 19:07:42 GMT-0500 (Central Daylight Time),258391.7000002861,I,m,1902,9,3,129.bmp,-120,-120,130.bmp,120,-120,131.bmp,-120,120,132.bmp,120,120,9960.900000095367,248430.80000019073,8018,no,SM,A,130.bmp,-120,120,153855,147829,155871,149840,252025.0,245996.0,254041.0,248010.0,9
4,0,0,0,1,6,test,1,1,z,Thu Oct 23 2025 19:07:42 GMT-0500 (Central Daylight Time),267722.0,I,z,1283,10,3,137.bmp,-120,-120,138.bmp,120,-120,139.bmp,-120,120,140.bmp,120,120,9326.799999713898,258395.2000002861,8018,yes,SM,A,140.bmp,120,120,153855,147829,155871,149840,261989.0,255960.0,264004.0,257973.0,10
3,0,0,1,0,7,test,1,1,z,Thu Oct 23 2025 19:07:42 GMT-0500 (Central Daylight Time),277469.0,I,z,1696,11,3,133.bmp,-120,-120,134.bmp,120,-120,135.bmp,-120,120,136.bmp,120,120,9743.099999904633,267725.90000009537,8018,yes,SM,A,135.bmp,-120,120,153855,147829,155871,149840,271319.0,265291.0,273335.0,267303.0,11
2,0,1,0,0,7,test,1,0,m,Thu Oct 23 2025 19:07:42 GMT-0500 (Central Daylight Time),287532.30000019073,I,None,2015,12,3,141.bmp,-120,-120,142.bmp,120,-120,143.bmp,-120,120,144.bmp,120,120,10060.0,277472.30000019073,8018,no,SM,A,141.bmp,120,-120,153855,147829,155871,149840,281066.0,275038.0,283082.0,277050.0,12
3,0,0,1,0,8,test,1,1,m,Thu Oct 23 2025 19:07:42 GMT-0500 (Central Daylight Time),297062.7000002861,I,m,1470,13,3,145.bmp,-120,-120,146.bmp,120,-120,147.bmp,-120,120,148.bmp,120,120,9526.599999904633,287536.10000038147,8018,no,SM,A,146.bmp,-120,120,153855,147829,155871,149840,291129.0,285101.0,293145.0,287114.0,13
1,1,0,0,0,9,test,1,1,z,Thu Oct 23 2025 19:07:42 GMT-0500 (Central Daylight Time),306643.10000038147,I,z,1531,14,3,149.bmp,-120,-120,150.bmp,120,-120,104.bmp,-120,120,101.bmp,120,120,9577.200000286102,297065.90000009537,8018,yes,SM,A,149.bmp,-120,-120,153855,147829,155871,149840,300659.0,294631.0,302675.0,296644.0,14
4,0,0,0,1,9,test,1,0,m,Thu Oct 23 2025 19:07:42 GMT-0500 (Central Daylight Time),316306.40000009537,I,z,1614,15,3,110.bmp,-120,-120,111.bmp,120,-120,112.bmp,-120,120,113.bmp,120,120,9659.0,306647.40000009537,8018,no,SM,A,111.bmp,120,120,153855,147829,155871,149840,310240.0,304213.0,312256.0,306225.0,15
1,1,0,0,0,10,test,1,1,m,Thu Oct 23 2025 19:07:42 GMT-0500 (Central Daylight Time),325687.10000038147,I,m,1320,16,3,102.bmp,-120,-120,103.bmp,120,-120,104.bmp,-120,120,105.bmp,120,120,9377.200000286102,316309.90000009537,8018,no,SM,A,105.bmp,-120,-120,153855,147829,155871,149840,319903.0,313875.0,321919.0,315888.0,16
3,0,0,1,0,10,test,1,0,m,Thu Oct 23 2025 19:07:42 GMT-0500 (Central Daylight Time),335034.40000009537,I,z,1283,17,3,122.bmp,-120,-120,123.bmp,120,-120,124.bmp,-120,120,125.bmp,120,120,9344.099999904633,325690.30000019073,8018,no,SM,A,122.bmp,-120,120,153855,147829,155871,149840,329284.0,323256.0,331300.0,325268.0,17
1,1,0,0,0,11,test,1,1,z,Thu Oct 23 2025 19:07:42 GMT-0500 (Central Daylight Time),344315.60000038147,I,z,1231,18,3,106.bmp,-120,-120,107.bmp,120,-120,108.bmp,-120,120,109.bmp,120,120,9277.900000095367,335037.7000002861,8018,yes,SM,A,106.bmp,-120,-120,153855,147829,155871,149840,338631.0,332603.0,340647.0,334616.0,18
2,0,1,0,0,12,test,1,1,z,Thu Oct 23 2025 19:07:42 GMT-0500 (Central Daylight Time),353778.0,I,z,1414,19,3,126.bmp,-120,-120,127.bmp,120,-120,128.bmp,-120,120,129.bmp,120,120,9459.099999904633,344318.90000009537,8018,yes,SM,A,127.bmp,120,-120,153855,147829,155871,149840,347911.0,341884.0,349928.0,343896.0,19
3,0,0,1,0,13,test,1,1,z,Thu Oct 23 2025 19:07:42 GMT-0500 (Central Daylight Time),363008.7000002861,I,z,1176,20,3,130.bmp,-120,-120,131.bmp,120,-120,132.bmp,-120,120,133.bmp,120,120,9227.099999904633,353781.60000038147,8018,yes,SM,A,132.bmp,-120,120,153855,147829,155871,149840,357375.0,351347.0,359391.0,353360.0,20
1,1,0,0,0,13,test,1,0,m,Thu Oct 23 2025 19:07:42 GMT-0500 (Central Daylight Time),372822.10000038147,I,z,1753,21,3,114.bmp,-120,-120,115.bmp,120,-120,116.bmp,-120,120,117.bmp,120,120,9810.700000286102,363011.40000009537,8018,no,SM,A,116.bmp,-120,-120,153855,147829,155871,149840,366605.0,360577.0,368621.0,362590.0,21
4,0,0,0,1,13,test,1,0,z,Thu Oct 23 2025 19:07:42 GMT-0500 (Central Daylight Time),382885.80000019073,I,None,2016,22,3,118.bmp,-120,-120,119.bmp,120,-120,120.bmp,-120,120,121.bmp,120,120,10060.800000190735,372825.0,8018,yes,SM,A,121.bmp,120,120,153855,147829,155871,149840,376419.0,370390.0,378435.0,372404.0,22
1,1,0,0,0,14,test,1,1,m,Thu Oct 23 2025 19:07:42 GMT-0500 (Central Daylight Time),392232.7000002861,I,m,1284,23,3,134.bmp,-120,-120,135.bmp,120,-120,136.bmp,-120,120,137.bmp,120,120,9343.200000286102,382889.5,8018,no,SM,A,137.bmp,-120,-120,153855,147829,155871,149840,386482.0,380455.0,388498.0,382467.0,23
2,0,1,0,0,15,test,1,1,z,Thu Oct 23 2025 19:07:42 GMT-0500 (Central Daylight Time),401663.2000002861,I,z,1376,24,3,142.bmp,-120,-120,143.bmp,120,-120,144.bmp,-120,120,145.bmp,120,120,9427.5,392235.7000002861,8018,yes,SM,A,143.bmp,120,-120,153855,147829,155871,149840,395829.0,389801.0,397846.0,391814.0,24
4,0,0,0,1,16,test,1,1,m,Thu Oct 23 2025 19:07:42 GMT-0500 (Central Daylight Time),411360.2000002861,I,m,1634,25,3,146.bmp,-120,-120,147.bmp,120,-120,148.bmp,-120,120,149.bmp,120,120,9694.200000286102,401666.0,8018,no,SM,A,148.bmp,120,120,153855,147829,155871,149840,405260.0,399231.0,407276.0,401245.0,25
1,1,0,0,0,17,test,1,1,z,Thu Oct 23 2025 19:07:42 GMT-0500 (Central Daylight Time),420940.5,I,z,1522,26,3,138.bmp,-120,-120,139.bmp,120,-120,140.bmp,-120,120,141.bmp,120,120,9576.699999809265,411363.80000019073,8018,yes,SM,A,138.bmp,-120,-120,153855,147829,155871,149840,414957.0,408929.0,416973.0,410942.0,26
4,0,0,0,1,18,test,1,1,z,Thu Oct 23 2025 19:07:42 GMT-0500 (Central Daylight Time),430370.90000009537,I,z,1373,27,3,150.bmp,-120,-120,111.bmp,120,-120,101.bmp,-120,120,102.bmp,120,120,9425.199999809265,420945.7000002861,8018,yes,SM,A,102.bmp,120,120,153855,147829,155871,149840,424537.0,418511.0,426553.0,420522.0,27
3,0,0,1,0,19,test,1,1,m,Thu Oct 23 2025 19:07:42 GMT-0500 (Central Daylight Time),440117.80000019073,I,m,1687,28,3,103.bmp,-120,-120,104.bmp,120,-120,105.bmp,-120,120,106.bmp,120,120,9743.599999904633,430374.2000002861,8018,no,SM,A,103.bmp,-120,120,153855,147829,155871,149840,433968.0,427939.0,435984.0,429953.0,28
2,0,1,0,0,20,test,1,1,z,Thu Oct 23 2025 19:07:42 GMT-0500 (Central Daylight Time),449731.40000009537,I,z,1580,29,3,107.bmp,-120,-120,108.bmp,120,-120,109.bmp,-120,120,110.bmp,120,120,9609.799999713898,440121.60000038147,8018,yes,SM,A,108.bmp,120,-120,153855,147829,155871,149840,443698.0,437687.0,445714.0,439692.0,29
3,0,0,1,0,21,test,1,1,z,Thu Oct 23 2025 19:07:42 GMT-0500 (Central Daylight Time),458928.5,I,z,1134,30,3,111.bmp,-120,-120,112.bmp,120,-120,113.bmp,-120,120,114.bmp,120,120,9193.599999904633,449734.90000009537,8018,yes,SM,A,113.bmp,-120,120,153855,147829,155871,149840,453328.0,447300.0,455344.0,449313.0,30
1,1,0,0,0,22,test,1,1,z,Thu Oct 23 2025 19:07:42 GMT-0500 (Central Daylight Time),468309.0,I,z,1330,31,3,115.bmp,-120,-120,116.bmp,120,-120,117.bmp,-120,120,118.bmp,120,120,9376.799999713898,458932.2000002861,8018,yes,SM,A,115.bmp,-120,-120,153855,147829,155871,149840,462525.0,456497.0,464541.0,458510.0,31
2,0,1,0,0,23,test,1,1,m,Thu Oct 23 2025 19:07:42 GMT-0500 (Central Daylight Time),477672.80000019073,I,m,1309,32,3,119.bmp,-120,-120,120.bmp,120,-120,121.bmp,-120,120,122.bmp,120,120,9360.699999809265,468312.10000038147,8018,no,SM,A,119.bmp,120,-120,153855,147829,155871,149840,471906.0,465878.0,473922.0,467890.0,32
4,0,0,0,1,24,test,1,1,z,Thu Oct 23 2025 19:07:42 GMT-0500 (Central Daylight Time),487070.10000038147,I,z,1345,33,3,131.bmp,-120,-120,132.bmp,120,-120,133.bmp,-120,120,134.bmp,120,120,9393.60000038147,477676.5,8018,yes,SM,A,134.bmp,120,120,153855,147829,155871,149840,481269.0,475242.0,483286.0,477254.0,33
2,0,1,0,0,25,test,1,1,z,Thu Oct 23 2025 19:07:42 GMT-0500 (Central Daylight Time),496350.30000019073,I,z,1137,34,3,123.bmp,-120,-120,124.bmp,120,-120,125.bmp,-120,120,126.bmp,120,120,9276.900000095367,487073.40000009537,8018,yes,SM,A,124.bmp,120,-120,153855,147829,155871,149840,490750.0,484639.0,492766.0,486747.0,34
4,0,0,0,1,26,test,1,1,m,Thu Oct 23 2025 19:07:42 GMT-0500 (Central Daylight Time),506163.60000038147,I,m,1764,35,3,127.bmp,-120,-120,128.bmp,120,-120,129.bmp,-120,120,130.bmp,120,120,9808.700000286102,496354.90000009537,8018,no,SM,A,129.bmp,120,120,153855,147829,155871,149840,499947.0,493920.0,501963.0,495933.0,35
3,0,0,1,0,26,test,1,0,m,Thu Oct 23 2025 19:07:42 GMT-0500 (Central Daylight Time),515977.5,I,z,1750,36,3,135.bmp,-120,-120,136.bmp,120,-120,137.bmp,-120,120,138.bmp,120,120,9810.099999904633,506167.40000009537,8018,no,SM,A,135.bmp,-120,120,153855,147829,155871,149840,509760.0,503733.0,511777.0,505745.0,36
1,1,0,0,0,27,test,1,1,m,Thu Oct 23 2025 19:07:42 GMT-0500 (Central Daylight Time),525474.4000000954,I,m,1448,37,3,139.bmp,-120,-120,140.bmp,120,-120,141.bmp,-120,120,142.bmp,120,120,9493.0,515981.40000009537,8018,no,SM,A,140.bmp,-120,-120,153855,147829,155871,149840,519574.0,513547.0,521590.0,515559.0,37
2,0,1,0,0,28,test,1,1,m,Thu Oct 23 2025 19:07:42 GMT-0500 (Central Daylight Time),534938.0,I,m,1407,38,3,143.bmp,-120,-120,144.bmp,120,-120,145.bmp,-120,120,146.bmp,120,120,9460.89999961853,525477.1000003815,8018,no,SM,A,145.bmp,120,-120,153855,147829,155871,149840,529071.0,523042.0,531087.0,525056.0,38
4,0,0,0,1,29,test,1,1,z,Thu Oct 23 2025 19:07:42 GMT-0500 (Central Daylight Time),544318.3000001907,I,z,1327,39,3,147.bmp,-120,-120,148.bmp,120,-120,149.bmp,-120,120,150.bmp,120,120,9376.699999809265,534941.6000003815,8018,yes,SM,A,150.bmp,120,120,153855,147829,155871,149840,538535.0,532507.0,540551.0,534519.0,39
3,0,0,1,0,30,test,1,1,m,Thu Oct 23 2025 19:07:42 GMT-0500 (Central Daylight Time),553798.7000002861,I,m,1420,40,3,104.bmp,-120,-120,105.bmp,120,-120,106.bmp,-120,120,107.bmp,120,120,9476.900000095367,544321.8000001907,8018,no,SM,A,105.bmp,-120,120,153855,147829,155871,149840,547915.0,541887.0,549931.0,543900.0,40
1,1,0,0,0,31,test,1,1,z,Thu Oct 23 2025 19:07:42 GMT-0500 (Central Daylight Time),563129.4000000954,I,z,1158,41,3,108.bmp,-120,-120,109.bmp,120,-120,110.bmp,-120,120,111.bmp,120,120,9327.799999713898,553801.6000003815,8018,yes,SM,A,108.bmp,-120,-120,153855,147829,155871,149840,557524.0,551367.0,559528.0,553380.0,41
4,0,0,0,1,32,test,1,1,z,Thu Oct 23 2025 19:07:42 GMT-0500 (Central Daylight Time),572459.8000001907,I,z,1272,42,3,112.bmp,-120,-120,113.bmp,120,-120,114.bmp,-120,120,115.bmp,120,120,9327.400000095367,563132.4000000954,8018,yes,SM,A,115.bmp,120,120,153855,147829,155871,149840,566726.0,560698.0,568742.0,562711.0,42
1,1,0,0,0,33,test,1,1,z,Thu Oct 23 2025 19:07:42 GMT-0500 (Central Daylight Time),581757.0,I,z,1238,43,3,116.bmp,-120,-120,117.bmp,120,-120,118.bmp,-120,120,119.bmp,120,120,9294.199999809265,572462.8000001907,8018,yes,SM,A,116.bmp,-120,-120,153855,147829,155871,149840,576056.0,570028.0,578073.0,572041.0,43
4,0,0,0,1,34,test,1,1,m,Thu Oct 23 2025 19:07:42 GMT-0500 (Central Daylight Time),591220.3000001907,I,m,1405,44,3,104.bmp,-120,-120,101.bmp,120,-120,102.bmp,-120,120,103.bmp,120,120,9460.300000190735,581760.0,8018,no,SM,A,104.bmp,120,120,153855,147829,155871,149840,585353.0,579325.0,587370.0,581338.0,44
1,1,0,0,0,35,test,1,1,m,Thu Oct 23 2025 19:07:42 GMT-0500 (Central Daylight Time),601268.1000003815,I,m,1998,45,3,128.bmp,-120,-120,129.bmp,120,-120,130.bmp,-120,120,131.bmp,120,120,10044.800000190735,591223.3000001907,8018,no,SM,A,131.bmp,-120,-120,153855,147829,155871,149840,594817.0,588789.0,596833.0,590802.0,45
1,1,0,0,0,36,test,1,1,m,Thu Oct 23 2025 19:07:42 GMT-0500 (Central Daylight Time),610997.7000002861,I,m,1671,46,3,120.bmp,-120,-120,121.bmp,120,-120,122.bmp,-120,120,123.bmp,120,120,9727.0,601270.7000002861,8018,no,SM,A,121.bmp,-120,-120,153855,147829,155871,149840,604873.0,598836.0,606880.0,600848.0,46
3,0,0,1,0,37,test,1,1,z,Thu Oct 23 2025 19:07:42 GMT-0500 (Central Daylight Time),620328.0,I,z,1269,47,3,124.bmp,-120,-120,125.bmp,120,-120,126.bmp,-120,120,127.bmp,120,120,9327.299999713898,611000.7000002861,8018,yes,SM,A,126.bmp,-120,120,153855,147829,155871,149840,614594.0,608566.0,616610.0,610579.0,47
3,0,0,1,0,38,test,1,1,z,Thu Oct 23 2025 19:07:42 GMT-0500 (Central Daylight Time),629658.2000002861,I,z,1281,48,3,140.bmp,-120,-120,141.bmp,120,-120,142.bmp,-120,120,143.bmp,120,120,9327.200000286102,620331.0,8018,yes,SM,A,142.bmp,-120,120,153855,147829,155871,149840,623926.0,617896.0,625941.0,619909.0,48
2,0,1,0,0,39,test,1,1,z,Thu Oct 23 2025 19:07:42 GMT-0500 (Central Daylight Time),638838.7000002861,I,z,1128,49,3,136.bmp,-120,-120,137.bmp,120,-120,138.bmp,-120,120,139.bmp,120,120,9177.0,629661.7000002861,8018,yes,SM,A,137.bmp,120,-120,153855,147829,155871,149840,633255.0,627227.0,635271.0,629240.0,49
3,0,0,1,0,40,test,1,1,m,Thu Oct 23 2025 19:07:42 GMT-0500 (Central Daylight Time),648485.8000001907,I,m,1596,50,3,132.bmp,-120,-120,133.bmp,120,-120,134.bmp,-120,120,135.bmp,120,120,9643.599999904633,638842.2000002861,8018,no,SM,A,132.bmp,-120,120,153855,147829,155871,149840,642436.0,636407.0,644451.0,638420.0,50
2,0,1,0,0,41,test,1,1,z,Thu Oct 23 2025 19:07:42 GMT-0500 (Central Daylight Time),657632.8000001907,I,z,1092,51,3,144.bmp,-120,-120,145.bmp,120,-120,146.bmp,-120,120,147.bmp,120,120,9141.800000190735,648491.0,8018,yes,SM,A,145.bmp,120,-120,153855,147829,155871,149840,652082.0,646056.0,654098.0,648067.0,51
4,0,0,0,1,42,test,1,1,m,Thu Oct 23 2025 19:07:42 GMT-0500 (Central Daylight Time),667013.0,I,m,1320,52,3,148.bmp,-120,-120,149.bmp,120,-120,150.bmp,-120,120,131.bmp,120,120,9377.299999713898,657635.7000002861,8018,no,SM,A,148.bmp,120,120,153855,147829,155871,149840,661230.0,655201.0,663246.0,657214.0,52
3,0,0,1,0,43,test,1,1,z,Thu Oct 23 2025 19:07:42 GMT-0500 (Central Daylight Time),676427.0,I,z,1357,53,3,101.bmp,-120,-120,102.bmp,120,-120,103.bmp,-120,120,104.bmp,120,120,9410.699999809265,667016.3000001907,8018,yes,SM,A,103.bmp,-120,120,153855,147829,155871,149840,670610.0,664581.0,672626.0,666595.0,53
1,1,0,0,0,43,test,1,0,m,Thu Oct 23 2025 19:07:42 GMT-0500 (Central Daylight Time),685740.9000000954,I,z,1263,54,3,105.bmp,-120,-120,106.bmp,120,-120,107.bmp,-120,120,108.bmp,120,120,9309.699999809265,676431.2000002861,8018,no,SM,A,107.bmp,-120,-120,153855,147829,155871,149840,680024.0,673996.0,682040.0,676008.0,54
4,0,0,0,1,44,test,1,1,z,Thu Oct 23 2025 19:07:42 GMT-0500 (Central Daylight Time),695555.4000000954,I,z,1764,55,3,109.bmp,-120,-120,110.bmp,120,-120,111.bmp,-120,120,112.bmp,120,120,9811.400000095367,685744.0,8018,yes,SM,A,112.bmp,120,120,153855,147829,155871,149840,689337.0,683310.0,691354.0,685322.0,55
2,0,1,0,0,44,test,1,0,m,Thu Oct 23 2025 19:07:42 GMT-0500 (Central Daylight Time),705618.0,I,None,2016,56,3,113.bmp,-120,-120,114.bmp,120,-120,115.bmp,-120,120,116.bmp,120,120,10059.199999809265,695558.8000001907,8018,no,SM,A,113.bmp,120,-120,153855,147829,155871,149840,699163.0,693124.0,701167.0,695136.0,56
4,0,0,0,1,44,test,1,0,m,Thu Oct 23 2025 19:07:42 GMT-0500 (Central Daylight Time),715281.6000003815,I,z,1600,57,3,117.bmp,-120,-120,118.bmp,120,-120,119.bmp,-120,120,120.bmp,120,120,9660.200000286102,705621.4000000954,8018,no,SM,A,118.bmp,120,120,153855,147829,155871,149840,709215.0,703187.0,711231.0,705199.0,57
3,0,0,1,0,45,test,1,1,z,Thu Oct 23 2025 19:07:42 GMT-0500 (Central Daylight Time),724511.7000002861,I,z,1176,58,3,121.bmp,-120,-120,122.bmp,120,-120,123.bmp,-120,120,124.bmp,120,120,9227.300000190735,715284.4000000954,8018,yes,SM,A,123.bmp,-120,120,153855,147829,155871,149840,718878.0,712850.0,720894.0,714863.0,58
2,0,1,0,0,46,test,1,1,m,Thu Oct 23 2025 19:07:42 GMT-0500 (Central Daylight Time),733742.5,I,m,1170,59,3,125.bmp,-120,-120,126.bmp,120,-120,127.bmp,-120,120,128.bmp,120,120,9228.199999809265,724514.3000001907,8018,no,SM,A,128.bmp,120,-120,153855,147829,155871,149840,728109.0,722080.0,730125.0,724094.0,59
1,1,0,0,0,47,test,1,1,z,Thu Oct 23 2025 19:07:42 GMT-0500 (Central Daylight Time),743589.4000000954,I,z,1796,60,3,129.bmp,-120,-120,130.bmp,120,-120,131.bmp,-120,120,132.bmp,120,120,9843.699999809265,733745.7000002861,8018,yes,SM,A,129.bmp,-120,-120,153855,147829,155871,149840,737339.0,731311.0,739355.0,733324.0,60
2,0,1,0,0,48,test,1,1,z,Thu Oct 23 2025 19:07:42 GMT-0500 (Central Daylight Time),753569.6000003815,I,z,1917,61,3,133.bmp,-120,-120,134.bmp,120,-120,135.bmp,-120,120,136.bmp,120,120,9977.400000095367,743592.2000002861,8018,yes,SM,A,134.bmp,120,-120,153855,147829,155871,149840,747186.0,741157.0,749202.0,743171.0,61
4,0,0,0,1,49,test,1,1,z,Thu Oct 23 2025 19:07:42 GMT-0500 (Central Daylight Time),762733.2000002861,I,z,1113,62,3,141.bmp,-120,-120,142.bmp,120,-120,143.bmp,-120,120,144.bmp,120,120,9161.099999904633,753572.1000003815,8018,yes,SM,A,144.bmp,120,120,153855,147829,155871,149840,757166.0,751137.0,759182.0,753151.0,62
1,1,0,0,0,49,test,1,0,m,Thu Oct 23 2025 19:07:42 GMT-0500 (Central Daylight Time),771980.6000003815,I,z,1197,63,3,145.bmp,-120,-120,146.bmp,120,-120,147.bmp,-120,120,148.bmp,120,120,9244.60000038147,762736.0,8018,no,SM,A,145.bmp,-120,120,153855,147829,155871,149840,766330.0,760301.0,768346.0,762316.0,63
2,0,1,0,0,50,test,1,1,z,Thu Oct 23 2025 19:07:42 GMT-0500 (Central Daylight Time),781360.8000001907,I,z,1317,64,3,149.bmp,-120,-120,150.bmp,120,-120,112.bmp,-120,120,101.bmp,120,120,9377.300000190735,771983.5,8018,yes,SM,A,150.bmp,120,-120,153855,147829,155871,149840,775577.0,769549.0,777593.0,771562.0,64
4,0,0,0,1,50,test,1,0,m,Thu Oct 23 2025 19:07:42 GMT-0500 (Central Daylight Time),791424.6000003815,I,None,2015,65,3,102.bmp,-120,-120,103.bmp,120,-120,104.bmp,-120,120,105.bmp,120,120,10060.60000038147,781364.0,8018,no,SM,A,104.bmp,120,120,153855,147829,155871,149840,784957.0,778929.0,786974.0,780942.0,65
3,0,0,1,0,51,test,1,1,m,Thu Oct 23 2025 19:07:42 GMT-0500 (Central Daylight Time),800904.5,I,m,1425,66,3,106.bmp,-120,-120,107.bmp,120,-120,108.bmp,-120,120,109.bmp,120,120,9477.299999713898,791427.2000002861,8018,no,SM,A,109.bmp,-120,120,153855,147829,155871,149840,795021.0,788992.0,797037.0,791006.0,66
2,0,1,0,0,52,test,1,1,m,Thu Oct 23 2025 19:07:42 GMT-0500 (Central Daylight Time),810135.2000002861,I,m,1168,67,3,137.bmp,-120,-120,138.bmp,120,-120,139.bmp,-120,120,140.bmp,120,120,9227.099999904633,800908.1000003815,8018,no,SM,A,139.bmp,120,-120,153855,147829,155871,149840,804501.0,798473.0,806517.0,800486.0,67
3,0,0,1,0,53,test,1,1,z,Thu Oct 23 2025 19:07:42 GMT-0500 (Central Daylight Time),819557.4000000954,I,z,1374,68,3,110.bmp,-120,-120,111.bmp,120,-120,112.bmp,-120,120,113.bmp,120,120,9419.0,810138.4000000954,8018,yes,SM,A,112.bmp,-120,120,153855,147829,155871,149840,813732.0,807704.0,815748.0,809717.0,68
1,1,0,0,0,54,test,1,1,m,Thu Oct 23 2025 19:07:42 GMT-0500 (Central Daylight Time),828979.1000003815,I,m,1372,69,3,114.bmp,-120,-120,115.bmp,120,-120,116.bmp,-120,120,117.bmp,120,120,9418.60000038147,819560.5,8018,no,SM,A,115.bmp,-120,-120,153855,147829,155871,149840,823145.0,817126.0,825162.0,819130.0,69
2,0,1,0,0,55,test,1,1,m,Thu Oct 23 2025 19:07:42 GMT-0500 (Central Daylight Time),838142.9000000954,I,m,1102,70,3,118.bmp,-120,-120,119.bmp,120,-120,120.bmp,-120,120,121.bmp,120,120,9160.299999713898,828982.6000003815,8018,no,SM,A,120.bmp,120,-120,153855,147829,155871,149840,832576.0,826548.0,834592.0,828560.0,70
4,0,0,0,1,55,test,1,0,z,Thu Oct 23 2025 19:07:42 GMT-0500 (Central Daylight Time),847590.2000002861,I,m,1395,71,3,122.bmp,-120,-120,123.bmp,120,-120,124.bmp,-120,120,125.bmp,120,120,9444.0,838146.2000002861,8018,yes,SM,A,125.bmp,120,120,153855,147829,155871,149840,841739.0,835711.0,843756.0,837724.0,71
1,1,0,0,0,56,test,1,1,z,Thu Oct 23 2025 19:07:42 GMT-0500 (Central Daylight Time),856870.5,I,z,1219,72,3,126.bmp,-120,-120,127.bmp,120,-120,128.bmp,-120,120,129.bmp,120,120,9277.099999904633,847593.4000000954,8018,yes,SM,A,126.bmp,-120,-120,153855,147829,155871,149840,851187.0,845159.0,853203.0,847171.0,72
2,0,1,0,0,56,test,1,0,z,Thu Oct 23 2025 19:07:42 GMT-0500 (Central Daylight Time),866934.1000003815,I,None,2016,73,3,130.bmp,-120,-120,131.bmp,120,-120,132.bmp,-120,120,133.bmp,120,120,10060.800000190735,856873.3000001907,8018,yes,SM,A,131.bmp,120,-120,153855,147829,155871,149840,860467.0,854439.0,862483.0,856452.0,73
4,0,0,0,1,57,test,1,1,m,Thu Oct 23 2025 19:07:42 GMT-0500 (Central Daylight Time),876497.7000002861,I,m,1508,74,3,134.bmp,-120,-120,135.bmp,120,-120,136.bmp,-120,120,137.bmp,120,120,9560.400000095367,866937.3000001907,8018,no,SM,A,136.bmp,120,120,153855,147829,155871,149840,870531.0,864503.0,872547.0,866515.0,74
2,0,1,0,0,58,test,1,1,m,Thu Oct 23 2025 19:07:42 GMT-0500 (Central Daylight Time),886244.8000001907,I,m,1688,75,3,138.bmp,-120,-120,139.bmp,120,-120,140.bmp,-120,120,141.bmp,120,120,9744.199999809265,876500.6000003815,8018,no,SM,A,141.bmp,120,-120,153855,147829,155871,149840,880095.0,874066.0,882110.0,876079.0,75
1,1,0,0,0,59,test,1,1,z,Thu Oct 23 2025 19:07:42 GMT-0500 (Central Daylight Time),895691.7000002861,I,z,1390,76,3,142.bmp,-120,-120,143.bmp,120,-120,144.bmp,-120,120,145.bmp,120,120,9443.5,886248.2000002861,8018,yes,SM,A,142.bmp,-120,-120,153855,147829,155871,149840,889841.0,883814.0,891857.0,885826.0,76
3,0,0,1,0,60,test,1,1,z,Thu Oct 23 2025 19:07:42 GMT-0500 (Central Daylight Time),905288.3000001907,I,z,1542,77,3,150.bmp,-120,-120,111.bmp,120,-120,101.bmp,-120,120,102.bmp,120,120,9593.5,895694.8000001907,8018,yes,SM,A,101.bmp,-120,120,153855,147829,155871,149840,899288.0,893260.0,901304.0,895273.0,77
1,1,0,0,0,61,test,1,1,m,Thu Oct 23 2025 19:07:42 GMT-0500 (Central Daylight Time),914735.6000003815,I,m,1393,78,3,146.bmp,-120,-120,147.bmp,120,-120,148.bmp,-120,120,149.bmp,120,120,9443.800000190735,905291.8000001907,8018,no,SM,A,147.bmp,-120,-120,153855,147829,155871,149840,908885.0,902857.0,910901.0,904870.0,78
4,0,0,0,1,62,test,1,1,m,Thu Oct 23 2025 19:07:42 GMT-0500 (Central Daylight Time),924082.8000001907,I,m,1289,79,3,107.bmp,-120,-120,108.bmp,120,-120,109.bmp,-120,120,110.bmp,120,120,9342.400000095367,914740.4000000954,8018,no,SM,A,107.bmp,120,120,153855,147829,155871,149840,918332.0,912306.0,920349.0,914317.0,79
3,0,0,1,0,63,test,1,1,m,Thu Oct 23 2025 19:07:42 GMT-0500 (Central Daylight Time),933396.4000000954,I,m,1262,80,3,103.bmp,-120,-120,104.bmp,120,-120,105.bmp,-120,120,106.bmp,120,120,9309.900000095367,924086.5,8018,no,SM,A,106.bmp,-120,120,153855,147829,155871,149840,927679.0,921652.0,929696.0,923664.0,80
