acc_sum,block,block_c,change,condition,correct,correct_response,datetime,endtime,face,project,response,response_time,row_sel,session_number,start_end,starttime,subject_id,task,task_vers,trial
0,prac,1,,1-Back,,,Mon Jun 09 2025 18:56:24 GMT-0500 (Central Daylight Time),,124_o_f_d_a.png,O,space,6515,1,1,,,7170,VNB,A,0
1,prac,1,0.0,1-Back,1,m,Mon Jun 09 2025 18:56:24 GMT-0500 (Central Daylight Time),113270.70000004768,071_y_f_n_a.png,O,m,1057,2,1,1890.0,111380.70000004768,7170,VNB,A,1
1,prac,1,0.0,1-Back,0,m,Mon Jun 09 2025 18:56:24 GMT-0500 (Central Daylight Time),116136.0,165_m_m_h_a.png,O,None,2016,3,1,2831.5,113304.5,7170,VNB,A,2
2,prac,1,0.0,1-Back,1,m,Mon Jun 09 2025 18:56:24 GMT-0500 (Central Daylight Time),118985.10000014305,109_y_m_d_a.png,O,m,1965,4,1,2806.7999999523163,116178.30000019073,7170,VNB,A,3
3,prac,1,0.0,1-Back,1,m,Mon Jun 09 2025 18:56:24 GMT-0500 (Central Daylight Time),121267.70000004768,124_o_f_n_a.png,O,m,1386,5,1,2256.5,119011.20000004768,7170,VNB,A,4
4,prac,1,1.0,1-Back,1,z,Mon Jun 09 2025 18:56:24 GMT-0500 (Central Daylight Time),123466.90000009537,109_y_m_n_a.png,O,z,1314,6,1,2160.2999999523163,121306.60000014305,7170,VNB,A,5
5,prac,1,0.0,1-Back,1,m,Mon Jun 09 2025 18:56:24 GMT-0500 (Central Daylight Time),125282.10000014305,039_o_m_h_a.png,O,m,967,7,1,1780.6000001430511,123501.5,7170,VNB,A,6
6,prac,1,0.0,1-Back,1,m,Mon Jun 09 2025 18:56:24 GMT-0500 (Central Daylight Time),127782.10000014305,139_m_f_d_a.png,O,m,1681,8,1,2489.4000000953674,125292.70000004768,7170,VNB,A,7
7,prac,1,1.0,1-Back,1,z,Mon Jun 09 2025 18:56:24 GMT-0500 (Central Daylight Time),129881.40000009537,071_y_f_d_a.png,O,z,1232,9,1,2060.5,127820.90000009537,7170,VNB,A,8
8,prac,1,0.0,1-Back,1,m,Mon Jun 09 2025 18:56:24 GMT-0500 (Central Daylight Time),131664.0,165_m_m_n_a.png,O,m,922,10,1,1745.1999998092651,129918.80000019073,7170,VNB,A,9
9,prac,1,0.0,1-Back,1,m,Mon Jun 09 2025 18:56:24 GMT-0500 (Central Daylight Time),133447.30000019073,124_o_f_h_a.png,O,m,922,11,1,1759.0,131688.30000019073,7170,VNB,A,10
10,prac,1,0.0,1-Back,1,m,Mon Jun 09 2025 18:56:24 GMT-0500 (Central Daylight Time),135780.0,109_y_m_d_a.png,O,m,1467,12,1,2293.0999999046326,133486.90000009537,7170,VNB,A,11
0,test,1,0.0,1-Back,,,Mon Jun 09 2025 18:56:24 GMT-0500 (Central Daylight Time),135780.0,071_y_f_d_a.png,O,space,2915,1,1,2293.0999999046326,133486.90000009537,7170,VNB,A,0
1,test,1,0.0,1-Back,1,m,Mon Jun 09 2025 18:56:24 GMT-0500 (Central Daylight Time),147342.5,139_m_f_n_a.png,O,m,1114,2,1,2122.0,145220.5,7170,VNB,A,1
2,test,1,0.0,1-Back,1,m,Mon Jun 09 2025 18:56:24 GMT-0500 (Central Daylight Time),149141.5,039_o_m_h_a.png,O,m,748,3,1,1765.5,147376.0,7170,VNB,A,2
3,test,1,1.0,1-Back,1,z,Mon Jun 09 2025 18:56:24 GMT-0500 (Central Daylight Time),151090.30000019073,165_m_m_h_a.png,O,z,907,4,1,1923.3000001907349,149167.0,7170,VNB,A,3
4,test,1,0.0,1-Back,1,m,Mon Jun 09 2025 18:56:24 GMT-0500 (Central Daylight Time),152889.70000004768,124_o_f_n_a.png,O,m,765,5,1,1790.5999999046326,151099.10000014305,7170,VNB,A,4
5,test,1,0.0,1-Back,1,m,Mon Jun 09 2025 18:56:24 GMT-0500 (Central Daylight Time),155039.90000009537,109_y_m_d_a.png,O,m,1128,6,1,2140.7000000476837,152899.20000004768,7170,VNB,A,5
5,test,1,1.0,1-Back,0,z,Mon Jun 09 2025 18:56:24 GMT-0500 (Central Daylight Time),157572.90000009537,139_m_f_d_a.png,O,m,1498,7,1,2507.4000000953674,155065.5,7170,VNB,A,6
6,test,1,0.0,1-Back,1,m,Mon Jun 09 2025 18:56:24 GMT-0500 (Central Daylight Time),159837.70000004768,071_y_f_h_a.png,O,m,1205,8,1,2232.2999999523163,157605.40000009537,7170,VNB,A,7
7,test,1,0.0,1-Back,1,m,Mon Jun 09 2025 18:56:24 GMT-0500 (Central Daylight Time),162171.0,039_o_m_n_a.png,O,m,1285,9,1,2314.699999809265,159856.30000019073,7170,VNB,A,8
8,test,1,0.0,1-Back,1,m,Mon Jun 09 2025 18:56:24 GMT-0500 (Central Daylight Time),164685.70000004768,109_y_m_h_a.png,O,m,1470,10,1,2486.899999856949,162198.80000019073,7170,VNB,A,9
9,test,1,0.0,1-Back,1,m,Mon Jun 09 2025 18:56:24 GMT-0500 (Central Daylight Time),166619.5,039_o_m_d_a.png,O,m,908,11,1,1925.2999999523163,164694.20000004768,7170,VNB,A,10
10,test,1,1.0,1-Back,1,z,Mon Jun 09 2025 18:56:24 GMT-0500 (Central Daylight Time),168568.80000019073,124_o_f_d_a.png,O,z,902,12,1,1924.6000001430511,166644.20000004768,7170,VNB,A,11
11,test,1,0.0,1-Back,1,m,Mon Jun 09 2025 18:56:24 GMT-0500 (Central Daylight Time),170450.60000014305,165_m_m_n_a.png,O,m,814,13,1,1847.2999999523163,168603.30000019073,7170,VNB,A,12
12,test,1,1.0,1-Back,1,z,Mon Jun 09 2025 18:56:24 GMT-0500 (Central Daylight Time),172500.80000019073,071_y_f_n_a.png,O,z,1023,14,1,2041.4000000953674,170459.40000009537,7170,VNB,A,13
13,test,1,0.0,1-Back,1,m,Mon Jun 09 2025 18:56:24 GMT-0500 (Central Daylight Time),174416.20000004768,139_m_f_h_a.png,O,m,869,15,1,1889.7999999523163,172526.40000009537,7170,VNB,A,14
14,test,1,0.0,1-Back,1,m,Mon Jun 09 2025 18:56:24 GMT-0500 (Central Daylight Time),176415.90000009537,165_m_m_d_a.png,O,m,952,16,1,1981.5999999046326,174434.30000019073,7170,VNB,A,15
15,test,1,0.0,1-Back,1,m,Mon Jun 09 2025 18:56:24 GMT-0500 (Central Daylight Time),178282.30000019073,109_y_m_n_a.png,O,m,819,17,1,1844.7000000476837,176437.60000014305,7170,VNB,A,16
16,test,1,0.0,1-Back,1,m,Mon Jun 09 2025 18:56:24 GMT-0500 (Central Daylight Time),180364.0,124_o_f_h_a.png,O,m,1048,18,1,2054.2999999523163,178309.70000004768,7170,VNB,A,17
0,test,2,0.0,1-Back,,,Mon Jun 09 2025 18:56:24 GMT-0500 (Central Daylight Time),180364.0,109_y_m_n_a.png,O,space,1885,1,1,2054.2999999523163,178309.70000004768,7170,VNB,A,0
1,test,2,0.0,1-Back,1,m,Mon Jun 09 2025 18:56:24 GMT-0500 (Central Daylight Time),186128.80000019073,071_y_f_h_a.png,O,m,824,2,1,1839.8000001907349,184289.0,7170,VNB,A,1
2,test,2,1.0,1-Back,1,m,Mon Jun 09 2025 18:56:24 GMT-0500 (Central Daylight Time),188079.10000014305,039_o_m_n_a.png,O,m,921,3,1,1940.7999999523163,186138.30000019073,7170,VNB,A,2
2,test,2,0.0,1-Back,0,m,Mon Jun 09 2025 18:56:24 GMT-0500 (Central Daylight Time),190510.60000014305,139_m_f_d_a.png,O,z,1371,4,1,2397.9000000953674,188112.70000004768,7170,VNB,A,3
2,test,2,0.0,1-Back,0,z,Mon Jun 09 2025 18:56:24 GMT-0500 (Central Daylight Time),192594.20000004768,165_m_m_d_a.png,O,m,1051,5,1,2074.2000000476837,190520.0,7170,VNB,A,4
3,test,2,0.0,1-Back,1,m,Mon Jun 09 2025 18:56:24 GMT-0500 (Central Daylight Time),194593.40000009537,109_y_m_h_a.png,O,m,953,6,1,1972.5,192620.90000009537,7170,VNB,A,5
4,test,2,1.0,1-Back,1,z,Mon Jun 09 2025 18:56:24 GMT-0500 (Central Daylight Time),196475.30000019073,124_o_f_h_a.png,O,z,841,7,1,1856.4000000953674,194618.90000009537,7170,VNB,A,6
5,test,2,0.0,1-Back,1,m,Mon Jun 09 2025 18:56:24 GMT-0500 (Central Daylight Time),198458.80000019073,139_m_f_n_a.png,O,m,950,8,1,1974.1000001430511,196484.70000004768,7170,VNB,A,7
6,test,2,0.0,1-Back,1,m,Mon Jun 09 2025 18:56:24 GMT-0500 (Central Daylight Time),200740.5,071_y_f_d_a.png,O,m,1229,9,1,2247.7999999523163,198492.70000004768,7170,VNB,A,8
7,test,2,0.0,1-Back,1,m,Mon Jun 09 2025 18:56:24 GMT-0500 (Central Daylight Time),202673.90000009537,165_m_m_n_a.png,O,m,908,10,1,1923.2000000476837,200750.70000004768,7170,VNB,A,9
8,test,2,1.0,1-Back,1,m,Mon Jun 09 2025 18:56:24 GMT-0500 (Central Daylight Time),204806.20000004768,139_m_f_h_a.png,O,m,1089,11,1,2105.5999999046326,202700.60000014305,7170,VNB,A,10
9,test,2,0.0,1-Back,1,z,Mon Jun 09 2025 18:56:24 GMT-0500 (Central Daylight Time),206805.80000019073,039_o_m_h_a.png,O,z,955,12,1,1980.9000000953674,204824.90000009537,7170,VNB,A,11
10,test,2,0.0,1-Back,1,m,Mon Jun 09 2025 18:56:24 GMT-0500 (Central Daylight Time),208755.5,109_y_m_d_a.png,O,m,909,13,1,1932.7999999523163,206822.70000004768,7170,VNB,A,12
11,test,2,0.0,1-Back,1,m,Mon Jun 09 2025 18:56:24 GMT-0500 (Central Daylight Time),210987.40000009537,124_o_f_n_a.png,O,m,1172,14,1,2199.5,208787.90000009537,7170,VNB,A,13
12,test,2,0.0,1-Back,1,z,Mon Jun 09 2025 18:56:24 GMT-0500 (Central Daylight Time),213120.90000009537,071_y_f_n_a.png,O,z,1102,15,1,2124.2000000476837,210996.70000004768,7170,VNB,A,14
13,test,2,1.0,1-Back,1,m,Mon Jun 09 2025 18:56:24 GMT-0500 (Central Daylight Time),215169.5,165_m_m_h_a.png,O,m,982,16,1,2011.6999998092651,213157.80000019073,7170,VNB,A,15
14,test,2,0.0,1-Back,1,m,Mon Jun 09 2025 18:56:24 GMT-0500 (Central Daylight Time),217169.70000004768,124_o_f_d_a.png,O,m,968,17,1,1988.2999999523163,215181.40000009537,7170,VNB,A,16
14,test,2,1.0,1-Back,0,z,Mon Jun 09 2025 18:56:24 GMT-0500 (Central Daylight Time),219567.80000019073,039_o_m_d_a.png,O,m,1335,18,1,2359.800000190735,217208.0,7170,VNB,A,17
0,test,3,1.0,1-Back,,,Mon Jun 09 2025 18:56:24 GMT-0500 (Central Daylight Time),219567.80000019073,124_o_f_h_a.png,O,space,2172,1,1,2359.800000190735,217208.0,7170,VNB,A,0
1,test,3,0.0,1-Back,1,m,Mon Jun 09 2025 18:56:24 GMT-0500 (Central Daylight Time),225716.70000004768,139_m_f_d_a.png,O,m,840,2,1,1858.2000000476837,223858.5,7170,VNB,A,1
2,test,3,1.0,1-Back,1,m,Mon Jun 09 2025 18:56:24 GMT-0500 (Central Daylight Time),227682.70000004768,165_m_m_n_a.png,O,m,927,3,1,1938.8999998569489,225743.80000019073,7170,VNB,A,2
3,test,3,0.0,1-Back,1,z,Mon Jun 09 2025 18:56:24 GMT-0500 (Central Daylight Time),229864.40000009537,124_o_f_n_a.png,O,z,1117,4,1,2147.7999999523163,227716.60000014305,7170,VNB,A,3
4,test,3,1.0,1-Back,1,m,Mon Jun 09 2025 18:56:24 GMT-0500 (Central Daylight Time),231731.20000004768,039_o_m_d_a.png,O,m,840,5,1,1857.3999998569489,229873.80000019073,7170,VNB,A,4
5,test,3,0.0,1-Back,1,m,Mon Jun 09 2025 18:56:24 GMT-0500 (Central Daylight Time),233614.20000004768,071_y_f_h_a.png,O,m,840,6,1,1859.2999999523163,231754.90000009537,7170,VNB,A,5
6,test,3,0.0,1-Back,1,z,Mon Jun 09 2025 18:56:24 GMT-0500 (Central Daylight Time),235729.30000019073,109_y_m_h_a.png,O,z,1058,7,1,2078.4000000953674,233650.90000009537,7170,VNB,A,6
7,test,3,0.0,1-Back,1,m,Mon Jun 09 2025 18:56:24 GMT-0500 (Central Daylight Time),237712.5,139_m_f_n_a.png,O,m,960,8,1,1973.0,235739.5,7170,VNB,A,7
8,test,3,0.0,1-Back,1,m,Mon Jun 09 2025 18:56:24 GMT-0500 (Central Daylight Time),239611.30000019073,071_y_f_d_a.png,O,m,856,9,1,1870.4000000953674,237740.90000009537,7170,VNB,A,8
9,test,3,1.0,1-Back,1,m,Mon Jun 09 2025 18:56:24 GMT-0500 (Central Daylight Time),241893.80000019073,039_o_m_n_a.png,O,m,1253,10,1,2270.7000000476837,239623.10000014305,7170,VNB,A,9
10,test,3,0.0,1-Back,1,m,Mon Jun 09 2025 18:56:24 GMT-0500 (Central Daylight Time),244026.40000009537,165_m_m_h_a.png,O,m,1100,11,1,2118.5999999046326,241907.80000019073,7170,VNB,A,10
11,test,3,0.0,1-Back,1,z,Mon Jun 09 2025 18:56:24 GMT-0500 (Central Daylight Time),245825.90000009537,139_m_f_h_a.png,O,z,774,12,1,1789.4000000953674,244036.5,7170,VNB,A,11
12,test,3,1.0,1-Back,1,m,Mon Jun 09 2025 18:56:24 GMT-0500 (Central Daylight Time),247743.0,124_o_f_d_a.png,O,m,887,13,1,1907.6999998092651,245835.30000019073,7170,VNB,A,12
12,test,3,0.0,1-Back,0,z,Mon Jun 09 2025 18:56:24 GMT-0500 (Central Daylight Time),249675.20000004768,165_m_m_d_a.png,O,m,876,14,1,1896.7999999523163,247778.40000009537,7170,VNB,A,13
13,test,3,0.0,1-Back,1,m,Mon Jun 09 2025 18:56:24 GMT-0500 (Central Daylight Time),251691.5,109_y_m_n_a.png,O,m,949,15,1,1980.8999998569489,249710.60000014305,7170,VNB,A,14
14,test,3,1.0,1-Back,1,m,Mon Jun 09 2025 18:56:24 GMT-0500 (Central Daylight Time),253574.0,039_o_m_h_a.png,O,m,848,16,1,1854.2999999523163,251719.70000004768,7170,VNB,A,15
15,test,3,0.0,1-Back,1,m,Mon Jun 09 2025 18:56:24 GMT-0500 (Central Daylight Time),255722.80000019073,109_y_m_d_a.png,O,m,1098,17,1,2116.100000143051,253606.70000004768,7170,VNB,A,16
16,test,3,1.0,1-Back,1,m,Mon Jun 09 2025 18:56:24 GMT-0500 (Central Daylight Time),257722.80000019073,071_y_f_n_a.png,O,m,975,18,1,1990.5,255732.30000019073,7170,VNB,A,17
0,test,4,1.0,1-Back,,,Mon Jun 09 2025 18:56:24 GMT-0500 (Central Daylight Time),257722.80000019073,165_m_m_d_a.png,O,space,1479,1,1,1990.5,255732.30000019073,7170,VNB,A,0
0,test,4,0.0,1-Back,0,z,Mon Jun 09 2025 18:56:24 GMT-0500 (Central Daylight Time),263521.10000014305,039_o_m_d_a.png,O,m,1252,2,1,2274.7999999523163,261246.30000019073,7170,VNB,A,1
1,test,4,0.0,1-Back,1,m,Mon Jun 09 2025 18:56:24 GMT-0500 (Central Daylight Time),265520.30000019073,109_y_m_h_a.png,O,m,946,3,1,1966.4000000953674,263553.90000009537,7170,VNB,A,2
2,test,4,0.0,1-Back,1,m,Mon Jun 09 2025 18:56:24 GMT-0500 (Central Daylight Time),267402.0,139_m_f_n_a.png,O,m,832,4,1,1853.0999999046326,265548.90000009537,7170,VNB,A,3
3,test,4,1.0,1-Back,1,m,Mon Jun 09 2025 18:56:24 GMT-0500 (Central Daylight Time),269421.30000019073,124_o_f_h_a.png,O,m,1000,5,1,2008.5,267412.80000019073,7170,VNB,A,4
4,test,4,0.0,1-Back,1,m,Mon Jun 09 2025 18:56:24 GMT-0500 (Central Daylight Time),271584.2000000477,165_m_m_n_a.png,O,m,1111,6,1,2131.899999856949,269452.30000019073,7170,VNB,A,5
5,test,4,0.0,1-Back,1,m,Mon Jun 09 2025 18:56:24 GMT-0500 (Central Daylight Time),273684.40000009537,109_y_m_d_a.png,O,m,1065,7,1,2089.5,271594.90000009537,7170,VNB,A,6
6,test,4,1.0,1-Back,1,z,Mon Jun 09 2025 18:56:24 GMT-0500 (Central Daylight Time),275583.7000000477,071_y_f_d_a.png,O,z,855,8,1,1872.5,273711.2000000477,7170,VNB,A,7
7,test,4,0.0,1-Back,1,m,Mon Jun 09 2025 18:56:24 GMT-0500 (Central Daylight Time),277548.80000019073,139_m_f_h_a.png,O,m,912,9,1,1929.1000001430511,275619.7000000477,7170,VNB,A,8
8,test,4,0.0,1-Back,1,z,Mon Jun 09 2025 18:56:24 GMT-0500 (Central Daylight Time),279432.40000009537,039_o_m_h_a.png,O,z,853,10,1,1874.7999999523163,277557.60000014305,7170,VNB,A,9
9,test,4,1.0,1-Back,1,m,Mon Jun 09 2025 18:56:24 GMT-0500 (Central Daylight Time),281348.80000019073,124_o_f_n_a.png,O,m,866,11,1,1878.8000001907349,279470.0,7170,VNB,A,10
10,test,4,0.0,1-Back,1,m,Mon Jun 09 2025 18:56:24 GMT-0500 (Central Daylight Time),283581.2000000477,139_m_f_d_a.png,O,m,1172,12,1,2199.0,281382.2000000477,7170,VNB,A,11
11,test,4,0.0,1-Back,1,m,Mon Jun 09 2025 18:56:24 GMT-0500 (Central Daylight Time),285429.60000014305,071_y_f_n_a.png,O,m,805,13,1,1817.7999999523163,283611.80000019073,7170,VNB,A,12
12,test,4,0.0,1-Back,1,m,Mon Jun 09 2025 18:56:24 GMT-0500 (Central Daylight Time),287478.7000000477,124_o_f_d_a.png,O,m,1021,14,1,2034.8999998569489,285443.80000019073,7170,VNB,A,13
13,test,4,0.0,1-Back,1,m,Mon Jun 09 2025 18:56:24 GMT-0500 (Central Daylight Time),289445.80000019073,071_y_f_h_a.png,O,m,938,15,1,1955.7000000476837,287490.10000014305,7170,VNB,A,14
14,test,4,1.0,1-Back,1,z,Mon Jun 09 2025 18:56:24 GMT-0500 (Central Daylight Time),291511.80000019073,165_m_m_h_a.png,O,z,1013,16,1,2029.2000000476837,289482.60000014305,7170,VNB,A,15
15,test,4,0.0,1-Back,1,m,Mon Jun 09 2025 18:56:24 GMT-0500 (Central Daylight Time),293560.40000009537,039_o_m_n_a.png,O,m,984,17,1,2013.7999999523163,291546.60000014305,7170,VNB,A,16
15,test,4,1.0,1-Back,0,z,Mon Jun 09 2025 18:56:24 GMT-0500 (Central Daylight Time),295693.7000000477,109_y_m_n_a.png,O,m,1105,18,1,2123.0999999046326,293570.60000014305,7170,VNB,A,17
0,test,5,1.0,1-Back,,,Mon Jun 09 2025 18:56:24 GMT-0500 (Central Daylight Time),295693.7000000477,039_o_m_n_a.png,O,space,1923,1,1,2123.0999999046326,293570.60000014305,7170,VNB,A,0
1,test,5,1.0,1-Back,1,m,Mon Jun 09 2025 18:56:24 GMT-0500 (Central Daylight Time),301475.0,124_o_f_h_a.png,O,m,776,2,1,1795.5,299679.5,7170,VNB,A,1
2,test,5,0.0,1-Back,1,m,Mon Jun 09 2025 18:56:24 GMT-0500 (Central Daylight Time),303506.90000009537,109_y_m_d_a.png,O,m,982,3,1,1995.7000000476837,301511.2000000477,7170,VNB,A,2
2,test,5,0.0,1-Back,0,z,Mon Jun 09 2025 18:56:24 GMT-0500 (Central Daylight Time),305657.10000014305,039_o_m_d_a.png,O,m,1120,4,1,2141.0,303516.10000014305,7170,VNB,A,3
3,test,5,0.0,1-Back,1,m,Mon Jun 09 2025 18:56:24 GMT-0500 (Central Daylight Time),307689.5,139_m_f_h_a.png,O,m,985,5,1,2001.0999999046326,305688.40000009537,7170,VNB,A,4
4,test,5,0.0,1-Back,1,m,Mon Jun 09 2025 18:56:24 GMT-0500 (Central Daylight Time),309739.10000014305,071_y_f_n_a.png,O,m,1008,6,1,2027.2000000476837,307711.90000009537,7170,VNB,A,5
5,test,5,1.0,1-Back,1,z,Mon Jun 09 2025 18:56:24 GMT-0500 (Central Daylight Time),311488.5,124_o_f_n_a.png,O,z,704,7,1,1719.0999999046326,309769.40000009537,7170,VNB,A,6
6,test,5,0.0,1-Back,1,m,Mon Jun 09 2025 18:56:24 GMT-0500 (Central Daylight Time),313437.5,139_m_f_d_a.png,O,m,915,8,1,1922.7999999523163,311514.7000000477,7170,VNB,A,7
7,test,5,0.0,1-Back,1,m,Mon Jun 09 2025 18:56:24 GMT-0500 (Central Daylight Time),315520.5,109_y_m_h_a.png,O,m,1044,9,1,2057.7999999523163,313462.7000000477,7170,VNB,A,8
7,test,5,0.0,1-Back,0,m,Mon Jun 09 2025 18:56:24 GMT-0500 (Central Daylight Time),317536.5,071_y_f_d_a.png,O,z,962,10,1,1978.2999999523163,315558.2000000477,7170,VNB,A,9
8,test,5,0.0,1-Back,1,m,Mon Jun 09 2025 18:56:24 GMT-0500 (Central Daylight Time),319651.60000014305,165_m_m_n_a.png,O,m,1080,11,1,2084.2999999523163,317567.30000019073,7170,VNB,A,10
9,test,5,1.0,1-Back,1,z,Mon Jun 09 2025 18:56:24 GMT-0500 (Central Daylight Time),321501.90000009537,139_m_f_n_a.png,O,z,824,12,1,1841.2999999523163,319660.60000014305,7170,VNB,A,11
10,test,5,0.0,1-Back,1,m,Mon Jun 09 2025 18:56:24 GMT-0500 (Central Daylight Time),323384.80000019073,039_o_m_h_a.png,O,m,838,13,1,1854.1000001430511,321530.7000000477,7170,VNB,A,12
10,test,5,0.0,1-Back,0,z,Mon Jun 09 2025 18:56:24 GMT-0500 (Central Daylight Time),325316.30000019073,165_m_m_h_a.png,O,m,879,14,1,1899.6000001430511,323416.7000000477,7170,VNB,A,13
11,test,5,1.0,1-Back,1,m,Mon Jun 09 2025 18:56:24 GMT-0500 (Central Daylight Time),327216.60000014305,124_o_f_d_a.png,O,m,877,15,1,1890.0,325326.60000014305,7170,VNB,A,14
11,test,5,0.0,1-Back,0,m,Mon Jun 09 2025 18:56:24 GMT-0500 (Central Daylight Time),329398.40000009537,109_y_m_n_a.png,O,z,1129,16,1,2149.2000000476837,327249.2000000477,7170,VNB,A,15
12,test,5,0.0,1-Back,1,m,Mon Jun 09 2025 18:56:24 GMT-0500 (Central Daylight Time),331281.40000009537,071_y_f_h_a.png,O,m,850,17,1,1873.9000000953674,329407.5,7170,VNB,A,16
13,test,5,0.0,1-Back,1,m,Mon Jun 09 2025 18:56:24 GMT-0500 (Central Daylight Time),333348.2000000477,165_m_m_d_a.png,O,m,1018,18,1,2044.0999999046326,331304.10000014305,7170,VNB,A,17
0,prac,1,0.0,2-Back,,,Mon Jun 09 2025 18:56:24 GMT-0500 (Central Daylight Time),333348.2000000477,139_m_f_n_a.png,O,space,7174,1,1,2044.0999999046326,331304.10000014305,7170,VNB,A,0
0,prac,1,0.0,2-Back,,,Mon Jun 09 2025 18:56:24 GMT-0500 (Central Daylight Time),333348.2000000477,124_o_f_h_a.png,O,space,7174,2,1,2044.0999999046326,331304.10000014305,7170,VNB,A,0
1,prac,1,0.0,2-Back,1,m,Mon Jun 09 2025 18:56:24 GMT-0500 (Central Daylight Time),422301.40000009537,039_o_m_d_a.png,O,m,1363,3,1,2189.7000000476837,420111.7000000477,7170,VNB,A,1
2,prac,1,1.0,2-Back,1,z,Mon Jun 09 2025 18:56:24 GMT-0500 (Central Daylight Time),424333.90000009537,165_m_m_h_a.png,O,z,1202,4,1,2018.2000000476837,422315.7000000477,7170,VNB,A,2
3,prac,1,0.0,2-Back,1,m,Mon Jun 09 2025 18:56:24 GMT-0500 (Central Daylight Time),426450.80000019073,071_y_f_n_a.png,O,m,1287,5,1,2101.300000190735,424349.5,7170,VNB,A,3
4,prac,1,1.0,2-Back,1,z,Mon Jun 09 2025 18:56:24 GMT-0500 (Central Daylight Time),428616.90000009537,039_o_m_h_a.png,O,z,1361,6,1,2134.9000000953674,426482.0,7170,VNB,A,4
4,prac,1,1.0,2-Back,0,z,Mon Jun 09 2025 18:56:24 GMT-0500 (Central Daylight Time),431031.80000019073,109_y_m_n_a.png,O,m,1539,7,1,2373.9000000953674,428657.90000009537,7170,VNB,A,5
5,prac,1,0.0,2-Back,1,m,Mon Jun 09 2025 18:56:24 GMT-0500 (Central Daylight Time),433597.5,139_m_f_d_a.png,O,m,1742,8,1,2553.2999999523163,431044.2000000477,7170,VNB,A,6
5,prac,1,0.0,2-Back,0,m,Mon Jun 09 2025 18:56:24 GMT-0500 (Central Daylight Time),436297.60000014305,124_o_f_d_a.png,O,z,1815,9,1,2688.4000000953674,433609.2000000477,7170,VNB,A,7
5,prac,1,0.0,2-Back,0,m,Mon Jun 09 2025 18:56:24 GMT-0500 (Central Daylight Time),438980.0,165_m_m_h_a.png,O,z,1815,10,1,2643.2999999523163,436336.7000000477,7170,VNB,A,8
5,prac,1,1.0,2-Back,0,z,Mon Jun 09 2025 18:56:24 GMT-0500 (Central Daylight Time),441195.10000014305,071_y_f_d_a.png,O,m,1335,11,1,2181.600000143051,439013.5,7170,VNB,A,9
5,prac,1,0.0,2-Back,0,m,Mon Jun 09 2025 18:56:24 GMT-0500 (Central Daylight Time),444027.60000014305,039_o_m_n_a.png,O,None,2007,12,1,2820.5,441207.10000014305,7170,VNB,A,10
0,prac,2,0.0,2-Back,,,Mon Jun 09 2025 18:56:24 GMT-0500 (Central Daylight Time),444027.60000014305,139_m_f_n_a.png,O,a,5770,1,1,2820.5,441207.10000014305,7170,VNB,A,0
0,prac,2,0.0,2-Back,,,Mon Jun 09 2025 18:56:24 GMT-0500 (Central Daylight Time),444027.60000014305,124_o_f_h_a.png,O,a,5770,2,1,2820.5,441207.10000014305,7170,VNB,A,0
1,prac,2,0.0,2-Back,1,m,Mon Jun 09 2025 18:56:24 GMT-0500 (Central Daylight Time),457023.90000009537,039_o_m_d_a.png,O,m,1189,3,1,2025.9000000953674,454998.0,7170,VNB,A,1
2,prac,2,1.0,2-Back,1,z,Mon Jun 09 2025 18:56:24 GMT-0500 (Central Daylight Time),459157.0,165_m_m_h_a.png,O,z,1295,4,1,2109.7999999523163,457047.2000000477,7170,VNB,A,2
3,prac,2,0.0,2-Back,1,m,Mon Jun 09 2025 18:56:24 GMT-0500 (Central Daylight Time),461588.40000009537,071_y_f_n_a.png,O,m,1571,5,1,2390.0999999046326,459198.30000019073,7170,VNB,A,3
4,prac,2,1.0,2-Back,1,z,Mon Jun 09 2025 18:56:24 GMT-0500 (Central Daylight Time),463738.7000000477,039_o_m_h_a.png,O,z,1316,6,1,2139.7000000476837,461599.0,7170,VNB,A,4
4,prac,2,1.0,2-Back,0,z,Mon Jun 09 2025 18:56:24 GMT-0500 (Central Daylight Time),466337.60000014305,109_y_m_n_a.png,O,m,1735,7,1,2571.7000000476837,463765.90000009537,7170,VNB,A,5
5,prac,2,0.0,2-Back,1,m,Mon Jun 09 2025 18:56:24 GMT-0500 (Central Daylight Time),468969.40000009537,139_m_f_d_a.png,O,m,1766,8,1,2597.5,466371.90000009537,7170,VNB,A,6
5,prac,2,0.0,2-Back,0,m,Mon Jun 09 2025 18:56:24 GMT-0500 (Central Daylight Time),471518.5,124_o_f_d_a.png,O,z,1681,9,1,2537.699999809265,468980.80000019073,7170,VNB,A,7
5,prac,2,0.0,2-Back,0,m,Mon Jun 09 2025 18:56:24 GMT-0500 (Central Daylight Time),474351.40000009537,165_m_m_h_a.png,O,None,2016,10,1,2822.0999999046326,471529.30000019073,7170,VNB,A,8
6,prac,2,1.0,2-Back,1,z,Mon Jun 09 2025 18:56:24 GMT-0500 (Central Daylight Time),476817.90000009537,071_y_f_d_a.png,O,z,1618,11,1,2433.0,474384.90000009537,7170,VNB,A,9
7,prac,2,0.0,2-Back,1,m,Mon Jun 09 2025 18:56:24 GMT-0500 (Central Daylight Time),479400.30000019073,039_o_m_n_a.png,O,m,1730,12,1,2554.800000190735,476845.5,7170,VNB,A,10
0,test,1,0.0,2-Back,,,Mon Jun 09 2025 18:56:24 GMT-0500 (Central Daylight Time),479400.30000019073,109_y_m_h_a.png,O,space,5690,1,1,2554.800000190735,476845.5,7170,VNB,A,0
0,test,1,0.0,2-Back,,,Mon Jun 09 2025 18:56:24 GMT-0500 (Central Daylight Time),479400.30000019073,124_o_f_n_a.png,O,space,5690,2,1,2554.800000190735,476845.5,7170,VNB,A,0
1,test,1,0.0,2-Back,1,z,Mon Jun 09 2025 18:56:24 GMT-0500 (Central Daylight Time),500825.5,039_o_m_h_a.png,O,z,1192,3,1,2201.899999856949,498623.60000014305,7170,VNB,A,1
2,test,1,0.0,2-Back,1,m,Mon Jun 09 2025 18:56:24 GMT-0500 (Central Daylight Time),503025.90000009537,139_m_f_d_a.png,O,m,1176,4,1,2190.0,500835.90000009537,7170,VNB,A,2
2,test,1,1.0,2-Back,0,m,Mon Jun 09 2025 18:56:24 GMT-0500 (Central Daylight Time),505741.10000014305,109_y_m_n_a.png,O,z,1655,5,1,2682.7999999523163,503058.30000019073,7170,VNB,A,3
2,test,1,0.0,2-Back,0,z,Mon Jun 09 2025 18:56:24 GMT-0500 (Central Daylight Time),508623.7000000477,071_y_f_d_a.png,O,m,1838,6,1,2858.5,505765.2000000477,7170,VNB,A,4
3,test,1,0.0,2-Back,1,m,Mon Jun 09 2025 18:56:24 GMT-0500 (Central Daylight Time),511622.80000019073,165_m_m_h_a.png,O,m,1940,7,1,2963.7000000476837,508659.10000014305,7170,VNB,A,5
3,test,1,1.0,2-Back,0,m,Mon Jun 09 2025 18:56:24 GMT-0500 (Central Daylight Time),514688.60000014305,071_y_f_n_a.png,O,None,2015,8,1,3030.5,511658.10000014305,7170,VNB,A,6
4,test,1,0.0,2-Back,1,z,Mon Jun 09 2025 18:56:24 GMT-0500 (Central Daylight Time),516636.90000009537,124_o_f_h_a.png,O,z,897,9,1,1912.2000000476837,514724.7000000477,7170,VNB,A,7
5,test,1,0.0,2-Back,1,m,Mon Jun 09 2025 18:56:24 GMT-0500 (Central Daylight Time),519137.0,039_o_m_d_a.png,O,m,1477,10,1,2490.2999999523163,516646.7000000477,7170,VNB,A,8
5,test,1,1.0,2-Back,0,m,Mon Jun 09 2025 18:56:24 GMT-0500 (Central Daylight Time),521736.10000014305,165_m_m_d_a.png,O,z,1561,11,1,2567.2000000476837,519168.90000009537,7170,VNB,A,9
6,test,1,0.0,2-Back,1,m,Mon Jun 09 2025 18:56:24 GMT-0500 (Central Daylight Time),524668.5,139_m_f_n_a.png,O,m,1875,12,1,2898.2999999523163,521770.2000000477,7170,VNB,A,10
6,test,1,0.0,2-Back,0,m,Mon Jun 09 2025 18:56:24 GMT-0500 (Central Daylight Time),527033.5,071_y_f_h_a.png,O,z,1326,13,1,2337.5999999046326,524695.9000000954,7170,VNB,A,11
6,test,1,0.0,2-Back,0,z,Mon Jun 09 2025 18:56:24 GMT-0500 (Central Daylight Time),529949.2000000477,165_m_m_n_a.png,O,m,1888,14,1,2906.2000000476837,527043.0,7170,VNB,A,12
6,test,1,0.0,2-Back,0,m,Mon Jun 09 2025 18:56:24 GMT-0500 (Central Daylight Time),532681.8000001907,109_y_m_d_a.png,O,z,1699,15,1,2721.300000190735,529960.5,7170,VNB,A,13
6,test,1,1.0,2-Back,0,m,Mon Jun 09 2025 18:56:24 GMT-0500 (Central Daylight Time),535714.100000143,139_m_f_h_a.png,O,None,2014,16,1,3023.0,532691.100000143,7170,VNB,A,14
6,test,1,0.0,2-Back,0,z,Mon Jun 09 2025 18:56:24 GMT-0500 (Central Daylight Time),538746.4000000954,124_o_f_d_a.png,O,None,2013,17,1,3022.9000000953674,535723.5,7170,VNB,A,15
7,test,1,0.0,2-Back,1,m,Mon Jun 09 2025 18:56:24 GMT-0500 (Central Daylight Time),541328.9000000954,039_o_m_n_a.png,O,m,1558,18,1,2572.5999999046326,538756.3000001907,7170,VNB,A,16
0,test,2,0.0,2-Back,,,Mon Jun 09 2025 18:56:24 GMT-0500 (Central Daylight Time),541328.9000000954,165_m_m_h_a.png,O,space,1632,1,1,2572.5999999046326,538756.3000001907,7170,VNB,A,0
0,test,2,0.0,2-Back,,,Mon Jun 09 2025 18:56:24 GMT-0500 (Central Daylight Time),541328.9000000954,071_y_f_n_a.png,O,space,1632,2,1,2572.5999999046326,538756.3000001907,7170,VNB,A,0
1,test,2,1.0,2-Back,1,z,Mon Jun 09 2025 18:56:24 GMT-0500 (Central Daylight Time),550092.7000000477,124_o_f_h_a.png,O,z,979,3,1,1989.8999998569489,548102.8000001907,7170,VNB,A,1
2,test,2,0.0,2-Back,1,m,Mon Jun 09 2025 18:56:24 GMT-0500 (Central Daylight Time),552226.3000001907,039_o_m_d_a.png,O,m,1109,4,1,2120.9000000953674,550105.4000000954,7170,VNB,A,2
3,test,2,0.0,2-Back,1,m,Mon Jun 09 2025 18:56:24 GMT-0500 (Central Daylight Time),554725.4000000954,139_m_f_d_a.png,O,m,1441,5,1,2466.2999999523163,552259.100000143,7170,VNB,A,3
4,test,2,0.0,2-Back,1,m,Mon Jun 09 2025 18:56:24 GMT-0500 (Central Daylight Time),557590.2000000477,109_y_m_h_a.png,O,m,1821,6,1,2836.399999856949,554753.8000001907,7170,VNB,A,4
4,test,2,0.0,2-Back,0,m,Mon Jun 09 2025 18:56:24 GMT-0500 (Central Daylight Time),559590.3000001907,124_o_f_n_a.png,O,z,971,7,1,1989.2000000476837,557601.100000143,7170,VNB,A,5
5,test,2,1.0,2-Back,1,z,Mon Jun 09 2025 18:56:24 GMT-0500 (Central Daylight Time),562406.100000143,039_o_m_h_a.png,O,z,1771,8,1,2791.4000000953674,559614.7000000477,7170,VNB,A,6
6,test,2,0.0,2-Back,1,m,Mon Jun 09 2025 18:56:24 GMT-0500 (Central Daylight Time),565205.4000000954,071_y_f_d_a.png,O,m,1766,9,1,2770.9000000953674,562434.5,7170,VNB,A,7
6,test,2,0.0,2-Back,0,m,Mon Jun 09 2025 18:56:24 GMT-0500 (Central Daylight Time),567836.9000000954,109_y_m_d_a.png,O,z,1572,10,1,2592.5999999046326,565244.3000001907,7170,VNB,A,8
7,test,2,0.0,2-Back,1,m,Mon Jun 09 2025 18:56:24 GMT-0500 (Central Daylight Time),570619.3000001907,165_m_m_n_a.png,O,m,1749,11,1,2773.100000143051,567846.2000000477,7170,VNB,A,9
7,test,2,0.0,2-Back,0,m,Mon Jun 09 2025 18:56:24 GMT-0500 (Central Daylight Time),573401.600000143,139_m_f_h_a.png,O,z,1749,12,1,2770.9000000953674,570630.7000000477,7170,VNB,A,10
7,test,2,1.0,2-Back,0,z,Mon Jun 09 2025 18:56:24 GMT-0500 (Central Daylight Time),576434.100000143,039_o_m_n_a.png,O,None,2013,13,1,3022.0,573412.100000143,7170,VNB,A,11
8,test,2,0.0,2-Back,1,m,Mon Jun 09 2025 18:56:24 GMT-0500 (Central Daylight Time),579183.2000000477,124_o_f_d_a.png,O,m,1718,14,1,2739.7000000476837,576443.5,7170,VNB,A,12
9,test,2,0.0,2-Back,1,m,Mon Jun 09 2025 18:56:24 GMT-0500 (Central Daylight Time),581518.4000000954,071_y_f_h_a.png,O,m,1316,15,1,2325.5999999046326,579192.8000001907,7170,VNB,A,13
10,test,2,0.0,2-Back,1,z,Mon Jun 09 2025 18:56:24 GMT-0500 (Central Daylight Time),583615.0,165_m_m_d_a.png,O,z,1052,16,1,2069.0999999046326,581545.9000000954,7170,VNB,A,14
11,test,2,0.0,2-Back,1,m,Mon Jun 09 2025 18:56:24 GMT-0500 (Central Daylight Time),586164.8000001907,109_y_m_n_a.png,O,m,1523,17,1,2538.0,583626.8000001907,7170,VNB,A,15
12,test,2,1.0,2-Back,1,m,Mon Jun 09 2025 18:56:24 GMT-0500 (Central Daylight Time),588331.2000000477,139_m_f_n_a.png,O,m,1126,18,1,2138.2000000476837,586193.0,7170,VNB,A,16
0,test,3,1.0,2-Back,,,Mon Jun 09 2025 18:56:24 GMT-0500 (Central Daylight Time),588331.2000000477,039_o_m_n_a.png,O,space,1583,1,1,2138.2000000476837,586193.0,7170,VNB,A,0
0,test,3,1.0,2-Back,,,Mon Jun 09 2025 18:56:24 GMT-0500 (Central Daylight Time),588331.2000000477,124_o_f_d_a.png,O,space,1583,2,1,2138.2000000476837,586193.0,7170,VNB,A,0
1,test,3,0.0,2-Back,1,m,Mon Jun 09 2025 18:56:24 GMT-0500 (Central Daylight Time),597094.5,071_y_f_h_a.png,O,m,1062,3,1,2074.0,595020.5,7170,VNB,A,1
2,test,3,0.0,2-Back,1,z,Mon Jun 09 2025 18:56:24 GMT-0500 (Central Daylight Time),599692.9000000954,139_m_f_d_a.png,O,z,1563,4,1,2573.5,597119.4000000954,7170,VNB,A,2
3,test,3,1.0,2-Back,1,m,Mon Jun 09 2025 18:56:24 GMT-0500 (Central Daylight Time),602392.100000143,109_y_m_n_a.png,O,m,1675,5,1,2689.7000000476837,599702.4000000954,7170,VNB,A,3
3,test,3,0.0,2-Back,0,m,Mon Jun 09 2025 18:56:24 GMT-0500 (Central Daylight Time),604957.9000000954,039_o_m_h_a.png,O,z,1536,6,1,2555.4000000953674,602402.5,7170,VNB,A,4
3,test,3,0.0,2-Back,0,z,Mon Jun 09 2025 18:56:24 GMT-0500 (Central Daylight Time),607673.600000143,071_y_f_n_a.png,O,m,1682,7,1,2704.7999999523163,604968.8000001907,7170,VNB,A,5
4,test,3,1.0,2-Back,1,m,Mon Jun 09 2025 18:56:24 GMT-0500 (Central Daylight Time),610090.2000000477,165_m_m_d_a.png,O,m,1394,8,1,2406.5999999046326,607683.600000143,7170,VNB,A,6
5,test,3,0.0,2-Back,1,m,Mon Jun 09 2025 18:56:24 GMT-0500 (Central Daylight Time),612739.5,109_y_m_d_a.png,O,m,1590,9,1,2614.699999809265,610124.8000001907,7170,VNB,A,7
5,test,3,0.0,2-Back,0,m,Mon Jun 09 2025 18:56:24 GMT-0500 (Central Daylight Time),615221.7000000477,124_o_f_h_a.png,O,z,1440,10,1,2451.2999999523163,612770.4000000954,7170,VNB,A,8
6,test,3,1.0,2-Back,1,m,Mon Jun 09 2025 18:56:24 GMT-0500 (Central Daylight Time),617836.9000000954,139_m_f_n_a.png,O,m,1580,11,1,2595.2000000476837,615241.7000000477,7170,VNB,A,9
6,test,3,1.0,2-Back,0,z,Mon Jun 09 2025 18:56:24 GMT-0500 (Central Daylight Time),620370.4000000954,165_m_m_h_a.png,O,m,1509,12,1,2523.2000000476837,617847.2000000477,7170,VNB,A,10
6,test,3,0.0,2-Back,0,m,Mon Jun 09 2025 18:56:24 GMT-0500 (Central Daylight Time),622969.8000001907,071_y_f_d_a.png,O,z,1551,13,1,2572.600000143051,620397.2000000477,7170,VNB,A,11
7,test,3,0.0,2-Back,1,m,Mon Jun 09 2025 18:56:24 GMT-0500 (Central Daylight Time),625518.600000143,124_o_f_n_a.png,O,m,1506,14,1,2518.7000000476837,622999.9000000954,7170,VNB,A,12
7,test,3,0.0,2-Back,0,z,Mon Jun 09 2025 18:56:24 GMT-0500 (Central Daylight Time),627884.2000000477,039_o_m_d_a.png,O,m,1325,15,1,2335.0999999046326,625549.100000143,7170,VNB,A,13
7,test,3,1.0,2-Back,0,m,Mon Jun 09 2025 18:56:24 GMT-0500 (Central Daylight Time),630216.8000001907,139_m_f_h_a.png,O,z,1284,16,1,2313.9000000953674,627902.9000000954,7170,VNB,A,14
8,test,3,0.0,2-Back,1,m,Mon Jun 09 2025 18:56:24 GMT-0500 (Central Daylight Time),632715.3000001907,165_m_m_n_a.png,O,m,1465,17,1,2481.300000190735,630234.0,7170,VNB,A,15
9,test,3,0.0,2-Back,1,z,Mon Jun 09 2025 18:56:24 GMT-0500 (Central Daylight Time),635133.7000000477,109_y_m_h_a.png,O,z,1384,18,1,2394.7999999523163,632738.9000000954,7170,VNB,A,16
0,test,4,0.0,2-Back,,,Mon Jun 09 2025 18:56:24 GMT-0500 (Central Daylight Time),635133.7000000477,139_m_f_n_a.png,O,space,1420,1,1,2394.7999999523163,632738.9000000954,7170,VNB,A,0
0,test,4,0.0,2-Back,,,Mon Jun 09 2025 18:56:24 GMT-0500 (Central Daylight Time),635133.7000000477,039_o_m_n_a.png,O,space,1420,2,1,2394.7999999523163,632738.9000000954,7170,VNB,A,0
1,test,4,1.0,2-Back,1,m,Mon Jun 09 2025 18:56:24 GMT-0500 (Central Daylight Time),643862.7000000477,109_y_m_h_a.png,O,m,1182,3,1,2190.2000000476837,641672.5,7170,VNB,A,1
2,test,4,1.0,2-Back,1,m,Mon Jun 09 2025 18:56:24 GMT-0500 (Central Daylight Time),646127.7000000477,124_o_f_d_a.png,O,m,1209,4,1,2221.7999999523163,643905.9000000954,7170,VNB,A,2
3,test,4,0.0,2-Back,1,z,Mon Jun 09 2025 18:56:24 GMT-0500 (Central Daylight Time),648027.100000143,039_o_m_h_a.png,O,z,872,5,1,1888.2000000476837,646138.9000000954,7170,VNB,A,3
4,test,4,0.0,2-Back,1,m,Mon Jun 09 2025 18:56:24 GMT-0500 (Central Daylight Time),650010.9000000954,165_m_m_n_a.png,O,m,958,6,1,1972.5,648038.4000000954,7170,VNB,A,4
5,test,4,0.0,2-Back,1,m,Mon Jun 09 2025 18:56:24 GMT-0500 (Central Daylight Time),652125.9000000954,139_m_f_d_a.png,O,m,1080,7,1,2088.5999999046326,650037.3000001907,7170,VNB,A,5
6,test,4,0.0,2-Back,1,z,Mon Jun 09 2025 18:56:24 GMT-0500 (Central Daylight Time),654575.9000000954,071_y_f_n_a.png,O,z,1420,8,1,2440.4000000953674,652135.5,7170,VNB,A,6
7,test,4,1.0,2-Back,1,m,Mon Jun 09 2025 18:56:24 GMT-0500 (Central Daylight Time),656891.4000000954,124_o_f_h_a.png,O,m,1257,9,1,2278.4000000953674,654613.0,7170,VNB,A,7
7,test,4,0.0,2-Back,0,m,Mon Jun 09 2025 18:56:24 GMT-0500 (Central Daylight Time),659440.0,165_m_m_h_a.png,O,z,1503,10,1,2523.899999856949,656916.100000143,7170,VNB,A,8
8,test,4,0.0,2-Back,1,m,Mon Jun 09 2025 18:56:24 GMT-0500 (Central Daylight Time),661923.0,071_y_f_d_a.png,O,m,1457,11,1,2473.199999809265,659449.8000001907,7170,VNB,A,9
9,test,4,0.0,2-Back,1,m,Mon Jun 09 2025 18:56:24 GMT-0500 (Central Daylight Time),664205.8000001907,109_y_m_n_a.png,O,m,1237,12,1,2263.0,661942.8000001907,7170,VNB,A,10
9,test,4,0.0,2-Back,0,z,Mon Jun 09 2025 18:56:24 GMT-0500 (Central Daylight Time),666522.0,039_o_m_d_a.png,O,m,1262,13,1,2278.699999809265,664243.3000001907,7170,VNB,A,11
9,test,4,1.0,2-Back,0,m,Mon Jun 09 2025 18:56:24 GMT-0500 (Central Daylight Time),669586.8000001907,139_m_f_h_a.png,O,None,2014,14,1,3029.5,666557.3000001907,7170,VNB,A,12
10,test,4,1.0,2-Back,1,m,Mon Jun 09 2025 18:56:24 GMT-0500 (Central Daylight Time),672069.7000000477,071_y_f_h_a.png,O,m,1463,15,1,2472.899999856949,669596.8000001907,7170,VNB,A,13
11,test,4,0.0,2-Back,1,m,Mon Jun 09 2025 18:56:24 GMT-0500 (Central Daylight Time),674452.7000000477,124_o_f_n_a.png,O,m,1316,16,1,2345.2000000476837,672107.5,7170,VNB,A,14
12,test,4,0.0,2-Back,1,m,Mon Jun 09 2025 18:56:24 GMT-0500 (Central Daylight Time),676502.100000143,109_y_m_d_a.png,O,m,1008,17,1,2020.7999999523163,674481.3000001907,7170,VNB,A,15
12,test,4,1.0,2-Back,0,m,Mon Jun 09 2025 18:56:24 GMT-0500 (Central Daylight Time),679117.8000001907,165_m_m_d_a.png,O,z,1556,18,1,2579.2000000476837,676538.600000143,7170,VNB,A,16
0,test,5,1.0,2-Back,,,Mon Jun 09 2025 18:56:24 GMT-0500 (Central Daylight Time),679117.8000001907,071_y_f_d_a.png,O,space,1907,1,1,2579.2000000476837,676538.600000143,7170,VNB,A,0
0,test,5,1.0,2-Back,,,Mon Jun 09 2025 18:56:24 GMT-0500 (Central Daylight Time),679117.8000001907,124_o_f_h_a.png,O,space,1907,2,1,2579.2000000476837,676538.600000143,7170,VNB,A,0
1,test,5,1.0,2-Back,1,z,Mon Jun 09 2025 18:56:24 GMT-0500 (Central Daylight Time),688813.8000001907,039_o_m_d_a.png,O,z,1529,3,1,2546.0,686267.8000001907,7170,VNB,A,1
2,test,5,1.0,2-Back,1,m,Mon Jun 09 2025 18:56:24 GMT-0500 (Central Daylight Time),690863.3000001907,139_m_f_n_a.png,O,m,1028,4,1,2039.5,688823.8000001907,7170,VNB,A,2
2,test,5,0.0,2-Back,0,m,Mon Jun 09 2025 18:56:24 GMT-0500 (Central Daylight Time),693563.100000143,165_m_m_h_a.png,O,z,1659,5,1,2682.2999999523163,690880.8000001907,7170,VNB,A,3
2,test,5,0.0,2-Back,0,z,Mon Jun 09 2025 18:56:24 GMT-0500 (Central Daylight Time),696277.9000000954,071_y_f_n_a.png,O,m,1679,6,1,2685.5,693592.4000000954,7170,VNB,A,4
3,test,5,0.0,2-Back,1,m,Mon Jun 09 2025 18:56:24 GMT-0500 (Central Daylight Time),698629.4000000954,124_o_f_d_a.png,O,m,1332,7,1,2335.9000000953674,696293.5,7170,VNB,A,5
3,test,5,0.0,2-Back,0,m,Mon Jun 09 2025 18:56:24 GMT-0500 (Central Daylight Time),700860.600000143,039_o_m_h_a.png,O,z,1166,8,1,2201.2000000476837,698659.4000000954,7170,VNB,A,6
4,test,5,1.0,2-Back,1,z,Mon Jun 09 2025 18:56:24 GMT-0500 (Central Daylight Time),703358.8000001907,139_m_f_d_a.png,O,z,1462,9,1,2474.600000143051,700884.2000000477,7170,VNB,A,7
5,test,5,0.0,2-Back,1,m,Mon Jun 09 2025 18:56:24 GMT-0500 (Central Daylight Time),705291.600000143,109_y_m_n_a.png,O,m,907,10,1,1921.0,703370.600000143,7170,VNB,A,8
6,test,5,0.0,2-Back,1,m,Mon Jun 09 2025 18:56:24 GMT-0500 (Central Daylight Time),707790.8000001907,165_m_m_n_a.png,O,m,1478,11,1,2487.800000190735,705303.0,7170,VNB,A,9
7,test,5,0.0,2-Back,1,m,Mon Jun 09 2025 18:56:24 GMT-0500 (Central Daylight Time),710257.5,071_y_f_h_a.png,O,m,1435,12,1,2457.0,707800.5,7170,VNB,A,10
7,test,5,0.0,2-Back,0,m,Mon Jun 09 2025 18:56:24 GMT-0500 (Central Daylight Time),712806.7000000477,109_y_m_d_a.png,O,z,1488,13,1,2513.7000000476837,710293.0,7170,VNB,A,11
7,test,5,1.0,2-Back,0,z,Mon Jun 09 2025 18:56:24 GMT-0500 (Central Daylight Time),715505.100000143,139_m_f_h_a.png,O,m,1643,14,1,2662.0,712843.100000143,7170,VNB,A,12
8,test,5,0.0,2-Back,1,m,Mon Jun 09 2025 18:56:24 GMT-0500 (Central Daylight Time),718204.0,039_o_m_n_a.png,O,m,1681,15,1,2689.199999809265,715514.8000001907,7170,VNB,A,13
8,test,5,0.0,2-Back,0,m,Mon Jun 09 2025 18:56:24 GMT-0500 (Central Daylight Time),720470.600000143,165_m_m_d_a.png,O,z,1245,16,1,2256.600000143051,718214.0,7170,VNB,A,14
8,test,5,0.0,2-Back,0,z,Mon Jun 09 2025 18:56:24 GMT-0500 (Central Daylight Time),723037.0,124_o_f_n_a.png,O,m,1516,17,1,2542.699999809265,720494.3000001907,7170,VNB,A,15
9,test,5,1.0,2-Back,1,m,Mon Jun 09 2025 18:56:24 GMT-0500 (Central Daylight Time),725635.100000143,109_y_m_h_a.png,O,m,1541,18,1,2562.7999999523163,723072.3000001907,7170,VNB,A,16
