acc_sum,block,block_c,block_cond,con_img,correct,correct_response,datetime,endtime,face,jitter,line,project,response,response_time,row_sel,session_number,start_end,starttime,subject_id,task,task_vers,trial
1,prac,1,A,haborder.png,1,z,Tue Oct 28 2025 14:00:44 GMT-0500 (Central Daylight Time),44489.40000000037,CFD-BM-043-014-A.jpg,1600,solid,I,z,806,2,3,3199.2999999988824,41290.10000000149,8047,ATS,C,1
2,prac,1,A,haborder.png,1,z,Tue Oct 28 2025 14:00:44 GMT-0500 (Central Daylight Time),47205.20000000112,CFD-BF-002-018-A.jpg,1200,solid,I,z,727,6,3,5915.0999999996275,41290.10000000149,8047,ATS,C,2
3,prac,1,A,haborder.png,1,m,Tue Oct 28 2025 14:00:44 GMT-0500 (Central Daylight Time),50604.40000000037,CFD-BF-019-004-HC.jpg,2000,solid,I,m,612,5,3,9314.299999998882,41290.10000000149,8047,ATS,C,3
4,prac,1,A,haborder.png,1,m,Tue Oct 28 2025 14:00:44 GMT-0500 (Central Daylight Time),53736.60000000149,CFD-BM-034-035-HC.jpg,1700,solid,I,m,649,1,3,12446.5,41290.10000000149,8047,ATS,C,4
5,prac,1,A,haborder.png,1,z,Tue Oct 28 2025 14:00:44 GMT-0500 (Central Daylight Time),57369.800000000745,CFD-WM-036-018-A.jpg,1900,solid,I,z,933,8,3,16079.699999999255,41290.10000000149,8047,ATS,C,5
6,prac,1,A,haborder.png,1,z,Tue Oct 28 2025 14:00:44 GMT-0500 (Central Daylight Time),59768.0,CFD-BF-031-020-A.jpg,1000,solid,I,z,600,4,3,18477.89999999851,41290.10000000149,8047,ATS,C,6
7,prac,1,A,haborder.png,1,m,Tue Oct 28 2025 14:00:44 GMT-0500 (Central Daylight Time),62550.5,CFD-WM-028-005-HC.jpg,1400,solid,I,m,594,7,3,21260.39999999851,41290.10000000149,8047,ATS,C,7
8,prac,1,A,haborder.png,1,z,Tue Oct 28 2025 14:00:44 GMT-0500 (Central Daylight Time),65649.70000000112,CFD-WF-037-016-A.jpg,1600,solid,I,z,707,10,3,24359.599999999627,41290.10000000149,8047,ATS,C,8
9,prac,1,A,haborder.png,1,m,Tue Oct 28 2025 14:00:44 GMT-0500 (Central Daylight Time),68698.5,CFD-BM-022-004-HC.jpg,1500,solid,I,m,756,3,3,27408.39999999851,41290.10000000149,8047,ATS,C,9
10,prac,1,A,haborder.png,1,z,Tue Oct 28 2025 14:00:44 GMT-0500 (Central Daylight Time),71197.70000000112,CFD-WF-023-013-A.jpg,1000,solid,I,z,703,12,3,29907.599999999627,41290.10000000149,8047,ATS,C,10
11,prac,1,A,haborder.png,1,m,Tue Oct 28 2025 14:00:44 GMT-0500 (Central Daylight Time),74096.90000000037,CFD-WF-013-009-HC.jpg,1500,solid,I,m,608,11,3,32806.79999999888,41290.10000000149,8047,ATS,C,11
12,prac,1,A,haborder.png,1,m,Tue Oct 28 2025 14:00:44 GMT-0500 (Central Daylight Time),77245.90000000037,CFD-WM-035-036-HC.jpg,1700,solid,I,m,661,9,3,35955.79999999888,41290.10000000149,8047,ATS,C,12
1,prac,1,B,mfborder.png,1,z,Tue Oct 28 2025 14:00:44 GMT-0500 (Central Daylight Time),99122.30000000075,CFD-WF-013-009-HC.jpg,1000,12,I,z,764,dash,3,2549.0999999996275,96573.20000000112,8047,ATS,C,1
2,prac,1,B,mfborder.png,1,m,Tue Oct 28 2025 14:00:44 GMT-0500 (Central Daylight Time),102537.70000000112,CFD-BM-021-026-A.jpg,1600,2,I,m,1041,dash,3,5964.5,96573.20000000112,8047,ATS,C,2
3,prac,1,B,mfborder.png,1,m,Tue Oct 28 2025 14:00:44 GMT-0500 (Central Daylight Time),105937.0,CFD-BM-043-014-A.jpg,2000,5,I,m,615,dash,3,9363.799999998882,96573.20000000112,8047,ATS,C,3
4,prac,1,B,mfborder.png,1,m,Tue Oct 28 2025 14:00:44 GMT-0500 (Central Daylight Time),108952.60000000149,CFD-WM-035-036-HC.jpg,1600,10,I,m,632,dash,3,12379.400000000373,96573.20000000112,8047,ATS,C,4
5,prac,1,B,mfborder.png,1,z,Tue Oct 28 2025 14:00:44 GMT-0500 (Central Daylight Time),111318.5,CFD-BF-031-020-A.jpg,1000,4,I,z,577,dash,3,14745.299999998882,96573.20000000112,8047,ATS,C,5
6,prac,1,B,mfborder.png,1,z,Tue Oct 28 2025 14:00:44 GMT-0500 (Central Daylight Time),114700.90000000037,CFD-WF-001-010-HC.jpg,1900,8,I,z,695,dash,3,18127.699999999255,96573.20000000112,8047,ATS,C,6
7,prac,1,B,mfborder.png,1,z,Tue Oct 28 2025 14:00:44 GMT-0500 (Central Daylight Time),117616.70000000112,CFD-BF-042-031-HC.jpg,1500,3,I,z,616,dash,3,21043.5,96573.20000000112,8047,ATS,C,7
8,prac,1,B,mfborder.png,1,z,Tue Oct 28 2025 14:00:44 GMT-0500 (Central Daylight Time),120615.70000000112,CFD-WF-037-016-A.jpg,1500,11,I,z,701,dash,3,24042.5,96573.20000000112,8047,ATS,C,8
9,prac,1,B,mfborder.png,1,z,Tue Oct 28 2025 14:00:44 GMT-0500 (Central Daylight Time),123447.80000000075,CFD-BF-019-004-HC.jpg,1400,7,I,z,642,dash,3,26874.599999999627,96573.20000000112,8047,ATS,C,9
10,prac,1,B,mfborder.png,1,m,Tue Oct 28 2025 14:00:44 GMT-0500 (Central Daylight Time),126247.40000000037,CFD-WM-034-040-A.jpg,1200,6,I,m,679,dash,3,29674.199999999255,96573.20000000112,8047,ATS,C,10
11,prac,1,B,mfborder.png,1,m,Tue Oct 28 2025 14:00:44 GMT-0500 (Central Daylight Time),129546.10000000149,CFD-WM-036-018-A.jpg,1700,9,I,m,806,dash,3,32972.90000000037,96573.20000000112,8047,ATS,C,11
12,prac,1,B,mfborder.png,1,m,Tue Oct 28 2025 14:00:44 GMT-0500 (Central Daylight Time),132728.6000000015,CFD-BM-022-004-HC.jpg,1700,1,I,m,699,dash,3,36155.40000000037,96573.20000000112,8047,ATS,C,12
1,test,1,A,haborder.png,1,m,Tue Oct 28 2025 14:00:44 GMT-0500 (Central Daylight Time),149623.1000000015,CFD-BM-022-004-HC.jpg,1500,solid,I,m,732,3,3,2315.7000000011176,147307.40000000037,8047,ATS,C,1
2,test,1,A,haborder.png,1,m,Tue Oct 28 2025 14:00:44 GMT-0500 (Central Daylight Time),151988.90000000037,CFD-WM-035-036-HC.jpg,1700,solid,I,m,638,9,3,4681.5,147307.40000000037,8047,ATS,C,2
3,test,1,A,haborder.png,1,z,Tue Oct 28 2025 14:00:44 GMT-0500 (Central Daylight Time),154054.80000000075,CFD-WF-023-013-A.jpg,1000,solid,I,z,1044,12,3,6747.4000000003725,147307.40000000037,8047,ATS,C,3
4,test,1,A,haborder.png,1,z,Tue Oct 28 2025 14:00:44 GMT-0500 (Central Daylight Time),156287.70000000112,CFD-BM-043-014-A.jpg,1600,solid,I,z,610,2,3,8980.300000000745,147307.40000000037,8047,ATS,C,4
5,test,1,A,haborder.png,1,m,Tue Oct 28 2025 14:00:44 GMT-0500 (Central Daylight Time),158570.40000000037,CFD-WF-013-009-HC.jpg,1500,solid,I,m,750,11,3,11263.0,147307.40000000037,8047,ATS,C,5
6,test,1,A,haborder.png,1,m,Tue Oct 28 2025 14:00:44 GMT-0500 (Central Daylight Time),161136.1000000015,CFD-BM-034-035-HC.jpg,1700,solid,I,m,843,1,3,13828.700000001118,147307.40000000037,8047,ATS,C,6
7,test,1,A,haborder.png,1,z,Tue Oct 28 2025 14:00:44 GMT-0500 (Central Daylight Time),163568.80000000075,CFD-WF-037-016-A.jpg,1600,solid,I,z,809,10,3,16261.400000000373,147307.40000000037,8047,ATS,C,7
8,test,1,A,haborder.png,1,z,Tue Oct 28 2025 14:00:44 GMT-0500 (Central Daylight Time),165301.70000000112,CFD-BF-031-020-A.jpg,1000,solid,I,z,705,4,3,17994.300000000745,147307.40000000037,8047,ATS,C,8
9,test,1,A,haborder.png,1,z,Tue Oct 28 2025 14:00:44 GMT-0500 (Central Daylight Time),167017.80000000075,CFD-WF-023-013-A.jpg,1000,solid,I,z,683,12,3,19710.400000000373,147307.40000000037,8047,ATS,C,9
10,test,1,A,haborder.png,1,z,Tue Oct 28 2025 14:00:44 GMT-0500 (Central Daylight Time),169783.5,CFD-WM-036-018-A.jpg,1900,solid,I,z,836,8,3,22476.099999999627,147307.40000000037,8047,ATS,C,10
11,test,1,A,haborder.png,1,m,Tue Oct 28 2025 14:00:44 GMT-0500 (Central Daylight Time),171999.30000000075,CFD-BM-022-004-HC.jpg,1500,solid,I,m,694,3,3,24691.900000000373,147307.40000000037,8047,ATS,C,11
12,test,1,A,haborder.png,1,z,Tue Oct 28 2025 14:00:44 GMT-0500 (Central Daylight Time),173915.20000000112,CFD-BF-002-018-A.jpg,1200,solid,I,z,698,6,3,26607.800000000745,147307.40000000037,8047,ATS,C,12
13,test,1,A,haborder.png,1,z,Tue Oct 28 2025 14:00:44 GMT-0500 (Central Daylight Time),175598.40000000037,CFD-BF-031-020-A.jpg,1000,solid,I,z,654,4,3,28291.0,147307.40000000037,8047,ATS,C,13
14,test,1,A,haborder.png,1,z,Tue Oct 28 2025 14:00:44 GMT-0500 (Central Daylight Time),177864.20000000112,CFD-WF-037-016-A.jpg,1600,solid,I,z,643,10,3,30556.800000000745,147307.40000000037,8047,ATS,C,14
15,test,1,A,haborder.png,1,m,Tue Oct 28 2025 14:00:44 GMT-0500 (Central Daylight Time),179963.80000000075,CFD-WM-028-005-HC.jpg,1400,solid,I,m,681,7,3,32656.400000000373,147307.40000000037,8047,ATS,C,15
16,test,1,A,haborder.png,1,m,Tue Oct 28 2025 14:00:44 GMT-0500 (Central Daylight Time),182329.80000000075,CFD-BM-034-035-HC.jpg,1700,solid,I,m,633,1,3,35022.40000000037,147307.40000000037,8047,ATS,C,16
17,test,1,A,haborder.png,1,m,Tue Oct 28 2025 14:00:44 GMT-0500 (Central Daylight Time),185078.80000000075,CFD-BF-019-004-HC.jpg,2000,solid,I,m,720,5,3,37771.40000000037,147307.40000000037,8047,ATS,C,17
18,test,1,A,haborder.png,1,m,Tue Oct 28 2025 14:00:44 GMT-0500 (Central Daylight Time),187294.5,CFD-WM-028-005-HC.jpg,1400,solid,I,m,794,7,3,39987.09999999963,147307.40000000037,8047,ATS,C,18
19,test,1,A,haborder.png,1,z,Tue Oct 28 2025 14:00:44 GMT-0500 (Central Daylight Time),189960.40000000037,CFD-WM-036-018-A.jpg,1900,solid,I,z,743,8,3,42653.0,147307.40000000037,8047,ATS,C,19
20,test,1,A,haborder.png,1,m,Tue Oct 28 2025 14:00:44 GMT-0500 (Central Daylight Time),192359.40000000037,CFD-WM-035-036-HC.jpg,1700,solid,I,m,668,9,3,45052.0,147307.40000000037,8047,ATS,C,20
21,test,1,A,haborder.png,1,m,Tue Oct 28 2025 14:00:44 GMT-0500 (Central Daylight Time),194742.1000000015,CFD-WF-013-009-HC.jpg,1500,solid,I,m,853,11,3,47434.70000000112,147307.40000000037,8047,ATS,C,21
22,test,1,A,haborder.png,1,m,Tue Oct 28 2025 14:00:44 GMT-0500 (Central Daylight Time),197391.20000000112,CFD-BF-019-004-HC.jpg,2000,solid,I,m,626,5,3,50083.800000000745,147307.40000000037,8047,ATS,C,22
23,test,1,A,haborder.png,1,z,Tue Oct 28 2025 14:00:44 GMT-0500 (Central Daylight Time),200257.6000000015,CFD-BM-043-014-A.jpg,1600,solid,I,z,1233,2,3,52950.20000000112,147307.40000000037,8047,ATS,C,23
24,test,1,A,haborder.png,1,z,Tue Oct 28 2025 14:00:44 GMT-0500 (Central Daylight Time),202290.0,CFD-BF-002-018-A.jpg,1200,solid,I,z,800,6,3,54982.59999999963,147307.40000000037,8047,ATS,C,24
0,test,1,B,mfborder.png,0,m,Tue Oct 28 2025 14:00:44 GMT-0500 (Central Daylight Time),209754.40000000037,CFD-BM-021-026-A.jpg,1600,dash,I,None,1516,2,3,3132.2999999988824,206622.1000000015,8047,ATS,C,1
1,test,1,B,mfborder.png,1,m,Tue Oct 28 2025 14:00:44 GMT-0500 (Central Daylight Time),212120.1000000015,CFD-WM-036-018-A.jpg,1700,dash,I,m,635,9,3,5498.0,206622.1000000015,8047,ATS,C,2
2,test,1,B,mfborder.png,1,m,Tue Oct 28 2025 14:00:44 GMT-0500 (Central Daylight Time),214536.1000000015,CFD-WM-036-018-A.jpg,1700,dash,I,m,693,9,3,7914.0,206622.1000000015,8047,ATS,C,3
3,test,1,B,mfborder.png,1,m,Tue Oct 28 2025 14:00:44 GMT-0500 (Central Daylight Time),216368.90000000037,CFD-WM-034-040-A.jpg,1200,dash,I,m,609,6,3,9746.799999998882,206622.1000000015,8047,ATS,C,4
4,test,1,B,mfborder.png,1,m,Tue Oct 28 2025 14:00:44 GMT-0500 (Central Daylight Time),218668.30000000075,CFD-BM-022-004-HC.jpg,1700,dash,I,m,573,1,3,12046.199999999255,206622.1000000015,8047,ATS,C,5
5,test,1,B,mfborder.png,1,m,Tue Oct 28 2025 14:00:44 GMT-0500 (Central Daylight Time),220501.1000000015,CFD-WM-034-040-A.jpg,1200,dash,I,m,605,6,3,13879.0,206622.1000000015,8047,ATS,C,6
6,test,1,B,mfborder.png,1,m,Tue Oct 28 2025 14:00:44 GMT-0500 (Central Daylight Time),223116.90000000037,CFD-BM-043-014-A.jpg,2000,dash,I,m,597,5,3,16494.799999998882,206622.1000000015,8047,ATS,C,7
7,test,1,B,mfborder.png,1,z,Tue Oct 28 2025 14:00:44 GMT-0500 (Central Daylight Time),225632.6000000015,CFD-WF-001-010-HC.jpg,1900,dash,I,z,592,8,3,19010.5,206622.1000000015,8047,ATS,C,8
8,test,1,B,mfborder.png,1,z,Tue Oct 28 2025 14:00:44 GMT-0500 (Central Daylight Time),228032.0,CFD-WF-001-010-HC.jpg,1900,dash,I,z,477,8,3,21409.89999999851,206622.1000000015,8047,ATS,C,9
9,test,1,B,mfborder.png,1,z,Tue Oct 28 2025 14:00:44 GMT-0500 (Central Daylight Time),230198.0,CFD-BF-042-031-HC.jpg,1500,dash,I,z,637,3,3,23575.89999999851,206622.1000000015,8047,ATS,C,10
10,test,1,B,mfborder.png,1,z,Tue Oct 28 2025 14:00:44 GMT-0500 (Central Daylight Time),231830.90000000037,CFD-WF-013-009-HC.jpg,1000,dash,I,z,611,12,3,25208.799999998882,206622.1000000015,8047,ATS,C,11
11,test,1,B,mfborder.png,1,z,Tue Oct 28 2025 14:00:44 GMT-0500 (Central Daylight Time),233480.1000000015,CFD-WF-013-009-HC.jpg,1000,dash,I,z,618,12,3,26858.0,206622.1000000015,8047,ATS,C,12
12,test,1,B,mfborder.png,1,m,Tue Oct 28 2025 14:00:44 GMT-0500 (Central Daylight Time),235779.40000000037,CFD-BM-022-004-HC.jpg,1700,dash,I,m,573,1,3,29157.299999998882,206622.1000000015,8047,ATS,C,13
13,test,1,B,mfborder.png,1,z,Tue Oct 28 2025 14:00:44 GMT-0500 (Central Daylight Time),237428.90000000037,CFD-BF-031-020-A.jpg,1000,dash,I,z,622,4,3,30806.799999998882,206622.1000000015,8047,ATS,C,14
14,test,1,B,mfborder.png,1,z,Tue Oct 28 2025 14:00:44 GMT-0500 (Central Daylight Time),238945.1000000015,CFD-BF-031-020-A.jpg,1000,dash,I,z,492,4,3,32323.0,206622.1000000015,8047,ATS,C,15
15,test,1,B,mfborder.png,1,m,Tue Oct 28 2025 14:00:44 GMT-0500 (Central Daylight Time),241678.0,CFD-BM-043-014-A.jpg,2000,dash,I,m,713,5,3,35055.89999999851,206622.1000000015,8047,ATS,C,16
16,test,1,B,mfborder.png,1,m,Tue Oct 28 2025 14:00:44 GMT-0500 (Central Daylight Time),243893.20000000112,CFD-WM-035-036-HC.jpg,1600,dash,I,m,592,10,3,37271.09999999963,206622.1000000015,8047,ATS,C,17
17,test,1,B,mfborder.png,1,z,Tue Oct 28 2025 14:00:44 GMT-0500 (Central Daylight Time),246009.70000000112,CFD-BF-042-031-HC.jpg,1500,dash,I,z,592,3,3,39387.59999999963,206622.1000000015,8047,ATS,C,18
18,test,1,B,mfborder.png,1,m,Tue Oct 28 2025 14:00:44 GMT-0500 (Central Daylight Time),248242.1000000015,CFD-BM-021-026-A.jpg,1600,dash,I,m,616,2,3,41620.0,206622.1000000015,8047,ATS,C,19
19,test,1,B,mfborder.png,1,z,Tue Oct 28 2025 14:00:44 GMT-0500 (Central Daylight Time),250391.6000000015,CFD-BF-019-004-HC.jpg,1400,dash,I,z,719,7,3,43769.5,206622.1000000015,8047,ATS,C,20
20,test,1,B,mfborder.png,1,m,Tue Oct 28 2025 14:00:44 GMT-0500 (Central Daylight Time),252657.6000000015,CFD-WM-035-036-HC.jpg,1600,dash,I,m,634,10,3,46035.5,206622.1000000015,8047,ATS,C,21
21,test,1,B,mfborder.png,1,z,Tue Oct 28 2025 14:00:44 GMT-0500 (Central Daylight Time),254973.5,CFD-WF-037-016-A.jpg,1500,dash,I,z,788,11,3,48351.39999999851,206622.1000000015,8047,ATS,C,22
22,test,1,B,mfborder.png,1,z,Tue Oct 28 2025 14:00:44 GMT-0500 (Central Daylight Time),257089.5,CFD-WF-037-016-A.jpg,1500,dash,I,z,584,11,3,50467.39999999851,206622.1000000015,8047,ATS,C,23
23,test,1,B,mfborder.png,1,z,Tue Oct 28 2025 14:00:44 GMT-0500 (Central Daylight Time),259205.5,CFD-BF-019-004-HC.jpg,1400,dash,I,z,695,7,3,52583.39999999851,206622.1000000015,8047,ATS,C,24
1,prac,1,C,haborder.png,1,m,Tue Oct 28 2025 14:00:44 GMT-0500 (Central Daylight Time),294111.4000000004,CFD-WM-028-005-HC.jpg,1400,solid,I,m,1126,7,3,3315.699999999255,290795.7000000011,8047,ATS,C,1
2,prac,1,C,mfborder.png,1,z,Tue Oct 28 2025 14:00:44 GMT-0500 (Central Daylight Time),297410.0,CFD-WF-023-013-A.jpg,1500,solid,I,z,1014,7,3,6614.299999998882,290795.7000000011,8047,ATS,C,2
3,prac,1,C,mfborder.png,1,m,Tue Oct 28 2025 14:00:44 GMT-0500 (Central Daylight Time),301425.6000000015,CFD-BM-034-035-HC.jpg,2000,solid,I,m,1224,7,3,10629.900000000373,290795.7000000011,8047,ATS,C,3
4,prac,1,C,haborder.png,1,z,Tue Oct 28 2025 14:00:44 GMT-0500 (Central Daylight Time),304824.80000000075,CFD-WF-037-016-A.jpg,1600,dash,I,z,1000,7,3,14029.099999999627,290795.7000000011,8047,ATS,C,4
5,prac,1,C,haborder.png,1,z,Tue Oct 28 2025 14:00:44 GMT-0500 (Central Daylight Time),308673.5,CFD-BF-031-020-A.jpg,1900,dash,I,z,1157,7,3,17877.799999998882,290795.7000000011,8047,ATS,C,5
6,prac,1,C,haborder.png,1,z,Tue Oct 28 2025 14:00:44 GMT-0500 (Central Daylight Time),312072.4000000004,CFD-BF-002-018-A.jpg,1700,solid,I,z,900,7,3,21276.699999999255,290795.7000000011,8047,ATS,C,6
7,prac,1,C,mfborder.png,1,m,Tue Oct 28 2025 14:00:44 GMT-0500 (Central Daylight Time),315138.0,CFD-BM-043-014-A.jpg,1200,dash,I,m,1073,7,3,24342.299999998882,290795.7000000011,8047,ATS,C,7
8,prac,1,C,haborder.png,1,m,Tue Oct 28 2025 14:00:44 GMT-0500 (Central Daylight Time),318487.1000000015,CFD-BM-022-004-HC.jpg,1500,solid,I,m,1052,7,3,27691.400000000373,290795.7000000011,8047,ATS,C,8
9,prac,1,C,mfborder.png,1,z,Tue Oct 28 2025 14:00:44 GMT-0500 (Central Daylight Time),321437.30000000075,CFD-BF-019-004-HC.jpg,1000,dash,I,z,1154,7,3,30641.599999999627,290795.7000000011,8047,ATS,C,9
10,prac,1,C,mfborder.png,1,z,Tue Oct 28 2025 14:00:44 GMT-0500 (Central Daylight Time),324601.4000000004,CFD-WF-013-009-HC.jpg,1600,dash,I,z,774,7,3,33805.699999999255,290795.7000000011,8047,ATS,C,10
11,prac,1,C,mfborder.png,1,m,Tue Oct 28 2025 14:00:44 GMT-0500 (Central Daylight Time),327950.80000000075,CFD-WM-036-018-A.jpg,1700,solid,I,m,852,7,3,37155.09999999963,290795.7000000011,8047,ATS,C,11
12,prac,1,C,haborder.png,1,m,Tue Oct 28 2025 14:00:44 GMT-0500 (Central Daylight Time),330733.2000000011,CFD-WM-028-005-HC.jpg,1000,dash,I,m,986,7,3,39937.5,290795.7000000011,8047,ATS,C,12
1,test,1,C,mfborder.png,1,z,Tue Oct 28 2025 14:00:44 GMT-0500 (Central Daylight Time),345145.30000000075,CFD-BF-042-031-HC.jpg,1700,dash,I,z,767,1,3,2499.0999999996275,342646.2000000011,8047,ATS,C,1
1,test,1,C,haborder.png,0,z,Tue Oct 28 2025 14:00:44 GMT-0500 (Central Daylight Time),347761.30000000075,CFD-BM-021-026-A.jpg,1700,solid,I,m,883,9,3,5115.0999999996275,342646.2000000011,8047,ATS,C,2
2,test,1,C,mfborder.png,1,z,Tue Oct 28 2025 14:00:44 GMT-0500 (Central Daylight Time),350493.6000000015,CFD-WF-037-016-A.jpg,1500,dash,I,z,1204,3,3,7847.4000000003725,342646.2000000011,8047,ATS,C,3
3,test,1,C,haborder.png,1,m,Tue Oct 28 2025 14:00:44 GMT-0500 (Central Daylight Time),353060.4000000004,CFD-BF-019-004-HC.jpg,1600,solid,I,m,948,10,3,10414.199999999255,342646.2000000011,8047,ATS,C,4
4,test,1,C,haborder.png,1,z,Tue Oct 28 2025 14:00:44 GMT-0500 (Central Daylight Time),355991.7000000011,CFD-BM-043-014-A.jpg,1900,solid,I,z,1010,8,3,13345.5,342646.2000000011,8047,ATS,C,5
5,test,1,C,haborder.png,1,z,Tue Oct 28 2025 14:00:44 GMT-0500 (Central Daylight Time),358541.0,CFD-BM-021-026-A.jpg,1700,solid,I,z,830,9,3,15894.799999998882,342646.2000000011,8047,ATS,C,6
6,test,1,C,mfborder.png,1,m,Tue Oct 28 2025 14:00:44 GMT-0500 (Central Daylight Time),361423.1000000015,CFD-WM-034-040-A.jpg,2000,dash,I,m,860,5,3,18776.900000000373,342646.2000000011,8047,ATS,C,7
7,test,1,C,haborder.png,1,z,Tue Oct 28 2025 14:00:44 GMT-0500 (Central Daylight Time),364055.80000000075,CFD-WM-036-018-A.jpg,1400,solid,I,z,1202,7,3,21409.599999999627,342646.2000000011,8047,ATS,C,8
7,test,1,C,haborder.png,0,m,Tue Oct 28 2025 14:00:44 GMT-0500 (Central Daylight Time),366655.2000000011,CFD-BF-019-004-HC.jpg,1600,solid,I,z,976,10,3,24009.0,342646.2000000011,8047,ATS,C,9
8,test,1,C,mfborder.png,1,m,Tue Oct 28 2025 14:00:44 GMT-0500 (Central Daylight Time),368954.2000000011,CFD-WM-035-036-HC.jpg,1000,dash,I,m,1282,4,3,26308.0,342646.2000000011,8047,ATS,C,10
9,test,1,C,haborder.png,1,z,Tue Oct 28 2025 14:00:44 GMT-0500 (Central Daylight Time),371720.2000000011,CFD-BM-043-014-A.jpg,1900,solid,I,z,843,8,3,29074.0,342646.2000000011,8047,ATS,C,11
9,test,1,C,mfborder.png,0,z,Tue Oct 28 2025 14:00:44 GMT-0500 (Central Daylight Time),374702.6000000015,CFD-BF-031-020-A.jpg,1600,dash,I,m,1353,2,3,32056.400000000373,342646.2000000011,8047,ATS,C,12
10,test,1,C,mfborder.png,1,z,Tue Oct 28 2025 14:00:44 GMT-0500 (Central Daylight Time),377002.0,CFD-BF-031-020-A.jpg,1600,dash,I,z,675,2,3,34355.79999999888,342646.2000000011,8047,ATS,C,13
11,test,1,C,haborder.png,1,m,Tue Oct 28 2025 14:00:44 GMT-0500 (Central Daylight Time),379750.7000000011,CFD-WF-001-010-HC.jpg,1500,solid,I,m,1227,11,3,37104.5,342646.2000000011,8047,ATS,C,14
12,test,1,C,mfborder.png,1,z,Tue Oct 28 2025 14:00:44 GMT-0500 (Central Daylight Time),382400.0,CFD-WF-037-016-A.jpg,1500,dash,I,z,1127,3,3,39753.79999999888,342646.2000000011,8047,ATS,C,15
13,test,1,C,mfborder.png,1,m,Tue Oct 28 2025 14:00:44 GMT-0500 (Central Daylight Time),384540.6000000015,CFD-BM-022-004-HC.jpg,1200,dash,I,m,923,6,3,41894.40000000037,342646.2000000011,8047,ATS,C,16
14,test,1,C,haborder.png,1,z,Tue Oct 28 2025 14:00:44 GMT-0500 (Central Daylight Time),386998.80000000075,CFD-WM-036-018-A.jpg,1400,solid,I,z,1044,7,3,44352.59999999963,342646.2000000011,8047,ATS,C,17
15,test,1,C,mfborder.png,1,m,Tue Oct 28 2025 14:00:44 GMT-0500 (Central Daylight Time),390047.9000000004,CFD-WM-034-040-A.jpg,2000,dash,I,m,1018,5,3,47401.699999999255,342646.2000000011,8047,ATS,C,18
16,test,1,C,mfborder.png,1,m,Tue Oct 28 2025 14:00:44 GMT-0500 (Central Daylight Time),392130.1000000015,CFD-BM-022-004-HC.jpg,1200,dash,I,m,865,6,3,49483.90000000037,342646.2000000011,8047,ATS,C,19
17,test,1,C,mfborder.png,1,m,Tue Oct 28 2025 14:00:44 GMT-0500 (Central Daylight Time),393980.1000000015,CFD-WM-035-036-HC.jpg,1000,dash,I,m,822,4,3,51333.90000000037,342646.2000000011,8047,ATS,C,20
18,test,1,C,mfborder.png,1,z,Tue Oct 28 2025 14:00:44 GMT-0500 (Central Daylight Time),396978.9000000004,CFD-BF-042-031-HC.jpg,1700,dash,I,z,1281,1,3,54332.699999999255,342646.2000000011,8047,ATS,C,21
19,test,1,C,haborder.png,1,m,Tue Oct 28 2025 14:00:44 GMT-0500 (Central Daylight Time),399161.6000000015,CFD-WF-013-009-HC.jpg,1000,solid,I,m,1149,12,3,56515.40000000037,342646.2000000011,8047,ATS,C,22
20,test,1,C,haborder.png,1,m,Tue Oct 28 2025 14:00:44 GMT-0500 (Central Daylight Time),401710.80000000075,CFD-WF-001-010-HC.jpg,1500,solid,I,m,1020,11,3,59064.59999999963,342646.2000000011,8047,ATS,C,23
21,test,1,C,haborder.png,1,m,Tue Oct 28 2025 14:00:44 GMT-0500 (Central Daylight Time),403576.6000000015,CFD-WF-013-009-HC.jpg,1000,solid,I,m,843,12,3,60930.40000000037,342646.2000000011,8047,ATS,C,24
1,test,2,C,mfborder.png,1,z,Tue Oct 28 2025 14:00:44 GMT-0500 (Central Daylight Time),409375.30000000075,CFD-BF-019-004-HC.jpg,1500,dash,I,z,1003,3,3,2531.800000000745,406843.5,8047,ATS,C,1
2,test,2,C,haborder.png,1,z,Tue Oct 28 2025 14:00:44 GMT-0500 (Central Daylight Time),412124.30000000075,CFD-WF-037-016-A.jpg,1700,solid,I,z,1030,9,3,5280.800000000745,406843.5,8047,ATS,C,2
3,test,2,C,mfborder.png,1,m,Tue Oct 28 2025 14:00:44 GMT-0500 (Central Daylight Time),415423.30000000075,CFD-BM-043-014-A.jpg,2000,dash,I,m,1278,5,3,8579.800000000745,406843.5,8047,ATS,C,3
4,test,2,C,mfborder.png,1,z,Tue Oct 28 2025 14:00:44 GMT-0500 (Central Daylight Time),418155.6000000015,CFD-WF-013-009-HC.jpg,1700,dash,I,z,1015,1,3,11312.10000000149,406843.5,8047,ATS,C,4
5,test,2,C,mfborder.png,1,m,Tue Oct 28 2025 14:00:44 GMT-0500 (Central Daylight Time),421088.2000000011,CFD-BM-043-014-A.jpg,2000,dash,I,m,901,5,3,14244.700000001118,406843.5,8047,ATS,C,5
6,test,2,C,mfborder.png,1,z,Tue Oct 28 2025 14:00:44 GMT-0500 (Central Daylight Time),423653.80000000075,CFD-WF-023-013-A.jpg,1600,dash,I,z,945,2,3,16810.300000000745,406843.5,8047,ATS,C,6
7,test,2,C,mfborder.png,1,m,Tue Oct 28 2025 14:00:44 GMT-0500 (Central Daylight Time),425736.6000000015,CFD-WM-036-018-A.jpg,1200,dash,I,m,860,6,3,18893.10000000149,406843.5,8047,ATS,C,7
8,test,2,C,haborder.png,1,m,Tue Oct 28 2025 14:00:44 GMT-0500 (Central Daylight Time),428385.6000000015,CFD-BM-022-004-HC.jpg,1600,solid,I,m,1033,10,3,21542.10000000149,406843.5,8047,ATS,C,8
8,test,2,C,mfborder.png,0,m,Tue Oct 28 2025 14:00:44 GMT-0500 (Central Daylight Time),430918.4000000004,CFD-BM-034-035-HC.jpg,1000,dash,I,None,1515,4,3,24074.900000000373,406843.5,8047,ATS,C,9
9,test,2,C,mfborder.png,1,z,Tue Oct 28 2025 14:00:44 GMT-0500 (Central Daylight Time),433534.2000000011,CFD-WF-023-013-A.jpg,1600,dash,I,z,987,2,3,26690.700000001118,406843.5,8047,ATS,C,10
10,test,2,C,haborder.png,1,m,Tue Oct 28 2025 14:00:44 GMT-0500 (Central Daylight Time),435966.5,CFD-WM-028-005-HC.jpg,1500,solid,I,m,903,11,3,29123.0,406843.5,8047,ATS,C,11
11,test,2,C,haborder.png,1,z,Tue Oct 28 2025 14:00:44 GMT-0500 (Central Daylight Time),438982.4000000004,CFD-BF-002-018-A.jpg,1900,solid,I,z,1089,8,3,32138.900000000373,406843.5,8047,ATS,C,12
12,test,2,C,haborder.png,1,z,Tue Oct 28 2025 14:00:44 GMT-0500 (Central Daylight Time),441898.6000000015,CFD-BF-002-018-A.jpg,1900,solid,I,z,991,8,3,35055.10000000149,406843.5,8047,ATS,C,13
12,test,2,C,haborder.png,0,m,Tue Oct 28 2025 14:00:44 GMT-0500 (Central Daylight Time),445030.6000000015,CFD-BM-022-004-HC.jpg,1600,solid,I,None,1517,10,3,38187.10000000149,406843.5,8047,ATS,C,14
13,test,2,C,mfborder.png,1,m,Tue Oct 28 2025 14:00:44 GMT-0500 (Central Daylight Time),447446.5,CFD-WM-036-018-A.jpg,1200,dash,I,m,1195,6,3,40603.0,406843.5,8047,ATS,C,15
14,test,2,C,haborder.png,1,z,Tue Oct 28 2025 14:00:44 GMT-0500 (Central Daylight Time),449795.6000000015,CFD-BF-031-020-A.jpg,1400,solid,I,z,922,7,3,42952.10000000149,406843.5,8047,ATS,C,16
15,test,2,C,haborder.png,1,z,Tue Oct 28 2025 14:00:44 GMT-0500 (Central Daylight Time),451978.4000000004,CFD-BF-031-020-A.jpg,1400,solid,I,z,758,7,3,45134.90000000037,406843.5,8047,ATS,C,17
16,test,2,C,haborder.png,1,m,Tue Oct 28 2025 14:00:44 GMT-0500 (Central Daylight Time),454094.2000000011,CFD-WM-028-005-HC.jpg,1000,solid,I,m,1095,12,3,47250.70000000112,406843.5,8047,ATS,C,18
17,test,2,C,haborder.png,1,m,Tue Oct 28 2025 14:00:44 GMT-0500 (Central Daylight Time),456010.4000000004,CFD-WM-028-005-HC.jpg,1000,solid,I,m,779,12,3,49166.90000000037,406843.5,8047,ATS,C,19
18,test,2,C,haborder.png,1,m,Tue Oct 28 2025 14:00:44 GMT-0500 (Central Daylight Time),458293.30000000075,CFD-WM-028-005-HC.jpg,1500,solid,I,m,755,11,3,51449.800000000745,406843.5,8047,ATS,C,20
19,test,2,C,mfborder.png,1,z,Tue Oct 28 2025 14:00:44 GMT-0500 (Central Daylight Time),461125.7000000011,CFD-WF-013-009-HC.jpg,1700,dash,I,z,1105,1,3,54282.20000000112,406843.5,8047,ATS,C,21
19,test,2,C,haborder.png,0,z,Tue Oct 28 2025 14:00:44 GMT-0500 (Central Daylight Time),464358.0,CFD-WF-037-016-A.jpg,1700,solid,I,None,1516,9,3,57514.5,406843.5,8047,ATS,C,22
20,test,2,C,mfborder.png,1,m,Tue Oct 28 2025 14:00:44 GMT-0500 (Central Daylight Time),466607.30000000075,CFD-BM-034-035-HC.jpg,1000,dash,I,m,1219,4,3,59763.800000000745,406843.5,8047,ATS,C,23
21,test,2,C,mfborder.png,1,z,Tue Oct 28 2025 14:00:44 GMT-0500 (Central Daylight Time),469206.30000000075,CFD-BF-019-004-HC.jpg,1500,dash,I,z,1078,3,3,62362.800000000745,406843.5,8047,ATS,C,24
1,test,3,C,mfborder.png,1,m,Tue Oct 28 2025 14:00:44 GMT-0500 (Central Daylight Time),474238.1000000015,CFD-BM-022-004-HC.jpg,1200,dash,I,m,904,6,3,2132.60000000149,472105.5,8047,ATS,C,1
2,test,3,C,mfborder.png,1,m,Tue Oct 28 2025 14:00:44 GMT-0500 (Central Daylight Time),475970.80000000075,CFD-WM-035-036-HC.jpg,1000,dash,I,m,707,4,3,3865.300000000745,472105.5,8047,ATS,C,2
2,test,3,C,haborder.png,0,m,Tue Oct 28 2025 14:00:44 GMT-0500 (Central Daylight Time),478453.5,CFD-BF-019-004-HC.jpg,1600,solid,I,z,863,10,3,6348.0,472105.5,8047,ATS,C,3
3,test,3,C,haborder.png,1,z,Tue Oct 28 2025 14:00:44 GMT-0500 (Central Daylight Time),481069.2000000011,CFD-WM-036-018-A.jpg,1400,solid,I,z,1196,7,3,8963.700000001118,472105.5,8047,ATS,C,4
4,test,3,C,mfborder.png,1,z,Tue Oct 28 2025 14:00:44 GMT-0500 (Central Daylight Time),483568.30000000075,CFD-WF-037-016-A.jpg,1500,dash,I,z,968,3,3,11462.800000000745,472105.5,8047,ATS,C,5
5,test,3,C,mfborder.png,1,z,Tue Oct 28 2025 14:00:44 GMT-0500 (Central Daylight Time),486601.1000000015,CFD-BF-042-031-HC.jpg,1700,dash,I,z,1301,1,3,14495.60000000149,472105.5,8047,ATS,C,6
6,test,3,C,mfborder.png,1,m,Tue Oct 28 2025 14:00:44 GMT-0500 (Central Daylight Time),488683.7000000011,CFD-WM-035-036-HC.jpg,1000,dash,I,m,1065,4,3,16578.200000001118,472105.5,8047,ATS,C,7
7,test,3,C,haborder.png,1,z,Tue Oct 28 2025 14:00:44 GMT-0500 (Central Daylight Time),491299.4000000004,CFD-BM-021-026-A.jpg,1700,solid,I,z,898,9,3,19193.900000000373,472105.5,8047,ATS,C,8
8,test,3,C,haborder.png,1,m,Tue Oct 28 2025 14:00:44 GMT-0500 (Central Daylight Time),493681.7000000011,CFD-BF-019-004-HC.jpg,1600,solid,I,m,765,10,3,21576.200000001118,472105.5,8047,ATS,C,9
9,test,3,C,mfborder.png,1,m,Tue Oct 28 2025 14:00:44 GMT-0500 (Central Daylight Time),496664.30000000075,CFD-WM-034-040-A.jpg,2000,dash,I,m,952,5,3,24558.800000000745,472105.5,8047,ATS,C,10
10,test,3,C,haborder.png,1,z,Tue Oct 28 2025 14:00:44 GMT-0500 (Central Daylight Time),499296.7000000011,CFD-BM-021-026-A.jpg,1700,solid,I,z,908,9,3,27191.200000001118,472105.5,8047,ATS,C,11
11,test,3,C,mfborder.png,1,m,Tue Oct 28 2025 14:00:44 GMT-0500 (Central Daylight Time),502195.9000000004,CFD-WM-034-040-A.jpg,2000,dash,I,m,877,5,3,30090.400000000373,472105.5,8047,ATS,C,12
12,test,3,C,mfborder.png,1,z,Tue Oct 28 2025 14:00:44 GMT-0500 (Central Daylight Time),504695.1000000015,CFD-BF-031-020-A.jpg,1600,dash,I,z,877,2,3,32589.60000000149,472105.5,8047,ATS,C,13
12,test,3,C,haborder.png,0,z,Tue Oct 28 2025 14:00:44 GMT-0500 (Central Daylight Time),507794.1000000015,CFD-BM-043-014-A.jpg,1900,solid,I,m,1174,8,3,35688.60000000149,472105.5,8047,ATS,C,14
12,test,3,C,haborder.png,0,m,Tue Oct 28 2025 14:00:44 GMT-0500 (Central Daylight Time),510026.80000000075,CFD-WF-013-009-HC.jpg,1000,solid,I,z,1206,12,3,37921.300000000745,472105.5,8047,ATS,C,15
13,test,3,C,haborder.png,1,m,Tue Oct 28 2025 14:00:44 GMT-0500 (Central Daylight Time),512376.1000000015,CFD-WF-001-010-HC.jpg,1500,solid,I,m,827,11,3,40270.60000000149,472105.5,8047,ATS,C,16
14,test,3,C,haborder.png,1,z,Tue Oct 28 2025 14:00:44 GMT-0500 (Central Daylight Time),514742.0,CFD-WM-036-018-A.jpg,1400,solid,I,z,945,7,3,42636.5,472105.5,8047,ATS,C,17
15,test,3,C,haborder.png,1,m,Tue Oct 28 2025 14:00:44 GMT-0500 (Central Daylight Time),517241.2000000011,CFD-WF-001-010-HC.jpg,1500,solid,I,m,975,11,3,45135.70000000112,472105.5,8047,ATS,C,18
16,test,3,C,mfborder.png,1,m,Tue Oct 28 2025 14:00:44 GMT-0500 (Central Daylight Time),519490.6000000015,CFD-BM-022-004-HC.jpg,1200,dash,I,m,1023,6,3,47385.10000000149,472105.5,8047,ATS,C,19
17,test,3,C,mfborder.png,1,z,Tue Oct 28 2025 14:00:44 GMT-0500 (Central Daylight Time),522373.0,CFD-BF-031-020-A.jpg,1600,dash,I,z,1255,2,3,50267.5,472105.5,8047,ATS,C,20
17,test,3,C,mfborder.png,0,z,Tue Oct 28 2025 14:00:44 GMT-0500 (Central Daylight Time),525471.9000000004,CFD-BF-042-031-HC.jpg,1700,dash,I,m,1377,1,3,53366.40000000037,472105.5,8047,ATS,C,21
18,test,3,C,mfborder.png,1,z,Tue Oct 28 2025 14:00:44 GMT-0500 (Central Daylight Time),527804.7000000011,CFD-WF-037-016-A.jpg,1500,dash,I,z,805,3,3,55699.20000000112,472105.5,8047,ATS,C,22
19,test,3,C,haborder.png,1,z,Tue Oct 28 2025 14:00:44 GMT-0500 (Central Daylight Time),530986.8000000007,CFD-BM-043-014-A.jpg,1900,solid,I,z,1257,8,3,58881.300000000745,472105.5,8047,ATS,C,23
20,test,3,C,haborder.png,1,m,Tue Oct 28 2025 14:00:44 GMT-0500 (Central Daylight Time),533269.7000000011,CFD-WF-013-009-HC.jpg,1000,solid,I,m,1262,12,3,61164.20000000112,472105.5,8047,ATS,C,24
1,test,4,C,haborder.png,1,z,Tue Oct 28 2025 14:00:44 GMT-0500 (Central Daylight Time),539284.4000000004,CFD-BF-031-020-A.jpg,1400,solid,I,z,1046,7,3,2465.699999999255,536818.7000000011,8047,ATS,C,1
2,test,4,C,haborder.png,1,m,Tue Oct 28 2025 14:00:44 GMT-0500 (Central Daylight Time),541883.7000000011,CFD-BM-022-004-HC.jpg,1600,solid,I,m,973,10,3,5065.0,536818.7000000011,8047,ATS,C,2
3,test,4,C,mfborder.png,1,m,Tue Oct 28 2025 14:00:44 GMT-0500 (Central Daylight Time),544166.3000000007,CFD-WM-036-018-A.jpg,1200,dash,I,m,1054,6,3,7347.5999999996275,536818.7000000011,8047,ATS,C,3
4,test,4,C,haborder.png,1,z,Tue Oct 28 2025 14:00:44 GMT-0500 (Central Daylight Time),547065.1000000015,CFD-BF-002-018-A.jpg,1900,solid,I,z,976,8,3,10246.400000000373,536818.7000000011,8047,ATS,C,4
5,test,4,C,haborder.png,1,m,Tue Oct 28 2025 14:00:44 GMT-0500 (Central Daylight Time),549764.5,CFD-BM-022-004-HC.jpg,1600,solid,I,m,1080,10,3,12945.799999998882,536818.7000000011,8047,ATS,C,5
6,test,4,C,mfborder.png,1,z,Tue Oct 28 2025 14:00:44 GMT-0500 (Central Daylight Time),552513.9000000004,CFD-WF-013-009-HC.jpg,1700,dash,I,z,1025,1,3,15695.199999999255,536818.7000000011,8047,ATS,C,6
7,test,4,C,mfborder.png,1,z,Tue Oct 28 2025 14:00:44 GMT-0500 (Central Daylight Time),554945.8000000007,CFD-BF-019-004-HC.jpg,1500,dash,I,z,915,3,3,18127.099999999627,536818.7000000011,8047,ATS,C,7
8,test,4,C,haborder.png,1,z,Tue Oct 28 2025 14:00:44 GMT-0500 (Central Daylight Time),558145.1000000015,CFD-WF-037-016-A.jpg,1700,solid,I,z,1466,9,3,21326.400000000373,536818.7000000011,8047,ATS,C,8
9,test,4,C,mfborder.png,1,z,Tue Oct 28 2025 14:00:44 GMT-0500 (Central Daylight Time),560777.8000000007,CFD-WF-013-009-HC.jpg,1700,dash,I,z,909,1,3,23959.099999999627,536818.7000000011,8047,ATS,C,9
10,test,4,C,mfborder.png,1,m,Tue Oct 28 2025 14:00:44 GMT-0500 (Central Daylight Time),563826.4000000004,CFD-BM-043-014-A.jpg,2000,dash,I,m,1032,5,3,27007.699999999255,536818.7000000011,8047,ATS,C,10
11,test,4,C,mfborder.png,1,z,Tue Oct 28 2025 14:00:44 GMT-0500 (Central Daylight Time),566575.6000000015,CFD-WF-023-013-A.jpg,1600,dash,I,z,1118,2,3,29756.900000000373,536818.7000000011,8047,ATS,C,11
12,test,4,C,mfborder.png,1,m,Tue Oct 28 2025 14:00:44 GMT-0500 (Central Daylight Time),568708.5,CFD-BM-034-035-HC.jpg,1000,dash,I,m,1106,4,3,31889.799999998882,536818.7000000011,8047,ATS,C,12
13,test,4,C,haborder.png,1,z,Tue Oct 28 2025 14:00:44 GMT-0500 (Central Daylight Time),571057.7000000011,CFD-BF-031-020-A.jpg,1400,solid,I,z,932,7,3,34239.0,536818.7000000011,8047,ATS,C,13
14,test,4,C,mfborder.png,1,z,Tue Oct 28 2025 14:00:44 GMT-0500 (Central Daylight Time),573757.0,CFD-BF-019-004-HC.jpg,1500,dash,I,z,1180,3,3,36938.29999999888,536818.7000000011,8047,ATS,C,14
14,test,4,C,haborder.png,0,m,Tue Oct 28 2025 14:00:44 GMT-0500 (Central Daylight Time),576289.5,CFD-WM-028-005-HC.jpg,1000,solid,I,None,1516,12,3,39470.79999999888,536818.7000000011,8047,ATS,C,15
15,test,4,C,mfborder.png,1,m,Tue Oct 28 2025 14:00:44 GMT-0500 (Central Daylight Time),578255.4000000004,CFD-BM-034-035-HC.jpg,1000,dash,I,m,944,4,3,41436.699999999255,536818.7000000011,8047,ATS,C,16
16,test,4,C,haborder.png,1,m,Tue Oct 28 2025 14:00:44 GMT-0500 (Central Daylight Time),580038.3000000007,CFD-WM-028-005-HC.jpg,1000,solid,I,m,754,12,3,43219.59999999963,536818.7000000011,8047,ATS,C,17
17,test,4,C,mfborder.png,1,z,Tue Oct 28 2025 14:00:44 GMT-0500 (Central Daylight Time),582770.6000000015,CFD-WF-023-013-A.jpg,1600,dash,I,z,1107,2,3,45951.90000000037,536818.7000000011,8047,ATS,C,18
18,test,4,C,mfborder.png,1,m,Tue Oct 28 2025 14:00:44 GMT-0500 (Central Daylight Time),585653.3000000007,CFD-BM-043-014-A.jpg,2000,dash,I,m,854,5,3,48834.59999999963,536818.7000000011,8047,ATS,C,19
19,test,4,C,haborder.png,1,m,Tue Oct 28 2025 14:00:44 GMT-0500 (Central Daylight Time),588119.1000000015,CFD-WM-028-005-HC.jpg,1500,solid,I,m,944,11,3,51300.40000000037,536818.7000000011,8047,ATS,C,20
20,test,4,C,haborder.png,1,z,Tue Oct 28 2025 14:00:44 GMT-0500 (Central Daylight Time),590868.3000000007,CFD-WF-037-016-A.jpg,1700,solid,I,z,1030,9,3,54049.59999999963,536818.7000000011,8047,ATS,C,21
21,test,4,C,haborder.png,1,z,Tue Oct 28 2025 14:00:44 GMT-0500 (Central Daylight Time),593584.1000000015,CFD-BF-002-018-A.jpg,1900,solid,I,z,786,8,3,56765.40000000037,536818.7000000011,8047,ATS,C,22
22,test,4,C,mfborder.png,1,m,Tue Oct 28 2025 14:00:44 GMT-0500 (Central Daylight Time),596016.5,CFD-WM-036-018-A.jpg,1200,dash,I,m,1209,6,3,59197.79999999888,536818.7000000011,8047,ATS,C,23
23,test,4,C,haborder.png,1,m,Tue Oct 28 2025 14:00:44 GMT-0500 (Central Daylight Time),598399.0,CFD-WM-028-005-HC.jpg,1500,solid,I,m,853,11,3,61580.29999999888,536818.7000000011,8047,ATS,C,24
