acc_sum,block,block_c,change,condition,correct,correct_response,datetime,endtime,face,project,response,response_time,row_sel,session_number,start_end,starttime,subject_id,task,task_vers,trial
0,prac,1,,1-Back,,,Tue Jul 29 2025 16:22:22 GMT-0500 (Central Daylight Time),,012_o_f_d_a.png,O,space,4054,1,1,,,7189,VNB,C,0
1,prac,1,0.0,1-Back,1.0,m,Tue Jul 29 2025 16:22:22 GMT-0500 (Central Daylight Time),161104.0,022_y_f_n_a.png,O,m,1945,2,1,2854.5,158249.5,7189,VNB,C,1
2,prac,1,0.0,1-Back,1.0,m,Tue Jul 29 2025 16:22:22 GMT-0500 (Central Daylight Time),163003.20000000298,014_m_m_h_a.png,O,m,997,3,1,1891.1000000089407,161112.09999999404,7189,VNB,C,2
3,prac,1,0.0,1-Back,1.0,m,Tue Jul 29 2025 16:22:22 GMT-0500 (Central Daylight Time),164769.39999999106,025_y_m_d_a.png,O,m,870,4,1,1758.0,163011.39999999106,7189,VNB,C,3
4,prac,1,0.0,1-Back,1.0,m,Tue Jul 29 2025 16:22:22 GMT-0500 (Central Daylight Time),167102.09999999404,012_o_f_n_a.png,O,m,1427,5,1,2324.8999999910593,164777.20000000298,7189,VNB,C,4
4,prac,1,1.0,1-Back,0.0,z,Tue Jul 29 2025 16:22:22 GMT-0500 (Central Daylight Time),170001.29999999702,025_y_m_n_a.png,O,None,2011,6,1,2891.0,167110.29999999702,7189,VNB,C,5
5,prac,1,0.0,1-Back,1.0,m,Tue Jul 29 2025 16:22:22 GMT-0500 (Central Daylight Time),171983.70000000298,015_o_m_h_a.png,O,m,1061,7,1,1976.0,170007.70000000298,7189,VNB,C,6
6,prac,1,0.0,1-Back,1.0,m,Tue Jul 29 2025 16:22:22 GMT-0500 (Central Daylight Time),173650.0,019_m_f_d_a.png,O,m,744,8,1,1657.9000000059605,171992.09999999404,7189,VNB,C,7
7,prac,1,1.0,1-Back,1.0,z,Tue Jul 29 2025 16:22:22 GMT-0500 (Central Daylight Time),175799.29999999702,022_y_f_d_a.png,O,z,1232,9,1,2140.7000000029802,173658.59999999404,7189,VNB,C,8
8,prac,1,0.0,1-Back,1.0,m,Tue Jul 29 2025 16:22:22 GMT-0500 (Central Daylight Time),177415.70000000298,014_m_m_n_a.png,O,m,710,10,1,1608.0,175807.70000000298,7189,VNB,C,9
9,prac,1,0.0,1-Back,1.0,m,Tue Jul 29 2025 16:22:22 GMT-0500 (Central Daylight Time),179165.09999999404,012_o_f_h_a.png,O,m,839,11,1,1741.0,177424.09999999404,7189,VNB,C,10
10,prac,1,0.0,1-Back,1.0,m,Tue Jul 29 2025 16:22:22 GMT-0500 (Central Daylight Time),180932.0,025_y_m_d_a.png,O,m,871,12,1,1760.1000000089407,179171.89999999106,7189,VNB,C,11
0,test,1,0.0,1-Back,,,Tue Jul 29 2025 16:22:22 GMT-0500 (Central Daylight Time),180932.0,022_y_f_d_a.png,O,space,5067,1,1,1760.1000000089407,179171.89999999106,7189,VNB,C,0
1,test,1,0.0,1-Back,1.0,m,Tue Jul 29 2025 16:22:22 GMT-0500 (Central Daylight Time),197042.70000000298,019_m_f_n_a.png,O,m,1017,2,1,2044.4000000059605,194998.29999999702,7189,VNB,C,1
2,test,1,0.0,1-Back,1.0,m,Tue Jul 29 2025 16:22:22 GMT-0500 (Central Daylight Time),198808.70000000298,015_o_m_h_a.png,O,m,736,3,1,1760.800000011921,197047.89999999106,7189,VNB,C,2
3,test,1,1.0,1-Back,1.0,z,Tue Jul 29 2025 16:22:22 GMT-0500 (Central Daylight Time),200758.0,014_m_m_h_a.png,O,z,929,4,1,1944.2999999970198,198813.70000000298,7189,VNB,C,3
4,test,1,0.0,1-Back,1.0,m,Tue Jul 29 2025 16:22:22 GMT-0500 (Central Daylight Time),202657.70000000298,012_o_f_n_a.png,O,m,876,5,1,1895.5,200762.20000000298,7189,VNB,C,4
5,test,1,0.0,1-Back,1.0,m,Tue Jul 29 2025 16:22:22 GMT-0500 (Central Daylight Time),204357.09999999404,025_y_m_d_a.png,O,m,679,6,1,1694.5999999940395,202662.5,7189,VNB,C,5
6,test,1,1.0,1-Back,1.0,z,Tue Jul 29 2025 16:22:22 GMT-0500 (Central Daylight Time),206773.09999999404,019_m_f_d_a.png,O,z,1389,7,1,2410.3999999910593,204362.70000000298,7189,VNB,C,6
7,test,1,0.0,1-Back,1.0,m,Tue Jul 29 2025 16:22:22 GMT-0500 (Central Daylight Time),208889.0,022_y_f_h_a.png,O,m,1093,8,1,2111.6000000089407,206777.39999999106,7189,VNB,C,7
8,test,1,0.0,1-Back,1.0,m,Tue Jul 29 2025 16:22:22 GMT-0500 (Central Daylight Time),210921.70000000298,015_o_m_n_a.png,O,m,1009,9,1,2028.5,208893.20000000298,7189,VNB,C,8
9,test,1,0.0,1-Back,1.0,m,Tue Jul 29 2025 16:22:22 GMT-0500 (Central Daylight Time),213454.29999999702,025_y_m_h_a.png,O,m,1505,10,1,2528.5,210925.79999999702,7189,VNB,C,9
10,test,1,0.0,1-Back,1.0,m,Tue Jul 29 2025 16:22:22 GMT-0500 (Central Daylight Time),215332.5,015_o_m_d_a.png,O,m,861,11,1,1873.9000000059605,213458.59999999404,7189,VNB,C,10
11,test,1,1.0,1-Back,1.0,z,Tue Jul 29 2025 16:22:22 GMT-0500 (Central Daylight Time),217569.59999999404,012_o_f_d_a.png,O,z,1202,12,1,2231.0,215338.59999999404,7189,VNB,C,11
12,test,1,0.0,1-Back,1.0,m,Tue Jul 29 2025 16:22:22 GMT-0500 (Central Daylight Time),219585.59999999404,014_m_m_n_a.png,O,m,993,13,1,2011.2000000029802,217574.39999999106,7189,VNB,C,12
13,test,1,1.0,1-Back,1.0,z,Tue Jul 29 2025 16:22:22 GMT-0500 (Central Daylight Time),221818.20000000298,022_y_f_n_a.png,O,z,1200,14,1,2228.800000011921,219589.39999999106,7189,VNB,C,13
14,test,1,0.0,1-Back,1.0,m,Tue Jul 29 2025 16:22:22 GMT-0500 (Central Daylight Time),223584.39999999106,019_m_f_h_a.png,O,m,736,15,1,1761.8999999910593,221822.5,7189,VNB,C,14
15,test,1,0.0,1-Back,1.0,m,Tue Jul 29 2025 16:22:22 GMT-0500 (Central Daylight Time),225483.59999999404,014_m_m_d_a.png,O,m,874,16,1,1895.2000000029802,223588.39999999106,7189,VNB,C,15
16,test,1,0.0,1-Back,1.0,m,Tue Jul 29 2025 16:22:22 GMT-0500 (Central Daylight Time),227499.70000000298,025_y_m_n_a.png,O,m,998,17,1,2010.800000011921,225488.89999999106,7189,VNB,C,16
17,test,1,0.0,1-Back,1.0,m,Tue Jul 29 2025 16:22:22 GMT-0500 (Central Daylight Time),229082.59999999404,012_o_f_h_a.png,O,m,558,18,1,1578.2000000029802,227504.39999999106,7189,VNB,C,17
0,test,2,0.0,1-Back,,,Tue Jul 29 2025 16:22:22 GMT-0500 (Central Daylight Time),229082.59999999404,025_y_m_n_a.png,O,space,1304,1,1,1578.2000000029802,227504.39999999106,7189,VNB,C,0
1,test,2,0.0,1-Back,1.0,m,Tue Jul 29 2025 16:22:22 GMT-0500 (Central Daylight Time),234280.89999999106,022_y_f_h_a.png,O,m,843,2,1,1860.5,232420.39999999106,7189,VNB,C,1
2,test,2,1.0,1-Back,1.0,m,Tue Jul 29 2025 16:22:22 GMT-0500 (Central Daylight Time),236313.79999999702,015_o_m_n_a.png,O,m,1002,3,1,2029.0999999940395,234284.70000000298,7189,VNB,C,2
3,test,2,0.0,1-Back,1.0,m,Tue Jul 29 2025 16:22:22 GMT-0500 (Central Daylight Time),237913.20000000298,019_m_f_d_a.png,O,m,576,4,1,1594.4000000059605,236318.79999999702,7189,VNB,C,3
4,test,2,0.0,1-Back,1.0,z,Tue Jul 29 2025 16:22:22 GMT-0500 (Central Daylight Time),239845.79999999702,014_m_m_d_a.png,O,z,917,5,1,1928.0,237917.79999999702,7189,VNB,C,4
5,test,2,0.0,1-Back,1.0,m,Tue Jul 29 2025 16:22:22 GMT-0500 (Central Daylight Time),241712.0,025_y_m_h_a.png,O,m,844,6,1,1861.6000000089407,239850.39999999106,7189,VNB,C,5
6,test,2,1.0,1-Back,1.0,z,Tue Jul 29 2025 16:22:22 GMT-0500 (Central Daylight Time),243827.89999999106,012_o_f_h_a.png,O,z,1098,7,1,2111.2999999970198,241716.59999999404,7189,VNB,C,6
7,test,2,0.0,1-Back,1.0,m,Tue Jul 29 2025 16:22:22 GMT-0500 (Central Daylight Time),245510.70000000298,019_m_f_n_a.png,O,m,654,8,1,1678.9000000059605,243831.79999999702,7189,VNB,C,7
8,test,2,0.0,1-Back,1.0,m,Tue Jul 29 2025 16:22:22 GMT-0500 (Central Daylight Time),247260.20000000298,022_y_f_d_a.png,O,m,733,9,1,1745.0,245515.20000000298,7189,VNB,C,8
9,test,2,0.0,1-Back,1.0,m,Tue Jul 29 2025 16:22:22 GMT-0500 (Central Daylight Time),249576.20000000298,014_m_m_n_a.png,O,m,1286,10,1,2311.4000000059605,247264.79999999702,7189,VNB,C,9
10,test,2,1.0,1-Back,1.0,m,Tue Jul 29 2025 16:22:22 GMT-0500 (Central Daylight Time),251142.29999999702,019_m_f_h_a.png,O,m,538,11,1,1562.7000000029802,249579.59999999404,7189,VNB,C,10
11,test,2,0.0,1-Back,1.0,z,Tue Jul 29 2025 16:22:22 GMT-0500 (Central Daylight Time),253125.0,015_o_m_h_a.png,O,z,965,12,1,1978.1000000089407,251146.89999999106,7189,VNB,C,11
12,test,2,0.0,1-Back,1.0,m,Tue Jul 29 2025 16:22:22 GMT-0500 (Central Daylight Time),254941.09999999404,025_y_m_d_a.png,O,m,789,13,1,1812.2999999970198,253128.79999999702,7189,VNB,C,12
13,test,2,0.0,1-Back,1.0,m,Tue Jul 29 2025 16:22:22 GMT-0500 (Central Daylight Time),256824.0,012_o_f_n_a.png,O,m,861,14,1,1877.7999999970198,254946.20000000298,7189,VNB,C,13
14,test,2,0.0,1-Back,1.0,z,Tue Jul 29 2025 16:22:22 GMT-0500 (Central Daylight Time),259789.59999999404,022_y_f_n_a.png,O,z,1939,15,1,2961.5999999940395,256828.0,7189,VNB,C,14
15,test,2,1.0,1-Back,1.0,m,Tue Jul 29 2025 16:22:22 GMT-0500 (Central Daylight Time),261372.39999999106,014_m_m_h_a.png,O,m,565,16,1,1578.5999999940395,259793.79999999702,7189,VNB,C,15
16,test,2,0.0,1-Back,1.0,m,Tue Jul 29 2025 16:22:22 GMT-0500 (Central Daylight Time),263305.09999999404,012_o_f_d_a.png,O,m,816,17,1,1927.3999999910593,261377.70000000298,7189,VNB,C,16
17,test,2,1.0,1-Back,1.0,z,Tue Jul 29 2025 16:22:22 GMT-0500 (Central Daylight Time),265471.0,015_o_m_d_a.png,O,z,1137,18,1,2160.5,263310.5,7189,VNB,C,17
0,test,3,1.0,1-Back,,,Tue Jul 29 2025 16:22:22 GMT-0500 (Central Daylight Time),265471.0,012_o_f_h_a.png,O,space,971,1,1,2160.5,263310.5,7189,VNB,C,0
1,test,3,0.0,1-Back,1.0,m,Tue Jul 29 2025 16:22:22 GMT-0500 (Central Daylight Time),270319.59999999404,019_m_f_d_a.png,O,m,712,2,1,1727.5,268592.09999999404,7189,VNB,C,1
2,test,3,1.0,1-Back,1.0,m,Tue Jul 29 2025 16:22:22 GMT-0500 (Central Daylight Time),272102.39999999106,014_m_m_n_a.png,O,m,754,3,1,1777.8999999910593,270324.5,7189,VNB,C,2
3,test,3,0.0,1-Back,1.0,z,Tue Jul 29 2025 16:22:22 GMT-0500 (Central Daylight Time),274118.5,012_o_f_n_a.png,O,z,996,4,1,2011.4000000059605,272107.09999999404,7189,VNB,C,3
4,test,3,1.0,1-Back,1.0,m,Tue Jul 29 2025 16:22:22 GMT-0500 (Central Daylight Time),275768.0,015_o_m_d_a.png,O,m,628,5,1,1645.7000000029802,274122.299999997,7189,VNB,C,4
5,test,3,0.0,1-Back,1.0,m,Tue Jul 29 2025 16:22:22 GMT-0500 (Central Daylight Time),277700.700000003,022_y_f_h_a.png,O,m,906,6,1,1927.800000011921,275772.89999999106,7189,VNB,C,5
5,test,3,0.0,1-Back,0.0,z,Tue Jul 29 2025 16:22:22 GMT-0500 (Central Daylight Time),279516.700000003,025_y_m_h_a.png,O,m,790,7,1,1811.9000000059605,277704.799999997,7189,VNB,C,6
6,test,3,0.0,1-Back,1.0,m,Tue Jul 29 2025 16:22:22 GMT-0500 (Central Daylight Time),281565.89999999106,019_m_f_n_a.png,O,m,1022,8,1,2043.7999999970198,279522.09999999404,7189,VNB,C,7
7,test,3,0.0,1-Back,1.0,m,Tue Jul 29 2025 16:22:22 GMT-0500 (Central Daylight Time),283232.39999999106,022_y_f_d_a.png,O,m,636,9,1,1661.8999999910593,281570.5,7189,VNB,C,8
8,test,3,1.0,1-Back,1.0,m,Tue Jul 29 2025 16:22:22 GMT-0500 (Central Daylight Time),285148.200000003,015_o_m_n_a.png,O,m,898,10,1,1911.7000000029802,283236.5,7189,VNB,C,9
9,test,3,0.0,1-Back,1.0,m,Tue Jul 29 2025 16:22:22 GMT-0500 (Central Daylight Time),286781.200000003,014_m_m_h_a.png,O,m,605,11,1,1628.6000000089407,285152.59999999404,7189,VNB,C,10
9,test,3,0.0,1-Back,0.0,z,Tue Jul 29 2025 16:22:22 GMT-0500 (Central Daylight Time),288614.0,019_m_f_h_a.png,O,m,805,12,1,1828.5,286785.5,7189,VNB,C,11
9,test,3,1.0,1-Back,0.0,m,Tue Jul 29 2025 16:22:22 GMT-0500 (Central Daylight Time),290396.700000003,012_o_f_d_a.png,O,z,757,13,1,1778.1000000089407,288618.59999999404,7189,VNB,C,12
9,test,3,0.0,1-Back,0.0,z,Tue Jul 29 2025 16:22:22 GMT-0500 (Central Daylight Time),293229.09999999404,014_m_m_d_a.png,O,m,1813,14,1,2828.5,290400.59999999404,7189,VNB,C,13
10,test,3,0.0,1-Back,1.0,m,Tue Jul 29 2025 16:22:22 GMT-0500 (Central Daylight Time),295861.700000003,025_y_m_n_a.png,O,m,1614,15,1,2627.5,293234.200000003,7189,VNB,C,14
11,test,3,1.0,1-Back,1.0,m,Tue Jul 29 2025 16:22:22 GMT-0500 (Central Daylight Time),297561.09999999404,015_o_m_h_a.png,O,m,677,16,1,1695.0,295866.09999999404,7189,VNB,C,15
12,test,3,0.0,1-Back,1.0,m,Tue Jul 29 2025 16:22:22 GMT-0500 (Central Daylight Time),299527.200000003,025_y_m_d_a.png,O,m,937,17,1,1962.0,297565.200000003,7189,VNB,C,16
13,test,3,1.0,1-Back,1.0,m,Tue Jul 29 2025 16:22:22 GMT-0500 (Central Daylight Time),301276.59999999404,022_y_f_n_a.png,O,m,731,18,1,1744.8999999910593,299531.700000003,7189,VNB,C,17
0,test,4,1.0,1-Back,,,Tue Jul 29 2025 16:22:22 GMT-0500 (Central Daylight Time),301276.59999999404,014_m_m_d_a.png,O,space,1262,1,1,1744.8999999910593,299531.700000003,7189,VNB,C,0
0,test,4,0.0,1-Back,0.0,z,Tue Jul 29 2025 16:22:22 GMT-0500 (Central Daylight Time),306808.200000003,015_o_m_d_a.png,O,m,1227,2,1,2244.6000000089407,304563.59999999404,7189,VNB,C,1
1,test,4,0.0,1-Back,1.0,m,Tue Jul 29 2025 16:22:22 GMT-0500 (Central Daylight Time),309007.299999997,025_y_m_h_a.png,O,m,1178,3,1,2195.0,306812.299999997,7189,VNB,C,2
2,test,4,0.0,1-Back,1.0,m,Tue Jul 29 2025 16:22:22 GMT-0500 (Central Daylight Time),310673.5,019_m_f_n_a.png,O,m,643,4,1,1661.7999999970198,309011.700000003,7189,VNB,C,3
3,test,4,1.0,1-Back,1.0,m,Tue Jul 29 2025 16:22:22 GMT-0500 (Central Daylight Time),312272.89999999106,012_o_f_h_a.png,O,m,569,5,1,1595.699999988079,310677.200000003,7189,VNB,C,4
4,test,4,0.0,1-Back,1.0,m,Tue Jul 29 2025 16:22:22 GMT-0500 (Central Daylight Time),314055.89999999106,014_m_m_n_a.png,O,m,753,6,1,1779.3999999910593,312276.5,7189,VNB,C,5
5,test,4,0.0,1-Back,1.0,m,Tue Jul 29 2025 16:22:22 GMT-0500 (Central Daylight Time),315955.5,025_y_m_d_a.png,O,m,882,7,1,1895.2000000029802,314060.299999997,7189,VNB,C,6
6,test,4,1.0,1-Back,1.0,z,Tue Jul 29 2025 16:22:22 GMT-0500 (Central Daylight Time),318088.0,022_y_f_d_a.png,O,z,1103,8,1,2127.5,315960.5,7189,VNB,C,7
7,test,4,0.0,1-Back,1.0,m,Tue Jul 29 2025 16:22:22 GMT-0500 (Central Daylight Time),319837.39999999106,019_m_f_h_a.png,O,m,730,9,1,1743.5,318093.89999999106,7189,VNB,C,8
8,test,4,0.0,1-Back,1.0,z,Tue Jul 29 2025 16:22:22 GMT-0500 (Central Daylight Time),321886.700000003,015_o_m_h_a.png,O,z,1029,10,1,2045.800000011921,319840.89999999106,7189,VNB,C,9
9,test,4,1.0,1-Back,1.0,m,Tue Jul 29 2025 16:22:22 GMT-0500 (Central Daylight Time),323552.89999999106,012_o_f_n_a.png,O,m,643,11,1,1661.7999999970198,321891.09999999404,7189,VNB,C,10
10,test,4,0.0,1-Back,1.0,m,Tue Jul 29 2025 16:22:22 GMT-0500 (Central Daylight Time),325352.39999999106,019_m_f_d_a.png,O,m,777,12,1,1795.2999999970198,323557.09999999404,7189,VNB,C,11
10,test,4,0.0,1-Back,0.0,m,Tue Jul 29 2025 16:22:22 GMT-0500 (Central Daylight Time),327401.700000003,022_y_f_n_a.png,O,z,1026,13,1,2045.1000000089407,325356.59999999404,7189,VNB,C,12
11,test,4,0.0,1-Back,1.0,m,Tue Jul 29 2025 16:22:22 GMT-0500 (Central Daylight Time),328967.799999997,012_o_f_d_a.png,O,m,545,14,1,1561.9000000059605,327405.89999999106,7189,VNB,C,13
11,test,4,0.0,1-Back,0.0,m,Tue Jul 29 2025 16:22:22 GMT-0500 (Central Daylight Time),331050.799999997,022_y_f_h_a.png,O,z,1059,15,1,2078.7999999970198,328972.0,7189,VNB,C,14
12,test,4,1.0,1-Back,1.0,z,Tue Jul 29 2025 16:22:22 GMT-0500 (Central Daylight Time),333599.799999997,014_m_m_h_a.png,O,z,1520,16,1,2545.5,331054.299999997,7189,VNB,C,15
13,test,4,0.0,1-Back,1.0,m,Tue Jul 29 2025 16:22:22 GMT-0500 (Central Daylight Time),335182.5,015_o_m_n_a.png,O,m,562,17,1,1578.1000000089407,333604.39999999106,7189,VNB,C,16
14,test,4,1.0,1-Back,1.0,z,Tue Jul 29 2025 16:22:22 GMT-0500 (Central Daylight Time),337382.0,025_y_m_n_a.png,O,z,1172,18,1,2195.1000000089407,335186.89999999106,7189,VNB,C,17
0,test,5,1.0,1-Back,,,Tue Jul 29 2025 16:22:22 GMT-0500 (Central Daylight Time),337382.0,015_o_m_n_a.png,O,space,1197,1,1,2195.1000000089407,335186.89999999106,7189,VNB,C,0
1,test,5,1.0,1-Back,1.0,m,Tue Jul 29 2025 16:22:22 GMT-0500 (Central Daylight Time),342813.5,012_o_f_h_a.png,O,m,1189,2,1,2210.1000000089407,340603.39999999106,7189,VNB,C,1
2,test,5,0.0,1-Back,1.0,m,Tue Jul 29 2025 16:22:22 GMT-0500 (Central Daylight Time),345246.200000003,025_y_m_d_a.png,O,m,1413,3,1,2429.1000000089407,342817.09999999404,7189,VNB,C,2
3,test,5,0.0,1-Back,1.0,z,Tue Jul 29 2025 16:22:22 GMT-0500 (Central Daylight Time),347395.5,015_o_m_d_a.png,O,z,1124,4,1,2145.1000000089407,345250.39999999106,7189,VNB,C,3
4,test,5,0.0,1-Back,1.0,m,Tue Jul 29 2025 16:22:22 GMT-0500 (Central Daylight Time),349094.700000003,019_m_f_h_a.png,O,m,679,5,1,1694.7000000029802,347400.0,7189,VNB,C,4
5,test,5,0.0,1-Back,1.0,m,Tue Jul 29 2025 16:22:22 GMT-0500 (Central Daylight Time),351410.799999997,022_y_f_n_a.png,O,m,1291,6,1,2311.7999999970198,349099.0,7189,VNB,C,5
6,test,5,1.0,1-Back,1.0,z,Tue Jul 29 2025 16:22:22 GMT-0500 (Central Daylight Time),353426.799999997,012_o_f_n_a.png,O,z,984,7,1,2011.7000000029802,351415.09999999404,7189,VNB,C,6
7,test,5,0.0,1-Back,1.0,m,Tue Jul 29 2025 16:22:22 GMT-0500 (Central Daylight Time),355093.09999999404,019_m_f_d_a.png,O,m,640,8,1,1662.5,353430.59999999404,7189,VNB,C,7
8,test,5,0.0,1-Back,1.0,m,Tue Jul 29 2025 16:22:22 GMT-0500 (Central Daylight Time),357975.5,025_y_m_h_a.png,O,m,1853,9,1,2878.2000000029802,355097.299999997,7189,VNB,C,8
9,test,5,0.0,1-Back,1.0,m,Tue Jul 29 2025 16:22:22 GMT-0500 (Central Daylight Time),360124.700000003,022_y_f_d_a.png,O,m,1131,10,1,2145.2000000029802,357979.5,7189,VNB,C,9
10,test,5,0.0,1-Back,1.0,m,Tue Jul 29 2025 16:22:22 GMT-0500 (Central Daylight Time),362107.5,014_m_m_n_a.png,O,m,950,11,1,1978.6000000089407,360128.89999999106,7189,VNB,C,10
11,test,5,1.0,1-Back,1.0,z,Tue Jul 29 2025 16:22:22 GMT-0500 (Central Daylight Time),364723.299999997,019_m_f_n_a.png,O,z,1591,12,1,2611.4000000059605,362111.89999999106,7189,VNB,C,11
12,test,5,0.0,1-Back,1.0,m,Tue Jul 29 2025 16:22:22 GMT-0500 (Central Daylight Time),366989.200000003,015_o_m_h_a.png,O,m,1247,13,1,2261.300000011921,364727.89999999106,7189,VNB,C,12
13,test,5,0.0,1-Back,1.0,z,Tue Jul 29 2025 16:22:22 GMT-0500 (Central Daylight Time),368922.0,014_m_m_h_a.png,O,z,901,14,1,1928.2000000029802,366993.799999997,7189,VNB,C,13
14,test,5,1.0,1-Back,1.0,m,Tue Jul 29 2025 16:22:22 GMT-0500 (Central Daylight Time),370604.799999997,012_o_f_d_a.png,O,m,656,15,1,1677.7000000029802,368927.09999999404,7189,VNB,C,14
15,test,5,0.0,1-Back,1.0,m,Tue Jul 29 2025 16:22:22 GMT-0500 (Central Daylight Time),372654.200000003,025_y_m_n_a.png,O,m,1030,16,1,2045.7000000029802,370608.5,7189,VNB,C,15
16,test,5,0.0,1-Back,1.0,m,Tue Jul 29 2025 16:22:22 GMT-0500 (Central Daylight Time),374403.5,022_y_f_h_a.png,O,m,717,17,1,1745.5,372658.0,7189,VNB,C,16
17,test,5,0.0,1-Back,1.0,m,Tue Jul 29 2025 16:22:22 GMT-0500 (Central Daylight Time),376819.700000003,014_m_m_d_a.png,O,m,1400,18,1,2411.6000000089407,374408.09999999404,7189,VNB,C,17
0,prac,1,0.0,2-Back,,,Tue Jul 29 2025 16:22:22 GMT-0500 (Central Daylight Time),376819.700000003,019_m_f_n_a.png,O,space,3720,1,1,2411.6000000089407,374408.09999999404,7189,VNB,C,0
0,prac,1,0.0,2-Back,,,Tue Jul 29 2025 16:22:22 GMT-0500 (Central Daylight Time),376819.700000003,012_o_f_h_a.png,O,space,3720,2,1,2411.6000000089407,374408.09999999404,7189,VNB,C,0
1,prac,1,0.0,2-Back,1.0,m,Tue Jul 29 2025 16:22:22 GMT-0500 (Central Daylight Time),470907.700000003,015_o_m_d_a.png,O,m,1089,3,1,2011.0,468896.700000003,7189,VNB,C,1
1,prac,1,1.0,2-Back,0.0,z,Tue Jul 29 2025 16:22:22 GMT-0500 (Central Daylight Time),472989.5,014_m_m_h_a.png,O,m,1173,4,1,2074.5,470915.0,7189,VNB,C,2
2,prac,1,0.0,2-Back,1.0,m,Tue Jul 29 2025 16:22:22 GMT-0500 (Central Daylight Time),474539.0,022_y_f_n_a.png,O,m,635,5,1,1542.1000000089407,472996.89999999106,7189,VNB,C,3
2,prac,1,1.0,2-Back,0.0,z,Tue Jul 29 2025 16:22:22 GMT-0500 (Central Daylight Time),476304.799999997,015_o_m_h_a.png,O,m,976,6,1,1758.4000000059605,474546.39999999106,7189,VNB,C,4
2,prac,1,1.0,2-Back,0.0,z,Tue Jul 29 2025 16:22:22 GMT-0500 (Central Daylight Time),478137.700000003,025_y_m_n_a.png,O,m,931,7,1,1825.0,476312.700000003,7189,VNB,C,5
3,prac,1,0.0,2-Back,1.0,m,Tue Jul 29 2025 16:22:22 GMT-0500 (Central Daylight Time),479853.799999997,019_m_f_d_a.png,O,m,795,8,1,1708.7000000029802,478145.09999999404,7189,VNB,C,6
3,prac,1,0.0,2-Back,0.0,m,Tue Jul 29 2025 16:22:22 GMT-0500 (Central Daylight Time),482536.299999997,012_o_f_d_a.png,O,z,1760,9,1,2675.2000000029802,479861.09999999404,7189,VNB,C,7
4,prac,1,0.0,2-Back,1.0,m,Tue Jul 29 2025 16:22:22 GMT-0500 (Central Daylight Time),483886.0,014_m_m_h_a.png,O,m,562,10,1,1341.6000000089407,482544.39999999106,7189,VNB,C,8
4,prac,1,1.0,2-Back,0.0,z,Tue Jul 29 2025 16:22:22 GMT-0500 (Central Daylight Time),485585.299999997,022_y_f_d_a.png,O,m,774,11,1,1691.4000000059605,483893.89999999106,7189,VNB,C,9
5,prac,1,0.0,2-Back,1.0,m,Tue Jul 29 2025 16:22:22 GMT-0500 (Central Daylight Time),487201.39999999106,015_o_m_n_a.png,O,m,700,12,1,1609.5,485591.89999999106,7189,VNB,C,10
0,test,1,0.0,2-Back,,,Tue Jul 29 2025 16:22:22 GMT-0500 (Central Daylight Time),487201.39999999106,025_y_m_h_a.png,O,space,7426,1,1,1609.5,485591.89999999106,7189,VNB,C,0
0,test,1,0.0,2-Back,,,Tue Jul 29 2025 16:22:22 GMT-0500 (Central Daylight Time),487201.39999999106,012_o_f_n_a.png,O,space,7426,2,1,1609.5,485591.89999999106,7189,VNB,C,0
1,test,1,0.0,2-Back,1.0,z,Tue Jul 29 2025 16:22:22 GMT-0500 (Central Daylight Time),509561.299999997,015_o_m_h_a.png,O,z,1577,3,1,2595.2999999970198,506966.0,7189,VNB,C,1
2,test,1,0.0,2-Back,1.0,m,Tue Jul 29 2025 16:22:22 GMT-0500 (Central Daylight Time),511578.299999997,019_m_f_d_a.png,O,m,985,4,1,2012.9000000059605,509565.39999999106,7189,VNB,C,2
2,test,1,1.0,2-Back,0.0,m,Tue Jul 29 2025 16:22:22 GMT-0500 (Central Daylight Time),513876.299999997,025_y_m_n_a.png,O,z,1281,5,1,2293.2999999970198,511583.0,7189,VNB,C,3
2,test,1,0.0,2-Back,0.0,z,Tue Jul 29 2025 16:22:22 GMT-0500 (Central Daylight Time),515726.0,022_y_f_d_a.png,O,m,822,6,1,1845.7999999970198,513880.200000003,7189,VNB,C,4
3,test,1,0.0,2-Back,1.0,m,Tue Jul 29 2025 16:22:22 GMT-0500 (Central Daylight Time),517625.299999997,014_m_m_h_a.png,O,m,868,7,1,1895.0999999940395,515730.200000003,7189,VNB,C,5
4,test,1,1.0,2-Back,1.0,m,Tue Jul 29 2025 16:22:22 GMT-0500 (Central Daylight Time),519458.0,022_y_f_n_a.png,O,m,801,8,1,1827.7000000029802,517630.299999997,7189,VNB,C,6
4,test,1,0.0,2-Back,0.0,z,Tue Jul 29 2025 16:22:22 GMT-0500 (Central Daylight Time),521519.700000003,012_o_f_h_a.png,O,m,1044,9,1,2056.9000000059605,519462.799999997,7189,VNB,C,7
4,test,1,0.0,2-Back,0.0,m,Tue Jul 29 2025 16:22:22 GMT-0500 (Central Daylight Time),523373.39999999106,015_o_m_d_a.png,O,z,830,10,1,1848.0,521525.39999999106,7189,VNB,C,8
5,test,1,1.0,2-Back,1.0,m,Tue Jul 29 2025 16:22:22 GMT-0500 (Central Daylight Time),524939.599999994,014_m_m_d_a.png,O,m,541,11,1,1561.0999999940395,523378.5,7189,VNB,C,9
6,test,1,0.0,2-Back,1.0,m,Tue Jul 29 2025 16:22:22 GMT-0500 (Central Daylight Time),526722.3999999911,019_m_f_n_a.png,O,m,751,12,1,1778.7999999970198,524943.599999994,7189,VNB,C,10
6,test,1,0.0,2-Back,0.0,m,Tue Jul 29 2025 16:22:22 GMT-0500 (Central Daylight Time),528971.599999994,022_y_f_h_a.png,O,z,1224,13,1,2245.2000000029802,526726.3999999911,7189,VNB,C,11
6,test,1,0.0,2-Back,0.0,z,Tue Jul 29 2025 16:22:22 GMT-0500 (Central Daylight Time),532005.0,014_m_m_n_a.png,O,None,2017,14,1,3028.5,528976.5,7189,VNB,C,12
7,test,1,0.0,2-Back,1.0,m,Tue Jul 29 2025 16:22:22 GMT-0500 (Central Daylight Time),534103.599999994,025_y_m_d_a.png,O,m,1078,15,1,2094.5,532009.099999994,7189,VNB,C,13
8,test,1,1.0,2-Back,1.0,m,Tue Jul 29 2025 16:22:22 GMT-0500 (Central Daylight Time),536319.5,019_m_f_h_a.png,O,m,1195,16,1,2211.6000000089407,534107.8999999911,7189,VNB,C,14
8,test,1,0.0,2-Back,0.0,z,Tue Jul 29 2025 16:22:22 GMT-0500 (Central Daylight Time),539002.0,012_o_f_d_a.png,O,m,1659,17,1,2678.4000000059605,536323.599999994,7189,VNB,C,15
8,test,1,0.0,2-Back,0.0,m,Tue Jul 29 2025 16:22:22 GMT-0500 (Central Daylight Time),540651.299999997,015_o_m_n_a.png,O,z,625,18,1,1644.2000000029802,539007.099999994,7189,VNB,C,16
0,test,2,0.0,2-Back,,,Tue Jul 29 2025 16:22:22 GMT-0500 (Central Daylight Time),540651.299999997,014_m_m_h_a.png,O,space,1351,1,1,1644.2000000029802,539007.099999994,7189,VNB,C,0
0,test,2,0.0,2-Back,,,Tue Jul 29 2025 16:22:22 GMT-0500 (Central Daylight Time),540651.299999997,022_y_f_n_a.png,O,space,1351,2,1,1644.2000000029802,539007.099999994,7189,VNB,C,0
1,test,2,1.0,2-Back,1.0,z,Tue Jul 29 2025 16:22:22 GMT-0500 (Central Daylight Time),549615.299999997,012_o_f_h_a.png,O,z,1180,3,1,2193.9000000059605,547421.3999999911,7189,VNB,C,1
1,test,2,0.0,2-Back,0.0,m,Tue Jul 29 2025 16:22:22 GMT-0500 (Central Daylight Time),552264.299999997,015_o_m_d_a.png,O,z,1627,4,1,2645.2999999970198,549619.0,7189,VNB,C,2
2,test,2,0.0,2-Back,1.0,m,Tue Jul 29 2025 16:22:22 GMT-0500 (Central Daylight Time),554397.099999994,019_m_f_d_a.png,O,m,1106,5,1,2128.0999999940395,552269.0,7189,VNB,C,3
2,test,2,0.0,2-Back,0.0,m,Tue Jul 29 2025 16:22:22 GMT-0500 (Central Daylight Time),557096.299999997,025_y_m_h_a.png,O,z,1678,6,1,2694.5,554401.799999997,7189,VNB,C,4
3,test,2,0.0,2-Back,1.0,m,Tue Jul 29 2025 16:22:22 GMT-0500 (Central Daylight Time),560045.299999997,012_o_f_n_a.png,O,m,1930,7,1,2945.2999999970198,557100.0,7189,VNB,C,5
4,test,2,1.0,2-Back,1.0,z,Tue Jul 29 2025 16:22:22 GMT-0500 (Central Daylight Time),562461.200000003,015_o_m_h_a.png,O,z,1389,8,1,2412.1000000089407,560049.099999994,7189,VNB,C,6
5,test,2,0.0,2-Back,1.0,m,Tue Jul 29 2025 16:22:22 GMT-0500 (Central Daylight Time),564194.0,022_y_f_d_a.png,O,m,709,9,1,1728.0,562466.0,7189,VNB,C,7
5,test,2,0.0,2-Back,0.0,m,Tue Jul 29 2025 16:22:22 GMT-0500 (Central Daylight Time),566160.099999994,025_y_m_d_a.png,O,z,944,10,1,1962.5999999940395,564197.5,7189,VNB,C,8
6,test,2,0.0,2-Back,1.0,m,Tue Jul 29 2025 16:22:22 GMT-0500 (Central Daylight Time),567792.799999997,014_m_m_n_a.png,O,m,602,11,1,1628.2000000029802,566164.599999994,7189,VNB,C,9
7,test,2,0.0,2-Back,1.0,m,Tue Jul 29 2025 16:22:22 GMT-0500 (Central Daylight Time),570792.0,019_m_f_h_a.png,O,m,1974,12,1,2995.1000000089407,567796.8999999911,7189,VNB,C,10
7,test,2,1.0,2-Back,0.0,z,Tue Jul 29 2025 16:22:22 GMT-0500 (Central Daylight Time),572508.099999994,015_o_m_n_a.png,O,m,699,13,1,1712.2999999970198,570795.799999997,7189,VNB,C,11
8,test,2,0.0,2-Back,1.0,m,Tue Jul 29 2025 16:22:22 GMT-0500 (Central Daylight Time),574307.5,012_o_f_d_a.png,O,m,766,14,1,1795.4000000059605,572512.099999994,7189,VNB,C,12
9,test,2,0.0,2-Back,1.0,m,Tue Jul 29 2025 16:22:22 GMT-0500 (Central Daylight Time),576806.700000003,022_y_f_h_a.png,O,m,1479,15,1,2494.6000000089407,574312.099999994,7189,VNB,C,13
10,test,2,0.0,2-Back,1.0,z,Tue Jul 29 2025 16:22:22 GMT-0500 (Central Daylight Time),578622.700000003,014_m_m_d_a.png,O,z,788,16,1,1812.300000011921,576810.3999999911,7189,VNB,C,14
11,test,2,0.0,2-Back,1.0,m,Tue Jul 29 2025 16:22:22 GMT-0500 (Central Daylight Time),580488.8999999911,025_y_m_n_a.png,O,m,843,17,1,1862.7999999970198,578626.099999994,7189,VNB,C,15
12,test,2,1.0,2-Back,1.0,m,Tue Jul 29 2025 16:22:22 GMT-0500 (Central Daylight Time),582055.099999994,019_m_f_n_a.png,O,m,537,18,1,1561.7999999970198,580493.299999997,7189,VNB,C,16
0,test,3,1.0,2-Back,,,Tue Jul 29 2025 16:22:22 GMT-0500 (Central Daylight Time),582055.099999994,015_o_m_n_a.png,O,space,1235,1,1,1561.7999999970198,580493.299999997,7189,VNB,C,0
0,test,3,1.0,2-Back,,,Tue Jul 29 2025 16:22:22 GMT-0500 (Central Daylight Time),582055.099999994,012_o_f_d_a.png,O,space,1235,2,1,1561.7999999970198,580493.299999997,7189,VNB,C,0
1,test,3,0.0,2-Back,1.0,m,Tue Jul 29 2025 16:22:22 GMT-0500 (Central Daylight Time),590535.700000003,022_y_f_h_a.png,O,m,1153,3,1,2178.7000000029802,588357.0,7189,VNB,C,1
2,test,3,0.0,2-Back,1.0,z,Tue Jul 29 2025 16:22:22 GMT-0500 (Central Daylight Time),593251.700000003,019_m_f_d_a.png,O,z,1692,4,1,2712.1000000089407,590539.599999994,7189,VNB,C,2
3,test,3,1.0,2-Back,1.0,m,Tue Jul 29 2025 16:22:22 GMT-0500 (Central Daylight Time),595434.299999997,025_y_m_n_a.png,O,m,1151,5,1,2178.9000000059605,593255.3999999911,7189,VNB,C,3
4,test,3,0.0,2-Back,1.0,m,Tue Jul 29 2025 16:22:22 GMT-0500 (Central Daylight Time),596783.799999997,015_o_m_h_a.png,O,m,320,6,1,1345.2000000029802,595438.599999994,7189,VNB,C,4
5,test,3,0.0,2-Back,1.0,z,Tue Jul 29 2025 16:22:22 GMT-0500 (Central Daylight Time),598233.200000003,022_y_f_n_a.png,O,z,426,7,1,1445.0,596788.200000003,7189,VNB,C,5
6,test,3,1.0,2-Back,1.0,m,Tue Jul 29 2025 16:22:22 GMT-0500 (Central Daylight Time),599832.8999999911,014_m_m_d_a.png,O,m,569,8,1,1595.2999999970198,598237.599999994,7189,VNB,C,6
7,test,3,0.0,2-Back,1.0,m,Tue Jul 29 2025 16:22:22 GMT-0500 (Central Daylight Time),601515.599999994,025_y_m_d_a.png,O,m,665,9,1,1678.3999999910593,599837.200000003,7189,VNB,C,7
8,test,3,0.0,2-Back,1.0,m,Tue Jul 29 2025 16:22:22 GMT-0500 (Central Daylight Time),603614.8999999911,012_o_f_h_a.png,O,m,1072,10,1,2095.0999999940395,601519.799999997,7189,VNB,C,8
9,test,3,1.0,2-Back,1.0,m,Tue Jul 29 2025 16:22:22 GMT-0500 (Central Daylight Time),606414.0,019_m_f_n_a.png,O,m,1779,11,1,2795.2999999970198,603618.700000003,7189,VNB,C,9
10,test,3,1.0,2-Back,1.0,z,Tue Jul 29 2025 16:22:22 GMT-0500 (Central Daylight Time),608313.3999999911,014_m_m_h_a.png,O,z,876,12,1,1894.2999999970198,606419.099999994,7189,VNB,C,10
11,test,3,0.0,2-Back,1.0,m,Tue Jul 29 2025 16:22:22 GMT-0500 (Central Daylight Time),609829.5,022_y_f_d_a.png,O,m,489,13,1,1512.2999999970198,608317.200000003,7189,VNB,C,11
12,test,3,0.0,2-Back,1.0,m,Tue Jul 29 2025 16:22:22 GMT-0500 (Central Daylight Time),612012.5,012_o_f_n_a.png,O,m,1157,14,1,2179.0,609833.5,7189,VNB,C,12
12,test,3,0.0,2-Back,0.0,z,Tue Jul 29 2025 16:22:22 GMT-0500 (Central Daylight Time),615044.700000003,015_o_m_d_a.png,O,None,2016,15,1,3027.7000000029802,612017.0,7189,VNB,C,13
13,test,3,1.0,2-Back,1.0,m,Tue Jul 29 2025 16:22:22 GMT-0500 (Central Daylight Time),616627.5,019_m_f_h_a.png,O,m,559,16,1,1578.6000000089407,615048.8999999911,7189,VNB,C,14
13,test,3,0.0,2-Back,0.0,m,Tue Jul 29 2025 16:22:22 GMT-0500 (Central Daylight Time),618876.8999999911,014_m_m_n_a.png,O,z,1223,17,1,2244.7999999970198,616632.099999994,7189,VNB,C,15
13,test,3,0.0,2-Back,0.0,z,Tue Jul 29 2025 16:22:22 GMT-0500 (Central Daylight Time),620859.5,025_y_m_h_a.png,O,m,949,18,1,1978.2000000029802,618881.299999997,7189,VNB,C,16
0,test,4,0.0,2-Back,,,Tue Jul 29 2025 16:22:22 GMT-0500 (Central Daylight Time),620859.5,019_m_f_n_a.png,O,space,1071,1,1,1978.2000000029802,618881.299999997,7189,VNB,C,0
0,test,4,0.0,2-Back,,,Tue Jul 29 2025 16:22:22 GMT-0500 (Central Daylight Time),620859.5,015_o_m_n_a.png,O,space,1071,2,1,1978.2000000029802,618881.299999997,7189,VNB,C,0
1,test,4,1.0,2-Back,1.0,m,Tue Jul 29 2025 16:22:22 GMT-0500 (Central Daylight Time),629340.099999994,025_y_m_h_a.png,O,m,1065,3,1,2078.5,627261.599999994,7189,VNB,C,1
2,test,4,1.0,2-Back,1.0,m,Tue Jul 29 2025 16:22:22 GMT-0500 (Central Daylight Time),631572.8999999911,012_o_f_d_a.png,O,m,1214,4,1,2227.5999999940395,629345.299999997,7189,VNB,C,2
2,test,4,0.0,2-Back,0.0,z,Tue Jul 29 2025 16:22:22 GMT-0500 (Central Daylight Time),633955.5,015_o_m_h_a.png,O,m,1350,5,1,2377.5,631578.0,7189,VNB,C,3
3,test,4,0.0,2-Back,1.0,m,Tue Jul 29 2025 16:22:22 GMT-0500 (Central Daylight Time),635604.799999997,014_m_m_n_a.png,O,m,631,6,1,1645.2999999970198,633959.5,7189,VNB,C,4
3,test,4,0.0,2-Back,0.0,m,Tue Jul 29 2025 16:22:22 GMT-0500 (Central Daylight Time),637687.5,019_m_f_d_a.png,O,z,1054,7,1,2078.0,635609.5,7189,VNB,C,5
3,test,4,0.0,2-Back,0.0,z,Tue Jul 29 2025 16:22:22 GMT-0500 (Central Daylight Time),639753.799999997,022_y_f_n_a.png,O,m,1036,8,1,2062.4000000059605,637691.3999999911,7189,VNB,C,6
4,test,4,1.0,2-Back,1.0,m,Tue Jul 29 2025 16:22:22 GMT-0500 (Central Daylight Time),640853.200000003,012_o_f_h_a.png,O,m,81,9,1,1095.300000011921,639757.8999999911,7189,VNB,C,7
4,test,4,0.0,2-Back,0.0,m,Tue Jul 29 2025 16:22:22 GMT-0500 (Central Daylight Time),642619.700000003,014_m_m_h_a.png,O,z,749,10,1,1761.9000000059605,640857.799999997,7189,VNB,C,8
5,test,4,0.0,2-Back,1.0,m,Tue Jul 29 2025 16:22:22 GMT-0500 (Central Daylight Time),644002.3999999911,022_y_f_d_a.png,O,m,359,11,1,1378.0999999940395,642624.299999997,7189,VNB,C,9
6,test,4,0.0,2-Back,1.0,m,Tue Jul 29 2025 16:22:22 GMT-0500 (Central Daylight Time),645752.099999994,025_y_m_n_a.png,O,m,720,12,1,1746.0999999940395,644006.0,7189,VNB,C,10
6,test,4,0.0,2-Back,0.0,z,Tue Jul 29 2025 16:22:22 GMT-0500 (Central Daylight Time),647951.099999994,015_o_m_d_a.png,O,m,1171,13,1,2195.0999999940395,645756.0,7189,VNB,C,11
7,test,4,1.0,2-Back,1.0,m,Tue Jul 29 2025 16:22:22 GMT-0500 (Central Daylight Time),649767.3999999911,019_m_f_h_a.png,O,m,788,14,1,1812.2999999970198,647955.099999994,7189,VNB,C,12
8,test,4,1.0,2-Back,1.0,m,Tue Jul 29 2025 16:22:22 GMT-0500 (Central Daylight Time),651933.0,022_y_f_h_a.png,O,m,1139,15,1,2161.0,649772.0,7189,VNB,C,13
9,test,4,0.0,2-Back,1.0,m,Tue Jul 29 2025 16:22:22 GMT-0500 (Central Daylight Time),654565.5,012_o_f_n_a.png,O,m,1596,16,1,2627.2000000029802,651938.299999997,7189,VNB,C,14
9,test,4,0.0,2-Back,0.0,m,Tue Jul 29 2025 16:22:22 GMT-0500 (Central Daylight Time),656681.700000003,025_y_m_d_a.png,O,z,1085,17,1,2112.6000000089407,654569.099999994,7189,VNB,C,15
10,test,4,1.0,2-Back,1.0,m,Tue Jul 29 2025 16:22:22 GMT-0500 (Central Daylight Time),659147.5,014_m_m_d_a.png,O,m,1441,18,1,2461.7999999970198,656685.700000003,7189,VNB,C,16
0,test,5,1.0,2-Back,,,Tue Jul 29 2025 16:22:22 GMT-0500 (Central Daylight Time),659147.5,022_y_f_d_a.png,O,space,903,1,1,2461.7999999970198,656685.700000003,7189,VNB,C,0
0,test,5,1.0,2-Back,,,Tue Jul 29 2025 16:22:22 GMT-0500 (Central Daylight Time),659147.5,012_o_f_h_a.png,O,space,903,2,1,2461.7999999970198,656685.700000003,7189,VNB,C,0
1,test,5,1.0,2-Back,1.0,z,Tue Jul 29 2025 16:22:22 GMT-0500 (Central Daylight Time),667944.8999999911,015_o_m_d_a.png,O,z,1527,3,1,2544.8999999910593,665400.0,7189,VNB,C,1
2,test,5,1.0,2-Back,1.0,m,Tue Jul 29 2025 16:22:22 GMT-0500 (Central Daylight Time),670377.200000003,019_m_f_n_a.png,O,m,1403,4,1,2428.5,667948.700000003,7189,VNB,C,2
3,test,5,0.0,2-Back,1.0,m,Tue Jul 29 2025 16:22:22 GMT-0500 (Central Daylight Time),671993.599999994,014_m_m_h_a.png,O,m,585,5,1,1613.2000000029802,670380.3999999911,7189,VNB,C,3
4,test,5,0.0,2-Back,1.0,z,Tue Jul 29 2025 16:22:22 GMT-0500 (Central Daylight Time),673393.0,022_y_f_n_a.png,O,z,377,6,1,1395.0,671998.0,7189,VNB,C,4
5,test,5,0.0,2-Back,1.0,m,Tue Jul 29 2025 16:22:22 GMT-0500 (Central Daylight Time),674742.700000003,012_o_f_d_a.png,O,m,329,7,1,1346.2000000029802,673396.5,7189,VNB,C,5
6,test,5,0.0,2-Back,1.0,m,Tue Jul 29 2025 16:22:22 GMT-0500 (Central Daylight Time),676108.8999999911,015_o_m_h_a.png,O,m,339,8,1,1362.0,674746.8999999911,7189,VNB,C,6
7,test,5,1.0,2-Back,1.0,z,Tue Jul 29 2025 16:22:22 GMT-0500 (Central Daylight Time),677591.799999997,019_m_f_d_a.png,O,z,453,9,1,1478.0999999940395,676113.700000003,7189,VNB,C,7
8,test,5,0.0,2-Back,1.0,m,Tue Jul 29 2025 16:22:22 GMT-0500 (Central Daylight Time),678941.200000003,025_y_m_n_a.png,O,m,323,10,1,1345.300000011921,677595.8999999911,7189,VNB,C,8
9,test,5,0.0,2-Back,1.0,m,Tue Jul 29 2025 16:22:22 GMT-0500 (Central Daylight Time),680490.700000003,014_m_m_n_a.png,O,m,518,11,1,1546.1000000089407,678944.599999994,7189,VNB,C,9
10,test,5,0.0,2-Back,1.0,m,Tue Jul 29 2025 16:22:22 GMT-0500 (Central Daylight Time),681990.3999999911,022_y_f_h_a.png,O,m,480,12,1,1495.0,680495.3999999911,7189,VNB,C,10
10,test,5,0.0,2-Back,0.0,m,Tue Jul 29 2025 16:22:22 GMT-0500 (Central Daylight Time),683356.5,025_y_m_d_a.png,O,z,348,13,1,1362.0,681994.5,7189,VNB,C,11
10,test,5,1.0,2-Back,0.0,z,Tue Jul 29 2025 16:22:22 GMT-0500 (Central Daylight Time),684889.3999999911,019_m_f_h_a.png,O,m,501,14,1,1528.5,683360.8999999911,7189,VNB,C,12
11,test,5,0.0,2-Back,1.0,m,Tue Jul 29 2025 16:22:22 GMT-0500 (Central Daylight Time),686672.299999997,015_o_m_n_a.png,O,m,753,15,1,1778.7999999970198,684893.5,7189,VNB,C,13
12,test,5,0.0,2-Back,1.0,m,Tue Jul 29 2025 16:22:22 GMT-0500 (Central Daylight Time),689088.099999994,014_m_m_d_a.png,O,m,1395,16,1,2411.5,686676.599999994,7189,VNB,C,14
12,test,5,0.0,2-Back,0.0,z,Tue Jul 29 2025 16:22:22 GMT-0500 (Central Daylight Time),691320.799999997,012_o_f_n_a.png,O,m,1211,17,1,2228.5,689092.299999997,7189,VNB,C,15
13,test,5,1.0,2-Back,1.0,m,Tue Jul 29 2025 16:22:22 GMT-0500 (Central Daylight Time),693053.3999999911,025_y_m_h_a.png,O,m,714,18,1,1728.7999999970198,691324.599999994,7189,VNB,C,16
