acc_sum,block,block_c,change,condition,correct,correct_response,datetime,endtime,face,project,response,response_time,row_sel,session_number,start_end,starttime,subject_id,task,task_vers,trial
0,prac,1,,1-Back,,,Mon Jan 05 2026 10:01:11 GMT-0600 (Central Standard Time),,050_m_f_n_a.png,I,space,5869,1,1,,,8085,NNB,A,0
1,prac,1,0.0,1-Back,1.0,m,Mon Jan 05 2026 10:01:11 GMT-0600 (Central Standard Time),160024.10000002384,063_y_f_n_a.png,I,m,855,2,1,1655.7999999523163,158368.30000007153,8085,NNB,A,1
2,prac,1,1.0,1-Back,1.0,z,Mon Jan 05 2026 10:01:11 GMT-0600 (Central Standard Time),161690.0,063_y_f_n_a.png,I,z,888,3,1,1657.0,160033.0,8085,NNB,A,2
3,prac,1,0.0,1-Back,1.0,m,Mon Jan 05 2026 10:01:11 GMT-0600 (Central Standard Time),163489.5,053_o_m_n_a.png,I,m,996,4,1,1790.6999999284744,161698.80000007153,8085,NNB,A,3
4,prac,1,0.0,1-Back,1.0,m,Mon Jan 05 2026 10:01:11 GMT-0600 (Central Standard Time),165372.30000007153,058_m_m_n_a.png,I,m,1069,5,1,1873.6000000238419,163498.70000004768,8085,NNB,A,4
5,prac,1,1.0,1-Back,1.0,z,Mon Jan 05 2026 10:01:11 GMT-0600 (Central Standard Time),167138.30000007153,058_m_m_n_a.png,I,z,979,6,1,1757.1000000238419,165381.20000004768,8085,NNB,A,5
6,prac,1,0.0,1-Back,1.0,m,Mon Jan 05 2026 10:01:11 GMT-0600 (Central Standard Time),168870.89999997616,047_o_f_n_a.png,I,m,884,7,1,1723.5,167147.39999997616,8085,NNB,A,6
7,prac,1,0.0,1-Back,1.0,m,Mon Jan 05 2026 10:01:11 GMT-0600 (Central Standard Time),170720.30000007153,045_m_m_n_a.png,I,m,1073,8,1,1840.4000000953674,168879.89999997616,8085,NNB,A,7
8,prac,1,0.0,1-Back,1.0,m,Mon Jan 05 2026 10:01:11 GMT-0600 (Central Standard Time),172703.30000007153,050_m_f_n_a.png,I,m,1192,9,1,1974.2000000476837,170729.10000002384,8085,NNB,A,8
9,prac,1,1.0,1-Back,1.0,z,Mon Jan 05 2026 10:01:11 GMT-0600 (Central Standard Time),174252.80000007153,050_m_f_n_a.png,I,z,760,10,1,1540.6000000238419,172712.20000004768,8085,NNB,A,9
10,prac,1,0.0,1-Back,1.0,m,Mon Jan 05 2026 10:01:11 GMT-0600 (Central Standard Time),175785.60000002384,053_o_m_n_a.png,I,m,755,11,1,1523.7999999523163,174261.80000007153,8085,NNB,A,10
11,prac,1,0.0,1-Back,1.0,m,Mon Jan 05 2026 10:01:11 GMT-0600 (Central Standard Time),177418.39999997616,010_y_f_n_a.png,I,m,793,12,1,1623.2999999523163,175795.10000002384,8085,NNB,A,11
0,test,1,0.0,1-Back,,,Mon Jan 05 2026 10:01:11 GMT-0600 (Central Standard Time),177418.39999997616,063_y_f_n_a.png,I,space,9021,1,1,1623.2999999523163,175795.10000002384,8085,NNB,A,0
1,test,1,0.0,1-Back,1.0,m,Mon Jan 05 2026 10:01:11 GMT-0600 (Central Standard Time),199494.60000002384,043_m_f_n_a.png,I,m,710,2,1,1724.7000000476837,197769.89999997616,8085,NNB,A,1
2,test,1,0.0,1-Back,1.0,m,Mon Jan 05 2026 10:01:11 GMT-0600 (Central Standard Time),202127.30000007153,010_y_f_n_a.png,I,m,1601,3,1,2622.9000000953674,199504.39999997616,8085,NNB,A,2
3,test,1,1.0,1-Back,1.0,z,Mon Jan 05 2026 10:01:11 GMT-0600 (Central Standard Time),203876.80000007153,010_y_f_n_a.png,I,z,728,4,1,1741.5,202135.30000007153,8085,NNB,A,3
4,test,1,0.0,1-Back,1.0,m,Mon Jan 05 2026 10:01:11 GMT-0600 (Central Standard Time),205876.10000002384,043_m_f_n_a.png,I,m,971,5,1,1991.2999999523163,203884.80000007153,8085,NNB,A,4
5,test,1,0.0,1-Back,1.0,m,Mon Jan 05 2026 10:01:11 GMT-0600 (Central Standard Time),207675.5,053_o_m_n_a.png,I,m,772,6,1,1791.6999999284744,205883.80000007153,8085,NNB,A,5
6,test,1,1.0,1-Back,1.0,z,Mon Jan 05 2026 10:01:11 GMT-0600 (Central Standard Time),209325.10000002384,053_o_m_n_a.png,I,z,629,7,1,1641.3999999761581,207683.70000004768,8085,NNB,A,6
7,test,1,0.0,1-Back,1.0,m,Mon Jan 05 2026 10:01:11 GMT-0600 (Central Standard Time),211007.89999997616,058_m_m_n_a.png,I,m,659,8,1,1675.0,209332.89999997616,8085,NNB,A,7
8,test,1,0.0,1-Back,1.0,m,Mon Jan 05 2026 10:01:11 GMT-0600 (Central Standard Time),212690.39999997616,047_o_f_n_a.png,I,m,656,9,1,1674.3999999761581,211016.0,8085,NNB,A,8
9,test,1,0.0,1-Back,1.0,m,Mon Jan 05 2026 10:01:11 GMT-0600 (Central Standard Time),214439.80000007153,058_m_m_n_a.png,I,m,725,10,1,1741.2000000476837,212698.60000002384,8085,NNB,A,9
10,test,1,0.0,1-Back,1.0,m,Mon Jan 05 2026 10:01:11 GMT-0600 (Central Standard Time),216423.0,041_y_m_n_a.png,I,m,960,11,1,1974.6999999284744,214448.30000007153,8085,NNB,A,10
11,test,1,1.0,1-Back,1.0,z,Mon Jan 05 2026 10:01:11 GMT-0600 (Central Standard Time),217939.89999997616,041_y_m_n_a.png,I,z,490,12,1,1509.0999999046326,216430.80000007153,8085,NNB,A,11
12,test,1,0.0,1-Back,1.0,m,Mon Jan 05 2026 10:01:11 GMT-0600 (Central Standard Time),220022.0,044_o_f_n_a.png,I,m,1053,13,1,2074.1999999284744,217947.80000007153,8085,NNB,A,12
13,test,1,1.0,1-Back,1.0,z,Mon Jan 05 2026 10:01:11 GMT-0600 (Central Standard Time),221887.60000002384,044_o_f_n_a.png,I,z,834,14,1,1855.5,220032.10000002384,8085,NNB,A,13
14,test,1,0.0,1-Back,1.0,m,Mon Jan 05 2026 10:01:11 GMT-0600 (Central Standard Time),223837.30000007153,008_y_m_n_a.png,I,m,921,15,1,1941.4000000953674,221895.89999997616,8085,NNB,A,14
14,test,1,0.0,1-Back,0.0,m,Mon Jan 05 2026 10:01:11 GMT-0600 (Central Standard Time),225636.60000002384,050_m_f_n_a.png,I,z,778,16,1,1791.3999999761581,223845.20000004768,8085,NNB,A,15
15,test,1,0.0,1-Back,1.0,m,Mon Jan 05 2026 10:01:11 GMT-0600 (Central Standard Time),228052.30000007153,046_o_m_n_a.png,I,m,1396,17,1,2407.8000000715256,225644.5,8085,NNB,A,16
16,test,1,0.0,1-Back,1.0,m,Mon Jan 05 2026 10:01:11 GMT-0600 (Central Standard Time),230068.39999997616,050_m_f_n_a.png,I,m,988,18,1,2007.7999999523163,228060.60000002384,8085,NNB,A,17
0,test,2,0.0,1-Back,,,Mon Jan 05 2026 10:01:11 GMT-0600 (Central Standard Time),230068.39999997616,058_m_m_n_a.png,I,space,1748,1,1,2007.7999999523163,228060.60000002384,8085,NNB,A,0
0,test,2,0.0,1-Back,0.0,m,Mon Jan 05 2026 10:01:11 GMT-0600 (Central Standard Time),236866.39999997616,043_m_f_n_a.png,I,None,2015,2,1,3024.5,233841.89999997616,8085,NNB,A,1
1,test,2,1.0,1-Back,1.0,z,Mon Jan 05 2026 10:01:11 GMT-0600 (Central Standard Time),238898.89999997616,043_m_f_n_a.png,I,z,1006,3,1,2024.1999999284744,236874.70000004768,8085,NNB,A,2
2,test,2,0.0,1-Back,1.0,m,Mon Jan 05 2026 10:01:11 GMT-0600 (Central Standard Time),240748.60000002384,058_m_m_n_a.png,I,m,829,4,1,1841.6000000238419,238907.0,8085,NNB,A,3
3,test,2,0.0,1-Back,1.0,m,Mon Jan 05 2026 10:01:11 GMT-0600 (Central Standard Time),242581.30000007153,041_y_m_n_a.png,I,m,812,5,1,1824.5,240756.80000007153,8085,NNB,A,4
4,test,2,0.0,1-Back,1.0,m,Mon Jan 05 2026 10:01:11 GMT-0600 (Central Standard Time),244330.5,063_y_f_n_a.png,I,m,731,6,1,1741.0,242589.5,8085,NNB,A,5
5,test,2,1.0,1-Back,1.0,z,Mon Jan 05 2026 10:01:11 GMT-0600 (Central Standard Time),245831.60000002384,063_y_f_n_a.png,I,z,469,7,1,1492.8999999761581,244338.70000004768,8085,NNB,A,6
6,test,2,0.0,1-Back,1.0,m,Mon Jan 05 2026 10:01:11 GMT-0600 (Central Standard Time),247913.10000002384,041_y_m_n_a.png,I,m,1058,8,1,2073.399999976158,245839.70000004768,8085,NNB,A,7
7,test,2,0.0,1-Back,1.0,m,Mon Jan 05 2026 10:01:11 GMT-0600 (Central Standard Time),249645.70000004768,044_o_f_n_a.png,I,m,712,9,1,1724.3999999761581,247921.30000007153,8085,NNB,A,8
8,test,2,0.0,1-Back,1.0,m,Mon Jan 05 2026 10:01:11 GMT-0600 (Central Standard Time),251395.10000002384,045_m_m_n_a.png,I,m,731,10,1,1741.6000000238419,249653.5,8085,NNB,A,9
9,test,2,1.0,1-Back,1.0,z,Mon Jan 05 2026 10:01:11 GMT-0600 (Central Standard Time),252960.89999997616,045_m_m_n_a.png,I,z,548,11,1,1557.0,251403.89999997616,8085,NNB,A,10
10,test,2,0.0,1-Back,1.0,m,Mon Jan 05 2026 10:01:11 GMT-0600 (Central Standard Time),254777.0,044_o_f_n_a.png,I,m,798,12,1,1807.8999999761581,252969.10000002384,8085,NNB,A,11
11,test,2,0.0,1-Back,1.0,m,Mon Jan 05 2026 10:01:11 GMT-0600 (Central Standard Time),256660.20000004768,047_o_f_n_a.png,I,m,863,13,1,1875.1000000238419,254785.10000002384,8085,NNB,A,12
12,test,2,0.0,1-Back,1.0,m,Mon Jan 05 2026 10:01:11 GMT-0600 (Central Standard Time),258509.70000004768,053_o_m_n_a.png,I,m,819,14,1,1841.6000000238419,256668.10000002384,8085,NNB,A,13
13,test,2,0.0,1-Back,1.0,m,Mon Jan 05 2026 10:01:11 GMT-0600 (Central Standard Time),260259.0,046_o_m_n_a.png,I,m,722,15,1,1741.3999999761581,258517.60000002384,8085,NNB,A,14
14,test,2,1.0,1-Back,1.0,z,Mon Jan 05 2026 10:01:11 GMT-0600 (Central Standard Time),262108.30000007153,046_o_m_n_a.png,I,z,829,16,1,1841.3000000715256,260267.0,8085,NNB,A,15
15,test,2,0.0,1-Back,1.0,m,Mon Jan 05 2026 10:01:11 GMT-0600 (Central Standard Time),263991.10000002384,008_y_m_n_a.png,I,m,859,17,1,1874.6000000238419,262116.5,8085,NNB,A,16
16,test,2,1.0,1-Back,1.0,z,Mon Jan 05 2026 10:01:11 GMT-0600 (Central Standard Time),265833.8000000715,008_y_m_n_a.png,I,z,810,18,1,1834.9000000953674,263998.89999997616,8085,NNB,A,17
0,test,3,1.0,1-Back,,,Mon Jan 05 2026 10:01:11 GMT-0600 (Central Standard Time),265833.8000000715,010_y_f_n_a.png,I,space,1414,1,1,1834.9000000953674,263998.89999997616,8085,NNB,A,0
1,test,3,0.0,1-Back,1.0,m,Mon Jan 05 2026 10:01:11 GMT-0600 (Central Standard Time),271938.60000002384,046_o_m_n_a.png,I,m,1598,2,1,2607.600000023842,269331.0,8085,NNB,A,1
2,test,3,1.0,1-Back,1.0,z,Mon Jan 05 2026 10:01:11 GMT-0600 (Central Standard Time),273738.2000000477,046_o_m_n_a.png,I,z,773,3,1,1791.3999999761581,271946.8000000715,8085,NNB,A,2
3,test,3,0.0,1-Back,1.0,m,Mon Jan 05 2026 10:01:11 GMT-0600 (Central Standard Time),275337.2000000477,050_m_f_n_a.png,I,m,583,4,1,1591.0,273746.2000000477,8085,NNB,A,3
4,test,3,1.0,1-Back,1.0,z,Mon Jan 05 2026 10:01:11 GMT-0600 (Central Standard Time),276920.5,050_m_f_n_a.png,I,z,551,5,1,1575.0,275345.5,8085,NNB,A,4
5,test,3,0.0,1-Back,1.0,m,Mon Jan 05 2026 10:01:11 GMT-0600 (Central Standard Time),278570.89999997616,044_o_f_n_a.png,I,m,632,6,1,1642.2999999523163,276928.60000002384,8085,NNB,A,5
6,test,3,0.0,1-Back,1.0,m,Mon Jan 05 2026 10:01:11 GMT-0600 (Central Standard Time),280319.2000000477,041_y_m_n_a.png,I,m,717,7,1,1739.8999999761581,278579.3000000715,8085,NNB,A,6
7,test,3,0.0,1-Back,1.0,m,Mon Jan 05 2026 10:01:11 GMT-0600 (Central Standard Time),282052.3000000715,044_o_f_n_a.png,I,m,704,8,1,1724.3000000715256,280328.0,8085,NNB,A,7
8,test,3,0.0,1-Back,1.0,m,Mon Jan 05 2026 10:01:11 GMT-0600 (Central Standard Time),283901.7000000477,008_y_m_n_a.png,I,m,820,9,1,1841.3999999761581,282060.3000000715,8085,NNB,A,8
9,test,3,1.0,1-Back,1.0,z,Mon Jan 05 2026 10:01:11 GMT-0600 (Central Standard Time),285451.0,008_y_m_n_a.png,I,z,523,10,1,1541.0,283910.0,8085,NNB,A,9
10,test,3,0.0,1-Back,1.0,m,Mon Jan 05 2026 10:01:11 GMT-0600 (Central Standard Time),287266.89999997616,043_m_f_n_a.png,I,m,790,11,1,1807.2999999523163,285459.60000002384,8085,NNB,A,10
11,test,3,0.0,1-Back,1.0,m,Mon Jan 05 2026 10:01:11 GMT-0600 (Central Standard Time),289033.10000002384,063_y_f_n_a.png,I,m,749,12,1,1757.2999999523163,287275.8000000715,8085,NNB,A,11
11,test,3,1.0,1-Back,0.0,z,Mon Jan 05 2026 10:01:11 GMT-0600 (Central Standard Time),291265.60000002384,063_y_f_n_a.png,I,m,1214,13,1,2223.7999999523163,289041.8000000715,8085,NNB,A,12
12,test,3,0.0,1-Back,1.0,m,Mon Jan 05 2026 10:01:11 GMT-0600 (Central Standard Time),293148.60000002384,043_m_f_n_a.png,I,m,854,14,1,1875.2000000476837,291273.39999997616,8085,NNB,A,13
13,test,3,0.0,1-Back,1.0,m,Mon Jan 05 2026 10:01:11 GMT-0600 (Central Standard Time),295031.2000000477,058_m_m_n_a.png,I,m,851,15,1,1874.6000000238419,293156.60000002384,8085,NNB,A,14
14,test,3,1.0,1-Back,1.0,z,Mon Jan 05 2026 10:01:11 GMT-0600 (Central Standard Time),296580.7000000477,058_m_m_n_a.png,I,z,521,16,1,1541.1000000238419,295039.60000002384,8085,NNB,A,15
15,test,3,0.0,1-Back,1.0,m,Mon Jan 05 2026 10:01:11 GMT-0600 (Central Standard Time),298296.89999997616,047_o_f_n_a.png,I,m,690,17,1,1708.0999999046326,296588.8000000715,8085,NNB,A,16
16,test,3,1.0,1-Back,1.0,z,Mon Jan 05 2026 10:01:11 GMT-0600 (Central Standard Time),300313.0,047_o_f_n_a.png,I,z,983,18,1,2008.1999999284744,298304.8000000715,8085,NNB,A,17
0,test,4,1.0,1-Back,,,Mon Jan 05 2026 10:01:11 GMT-0600 (Central Standard Time),300313.0,050_m_f_n_a.png,I,space,1590,1,1,2008.1999999284744,298304.8000000715,8085,NNB,A,0
1,test,4,0.0,1-Back,1.0,m,Mon Jan 05 2026 10:01:11 GMT-0600 (Central Standard Time),306544.5,046_o_m_n_a.png,I,m,1584,2,1,2606.899999976158,303937.60000002384,8085,NNB,A,1
2,test,4,0.0,1-Back,1.0,m,Mon Jan 05 2026 10:01:11 GMT-0600 (Central Standard Time),308560.7000000477,050_m_f_n_a.png,I,m,984,3,1,2008.3000000715256,306552.39999997616,8085,NNB,A,2
3,test,4,0.0,1-Back,1.0,m,Mon Jan 05 2026 10:01:11 GMT-0600 (Central Standard Time),310193.3000000715,044_o_f_n_a.png,I,m,608,4,1,1624.7000000476837,308568.60000002384,8085,NNB,A,3
4,test,4,1.0,1-Back,1.0,z,Mon Jan 05 2026 10:01:11 GMT-0600 (Central Standard Time),311692.7000000477,044_o_f_n_a.png,I,z,479,5,1,1491.7000000476837,310201.0,8085,NNB,A,4
5,test,4,0.0,1-Back,1.0,m,Mon Jan 05 2026 10:01:11 GMT-0600 (Central Standard Time),313542.3000000715,063_y_f_n_a.png,I,m,715,6,1,1841.4000000953674,311700.89999997616,8085,NNB,A,5
6,test,4,0.0,1-Back,1.0,m,Mon Jan 05 2026 10:01:11 GMT-0600 (Central Standard Time),315408.3000000715,041_y_m_n_a.png,I,m,841,7,1,1858.3000000715256,313550.0,8085,NNB,A,6
7,test,4,1.0,1-Back,1.0,z,Mon Jan 05 2026 10:01:11 GMT-0600 (Central Standard Time),316941.10000002384,041_y_m_n_a.png,I,z,504,8,1,1524.7999999523163,315416.3000000715,8085,NNB,A,7
8,test,4,0.0,1-Back,1.0,m,Mon Jan 05 2026 10:01:11 GMT-0600 (Central Standard Time),318740.60000002384,063_y_f_n_a.png,I,m,770,9,1,1791.7000000476837,316948.89999997616,8085,NNB,A,8
9,test,4,0.0,1-Back,1.0,m,Mon Jan 05 2026 10:01:11 GMT-0600 (Central Standard Time),320856.60000002384,045_m_m_n_a.png,I,m,1084,10,1,2107.600000023842,318749.0,8085,NNB,A,9
10,test,4,1.0,1-Back,1.0,z,Mon Jan 05 2026 10:01:11 GMT-0600 (Central Standard Time),322472.60000002384,045_m_m_n_a.png,I,z,584,11,1,1608.0,320864.60000002384,8085,NNB,A,10
11,test,4,0.0,1-Back,1.0,m,Mon Jan 05 2026 10:01:11 GMT-0600 (Central Standard Time),324272.2000000477,047_o_f_n_a.png,I,m,767,12,1,1791.3999999761581,322480.8000000715,8085,NNB,A,11
12,test,4,0.0,1-Back,1.0,m,Mon Jan 05 2026 10:01:11 GMT-0600 (Central Standard Time),326104.7000000477,053_o_m_n_a.png,I,m,815,13,1,1824.0,324280.7000000477,8085,NNB,A,12
13,test,4,0.0,1-Back,1.0,m,Mon Jan 05 2026 10:01:11 GMT-0600 (Central Standard Time),328153.89999997616,047_o_f_n_a.png,I,m,1032,14,1,2040.1999999284744,326113.7000000477,8085,NNB,A,13
14,test,4,0.0,1-Back,1.0,m,Mon Jan 05 2026 10:01:11 GMT-0600 (Central Standard Time),330003.7000000477,010_y_f_n_a.png,I,m,821,15,1,1841.2000000476837,328162.5,8085,NNB,A,14
15,test,4,1.0,1-Back,1.0,z,Mon Jan 05 2026 10:01:11 GMT-0600 (Central Standard Time),332003.10000002384,010_y_f_n_a.png,I,z,972,16,1,1990.8999999761581,330012.2000000477,8085,NNB,A,15
16,test,4,0.0,1-Back,1.0,m,Mon Jan 05 2026 10:01:11 GMT-0600 (Central Standard Time),334268.89999997616,043_m_f_n_a.png,I,m,1245,17,1,2257.899999976158,332011.0,8085,NNB,A,16
17,test,4,1.0,1-Back,1.0,z,Mon Jan 05 2026 10:01:11 GMT-0600 (Central Standard Time),335868.7000000477,043_m_f_n_a.png,I,z,572,18,1,1591.7000000476837,334277.0,8085,NNB,A,17
0,test,5,1.0,1-Back,,,Mon Jan 05 2026 10:01:11 GMT-0600 (Central Standard Time),335868.7000000477,053_o_m_n_a.png,I,space,1292,1,1,1591.7000000476837,334277.0,8085,NNB,A,0
1,test,5,1.0,1-Back,1.0,z,Mon Jan 05 2026 10:01:11 GMT-0600 (Central Standard Time),340933.60000002384,053_o_m_n_a.png,I,z,728,2,1,1741.2000000476837,339192.39999997616,8085,NNB,A,1
2,test,5,0.0,1-Back,1.0,m,Mon Jan 05 2026 10:01:11 GMT-0600 (Central Standard Time),342766.3000000715,063_y_f_n_a.png,I,m,802,3,1,1823.7000000476837,340942.60000002384,8085,NNB,A,2
3,test,5,0.0,1-Back,1.0,m,Mon Jan 05 2026 10:01:11 GMT-0600 (Central Standard Time),344432.39999997616,041_y_m_n_a.png,I,m,632,4,1,1657.5999999046326,342774.8000000715,8085,NNB,A,3
4,test,5,0.0,1-Back,1.0,m,Mon Jan 05 2026 10:01:11 GMT-0600 (Central Standard Time),346248.60000002384,063_y_f_n_a.png,I,m,798,5,1,1807.2999999523163,344441.3000000715,8085,NNB,A,4
5,test,5,0.0,1-Back,1.0,m,Mon Jan 05 2026 10:01:11 GMT-0600 (Central Standard Time),348014.7000000477,058_m_m_n_a.png,I,m,743,6,1,1757.8999999761581,346256.8000000715,8085,NNB,A,5
6,test,5,1.0,1-Back,1.0,z,Mon Jan 05 2026 10:01:11 GMT-0600 (Central Standard Time),349581.0,058_m_m_n_a.png,I,z,546,7,1,1558.0,348023.0,8085,NNB,A,6
7,test,5,0.0,1-Back,1.0,m,Mon Jan 05 2026 10:01:11 GMT-0600 (Central Standard Time),351346.89999997616,010_y_f_n_a.png,I,m,739,8,1,1758.0,349588.89999997616,8085,NNB,A,7
8,test,5,0.0,1-Back,1.0,m,Mon Jan 05 2026 10:01:11 GMT-0600 (Central Standard Time),353146.7000000477,008_y_m_n_a.png,I,m,772,9,1,1792.0,351354.7000000477,8085,NNB,A,8
9,test,5,0.0,1-Back,1.0,m,Mon Jan 05 2026 10:01:11 GMT-0600 (Central Standard Time),354846.10000002384,010_y_f_n_a.png,I,m,678,10,1,1690.8999999761581,353155.2000000477,8085,NNB,A,9
10,test,5,0.0,1-Back,1.0,m,Mon Jan 05 2026 10:01:11 GMT-0600 (Central Standard Time),356512.2000000477,047_o_f_n_a.png,I,m,642,11,1,1658.1000000238419,354854.10000002384,8085,NNB,A,10
11,test,5,1.0,1-Back,1.0,z,Mon Jan 05 2026 10:01:11 GMT-0600 (Central Standard Time),358228.0,047_o_f_n_a.png,I,z,688,12,1,1707.3999999761581,356520.60000002384,8085,NNB,A,11
12,test,5,0.0,1-Back,1.0,m,Mon Jan 05 2026 10:01:11 GMT-0600 (Central Standard Time),360105.3000000715,046_o_m_n_a.png,I,m,843,13,1,1869.1000000238419,358236.2000000477,8085,NNB,A,12
13,test,5,0.0,1-Back,1.0,m,Mon Jan 05 2026 10:01:11 GMT-0600 (Central Standard Time),361793.7000000477,050_m_f_n_a.png,I,m,656,14,1,1676.3999999761581,360117.3000000715,8085,NNB,A,13
14,test,5,1.0,1-Back,1.0,z,Mon Jan 05 2026 10:01:11 GMT-0600 (Central Standard Time),363842.89999997616,050_m_f_n_a.png,I,z,1023,15,1,2040.5999999046326,361802.3000000715,8085,NNB,A,14
15,test,5,0.0,1-Back,1.0,m,Mon Jan 05 2026 10:01:11 GMT-0600 (Central Standard Time),365625.7000000477,046_o_m_n_a.png,I,m,757,16,1,1773.5,363852.2000000477,8085,NNB,A,15
16,test,5,0.0,1-Back,1.0,m,Mon Jan 05 2026 10:01:11 GMT-0600 (Central Standard Time),367525.3000000715,043_m_f_n_a.png,I,m,869,17,1,1891.6000000238419,365633.7000000477,8085,NNB,A,16
17,test,5,0.0,1-Back,1.0,m,Mon Jan 05 2026 10:01:11 GMT-0600 (Central Standard Time),369208.2000000477,045_m_m_n_a.png,I,m,659,18,1,1674.8000000715256,367533.39999997616,8085,NNB,A,17
0,prac,1,0.0,2-Back,,,Mon Jan 05 2026 10:01:11 GMT-0600 (Central Standard Time),369208.2000000477,008_y_m_n_a.png,I,space,6155,1,1,1674.8000000715256,367533.39999997616,8085,NNB,A,0
0,prac,1,0.0,2-Back,,,Mon Jan 05 2026 10:01:11 GMT-0600 (Central Standard Time),369208.2000000477,043_m_f_n_a.png,I,space,6155,2,1,1674.8000000715256,367533.39999997616,8085,NNB,A,0
1,prac,1,1.0,2-Back,1.0,m,Mon Jan 05 2026 10:01:11 GMT-0600 (Central Standard Time),541070.8999999762,046_o_m_n_a.png,I,m,1707,3,1,2506.0,538564.8999999762,8085,NNB,A,1
1,prac,1,0.0,2-Back,0.0,m,Mon Jan 05 2026 10:01:11 GMT-0600 (Central Standard Time),543919.7000000477,047_o_f_n_a.png,I,None,2015,4,1,2839.0,541080.7000000477,8085,NNB,A,2
1,prac,1,0.0,2-Back,0.0,z,Mon Jan 05 2026 10:01:11 GMT-0600 (Central Standard Time),545552.6000000238,046_o_m_n_a.png,I,m,847,5,1,1623.3999999761581,543929.2000000477,8085,NNB,A,3
1,prac,1,1.0,2-Back,0.0,z,Mon Jan 05 2026 10:01:11 GMT-0600 (Central Standard Time),548202.0,047_o_f_n_a.png,I,m,1862,6,1,2640.0,545562.0,8085,NNB,A,4
1,prac,1,0.0,2-Back,0.0,m,Mon Jan 05 2026 10:01:11 GMT-0600 (Central Standard Time),551017.8000000715,045_m_m_n_a.png,I,None,2016,7,1,2806.4000000953674,548211.3999999762,8085,NNB,A,5
2,prac,1,0.0,2-Back,1.0,m,Mon Jan 05 2026 10:01:11 GMT-0600 (Central Standard Time),552650.3999999762,053_o_m_n_a.png,I,m,829,8,1,1623.5999999046326,551026.8000000715,8085,NNB,A,6
3,prac,1,0.0,2-Back,1.0,m,Mon Jan 05 2026 10:01:11 GMT-0600 (Central Standard Time),554866.5,010_y_f_n_a.png,I,m,1436,9,1,2206.7999999523163,552659.7000000477,8085,NNB,A,7
4,prac,1,1.0,2-Back,1.0,z,Mon Jan 05 2026 10:01:11 GMT-0600 (Central Standard Time),556582.5,053_o_m_n_a.png,I,z,932,10,1,1706.3999999761581,554876.1000000238,8085,NNB,A,8
5,prac,1,0.0,2-Back,1.0,m,Mon Jan 05 2026 10:01:11 GMT-0600 (Central Standard Time),558398.8000000715,063_y_f_n_a.png,I,m,982,11,1,1807.0,556591.8000000715,8085,NNB,A,9
6,prac,1,0.0,2-Back,1.0,m,Mon Jan 05 2026 10:01:11 GMT-0600 (Central Standard Time),560831.1000000238,045_m_m_n_a.png,I,m,1641,12,1,2422.899999976158,558408.2000000477,8085,NNB,A,10
0,prac,2,0.0,2-Back,,,Mon Jan 05 2026 10:01:11 GMT-0600 (Central Standard Time),560831.1000000238,008_y_m_n_a.png,I,a,6006,1,1,2422.899999976158,558408.2000000477,8085,NNB,A,0
0,prac,2,0.0,2-Back,,,Mon Jan 05 2026 10:01:11 GMT-0600 (Central Standard Time),560831.1000000238,043_m_f_n_a.png,I,a,6006,2,1,2422.899999976158,558408.2000000477,8085,NNB,A,0
1,prac,2,1.0,2-Back,1.0,m,Mon Jan 05 2026 10:01:11 GMT-0600 (Central Standard Time),574227.0,046_o_m_n_a.png,I,m,1553,3,1,2323.1999999284744,571903.8000000715,8085,NNB,A,1
2,prac,2,0.0,2-Back,1.0,m,Mon Jan 05 2026 10:01:11 GMT-0600 (Central Standard Time),575860.0,047_o_f_n_a.png,I,m,844,4,1,1623.6999999284744,574236.3000000715,8085,NNB,A,2
3,prac,2,0.0,2-Back,1.0,z,Mon Jan 05 2026 10:01:11 GMT-0600 (Central Standard Time),577709.2000000477,046_o_m_n_a.png,I,z,1058,5,1,1838.8999999761581,575870.3000000715,8085,NNB,A,3
4,prac,2,1.0,2-Back,1.0,z,Mon Jan 05 2026 10:01:11 GMT-0600 (Central Standard Time),579658.6000000238,047_o_f_n_a.png,I,z,1170,6,1,1940.6000000238419,577718.0,8085,NNB,A,4
5,prac,2,0.0,2-Back,1.0,m,Mon Jan 05 2026 10:01:11 GMT-0600 (Central Standard Time),581691.2000000477,045_m_m_n_a.png,I,m,1242,7,1,2020.3000000715256,579670.8999999762,8085,NNB,A,5
6,prac,2,0.0,2-Back,1.0,m,Mon Jan 05 2026 10:01:11 GMT-0600 (Central Standard Time),583391.7000000477,053_o_m_n_a.png,I,m,916,8,1,1691.6000000238419,581700.1000000238,8085,NNB,A,6
7,prac,2,0.0,2-Back,1.0,m,Mon Jan 05 2026 10:01:11 GMT-0600 (Central Standard Time),585273.6000000238,010_y_f_n_a.png,I,m,1104,9,1,1872.5,583401.1000000238,8085,NNB,A,7
8,prac,2,1.0,2-Back,1.0,z,Mon Jan 05 2026 10:01:11 GMT-0600 (Central Standard Time),587073.1000000238,053_o_m_n_a.png,I,z,1014,10,1,1790.7000000476837,585282.3999999762,8085,NNB,A,8
9,prac,2,0.0,2-Back,1.0,m,Mon Jan 05 2026 10:01:11 GMT-0600 (Central Standard Time),588855.7000000477,063_y_f_n_a.png,I,m,991,11,1,1773.3999999761581,587082.3000000715,8085,NNB,A,9
9,prac,2,0.0,2-Back,0.0,m,Mon Jan 05 2026 10:01:11 GMT-0600 (Central Standard Time),590655.2000000477,045_m_m_n_a.png,I,z,1016,12,1,1790.0,588865.2000000477,8085,NNB,A,10
0,test,1,0.0,2-Back,,,Mon Jan 05 2026 10:01:11 GMT-0600 (Central Standard Time),590655.2000000477,041_y_m_n_a.png,I,space,9488,1,1,1790.0,588865.2000000477,8085,NNB,A,0
0,test,1,0.0,2-Back,,,Mon Jan 05 2026 10:01:11 GMT-0600 (Central Standard Time),590655.2000000477,041_y_m_n_a.png,I,space,9488,2,1,1790.0,588865.2000000477,8085,NNB,A,0
1,test,1,0.0,2-Back,1.0,m,Mon Jan 05 2026 10:01:11 GMT-0600 (Central Standard Time),614597.5,047_o_f_n_a.png,I,m,1052,3,1,2073.899999976158,612523.6000000238,8085,NNB,A,1
2,test,1,0.0,2-Back,1.0,m,Mon Jan 05 2026 10:01:11 GMT-0600 (Central Standard Time),616613.7000000477,058_m_m_n_a.png,I,m,995,4,1,2007.7000000476837,614606.0,8085,NNB,A,2
3,test,1,1.0,2-Back,1.0,z,Mon Jan 05 2026 10:01:11 GMT-0600 (Central Standard Time),618329.6000000238,047_o_f_n_a.png,I,z,691,5,1,1707.2999999523163,616622.3000000715,8085,NNB,A,3
4,test,1,0.0,2-Back,1.0,m,Mon Jan 05 2026 10:01:11 GMT-0600 (Central Standard Time),620195.8999999762,063_y_f_n_a.png,I,m,852,6,1,1857.7999999523163,618338.1000000238,8085,NNB,A,4
4,test,1,0.0,2-Back,0.0,m,Mon Jan 05 2026 10:01:11 GMT-0600 (Central Standard Time),621828.8000000715,058_m_m_n_a.png,I,z,611,7,1,1624.6000000238419,620204.2000000477,8085,NNB,A,5
4,test,1,1.0,2-Back,0.0,z,Mon Jan 05 2026 10:01:11 GMT-0600 (Central Standard Time),623878.1000000238,063_y_f_n_a.png,I,m,1028,8,1,2040.7000000476837,621837.3999999762,8085,NNB,A,6
5,test,1,0.0,2-Back,1.0,m,Mon Jan 05 2026 10:01:11 GMT-0600 (Central Standard Time),626043.8999999762,008_y_m_n_a.png,I,m,1146,9,1,2157.0999999046326,623886.8000000715,8085,NNB,A,7
6,test,1,0.0,2-Back,1.0,m,Mon Jan 05 2026 10:01:11 GMT-0600 (Central Standard Time),627876.8000000715,044_o_f_n_a.png,I,m,804,10,1,1824.4000000953674,626052.3999999762,8085,NNB,A,8
7,test,1,1.0,2-Back,1.0,z,Mon Jan 05 2026 10:01:11 GMT-0600 (Central Standard Time),629393.1000000238,008_y_m_n_a.png,I,z,500,11,1,1507.7999999523163,627885.3000000715,8085,NNB,A,9
8,test,1,0.0,2-Back,1.0,m,Mon Jan 05 2026 10:01:11 GMT-0600 (Central Standard Time),631325.6000000238,043_m_f_n_a.png,I,m,903,12,1,1923.7999999523163,629401.8000000715,8085,NNB,A,10
8,test,1,0.0,2-Back,0.0,m,Mon Jan 05 2026 10:01:11 GMT-0600 (Central Standard Time),633508.3999999762,043_m_f_n_a.png,I,z,1155,13,1,2174.0,631334.3999999762,8085,NNB,A,11
9,test,1,0.0,2-Back,1.0,m,Mon Jan 05 2026 10:01:11 GMT-0600 (Central Standard Time),635408.0,046_o_m_n_a.png,I,m,876,14,1,1891.1000000238419,633516.8999999762,8085,NNB,A,12
10,test,1,0.0,2-Back,1.0,m,Mon Jan 05 2026 10:01:11 GMT-0600 (Central Standard Time),637640.3000000715,044_o_f_n_a.png,I,m,1200,15,1,2223.9000000953674,635416.3999999762,8085,NNB,A,13
11,test,1,1.0,2-Back,1.0,z,Mon Jan 05 2026 10:01:11 GMT-0600 (Central Standard Time),639256.5,046_o_m_n_a.png,I,z,599,16,1,1607.5,637649.0,8085,NNB,A,14
12,test,1,0.0,2-Back,1.0,m,Mon Jan 05 2026 10:01:11 GMT-0600 (Central Standard Time),641472.5,050_m_f_n_a.png,I,m,1184,17,1,2207.6999999284744,639264.8000000715,8085,NNB,A,15
13,test,1,0.0,2-Back,1.0,m,Mon Jan 05 2026 10:01:11 GMT-0600 (Central Standard Time),643555.0,045_m_m_n_a.png,I,m,1056,18,1,2073.899999976158,641481.1000000238,8085,NNB,A,16
0,test,2,0.0,2-Back,,,Mon Jan 05 2026 10:01:11 GMT-0600 (Central Standard Time),643555.0,045_m_m_n_a.png,I,space,1285,1,1,2073.899999976158,641481.1000000238,8085,NNB,A,0
0,test,2,0.0,2-Back,,,Mon Jan 05 2026 10:01:11 GMT-0600 (Central Standard Time),643555.0,010_y_f_n_a.png,I,space,1285,2,1,2073.899999976158,641481.1000000238,8085,NNB,A,0
1,test,2,1.0,2-Back,1.0,z,Mon Jan 05 2026 10:01:11 GMT-0600 (Central Standard Time),651552.6000000238,045_m_m_n_a.png,I,z,575,3,1,1590.1000000238419,649962.5,8085,NNB,A,1
2,test,2,0.0,2-Back,1.0,m,Mon Jan 05 2026 10:01:11 GMT-0600 (Central Standard Time),653485.3999999762,050_m_f_n_a.png,I,m,911,4,1,1923.5,651561.8999999762,8085,NNB,A,2
2,test,2,0.0,2-Back,0.0,m,Mon Jan 05 2026 10:01:11 GMT-0600 (Central Standard Time),655501.7000000477,010_y_f_n_a.png,I,z,986,5,1,2008.1000000238419,653493.6000000238,8085,NNB,A,3
3,test,2,0.0,2-Back,1.0,m,Mon Jan 05 2026 10:01:11 GMT-0600 (Central Standard Time),657367.3999999762,046_o_m_n_a.png,I,m,841,6,1,1857.5999999046326,655509.8000000715,8085,NNB,A,4
4,test,2,0.0,2-Back,1.0,m,Mon Jan 05 2026 10:01:11 GMT-0600 (Central Standard Time),659434.3000000715,063_y_f_n_a.png,I,m,1049,7,1,2058.0,657376.3000000715,8085,NNB,A,5
5,test,2,1.0,2-Back,1.0,z,Mon Jan 05 2026 10:01:11 GMT-0600 (Central Standard Time),661116.0,046_o_m_n_a.png,I,z,662,8,1,1673.6000000238419,659442.3999999762,8085,NNB,A,6
6,test,2,0.0,2-Back,1.0,m,Mon Jan 05 2026 10:01:11 GMT-0600 (Central Standard Time),663315.7000000477,008_y_m_n_a.png,I,m,1172,9,1,2189.3000000715256,661126.3999999762,8085,NNB,A,7
7,test,2,0.0,2-Back,1.0,m,Mon Jan 05 2026 10:01:11 GMT-0600 (Central Standard Time),665665.2000000477,008_y_m_n_a.png,I,m,1325,10,1,2341.100000023842,663324.1000000238,8085,NNB,A,8
8,test,2,0.0,2-Back,1.0,m,Mon Jan 05 2026 10:01:11 GMT-0600 (Central Standard Time),667531.1000000238,043_m_f_n_a.png,I,m,840,11,1,1857.2999999523163,665673.8000000715,8085,NNB,A,9
9,test,2,0.0,2-Back,1.0,m,Mon Jan 05 2026 10:01:11 GMT-0600 (Central Standard Time),669563.8000000715,010_y_f_n_a.png,I,m,1005,12,1,2024.4000000953674,667539.3999999762,8085,NNB,A,10
10,test,2,1.0,2-Back,1.0,z,Mon Jan 05 2026 10:01:11 GMT-0600 (Central Standard Time),671146.6000000238,043_m_f_n_a.png,I,z,556,13,1,1573.8999999761581,669572.7000000477,8085,NNB,A,11
11,test,2,0.0,2-Back,1.0,m,Mon Jan 05 2026 10:01:11 GMT-0600 (Central Standard Time),673046.1000000238,053_o_m_n_a.png,I,m,870,14,1,1890.7999999523163,671155.3000000715,8085,NNB,A,12
12,test,2,0.0,2-Back,1.0,m,Mon Jan 05 2026 10:01:11 GMT-0600 (Central Standard Time),675045.3999999762,053_o_m_n_a.png,I,m,969,15,1,1990.5999999046326,673054.8000000715,8085,NNB,A,13
13,test,2,0.0,2-Back,1.0,m,Mon Jan 05 2026 10:01:11 GMT-0600 (Central Standard Time),676894.7000000477,044_o_f_n_a.png,I,m,827,16,1,1840.1000000238419,675054.6000000238,8085,NNB,A,14
14,test,2,0.0,2-Back,1.0,m,Mon Jan 05 2026 10:01:11 GMT-0600 (Central Standard Time),678793.8999999762,058_m_m_n_a.png,I,m,882,17,1,1890.5999999046326,676903.3000000715,8085,NNB,A,15
15,test,2,1.0,2-Back,1.0,z,Mon Jan 05 2026 10:01:11 GMT-0600 (Central Standard Time),680460.3000000715,044_o_f_n_a.png,I,z,646,18,1,1657.9000000953674,678802.3999999762,8085,NNB,A,16
0,test,3,1.0,2-Back,,,Mon Jan 05 2026 10:01:11 GMT-0600 (Central Standard Time),680460.3000000715,041_y_m_n_a.png,I,space,1188,1,1,1657.9000000953674,678802.3999999762,8085,NNB,A,0
0,test,3,1.0,2-Back,,,Mon Jan 05 2026 10:01:11 GMT-0600 (Central Standard Time),680460.3000000715,041_y_m_n_a.png,I,space,1188,2,1,1657.9000000953674,678802.3999999762,8085,NNB,A,0
1,test,3,0.0,2-Back,1.0,m,Mon Jan 05 2026 10:01:11 GMT-0600 (Central Standard Time),688641.3999999762,044_o_f_n_a.png,I,m,883,3,1,1907.3999999761581,686734.0,8085,NNB,A,1
2,test,3,0.0,2-Back,1.0,m,Mon Jan 05 2026 10:01:11 GMT-0600 (Central Standard Time),690423.8999999762,045_m_m_n_a.png,I,m,750,4,1,1773.6999999284744,688650.2000000477,8085,NNB,A,2
3,test,3,1.0,2-Back,1.0,z,Mon Jan 05 2026 10:01:11 GMT-0600 (Central Standard Time),692023.3000000715,044_o_f_n_a.png,I,z,568,5,1,1591.0,690432.3000000715,8085,NNB,A,3
4,test,3,0.0,2-Back,1.0,m,Mon Jan 05 2026 10:01:11 GMT-0600 (Central Standard Time),694272.5,008_y_m_n_a.png,I,m,1224,6,1,2240.7999999523163,692031.7000000477,8085,NNB,A,4
5,test,3,0.0,2-Back,1.0,m,Mon Jan 05 2026 10:01:11 GMT-0600 (Central Standard Time),696588.2000000477,045_m_m_n_a.png,I,m,1295,7,1,2307.600000023842,694280.6000000238,8085,NNB,A,5
5,test,3,1.0,2-Back,0.0,z,Mon Jan 05 2026 10:01:11 GMT-0600 (Central Standard Time),699621.2000000477,008_y_m_n_a.png,I,None,2016,8,1,3023.899999976158,696597.3000000715,8085,NNB,A,6
6,test,3,0.0,2-Back,1.0,m,Mon Jan 05 2026 10:01:11 GMT-0600 (Central Standard Time),701553.7000000477,010_y_f_n_a.png,I,m,907,9,1,1924.0,699629.7000000477,8085,NNB,A,7
7,test,3,0.0,2-Back,1.0,m,Mon Jan 05 2026 10:01:11 GMT-0600 (Central Standard Time),703436.2000000477,058_m_m_n_a.png,I,m,862,10,1,1874.1000000238419,701562.1000000238,8085,NNB,A,8
8,test,3,1.0,2-Back,1.0,z,Mon Jan 05 2026 10:01:11 GMT-0600 (Central Standard Time),705269.0,010_y_f_n_a.png,I,z,812,11,1,1823.5,703445.5,8085,NNB,A,9
8,test,3,1.0,2-Back,0.0,z,Mon Jan 05 2026 10:01:11 GMT-0600 (Central Standard Time),707235.1000000238,058_m_m_n_a.png,I,m,938,12,1,1957.7000000476837,705277.3999999762,8085,NNB,A,10
9,test,3,0.0,2-Back,1.0,m,Mon Jan 05 2026 10:01:11 GMT-0600 (Central Standard Time),708984.8999999762,044_o_f_n_a.png,I,m,717,13,1,1741.2999999523163,707243.6000000238,8085,NNB,A,11
10,test,3,0.0,2-Back,1.0,m,Mon Jan 05 2026 10:01:11 GMT-0600 (Central Standard Time),710617.1000000238,050_m_f_n_a.png,I,m,615,14,1,1623.1000000238419,708994.0,8085,NNB,A,12
11,test,3,0.0,2-Back,1.0,m,Mon Jan 05 2026 10:01:11 GMT-0600 (Central Standard Time),712333.6000000238,046_o_m_n_a.png,I,m,694,15,1,1707.7000000476837,710625.8999999762,8085,NNB,A,13
12,test,3,1.0,2-Back,1.0,z,Mon Jan 05 2026 10:01:11 GMT-0600 (Central Standard Time),714099.7000000477,050_m_f_n_a.png,I,z,619,16,1,1757.2000000476837,712342.5,8085,NNB,A,14
13,test,3,0.0,2-Back,1.0,m,Mon Jan 05 2026 10:01:11 GMT-0600 (Central Standard Time),715915.8000000715,047_o_f_n_a.png,I,m,797,17,1,1807.5,714108.3000000715,8085,NNB,A,15
14,test,3,0.0,2-Back,1.0,m,Mon Jan 05 2026 10:01:11 GMT-0600 (Central Standard Time),717748.7000000477,047_o_f_n_a.png,I,m,813,18,1,1824.5,715924.2000000477,8085,NNB,A,16
0,test,4,0.0,2-Back,,,Mon Jan 05 2026 10:01:11 GMT-0600 (Central Standard Time),717748.7000000477,053_o_m_n_a.png,I,space,1236,1,1,1824.5,715924.2000000477,8085,NNB,A,0
0,test,4,0.0,2-Back,,,Mon Jan 05 2026 10:01:11 GMT-0600 (Central Standard Time),717748.7000000477,063_y_f_n_a.png,I,space,1236,2,1,1824.5,715924.2000000477,8085,NNB,A,0
1,test,4,1.0,2-Back,1.0,z,Mon Jan 05 2026 10:01:11 GMT-0600 (Central Standard Time),725712.8999999762,053_o_m_n_a.png,I,z,592,3,1,1607.8999999761581,724105.0,8085,NNB,A,1
2,test,4,1.0,2-Back,1.0,z,Mon Jan 05 2026 10:01:11 GMT-0600 (Central Standard Time),727728.7000000477,063_y_f_n_a.png,I,z,990,4,1,2007.0,725721.7000000477,8085,NNB,A,2
3,test,4,0.0,2-Back,1.0,m,Mon Jan 05 2026 10:01:11 GMT-0600 (Central Standard Time),729511.6000000238,044_o_f_n_a.png,I,m,758,5,1,1774.2000000476837,727737.3999999762,8085,NNB,A,3
4,test,4,0.0,2-Back,1.0,m,Mon Jan 05 2026 10:01:11 GMT-0600 (Central Standard Time),731377.3000000715,044_o_f_n_a.png,I,m,849,6,1,1856.7000000476837,729520.6000000238,8085,NNB,A,4
5,test,4,0.0,2-Back,1.0,m,Mon Jan 05 2026 10:01:11 GMT-0600 (Central Standard Time),733193.7000000477,043_m_f_n_a.png,I,m,790,7,1,1807.5,731386.2000000477,8085,NNB,A,5
6,test,4,0.0,2-Back,1.0,m,Mon Jan 05 2026 10:01:11 GMT-0600 (Central Standard Time),734959.8000000715,008_y_m_n_a.png,I,m,742,8,1,1757.3000000715256,733202.5,8085,NNB,A,6
7,test,4,1.0,2-Back,1.0,z,Mon Jan 05 2026 10:01:11 GMT-0600 (Central Standard Time),736476.0,043_m_f_n_a.png,I,z,488,9,1,1507.3999999761581,734968.6000000238,8085,NNB,A,7
8,test,4,0.0,2-Back,1.0,m,Mon Jan 05 2026 10:01:11 GMT-0600 (Central Standard Time),738325.3000000715,058_m_m_n_a.png,I,m,819,10,1,1840.6000000238419,736484.7000000477,8085,NNB,A,8
9,test,4,0.0,2-Back,1.0,m,Mon Jan 05 2026 10:01:11 GMT-0600 (Central Standard Time),740191.7000000477,008_y_m_n_a.png,I,m,834,11,1,1855.8999999761581,738335.8000000715,8085,NNB,A,9
10,test,4,0.0,2-Back,1.0,m,Mon Jan 05 2026 10:01:11 GMT-0600 (Central Standard Time),741991.1000000238,047_o_f_n_a.png,I,m,768,12,1,1790.7999999523163,740200.3000000715,8085,NNB,A,10
11,test,4,0.0,2-Back,1.0,m,Mon Jan 05 2026 10:01:11 GMT-0600 (Central Standard Time),743723.8999999762,041_y_m_n_a.png,I,m,714,13,1,1723.0999999046326,742000.8000000715,8085,NNB,A,11
12,test,4,1.0,2-Back,1.0,z,Mon Jan 05 2026 10:01:11 GMT-0600 (Central Standard Time),745706.3999999762,047_o_f_n_a.png,I,z,964,14,1,1973.5,743732.8999999762,8085,NNB,A,12
12,test,4,1.0,2-Back,0.0,z,Mon Jan 05 2026 10:01:11 GMT-0600 (Central Standard Time),747772.6000000238,041_y_m_n_a.png,I,m,1046,15,1,2057.399999976158,745715.2000000477,8085,NNB,A,13
13,test,4,0.0,2-Back,1.0,m,Mon Jan 05 2026 10:01:11 GMT-0600 (Central Standard Time),749605.3999999762,045_m_m_n_a.png,I,m,803,16,1,1824.1999999284744,747781.2000000477,8085,NNB,A,14
14,test,4,0.0,2-Back,1.0,m,Mon Jan 05 2026 10:01:11 GMT-0600 (Central Standard Time),751288.1000000238,050_m_f_n_a.png,I,m,650,17,1,1673.8999999761581,749614.2000000477,8085,NNB,A,15
15,test,4,1.0,2-Back,1.0,z,Mon Jan 05 2026 10:01:11 GMT-0600 (Central Standard Time),752937.6000000238,045_m_m_n_a.png,I,z,623,18,1,1640.6000000238419,751297.0,8085,NNB,A,16
0,test,5,1.0,2-Back,,,Mon Jan 05 2026 10:01:11 GMT-0600 (Central Standard Time),752937.6000000238,041_y_m_n_a.png,I,space,1166,1,1,1640.6000000238419,751297.0,8085,NNB,A,0
0,test,5,1.0,2-Back,,,Mon Jan 05 2026 10:01:11 GMT-0600 (Central Standard Time),752937.6000000238,050_m_f_n_a.png,I,space,1166,2,1,1640.6000000238419,751297.0,8085,NNB,A,0
1,test,5,1.0,2-Back,1.0,z,Mon Jan 05 2026 10:01:11 GMT-0600 (Central Standard Time),760757.8000000715,041_y_m_n_a.png,I,z,572,3,1,1579.4000000953674,759178.3999999762,8085,NNB,A,1
2,test,5,1.0,2-Back,1.0,z,Mon Jan 05 2026 10:01:11 GMT-0600 (Central Standard Time),762301.3000000715,050_m_f_n_a.png,I,z,511,4,1,1531.0,760770.3000000715,8085,NNB,A,2
3,test,5,0.0,2-Back,1.0,m,Mon Jan 05 2026 10:01:11 GMT-0600 (Central Standard Time),764100.8999999762,047_o_f_n_a.png,I,m,771,5,1,1790.5,762310.3999999762,8085,NNB,A,3
4,test,5,0.0,2-Back,1.0,m,Mon Jan 05 2026 10:01:11 GMT-0600 (Central Standard Time),765916.8000000715,041_y_m_n_a.png,I,m,796,6,1,1807.1000000238419,764109.7000000477,8085,NNB,A,4
5,test,5,0.0,2-Back,1.0,m,Mon Jan 05 2026 10:01:11 GMT-0600 (Central Standard Time),767732.8000000715,010_y_f_n_a.png,I,m,796,7,1,1806.1000000238419,765926.7000000477,8085,NNB,A,5
6,test,5,0.0,2-Back,1.0,m,Mon Jan 05 2026 10:01:11 GMT-0600 (Central Standard Time),770115.3000000715,047_o_f_n_a.png,I,m,1364,8,1,2373.5,767741.8000000715,8085,NNB,A,6
7,test,5,1.0,2-Back,1.0,z,Mon Jan 05 2026 10:01:11 GMT-0600 (Central Standard Time),771931.7000000477,010_y_f_n_a.png,I,z,797,9,1,1807.3999999761581,770124.3000000715,8085,NNB,A,7
8,test,5,0.0,2-Back,1.0,m,Mon Jan 05 2026 10:01:11 GMT-0600 (Central Standard Time),773764.3000000715,046_o_m_n_a.png,I,m,805,10,1,1824.2000000476837,771940.1000000238,8085,NNB,A,8
9,test,5,0.0,2-Back,1.0,m,Mon Jan 05 2026 10:01:11 GMT-0600 (Central Standard Time),775613.8000000715,043_m_f_n_a.png,I,m,820,11,1,1840.9000000953674,773772.8999999762,8085,NNB,A,9
10,test,5,0.0,2-Back,1.0,m,Mon Jan 05 2026 10:01:11 GMT-0600 (Central Standard Time),777313.0,058_m_m_n_a.png,I,m,682,12,1,1690.6000000238419,775622.3999999762,8085,NNB,A,10
11,test,5,0.0,2-Back,1.0,m,Mon Jan 05 2026 10:01:11 GMT-0600 (Central Standard Time),779246.0,046_o_m_n_a.png,I,m,910,13,1,1924.6999999284744,777321.3000000715,8085,NNB,A,11
12,test,5,1.0,2-Back,1.0,z,Mon Jan 05 2026 10:01:11 GMT-0600 (Central Standard Time),780928.8000000715,058_m_m_n_a.png,I,z,650,14,1,1673.8000000715256,779255.0,8085,NNB,A,12
13,test,5,0.0,2-Back,1.0,m,Mon Jan 05 2026 10:01:11 GMT-0600 (Central Standard Time),783011.5,063_y_f_n_a.png,I,m,1055,15,1,2074.399999976158,780937.1000000238,8085,NNB,A,13
14,test,5,0.0,2-Back,1.0,m,Mon Jan 05 2026 10:01:11 GMT-0600 (Central Standard Time),784794.2000000477,053_o_m_n_a.png,I,m,764,16,1,1773.3999999761581,783020.8000000715,8085,NNB,A,14
15,test,5,0.0,2-Back,1.0,m,Mon Jan 05 2026 10:01:11 GMT-0600 (Central Standard Time),786477.1000000238,043_m_f_n_a.png,I,m,654,17,1,1674.2999999523163,784802.8000000715,8085,NNB,A,15
16,test,5,1.0,2-Back,1.0,z,Mon Jan 05 2026 10:01:11 GMT-0600 (Central Standard Time),787976.3999999762,053_o_m_n_a.png,I,z,467,18,1,1490.1999999284744,786486.2000000477,8085,NNB,A,16
