block_c,block_dur,condition,countdown,datetime,endtime,list,multichar_response,project,response,response_time,session_number,start_end,starttime,subject_id,task,task_vers,trial
,,,,Tue Aug 20 2024 17:05:58 GMT-0500 (Central Daylight Time),,,,O,space,485,1,,,7003,WL,A,
prac,,0,,Tue Aug 20 2024 17:05:58 GMT-0500 (Central Daylight Time),,NA,b,O,b,8284,1,,,7003,WL,A,1.0
prac,,0,,Tue Aug 20 2024 17:05:58 GMT-0500 (Central Daylight Time),,NA,bo,O,o,990,1,,,7003,WL,A,1.0
prac,,0,,Tue Aug 20 2024 17:05:58 GMT-0500 (Central Daylight Time),,NA,boo,O,o,160,1,,,7003,WL,A,1.0
prac,,0,,Tue Aug 20 2024 17:05:58 GMT-0500 (Central Daylight Time),,NA,boos,O,s,40,1,,,7003,WL,A,1.0
prac,,0,,Tue Aug 20 2024 17:05:58 GMT-0500 (Central Daylight Time),,NA,boost,O,t,166,1,,,7003,WL,A,1.0
prac,,0,,Tue Aug 20 2024 17:05:58 GMT-0500 (Central Daylight Time),,NA,boostenter,O,enter,4312,1,,,7003,WL,A,1.0
1,0.749000072479248,learn,59250.99992752075,Tue Aug 20 2024 17:05:58 GMT-0500 (Central Daylight Time),133144.59999996424,A,b,O,b,739,1,747.5,132397.09999996424,7003,WL,A,1.0
1,1.0,learn,59000.0,Tue Aug 20 2024 17:05:58 GMT-0500 (Central Daylight Time),133395.0,A,bo,O,o,241,1,997.9000000357628,132397.09999996424,7003,WL,A,1.0
1,1.182999849319458,learn,58817.00015068054,Tue Aug 20 2024 17:05:58 GMT-0500 (Central Daylight Time),133578.19999998808,A,boo,O,o,174,1,1181.1000000238419,132397.09999996424,7003,WL,A,1.0
1,1.3829998970031738,learn,58617.000102996826,Tue Aug 20 2024 17:05:58 GMT-0500 (Central Daylight Time),133778.09999996424,A,book,O,k,182,1,1381.0,132397.09999996424,7003,WL,A,1.0
1,1.7920000553131104,learn,58207.99994468689,Tue Aug 20 2024 17:05:58 GMT-0500 (Central Daylight Time),134187.69999998808,A,bookenter,O,enter,257,1,1790.6000000238419,132397.09999996424,7003,WL,A,1.0
1,2.2330000400543213,learn,57766.99995994568,Tue Aug 20 2024 17:05:58 GMT-0500 (Central Daylight Time),134627.80000001192,A,f,O,f,420,1,439.5,134188.30000001192,7003,WL,A,2.0
1,2.365999937057495,learn,57634.000062942505,Tue Aug 20 2024 17:05:58 GMT-0500 (Central Daylight Time),134761.0,A,fl,O,l,117,1,572.6999999880791,134188.30000001192,7003,WL,A,2.0
1,2.565000057220459,learn,57434.99994277954,Tue Aug 20 2024 17:05:58 GMT-0500 (Central Daylight Time),134960.80000001192,A,flo,O,o,184,1,772.5,134188.30000001192,7003,WL,A,2.0
1,2.6649999618530273,learn,57335.00003814697,Tue Aug 20 2024 17:05:58 GMT-0500 (Central Daylight Time),135060.69999998808,A,flow,O,w,80,1,872.3999999761581,134188.30000001192,7003,WL,A,2.0
1,2.7990000247955322,learn,57200.99997520447,Tue Aug 20 2024 17:05:58 GMT-0500 (Central Daylight Time),135194.30000001192,A,flowe,O,e,116,1,1006.0,134188.30000001192,7003,WL,A,2.0
1,2.8989999294281006,learn,57101.0000705719,Tue Aug 20 2024 17:05:58 GMT-0500 (Central Daylight Time),135294.09999996424,A,flower,O,r,78,1,1105.7999999523163,134188.30000001192,7003,WL,A,2.0
1,3.065999984741211,learn,56934.00001525879,Tue Aug 20 2024 17:05:58 GMT-0500 (Central Daylight Time),135461.0,A,flowerenter,O,enter,155,1,1272.699999988079,134188.30000001192,7003,WL,A,2.0
1,3.4830000400543213,learn,56516.99995994568,Tue Aug 20 2024 17:05:58 GMT-0500 (Central Daylight Time),135878.30000001192,A,r,O,r,412,1,416.9000000357628,135461.39999997616,7003,WL,A,3.0
1,4.014999866485596,learn,55985.000133514404,Tue Aug 20 2024 17:05:58 GMT-0500 (Central Daylight Time),136410.39999997616,A,rt,O,t,516,1,949.0,135461.39999997616,7003,WL,A,3.0
1,4.2820000648498535,learn,55717.99993515015,Tue Aug 20 2024 17:05:58 GMT-0500 (Central Daylight Time),136677.30000001192,A,rtr,O,r,254,1,1215.9000000357628,135461.39999997616,7003,WL,A,3.0
1,4.747999906539917,learn,55252.00009346008,Tue Aug 20 2024 17:05:58 GMT-0500 (Central Daylight Time),137143.69999998808,A,rt,O,backspace,453,1,1682.300000011921,135461.39999997616,7003,WL,A,3.0
1,4.947999954223633,learn,55052.00004577637,Tue Aug 20 2024 17:05:58 GMT-0500 (Central Daylight Time),137343.59999996424,A,r,O,backspace,186,1,1882.199999988079,135461.39999997616,7003,WL,A,3.0
1,5.115000009536743,learn,54884.99999046326,Tue Aug 20 2024 17:05:58 GMT-0500 (Central Daylight Time),137510.19999998808,A,,O,backspace,145,1,2048.800000011921,135461.39999997616,7003,WL,A,3.0
1,5.332000017166138,learn,54667.99998283386,Tue Aug 20 2024 17:05:58 GMT-0500 (Central Daylight Time),137726.80000001192,A,t,O,t,195,1,2265.400000035763,135461.39999997616,7003,WL,A,3.0
1,5.5309998989105225,learn,54469.00010108948,Tue Aug 20 2024 17:05:58 GMT-0500 (Central Daylight Time),137926.5,A,tr,O,r,178,1,2465.100000023842,135461.39999997616,7003,WL,A,3.0
1,5.697999954223633,learn,54302.00004577637,Tue Aug 20 2024 17:05:58 GMT-0500 (Central Daylight Time),138093.30000001192,A,tra,O,a,146,1,2631.900000035763,135461.39999997616,7003,WL,A,3.0
1,5.815000057220459,learn,54184.99994277954,Tue Aug 20 2024 17:05:58 GMT-0500 (Central Daylight Time),138209.80000001192,A,trai,O,i,100,1,2748.400000035763,135461.39999997616,7003,WL,A,3.0
1,5.914999961853027,learn,54085.00003814697,Tue Aug 20 2024 17:05:58 GMT-0500 (Central Daylight Time),138309.89999997616,A,train,O,n,87,1,2848.5,135461.39999997616,7003,WL,A,3.0
1,6.398000001907349,learn,53601.99999809265,Tue Aug 20 2024 17:05:58 GMT-0500 (Central Daylight Time),138792.80000001192,A,trainenter,O,enter,467,1,3331.400000035763,135461.39999997616,7003,WL,A,3.0
1,8.54699993133545,learn,51453.00006866455,Tue Aug 20 2024 17:05:58 GMT-0500 (Central Daylight Time),140942.39999997616,A,f,O,f,2136,1,2149.199999988079,138793.19999998808,7003,WL,A,4.0
1,8.763999938964844,learn,51236.000061035156,Tue Aug 20 2024 17:05:58 GMT-0500 (Central Daylight Time),141158.80000001192,A,fi,O,i,204,1,2365.600000023842,138793.19999998808,7003,WL,A,4.0
1,8.829999923706055,learn,51170.000076293945,Tue Aug 20 2024 17:05:58 GMT-0500 (Central Daylight Time),141225.69999998808,A,fin,O,n,59,1,2432.5,138793.19999998808,7003,WL,A,4.0
1,8.980000019073486,learn,51019.999980926514,Tue Aug 20 2024 17:05:58 GMT-0500 (Central Daylight Time),141375.59999996424,A,fing,O,g,135,1,2582.399999976158,138793.19999998808,7003,WL,A,4.0
1,9.29699993133545,learn,50703.00006866455,Tue Aug 20 2024 17:05:58 GMT-0500 (Central Daylight Time),141692.0,A,finge,O,e,298,1,2898.800000011921,138793.19999998808,7003,WL,A,4.0
1,9.36299991607666,learn,50637.00008392334,Tue Aug 20 2024 17:05:58 GMT-0500 (Central Daylight Time),141758.80000001192,A,finger,O,r,61,1,2965.600000023842,138793.19999998808,7003,WL,A,4.0
1,9.846999883651733,learn,50153.00011634827,Tue Aug 20 2024 17:05:58 GMT-0500 (Central Daylight Time),142241.80000001192,A,fingerenter,O,enter,474,1,3448.600000023842,138793.19999998808,7003,WL,A,4.0
1,11.628999948501587,learn,48371.00005149841,Tue Aug 20 2024 17:05:58 GMT-0500 (Central Daylight Time),144024.69999998808,A,g,O,g,1776,1,1782.3999999761581,142242.30000001192,7003,WL,A,5.0
1,11.812999963760376,learn,48187.000036239624,Tue Aug 20 2024 17:05:58 GMT-0500 (Central Daylight Time),144207.89999997616,A,go,O,o,169,1,1965.5999999642372,142242.30000001192,7003,WL,A,5.0
1,11.978999853134155,learn,48021.000146865845,Tue Aug 20 2024 17:05:58 GMT-0500 (Central Daylight Time),144374.69999998808,A,gol,O,l,153,1,2132.399999976158,142242.30000001192,7003,WL,A,5.0
1,12.11299991607666,learn,47887.00008392334,Tue Aug 20 2024 17:05:58 GMT-0500 (Central Daylight Time),144507.89999997616,A,gold,O,d,121,1,2265.599999964237,142242.30000001192,7003,WL,A,5.0
1,12.361999988555908,learn,47638.00001144409,Tue Aug 20 2024 17:05:58 GMT-0500 (Central Daylight Time),144757.69999998808,A,goldenter,O,enter,239,1,2515.399999976158,142242.30000001192,7003,WL,A,5.0
1,13.84500002861023,learn,46154.99997138977,Tue Aug 20 2024 17:05:58 GMT-0500 (Central Daylight Time),146240.80000001192,A,c,O,c,1467,1,1482.7000000476837,144758.09999996424,7003,WL,A,6.0
1,13.944999933242798,learn,46055.0000667572,Tue Aug 20 2024 17:05:58 GMT-0500 (Central Daylight Time),146340.59999996424,A,ch,O,h,81,1,1582.5,144758.09999996424,7003,WL,A,6.0
1,14.144999980926514,learn,45855.000019073486,Tue Aug 20 2024 17:05:58 GMT-0500 (Central Daylight Time),146540.59999996424,A,chi,O,i,189,1,1782.5,144758.09999996424,7003,WL,A,6.0
1,14.378999948501587,learn,45621.00005149841,Tue Aug 20 2024 17:05:58 GMT-0500 (Central Daylight Time),146773.80000001192,A,chim,O,m,222,1,2015.7000000476837,144758.09999996424,7003,WL,A,6.0
1,15.32800006866455,learn,44671.99993133545,Tue Aug 20 2024 17:05:58 GMT-0500 (Central Daylight Time),147723.59999996424,A,chimn,O,n,932,1,2965.5,144758.09999996424,7003,WL,A,6.0
1,15.628999948501587,learn,44371.00005149841,Tue Aug 20 2024 17:05:58 GMT-0500 (Central Daylight Time),148024.59999996424,A,chimne,O,e,293,1,3266.5,144758.09999996424,7003,WL,A,6.0
1,15.812000036239624,learn,44187.999963760376,Tue Aug 20 2024 17:05:58 GMT-0500 (Central Daylight Time),148207.59999996424,A,chimney,O,y,160,1,3449.5,144758.09999996424,7003,WL,A,6.0
1,16.045000076293945,learn,43954.999923706055,Tue Aug 20 2024 17:05:58 GMT-0500 (Central Daylight Time),148439.89999997616,A,chimneyenter,O,enter,218,1,3681.800000011921,144758.09999996424,7003,WL,A,6.0
1,16.310999870300293,learn,43689.00012969971,Tue Aug 20 2024 17:05:58 GMT-0500 (Central Daylight Time),148706.59999996424,A,l,O,l,259,1,266.2999999523163,148440.30000001192,7003,WL,A,7.0
1,16.51099991798401,learn,43489.00008201599,Tue Aug 20 2024 17:05:58 GMT-0500 (Central Daylight Time),148906.39999997616,A,lo,O,o,183,1,466.0999999642372,148440.30000001192,7003,WL,A,7.0
1,16.611000061035156,learn,43388.999938964844,Tue Aug 20 2024 17:05:58 GMT-0500 (Central Daylight Time),149006.5,A,log,O,g,95,1,566.1999999880791,148440.30000001192,7003,WL,A,7.0
1,16.8439998626709,learn,43156.0001373291,Tue Aug 20 2024 17:05:58 GMT-0500 (Central Daylight Time),149239.80000001192,A,logenter,O,enter,219,1,799.5,148440.30000001192,7003,WL,A,7.0
1,22.625999927520752,learn,37374.00007247925,Tue Aug 20 2024 17:05:58 GMT-0500 (Central Daylight Time),155021.39999997616,A,p,O,p,5762,1,5781.199999988079,149240.19999998808,7003,WL,A,8.0
1,22.7260000705719,learn,37273.9999294281,Tue Aug 20 2024 17:05:58 GMT-0500 (Central Daylight Time),155121.19999998808,A,pa,O,a,92,1,5881.0,149240.19999998808,7003,WL,A,8.0
1,22.943000078201294,learn,37056.999921798706,Tue Aug 20 2024 17:05:58 GMT-0500 (Central Daylight Time),155337.89999997616,A,pas,O,s,208,1,6097.699999988079,149240.19999998808,7003,WL,A,8.0
1,23.108999967575073,learn,36891.00003242493,Tue Aug 20 2024 17:05:58 GMT-0500 (Central Daylight Time),155504.5,A,past,O,t,151,1,6264.300000011921,149240.19999998808,7003,WL,A,8.0
1,23.241999864578247,learn,36758.00013542175,Tue Aug 20 2024 17:05:58 GMT-0500 (Central Daylight Time),155637.59999996424,A,pastu,O,u,121,1,6397.399999976158,149240.19999998808,7003,WL,A,8.0
1,23.342000007629395,learn,36657.999992370605,Tue Aug 20 2024 17:05:58 GMT-0500 (Central Daylight Time),155737.80000001192,A,pastur,O,r,93,1,6497.600000023842,149240.19999998808,7003,WL,A,8.0
1,23.39199995994568,learn,36608.00004005432,Tue Aug 20 2024 17:05:58 GMT-0500 (Central Daylight Time),155787.59999996424,A,pasture,O,e,32,1,6547.399999976158,149240.19999998808,7003,WL,A,8.0
1,24.424999952316284,learn,35575.000047683716,Tue Aug 20 2024 17:05:58 GMT-0500 (Central Daylight Time),156820.59999996424,A,pastureenter,O,enter,1014,1,7580.399999976158,149240.19999998808,7003,WL,A,8.0
1,32.83899998664856,learn,27161.00001335144,Tue Aug 20 2024 17:05:58 GMT-0500 (Central Daylight Time),165234.59999996424,A,s,O,s,8406,1,8413.699999988079,156820.89999997616,7003,WL,A,9.0
1,33.0220000743866,learn,26977.999925613403,Tue Aug 20 2024 17:05:58 GMT-0500 (Central Daylight Time),165417.80000001192,A,sa,O,a,174,1,8596.900000035763,156820.89999997616,7003,WL,A,9.0
1,33.20599985122681,learn,26794.000148773193,Tue Aug 20 2024 17:05:58 GMT-0500 (Central Daylight Time),165601.19999998808,A,sal,O,l,169,1,8780.300000011921,156820.89999997616,7003,WL,A,9.0
1,33.473000049591064,learn,26526.999950408936,Tue Aug 20 2024 17:05:58 GMT-0500 (Central Daylight Time),165867.89999997616,A,salt,O,t,248,1,9047.0,156820.89999997616,7003,WL,A,9.0
1,33.6729998588562,learn,26327.0001411438,Tue Aug 20 2024 17:05:58 GMT-0500 (Central Daylight Time),166067.89999997616,A,saltenter,O,enter,182,1,9247.0,156820.89999997616,7003,WL,A,9.0
1,37.62100005149841,learn,22378.999948501587,Tue Aug 20 2024 17:05:58 GMT-0500 (Central Daylight Time),170016.80000001192,A,b,O,b,3941,1,3948.300000011921,166068.5,7003,WL,A,10.0
1,37.853999853134155,learn,22146.000146865845,Tue Aug 20 2024 17:05:58 GMT-0500 (Central Daylight Time),170249.69999998808,A,bo,O,o,217,1,4181.199999988079,166068.5,7003,WL,A,10.0
1,37.98799991607666,learn,22012.00008392334,Tue Aug 20 2024 17:05:58 GMT-0500 (Central Daylight Time),170383.0,A,boo,O,o,120,1,4314.5,166068.5,7003,WL,A,10.0
1,38.15400004386902,learn,21845.99995613098,Tue Aug 20 2024 17:05:58 GMT-0500 (Central Daylight Time),170549.59999996424,A,book,O,k,154,1,4481.099999964237,166068.5,7003,WL,A,10.0
1,39.62100005149841,learn,20378.999948501587,Tue Aug 20 2024 17:05:58 GMT-0500 (Central Daylight Time),172015.89999997616,A,boo,O,backspace,1451,1,5947.399999976158,166068.5,7003,WL,A,10.0
1,39.82099986076355,learn,20179.00013923645,Tue Aug 20 2024 17:05:58 GMT-0500 (Central Daylight Time),172216.0,A,bo,O,backspace,194,1,6147.5,166068.5,7003,WL,A,10.0
1,40.020999908447266,learn,19979.000091552734,Tue Aug 20 2024 17:05:58 GMT-0500 (Central Daylight Time),172415.80000001192,A,b,O,backspace,186,1,6347.300000011921,166068.5,7003,WL,A,10.0
1,40.187000036239624,learn,19812.999963760376,Tue Aug 20 2024 17:05:58 GMT-0500 (Central Daylight Time),172582.5,A,,O,backspace,154,1,6514.0,166068.5,7003,WL,A,10.0
1,44.93599987030029,learn,15064.000129699707,Tue Aug 20 2024 17:05:58 GMT-0500 (Central Daylight Time),177331.09999996424,A,enter,O,enter,4740,1,11262.599999964237,166068.5,7003,WL,A,10.0
1,45.568000078201294,learn,14431.999921798706,Tue Aug 20 2024 17:05:58 GMT-0500 (Central Daylight Time),177964.0,A,enter,O,enter,614,1,632.6000000238419,177331.39999997616,7003,WL,A,11.0
1,45.80299997329712,learn,14197.00002670288,Tue Aug 20 2024 17:05:58 GMT-0500 (Central Daylight Time),178198.59999996424,A,enter,O,enter,213,1,234.0999999642372,177964.5,7003,WL,A,12.0
1,46.18499994277954,learn,13815.000057220459,Tue Aug 20 2024 17:05:58 GMT-0500 (Central Daylight Time),178580.59999996424,A,enter,O,enter,372,1,381.69999998807907,178198.89999997616,7003,WL,A,13.0
1,46.51799988746643,learn,13482.00011253357,Tue Aug 20 2024 17:05:58 GMT-0500 (Central Daylight Time),178913.69999998808,A,enter,O,enter,325,1,332.69999998807907,178581.0,7003,WL,A,14.0
1,46.91799998283386,learn,13082.000017166138,Tue Aug 20 2024 17:05:58 GMT-0500 (Central Daylight Time),179313.5,A,enter,O,enter,384,1,399.4000000357628,178914.09999996424,7003,WL,A,15.0
2,0.75,learn,59250.0,Tue Aug 20 2024 17:05:58 GMT-0500 (Central Daylight Time),245992.89999997616,A,b,O,b,735,1,749.8999999761581,245243.0,7003,WL,A,1.0
2,0.9670000076293945,learn,59032.999992370605,Tue Aug 20 2024 17:05:58 GMT-0500 (Central Daylight Time),246209.30000001192,A,bo,O,o,210,1,966.3000000119209,245243.0,7003,WL,A,1.0
2,1.1170001029968262,learn,58882.999897003174,Tue Aug 20 2024 17:05:58 GMT-0500 (Central Daylight Time),246359.30000001192,A,boo,O,o,136,1,1116.300000011921,245243.0,7003,WL,A,1.0
2,1.2840001583099365,learn,58715.99984169006,Tue Aug 20 2024 17:05:58 GMT-0500 (Central Daylight Time),246526.0,A,book,O,k,155,1,1283.0,245243.0,7003,WL,A,1.0
2,1.7160000801086426,learn,58283.99991989136,Tue Aug 20 2024 17:05:58 GMT-0500 (Central Daylight Time),246958.59999996424,A,bookenter,O,enter,427,1,1715.5999999642372,245243.0,7003,WL,A,1.0
2,2.0329999923706055,learn,57967.000007629395,Tue Aug 20 2024 17:05:58 GMT-0500 (Central Daylight Time),247275.5,A,f,O,f,298,1,316.60000002384186,246958.89999997616,7003,WL,A,2.0
2,2.116000175476074,learn,57883.999824523926,Tue Aug 20 2024 17:05:58 GMT-0500 (Central Daylight Time),247358.69999998808,A,fl,O,l,61,1,399.80000001192093,246958.89999997616,7003,WL,A,2.0
2,2.317000150680542,learn,57682.99984931946,Tue Aug 20 2024 17:05:58 GMT-0500 (Central Daylight Time),247559.09999996424,A,flo,O,o,180,1,600.1999999880791,246958.89999997616,7003,WL,A,2.0
2,2.433000087738037,learn,57566.99991226196,Tue Aug 20 2024 17:05:58 GMT-0500 (Central Daylight Time),247675.30000001192,A,flow,O,w,98,1,716.4000000357628,246958.89999997616,7003,WL,A,2.0
2,2.5,learn,57500.0,Tue Aug 20 2024 17:05:58 GMT-0500 (Central Daylight Time),247742.0,A,flowe,O,e,55,1,783.1000000238419,246958.89999997616,7003,WL,A,2.0
2,2.633000135421753,learn,57366.99986457825,Tue Aug 20 2024 17:05:58 GMT-0500 (Central Daylight Time),247875.5,A,flower,O,r,117,1,916.6000000238419,246958.89999997616,7003,WL,A,2.0
2,2.933000087738037,learn,57066.99991226196,Tue Aug 20 2024 17:05:58 GMT-0500 (Central Daylight Time),248175.09999996424,A,flowerenter,O,enter,294,1,1216.199999988079,246958.89999997616,7003,WL,A,2.0
2,3.433000087738037,learn,56566.99991226196,Tue Aug 20 2024 17:05:58 GMT-0500 (Central Daylight Time),248675.30000001192,A,r,O,r,491,1,499.9000000357628,248175.39999997616,7003,WL,A,3.0
2,3.565999984741211,learn,56434.00001525879,Tue Aug 20 2024 17:05:58 GMT-0500 (Central Daylight Time),248808.5,A,ru,O,u,119,1,633.1000000238419,248175.39999997616,7003,WL,A,3.0
2,3.7330000400543213,learn,56266.99995994568,Tue Aug 20 2024 17:05:58 GMT-0500 (Central Daylight Time),248975.0,A,rug,O,g,154,1,799.6000000238419,248175.39999997616,7003,WL,A,3.0
2,3.9660000801086426,learn,56033.99991989136,Tue Aug 20 2024 17:05:58 GMT-0500 (Central Daylight Time),249208.39999997616,A,rugenter,O,enter,226,1,1033.0,248175.39999997616,7003,WL,A,3.0
2,4.616000175476074,learn,55383.999824523926,Tue Aug 20 2024 17:05:58 GMT-0500 (Central Daylight Time),249858.09999996424,A,t,O,t,634,1,649.2999999523163,249208.80000001192,7003,WL,A,4.0
2,4.7820000648498535,learn,55217.99993515015,Tue Aug 20 2024 17:05:58 GMT-0500 (Central Daylight Time),250024.59999996424,A,tr,O,r,160,1,815.7999999523163,249208.80000001192,7003,WL,A,4.0
2,4.9150002002716064,learn,55084.99979972839,Tue Aug 20 2024 17:05:58 GMT-0500 (Central Daylight Time),250157.89999997616,A,tra,O,a,113,1,949.0999999642372,249208.80000001192,7003,WL,A,4.0
2,5.082000017166138,learn,54917.99998283386,Tue Aug 20 2024 17:05:58 GMT-0500 (Central Daylight Time),250324.59999996424,A,trai,O,i,156,1,1115.7999999523163,249208.80000001192,7003,WL,A,4.0
2,5.14900016784668,learn,54850.99983215332,Tue Aug 20 2024 17:05:58 GMT-0500 (Central Daylight Time),250391.59999996424,A,train,O,n,53,1,1182.7999999523163,249208.80000001192,7003,WL,A,4.0
2,5.450000047683716,learn,54549.999952316284,Tue Aug 20 2024 17:05:58 GMT-0500 (Central Daylight Time),250692.39999997616,A,trainenter,O,enter,282,1,1483.5999999642372,249208.80000001192,7003,WL,A,4.0
2,5.732000112533569,learn,54267.99988746643,Tue Aug 20 2024 17:05:58 GMT-0500 (Central Daylight Time),250974.69999998808,A,m,O,m,277,1,282.0,250692.69999998808,7003,WL,A,5.0
2,5.965000152587891,learn,54034.99984741211,Tue Aug 20 2024 17:05:58 GMT-0500 (Central Daylight Time),251207.80000001192,A,me,O,e,219,1,515.1000000238419,250692.69999998808,7003,WL,A,5.0
2,6.131999969482422,learn,53868.00003051758,Tue Aug 20 2024 17:05:58 GMT-0500 (Central Daylight Time),251374.19999998808,A,mea,O,a,154,1,681.5,250692.69999998808,7003,WL,A,5.0
2,6.511000156402588,learn,53488.99984359741,Tue Aug 20 2024 17:05:58 GMT-0500 (Central Daylight Time),251753.59999996424,A,mead,O,d,374,1,1060.8999999761581,250692.69999998808,7003,WL,A,5.0
2,6.6590001583099365,learn,53340.99984169006,Tue Aug 20 2024 17:05:58 GMT-0500 (Central Daylight Time),251901.19999998808,A,meado,O,o,143,1,1208.5,250692.69999998808,7003,WL,A,5.0
2,6.680999994277954,learn,53319.000005722046,Tue Aug 20 2024 17:05:58 GMT-0500 (Central Daylight Time),251923.89999997616,A,meadow,O,w,12,1,1231.199999988079,250692.69999998808,7003,WL,A,5.0
2,8.23200011253357,learn,51767.99988746643,Tue Aug 20 2024 17:05:58 GMT-0500 (Central Daylight Time),253474.80000001192,A,meadowenter,O,enter,1539,1,2782.100000023842,250692.69999998808,7003,WL,A,5.0
2,9.348000049591064,learn,50651.999950408936,Tue Aug 20 2024 17:05:58 GMT-0500 (Central Daylight Time),254590.09999996424,A,l,O,l,1094,1,1114.8999999761581,253475.19999998808,7003,WL,A,6.0
2,9.514000177383423,learn,50485.99982261658,Tue Aug 20 2024 17:05:58 GMT-0500 (Central Daylight Time),254756.89999997616,A,lo,O,o,156,1,1281.699999988079,253475.19999998808,7003,WL,A,6.0
2,9.581000089645386,learn,50418.999910354614,Tue Aug 20 2024 17:05:58 GMT-0500 (Central Daylight Time),254823.5,A,log,O,g,54,1,1348.300000011921,253475.19999998808,7003,WL,A,6.0
2,9.930999994277954,learn,50069.000005722046,Tue Aug 20 2024 17:05:58 GMT-0500 (Central Daylight Time),255173.39999997616,A,logenter,O,enter,331,1,1698.199999988079,253475.19999998808,7003,WL,A,6.0
2,10.71399998664856,learn,49286.00001335144,Tue Aug 20 2024 17:05:58 GMT-0500 (Central Daylight Time),255956.19999998808,A,c,O,c,773,1,782.3999999761581,255173.80000001192,7003,WL,A,7.0
2,10.77999997138977,learn,49220.00002861023,Tue Aug 20 2024 17:05:58 GMT-0500 (Central Daylight Time),256022.80000001192,A,ch,O,h,54,1,849.0,255173.80000001192,7003,WL,A,7.0
2,11.430000066757202,learn,48569.9999332428,Tue Aug 20 2024 17:05:58 GMT-0500 (Central Daylight Time),256672.69999998808,A,chi,O,i,644,1,1498.8999999761581,255173.80000001192,7003,WL,A,7.0
2,11.647000074386597,learn,48352.9999256134,Tue Aug 20 2024 17:05:58 GMT-0500 (Central Daylight Time),256889.30000001192,A,chim,O,m,209,1,1715.5,255173.80000001192,7003,WL,A,7.0
2,12.080000162124634,learn,47919.999837875366,Tue Aug 20 2024 17:05:58 GMT-0500 (Central Daylight Time),257322.39999997616,A,chimn,O,n,416,1,2148.599999964237,255173.80000001192,7003,WL,A,7.0
2,12.263000011444092,learn,47736.99998855591,Tue Aug 20 2024 17:05:58 GMT-0500 (Central Daylight Time),257505.69999998808,A,chimne,O,e,167,1,2331.899999976158,255173.80000001192,7003,WL,A,7.0
2,12.430000066757202,learn,47569.9999332428,Tue Aug 20 2024 17:05:58 GMT-0500 (Central Daylight Time),257672.5,A,chimney,O,y,151,1,2498.699999988079,255173.80000001192,7003,WL,A,7.0
2,12.680000066757202,learn,47319.9999332428,Tue Aug 20 2024 17:05:58 GMT-0500 (Central Daylight Time),257922.30000001192,A,chimneyenter,O,enter,233,1,2748.5,255173.80000001192,7003,WL,A,7.0
2,12.963000059127808,learn,47036.99994087219,Tue Aug 20 2024 17:05:58 GMT-0500 (Central Daylight Time),258205.5,A,r,O,r,263,1,282.9000000357628,257922.59999996424,7003,WL,A,8.0
2,13.11300015449524,learn,46886.99984550476,Tue Aug 20 2024 17:05:58 GMT-0500 (Central Daylight Time),258355.5,A,ra,O,a,132,1,432.9000000357628,257922.59999996424,7003,WL,A,8.0
2,13.246000051498413,learn,46753.99994850159,Tue Aug 20 2024 17:05:58 GMT-0500 (Central Daylight Time),258488.80000001192,A,rat,O,t,118,1,566.2000000476837,257922.59999996424,7003,WL,A,8.0
2,13.396000146865845,learn,46603.999853134155,Tue Aug 20 2024 17:05:58 GMT-0500 (Central Daylight Time),258638.69999998808,A,ratt,O,t,138,1,716.1000000238419,257922.59999996424,7003,WL,A,8.0
2,13.578999996185303,learn,46421.0000038147,Tue Aug 20 2024 17:05:58 GMT-0500 (Central Daylight Time),258822.0,A,rattl,O,l,172,1,899.4000000357628,257922.59999996424,7003,WL,A,8.0
2,13.713000059127808,learn,46286.99994087219,Tue Aug 20 2024 17:05:58 GMT-0500 (Central Daylight Time),258955.39999997616,A,rattle,O,e,124,1,1032.800000011921,257922.59999996424,7003,WL,A,8.0
2,14.196000099182129,learn,45803.99990081787,Tue Aug 20 2024 17:05:58 GMT-0500 (Central Daylight Time),259438.5,A,rattleenter,O,enter,470,1,1515.9000000357628,257922.59999996424,7003,WL,A,8.0
2,15.42900013923645,learn,44570.99986076355,Tue Aug 20 2024 17:05:58 GMT-0500 (Central Daylight Time),260671.19999998808,A,f,O,f,1227,1,1232.3999999761581,259438.80000001192,7003,WL,A,9.0
2,15.578999996185303,learn,44421.0000038147,Tue Aug 20 2024 17:05:58 GMT-0500 (Central Daylight Time),260821.39999997616,A,fi,O,i,130,1,1382.5999999642372,259438.80000001192,7003,WL,A,9.0
2,15.611999988555908,learn,44388.00001144409,Tue Aug 20 2024 17:05:58 GMT-0500 (Central Daylight Time),260854.69999998808,A,fin,O,n,13,1,1415.8999999761581,259438.80000001192,7003,WL,A,9.0
2,15.695000171661377,learn,44304.99982833862,Tue Aug 20 2024 17:05:58 GMT-0500 (Central Daylight Time),260937.89999997616,A,fing,O,g,75,1,1499.0999999642372,259438.80000001192,7003,WL,A,9.0
2,15.92900013923645,learn,44070.99986076355,Tue Aug 20 2024 17:05:58 GMT-0500 (Central Daylight Time),261171.30000001192,A,finge,O,e,215,1,1732.5,259438.80000001192,7003,WL,A,9.0
2,15.996000051498413,learn,44003.99994850159,Tue Aug 20 2024 17:05:58 GMT-0500 (Central Daylight Time),261238.09999996424,A,finger,O,r,46,1,1799.2999999523163,259438.80000001192,7003,WL,A,9.0
2,16.26200008392334,learn,43737.99991607666,Tue Aug 20 2024 17:05:58 GMT-0500 (Central Daylight Time),261504.59999996424,A,fingerenter,O,enter,259,1,2065.7999999523163,259438.80000001192,7003,WL,A,9.0
2,18.778000116348267,learn,41221.99988365173,Tue Aug 20 2024 17:05:58 GMT-0500 (Central Daylight Time),264020.5,A,g,O,g,2506,1,2515.5,261505.0,7003,WL,A,10.0
2,18.878000020980835,learn,41121.999979019165,Tue Aug 20 2024 17:05:58 GMT-0500 (Central Daylight Time),264120.5,A,go,O,o,94,1,2615.5,261505.0,7003,WL,A,10.0
2,19.062000036239624,learn,40937.999963760376,Tue Aug 20 2024 17:05:58 GMT-0500 (Central Daylight Time),264304.8000000119,A,gol,O,l,177,1,2799.800000011921,261505.0,7003,WL,A,10.0
2,19.17799997329712,learn,40822.00002670288,Tue Aug 20 2024 17:05:58 GMT-0500 (Central Daylight Time),264420.1999999881,A,gold,O,d,97,1,2915.199999988079,261505.0,7003,WL,A,10.0
2,19.344000101089478,learn,40655.99989891052,Tue Aug 20 2024 17:05:58 GMT-0500 (Central Daylight Time),264586.89999997616,A,goldenter,O,enter,158,1,3081.899999976158,261505.0,7003,WL,A,10.0
2,20.97699999809265,learn,39023.00000190735,Tue Aug 20 2024 17:05:58 GMT-0500 (Central Daylight Time),266219.8000000119,A,l,O,l,1616,1,1632.5,264587.3000000119,7003,WL,A,11.0
2,21.177000045776367,learn,38822.99995422363,Tue Aug 20 2024 17:05:58 GMT-0500 (Central Daylight Time),266419.6999999881,A,lo,O,o,190,1,1832.3999999761581,264587.3000000119,7003,WL,A,11.0
2,21.277000188827515,learn,38722.999811172485,Tue Aug 20 2024 17:05:58 GMT-0500 (Central Daylight Time),266519.59999996424,A,log,O,g,86,1,1932.2999999523163,264587.3000000119,7003,WL,A,11.0
2,21.49400019645691,learn,38505.99980354309,Tue Aug 20 2024 17:05:58 GMT-0500 (Central Daylight Time),266736.3000000119,A,logenter,O,enter,202,1,2149.0,264587.3000000119,7003,WL,A,11.0
2,22.710000038146973,learn,37289.99996185303,Tue Aug 20 2024 17:05:58 GMT-0500 (Central Daylight Time),267952.5,A,r,O,r,1201,1,1215.9000000357628,266736.59999996424,7003,WL,A,12.0
2,22.81000018119812,learn,37189.99981880188,Tue Aug 20 2024 17:05:58 GMT-0500 (Central Daylight Time),268052.5,A,ru,O,u,89,1,1315.9000000357628,266736.59999996424,7003,WL,A,12.0
2,22.960000038146973,learn,37039.99996185303,Tue Aug 20 2024 17:05:58 GMT-0500 (Central Daylight Time),268202.5,A,rug,O,g,141,1,1465.9000000357628,266736.59999996424,7003,WL,A,12.0
2,23.14300012588501,learn,36856.99987411499,Tue Aug 20 2024 17:05:58 GMT-0500 (Central Daylight Time),268385.6999999881,A,rugenter,O,enter,175,1,1649.1000000238419,266736.59999996424,7003,WL,A,12.0
2,39.97100019454956,learn,20028.99980545044,Tue Aug 20 2024 17:05:58 GMT-0500 (Central Daylight Time),285213.59999996424,A,enter,O,enter,16808,1,16827.5,268386.09999996424,7003,WL,A,13.0
2,40.1710000038147,learn,19828.999996185303,Tue Aug 20 2024 17:05:58 GMT-0500 (Central Daylight Time),285413.59999996424,A,enter,O,enter,189,1,199.5999999642372,285214.0,7003,WL,A,14.0
2,40.7039999961853,learn,19296.000003814697,Tue Aug 20 2024 17:05:58 GMT-0500 (Central Daylight Time),285946.8000000119,A,enter,O,enter,516,1,532.8000000119209,285414.0,7003,WL,A,15.0
3,1.433000087738037,learn,58566.99991226196,Tue Aug 20 2024 17:05:58 GMT-0500 (Central Daylight Time),352292.6999999881,A,b,O,b,1414,1,1432.8999999761581,350859.8000000119,7003,WL,A,1.0
3,1.565999984741211,learn,58434.00001525879,Tue Aug 20 2024 17:05:58 GMT-0500 (Central Daylight Time),352426.0,A,bu,O,u,124,1,1566.199999988079,350859.8000000119,7003,WL,A,1.0
3,1.7319998741149902,learn,58268.00012588501,Tue Aug 20 2024 17:05:58 GMT-0500 (Central Daylight Time),352592.39999997616,A,but,O,t,161,1,1732.5999999642372,350859.8000000119,7003,WL,A,1.0
3,1.8829998970031738,learn,58117.000102996826,Tue Aug 20 2024 17:05:58 GMT-0500 (Central Daylight Time),352742.6999999881,A,butt,O,t,138,1,1882.8999999761581,350859.8000000119,7003,WL,A,1.0
3,1.999000072479248,learn,58000.99992752075,Tue Aug 20 2024 17:05:58 GMT-0500 (Central Daylight Time),352859.09999996424,A,butto,O,o,107,1,1999.2999999523163,350859.8000000119,7003,WL,A,1.0
3,2.0820000171661377,learn,57917.99998283386,Tue Aug 20 2024 17:05:58 GMT-0500 (Central Daylight Time),352942.39999997616,A,button,O,n,71,1,2082.599999964237,350859.8000000119,7003,WL,A,1.0
3,2.4819998741149902,learn,57518.00012588501,Tue Aug 20 2024 17:05:58 GMT-0500 (Central Daylight Time),353342.39999997616,A,buttonenter,O,enter,388,1,2482.599999964237,350859.8000000119,7003,WL,A,1.0
3,2.865000009536743,learn,57134.99999046326,Tue Aug 20 2024 17:05:58 GMT-0500 (Central Daylight Time),353725.5,A,k,O,k,372,1,382.9000000357628,353342.59999996424,7003,WL,A,2.0
3,2.999000072479248,learn,57000.99992752075,Tue Aug 20 2024 17:05:58 GMT-0500 (Central Daylight Time),353859.0,A,ke,O,e,124,1,516.4000000357628,353342.59999996424,7003,WL,A,2.0
3,3.1649999618530273,learn,56835.00003814697,Tue Aug 20 2024 17:05:58 GMT-0500 (Central Daylight Time),354025.5,A,key,O,y,151,1,682.9000000357628,353342.59999996424,7003,WL,A,2.0
3,3.497999906539917,learn,56502.00009346008,Tue Aug 20 2024 17:05:58 GMT-0500 (Central Daylight Time),354358.5,A,keyenter,O,enter,320,1,1015.9000000357628,353342.59999996424,7003,WL,A,2.0
3,3.881999969482422,learn,56118.00003051758,Tue Aug 20 2024 17:05:58 GMT-0500 (Central Daylight Time),354741.8000000119,A,s,O,s,371,1,383.0,354358.8000000119,7003,WL,A,3.0
3,4.049000024795532,learn,55950.99997520447,Tue Aug 20 2024 17:05:58 GMT-0500 (Central Daylight Time),354908.59999996424,A,sa,O,a,149,1,549.7999999523163,354358.8000000119,7003,WL,A,3.0
3,4.148999929428101,learn,55851.0000705719,Tue Aug 20 2024 17:05:58 GMT-0500 (Central Daylight Time),355008.59999996424,A,sal,O,l,94,1,649.7999999523163,354358.8000000119,7003,WL,A,3.0
3,4.497999906539917,learn,55502.00009346008,Tue Aug 20 2024 17:05:58 GMT-0500 (Central Daylight Time),355358.5,A,salt,O,t,330,1,999.6999999880791,354358.8000000119,7003,WL,A,3.0
3,4.930999994277954,learn,55069.000005722046,Tue Aug 20 2024 17:05:58 GMT-0500 (Central Daylight Time),355791.39999997616,A,saltenter,O,enter,427,1,1432.5999999642372,354358.8000000119,7003,WL,A,3.0
3,5.29800009727478,learn,54701.99990272522,Tue Aug 20 2024 17:05:58 GMT-0500 (Central Daylight Time),356158.09999996424,A,h,O,h,355,1,366.39999997615814,355791.6999999881,7003,WL,A,4.0
3,5.398000001907349,learn,54601.99999809265,Tue Aug 20 2024 17:05:58 GMT-0500 (Central Daylight Time),356258.1999999881,A,ha,O,a,83,1,466.5,355791.6999999881,7003,WL,A,4.0
3,5.4649999141693115,learn,54535.00008583069,Tue Aug 20 2024 17:05:58 GMT-0500 (Central Daylight Time),356324.8000000119,A,har,O,r,56,1,533.1000000238419,355791.6999999881,7003,WL,A,4.0
3,5.831000089645386,learn,54168.999910354614,Tue Aug 20 2024 17:05:58 GMT-0500 (Central Daylight Time),356691.39999997616,A,harp,O,p,357,1,899.6999999880791,355791.6999999881,7003,WL,A,4.0
3,6.331000089645386,learn,53668.999910354614,Tue Aug 20 2024 17:05:58 GMT-0500 (Central Daylight Time),357191.1999999881,A,harpenter,O,enter,479,1,1399.5,355791.6999999881,7003,WL,A,4.0
3,6.7809998989105225,learn,53219.00010108948,Tue Aug 20 2024 17:05:58 GMT-0500 (Central Daylight Time),357641.0,A,t,O,t,444,1,449.60000002384186,357191.39999997616,7003,WL,A,5.0
3,6.980999946594238,learn,53019.00005340576,Tue Aug 20 2024 17:05:58 GMT-0500 (Central Daylight Time),357841.1999999881,A,tr,O,r,185,1,649.8000000119209,357191.39999997616,7003,WL,A,5.0
3,7.0980000495910645,learn,52901.999950408936,Tue Aug 20 2024 17:05:58 GMT-0500 (Central Daylight Time),357957.39999997616,A,tra,O,a,104,1,766.0,357191.39999997616,7003,WL,A,5.0
3,7.263999938964844,learn,52736.000061035156,Tue Aug 20 2024 17:05:58 GMT-0500 (Central Daylight Time),358124.3000000119,A,trai,O,i,156,1,932.9000000357628,357191.39999997616,7003,WL,A,5.0
3,7.364000082015991,learn,52635.99991798401,Tue Aug 20 2024 17:05:58 GMT-0500 (Central Daylight Time),358224.3000000119,A,train,O,n,86,1,1032.9000000357628,357191.39999997616,7003,WL,A,5.0
3,7.730999946594238,learn,52269.00005340576,Tue Aug 20 2024 17:05:58 GMT-0500 (Central Daylight Time),358590.59999996424,A,trainenter,O,enter,361,1,1399.199999988079,357191.39999997616,7003,WL,A,5.0
3,11.196000099182129,learn,48803.99990081787,Tue Aug 20 2024 17:05:58 GMT-0500 (Central Daylight Time),362056.3000000119,A,c,O,c,3460,1,3465.400000035763,358590.89999997616,7003,WL,A,6.0
3,11.296000003814697,learn,48703.9999961853,Tue Aug 20 2024 17:05:58 GMT-0500 (Central Daylight Time),362156.3000000119,A,ch,O,h,81,1,3565.400000035763,358590.89999997616,7003,WL,A,6.0
3,11.463000059127808,learn,48536.99994087219,Tue Aug 20 2024 17:05:58 GMT-0500 (Central Daylight Time),362322.89999997616,A,chi,O,i,157,1,3732.0,358590.89999997616,7003,WL,A,6.0
3,11.562999963760376,learn,48437.000036239624,Tue Aug 20 2024 17:05:58 GMT-0500 (Central Daylight Time),362422.8000000119,A,chim,O,m,86,1,3831.900000035763,358590.89999997616,7003,WL,A,6.0
3,11.996000051498413,learn,48003.99994850159,Tue Aug 20 2024 17:05:58 GMT-0500 (Central Daylight Time),362856.0,A,chimn,O,n,427,1,4265.100000023842,358590.89999997616,7003,WL,A,6.0
3,12.213000059127808,learn,47786.99994087219,Tue Aug 20 2024 17:05:58 GMT-0500 (Central Daylight Time),363072.89999997616,A,chimne,O,e,202,1,4482.0,358590.89999997616,7003,WL,A,6.0
3,12.36299991607666,learn,47637.00008392334,Tue Aug 20 2024 17:05:58 GMT-0500 (Central Daylight Time),363222.8000000119,A,chimney,O,y,129,1,4631.900000035763,358590.89999997616,7003,WL,A,6.0
3,12.578999996185303,learn,47421.0000038147,Tue Aug 20 2024 17:05:58 GMT-0500 (Central Daylight Time),363439.09999996424,A,chimneyenter,O,enter,203,1,4848.199999988079,358590.89999997616,7003,WL,A,6.0
3,12.796000003814697,learn,47203.9999961853,Tue Aug 20 2024 17:05:58 GMT-0500 (Central Daylight Time),363655.6999999881,A,g,O,g,202,1,216.19999998807907,363439.5,7003,WL,A,7.0
3,12.878999948501587,learn,47121.00005149841,Tue Aug 20 2024 17:05:58 GMT-0500 (Central Daylight Time),363739.0,A,go,O,o,67,1,299.5,363439.5,7003,WL,A,7.0
3,13.046000003814697,learn,46953.9999961853,Tue Aug 20 2024 17:05:58 GMT-0500 (Central Daylight Time),363905.59999996424,A,gol,O,l,159,1,466.0999999642372,363439.5,7003,WL,A,7.0
3,13.211999893188477,learn,46788.00010681152,Tue Aug 20 2024 17:05:58 GMT-0500 (Central Daylight Time),364072.1999999881,A,gold,O,d,152,1,632.6999999880791,363439.5,7003,WL,A,7.0
3,13.59500002861023,learn,46404.99997138977,Tue Aug 20 2024 17:05:58 GMT-0500 (Central Daylight Time),364455.39999997616,A,goldenter,O,enter,377,1,1015.8999999761581,363439.5,7003,WL,A,7.0
3,13.845999956130981,learn,46154.00004386902,Tue Aug 20 2024 17:05:58 GMT-0500 (Central Daylight Time),364705.5,A,f,O,f,243,1,250.0,364455.5,7003,WL,A,8.0
3,13.946000099182129,learn,46053.99990081787,Tue Aug 20 2024 17:05:58 GMT-0500 (Central Daylight Time),364805.5,A,fi,O,i,80,1,350.0,364455.5,7003,WL,A,8.0
3,14.01200008392334,learn,45987.99991607666,Tue Aug 20 2024 17:05:58 GMT-0500 (Central Daylight Time),364872.0,A,fin,O,n,52,1,416.5,364455.5,7003,WL,A,8.0
3,14.145999908447266,learn,45854.000091552734,Tue Aug 20 2024 17:05:58 GMT-0500 (Central Daylight Time),365005.39999997616,A,fing,O,g,121,1,549.8999999761581,364455.5,7003,WL,A,8.0
3,14.328999996185303,learn,45671.0000038147,Tue Aug 20 2024 17:05:58 GMT-0500 (Central Daylight Time),365188.6999999881,A,finge,O,e,173,1,733.1999999880791,364455.5,7003,WL,A,8.0
3,14.394999980926514,learn,45605.000019073486,Tue Aug 20 2024 17:05:58 GMT-0500 (Central Daylight Time),365255.1999999881,A,finger,O,r,54,1,799.6999999880791,364455.5,7003,WL,A,8.0
3,14.861999988555908,learn,45138.00001144409,Tue Aug 20 2024 17:05:58 GMT-0500 (Central Daylight Time),365721.6999999881,A,fingerenter,O,enter,458,1,1266.199999988079,364455.5,7003,WL,A,8.0
3,15.211999893188477,learn,44788.00010681152,Tue Aug 20 2024 17:05:58 GMT-0500 (Central Daylight Time),366071.5,A,m,O,m,344,1,349.60000002384186,365721.89999997616,7003,WL,A,9.0
3,15.277999877929688,learn,44722.00012207031,Tue Aug 20 2024 17:05:58 GMT-0500 (Central Daylight Time),366138.3000000119,A,me,O,e,59,1,416.4000000357628,365721.89999997616,7003,WL,A,9.0
3,15.411999940872192,learn,44588.00005912781,Tue Aug 20 2024 17:05:58 GMT-0500 (Central Daylight Time),366271.6999999881,A,mea,O,a,119,1,549.8000000119209,365721.89999997616,7003,WL,A,9.0
3,15.644999980926514,learn,44355.000019073486,Tue Aug 20 2024 17:05:58 GMT-0500 (Central Daylight Time),366504.8000000119,A,mead,O,d,218,1,782.9000000357628,365721.89999997616,7003,WL,A,9.0
3,15.795000076293945,learn,44204.999923706055,Tue Aug 20 2024 17:05:58 GMT-0500 (Central Daylight Time),366654.8000000119,A,meado,O,o,130,1,932.9000000357628,365721.89999997616,7003,WL,A,9.0
3,15.894999980926514,learn,44105.000019073486,Tue Aug 20 2024 17:05:58 GMT-0500 (Central Daylight Time),366754.8000000119,A,meadow,O,w,83,1,1032.9000000357628,365721.89999997616,7003,WL,A,9.0
3,16.227999925613403,learn,43772.0000743866,Tue Aug 20 2024 17:05:58 GMT-0500 (Central Daylight Time),367088.0,A,meadowenter,O,enter,320,1,1366.1000000238419,365721.89999997616,7003,WL,A,9.0
3,16.545000076293945,learn,43454.999923706055,Tue Aug 20 2024 17:05:58 GMT-0500 (Central Daylight Time),367404.59999996424,A,f,O,f,307,1,316.19999998807907,367088.39999997616,7003,WL,A,10.0
3,16.67799997329712,learn,43322.00002670288,Tue Aug 20 2024 17:05:58 GMT-0500 (Central Daylight Time),367537.89999997616,A,fl,O,l,118,1,449.5,367088.39999997616,7003,WL,A,10.0
3,16.878000020980835,learn,43121.999979019165,Tue Aug 20 2024 17:05:58 GMT-0500 (Central Daylight Time),367737.89999997616,A,flo,O,o,183,1,649.5,367088.39999997616,7003,WL,A,10.0
3,16.994999885559082,learn,43005.00011444092,Tue Aug 20 2024 17:05:58 GMT-0500 (Central Daylight Time),367854.39999997616,A,flow,O,w,96,1,766.0,367088.39999997616,7003,WL,A,10.0
3,17.060999870300293,learn,42939.00012969971,Tue Aug 20 2024 17:05:58 GMT-0500 (Central Daylight Time),367921.09999996424,A,flowe,O,e,52,1,832.6999999880791,367088.39999997616,7003,WL,A,10.0
3,17.16100001335144,learn,42838.99998664856,Tue Aug 20 2024 17:05:58 GMT-0500 (Central Daylight Time),368021.09999996424,A,flower,O,r,81,1,932.6999999880791,367088.39999997616,7003,WL,A,10.0
3,17.378000020980835,learn,42621.999979019165,Tue Aug 20 2024 17:05:58 GMT-0500 (Central Daylight Time),368237.8000000119,A,flowerenter,O,enter,206,1,1149.4000000357628,367088.39999997616,7003,WL,A,10.0
3,17.727999925613403,learn,42272.0000743866,Tue Aug 20 2024 17:05:58 GMT-0500 (Central Daylight Time),368587.59999996424,A,b,O,b,341,1,349.39999997615814,368238.1999999881,7003,WL,A,11.0
3,17.861000061035156,learn,42138.999938964844,Tue Aug 20 2024 17:05:58 GMT-0500 (Central Daylight Time),368720.89999997616,A,bo,O,o,126,1,482.69999998807907,368238.1999999881,7003,WL,A,11.0
3,18.01099991798401,learn,41989.00008201599,Tue Aug 20 2024 17:05:58 GMT-0500 (Central Daylight Time),368870.8000000119,A,boo,O,o,137,1,632.6000000238419,368238.1999999881,7003,WL,A,11.0
3,18.194000005722046,learn,41805.999994277954,Tue Aug 20 2024 17:05:58 GMT-0500 (Central Daylight Time),369054.0,A,book,O,k,163,1,815.8000000119209,368238.1999999881,7003,WL,A,11.0
3,18.477999925613403,learn,41522.0000743866,Tue Aug 20 2024 17:05:58 GMT-0500 (Central Daylight Time),369337.39999997616,A,bookenter,O,enter,276,1,1099.199999988079,368238.1999999881,7003,WL,A,11.0
3,21.009999990463257,learn,38990.00000953674,Tue Aug 20 2024 17:05:58 GMT-0500 (Central Daylight Time),371869.89999997616,A,k,O,k,2512,1,2532.099999964237,369337.8000000119,7003,WL,A,12.0
3,21.175999879837036,learn,38824.000120162964,Tue Aug 20 2024 17:05:58 GMT-0500 (Central Daylight Time),372036.39999997616,A,ke,O,e,147,1,2698.599999964237,369337.8000000119,7003,WL,A,12.0
3,21.30999994277954,learn,38690.00005722046,Tue Aug 20 2024 17:05:58 GMT-0500 (Central Daylight Time),372169.8000000119,A,key,O,y,117,1,2832.0,369337.8000000119,7003,WL,A,12.0
3,21.609999895095825,learn,38390.000104904175,Tue Aug 20 2024 17:05:58 GMT-0500 (Central Daylight Time),372469.8000000119,A,keyenter,O,enter,288,1,3132.0,369337.8000000119,7003,WL,A,12.0
3,22.259999990463257,learn,37740.00000953674,Tue Aug 20 2024 17:05:58 GMT-0500 (Central Daylight Time),373119.6999999881,A,g,O,g,637,1,649.6999999880791,372470.0,7003,WL,A,13.0
3,22.342999935150146,learn,37657.00006484985,Tue Aug 20 2024 17:05:58 GMT-0500 (Central Daylight Time),373202.6999999881,A,go,O,o,74,1,732.6999999880791,372470.0,7003,WL,A,13.0
3,22.509000062942505,learn,37490.999937057495,Tue Aug 20 2024 17:05:58 GMT-0500 (Central Daylight Time),373369.39999997616,A,gol,O,l,159,1,899.3999999761581,372470.0,7003,WL,A,13.0
3,22.658999919891357,learn,37341.00008010864,Tue Aug 20 2024 17:05:58 GMT-0500 (Central Daylight Time),373519.3000000119,A,gold,O,d,137,1,1049.300000011921,372470.0,7003,WL,A,13.0
3,23.691999912261963,learn,36308.00008773804,Tue Aug 20 2024 17:05:58 GMT-0500 (Central Daylight Time),374552.39999997616,A,gol,O,backspace,1027,1,2082.399999976158,372470.0,7003,WL,A,13.0
3,23.875999927520752,learn,36124.00007247925,Tue Aug 20 2024 17:05:58 GMT-0500 (Central Daylight Time),374735.5,A,go,O,backspace,169,1,2265.5,372470.0,7003,WL,A,13.0
3,24.05900001525879,learn,35940.99998474121,Tue Aug 20 2024 17:05:58 GMT-0500 (Central Daylight Time),374918.8000000119,A,g,O,backspace,171,1,2448.800000011921,372470.0,7003,WL,A,13.0
3,24.20899987220764,learn,35791.00012779236,Tue Aug 20 2024 17:05:58 GMT-0500 (Central Daylight Time),375068.89999997616,A,,O,backspace,138,1,2598.899999976158,372470.0,7003,WL,A,13.0
3,24.325999975204468,learn,35674.00002479553,Tue Aug 20 2024 17:05:58 GMT-0500 (Central Daylight Time),375185.8000000119,A,r,O,r,102,1,2715.800000011921,372470.0,7003,WL,A,13.0
3,24.45899987220764,learn,35541.00012779236,Tue Aug 20 2024 17:05:58 GMT-0500 (Central Daylight Time),375318.89999997616,A,ra,O,a,112,1,2848.899999976158,372470.0,7003,WL,A,13.0
3,24.658999919891357,learn,35341.00008010864,Tue Aug 20 2024 17:05:58 GMT-0500 (Central Daylight Time),375518.6999999881,A,rat,O,t,180,1,3048.699999988079,372470.0,7003,WL,A,13.0
3,24.759000062942505,learn,35240.999937057495,Tue Aug 20 2024 17:05:58 GMT-0500 (Central Daylight Time),375618.8000000119,A,ratt,O,t,83,1,3148.800000011921,372470.0,7003,WL,A,13.0
3,24.941999912261963,learn,35058.00008773804,Tue Aug 20 2024 17:05:58 GMT-0500 (Central Daylight Time),375801.89999997616,A,rattl,O,l,176,1,3331.899999976158,372470.0,7003,WL,A,13.0
3,25.174999952316284,learn,34825.000047683716,Tue Aug 20 2024 17:05:58 GMT-0500 (Central Daylight Time),376035.3000000119,A,rattle,O,e,216,1,3565.300000011921,372470.0,7003,WL,A,13.0
3,25.424999952316284,learn,34575.000047683716,Tue Aug 20 2024 17:05:58 GMT-0500 (Central Daylight Time),376285.1999999881,A,rattleenter,O,enter,238,1,3815.199999988079,372470.0,7003,WL,A,13.0
3,26.54200005531311,learn,33457.99994468689,Tue Aug 20 2024 17:05:58 GMT-0500 (Central Daylight Time),377401.59999996424,A,g,O,g,1109,1,1116.0999999642372,376285.5,7003,WL,A,14.0
3,26.674999952316284,learn,33325.000047683716,Tue Aug 20 2024 17:05:58 GMT-0500 (Central Daylight Time),377534.6999999881,A,go,O,o,112,1,1249.199999988079,376285.5,7003,WL,A,14.0
3,26.89199995994568,learn,33108.00004005432,Tue Aug 20 2024 17:05:58 GMT-0500 (Central Daylight Time),377751.5,A,gol,O,l,203,1,1466.0,376285.5,7003,WL,A,14.0
3,27.10800004005432,learn,32891.99995994568,Tue Aug 20 2024 17:05:58 GMT-0500 (Central Daylight Time),377968.0,A,gold,O,d,203,1,1682.5,376285.5,7003,WL,A,14.0
3,28.473999977111816,learn,31526.000022888184,Tue Aug 20 2024 17:05:58 GMT-0500 (Central Daylight Time),379334.3000000119,A,gol,O,backspace,1355,1,3048.800000011921,376285.5,7003,WL,A,14.0
3,28.674000024795532,learn,31325.999975204468,Tue Aug 20 2024 17:05:58 GMT-0500 (Central Daylight Time),379534.1999999881,A,go,O,backspace,179,1,3248.699999988079,376285.5,7003,WL,A,14.0
3,28.841000080108643,learn,31158.999919891357,Tue Aug 20 2024 17:05:58 GMT-0500 (Central Daylight Time),379700.8000000119,A,g,O,backspace,156,1,3415.300000011921,376285.5,7003,WL,A,14.0
3,29.006999969482422,learn,30993.000030517578,Tue Aug 20 2024 17:05:58 GMT-0500 (Central Daylight Time),379867.39999997616,A,,O,backspace,149,1,3581.899999976158,376285.5,7003,WL,A,14.0
3,29.240999937057495,learn,30759.000062942505,Tue Aug 20 2024 17:05:58 GMT-0500 (Central Daylight Time),380100.89999997616,A,l,O,l,223,1,3815.399999976158,376285.5,7003,WL,A,14.0
3,29.44099998474121,learn,30559.00001525879,Tue Aug 20 2024 17:05:58 GMT-0500 (Central Daylight Time),380300.6999999881,A,lo,O,o,189,1,4015.199999988079,376285.5,7003,WL,A,14.0
3,29.5239999294281,learn,30476.0000705719,Tue Aug 20 2024 17:05:58 GMT-0500 (Central Daylight Time),380384.09999996424,A,log,O,g,70,1,4098.599999964237,376285.5,7003,WL,A,14.0
3,29.756999969482422,learn,30243.000030517578,Tue Aug 20 2024 17:05:58 GMT-0500 (Central Daylight Time),380617.1999999881,A,logenter,O,enter,227,1,4331.699999988079,376285.5,7003,WL,A,14.0
3,30.207000017166138,learn,29792.999982833862,Tue Aug 20 2024 17:05:58 GMT-0500 (Central Daylight Time),381067.09999996424,A,g,O,g,442,1,449.69999998807907,380617.39999997616,7003,WL,A,15.0
3,30.306999921798706,learn,29693.000078201294,Tue Aug 20 2024 17:05:58 GMT-0500 (Central Daylight Time),381167.0,A,go,O,o,95,1,549.6000000238419,380617.39999997616,7003,WL,A,15.0
3,30.506999969482422,learn,29493.000030517578,Tue Aug 20 2024 17:05:58 GMT-0500 (Central Daylight Time),381367.0,A,gol,O,l,187,1,749.6000000238419,380617.39999997616,7003,WL,A,15.0
3,30.657000064849854,learn,29342.999935150146,Tue Aug 20 2024 17:05:58 GMT-0500 (Central Daylight Time),381516.89999997616,A,gold,O,d,130,1,899.5,380617.39999997616,7003,WL,A,15.0
3,30.83999991416931,learn,29160.00008583069,Tue Aug 20 2024 17:05:58 GMT-0500 (Central Daylight Time),381700.3000000119,A,goldenter,O,enter,174,1,1082.9000000357628,380617.39999997616,7003,WL,A,15.0
4,0.5160000324249268,learn,59483.99996757507,Tue Aug 20 2024 17:05:58 GMT-0500 (Central Daylight Time),446346.5,A,g,O,g,509,1,516.3000000119209,445830.1999999881,7003,WL,A,1.0
4,0.6499998569488525,learn,59350.00014305115,Tue Aug 20 2024 17:05:58 GMT-0500 (Central Daylight Time),446479.8000000119,A,go,O,o,119,1,649.6000000238419,445830.1999999881,7003,WL,A,1.0
4,0.8329999446868896,learn,59167.00005531311,Tue Aug 20 2024 17:05:58 GMT-0500 (Central Daylight Time),446663.09999996424,A,gol,O,l,179,1,832.8999999761581,445830.1999999881,7003,WL,A,1.0
4,0.9159998893737793,learn,59084.00011062622,Tue Aug 20 2024 17:05:58 GMT-0500 (Central Daylight Time),446746.5,A,gold,O,d,67,1,916.3000000119209,445830.1999999881,7003,WL,A,1.0
4,1.315999984741211,learn,58684.00001525879,Tue Aug 20 2024 17:05:58 GMT-0500 (Central Daylight Time),447146.1999999881,A,goldenter,O,enter,384,1,1316.0,445830.1999999881,7003,WL,A,1.0
4,1.6329998970031738,learn,58367.000102996826,Tue Aug 20 2024 17:05:58 GMT-0500 (Central Daylight Time),447462.89999997616,A,k,O,k,312,1,316.39999997615814,447146.5,7003,WL,A,2.0
4,1.7820000648498535,learn,58217.99993515015,Tue Aug 20 2024 17:05:58 GMT-0500 (Central Daylight Time),447612.6999999881,A,ke,O,e,131,1,466.19999998807907,447146.5,7003,WL,A,2.0
4,1.932999849319458,learn,58067.00015068054,Tue Aug 20 2024 17:05:58 GMT-0500 (Central Daylight Time),447762.8000000119,A,key,O,y,133,1,616.3000000119209,447146.5,7003,WL,A,2.0
4,2.434000015258789,learn,57565.99998474121,Tue Aug 20 2024 17:05:58 GMT-0500 (Central Daylight Time),448263.8000000119,A,keyenter,O,enter,487,1,1117.300000011921,447146.5,7003,WL,A,2.0
4,2.7159998416900635,learn,57284.00015830994,Tue Aug 20 2024 17:05:58 GMT-0500 (Central Daylight Time),448545.89999997616,A,r,O,r,266,1,281.89999997615814,448264.0,7003,WL,A,3.0
4,2.8489999771118164,learn,57151.00002288818,Tue Aug 20 2024 17:05:58 GMT-0500 (Central Daylight Time),448679.09999996424,A,ra,O,a,129,1,415.0999999642372,448264.0,7003,WL,A,3.0
4,3.0320000648498535,learn,56967.99993515015,Tue Aug 20 2024 17:05:58 GMT-0500 (Central Daylight Time),448862.39999997616,A,rat,O,t,171,1,598.3999999761581,448264.0,7003,WL,A,3.0
4,3.181999921798706,learn,56818.000078201294,Tue Aug 20 2024 17:05:58 GMT-0500 (Central Daylight Time),449012.5,A,ratt,O,t,132,1,748.5,448264.0,7003,WL,A,3.0
4,3.3320000171661377,learn,56667.99998283386,Tue Aug 20 2024 17:05:58 GMT-0500 (Central Daylight Time),449162.39999997616,A,rattl,O,l,142,1,898.3999999761581,448264.0,7003,WL,A,3.0
4,3.4489998817443848,learn,56551.000118255615,Tue Aug 20 2024 17:05:58 GMT-0500 (Central Daylight Time),449279.0,A,rattle,O,e,103,1,1015.0,448264.0,7003,WL,A,3.0
4,3.748999834060669,learn,56251.00016593933,Tue Aug 20 2024 17:05:58 GMT-0500 (Central Daylight Time),449578.8000000119,A,rattleenter,O,enter,282,1,1314.800000011921,448264.0,7003,WL,A,3.0
4,4.315000057220459,learn,55684.99994277954,Tue Aug 20 2024 17:05:58 GMT-0500 (Central Daylight Time),450145.39999997616,A,b,O,b,560,1,566.3999999761581,449579.0,7003,WL,A,4.0
4,4.431999921798706,learn,55568.000078201294,Tue Aug 20 2024 17:05:58 GMT-0500 (Central Daylight Time),450261.89999997616,A,bo,O,o,105,1,682.8999999761581,449579.0,7003,WL,A,4.0
4,4.582000017166138,learn,55417.99998283386,Tue Aug 20 2024 17:05:58 GMT-0500 (Central Daylight Time),450411.89999997616,A,boo,O,o,132,1,832.8999999761581,449579.0,7003,WL,A,4.0
4,4.764999866485596,learn,55235.000133514404,Tue Aug 20 2024 17:05:58 GMT-0500 (Central Daylight Time),450595.5,A,book,O,k,167,1,1016.5,449579.0,7003,WL,A,4.0
4,5.264999866485596,learn,54735.000133514404,Tue Aug 20 2024 17:05:58 GMT-0500 (Central Daylight Time),451094.89999997616,A,bookenter,O,enter,479,1,1515.8999999761581,449579.0,7003,WL,A,4.0
4,5.5320000648498535,learn,54467.99993515015,Tue Aug 20 2024 17:05:58 GMT-0500 (Central Daylight Time),451361.6999999881,A,f,O,f,251,1,266.5,451095.1999999881,7003,WL,A,5.0
4,5.615000009536743,learn,54384.99999046326,Tue Aug 20 2024 17:05:58 GMT-0500 (Central Daylight Time),451444.89999997616,A,fl,O,l,73,1,349.69999998807907,451095.1999999881,7003,WL,A,5.0
4,5.797999858856201,learn,54202.0001411438,Tue Aug 20 2024 17:05:58 GMT-0500 (Central Daylight Time),451628.3000000119,A,flo,O,o,174,1,533.1000000238419,451095.1999999881,7003,WL,A,5.0
4,5.914999961853027,learn,54085.00003814697,Tue Aug 20 2024 17:05:58 GMT-0500 (Central Daylight Time),451744.8000000119,A,flow,O,w,109,1,649.6000000238419,451095.1999999881,7003,WL,A,5.0
4,5.9649999141693115,learn,54035.00008583069,Tue Aug 20 2024 17:05:58 GMT-0500 (Central Daylight Time),451794.89999997616,A,flowe,O,e,42,1,699.6999999880791,451095.1999999881,7003,WL,A,5.0
4,6.063999891281128,learn,53936.00010871887,Tue Aug 20 2024 17:05:58 GMT-0500 (Central Daylight Time),451894.59999996424,A,flower,O,r,95,1,799.3999999761581,451095.1999999881,7003,WL,A,5.0
4,6.363999843597412,learn,53636.00015640259,Tue Aug 20 2024 17:05:58 GMT-0500 (Central Daylight Time),452194.59999996424,A,flowerenter,O,enter,292,1,1099.3999999761581,451095.1999999881,7003,WL,A,5.0
4,6.648000001907349,learn,53351.99999809265,Tue Aug 20 2024 17:05:58 GMT-0500 (Central Daylight Time),452477.89999997616,A,m,O,m,263,1,283.0,452194.89999997616,7003,WL,A,6.0
4,6.697999954223633,learn,53302.00004577637,Tue Aug 20 2024 17:05:58 GMT-0500 (Central Daylight Time),452527.8000000119,A,me,O,e,37,1,332.9000000357628,452194.89999997616,7003,WL,A,6.0
4,6.813999891281128,learn,53186.00010871887,Tue Aug 20 2024 17:05:58 GMT-0500 (Central Daylight Time),452644.5,A,mea,O,a,99,1,449.60000002384186,452194.89999997616,7003,WL,A,6.0
4,6.996999979019165,learn,53003.000020980835,Tue Aug 20 2024 17:05:58 GMT-0500 (Central Daylight Time),452827.6999999881,A,mead,O,d,174,1,632.8000000119209,452194.89999997616,7003,WL,A,6.0
4,7.13100004196167,learn,52868.99995803833,Tue Aug 20 2024 17:05:58 GMT-0500 (Central Daylight Time),452961.1999999881,A,meado,O,o,127,1,766.3000000119209,452194.89999997616,7003,WL,A,6.0
4,7.246999979019165,learn,52753.000020980835,Tue Aug 20 2024 17:05:58 GMT-0500 (Central Daylight Time),453077.6999999881,A,meadow,O,w,96,1,882.8000000119209,452194.89999997616,7003,WL,A,6.0
4,7.497999906539917,learn,52502.00009346008,Tue Aug 20 2024 17:05:58 GMT-0500 (Central Daylight Time),453328.59999996424,A,meadowenter,O,enter,244,1,1133.699999988079,452194.89999997616,7003,WL,A,6.0
4,7.930999994277954,learn,52069.000005722046,Tue Aug 20 2024 17:05:58 GMT-0500 (Central Daylight Time),453760.8000000119,A,t,O,t,418,1,431.80000001192093,453329.0,7003,WL,A,7.0
4,8.164000034332275,learn,51835.999965667725,Tue Aug 20 2024 17:05:58 GMT-0500 (Central Daylight Time),453993.89999997616,A,tr,O,r,218,1,664.8999999761581,453329.0,7003,WL,A,7.0
4,8.263999938964844,learn,51736.000061035156,Tue Aug 20 2024 17:05:58 GMT-0500 (Central Daylight Time),454094.09999996424,A,tra,O,a,89,1,765.0999999642372,453329.0,7003,WL,A,7.0
4,8.396999835968018,learn,51603.00016403198,Tue Aug 20 2024 17:05:58 GMT-0500 (Central Daylight Time),454227.39999997616,A,trai,O,i,116,1,898.3999999761581,453329.0,7003,WL,A,7.0
4,8.46399998664856,learn,51536.00001335144,Tue Aug 20 2024 17:05:58 GMT-0500 (Central Daylight Time),454294.0,A,train,O,n,55,1,965.0,453329.0,7003,WL,A,7.0
4,8.77999997138977,learn,51220.00002861023,Tue Aug 20 2024 17:05:58 GMT-0500 (Central Daylight Time),454610.6999999881,A,trainenter,O,enter,300,1,1281.699999988079,453329.0,7003,WL,A,7.0
4,9.27999997138977,learn,50720.00002861023,Tue Aug 20 2024 17:05:58 GMT-0500 (Central Daylight Time),455110.5,A,r,O,r,488,1,499.5,454611.0,7003,WL,A,8.0
4,9.430000066757202,learn,50569.9999332428,Tue Aug 20 2024 17:05:58 GMT-0500 (Central Daylight Time),455260.6999999881,A,ru,O,u,140,1,649.6999999880791,454611.0,7003,WL,A,8.0
4,9.579999923706055,learn,50420.000076293945,Tue Aug 20 2024 17:05:58 GMT-0500 (Central Daylight Time),455410.39999997616,A,rug,O,g,133,1,799.3999999761581,454611.0,7003,WL,A,8.0
4,11.013000011444092,learn,48986.99998855591,Tue Aug 20 2024 17:05:58 GMT-0500 (Central Daylight Time),456843.3000000119,A,rugenter,O,enter,1416,1,2232.300000011921,454611.0,7003,WL,A,8.0
4,11.412999868392944,learn,48587.000131607056,Tue Aug 20 2024 17:05:58 GMT-0500 (Central Daylight Time),457243.1999999881,A,c,O,c,392,1,399.60000002384186,456843.59999996424,7003,WL,A,9.0
4,11.496000051498413,learn,48503.99994850159,Tue Aug 20 2024 17:05:58 GMT-0500 (Central Daylight Time),457326.5,A,ch,O,h,62,1,482.9000000357628,456843.59999996424,7003,WL,A,9.0
4,11.628999948501587,learn,48371.00005149841,Tue Aug 20 2024 17:05:58 GMT-0500 (Central Daylight Time),457459.59999996424,A,che,O,e,115,1,616.0,456843.59999996424,7003,WL,A,9.0
4,12.11299991607666,learn,47887.00008392334,Tue Aug 20 2024 17:05:58 GMT-0500 (Central Daylight Time),457942.8000000119,A,ch,O,backspace,463,1,1099.2000000476837,456843.59999996424,7003,WL,A,9.0
4,12.396999835968018,learn,47603.00016403198,Tue Aug 20 2024 17:05:58 GMT-0500 (Central Daylight Time),458227.39999997616,A,chi,O,i,276,1,1383.800000011921,456843.59999996424,7003,WL,A,9.0
4,12.595999956130981,learn,47404.00004386902,Tue Aug 20 2024 17:05:58 GMT-0500 (Central Daylight Time),458426.1999999881,A,chim,O,m,191,1,1582.6000000238419,456843.59999996424,7003,WL,A,9.0
4,12.94599986076355,learn,47054.00013923645,Tue Aug 20 2024 17:05:58 GMT-0500 (Central Daylight Time),458775.8000000119,A,chimn,O,n,336,1,1932.2000000476837,456843.59999996424,7003,WL,A,9.0
4,13.11299991607666,learn,46887.00008392334,Tue Aug 20 2024 17:05:58 GMT-0500 (Central Daylight Time),458942.6999999881,A,chimne,O,e,146,1,2099.100000023842,456843.59999996424,7003,WL,A,9.0
4,13.26199984550476,learn,46738.00015449524,Tue Aug 20 2024 17:05:58 GMT-0500 (Central Daylight Time),459092.59999996424,A,chimney,O,y,130,1,2249.0,456843.59999996424,7003,WL,A,9.0
4,13.546000003814697,learn,46453.9999961853,Tue Aug 20 2024 17:05:58 GMT-0500 (Central Daylight Time),459375.6999999881,A,chimneyenter,O,enter,277,1,2532.100000023842,456843.59999996424,7003,WL,A,9.0
4,13.861999988555908,learn,46138.00001144409,Tue Aug 20 2024 17:05:58 GMT-0500 (Central Daylight Time),459692.1999999881,A,a,O,a,307,1,316.30000001192093,459375.89999997616,7003,WL,A,10.0
4,14.111999988555908,learn,45888.00001144409,Tue Aug 20 2024 17:05:58 GMT-0500 (Central Daylight Time),459942.59999996424,A,ap,O,p,238,1,566.6999999880791,459375.89999997616,7003,WL,A,10.0
4,14.678999900817871,learn,45321.00009918213,Tue Aug 20 2024 17:05:58 GMT-0500 (Central Daylight Time),460508.8000000119,A,app,O,p,548,1,1132.9000000357628,459375.89999997616,7003,WL,A,10.0
4,14.878999948501587,learn,45121.00005149841,Tue Aug 20 2024 17:05:58 GMT-0500 (Central Daylight Time),460708.8000000119,A,appl,O,l,190,1,1332.9000000357628,459375.89999997616,7003,WL,A,10.0
4,15.044999837875366,learn,44955.000162124634,Tue Aug 20 2024 17:05:58 GMT-0500 (Central Daylight Time),460875.39999997616,A,apple,O,e,150,1,1499.5,459375.89999997616,7003,WL,A,10.0
4,15.32800006866455,learn,44671.99993133545,Tue Aug 20 2024 17:05:58 GMT-0500 (Central Daylight Time),461158.59999996424,A,appleenter,O,enter,262,1,1782.699999988079,459375.89999997616,7003,WL,A,10.0
4,15.51199984550476,learn,44488.00015449524,Tue Aug 20 2024 17:05:58 GMT-0500 (Central Daylight Time),461342.0,A,f,O,f,163,1,183.0,461159.0,7003,WL,A,11.0
4,15.611999988555908,learn,44388.00001144409,Tue Aug 20 2024 17:05:58 GMT-0500 (Central Daylight Time),461441.8000000119,A,fi,O,i,84,1,282.80000001192093,461159.0,7003,WL,A,11.0
4,15.67799997329712,learn,44322.00002670288,Tue Aug 20 2024 17:05:58 GMT-0500 (Central Daylight Time),461508.59999996424,A,fin,O,n,57,1,349.5999999642372,461159.0,7003,WL,A,11.0
4,16.060999870300293,learn,43939.00012969971,Tue Aug 20 2024 17:05:58 GMT-0500 (Central Daylight Time),461891.6999999881,A,fing,O,g,366,1,732.6999999880791,461159.0,7003,WL,A,11.0
4,16.411999940872192,learn,43588.00005912781,Tue Aug 20 2024 17:05:58 GMT-0500 (Central Daylight Time),462241.89999997616,A,finge,O,e,335,1,1082.8999999761581,461159.0,7003,WL,A,11.0
4,16.477999925613403,learn,43522.0000743866,Tue Aug 20 2024 17:05:58 GMT-0500 (Central Daylight Time),462308.3000000119,A,finger,O,r,48,1,1149.300000011921,461159.0,7003,WL,A,11.0
4,16.84500002861023,learn,43154.99997138977,Tue Aug 20 2024 17:05:58 GMT-0500 (Central Daylight Time),462674.6999999881,A,fingerenter,O,enter,358,1,1515.699999988079,461159.0,7003,WL,A,11.0
4,17.24399995803833,learn,42756.00004196167,Tue Aug 20 2024 17:05:58 GMT-0500 (Central Daylight Time),463074.6999999881,A,r,O,r,391,1,399.69999998807907,462675.0,7003,WL,A,12.0
4,17.42799997329712,learn,42572.00002670288,Tue Aug 20 2024 17:05:58 GMT-0500 (Central Daylight Time),463257.8000000119,A,ru,O,u,167,1,582.8000000119209,462675.0,7003,WL,A,12.0
4,17.66100001335144,learn,42338.99998664856,Tue Aug 20 2024 17:05:58 GMT-0500 (Central Daylight Time),463491.1999999881,A,rug,O,g,225,1,816.1999999880791,462675.0,7003,WL,A,12.0
4,18.177000045776367,learn,41822.99995422363,Tue Aug 20 2024 17:05:58 GMT-0500 (Central Daylight Time),464007.39999997616,A,rugenter,O,enter,510,1,1332.3999999761581,462675.0,7003,WL,A,12.0
4,18.47699999809265,learn,41523.00000190735,Tue Aug 20 2024 17:05:58 GMT-0500 (Central Daylight Time),464307.39999997616,A,s,O,s,290,1,299.80000001192093,464007.59999996424,7003,WL,A,13.0
4,18.626999855041504,learn,41373.000144958496,Tue Aug 20 2024 17:05:58 GMT-0500 (Central Daylight Time),464457.3000000119,A,sa,O,a,134,1,449.7000000476837,464007.59999996424,7003,WL,A,13.0
4,18.72699999809265,learn,41273.00000190735,Tue Aug 20 2024 17:05:58 GMT-0500 (Central Daylight Time),464557.09999996424,A,sal,O,l,80,1,549.5,464007.59999996424,7003,WL,A,13.0
4,18.876999855041504,learn,41123.000144958496,Tue Aug 20 2024 17:05:58 GMT-0500 (Central Daylight Time),464707.39999997616,A,salt,O,t,140,1,699.8000000119209,464007.59999996424,7003,WL,A,13.0
4,19.126999855041504,learn,40873.000144958496,Tue Aug 20 2024 17:05:58 GMT-0500 (Central Daylight Time),464957.39999997616,A,saltenter,O,enter,230,1,949.8000000119209,464007.59999996424,7003,WL,A,13.0
4,27.10800004005432,learn,32891.99995994568,Tue Aug 20 2024 17:05:58 GMT-0500 (Central Daylight Time),472938.09999996424,A,h,O,h,7965,1,7980.399999976158,464957.6999999881,7003,WL,A,14.0
4,27.174999952316284,learn,32825.000047683716,Tue Aug 20 2024 17:05:58 GMT-0500 (Central Daylight Time),473004.6999999881,A,ha,O,a,48,1,8047.0,464957.6999999881,7003,WL,A,14.0
4,27.240999937057495,learn,32759.000062942505,Tue Aug 20 2024 17:05:58 GMT-0500 (Central Daylight Time),473071.59999996424,A,har,O,r,54,1,8113.899999976158,464957.6999999881,7003,WL,A,14.0
4,27.657999992370605,learn,32342.000007629395,Tue Aug 20 2024 17:05:58 GMT-0500 (Central Daylight Time),473488.0,A,harp,O,p,402,1,8530.300000011921,464957.6999999881,7003,WL,A,14.0
4,27.97499990463257,learn,32025.00009536743,Tue Aug 20 2024 17:05:58 GMT-0500 (Central Daylight Time),473804.89999997616,A,harpenter,O,enter,297,1,8847.199999988079,464957.6999999881,7003,WL,A,14.0
4,29.94000005722046,learn,30059.99994277954,Tue Aug 20 2024 17:05:58 GMT-0500 (Central Daylight Time),475770.3000000119,A,l,O,l,1957,1,1965.1000000238419,473805.1999999881,7003,WL,A,15.0
4,30.139999866485596,learn,29860.000133514404,Tue Aug 20 2024 17:05:58 GMT-0500 (Central Daylight Time),475970.39999997616,A,lo,O,o,192,1,2165.199999988079,473805.1999999881,7003,WL,A,15.0
4,30.174000024795532,learn,29825.999975204468,Tue Aug 20 2024 17:05:58 GMT-0500 (Central Daylight Time),476003.6999999881,A,log,O,g,23,1,2198.5,473805.1999999881,7003,WL,A,15.0
4,30.77300000190735,learn,29226.99999809265,Tue Aug 20 2024 17:05:58 GMT-0500 (Central Daylight Time),476603.5,A,logenter,O,enter,591,1,2798.300000011921,473805.1999999881,7003,WL,A,15.0
5,0.5829999446868896,learn,60000.0,Tue Aug 20 2024 17:05:58 GMT-0500 (Central Daylight Time),541133.8999999762,A,g,O,g,573,1,583.3999999761581,540550.5,7003,WL,A,1.0
5,0.7170000076293945,learn,60000.0,Tue Aug 20 2024 17:05:58 GMT-0500 (Central Daylight Time),541267.0,A,go,O,o,125,1,716.5,540550.5,7003,WL,A,1.0
5,0.9159998893737793,learn,60000.0,Tue Aug 20 2024 17:05:58 GMT-0500 (Central Daylight Time),541466.6999999881,A,gol,O,l,183,1,916.1999999880791,540550.5,7003,WL,A,1.0
5,1.0,learn,60000.0,Tue Aug 20 2024 17:05:58 GMT-0500 (Central Daylight Time),541550.0,A,gold,O,d,71,1,999.5,540550.5,7003,WL,A,1.0
5,1.2159998416900635,learn,60000.0,Tue Aug 20 2024 17:05:58 GMT-0500 (Central Daylight Time),541766.5999999642,A,goldenter,O,enter,205,1,1216.0999999642372,540550.5,7003,WL,A,1.0
5,1.5160000324249268,learn,60000.0,Tue Aug 20 2024 17:05:58 GMT-0500 (Central Daylight Time),542066.5999999642,A,k,O,k,292,1,299.5999999642372,541767.0,7003,WL,A,2.0
5,1.6159999370574951,learn,60000.0,Tue Aug 20 2024 17:05:58 GMT-0500 (Central Daylight Time),542166.5,A,ke,O,e,79,1,399.5,541767.0,7003,WL,A,2.0
5,1.7829999923706055,learn,60000.0,Tue Aug 20 2024 17:05:58 GMT-0500 (Central Daylight Time),542333.1999999881,A,key,O,y,148,1,566.1999999880791,541767.0,7003,WL,A,2.0
5,2.381999969482422,learn,60000.0,Tue Aug 20 2024 17:05:58 GMT-0500 (Central Daylight Time),542932.8000000119,A,keyenter,O,enter,589,1,1165.800000011921,541767.0,7003,WL,A,2.0
5,2.631999969482422,learn,60000.0,Tue Aug 20 2024 17:05:58 GMT-0500 (Central Daylight Time),543182.8999999762,A,r,O,r,237,1,249.69999998807907,542933.1999999881,7003,WL,A,3.0
5,2.7819998264312744,learn,60000.0,Tue Aug 20 2024 17:05:58 GMT-0500 (Central Daylight Time),543332.8000000119,A,ra,O,a,140,1,399.60000002384186,542933.1999999881,7003,WL,A,3.0
5,2.9159998893737793,learn,60000.0,Tue Aug 20 2024 17:05:58 GMT-0500 (Central Daylight Time),543466.0999999642,A,rat,O,t,126,1,532.8999999761581,542933.1999999881,7003,WL,A,3.0
5,3.0820000171661377,learn,60000.0,Tue Aug 20 2024 17:05:58 GMT-0500 (Central Daylight Time),543632.6999999881,A,ratt,O,t,152,1,699.5,542933.1999999881,7003,WL,A,3.0
5,3.2319998741149902,learn,60000.0,Tue Aug 20 2024 17:05:58 GMT-0500 (Central Daylight Time),543782.6999999881,A,rattl,O,l,129,1,849.5,542933.1999999881,7003,WL,A,3.0
5,3.3320000171661377,learn,60000.0,Tue Aug 20 2024 17:05:58 GMT-0500 (Central Daylight Time),543882.6999999881,A,rattle,O,e,83,1,949.5,542933.1999999881,7003,WL,A,3.0
5,4.681999921798706,learn,60000.0,Tue Aug 20 2024 17:05:58 GMT-0500 (Central Daylight Time),545232.3000000119,A,rattleenter,O,enter,1336,1,2299.100000023842,542933.1999999881,7003,WL,A,3.0
5,4.931999921798706,learn,60000.0,Tue Aug 20 2024 17:05:58 GMT-0500 (Central Daylight Time),545482.0,A,h,O,h,234,1,249.30000001192093,545232.6999999881,7003,WL,A,4.0
5,4.998999834060669,learn,60000.0,Tue Aug 20 2024 17:05:58 GMT-0500 (Central Daylight Time),545548.8999999762,A,ha,O,a,56,1,316.19999998807907,545232.6999999881,7003,WL,A,4.0
5,5.247999906539917,learn,60000.0,Tue Aug 20 2024 17:05:58 GMT-0500 (Central Daylight Time),545798.6999999881,A,har,O,r,245,1,566.0,545232.6999999881,7003,WL,A,4.0
5,5.5309998989105225,learn,60000.0,Tue Aug 20 2024 17:05:58 GMT-0500 (Central Daylight Time),546081.8999999762,A,harp,O,p,268,1,849.1999999880791,545232.6999999881,7003,WL,A,4.0
5,6.06499981880188,learn,60000.0,Tue Aug 20 2024 17:05:58 GMT-0500 (Central Daylight Time),546614.8999999762,A,harpenter,O,enter,521,1,1382.199999988079,545232.6999999881,7003,WL,A,4.0
5,7.447999954223633,learn,60000.0,Tue Aug 20 2024 17:05:58 GMT-0500 (Central Daylight Time),547998.0,A,c,O,c,1363,1,1382.699999988079,546615.3000000119,7003,WL,A,5.0
5,7.5309998989105225,learn,60000.0,Tue Aug 20 2024 17:05:58 GMT-0500 (Central Daylight Time),548081.3000000119,A,ch,O,h,69,1,1466.0,546615.3000000119,7003,WL,A,5.0
5,7.680999994277954,learn,60000.0,Tue Aug 20 2024 17:05:58 GMT-0500 (Central Daylight Time),548231.1999999881,A,chi,O,i,146,1,1615.8999999761581,546615.3000000119,7003,WL,A,5.0
5,7.846999883651733,learn,60000.0,Tue Aug 20 2024 17:05:58 GMT-0500 (Central Daylight Time),548397.8000000119,A,chim,O,m,147,1,1782.5,546615.3000000119,7003,WL,A,5.0
5,8.330999851226807,learn,60000.0,Tue Aug 20 2024 17:05:58 GMT-0500 (Central Daylight Time),548881.0,A,chimn,O,n,469,1,2265.699999988079,546615.3000000119,7003,WL,A,5.0
5,8.44700002670288,learn,60000.0,Tue Aug 20 2024 17:05:58 GMT-0500 (Central Daylight Time),548997.6999999881,A,chimne,O,e,105,1,2382.399999976158,546615.3000000119,7003,WL,A,5.0
5,8.596999883651733,learn,60000.0,Tue Aug 20 2024 17:05:58 GMT-0500 (Central Daylight Time),549147.6999999881,A,chimney,O,y,141,1,2532.399999976158,546615.3000000119,7003,WL,A,5.0
5,8.829999923706055,learn,60000.0,Tue Aug 20 2024 17:05:58 GMT-0500 (Central Daylight Time),549380.8000000119,A,chimneyenter,O,enter,222,1,2765.5,546615.3000000119,7003,WL,A,5.0
5,9.04699993133545,learn,60000.0,Tue Aug 20 2024 17:05:58 GMT-0500 (Central Daylight Time),549597.5,A,l,O,l,205,1,216.4000000357628,549381.0999999642,7003,WL,A,6.0
5,9.246999979019165,learn,60000.0,Tue Aug 20 2024 17:05:58 GMT-0500 (Central Daylight Time),549797.3999999762,A,lo,O,o,180,1,416.30000001192093,549381.0999999642,7003,WL,A,6.0
5,9.313999891281128,learn,60000.0,Tue Aug 20 2024 17:05:58 GMT-0500 (Central Daylight Time),549864.1999999881,A,log,O,g,53,1,483.10000002384186,549381.0999999642,7003,WL,A,6.0
5,9.812999963760376,learn,60000.0,Tue Aug 20 2024 17:05:58 GMT-0500 (Central Daylight Time),550363.8000000119,A,logenter,O,enter,482,1,982.7000000476837,549381.0999999642,7003,WL,A,6.0
5,10.29699993133545,learn,60000.0,Tue Aug 20 2024 17:05:58 GMT-0500 (Central Daylight Time),550847.0,A,b,O,b,463,1,482.9000000357628,550364.0999999642,7003,WL,A,7.0
5,10.462999820709229,learn,60000.0,Tue Aug 20 2024 17:05:58 GMT-0500 (Central Daylight Time),551013.8999999762,A,bo,O,o,148,1,649.8000000119209,550364.0999999642,7003,WL,A,7.0
5,10.61299991607666,learn,60000.0,Tue Aug 20 2024 17:05:58 GMT-0500 (Central Daylight Time),551163.5999999642,A,boo,O,o,133,1,799.5,550364.0999999642,7003,WL,A,7.0
5,10.77999997138977,learn,60000.0,Tue Aug 20 2024 17:05:58 GMT-0500 (Central Daylight Time),551330.1999999881,A,book,O,k,159,1,966.1000000238419,550364.0999999642,7003,WL,A,7.0
5,11.02999997138977,learn,60000.0,Tue Aug 20 2024 17:05:58 GMT-0500 (Central Daylight Time),551580.1999999881,A,bookenter,O,enter,241,1,1216.1000000238419,550364.0999999642,7003,WL,A,7.0
5,11.245999813079834,learn,60000.0,Tue Aug 20 2024 17:05:58 GMT-0500 (Central Daylight Time),551796.6999999881,A,f,O,f,197,1,216.19999998807907,551580.5,7003,WL,A,8.0
5,11.329999923706055,learn,60000.0,Tue Aug 20 2024 17:05:58 GMT-0500 (Central Daylight Time),551880.0999999642,A,fl,O,l,78,1,299.5999999642372,551580.5,7003,WL,A,8.0
5,11.513000011444092,learn,60000.0,Tue Aug 20 2024 17:05:58 GMT-0500 (Central Daylight Time),552063.0999999642,A,flo,O,o,178,1,482.5999999642372,551580.5,7003,WL,A,8.0
5,11.61299991607666,learn,60000.0,Tue Aug 20 2024 17:05:58 GMT-0500 (Central Daylight Time),552163.3999999762,A,flow,O,w,84,1,582.8999999761581,551580.5,7003,WL,A,8.0
5,11.679999828338623,learn,60000.0,Tue Aug 20 2024 17:05:58 GMT-0500 (Central Daylight Time),552230.1999999881,A,flowe,O,e,46,1,649.6999999880791,551580.5,7003,WL,A,8.0
5,11.77999997138977,learn,60000.0,Tue Aug 20 2024 17:05:58 GMT-0500 (Central Daylight Time),552329.8999999762,A,flower,O,r,91,1,749.3999999761581,551580.5,7003,WL,A,8.0
5,11.978999853134155,learn,60000.0,Tue Aug 20 2024 17:05:58 GMT-0500 (Central Daylight Time),552529.8000000119,A,flowerenter,O,enter,185,1,949.3000000119209,551580.5,7003,WL,A,8.0
5,12.245999813079834,learn,60000.0,Tue Aug 20 2024 17:05:58 GMT-0500 (Central Daylight Time),552796.6999999881,A,m,O,m,255,1,266.60000002384186,552530.0999999642,7003,WL,A,9.0
5,12.345999956130981,learn,60000.0,Tue Aug 20 2024 17:05:58 GMT-0500 (Central Daylight Time),552896.5,A,me,O,e,86,1,366.4000000357628,552530.0999999642,7003,WL,A,9.0
5,12.462999820709229,learn,60000.0,Tue Aug 20 2024 17:05:58 GMT-0500 (Central Daylight Time),553013.0999999642,A,mea,O,a,98,1,483.0,552530.0999999642,7003,WL,A,9.0
5,12.645999908447266,learn,60000.0,Tue Aug 20 2024 17:05:58 GMT-0500 (Central Daylight Time),553196.3999999762,A,mead,O,d,174,1,666.3000000119209,552530.0999999642,7003,WL,A,9.0
5,12.728999853134155,learn,60000.0,Tue Aug 20 2024 17:05:58 GMT-0500 (Central Daylight Time),553279.3999999762,A,meado,O,o,77,1,749.3000000119209,552530.0999999642,7003,WL,A,9.0
5,12.861999988555908,learn,60000.0,Tue Aug 20 2024 17:05:58 GMT-0500 (Central Daylight Time),553412.8999999762,A,meadow,O,w,115,1,882.8000000119209,552530.0999999642,7003,WL,A,9.0
5,13.145999908447266,learn,60000.0,Tue Aug 20 2024 17:05:58 GMT-0500 (Central Daylight Time),553696.0999999642,A,meadowenter,O,enter,278,1,1166.0,552530.0999999642,7003,WL,A,9.0
5,13.461999893188477,learn,60000.0,Tue Aug 20 2024 17:05:58 GMT-0500 (Central Daylight Time),554012.8000000119,A,t,O,t,306,1,316.5,553696.3000000119,7003,WL,A,10.0
5,13.645999908447266,learn,60000.0,Tue Aug 20 2024 17:05:58 GMT-0500 (Central Daylight Time),554195.8999999762,A,tr,O,r,166,1,499.5999999642372,553696.3000000119,7003,WL,A,10.0
5,13.745999813079834,learn,60000.0,Tue Aug 20 2024 17:05:58 GMT-0500 (Central Daylight Time),554295.8999999762,A,tra,O,a,95,1,599.5999999642372,553696.3000000119,7003,WL,A,10.0
5,13.878999948501587,learn,60000.0,Tue Aug 20 2024 17:05:58 GMT-0500 (Central Daylight Time),554429.3999999762,A,trai,O,i,114,1,733.0999999642372,553696.3000000119,7003,WL,A,10.0
5,13.944999933242798,learn,60000.0,Tue Aug 20 2024 17:05:58 GMT-0500 (Central Daylight Time),554495.8000000119,A,train,O,n,61,1,799.5,553696.3000000119,7003,WL,A,10.0
5,14.26199984550476,learn,60000.0,Tue Aug 20 2024 17:05:58 GMT-0500 (Central Daylight Time),554812.5,A,trainenter,O,enter,307,1,1116.199999988079,553696.3000000119,7003,WL,A,10.0
5,14.628999948501587,learn,60000.0,Tue Aug 20 2024 17:05:58 GMT-0500 (Central Daylight Time),555179.0,A,r,O,r,358,1,366.19999998807907,554812.8000000119,7003,WL,A,11.0
5,14.794999837875366,learn,60000.0,Tue Aug 20 2024 17:05:58 GMT-0500 (Central Daylight Time),555345.8000000119,A,ru,O,u,151,1,533.0,554812.8000000119,7003,WL,A,11.0
5,14.961999893188477,learn,60000.0,Tue Aug 20 2024 17:05:58 GMT-0500 (Central Daylight Time),555512.3999999762,A,rug,O,g,153,1,699.5999999642372,554812.8000000119,7003,WL,A,11.0
5,15.211999893188477,learn,60000.0,Tue Aug 20 2024 17:05:58 GMT-0500 (Central Daylight Time),555762.3000000119,A,rugenter,O,enter,234,1,949.5,554812.8000000119,7003,WL,A,11.0
5,15.51199984550476,learn,60000.0,Tue Aug 20 2024 17:05:58 GMT-0500 (Central Daylight Time),556062.0999999642,A,l,O,l,279,1,299.5,555762.5999999642,7003,WL,A,12.0
5,15.694999933242798,learn,60000.0,Tue Aug 20 2024 17:05:58 GMT-0500 (Central Daylight Time),556245.1999999881,A,lo,O,o,165,1,482.60000002384186,555762.5999999642,7003,WL,A,12.0
5,15.760999917984009,learn,60000.0,Tue Aug 20 2024 17:05:58 GMT-0500 (Central Daylight Time),556311.6999999881,A,log,O,g,61,1,549.1000000238419,555762.5999999642,7003,WL,A,12.0
5,16.76199984550476,learn,60000.0,Tue Aug 20 2024 17:05:58 GMT-0500 (Central Daylight Time),557312.8000000119,A,logenter,O,enter,994,1,1550.2000000476837,555762.5999999642,7003,WL,A,12.0
5,23.342999935150146,learn,60000.0,Tue Aug 20 2024 17:05:58 GMT-0500 (Central Daylight Time),563892.8999999762,A,r,O,r,6570,1,6579.800000011921,557313.0999999642,7003,WL,A,13.0
5,23.526000022888184,learn,60000.0,Tue Aug 20 2024 17:05:58 GMT-0500 (Central Daylight Time),564076.0999999642,A,ra,O,a,164,1,6763.0,557313.0999999642,7003,WL,A,13.0
5,23.72599983215332,learn,60000.0,Tue Aug 20 2024 17:05:58 GMT-0500 (Central Daylight Time),564276.1999999881,A,rat,O,t,181,1,6963.100000023842,557313.0999999642,7003,WL,A,13.0
5,23.842000007629395,learn,60000.0,Tue Aug 20 2024 17:05:58 GMT-0500 (Central Daylight Time),564392.8000000119,A,ratt,O,t,110,1,7079.700000047684,557313.0999999642,7003,WL,A,13.0
5,24.008999824523926,learn,60000.0,Tue Aug 20 2024 17:05:58 GMT-0500 (Central Daylight Time),564559.3999999762,A,rattl,O,l,144,1,7246.300000011921,557313.0999999642,7003,WL,A,13.0
5,24.125999927520752,learn,60000.0,Tue Aug 20 2024 17:05:58 GMT-0500 (Central Daylight Time),564676.0,A,rattle,O,e,99,1,7362.900000035763,557313.0999999642,7003,WL,A,13.0
5,24.89199995994568,learn,60000.0,Tue Aug 20 2024 17:05:58 GMT-0500 (Central Daylight Time),565442.3999999762,A,rattleenter,O,enter,751,1,8129.300000011921,557313.0999999642,7003,WL,A,13.0
5,27.990999937057495,learn,60000.0,Tue Aug 20 2024 17:05:58 GMT-0500 (Central Daylight Time),568541.5999999642,A,k,O,k,3080,1,3098.7999999523163,565442.8000000119,7003,WL,A,14.0
5,28.12399983406067,learn,60000.0,Tue Aug 20 2024 17:05:58 GMT-0500 (Central Daylight Time),568674.8000000119,A,ke,O,e,124,1,3232.0,565442.8000000119,7003,WL,A,14.0
5,28.340999841690063,learn,60000.0,Tue Aug 20 2024 17:05:58 GMT-0500 (Central Daylight Time),568891.3999999762,A,key,O,y,208,1,3448.599999964237,565442.8000000119,7003,WL,A,14.0
5,28.740999937057495,learn,60000.0,Tue Aug 20 2024 17:05:58 GMT-0500 (Central Daylight Time),569291.0999999642,A,keyenter,O,enter,383,1,3848.2999999523163,565442.8000000119,7003,WL,A,14.0
5,29.37399983406067,learn,60000.0,Tue Aug 20 2024 17:05:58 GMT-0500 (Central Daylight Time),569924.3999999762,A,l,O,l,616,1,632.8999999761581,569291.5,7003,WL,A,15.0
5,29.60699987411499,learn,60000.0,Tue Aug 20 2024 17:05:58 GMT-0500 (Central Daylight Time),570157.5999999642,A,lg,O,g,213,1,866.0999999642372,569291.5,7003,WL,A,15.0
5,29.740999937057495,learn,60000.0,Tue Aug 20 2024 17:05:58 GMT-0500 (Central Daylight Time),570290.8000000119,A,lgo,O,o,117,1,999.3000000119209,569291.5,7003,WL,A,15.0
5,30.306999921798706,learn,60000.0,Tue Aug 20 2024 17:05:58 GMT-0500 (Central Daylight Time),570857.5,A,lg,O,backspace,560,1,1566.0,569291.5,7003,WL,A,15.0
5,30.473999977111816,learn,60000.0,Tue Aug 20 2024 17:05:58 GMT-0500 (Central Daylight Time),571024.3000000119,A,l,O,backspace,153,1,1732.800000011921,569291.5,7003,WL,A,15.0
5,30.723999977111816,learn,60000.0,Tue Aug 20 2024 17:05:58 GMT-0500 (Central Daylight Time),571274.0999999642,A,lo,O,o,234,1,1982.5999999642372,569291.5,7003,WL,A,15.0
5,30.973999977111816,learn,60000.0,Tue Aug 20 2024 17:05:58 GMT-0500 (Central Daylight Time),571524.0999999642,A,log,O,g,240,1,2232.599999964237,569291.5,7003,WL,A,15.0
5,31.156999826431274,learn,60000.0,Tue Aug 20 2024 17:05:58 GMT-0500 (Central Daylight Time),571707.0,A,logenter,O,enter,166,1,2415.5,569291.5,7003,WL,A,15.0
6,1.6670000553131104,distr,58332.99994468689,Tue Aug 20 2024 17:05:58 GMT-0500 (Central Daylight Time),638103.0999999642,B,s,O,s,1646,1,1666.0999999642372,636437.0,7003,WL,A,1.0
6,1.7669999599456787,distr,58233.00004005432,Tue Aug 20 2024 17:05:58 GMT-0500 (Central Daylight Time),638203.0999999642,B,sh,O,h,91,1,1766.0999999642372,636437.0,7003,WL,A,1.0
6,1.933000087738037,distr,58066.99991226196,Tue Aug 20 2024 17:05:58 GMT-0500 (Central Daylight Time),638369.6999999881,B,she,O,e,160,1,1932.699999988079,636437.0,7003,WL,A,1.0
6,2.0999999046325684,distr,57900.00009536743,Tue Aug 20 2024 17:05:58 GMT-0500 (Central Daylight Time),638536.1999999881,B,shee,O,e,152,1,2099.199999988079,636437.0,7003,WL,A,1.0
6,2.183000087738037,distr,57816.99991226196,Tue Aug 20 2024 17:05:58 GMT-0500 (Central Daylight Time),638619.5,B,sheep,O,p,65,1,2182.5,636437.0,7003,WL,A,1.0
6,2.999000072479248,distr,57000.99992752075,Tue Aug 20 2024 17:05:58 GMT-0500 (Central Daylight Time),639435.8000000119,B,sheepenter,O,enter,807,1,2998.800000011921,636437.0,7003,WL,A,1.0
6,3.3989999294281006,distr,56601.0000705719,Tue Aug 20 2024 17:05:58 GMT-0500 (Central Daylight Time),639835.8000000119,B,s,O,s,383,1,399.7000000476837,639436.0999999642,7003,WL,A,2.0
6,3.5490000247955322,distr,56450.99997520447,Tue Aug 20 2024 17:05:58 GMT-0500 (Central Daylight Time),639985.8000000119,B,se,O,e,143,1,549.7000000476837,639436.0999999642,7003,WL,A,2.0
6,3.699000120162964,distr,56300.999879837036,Tue Aug 20 2024 17:05:58 GMT-0500 (Central Daylight Time),640135.8999999762,B,see,O,e,137,1,699.8000000119209,639436.0999999642,7003,WL,A,2.0
6,3.9159998893737793,distr,56084.00011062622,Tue Aug 20 2024 17:05:58 GMT-0500 (Central Daylight Time),640352.3000000119,B,seed,O,d,211,1,916.2000000476837,639436.0999999642,7003,WL,A,2.0
6,4.348999977111816,distr,55651.00002288818,Tue Aug 20 2024 17:05:58 GMT-0500 (Central Daylight Time),640785.6999999881,B,seedenter,O,enter,426,1,1349.6000000238419,639436.0999999642,7003,WL,A,2.0
6,4.766000032424927,distr,55233.99996757507,Tue Aug 20 2024 17:05:58 GMT-0500 (Central Daylight Time),641202.1999999881,B,c,O,c,409,1,416.10000002384186,640786.0999999642,7003,WL,A,3.0
6,4.881999969482422,distr,55118.00003051758,Tue Aug 20 2024 17:05:58 GMT-0500 (Central Daylight Time),641318.6999999881,B,co,O,o,105,1,532.6000000238419,640786.0999999642,7003,WL,A,3.0
6,4.999000072479248,distr,55000.99992752075,Tue Aug 20 2024 17:05:58 GMT-0500 (Central Daylight Time),641435.1999999881,B,coa,O,a,100,1,649.1000000238419,640786.0999999642,7003,WL,A,3.0
6,5.265000104904175,distr,54734.999895095825,Tue Aug 20 2024 17:05:58 GMT-0500 (Central Daylight Time),641701.8999999762,B,coat,O,t,246,1,915.8000000119209,640786.0999999642,7003,WL,A,3.0
6,6.098999977111816,distr,53901.00002288818,Tue Aug 20 2024 17:05:58 GMT-0500 (Central Daylight Time),642535.1999999881,B,coatenter,O,enter,829,1,1749.1000000238419,640786.0999999642,7003,WL,A,3.0
6,7.565000057220459,distr,52434.99994277954,Tue Aug 20 2024 17:05:58 GMT-0500 (Central Daylight Time),644001.0999999642,B,p,O,p,1452,1,1465.699999988079,642535.3999999762,7003,WL,A,4.0
6,7.614000082015991,distr,52385.99991798401,Tue Aug 20 2024 17:05:58 GMT-0500 (Central Daylight Time),644051.0,B,pe,O,e,33,1,1515.6000000238419,642535.3999999762,7003,WL,A,4.0
6,7.747999906539917,distr,52252.00009346008,Tue Aug 20 2024 17:05:58 GMT-0500 (Central Daylight Time),644184.3999999762,B,pea,O,a,120,1,1649.0,642535.3999999762,7003,WL,A,4.0
6,8.015000104904175,distr,51984.999895095825,Tue Aug 20 2024 17:05:58 GMT-0500 (Central Daylight Time),644451.0999999642,B,peac,O,c,258,1,1915.699999988079,642535.3999999762,7003,WL,A,4.0
6,8.081000089645386,distr,51918.999910354614,Tue Aug 20 2024 17:05:58 GMT-0500 (Central Daylight Time),644517.8000000119,B,peach,O,h,56,1,1982.4000000357628,642535.3999999762,7003,WL,A,4.0
6,8.680999994277954,distr,51319.000005722046,Tue Aug 20 2024 17:05:58 GMT-0500 (Central Daylight Time),645117.5,B,peachenter,O,enter,580,1,2582.100000023842,642535.3999999762,7003,WL,A,4.0
6,11.829999923706055,distr,48170.000076293945,Tue Aug 20 2024 17:05:58 GMT-0500 (Central Daylight Time),648266.5999999642,B,b,O,b,3141,1,3148.7999999523163,645117.8000000119,7003,WL,A,5.0
6,11.980000019073486,distr,48019.999980926514,Tue Aug 20 2024 17:05:58 GMT-0500 (Central Daylight Time),648416.5999999642,B,bu,O,u,136,1,3298.7999999523163,645117.8000000119,7003,WL,A,5.0
6,12.145999908447266,distr,47854.000091552734,Tue Aug 20 2024 17:05:58 GMT-0500 (Central Daylight Time),648583.0,B,but,O,t,146,1,3465.199999988079,645117.8000000119,7003,WL,A,5.0
6,12.329999923706055,distr,47670.000076293945,Tue Aug 20 2024 17:05:58 GMT-0500 (Central Daylight Time),648766.5999999642,B,butt,O,t,163,1,3648.7999999523163,645117.8000000119,7003,WL,A,5.0
6,12.480000019073486,distr,47519.999980926514,Tue Aug 20 2024 17:05:58 GMT-0500 (Central Daylight Time),648916.1999999881,B,butto,O,o,140,1,3798.399999976158,645117.8000000119,7003,WL,A,5.0
6,12.562999963760376,distr,47437.000036239624,Tue Aug 20 2024 17:05:58 GMT-0500 (Central Daylight Time),648999.8000000119,B,button,O,n,70,1,3882.0,645117.8000000119,7003,WL,A,5.0
6,12.930000066757202,distr,47069.9999332428,Tue Aug 20 2024 17:05:58 GMT-0500 (Central Daylight Time),649366.0999999642,B,buttonenter,O,enter,354,1,4248.299999952316,645117.8000000119,7003,WL,A,5.0
6,17.561000108718872,distr,42438.99989128113,Tue Aug 20 2024 17:05:58 GMT-0500 (Central Daylight Time),653998.0,B,enter,O,enter,4621,1,4631.600000023842,649366.3999999762,7003,WL,A,6.0
6,17.76200008392334,distr,42237.99991607666,Tue Aug 20 2024 17:05:58 GMT-0500 (Central Daylight Time),654198.0999999642,B,enter,O,enter,189,1,199.79999995231628,653998.3000000119,7003,WL,A,7.0
6,18.211999893188477,distr,41788.00010681152,Tue Aug 20 2024 17:05:58 GMT-0500 (Central Daylight Time),654648.8000000119,B,enter,O,enter,445,1,450.4000000357628,654198.3999999762,7003,WL,A,8.0
6,18.460999965667725,distr,41539.000034332275,Tue Aug 20 2024 17:05:58 GMT-0500 (Central Daylight Time),654897.8000000119,B,enter,O,enter,242,1,248.70000004768372,654649.0999999642,7003,WL,A,9.0
6,18.727999925613403,distr,41272.0000743866,Tue Aug 20 2024 17:05:58 GMT-0500 (Central Daylight Time),655164.3000000119,B,enter,O,enter,248,1,266.10000002384186,654898.1999999881,7003,WL,A,10.0
6,19.028000116348267,distr,40971.99988365173,Tue Aug 20 2024 17:05:58 GMT-0500 (Central Daylight Time),655464.1999999881,B,enter,O,enter,286,1,299.5,655164.6999999881,7003,WL,A,11.0
6,19.311000108718872,distr,40688.99989128113,Tue Aug 20 2024 17:05:58 GMT-0500 (Central Daylight Time),655747.5,B,enter,O,enter,275,1,282.9000000357628,655464.5999999642,7003,WL,A,12.0
6,19.627000093460083,distr,40372.99990653992,Tue Aug 20 2024 17:05:58 GMT-0500 (Central Daylight Time),656064.0,B,enter,O,enter,310,1,316.10000002384186,655747.8999999762,7003,WL,A,13.0
6,19.97699999809265,distr,40023.00000190735,Tue Aug 20 2024 17:05:58 GMT-0500 (Central Daylight Time),656413.8000000119,B,enter,O,enter,339,1,349.5,656064.3000000119,7003,WL,A,14.0
6,20.32699990272522,distr,39673.00009727478,Tue Aug 20 2024 17:05:58 GMT-0500 (Central Daylight Time),656763.6999999881,B,enter,O,enter,341,1,349.60000002384186,656414.0999999642,7003,WL,A,15.0
7,13.078999996185303,immed,46921.0000038147,Tue Aug 20 2024 17:05:58 GMT-0500 (Central Daylight Time),670676.0,A,s,O,s,13062,1,13079.0,657597.0,7003,WL,A,1.0
7,13.228999853134155,immed,46771.000146865845,Tue Aug 20 2024 17:05:58 GMT-0500 (Central Daylight Time),670826.0,A,sh,O,h,142,1,13229.0,657597.0,7003,WL,A,1.0
7,13.328999996185303,immed,46671.0000038147,Tue Aug 20 2024 17:05:58 GMT-0500 (Central Daylight Time),670926.0999999642,A,she,O,e,89,1,13329.099999964237,657597.0,7003,WL,A,1.0
7,13.462999820709229,immed,46537.00017929077,Tue Aug 20 2024 17:05:58 GMT-0500 (Central Daylight Time),671059.1999999881,A,shee,O,e,116,1,13462.199999988079,657597.0,7003,WL,A,1.0
7,13.961999893188477,immed,46038.00010681152,Tue Aug 20 2024 17:05:58 GMT-0500 (Central Daylight Time),671559.0999999642,A,sheep,O,p,487,1,13962.099999964237,657597.0,7003,WL,A,1.0
7,14.345999956130981,immed,45654.00004386902,Tue Aug 20 2024 17:05:58 GMT-0500 (Central Daylight Time),671942.5999999642,A,sheepenter,O,enter,363,1,14345.599999964237,657597.0,7003,WL,A,1.0
7,22.292999982833862,immed,37707.00001716614,Tue Aug 20 2024 17:05:58 GMT-0500 (Central Daylight Time),679890.0,A,b,O,b,7932,1,7947.100000023842,671942.8999999762,7003,WL,A,2.0
7,22.426999807357788,immed,37573.00019264221,Tue Aug 20 2024 17:05:58 GMT-0500 (Central Daylight Time),680023.3000000119,A,bo,O,o,120,1,8080.400000035763,671942.8999999762,7003,WL,A,2.0
7,22.592999935150146,immed,37407.00006484985,Tue Aug 20 2024 17:05:58 GMT-0500 (Central Daylight Time),680189.8000000119,A,boo,O,o,147,1,8246.900000035763,671942.8999999762,7003,WL,A,2.0
7,22.82699990272522,immed,37173.00009727478,Tue Aug 20 2024 17:05:58 GMT-0500 (Central Daylight Time),680423.3000000119,A,book,O,k,213,1,8480.400000035763,671942.8999999762,7003,WL,A,2.0
7,23.342999935150146,immed,36657.00006484985,Tue Aug 20 2024 17:05:58 GMT-0500 (Central Daylight Time),680939.6999999881,A,bookenter,O,enter,499,1,8996.800000011921,671942.8999999762,7003,WL,A,2.0
7,23.625999927520752,immed,36374.00007247925,Tue Aug 20 2024 17:05:58 GMT-0500 (Central Daylight Time),681222.8999999762,A,r,O,r,263,1,282.80000001192093,680940.0999999642,7003,WL,A,3.0
7,23.758999824523926,immed,36241.000175476074,Tue Aug 20 2024 17:05:58 GMT-0500 (Central Daylight Time),681356.0,A,ra,O,a,124,1,415.9000000357628,680940.0999999642,7003,WL,A,3.0
7,23.97599983215332,immed,36024.00016784668,Tue Aug 20 2024 17:05:58 GMT-0500 (Central Daylight Time),681572.8000000119,A,rat,O,t,207,1,632.7000000476837,680940.0999999642,7003,WL,A,3.0
7,24.108999967575073,immed,35891.00003242493,Tue Aug 20 2024 17:05:58 GMT-0500 (Central Daylight Time),681706.0,A,ratt,O,t,126,1,765.9000000357628,680940.0999999642,7003,WL,A,3.0
7,24.243000030517578,immed,35756.99996948242,Tue Aug 20 2024 17:05:58 GMT-0500 (Central Daylight Time),681839.3000000119,A,rattl,O,l,112,1,899.2000000476837,680940.0999999642,7003,WL,A,3.0
7,24.375999927520752,immed,35624.00007247925,Tue Aug 20 2024 17:05:58 GMT-0500 (Central Daylight Time),681972.3999999762,A,rattle,O,e,123,1,1032.300000011921,680940.0999999642,7003,WL,A,3.0
7,24.95899987220764,immed,35041.00012779236,Tue Aug 20 2024 17:05:58 GMT-0500 (Central Daylight Time),682555.8000000119,A,rattleenter,O,enter,574,1,1615.7000000476837,680940.0999999642,7003,WL,A,3.0
7,26.375,immed,33625.0,Tue Aug 20 2024 17:05:58 GMT-0500 (Central Daylight Time),683971.8999999762,A,f,O,f,1407,1,1415.699999988079,682556.1999999881,7003,WL,A,4.0
7,26.47499990463257,immed,33525.00009536743,Tue Aug 20 2024 17:05:58 GMT-0500 (Central Daylight Time),684071.6999999881,A,fl,O,l,95,1,1515.5,682556.1999999881,7003,WL,A,4.0
7,26.658999919891357,immed,33341.00008010864,Tue Aug 20 2024 17:05:58 GMT-0500 (Central Daylight Time),684255.1999999881,A,flo,O,o,163,1,1699.0,682556.1999999881,7003,WL,A,4.0
7,26.774999856948853,immed,33225.00014305115,Tue Aug 20 2024 17:05:58 GMT-0500 (Central Daylight Time),684371.8999999762,A,flow,O,w,107,1,1815.699999988079,682556.1999999881,7003,WL,A,4.0
7,26.840999841690063,immed,33159.00015830994,Tue Aug 20 2024 17:05:58 GMT-0500 (Central Daylight Time),684438.1999999881,A,flowe,O,e,55,1,1882.0,682556.1999999881,7003,WL,A,4.0
7,26.941999912261963,immed,33058.00008773804,Tue Aug 20 2024 17:05:58 GMT-0500 (Central Daylight Time),684538.5999999642,A,flower,O,r,84,1,1982.3999999761581,682556.1999999881,7003,WL,A,4.0
7,27.424999952316284,immed,32575.000047683716,Tue Aug 20 2024 17:05:58 GMT-0500 (Central Daylight Time),685021.5999999642,A,flowerenter,O,enter,472,1,2465.399999976158,682556.1999999881,7003,WL,A,4.0
7,27.891000032424927,immed,32108.999967575073,Tue Aug 20 2024 17:05:58 GMT-0500 (Central Daylight Time),685488.0999999642,A,r,O,r,460,1,466.0999999642372,685022.0,7003,WL,A,5.0
7,28.007999897003174,immed,31992.000102996826,Tue Aug 20 2024 17:05:58 GMT-0500 (Central Daylight Time),685604.6999999881,A,ru,O,u,106,1,582.6999999880791,685022.0,7003,WL,A,5.0
7,28.22499990463257,immed,31775.00009536743,Tue Aug 20 2024 17:05:58 GMT-0500 (Central Daylight Time),685821.3999999762,A,rug,O,g,206,1,799.3999999761581,685022.0,7003,WL,A,5.0
7,28.740999937057495,immed,31259.000062942505,Tue Aug 20 2024 17:05:58 GMT-0500 (Central Daylight Time),686337.8000000119,A,rugenter,O,enter,500,1,1315.800000011921,685022.0,7003,WL,A,5.0
7,28.973999977111816,immed,31026.000022888184,Tue Aug 20 2024 17:05:58 GMT-0500 (Central Daylight Time),686571.0999999642,A,l,O,l,224,1,233.0,686338.0999999642,7003,WL,A,6.0
7,29.157999992370605,immed,30842.000007629395,Tue Aug 20 2024 17:05:58 GMT-0500 (Central Daylight Time),686754.5,A,lo,O,o,167,1,416.4000000357628,686338.0999999642,7003,WL,A,6.0
7,29.257999897003174,immed,30742.000102996826,Tue Aug 20 2024 17:05:58 GMT-0500 (Central Daylight Time),686854.3000000119,A,log,O,g,80,1,516.2000000476837,686338.0999999642,7003,WL,A,6.0
7,29.723999977111816,immed,30276.000022888184,Tue Aug 20 2024 17:05:58 GMT-0500 (Central Daylight Time),687320.8999999762,A,logenter,O,enter,451,1,982.8000000119209,686338.0999999642,7003,WL,A,6.0
7,29.94099998474121,immed,30059.00001525879,Tue Aug 20 2024 17:05:58 GMT-0500 (Central Daylight Time),687537.5,A,t,O,t,202,1,216.30000001192093,687321.1999999881,7003,WL,A,7.0
7,30.12399983406067,immed,29876.00016593933,Tue Aug 20 2024 17:05:58 GMT-0500 (Central Daylight Time),687720.8000000119,A,tr,O,r,169,1,399.60000002384186,687321.1999999881,7003,WL,A,7.0
7,30.240999937057495,immed,29759.000062942505,Tue Aug 20 2024 17:05:58 GMT-0500 (Central Daylight Time),687837.3999999762,A,tra,O,a,98,1,516.1999999880791,687321.1999999881,7003,WL,A,7.0
7,30.37399983406067,immed,29626.00016593933,Tue Aug 20 2024 17:05:58 GMT-0500 (Central Daylight Time),687970.5999999642,A,trai,O,i,125,1,649.3999999761581,687321.1999999881,7003,WL,A,7.0
7,30.457000017166138,immed,29542.999982833862,Tue Aug 20 2024 17:05:58 GMT-0500 (Central Daylight Time),688054.0999999642,A,train,O,n,72,1,732.8999999761581,687321.1999999881,7003,WL,A,7.0
7,30.906999826431274,immed,29093.000173568726,Tue Aug 20 2024 17:05:58 GMT-0500 (Central Daylight Time),688504.0,A,trainenter,O,enter,437,1,1182.800000011921,687321.1999999881,7003,WL,A,7.0
7,33.4229998588562,immed,26577.0001411438,Tue Aug 20 2024 17:05:58 GMT-0500 (Central Daylight Time),691019.8000000119,A,r,O,r,2507,1,2515.5,688504.3000000119,7003,WL,A,8.0
7,33.65599989891052,immed,26344.000101089478,Tue Aug 20 2024 17:05:58 GMT-0500 (Central Daylight Time),691252.8999999762,A,ra,O,a,215,1,2748.599999964237,688504.3000000119,7003,WL,A,8.0
7,33.87299990653992,immed,26127.000093460083,Tue Aug 20 2024 17:05:58 GMT-0500 (Central Daylight Time),691469.6999999881,A,rat,O,t,198,1,2965.399999976158,688504.3000000119,7003,WL,A,8.0
7,34.00599980354309,immed,25994.00019645691,Tue Aug 20 2024 17:05:58 GMT-0500 (Central Daylight Time),691602.8000000119,A,ratt,O,t,125,1,3098.5,688504.3000000119,7003,WL,A,8.0
7,34.14100003242493,immed,25858.999967575073,Tue Aug 20 2024 17:05:58 GMT-0500 (Central Daylight Time),691737.1999999881,A,rattl,O,l,128,1,3232.899999976158,688504.3000000119,7003,WL,A,8.0
7,34.23899984359741,immed,25761.000156402588,Tue Aug 20 2024 17:05:58 GMT-0500 (Central Daylight Time),691836.0999999642,A,rattle,O,e,88,1,3331.7999999523163,688504.3000000119,7003,WL,A,8.0
7,34.65599989891052,immed,25344.000101089478,Tue Aug 20 2024 17:05:58 GMT-0500 (Central Daylight Time),692252.8000000119,A,rattleenter,O,enter,398,1,3748.5,688504.3000000119,7003,WL,A,8.0
7,34.90599989891052,immed,25094.000101089478,Tue Aug 20 2024 17:05:58 GMT-0500 (Central Daylight Time),692502.5,A,l,O,l,229,1,249.19999998807907,692253.3000000119,7003,WL,A,9.0
7,35.07200002670288,immed,24927.99997329712,Tue Aug 20 2024 17:05:58 GMT-0500 (Central Daylight Time),692669.1999999881,A,lo,O,o,148,1,415.89999997615814,692253.3000000119,7003,WL,A,9.0
7,35.18899989128113,immed,24811.000108718872,Tue Aug 20 2024 17:05:58 GMT-0500 (Central Daylight Time),692785.8000000119,A,log,O,g,101,1,532.5,692253.3000000119,7003,WL,A,9.0
7,36.50599980354309,immed,23494.00019645691,Tue Aug 20 2024 17:05:58 GMT-0500 (Central Daylight Time),694102.3999999762,A,logenter,O,enter,1303,1,1849.0999999642372,692253.3000000119,7003,WL,A,9.0
7,38.6710000038147,immed,21328.999996185303,Tue Aug 20 2024 17:05:58 GMT-0500 (Central Daylight Time),696268.0999999642,A,g,O,g,2156,1,2165.2999999523163,694102.8000000119,7003,WL,A,10.0
7,38.787999868392944,immed,21212.000131607056,Tue Aug 20 2024 17:05:58 GMT-0500 (Central Daylight Time),696384.5,A,go,O,o,103,1,2281.699999988079,694102.8000000119,7003,WL,A,10.0
7,38.954999923706055,immed,21045.000076293945,Tue Aug 20 2024 17:05:58 GMT-0500 (Central Daylight Time),696551.3999999762,A,gol,O,l,154,1,2448.599999964237,694102.8000000119,7003,WL,A,10.0
7,39.07099986076355,immed,20929.00013923645,Tue Aug 20 2024 17:05:58 GMT-0500 (Central Daylight Time),696667.8999999762,A,gold,O,d,98,1,2565.099999964237,694102.8000000119,7003,WL,A,10.0
7,39.22099995613098,immed,20779.00004386902,Tue Aug 20 2024 17:05:58 GMT-0500 (Central Daylight Time),696817.8999999762,A,goldenter,O,enter,134,1,2715.099999964237,694102.8000000119,7003,WL,A,10.0
7,39.4539999961853,immed,20546.000003814697,Tue Aug 20 2024 17:05:58 GMT-0500 (Central Daylight Time),697050.8999999762,A,k,O,k,217,1,232.69999998807907,696818.1999999881,7003,WL,A,11.0
7,39.537999868392944,immed,20462.000131607056,Tue Aug 20 2024 17:05:58 GMT-0500 (Central Daylight Time),697134.6999999881,A,ke,O,e,64,1,316.5,696818.1999999881,7003,WL,A,11.0
7,39.7039999961853,immed,20296.000003814697,Tue Aug 20 2024 17:05:58 GMT-0500 (Central Daylight Time),697301.0999999642,A,key,O,y,148,1,482.89999997615814,696818.1999999881,7003,WL,A,11.0
7,40.15399980545044,immed,19846.00019454956,Tue Aug 20 2024 17:05:58 GMT-0500 (Central Daylight Time),697750.8999999762,A,keyenter,O,enter,430,1,932.6999999880791,696818.1999999881,7003,WL,A,11.0
7,41.120999813079834,immed,18879.000186920166,Tue Aug 20 2024 17:05:58 GMT-0500 (Central Daylight Time),698717.3000000119,A,f,O,f,956,1,966.1000000238419,697751.1999999881,7003,WL,A,12.0
7,41.25399994850159,immed,18746.000051498413,Tue Aug 20 2024 17:05:58 GMT-0500 (Central Daylight Time),698850.8000000119,A,fi,O,i,117,1,1099.6000000238419,697751.1999999881,7003,WL,A,12.0
7,41.28699994087219,immed,18713.000059127808,Tue Aug 20 2024 17:05:58 GMT-0500 (Central Daylight Time),698883.8000000119,A,fin,O,n,16,1,1132.6000000238419,697751.1999999881,7003,WL,A,12.0
7,41.36999988555908,immed,18630.000114440918,Tue Aug 20 2024 17:05:58 GMT-0500 (Central Daylight Time),698967.0999999642,A,fing,O,g,71,1,1215.8999999761581,697751.1999999881,7003,WL,A,12.0
7,41.70199990272522,immed,18298.00009727478,Tue Aug 20 2024 17:05:58 GMT-0500 (Central Daylight Time),699298.1999999881,A,finge,O,e,180,1,1547.0,697751.1999999881,7003,WL,A,12.0
7,41.70700001716614,immed,18292.999982833862,Tue Aug 20 2024 17:05:58 GMT-0500 (Central Daylight Time),699303.8999999762,A,finger,O,r,0,1,1552.699999988079,697751.1999999881,7003,WL,A,12.0
7,41.86899995803833,immed,18131.00004196167,Tue Aug 20 2024 17:05:58 GMT-0500 (Central Daylight Time),699465.5,A,fingerenter,O,enter,139,1,1714.300000011921,697751.1999999881,7003,WL,A,12.0
7,42.669999837875366,immed,17330.000162124634,Tue Aug 20 2024 17:05:58 GMT-0500 (Central Daylight Time),700266.5999999642,A,a,O,a,792,1,800.7999999523163,699465.8000000119,7003,WL,A,13.0
7,42.97000002861023,immed,17029.99997138977,Tue Aug 20 2024 17:05:58 GMT-0500 (Central Daylight Time),700566.5999999642,A,ap,O,p,279,1,1100.7999999523163,699465.8000000119,7003,WL,A,13.0
7,43.13699984550476,immed,16863.00015449524,Tue Aug 20 2024 17:05:58 GMT-0500 (Central Daylight Time),700733.5,A,app,O,p,156,1,1267.699999988079,699465.8000000119,7003,WL,A,13.0
7,43.33699989318848,immed,16663.000106811523,Tue Aug 20 2024 17:05:58 GMT-0500 (Central Daylight Time),700933.3000000119,A,appl,O,l,181,1,1467.5,699465.8000000119,7003,WL,A,13.0
7,43.503000020980835,immed,16496.999979019165,Tue Aug 20 2024 17:05:58 GMT-0500 (Central Daylight Time),701100.0999999642,A,apple,O,e,149,1,1634.2999999523163,699465.8000000119,7003,WL,A,13.0
7,43.86999988555908,immed,16130.000114440918,Tue Aug 20 2024 17:05:58 GMT-0500 (Central Daylight Time),701466.5,A,appleenter,O,enter,358,1,2000.699999988079,699465.8000000119,7003,WL,A,13.0
7,50.95099997520447,immed,9049.000024795532,Tue Aug 20 2024 17:05:58 GMT-0500 (Central Daylight Time),708547.8999999762,A,g,O,g,7064,1,7081.0,701466.8999999762,7003,WL,A,14.0
7,51.067999839782715,immed,8932.000160217285,Tue Aug 20 2024 17:05:58 GMT-0500 (Central Daylight Time),708664.3000000119,A,go,O,o,102,1,7197.400000035763,701466.8999999762,7003,WL,A,14.0
7,51.25099992752075,immed,8749.000072479248,Tue Aug 20 2024 17:05:58 GMT-0500 (Central Daylight Time),708847.6999999881,A,gol,O,l,170,1,7380.800000011921,701466.8999999762,7003,WL,A,14.0
7,51.35099983215332,immed,8649.00016784668,Tue Aug 20 2024 17:05:58 GMT-0500 (Central Daylight Time),708947.3999999762,A,gold,O,d,91,1,7480.5,701466.8999999762,7003,WL,A,14.0
7,51.50099992752075,immed,8499.000072479248,Tue Aug 20 2024 17:05:58 GMT-0500 (Central Daylight Time),709097.3999999762,A,goldenter,O,enter,143,1,7630.5,701466.8999999762,7003,WL,A,14.0
7,52.34999990463257,immed,7650.000095367432,Tue Aug 20 2024 17:05:58 GMT-0500 (Central Daylight Time),709947.1999999881,A,enter,O,enter,833,1,849.3999999761581,709097.8000000119,7003,WL,A,15.0
