block_c,block_dur,condition,countdown,datetime,endtime,list,multichar_response,project,response,response_time,session_number,start_end,starttime,subject_id,task,task_vers,trial
,,,,Wed Jun 24 2026 15:13:15 GMT-0400 (Eastern Daylight Time),,,,I,space,277,1,,,9090,WL,B,
prac,,0,,Wed Jun 24 2026 15:13:15 GMT-0400 (Eastern Daylight Time),,NA,b,I,b,6957,1,,,9090,WL,B,1.0
prac,,0,,Wed Jun 24 2026 15:13:15 GMT-0400 (Eastern Daylight Time),,NA,bo,I,o,410,1,,,9090,WL,B,1.0
prac,,0,,Wed Jun 24 2026 15:13:15 GMT-0400 (Eastern Daylight Time),,NA,boo,I,o,262,1,,,9090,WL,B,1.0
prac,,0,,Wed Jun 24 2026 15:13:15 GMT-0400 (Eastern Daylight Time),,NA,boos,I,s,800,1,,,9090,WL,B,1.0
prac,,0,,Wed Jun 24 2026 15:13:15 GMT-0400 (Eastern Daylight Time),,NA,boost,I,t,394,1,,,9090,WL,B,1.0
prac,,0,,Wed Jun 24 2026 15:13:15 GMT-0400 (Eastern Daylight Time),,NA,boostenter,I,enter,635,1,,,9090,WL,B,1.0
1,1.5340001583099365,learn,58465.99984169006,Wed Jun 24 2026 15:13:15 GMT-0400 (Eastern Daylight Time),124740.70000004768,A,d,I,d,1514,1,1532.7000000476837,123208.0,9090,WL,B,1.0
1,1.817000150680542,learn,58182.99984931946,Wed Jun 24 2026 15:13:15 GMT-0400 (Eastern Daylight Time),125023.70000004768,A,do,I,o,267,1,1815.7000000476837,123208.0,9090,WL,B,1.0
1,2.0169999599456787,learn,57983.00004005432,Wed Jun 24 2026 15:13:15 GMT-0400 (Eastern Daylight Time),125223.70000004768,A,doo,I,o,177,1,2015.7000000476837,123208.0,9090,WL,B,1.0
1,2.1500000953674316,learn,57849.99990463257,Wed Jun 24 2026 15:13:15 GMT-0400 (Eastern Daylight Time),125356.60000002384,A,door,I,r,114,1,2148.600000023842,123208.0,9090,WL,B,1.0
1,2.5169999599456787,learn,57483.00004005432,Wed Jun 24 2026 15:13:15 GMT-0400 (Eastern Daylight Time),125723.20000004768,A,doorenter,I,enter,355,1,2515.2000000476837,123208.0,9090,WL,B,1.0
1,3.251000165939331,learn,56748.99983406067,Wed Jun 24 2026 15:13:15 GMT-0400 (Eastern Daylight Time),126457.10000002384,A,w,I,w,713,1,733.3999999761581,125723.70000004768,9090,WL,B,2.0
1,3.634000062942505,learn,56365.999937057495,Wed Jun 24 2026 15:13:15 GMT-0400 (Eastern Daylight Time),126840.20000004768,A,wi,I,i,359,1,1116.5,125723.70000004768,9090,WL,B,2.0
1,3.950000047683716,learn,56049.999952316284,Wed Jun 24 2026 15:13:15 GMT-0400 (Eastern Daylight Time),127157.0,A,win,I,n,296,1,1433.2999999523163,125723.70000004768,9090,WL,B,2.0
1,4.2170000076293945,learn,55782.999992370605,Wed Jun 24 2026 15:13:15 GMT-0400 (Eastern Daylight Time),127423.70000004768,A,wind,I,d,249,1,1700.0,125723.70000004768,9090,WL,B,2.0
1,4.7840001583099365,learn,55215.99984169006,Wed Jun 24 2026 15:13:15 GMT-0400 (Eastern Daylight Time),127990.30000007153,A,windw,I,w,545,1,2266.600000023842,125723.70000004768,9090,WL,B,2.0
1,5.601000070571899,learn,54398.9999294281,Wed Jun 24 2026 15:13:15 GMT-0400 (Eastern Daylight Time),128807.0,A,wind,I,backspace,794,1,3083.2999999523163,125723.70000004768,9090,WL,B,2.0
1,6.0329999923706055,learn,53967.000007629395,Wed Jun 24 2026 15:13:15 GMT-0400 (Eastern Daylight Time),129239.5,A,windo,I,o,407,1,3515.7999999523163,125723.70000004768,9090,WL,B,2.0
1,6.2840001583099365,learn,53715.99984169006,Wed Jun 24 2026 15:13:15 GMT-0400 (Eastern Daylight Time),129490.30000007153,A,window,I,w,237,1,3766.600000023842,125723.70000004768,9090,WL,B,2.0
1,7.25,learn,52750.0,Wed Jun 24 2026 15:13:15 GMT-0400 (Eastern Daylight Time),130456.5,A,windowenter,I,enter,942,1,4732.799999952316,125723.70000004768,9090,WL,B,2.0
1,8.016999959945679,learn,51983.00004005432,Wed Jun 24 2026 15:13:15 GMT-0400 (Eastern Daylight Time),131223.60000002384,A,p,I,p,747,1,766.5,130457.10000002384,9090,WL,B,3.0
1,8.384000062942505,learn,51615.999937057495,Wed Jun 24 2026 15:13:15 GMT-0400 (Eastern Daylight Time),131590.20000004768,A,pi,I,i,345,1,1133.1000000238419,130457.10000002384,9090,WL,B,3.0
1,8.684000015258789,learn,51315.99998474121,Wed Jun 24 2026 15:13:15 GMT-0400 (Eastern Daylight Time),131890.5,A,pip,I,p,283,1,1433.3999999761581,130457.10000002384,9090,WL,B,3.0
1,8.950000047683716,learn,51049.999952316284,Wed Jun 24 2026 15:13:15 GMT-0400 (Eastern Daylight Time),132156.70000004768,A,pipe,I,e,252,1,1699.6000000238419,130457.10000002384,9090,WL,B,3.0
1,9.367000102996826,learn,50632.999897003174,Wed Jun 24 2026 15:13:15 GMT-0400 (Eastern Daylight Time),132573.20000004768,A,pipeenter,I,enter,404,1,2116.100000023842,130457.10000002384,9090,WL,B,3.0
1,10.150000095367432,learn,49849.99990463257,Wed Jun 24 2026 15:13:15 GMT-0400 (Eastern Daylight Time),133356.80000007153,A,g,I,g,775,1,783.2000000476837,132573.60000002384,9090,WL,B,4.0
1,10.384000062942505,learn,49615.999937057495,Wed Jun 24 2026 15:13:15 GMT-0400 (Eastern Daylight Time),133590.20000004768,A,gr,I,r,213,1,1016.6000000238419,132573.60000002384,9090,WL,B,4.0
1,10.733999967575073,learn,49266.00003242493,Wed Jun 24 2026 15:13:15 GMT-0400 (Eastern Daylight Time),133940.30000007153,A,gra,I,a,330,1,1366.7000000476837,132573.60000002384,9090,WL,B,4.0
1,11.184000015258789,learn,48815.99998474121,Wed Jun 24 2026 15:13:15 GMT-0400 (Eastern Daylight Time),134390.30000007153,A,gras,I,s,430,1,1816.7000000476837,132573.60000002384,9090,WL,B,4.0
1,11.384000062942505,learn,48615.999937057495,Wed Jun 24 2026 15:13:15 GMT-0400 (Eastern Daylight Time),134590.20000004768,A,grass,I,s,186,1,2016.6000000238419,132573.60000002384,9090,WL,B,4.0
1,11.66700005531311,learn,48332.99994468689,Wed Jun 24 2026 15:13:15 GMT-0400 (Eastern Daylight Time),134873.10000002384,A,grassenter,I,enter,251,1,2299.5,132573.60000002384,9090,WL,B,4.0
1,12.067000150680542,learn,47932.99984931946,Wed Jun 24 2026 15:13:15 GMT-0400 (Eastern Daylight Time),135273.39999997616,A,s,I,s,378,1,399.89999997615814,134873.5,9090,WL,B,5.0
1,12.401000022888184,learn,47598.99997711182,Wed Jun 24 2026 15:13:15 GMT-0400 (Eastern Daylight Time),135607.0,A,st,I,t,310,1,733.5,134873.5,9090,WL,B,5.0
1,12.650000095367432,learn,47349.99990463257,Wed Jun 24 2026 15:13:15 GMT-0400 (Eastern Daylight Time),135856.89999997616,A,sta,I,a,232,1,983.3999999761581,134873.5,9090,WL,B,5.0
1,12.901000022888184,learn,47098.99997711182,Wed Jun 24 2026 15:13:15 GMT-0400 (Eastern Daylight Time),136107.0,A,star,I,r,212,1,1233.5,134873.5,9090,WL,B,5.0
1,13.282999992370605,learn,46717.000007629395,Wed Jun 24 2026 15:13:15 GMT-0400 (Eastern Daylight Time),136489.89999997616,A,starenter,I,enter,356,1,1616.3999999761581,134873.5,9090,WL,B,5.0
1,16.25100016593933,learn,43748.99983406067,Wed Jun 24 2026 15:13:15 GMT-0400 (Eastern Daylight Time),139457.0,A,l,I,l,2954,1,2966.600000023842,136490.39999997616,9090,WL,B,6.0
1,16.450000047683716,learn,43549.999952316284,Wed Jun 24 2026 15:13:15 GMT-0400 (Eastern Daylight Time),139656.89999997616,A,la,I,a,174,1,3166.5,136490.39999997616,9090,WL,B,6.0
1,16.68400001525879,learn,43315.99998474121,Wed Jun 24 2026 15:13:15 GMT-0400 (Eastern Daylight Time),139890.30000007153,A,lak,I,k,215,1,3399.9000000953674,136490.39999997616,9090,WL,B,6.0
1,16.884000062942505,learn,43115.999937057495,Wed Jun 24 2026 15:13:15 GMT-0400 (Eastern Daylight Time),140090.30000007153,A,lake,I,e,172,1,3599.9000000953674,136490.39999997616,9090,WL,B,6.0
1,17.23300004005432,learn,42766.99995994568,Wed Jun 24 2026 15:13:15 GMT-0400 (Eastern Daylight Time),140439.80000007153,A,lakeenter,I,enter,322,1,3949.4000000953674,136490.39999997616,9090,WL,B,6.0
1,20.700999975204468,learn,39299.00002479553,Wed Jun 24 2026 15:13:15 GMT-0400 (Eastern Daylight Time),143907.0,A,f,I,f,3453,1,3466.6999999284744,140440.30000007153,9090,WL,B,7.0
1,20.91700005531311,learn,39082.99994468689,Wed Jun 24 2026 15:13:15 GMT-0400 (Eastern Daylight Time),144123.60000002384,A,fi,I,i,188,1,3683.2999999523163,140440.30000007153,9090,WL,B,7.0
1,21.15000009536743,learn,38849.99990463257,Wed Jun 24 2026 15:13:15 GMT-0400 (Eastern Daylight Time),144356.89999997616,A,fir,I,r,211,1,3916.5999999046326,140440.30000007153,9090,WL,B,7.0
1,21.33400011062622,learn,38665.99988937378,Wed Jun 24 2026 15:13:15 GMT-0400 (Eastern Daylight Time),144540.30000007153,A,fire,I,e,164,1,4100.0,140440.30000007153,9090,WL,B,7.0
1,21.617000102996826,learn,38382.999897003174,Wed Jun 24 2026 15:13:15 GMT-0400 (Eastern Daylight Time),144823.20000004768,A,fireenter,I,enter,250,1,4382.899999976158,140440.30000007153,9090,WL,B,7.0
1,26.93400001525879,learn,33065.99998474121,Wed Jun 24 2026 15:13:15 GMT-0400 (Eastern Daylight Time),150140.39999997616,A,s,I,s,5293,1,5316.699999928474,144823.70000004768,9090,WL,B,8.0
1,27.350000143051147,learn,32649.999856948853,Wed Jun 24 2026 15:13:15 GMT-0400 (Eastern Daylight Time),150556.60000002384,A,st,I,t,404,1,5732.899999976158,144823.70000004768,9090,WL,B,8.0
1,27.66700005531311,learn,32332.99994468689,Wed Jun 24 2026 15:13:15 GMT-0400 (Eastern Daylight Time),150873.60000002384,A,sta,I,a,294,1,6049.899999976158,144823.70000004768,9090,WL,B,8.0
1,27.901000022888184,learn,32098.999977111816,Wed Jun 24 2026 15:13:15 GMT-0400 (Eastern Daylight Time),151107.0,A,star,I,r,216,1,6283.299999952316,144823.70000004768,9090,WL,B,8.0
1,28.41700005531311,learn,31582.99994468689,Wed Jun 24 2026 15:13:15 GMT-0400 (Eastern Daylight Time),151623.20000004768,A,starenter,I,enter,492,1,6799.5,144823.70000004768,9090,WL,B,8.0
1,35.26699995994568,learn,24733.00004005432,Wed Jun 24 2026 15:13:15 GMT-0400 (Eastern Daylight Time),158473.60000002384,A,s,I,s,6829,1,6849.899999976158,151623.70000004768,9090,WL,B,9.0
1,35.60000014305115,learn,24399.999856948853,Wed Jun 24 2026 15:13:15 GMT-0400 (Eastern Daylight Time),158806.89999997616,A,st,I,t,310,1,7183.199999928474,151623.70000004768,9090,WL,B,9.0
1,35.8510000705719,learn,24148.9999294281,Wed Jun 24 2026 15:13:15 GMT-0400 (Eastern Daylight Time),159057.0,A,str,I,r,233,1,7433.299999952316,151623.70000004768,9090,WL,B,9.0
1,36.117000102996826,learn,23882.999897003174,Wed Jun 24 2026 15:13:15 GMT-0400 (Eastern Daylight Time),159323.60000002384,A,stre,I,e,239,1,7699.899999976158,151623.70000004768,9090,WL,B,9.0
1,36.31700015068054,learn,23682.999849319458,Wed Jun 24 2026 15:13:15 GMT-0400 (Eastern Daylight Time),159523.60000002384,A,stree,I,e,183,1,7899.899999976158,151623.70000004768,9090,WL,B,9.0
1,36.717000007629395,learn,23282.999992370605,Wed Jun 24 2026 15:13:15 GMT-0400 (Eastern Daylight Time),159923.10000002384,A,streeenter,I,enter,380,1,8299.399999976158,151623.70000004768,9090,WL,B,9.0
1,40.717000007629395,learn,19282.999992370605,Wed Jun 24 2026 15:13:15 GMT-0400 (Eastern Daylight Time),163923.70000004768,A,d,I,d,3985,1,4000.2000000476837,159923.5,9090,WL,B,10.0
1,40.884000062942505,learn,19115.999937057495,Wed Jun 24 2026 15:13:15 GMT-0400 (Eastern Daylight Time),164090.30000007153,A,do,I,o,142,1,4166.800000071526,159923.5,9090,WL,B,10.0
1,41.117000102996826,learn,18882.999897003174,Wed Jun 24 2026 15:13:15 GMT-0400 (Eastern Daylight Time),164323.70000004768,A,doo,I,o,214,1,4400.200000047684,159923.5,9090,WL,B,10.0
1,41.367000102996826,learn,18632.999897003174,Wed Jun 24 2026 15:13:15 GMT-0400 (Eastern Daylight Time),164573.5,A,door,I,r,232,1,4650.0,159923.5,9090,WL,B,10.0
1,41.782999992370605,learn,18217.000007629395,Wed Jun 24 2026 15:13:15 GMT-0400 (Eastern Daylight Time),164989.80000007153,A,doorenter,I,enter,404,1,5066.300000071526,159923.5,9090,WL,B,10.0
1,60.01699995994568,learn,-16.99995994567871,Wed Jun 24 2026 15:13:15 GMT-0400 (Eastern Daylight Time),183223.89999997616,A,None,I,None,18226,1,18233.599999904633,164990.30000007153,9090,WL,B,11.0
2,1.316999912261963,learn,58683.00008773804,Wed Jun 24 2026 15:13:15 GMT-0400 (Eastern Daylight Time),266357.0,A,a,I,a,1298,1,1316.0,265041.0,9090,WL,B,1.0
2,1.6499998569488525,learn,58350.00014305115,Wed Jun 24 2026 15:13:15 GMT-0400 (Eastern Daylight Time),266690.3000000715,A,ar,I,r,317,1,1649.3000000715256,265041.0,9090,WL,B,1.0
2,2.132999897003174,learn,57867.000102996826,Wed Jun 24 2026 15:13:15 GMT-0400 (Eastern Daylight Time),267173.7000000477,A,arm,I,m,463,1,2132.7000000476837,265041.0,9090,WL,B,1.0
2,2.9159998893737793,learn,57084.00011062622,Wed Jun 24 2026 15:13:15 GMT-0400 (Eastern Daylight Time),267956.5,A,armenter,I,enter,762,1,2915.5,265041.0,9090,WL,B,1.0
2,3.450000047683716,learn,56549.999952316284,Wed Jun 24 2026 15:13:15 GMT-0400 (Eastern Daylight Time),268490.3000000715,A,s,I,s,511,1,533.5,267956.8000000715,9090,WL,B,2.0
2,3.882999897003174,learn,56117.000102996826,Wed Jun 24 2026 15:13:15 GMT-0400 (Eastern Daylight Time),268923.7000000477,A,sk,I,k,402,1,966.8999999761581,267956.8000000715,9090,WL,B,2.0
2,4.200000047683716,learn,55799.999952316284,Wed Jun 24 2026 15:13:15 GMT-0400 (Eastern Daylight Time),269240.3000000715,A,ski,I,i,292,1,1283.5,267956.8000000715,9090,WL,B,2.0
2,4.7829999923706055,learn,55217.000007629395,Wed Jun 24 2026 15:13:15 GMT-0400 (Eastern Daylight Time),269823.8000000715,A,skin,I,n,570,1,1867.0,267956.8000000715,9090,WL,B,2.0
2,5.165999889373779,learn,54834.00011062622,Wed Jun 24 2026 15:13:15 GMT-0400 (Eastern Daylight Time),270206.60000002384,A,skinenter,I,enter,367,1,2249.7999999523163,267956.8000000715,9090,WL,B,2.0
2,5.58299994468689,learn,54417.00005531311,Wed Jun 24 2026 15:13:15 GMT-0400 (Eastern Daylight Time),270623.7000000477,A,c,I,c,407,1,416.8000000715256,270206.89999997616,9090,WL,B,3.0
2,5.799999952316284,learn,54200.000047683716,Wed Jun 24 2026 15:13:15 GMT-0400 (Eastern Daylight Time),270840.3000000715,A,cl,I,l,192,1,633.4000000953674,270206.89999997616,9090,WL,B,3.0
2,6.082000017166138,learn,53917.99998283386,Wed Jun 24 2026 15:13:15 GMT-0400 (Eastern Daylight Time),271122.89999997616,A,clo,I,o,264,1,916.0,270206.89999997616,9090,WL,B,3.0
2,6.266999959945679,learn,53733.00004005432,Wed Jun 24 2026 15:13:15 GMT-0400 (Eastern Daylight Time),271307.2000000477,A,cloc,I,c,161,1,1100.3000000715256,270206.89999997616,9090,WL,B,3.0
2,6.516999959945679,learn,53483.00004005432,Wed Jun 24 2026 15:13:15 GMT-0400 (Eastern Daylight Time),271557.10000002384,A,clock,I,k,219,1,1350.2000000476837,270206.89999997616,9090,WL,B,3.0
2,6.966000080108643,learn,53033.99991989136,Wed Jun 24 2026 15:13:15 GMT-0400 (Eastern Daylight Time),272006.5,A,clockenter,I,enter,428,1,1799.6000000238419,270206.89999997616,9090,WL,B,3.0
2,7.83299994468689,learn,52167.00005531311,Wed Jun 24 2026 15:13:15 GMT-0400 (Eastern Daylight Time),272873.7000000477,A,f,I,f,847,1,866.8000000715256,272006.89999997616,9090,WL,B,4.0
2,8.016000032424927,learn,51983.99996757507,Wed Jun 24 2026 15:13:15 GMT-0400 (Eastern Daylight Time),273057.0,A,fi,I,i,167,1,1050.1000000238419,272006.89999997616,9090,WL,B,4.0
2,8.266000032424927,learn,51733.99996757507,Wed Jun 24 2026 15:13:15 GMT-0400 (Eastern Daylight Time),273307.0,A,fir,I,r,222,1,1300.1000000238419,272006.89999997616,9090,WL,B,4.0
2,8.516999959945679,learn,51483.00004005432,Wed Jun 24 2026 15:13:15 GMT-0400 (Eastern Daylight Time),273557.10000002384,A,fire,I,e,229,1,1550.2000000476837,272006.89999997616,9090,WL,B,4.0
2,8.932999849319458,learn,51067.00015068054,Wed Jun 24 2026 15:13:15 GMT-0400 (Eastern Daylight Time),273973.2000000477,A,fireenter,I,enter,394,1,1966.3000000715256,272006.89999997616,9090,WL,B,4.0
2,9.217000007629395,learn,50782.999992370605,Wed Jun 24 2026 15:13:15 GMT-0400 (Eastern Daylight Time),274257.0,A,s,I,s,272,1,283.5,273973.5,9090,WL,B,5.0
2,9.58299994468689,learn,50417.00005531311,Wed Jun 24 2026 15:13:15 GMT-0400 (Eastern Daylight Time),274623.7000000477,A,st,I,t,351,1,650.2000000476837,273973.5,9090,WL,B,5.0
2,9.882999897003174,learn,50117.000102996826,Wed Jun 24 2026 15:13:15 GMT-0400 (Eastern Daylight Time),274923.60000002384,A,sta,I,a,273,1,950.1000000238419,273973.5,9090,WL,B,5.0
2,10.115999937057495,learn,49884.000062942505,Wed Jun 24 2026 15:13:15 GMT-0400 (Eastern Daylight Time),275156.8000000715,A,star,I,r,214,1,1183.3000000715256,273973.5,9090,WL,B,5.0
2,10.799000024795532,learn,49200.99997520447,Wed Jun 24 2026 15:13:15 GMT-0400 (Eastern Daylight Time),275839.8000000715,A,starenter,I,enter,665,1,1866.3000000715256,273973.5,9090,WL,B,5.0
2,11.41700005531311,learn,48582.99994468689,Wed Jun 24 2026 15:13:15 GMT-0400 (Eastern Daylight Time),276457.10000002384,A,s,I,s,598,1,617.0,275840.10000002384,9090,WL,B,6.0
2,11.66700005531311,learn,48332.99994468689,Wed Jun 24 2026 15:13:15 GMT-0400 (Eastern Daylight Time),276707.0,A,st,I,t,233,1,866.8999999761581,275840.10000002384,9090,WL,B,6.0
2,11.91599988937378,learn,48084.00011062622,Wed Jun 24 2026 15:13:15 GMT-0400 (Eastern Daylight Time),276956.60000002384,A,str,I,r,238,1,1116.5,275840.10000002384,9090,WL,B,6.0
2,12.16700005531311,learn,47832.99994468689,Wed Jun 24 2026 15:13:15 GMT-0400 (Eastern Daylight Time),277207.0,A,stre,I,e,226,1,1366.8999999761581,275840.10000002384,9090,WL,B,6.0
2,12.399999856948853,learn,47600.00014305115,Wed Jun 24 2026 15:13:15 GMT-0400 (Eastern Daylight Time),277440.39999997616,A,stree,I,e,219,1,1600.2999999523163,275840.10000002384,9090,WL,B,6.0
2,12.632999897003174,learn,47367.000102996826,Wed Jun 24 2026 15:13:15 GMT-0400 (Eastern Daylight Time),277673.60000002384,A,street,I,t,199,1,1833.5,275840.10000002384,9090,WL,B,6.0
2,13.16599988937378,learn,46834.00011062622,Wed Jun 24 2026 15:13:15 GMT-0400 (Eastern Daylight Time),278206.39999997616,A,streetenter,I,enter,518,1,2366.2999999523163,275840.10000002384,9090,WL,B,6.0
2,13.816999912261963,learn,46183.00008773804,Wed Jun 24 2026 15:13:15 GMT-0400 (Eastern Daylight Time),278857.0,A,g,I,g,630,1,650.1999999284744,278206.8000000715,9090,WL,B,7.0
2,14.066999912261963,learn,45933.00008773804,Wed Jun 24 2026 15:13:15 GMT-0400 (Eastern Daylight Time),279107.0,A,gr,I,r,231,1,900.1999999284744,278206.8000000715,9090,WL,B,7.0
2,14.349999904632568,learn,45650.00009536743,Wed Jun 24 2026 15:13:15 GMT-0400 (Eastern Daylight Time),279390.2000000477,A,gra,I,a,270,1,1183.3999999761581,278206.8000000715,9090,WL,B,7.0
2,14.682999849319458,learn,45317.00015068054,Wed Jun 24 2026 15:13:15 GMT-0400 (Eastern Daylight Time),279723.7000000477,A,gras,I,s,306,1,1516.8999999761581,278206.8000000715,9090,WL,B,7.0
2,14.882999897003174,learn,45117.000102996826,Wed Jun 24 2026 15:13:15 GMT-0400 (Eastern Daylight Time),279923.7000000477,A,grass,I,s,180,1,1716.8999999761581,278206.8000000715,9090,WL,B,7.0
2,15.198999881744385,learn,44801.000118255615,Wed Jun 24 2026 15:13:15 GMT-0400 (Eastern Daylight Time),280239.89999997616,A,grassenter,I,enter,301,1,2033.0999999046326,278206.8000000715,9090,WL,B,7.0
2,15.549999952316284,learn,44450.000047683716,Wed Jun 24 2026 15:13:15 GMT-0400 (Eastern Daylight Time),280590.60000002384,A,w,I,w,340,1,350.39999997615814,280240.2000000477,9090,WL,B,8.0
2,15.866999864578247,learn,44133.00013542175,Wed Jun 24 2026 15:13:15 GMT-0400 (Eastern Daylight Time),280907.0,A,wi,I,i,294,1,666.7999999523163,280240.2000000477,9090,WL,B,8.0
2,16.23300004005432,learn,43766.99995994568,Wed Jun 24 2026 15:13:15 GMT-0400 (Eastern Daylight Time),281273.7000000477,A,win,I,n,341,1,1033.5,280240.2000000477,9090,WL,B,8.0
2,16.566999912261963,learn,43433.00008773804,Wed Jun 24 2026 15:13:15 GMT-0400 (Eastern Daylight Time),281607.10000002384,A,wind,I,d,311,1,1366.8999999761581,280240.2000000477,9090,WL,B,8.0
2,16.76699995994568,learn,43233.00004005432,Wed Jun 24 2026 15:13:15 GMT-0400 (Eastern Daylight Time),281807.10000002384,A,windo,I,o,185,1,1566.8999999761581,280240.2000000477,9090,WL,B,8.0
2,16.950000047683716,learn,43049.999952316284,Wed Jun 24 2026 15:13:15 GMT-0400 (Eastern Daylight Time),281990.3000000715,A,window,I,w,162,1,1750.1000000238419,280240.2000000477,9090,WL,B,8.0
2,17.3989999294281,learn,42601.0000705719,Wed Jun 24 2026 15:13:15 GMT-0400 (Eastern Daylight Time),282439.89999997616,A,windowenter,I,enter,417,1,2199.6999999284744,280240.2000000477,9090,WL,B,8.0
2,17.75,learn,42250.0,Wed Jun 24 2026 15:13:15 GMT-0400 (Eastern Daylight Time),282790.3000000715,A,d,I,d,333,1,350.0,282440.3000000715,9090,WL,B,9.0
2,17.932999849319458,learn,42067.00015068054,Wed Jun 24 2026 15:13:15 GMT-0400 (Eastern Daylight Time),282973.60000002384,A,do,I,o,170,1,533.2999999523163,282440.3000000715,9090,WL,B,9.0
2,18.182999849319458,learn,41817.00015068054,Wed Jun 24 2026 15:13:15 GMT-0400 (Eastern Daylight Time),283223.60000002384,A,doo,I,o,227,1,783.2999999523163,282440.3000000715,9090,WL,B,9.0
2,18.716000080108643,learn,41283.99991989136,Wed Jun 24 2026 15:13:15 GMT-0400 (Eastern Daylight Time),283756.60000002384,A,door,I,r,520,1,1316.2999999523163,282440.3000000715,9090,WL,B,9.0
2,19.1010000705719,learn,40898.9999294281,Wed Jun 24 2026 15:13:15 GMT-0400 (Eastern Daylight Time),284140.89999997616,A,doorenter,I,enter,370,1,1700.5999999046326,282440.3000000715,9090,WL,B,9.0
2,43.73300004005432,learn,16266.999959945679,Wed Jun 24 2026 15:13:15 GMT-0400 (Eastern Daylight Time),308773.7000000477,A,f,I,f,24616,1,24632.399999976158,284141.3000000715,9090,WL,B,10.0
2,44.0,learn,16000.0,Wed Jun 24 2026 15:13:15 GMT-0400 (Eastern Daylight Time),309040.2000000477,A,fi,I,i,251,1,24898.899999976158,284141.3000000715,9090,WL,B,10.0
2,44.25,learn,15750.0,Wed Jun 24 2026 15:13:15 GMT-0400 (Eastern Daylight Time),309290.39999997616,A,fir,I,r,217,1,25149.099999904633,284141.3000000715,9090,WL,B,10.0
2,44.549999952316284,learn,15450.000047683716,Wed Jun 24 2026 15:13:15 GMT-0400 (Eastern Daylight Time),309590.3000000715,A,fire,I,e,272,1,25449.0,284141.3000000715,9090,WL,B,10.0
2,46.26600003242493,learn,13733.999967575073,Wed Jun 24 2026 15:13:15 GMT-0400 (Eastern Daylight Time),311306.39999997616,A,fireenter,I,enter,1689,1,27165.099999904633,284141.3000000715,9090,WL,B,10.0
2,46.58299994468689,learn,13417.00005531311,Wed Jun 24 2026 15:13:15 GMT-0400 (Eastern Daylight Time),311623.7000000477,A,s,I,s,299,1,316.89999997615814,311306.8000000715,9090,WL,B,11.0
2,46.91599988937378,learn,13084.00011062622,Wed Jun 24 2026 15:13:15 GMT-0400 (Eastern Daylight Time),311956.89999997616,A,st,I,t,314,1,650.0999999046326,311306.8000000715,9090,WL,B,11.0
2,47.14999985694885,learn,12850.000143051147,Wed Jun 24 2026 15:13:15 GMT-0400 (Eastern Daylight Time),312190.39999997616,A,sta,I,a,219,1,883.5999999046326,311306.8000000715,9090,WL,B,11.0
2,47.34999990463257,learn,12650.000095367432,Wed Jun 24 2026 15:13:15 GMT-0400 (Eastern Daylight Time),312390.3000000715,A,star,I,r,178,1,1083.5,311306.8000000715,9090,WL,B,11.0
2,47.71600008010864,learn,12283.999919891357,Wed Jun 24 2026 15:13:15 GMT-0400 (Eastern Daylight Time),312756.5,A,starenter,I,enter,337,1,1449.6999999284744,311306.8000000715,9090,WL,B,11.0
2,48.86699986457825,learn,11133.000135421753,Wed Jun 24 2026 15:13:15 GMT-0400 (Eastern Daylight Time),313907.0,A,l,I,l,1136,1,1150.1999999284744,312756.8000000715,9090,WL,B,12.0
2,49.049999952316284,learn,10950.000047683716,Wed Jun 24 2026 15:13:15 GMT-0400 (Eastern Daylight Time),314090.5,A,la,I,a,159,1,1333.6999999284744,312756.8000000715,9090,WL,B,12.0
2,49.382999897003174,learn,10617.000102996826,Wed Jun 24 2026 15:13:15 GMT-0400 (Eastern Daylight Time),314423.60000002384,A,lak,I,k,302,1,1666.7999999523163,312756.8000000715,9090,WL,B,12.0
2,49.549999952316284,learn,10450.000047683716,Wed Jun 24 2026 15:13:15 GMT-0400 (Eastern Daylight Time),314590.2000000477,A,lake,I,e,153,1,1833.3999999761581,312756.8000000715,9090,WL,B,12.0
2,49.882999897003174,learn,10117.000102996826,Wed Jun 24 2026 15:13:15 GMT-0400 (Eastern Daylight Time),314923.2000000477,A,lakeenter,I,enter,305,1,2166.399999976158,312756.8000000715,9090,WL,B,12.0
2,60.01699995994568,learn,-16.99995994567871,Wed Jun 24 2026 15:13:15 GMT-0400 (Eastern Daylight Time),325057.2000000477,A,None,I,None,10127,1,10133.600000023842,314923.60000002384,9090,WL,B,13.0
3,0.6500000953674316,learn,59349.99990463257,Wed Jun 24 2026 15:13:15 GMT-0400 (Eastern Daylight Time),405090.5,A,w,I,w,634,1,649.5,404441.0,9090,WL,B,1.0
3,0.9000000953674316,learn,59099.99990463257,Wed Jun 24 2026 15:13:15 GMT-0400 (Eastern Daylight Time),405340.39999997616,A,wi,I,i,220,1,899.3999999761581,404441.0,9090,WL,B,1.0
3,1.183000087738037,learn,58816.99991226196,Wed Jun 24 2026 15:13:15 GMT-0400 (Eastern Daylight Time),405623.8000000715,A,wif,I,f,260,1,1182.8000000715256,404441.0,9090,WL,B,1.0
3,1.4670000076293945,learn,58532.999992370605,Wed Jun 24 2026 15:13:15 GMT-0400 (Eastern Daylight Time),405907.0,A,wife,I,e,264,1,1466.0,404441.0,9090,WL,B,1.0
3,2.6660001277923584,learn,57333.99987220764,Wed Jun 24 2026 15:13:15 GMT-0400 (Eastern Daylight Time),407106.60000002384,A,wifeenter,I,enter,1182,1,2665.600000023842,404441.0,9090,WL,B,1.0
3,3.0830001831054688,learn,56916.99981689453,Wed Jun 24 2026 15:13:15 GMT-0400 (Eastern Daylight Time),407523.8000000715,A,c,I,c,402,1,416.90000009536743,407106.89999997616,9090,WL,B,2.0
3,3.383000135421753,learn,56616.99986457825,Wed Jun 24 2026 15:13:15 GMT-0400 (Eastern Daylight Time),407823.7000000477,A,ci,I,i,286,1,716.8000000715256,407106.89999997616,9090,WL,B,2.0
3,3.7160000801086426,learn,56283.99991989136,Wed Jun 24 2026 15:13:15 GMT-0400 (Eastern Daylight Time),408156.60000002384,A,cit,I,t,321,1,1049.7000000476837,407106.89999997616,9090,WL,B,2.0
3,4.050000190734863,learn,55949.99980926514,Wed Jun 24 2026 15:13:15 GMT-0400 (Eastern Daylight Time),408490.0,A,city,I,y,310,1,1383.1000000238419,407106.89999997616,9090,WL,B,2.0
3,4.483000040054321,learn,55516.99995994568,Wed Jun 24 2026 15:13:15 GMT-0400 (Eastern Daylight Time),408923.3000000715,A,cityenter,I,enter,410,1,1816.4000000953674,407106.89999997616,9090,WL,B,2.0
3,4.933000087738037,learn,55066.99991226196,Wed Jun 24 2026 15:13:15 GMT-0400 (Eastern Daylight Time),409373.60000002384,A,p,I,p,440,1,449.89999997615814,408923.7000000477,9090,WL,B,3.0
3,5.300000190734863,learn,54699.99980926514,Wed Jun 24 2026 15:13:15 GMT-0400 (Eastern Daylight Time),409740.39999997616,A,pu,I,u,339,1,816.6999999284744,408923.7000000477,9090,WL,B,3.0
3,5.633000135421753,learn,54366.99986457825,Wed Jun 24 2026 15:13:15 GMT-0400 (Eastern Daylight Time),410073.7000000477,A,pup,I,p,308,1,1150.0,408923.7000000477,9090,WL,B,3.0
3,6.0,learn,54000.0,Wed Jun 24 2026 15:13:15 GMT-0400 (Eastern Daylight Time),410440.3000000715,A,pupi,I,i,343,1,1516.6000000238419,408923.7000000477,9090,WL,B,3.0
3,6.333000183105469,learn,53666.99981689453,Wed Jun 24 2026 15:13:15 GMT-0400 (Eastern Daylight Time),410773.60000002384,A,pupil,I,l,312,1,1849.8999999761581,408923.7000000477,9090,WL,B,3.0
3,6.666000127792358,learn,53333.99987220764,Wed Jun 24 2026 15:13:15 GMT-0400 (Eastern Daylight Time),411106.5,A,pupilenter,I,enter,314,1,2182.7999999523163,408923.7000000477,9090,WL,B,3.0
3,7.133000135421753,learn,52866.99986457825,Wed Jun 24 2026 15:13:15 GMT-0400 (Eastern Daylight Time),411573.7000000477,A,c,I,c,450,1,466.8000000715256,411106.89999997616,9090,WL,B,4.0
3,7.4670000076293945,learn,52532.999992370605,Wed Jun 24 2026 15:13:15 GMT-0400 (Eastern Daylight Time),411907.10000002384,A,ca,I,a,317,1,800.2000000476837,411106.89999997616,9090,WL,B,4.0
3,8.050000190734863,learn,51949.99980926514,Wed Jun 24 2026 15:13:15 GMT-0400 (Eastern Daylight Time),412490.39999997616,A,cab,I,b,557,1,1383.5,411106.89999997616,9090,WL,B,4.0
3,8.25,learn,51750.0,Wed Jun 24 2026 15:13:15 GMT-0400 (Eastern Daylight Time),412690.39999997616,A,cabi,I,i,182,1,1583.5,411106.89999997616,9090,WL,B,4.0
3,8.550000190734863,learn,51449.99980926514,Wed Jun 24 2026 15:13:15 GMT-0400 (Eastern Daylight Time),412990.39999997616,A,cabin,I,n,285,1,1883.5,411106.89999997616,9090,WL,B,4.0
3,9.001000165939331,learn,50998.99983406067,Wed Jun 24 2026 15:13:15 GMT-0400 (Eastern Daylight Time),413441.0,A,cabinenter,I,enter,426,1,2334.100000023842,411106.89999997616,9090,WL,B,4.0
3,9.333000183105469,learn,50666.99981689453,Wed Jun 24 2026 15:13:15 GMT-0400 (Eastern Daylight Time),413773.60000002384,A,a,I,a,324,1,332.2999999523163,413441.3000000715,9090,WL,B,5.0
3,9.733000040054321,learn,50266.99995994568,Wed Jun 24 2026 15:13:15 GMT-0400 (Eastern Daylight Time),414173.5,A,ar,I,r,386,1,732.1999999284744,413441.3000000715,9090,WL,B,5.0
3,10.083000183105469,learn,49916.99981689453,Wed Jun 24 2026 15:13:15 GMT-0400 (Eastern Daylight Time),414523.7000000477,A,arm,I,m,323,1,1082.3999999761581,413441.3000000715,9090,WL,B,5.0
3,10.56600022315979,learn,49433.99977684021,Wed Jun 24 2026 15:13:15 GMT-0400 (Eastern Daylight Time),415006.5,A,armenter,I,enter,467,1,1565.1999999284744,413441.3000000715,9090,WL,B,5.0
3,10.916000127792358,learn,49083.99987220764,Wed Jun 24 2026 15:13:15 GMT-0400 (Eastern Daylight Time),415356.7000000477,A,s,I,s,342,1,349.8000000715256,415006.89999997616,9090,WL,B,6.0
3,11.200000047683716,learn,48799.999952316284,Wed Jun 24 2026 15:13:15 GMT-0400 (Eastern Daylight Time),415640.3000000715,A,sk,I,k,259,1,633.4000000953674,415006.89999997616,9090,WL,B,6.0
3,11.5,learn,48500.0,Wed Jun 24 2026 15:13:15 GMT-0400 (Eastern Daylight Time),415940.3000000715,A,ski,I,i,282,1,933.4000000953674,415006.89999997616,9090,WL,B,6.0
3,11.833000183105469,learn,48166.99981689453,Wed Jun 24 2026 15:13:15 GMT-0400 (Eastern Daylight Time),416273.7000000477,A,skin,I,n,317,1,1266.8000000715256,415006.89999997616,9090,WL,B,6.0
3,12.282999992370605,learn,47717.000007629395,Wed Jun 24 2026 15:13:15 GMT-0400 (Eastern Daylight Time),416723.2000000477,A,skinenter,I,enter,429,1,1716.3000000715256,415006.89999997616,9090,WL,B,6.0
3,14.317000150680542,learn,45682.99984931946,Wed Jun 24 2026 15:13:15 GMT-0400 (Eastern Daylight Time),418757.0,A,s,I,s,2018,1,2033.3999999761581,416723.60000002384,9090,WL,B,7.0
3,14.617000102996826,learn,45382.999897003174,Wed Jun 24 2026 15:13:15 GMT-0400 (Eastern Daylight Time),419057.0,A,st,I,t,282,1,2333.399999976158,416723.60000002384,9090,WL,B,7.0
3,14.883000135421753,learn,45116.99986457825,Wed Jun 24 2026 15:13:15 GMT-0400 (Eastern Daylight Time),419323.60000002384,A,str,I,r,241,1,2600.0,416723.60000002384,9090,WL,B,7.0
3,15.333000183105469,learn,44666.99981689453,Wed Jun 24 2026 15:13:15 GMT-0400 (Eastern Daylight Time),419773.5,A,stre,I,e,439,1,3049.899999976158,416723.60000002384,9090,WL,B,7.0
3,15.683000087738037,learn,44316.99991226196,Wed Jun 24 2026 15:13:15 GMT-0400 (Eastern Daylight Time),420123.60000002384,A,stree,I,e,323,1,3400.0,416723.60000002384,9090,WL,B,7.0
3,16.48300004005432,learn,43516.99995994568,Wed Jun 24 2026 15:13:15 GMT-0400 (Eastern Daylight Time),420923.8000000715,A,street,I,t,773,1,4200.200000047684,416723.60000002384,9090,WL,B,7.0
3,16.883000135421753,learn,43116.99986457825,Wed Jun 24 2026 15:13:15 GMT-0400 (Eastern Daylight Time),421323.39999997616,A,streetenter,I,enter,388,1,4599.799999952316,416723.60000002384,9090,WL,B,7.0
3,17.267000198364258,learn,42732.99980163574,Wed Jun 24 2026 15:13:15 GMT-0400 (Eastern Daylight Time),421707.0,A,p,I,p,360,1,383.2999999523163,421323.7000000477,9090,WL,B,8.0
3,17.633000135421753,learn,42366.99986457825,Wed Jun 24 2026 15:13:15 GMT-0400 (Eastern Daylight Time),422073.60000002384,A,pi,I,i,344,1,749.8999999761581,421323.7000000477,9090,WL,B,8.0
3,18.300000190734863,learn,41699.99980926514,Wed Jun 24 2026 15:13:15 GMT-0400 (Eastern Daylight Time),422740.39999997616,A,pio,I,o,649,1,1416.6999999284744,421323.7000000477,9090,WL,B,8.0
3,19.032999992370605,learn,40967.000007629395,Wed Jun 24 2026 15:13:15 GMT-0400 (Eastern Daylight Time),423473.7000000477,A,pi,I,backspace,715,1,2150.0,421323.7000000477,9090,WL,B,8.0
3,19.41700005531311,learn,40582.99994468689,Wed Jun 24 2026 15:13:15 GMT-0400 (Eastern Daylight Time),423857.10000002384,A,pip,I,p,368,1,2533.399999976158,421323.7000000477,9090,WL,B,8.0
3,19.65000009536743,learn,40349.99990463257,Wed Jun 24 2026 15:13:15 GMT-0400 (Eastern Daylight Time),424090.5,A,pipe,I,e,207,1,2766.7999999523163,421323.7000000477,9090,WL,B,8.0
3,19.966000080108643,learn,40033.99991989136,Wed Jun 24 2026 15:13:15 GMT-0400 (Eastern Daylight Time),424406.5,A,pipeenter,I,enter,293,1,3082.7999999523163,421323.7000000477,9090,WL,B,8.0
3,21.15000009536743,learn,38849.99990463257,Wed Jun 24 2026 15:13:15 GMT-0400 (Eastern Daylight Time),425590.2000000477,A,g,I,g,1167,1,1183.3000000715256,424406.89999997616,9090,WL,B,9.0
3,21.433000087738037,learn,38566.99991226196,Wed Jun 24 2026 15:13:15 GMT-0400 (Eastern Daylight Time),425873.7000000477,A,gr,I,r,266,1,1466.8000000715256,424406.89999997616,9090,WL,B,9.0
3,21.73300004005432,learn,38266.99995994568,Wed Jun 24 2026 15:13:15 GMT-0400 (Eastern Daylight Time),426173.60000002384,A,gra,I,a,288,1,1766.7000000476837,424406.89999997616,9090,WL,B,9.0
3,22.050000190734863,learn,37949.99980926514,Wed Jun 24 2026 15:13:15 GMT-0400 (Eastern Daylight Time),426490.39999997616,A,gras,I,s,292,1,2083.5,424406.89999997616,9090,WL,B,9.0
3,22.25,learn,37750.0,Wed Jun 24 2026 15:13:15 GMT-0400 (Eastern Daylight Time),426690.3000000715,A,grass,I,s,181,1,2283.4000000953674,424406.89999997616,9090,WL,B,9.0
3,22.683000087738037,learn,37316.99991226196,Wed Jun 24 2026 15:13:15 GMT-0400 (Eastern Daylight Time),427123.3000000715,A,grassenter,I,enter,415,1,2716.4000000953674,424406.89999997616,9090,WL,B,9.0
3,23.117000102996826,learn,36882.999897003174,Wed Jun 24 2026 15:13:15 GMT-0400 (Eastern Daylight Time),427557.0,A,w,I,w,418,1,433.39999997615814,427123.60000002384,9090,WL,B,10.0
3,23.33300018310547,learn,36666.99981689453,Wed Jun 24 2026 15:13:15 GMT-0400 (Eastern Daylight Time),427773.60000002384,A,wi,I,i,202,1,650.0,427123.60000002384,9090,WL,B,10.0
3,23.633000135421753,learn,36366.99986457825,Wed Jun 24 2026 15:13:15 GMT-0400 (Eastern Daylight Time),428073.7000000477,A,win,I,n,270,1,950.1000000238419,427123.60000002384,9090,WL,B,10.0
3,23.883000135421753,learn,36116.99986457825,Wed Jun 24 2026 15:13:15 GMT-0400 (Eastern Daylight Time),428323.8000000715,A,wind,I,d,231,1,1200.2000000476837,427123.60000002384,9090,WL,B,10.0
3,24.300000190734863,learn,35699.99980926514,Wed Jun 24 2026 15:13:15 GMT-0400 (Eastern Daylight Time),428740.39999997616,A,windo,I,o,398,1,1616.7999999523163,427123.60000002384,9090,WL,B,10.0
3,24.516000032424927,learn,35483.99996757507,Wed Jun 24 2026 15:13:15 GMT-0400 (Eastern Daylight Time),428956.7000000477,A,window,I,w,203,1,1833.1000000238419,427123.60000002384,9090,WL,B,10.0
3,24.98300004005432,learn,35016.99995994568,Wed Jun 24 2026 15:13:15 GMT-0400 (Eastern Daylight Time),429423.2000000477,A,windowenter,I,enter,451,1,2299.600000023842,427123.60000002384,9090,WL,B,10.0
3,25.40000009536743,learn,34599.99990463257,Wed Jun 24 2026 15:13:15 GMT-0400 (Eastern Daylight Time),429840.3000000715,A,d,I,d,406,1,416.7000000476837,429423.60000002384,9090,WL,B,11.0
3,25.617000102996826,learn,34382.999897003174,Wed Jun 24 2026 15:13:15 GMT-0400 (Eastern Daylight Time),430057.0,A,do,I,o,192,1,633.3999999761581,429423.60000002384,9090,WL,B,11.0
3,25.867000102996826,learn,34132.999897003174,Wed Jun 24 2026 15:13:15 GMT-0400 (Eastern Daylight Time),430307.10000002384,A,doo,I,o,231,1,883.5,429423.60000002384,9090,WL,B,11.0
3,26.16700005531311,learn,33832.99994468689,Wed Jun 24 2026 15:13:15 GMT-0400 (Eastern Daylight Time),430607.0,A,door,I,r,277,1,1183.3999999761581,429423.60000002384,9090,WL,B,11.0
3,26.766000032424927,learn,33233.99996757507,Wed Jun 24 2026 15:13:15 GMT-0400 (Eastern Daylight Time),431206.60000002384,A,doorenter,I,enter,575,1,1783.0,429423.60000002384,9090,WL,B,11.0
3,30.58300018310547,learn,29416.99981689453,Wed Jun 24 2026 15:13:15 GMT-0400 (Eastern Daylight Time),435023.7000000477,A,c,I,c,3805,1,3816.7000000476837,431207.0,9090,WL,B,12.0
3,30.767000198364258,learn,29232.999801635742,Wed Jun 24 2026 15:13:15 GMT-0400 (Eastern Daylight Time),435207.0,A,cl,I,l,160,1,4000.0,431207.0,9090,WL,B,12.0
3,31.067000150680542,learn,28932.999849319458,Wed Jun 24 2026 15:13:15 GMT-0400 (Eastern Daylight Time),435507.10000002384,A,clo,I,o,283,1,4300.100000023842,431207.0,9090,WL,B,12.0
3,31.25,learn,28750.0,Wed Jun 24 2026 15:13:15 GMT-0400 (Eastern Daylight Time),435690.39999997616,A,cloc,I,c,156,1,4483.399999976158,431207.0,9090,WL,B,12.0
3,31.467000007629395,learn,28532.999992370605,Wed Jun 24 2026 15:13:15 GMT-0400 (Eastern Daylight Time),435907.0,A,clock,I,k,200,1,4700.0,431207.0,9090,WL,B,12.0
3,31.883000135421753,learn,28116.999864578247,Wed Jun 24 2026 15:13:15 GMT-0400 (Eastern Daylight Time),436323.2000000477,A,clockenter,I,enter,398,1,5116.200000047684,431207.0,9090,WL,B,12.0
3,37.282999992370605,learn,22717.000007629395,Wed Jun 24 2026 15:13:15 GMT-0400 (Eastern Daylight Time),441723.7000000477,A,p,I,p,5378,1,5400.200000047684,436323.5,9090,WL,B,13.0
3,37.58300018310547,learn,22416.99981689453,Wed Jun 24 2026 15:13:15 GMT-0400 (Eastern Daylight Time),442023.7000000477,A,pi,I,i,276,1,5700.200000047684,436323.5,9090,WL,B,13.0
3,37.85000014305115,learn,22149.999856948853,Wed Jun 24 2026 15:13:15 GMT-0400 (Eastern Daylight Time),442290.39999997616,A,pip,I,p,248,1,5966.899999976158,436323.5,9090,WL,B,13.0
3,38.05000019073486,learn,21949.999809265137,Wed Jun 24 2026 15:13:15 GMT-0400 (Eastern Daylight Time),442490.39999997616,A,pipe,I,e,174,1,6166.899999976158,436323.5,9090,WL,B,13.0
3,38.31700015068054,learn,21682.999849319458,Wed Jun 24 2026 15:13:15 GMT-0400 (Eastern Daylight Time),442757.7000000477,A,pipeenter,I,enter,245,1,6434.200000047684,436323.5,9090,WL,B,13.0
3,59.717000007629395,learn,282.99999237060547,Wed Jun 24 2026 15:13:15 GMT-0400 (Eastern Daylight Time),464157.0,A,s,I,s,21376,1,21399.0,442758.0,9090,WL,B,14.0
3,60.01700019836426,learn,-17.000198364257812,Wed Jun 24 2026 15:13:15 GMT-0400 (Eastern Daylight Time),464457.2000000477,A,sNone,I,None,288,1,21699.200000047684,442758.0,9090,WL,B,14.0
4,1.1170001029968262,learn,58882.999897003174,Wed Jun 24 2026 15:13:15 GMT-0400 (Eastern Daylight Time),535557.1000000238,A,w,I,w,1098,1,1116.1000000238419,534441.0,9090,WL,B,1.0
4,1.4000000953674316,learn,58599.99990463257,Wed Jun 24 2026 15:13:15 GMT-0400 (Eastern Daylight Time),535840.3999999762,A,wi,I,i,269,1,1399.3999999761581,534441.0,9090,WL,B,1.0
4,1.7829999923706055,learn,58217.000007629395,Wed Jun 24 2026 15:13:15 GMT-0400 (Eastern Daylight Time),536223.6000000238,A,wif,I,f,368,1,1782.6000000238419,534441.0,9090,WL,B,1.0
4,2.0500001907348633,learn,57949.99980926514,Wed Jun 24 2026 15:13:15 GMT-0400 (Eastern Daylight Time),536490.3999999762,A,wife,I,e,241,1,2049.399999976158,534441.0,9090,WL,B,1.0
4,2.6510000228881836,learn,57348.99997711182,Wed Jun 24 2026 15:13:15 GMT-0400 (Eastern Daylight Time),537091.1000000238,A,wifeenter,I,enter,583,1,2650.100000023842,534441.0,9090,WL,B,1.0
4,3.067000150680542,learn,56932.99984931946,Wed Jun 24 2026 15:13:15 GMT-0400 (Eastern Daylight Time),537507.3000000715,A,c,I,c,402,1,415.90000009536743,537091.3999999762,9090,WL,B,2.0
4,3.3000001907348633,learn,56699.99980926514,Wed Jun 24 2026 15:13:15 GMT-0400 (Eastern Daylight Time),537740.3000000715,A,ci,I,i,221,1,648.9000000953674,537091.3999999762,9090,WL,B,2.0
4,3.633000135421753,learn,56366.99986457825,Wed Jun 24 2026 15:13:15 GMT-0400 (Eastern Daylight Time),538073.7000000477,A,cit,I,t,310,1,982.3000000715256,537091.3999999762,9090,WL,B,2.0
4,3.8500001430511475,learn,56149.99985694885,Wed Jun 24 2026 15:13:15 GMT-0400 (Eastern Daylight Time),538290.3999999762,A,city,I,y,199,1,1199.0,537091.3999999762,9090,WL,B,2.0
4,4.266000032424927,learn,55733.99996757507,Wed Jun 24 2026 15:13:15 GMT-0400 (Eastern Daylight Time),538706.6000000238,A,cityenter,I,enter,396,1,1615.2000000476837,537091.3999999762,9090,WL,B,2.0
4,5.2170000076293945,learn,54782.999992370605,Wed Jun 24 2026 15:13:15 GMT-0400 (Eastern Daylight Time),539657.1000000238,A,p,I,p,930,1,950.1000000238419,538707.0,9090,WL,B,3.0
4,5.5,learn,54500.0,Wed Jun 24 2026 15:13:15 GMT-0400 (Eastern Daylight Time),539940.3999999762,A,pu,I,u,263,1,1233.3999999761581,538707.0,9090,WL,B,3.0
4,5.8500001430511475,learn,54149.99985694885,Wed Jun 24 2026 15:13:15 GMT-0400 (Eastern Daylight Time),540290.3999999762,A,pup,I,p,331,1,1583.3999999761581,538707.0,9090,WL,B,3.0
4,6.16700005531311,learn,53832.99994468689,Wed Jun 24 2026 15:13:15 GMT-0400 (Eastern Daylight Time),540607.0,A,pupi,I,i,302,1,1900.0,538707.0,9090,WL,B,3.0
4,6.516000032424927,learn,53483.99996757507,Wed Jun 24 2026 15:13:15 GMT-0400 (Eastern Daylight Time),540956.8999999762,A,pupil,I,l,323,1,2249.899999976158,538707.0,9090,WL,B,3.0
4,7.0,learn,53000.0,Wed Jun 24 2026 15:13:15 GMT-0400 (Eastern Daylight Time),541440.0,A,pupilenter,I,enter,466,1,2733.0,538707.0,9090,WL,B,3.0
4,7.383000135421753,learn,52616.99986457825,Wed Jun 24 2026 15:13:15 GMT-0400 (Eastern Daylight Time),541823.7000000477,A,c,I,c,372,1,383.39999997615814,541440.3000000715,9090,WL,B,4.0
4,7.633000135421753,learn,52366.99986457825,Wed Jun 24 2026 15:13:15 GMT-0400 (Eastern Daylight Time),542073.7000000477,A,ca,I,a,225,1,633.3999999761581,541440.3000000715,9090,WL,B,4.0
4,8.100000143051147,learn,51899.99985694885,Wed Jun 24 2026 15:13:15 GMT-0400 (Eastern Daylight Time),542540.5,A,cab,I,b,431,1,1100.1999999284744,541440.3000000715,9090,WL,B,4.0
4,8.400000095367432,learn,51599.99990463257,Wed Jun 24 2026 15:13:15 GMT-0400 (Eastern Daylight Time),542840.3999999762,A,cabi,I,i,277,1,1400.0999999046326,541440.3000000715,9090,WL,B,4.0
4,8.767000198364258,learn,51232.99980163574,Wed Jun 24 2026 15:13:15 GMT-0400 (Eastern Daylight Time),543207.0,A,cabin,I,n,343,1,1766.6999999284744,541440.3000000715,9090,WL,B,4.0
4,9.166000127792358,learn,50833.99987220764,Wed Jun 24 2026 15:13:15 GMT-0400 (Eastern Daylight Time),543606.6000000238,A,cabinenter,I,enter,378,1,2166.2999999523163,541440.3000000715,9090,WL,B,4.0
4,9.933000087738037,learn,50066.99991226196,Wed Jun 24 2026 15:13:15 GMT-0400 (Eastern Daylight Time),544373.7000000477,A,w,I,w,751,1,766.7000000476837,543607.0,9090,WL,B,5.0
4,10.217000007629395,learn,49782.999992370605,Wed Jun 24 2026 15:13:15 GMT-0400 (Eastern Daylight Time),544657.1000000238,A,wi,I,i,266,1,1050.1000000238419,543607.0,9090,WL,B,5.0
4,10.516000032424927,learn,49483.99996757507,Wed Jun 24 2026 15:13:15 GMT-0400 (Eastern Daylight Time),544956.7000000477,A,win,I,n,288,1,1349.7000000476837,543607.0,9090,WL,B,5.0
4,10.767000198364258,learn,49232.99980163574,Wed Jun 24 2026 15:13:15 GMT-0400 (Eastern Daylight Time),545207.1000000238,A,wind,I,d,230,1,1600.1000000238419,543607.0,9090,WL,B,5.0
4,10.983000040054321,learn,49016.99995994568,Wed Jun 24 2026 15:13:15 GMT-0400 (Eastern Daylight Time),545423.7000000477,A,windo,I,o,202,1,1816.7000000476837,543607.0,9090,WL,B,5.0
4,11.267000198364258,learn,48732.99980163574,Wed Jun 24 2026 15:13:15 GMT-0400 (Eastern Daylight Time),545707.1000000238,A,windoe,I,e,247,1,2100.100000023842,543607.0,9090,WL,B,5.0
4,11.683000087738037,learn,48316.99991226196,Wed Jun 24 2026 15:13:15 GMT-0400 (Eastern Daylight Time),546123.7000000477,A,windo,I,backspace,389,1,2516.7000000476837,543607.0,9090,WL,B,5.0
4,11.850000143051147,learn,48149.99985694885,Wed Jun 24 2026 15:13:15 GMT-0400 (Eastern Daylight Time),546290.5,A,window,I,w,150,1,2683.5,543607.0,9090,WL,B,5.0
4,12.133000135421753,learn,47866.99986457825,Wed Jun 24 2026 15:13:15 GMT-0400 (Eastern Daylight Time),546573.3000000715,A,windowenter,I,enter,261,1,2966.3000000715256,543607.0,9090,WL,B,5.0
4,12.516000032424927,learn,47483.99996757507,Wed Jun 24 2026 15:13:15 GMT-0400 (Eastern Daylight Time),546956.8000000715,A,d,I,d,376,1,383.3000000715256,546573.5,9090,WL,B,6.0
4,12.683000087738037,learn,47316.99991226196,Wed Jun 24 2026 15:13:15 GMT-0400 (Eastern Daylight Time),547123.8000000715,A,do,I,o,148,1,550.3000000715256,546573.5,9090,WL,B,6.0
4,12.916000127792358,learn,47083.99987220764,Wed Jun 24 2026 15:13:15 GMT-0400 (Eastern Daylight Time),547356.7000000477,A,doo,I,o,221,1,783.2000000476837,546573.5,9090,WL,B,6.0
4,13.133000135421753,learn,46866.99986457825,Wed Jun 24 2026 15:13:15 GMT-0400 (Eastern Daylight Time),547573.7000000477,A,door,I,r,197,1,1000.2000000476837,546573.5,9090,WL,B,6.0
4,13.532999992370605,learn,46467.000007629395,Wed Jun 24 2026 15:13:15 GMT-0400 (Eastern Daylight Time),547973.3000000715,A,doorenter,I,enter,380,1,1399.8000000715256,546573.5,9090,WL,B,6.0
4,14.717000007629395,learn,45282.999992370605,Wed Jun 24 2026 15:13:15 GMT-0400 (Eastern Daylight Time),549157.0,A,g,I,g,1168,1,1183.3999999761581,547973.6000000238,9090,WL,B,7.0
4,14.967000007629395,learn,45032.999992370605,Wed Jun 24 2026 15:13:15 GMT-0400 (Eastern Daylight Time),549407.1000000238,A,gr,I,r,236,1,1433.5,547973.6000000238,9090,WL,B,7.0
4,15.267000198364258,learn,44732.99980163574,Wed Jun 24 2026 15:13:15 GMT-0400 (Eastern Daylight Time),549707.1000000238,A,gra,I,a,273,1,1733.5,547973.6000000238,9090,WL,B,7.0
4,15.600000143051147,learn,44399.99985694885,Wed Jun 24 2026 15:13:15 GMT-0400 (Eastern Daylight Time),550040.5,A,gras,I,s,309,1,2066.899999976158,547973.6000000238,9090,WL,B,7.0
4,15.767000198364258,learn,44232.99980163574,Wed Jun 24 2026 15:13:15 GMT-0400 (Eastern Daylight Time),550207.0,A,grass,I,s,153,1,2233.399999976158,547973.6000000238,9090,WL,B,7.0
4,16.216000080108643,learn,43783.99991989136,Wed Jun 24 2026 15:13:15 GMT-0400 (Eastern Daylight Time),550656.6000000238,A,grassenter,I,enter,433,1,2683.0,547973.6000000238,9090,WL,B,7.0
4,17.25,learn,42750.0,Wed Jun 24 2026 15:13:15 GMT-0400 (Eastern Daylight Time),551690.3000000715,A,s,I,s,1012,1,1033.3000000715256,550657.0,9090,WL,B,8.0
4,17.782999992370605,learn,42217.000007629395,Wed Jun 24 2026 15:13:15 GMT-0400 (Eastern Daylight Time),552223.7000000477,A,st,I,t,519,1,1566.7000000476837,550657.0,9090,WL,B,8.0
4,18.08300018310547,learn,41916.99981689453,Wed Jun 24 2026 15:13:15 GMT-0400 (Eastern Daylight Time),552523.6000000238,A,str,I,r,272,1,1866.6000000238419,550657.0,9090,WL,B,8.0
4,19.25,learn,40750.0,Wed Jun 24 2026 15:13:15 GMT-0400 (Eastern Daylight Time),553690.3999999762,A,stre,I,e,1142,1,3033.399999976158,550657.0,9090,WL,B,8.0
4,19.48300004005432,learn,40516.99995994568,Wed Jun 24 2026 15:13:15 GMT-0400 (Eastern Daylight Time),553923.7000000477,A,stree,I,e,214,1,3266.7000000476837,550657.0,9090,WL,B,8.0
4,19.800000190734863,learn,40199.99980926514,Wed Jun 24 2026 15:13:15 GMT-0400 (Eastern Daylight Time),554240.3999999762,A,street,I,t,301,1,3583.399999976158,550657.0,9090,WL,B,8.0
4,20.48300004005432,learn,39516.99995994568,Wed Jun 24 2026 15:13:15 GMT-0400 (Eastern Daylight Time),554923.5,A,streetenter,I,enter,673,1,4266.5,550657.0,9090,WL,B,8.0
4,21.350000143051147,learn,38649.99985694885,Wed Jun 24 2026 15:13:15 GMT-0400 (Eastern Daylight Time),555790.3999999762,A,p,I,p,857,1,866.5999999046326,554923.8000000715,9090,WL,B,9.0
4,21.683000087738037,learn,38316.99991226196,Wed Jun 24 2026 15:13:15 GMT-0400 (Eastern Daylight Time),556123.7000000477,A,pi,I,i,308,1,1199.8999999761581,554923.8000000715,9090,WL,B,9.0
4,21.933000087738037,learn,38066.99991226196,Wed Jun 24 2026 15:13:15 GMT-0400 (Eastern Daylight Time),556373.8000000715,A,pip,I,p,230,1,1450.0,554923.8000000715,9090,WL,B,9.0
4,22.183000087738037,learn,37816.99991226196,Wed Jun 24 2026 15:13:15 GMT-0400 (Eastern Daylight Time),556623.8000000715,A,pipe,I,e,235,1,1700.0,554923.8000000715,9090,WL,B,9.0
4,22.466000080108643,learn,37533.99991989136,Wed Jun 24 2026 15:13:15 GMT-0400 (Eastern Daylight Time),556906.6000000238,A,pipeenter,I,enter,256,1,1982.7999999523163,554923.8000000715,9090,WL,B,9.0
4,22.850000143051147,learn,37149.99985694885,Wed Jun 24 2026 15:13:15 GMT-0400 (Eastern Daylight Time),557290.3999999762,A,l,I,l,363,1,383.39999997615814,556907.0,9090,WL,B,10.0
4,23.300000190734863,learn,36699.99980926514,Wed Jun 24 2026 15:13:15 GMT-0400 (Eastern Daylight Time),557740.3999999762,A,la,I,a,422,1,833.3999999761581,556907.0,9090,WL,B,10.0
4,23.517000198364258,learn,36482.99980163574,Wed Jun 24 2026 15:13:15 GMT-0400 (Eastern Daylight Time),557957.0,A,lak,I,k,198,1,1050.0,556907.0,9090,WL,B,10.0
4,23.75,learn,36250.0,Wed Jun 24 2026 15:13:15 GMT-0400 (Eastern Daylight Time),558190.3000000715,A,lake,I,e,219,1,1283.3000000715256,556907.0,9090,WL,B,10.0
4,24.41600012779236,learn,35583.99987220764,Wed Jun 24 2026 15:13:15 GMT-0400 (Eastern Daylight Time),558856.6000000238,A,lakeenter,I,enter,643,1,1949.6000000238419,556907.0,9090,WL,B,10.0
4,25.467000007629395,learn,34532.999992370605,Wed Jun 24 2026 15:13:15 GMT-0400 (Eastern Daylight Time),559907.1000000238,A,s,I,s,1036,1,1050.1000000238419,558857.0,9090,WL,B,11.0
4,25.800000190734863,learn,34199.99980926514,Wed Jun 24 2026 15:13:15 GMT-0400 (Eastern Daylight Time),560240.5,A,st,I,t,318,1,1383.5,558857.0,9090,WL,B,11.0
4,26.100000143051147,learn,33899.99985694885,Wed Jun 24 2026 15:13:15 GMT-0400 (Eastern Daylight Time),560540.3999999762,A,sta,I,a,272,1,1683.3999999761581,558857.0,9090,WL,B,11.0
4,26.367000102996826,learn,33632.999897003174,Wed Jun 24 2026 15:13:15 GMT-0400 (Eastern Daylight Time),560807.1000000238,A,star,I,r,245,1,1950.1000000238419,558857.0,9090,WL,B,11.0
4,27.0,learn,33000.0,Wed Jun 24 2026 15:13:15 GMT-0400 (Eastern Daylight Time),561439.8999999762,A,starenter,I,enter,617,1,2582.899999976158,558857.0,9090,WL,B,11.0
4,28.90000009536743,learn,31099.99990463257,Wed Jun 24 2026 15:13:15 GMT-0400 (Eastern Daylight Time),563340.3999999762,A,a,I,a,1877,1,1900.0,561440.3999999762,9090,WL,B,12.0
4,29.133000135421753,learn,30866.999864578247,Wed Jun 24 2026 15:13:15 GMT-0400 (Eastern Daylight Time),563573.7000000477,A,ar,I,r,211,1,2133.3000000715256,561440.3999999762,9090,WL,B,12.0
4,31.883000135421753,learn,28116.999864578247,Wed Jun 24 2026 15:13:15 GMT-0400 (Eastern Daylight Time),566323.8000000715,A,arm,I,m,2731,1,4883.400000095367,561440.3999999762,9090,WL,B,12.0
4,32.56600022315979,learn,27433.99977684021,Wed Jun 24 2026 15:13:15 GMT-0400 (Eastern Daylight Time),567006.6000000238,A,armenter,I,enter,668,1,5566.200000047684,561440.3999999762,9090,WL,B,12.0
4,33.26700019836426,learn,26732.999801635742,Wed Jun 24 2026 15:13:15 GMT-0400 (Eastern Daylight Time),567707.1000000238,A,s,I,s,679,1,700.2000000476837,567006.8999999762,9090,WL,B,13.0
4,33.617000102996826,learn,26382.999897003174,Wed Jun 24 2026 15:13:15 GMT-0400 (Eastern Daylight Time),568057.1000000238,A,sk,I,k,324,1,1050.2000000476837,567006.8999999762,9090,WL,B,13.0
4,33.867000102996826,learn,26132.999897003174,Wed Jun 24 2026 15:13:15 GMT-0400 (Eastern Daylight Time),568307.1000000238,A,ski,I,i,231,1,1300.2000000476837,567006.8999999762,9090,WL,B,13.0
4,34.31700015068054,learn,25682.999849319458,Wed Jun 24 2026 15:13:15 GMT-0400 (Eastern Daylight Time),568757.2000000477,A,skin,I,n,421,1,1750.3000000715256,567006.8999999762,9090,WL,B,13.0
4,34.782999992370605,learn,25217.000007629395,Wed Jun 24 2026 15:13:15 GMT-0400 (Eastern Daylight Time),569223.3000000715,A,skinenter,I,enter,442,1,2216.4000000953674,567006.8999999762,9090,WL,B,13.0
4,38.76700019836426,learn,21232.999801635742,Wed Jun 24 2026 15:13:15 GMT-0400 (Eastern Daylight Time),573207.0,A,c,I,c,3966,1,3983.399999976158,569223.6000000238,9090,WL,B,14.0
4,39.01700019836426,learn,20982.999801635742,Wed Jun 24 2026 15:13:15 GMT-0400 (Eastern Daylight Time),573457.1000000238,A,cl,I,l,233,1,4233.5,569223.6000000238,9090,WL,B,14.0
4,39.31600022315979,learn,20683.99977684021,Wed Jun 24 2026 15:13:15 GMT-0400 (Eastern Daylight Time),573756.7000000477,A,clo,I,o,289,1,4533.100000023842,569223.6000000238,9090,WL,B,14.0
4,39.56700015068054,learn,20432.999849319458,Wed Jun 24 2026 15:13:15 GMT-0400 (Eastern Daylight Time),574007.1000000238,A,cloc,I,c,228,1,4783.5,569223.6000000238,9090,WL,B,14.0
4,39.782999992370605,learn,20217.000007629395,Wed Jun 24 2026 15:13:15 GMT-0400 (Eastern Daylight Time),574223.7000000477,A,clock,I,k,193,1,5000.100000023842,569223.6000000238,9090,WL,B,14.0
4,40.200000047683716,learn,19799.999952316284,Wed Jun 24 2026 15:13:15 GMT-0400 (Eastern Daylight Time),574639.8999999762,A,clockenter,I,enter,393,1,5416.299999952316,569223.6000000238,9090,WL,B,14.0
4,44.41600012779236,learn,15583.999872207642,Wed Jun 24 2026 15:13:15 GMT-0400 (Eastern Daylight Time),578856.6000000238,A,enter,I,enter,4196,1,4216.299999952316,574640.3000000715,9090,WL,B,15.0
5,1.0500001907348633,learn,60000.0,Wed Jun 24 2026 15:13:15 GMT-0400 (Eastern Daylight Time),653707.5,A,w,I,w,1026,1,1049.6999999284744,652657.8000000715,9090,WL,B,1.0
5,1.3000001907348633,learn,60000.0,Wed Jun 24 2026 15:13:15 GMT-0400 (Eastern Daylight Time),653957.1000000238,A,wi,I,i,230,1,1299.2999999523163,652657.8000000715,9090,WL,B,1.0
5,1.9500000476837158,learn,60000.0,Wed Jun 24 2026 15:13:15 GMT-0400 (Eastern Daylight Time),654607.1000000238,A,wif,I,f,635,1,1949.2999999523163,652657.8000000715,9090,WL,B,1.0
5,2.2330000400543213,learn,60000.0,Wed Jun 24 2026 15:13:15 GMT-0400 (Eastern Daylight Time),654890.3999999762,A,wife,I,e,260,1,2232.5999999046326,652657.8000000715,9090,WL,B,1.0
5,2.4830000400543213,learn,60000.0,Wed Jun 24 2026 15:13:15 GMT-0400 (Eastern Daylight Time),655139.8999999762,A,wifeenter,I,enter,229,1,2482.0999999046326,652657.8000000715,9090,WL,B,1.0
5,2.8330001831054688,learn,60000.0,Wed Jun 24 2026 15:13:15 GMT-0400 (Eastern Daylight Time),655490.5,A,c,I,c,337,1,350.10000002384186,655140.3999999762,9090,WL,B,2.0
5,3.133000135421753,learn,60000.0,Wed Jun 24 2026 15:13:15 GMT-0400 (Eastern Daylight Time),655790.3999999762,A,ci,I,i,287,1,650.0,655140.3999999762,9090,WL,B,2.0
5,3.4000000953674316,learn,60000.0,Wed Jun 24 2026 15:13:15 GMT-0400 (Eastern Daylight Time),656057.0,A,cit,I,t,242,1,916.6000000238419,655140.3999999762,9090,WL,B,2.0
5,3.565999984741211,learn,60000.0,Wed Jun 24 2026 15:13:15 GMT-0400 (Eastern Daylight Time),656223.6000000238,A,city,I,y,150,1,1083.2000000476837,655140.3999999762,9090,WL,B,2.0
5,4.016000032424927,learn,60000.0,Wed Jun 24 2026 15:13:15 GMT-0400 (Eastern Daylight Time),656673.3000000715,A,cityenter,I,enter,433,1,1532.9000000953674,655140.3999999762,9090,WL,B,2.0
5,4.800000190734863,learn,60000.0,Wed Jun 24 2026 15:13:15 GMT-0400 (Eastern Daylight Time),657457.1000000238,A,p,I,p,772,1,783.3999999761581,656673.7000000477,9090,WL,B,3.0
5,5.0990002155303955,learn,60000.0,Wed Jun 24 2026 15:13:15 GMT-0400 (Eastern Daylight Time),657756.8000000715,A,pu,I,u,288,1,1083.1000000238419,656673.7000000477,9090,WL,B,3.0
5,5.700000047683716,learn,60000.0,Wed Jun 24 2026 15:13:15 GMT-0400 (Eastern Daylight Time),658357.2000000477,A,pup,I,p,579,1,1683.5,656673.7000000477,9090,WL,B,3.0
5,6.0,learn,60000.0,Wed Jun 24 2026 15:13:15 GMT-0400 (Eastern Daylight Time),658657.1000000238,A,pupi,I,i,286,1,1983.3999999761581,656673.7000000477,9090,WL,B,3.0
5,6.333000183105469,learn,60000.0,Wed Jun 24 2026 15:13:15 GMT-0400 (Eastern Daylight Time),658990.3999999762,A,pupil,I,l,321,1,2316.6999999284744,656673.7000000477,9090,WL,B,3.0
5,6.766000032424927,learn,60000.0,Wed Jun 24 2026 15:13:15 GMT-0400 (Eastern Daylight Time),659423.3000000715,A,pupilenter,I,enter,419,1,2749.600000023842,656673.7000000477,9090,WL,B,3.0
5,7.0990002155303955,learn,60000.0,Wed Jun 24 2026 15:13:15 GMT-0400 (Eastern Daylight Time),659756.7000000477,A,c,I,c,326,1,333.10000002384186,659423.6000000238,9090,WL,B,4.0
5,7.3500001430511475,learn,60000.0,Wed Jun 24 2026 15:13:15 GMT-0400 (Eastern Daylight Time),660007.3000000715,A,ca,I,a,229,1,583.7000000476837,659423.6000000238,9090,WL,B,4.0
5,8.233000040054321,learn,60000.0,Wed Jun 24 2026 15:13:15 GMT-0400 (Eastern Daylight Time),660890.3999999762,A,cab,I,b,857,1,1466.7999999523163,659423.6000000238,9090,WL,B,4.0
5,8.5,learn,60000.0,Wed Jun 24 2026 15:13:15 GMT-0400 (Eastern Daylight Time),661157.0,A,cabi,I,i,247,1,1733.3999999761581,659423.6000000238,9090,WL,B,4.0
5,8.833000183105469,learn,60000.0,Wed Jun 24 2026 15:13:15 GMT-0400 (Eastern Daylight Time),661490.5,A,cabin,I,n,317,1,2066.899999976158,659423.6000000238,9090,WL,B,4.0
5,9.266000032424927,learn,60000.0,Wed Jun 24 2026 15:13:15 GMT-0400 (Eastern Daylight Time),661923.3999999762,A,cabinenter,I,enter,413,1,2499.7999999523163,659423.6000000238,9090,WL,B,4.0
5,10.200000047683716,learn,60000.0,Wed Jun 24 2026 15:13:15 GMT-0400 (Eastern Daylight Time),662857.2000000477,A,f,I,f,914,1,933.5,661923.7000000477,9090,WL,B,5.0
5,10.466000080108643,learn,60000.0,Wed Jun 24 2026 15:13:15 GMT-0400 (Eastern Daylight Time),663123.7000000477,A,fi,I,i,247,1,1200.0,661923.7000000477,9090,WL,B,5.0
5,10.683000087738037,learn,60000.0,Wed Jun 24 2026 15:13:15 GMT-0400 (Eastern Daylight Time),663340.5,A,fir,I,r,190,1,1416.7999999523163,661923.7000000477,9090,WL,B,5.0
5,10.916000127792358,learn,60000.0,Wed Jun 24 2026 15:13:15 GMT-0400 (Eastern Daylight Time),663573.7000000477,A,fire,I,e,213,1,1650.0,661923.7000000477,9090,WL,B,5.0
5,11.383000135421753,learn,60000.0,Wed Jun 24 2026 15:13:15 GMT-0400 (Eastern Daylight Time),664040.0,A,fireenter,I,enter,444,1,2116.2999999523163,661923.7000000477,9090,WL,B,5.0
5,11.815999984741211,learn,60000.0,Wed Jun 24 2026 15:13:15 GMT-0400 (Eastern Daylight Time),664473.8000000715,A,p,I,p,413,1,433.5,664040.3000000715,9090,WL,B,6.0
5,12.282999992370605,learn,60000.0,Wed Jun 24 2026 15:13:15 GMT-0400 (Eastern Daylight Time),664940.5,A,ps,I,s,441,1,900.1999999284744,664040.3000000715,9090,WL,B,6.0
5,12.75,learn,60000.0,Wed Jun 24 2026 15:13:15 GMT-0400 (Eastern Daylight Time),665407.1000000238,A,psi,I,i,451,1,1366.7999999523163,664040.3000000715,9090,WL,B,6.0
5,13.083000183105469,learn,60000.0,Wed Jun 24 2026 15:13:15 GMT-0400 (Eastern Daylight Time),665740.5,A,psip,I,p,297,1,1700.1999999284744,664040.3000000715,9090,WL,B,6.0
5,13.833000183105469,learn,60000.0,Wed Jun 24 2026 15:13:15 GMT-0400 (Eastern Daylight Time),666490.5,A,psi,I,backspace,723,1,2450.1999999284744,664040.3000000715,9090,WL,B,6.0
5,14.032999992370605,learn,60000.0,Wed Jun 24 2026 15:13:15 GMT-0400 (Eastern Daylight Time),666690.3000000715,A,ps,I,backspace,182,1,2650.0,664040.3000000715,9090,WL,B,6.0
5,14.25,learn,60000.0,Wed Jun 24 2026 15:13:15 GMT-0400 (Eastern Daylight Time),666907.2000000477,A,p,I,backspace,191,1,2866.899999976158,664040.3000000715,9090,WL,B,6.0
5,15.282999992370605,learn,60000.0,Wed Jun 24 2026 15:13:15 GMT-0400 (Eastern Daylight Time),667940.2000000477,A,pi,I,i,1015,1,3899.899999976158,664040.3000000715,9090,WL,B,6.0
5,15.565999984741211,learn,60000.0,Wed Jun 24 2026 15:13:15 GMT-0400 (Eastern Daylight Time),668223.7000000477,A,pip,I,p,268,1,4183.399999976158,664040.3000000715,9090,WL,B,6.0
5,15.833000183105469,learn,60000.0,Wed Jun 24 2026 15:13:15 GMT-0400 (Eastern Daylight Time),668490.5,A,pipe,I,e,241,1,4450.199999928474,664040.3000000715,9090,WL,B,6.0
5,16.249000072479248,learn,60000.0,Wed Jun 24 2026 15:13:15 GMT-0400 (Eastern Daylight Time),668906.7000000477,A,pipeenter,I,enter,391,1,4866.399999976158,664040.3000000715,9090,WL,B,6.0
5,16.683000087738037,learn,60000.0,Wed Jun 24 2026 15:13:15 GMT-0400 (Eastern Daylight Time),669340.5,A,w,I,w,426,1,433.39999997615814,668907.1000000238,9090,WL,B,7.0
5,16.866000175476074,learn,60000.0,Wed Jun 24 2026 15:13:15 GMT-0400 (Eastern Daylight Time),669523.8999999762,A,wi,I,i,165,1,616.7999999523163,668907.1000000238,9090,WL,B,7.0
5,17.200000047683716,learn,60000.0,Wed Jun 24 2026 15:13:15 GMT-0400 (Eastern Daylight Time),669857.1000000238,A,win,I,n,309,1,950.0,668907.1000000238,9090,WL,B,7.0
5,17.383000135421753,learn,60000.0,Wed Jun 24 2026 15:13:15 GMT-0400 (Eastern Daylight Time),670040.5,A,wind,I,d,158,1,1133.3999999761581,668907.1000000238,9090,WL,B,7.0
5,17.616000175476074,learn,60000.0,Wed Jun 24 2026 15:13:15 GMT-0400 (Eastern Daylight Time),670273.8000000715,A,windo,I,o,217,1,1366.7000000476837,668907.1000000238,9090,WL,B,7.0
5,18.032999992370605,learn,60000.0,Wed Jun 24 2026 15:13:15 GMT-0400 (Eastern Daylight Time),670690.5,A,window,I,w,399,1,1783.3999999761581,668907.1000000238,9090,WL,B,7.0
5,18.466000080108643,learn,60000.0,Wed Jun 24 2026 15:13:15 GMT-0400 (Eastern Daylight Time),671123.3000000715,A,windowenter,I,enter,413,1,2216.2000000476837,668907.1000000238,9090,WL,B,7.0
5,19.48300004005432,learn,60000.0,Wed Jun 24 2026 15:13:15 GMT-0400 (Eastern Daylight Time),672140.6000000238,A,d,I,d,994,1,1016.8999999761581,671123.7000000477,9090,WL,B,8.0
5,19.700000047683716,learn,60000.0,Wed Jun 24 2026 15:13:15 GMT-0400 (Eastern Daylight Time),672357.0,A,do,I,o,196,1,1233.2999999523163,671123.7000000477,9090,WL,B,8.0
5,19.933000087738037,learn,60000.0,Wed Jun 24 2026 15:13:15 GMT-0400 (Eastern Daylight Time),672590.3000000715,A,doo,I,o,219,1,1466.6000000238419,671123.7000000477,9090,WL,B,8.0
5,20.133000135421753,learn,60000.0,Wed Jun 24 2026 15:13:15 GMT-0400 (Eastern Daylight Time),672790.5,A,door,I,r,179,1,1666.7999999523163,671123.7000000477,9090,WL,B,8.0
5,20.549000024795532,learn,60000.0,Wed Jun 24 2026 15:13:15 GMT-0400 (Eastern Daylight Time),673206.8000000715,A,doorenter,I,enter,393,1,2083.100000023842,671123.7000000477,9090,WL,B,8.0
5,20.766000032424927,learn,60000.0,Wed Jun 24 2026 15:13:15 GMT-0400 (Eastern Daylight Time),673423.7000000477,A,s,I,s,207,1,216.60000002384186,673207.1000000238,9090,WL,B,9.0
5,21.08300018310547,learn,60000.0,Wed Jun 24 2026 15:13:15 GMT-0400 (Eastern Daylight Time),673740.6000000238,A,st,I,t,303,1,533.5,673207.1000000238,9090,WL,B,9.0
5,21.33300018310547,learn,60000.0,Wed Jun 24 2026 15:13:15 GMT-0400 (Eastern Daylight Time),673990.3999999762,A,str,I,r,227,1,783.2999999523163,673207.1000000238,9090,WL,B,9.0
5,21.600000143051147,learn,60000.0,Wed Jun 24 2026 15:13:15 GMT-0400 (Eastern Daylight Time),674257.1000000238,A,stre,I,e,242,1,1050.0,673207.1000000238,9090,WL,B,9.0
5,21.800000190734863,learn,60000.0,Wed Jun 24 2026 15:13:15 GMT-0400 (Eastern Daylight Time),674457.1000000238,A,stree,I,e,176,1,1250.0,673207.1000000238,9090,WL,B,9.0
5,22.133000135421753,learn,60000.0,Wed Jun 24 2026 15:13:15 GMT-0400 (Eastern Daylight Time),674790.6000000238,A,street,I,t,303,1,1583.5,673207.1000000238,9090,WL,B,9.0
5,22.73300004005432,learn,60000.0,Wed Jun 24 2026 15:13:15 GMT-0400 (Eastern Daylight Time),675389.8999999762,A,streetenter,I,enter,585,1,2182.7999999523163,673207.1000000238,9090,WL,B,9.0
5,23.40000009536743,learn,60000.0,Wed Jun 24 2026 15:13:15 GMT-0400 (Eastern Daylight Time),676057.1000000238,A,g,I,g,647,1,666.8999999761581,675390.2000000477,9090,WL,B,10.0
5,23.633000135421753,learn,60000.0,Wed Jun 24 2026 15:13:15 GMT-0400 (Eastern Daylight Time),676290.5,A,gr,I,r,215,1,900.2999999523163,675390.2000000477,9090,WL,B,10.0
5,23.89900016784668,learn,60000.0,Wed Jun 24 2026 15:13:15 GMT-0400 (Eastern Daylight Time),676556.7000000477,A,gra,I,a,255,1,1166.5,675390.2000000477,9090,WL,B,10.0
5,24.216000080108643,learn,60000.0,Wed Jun 24 2026 15:13:15 GMT-0400 (Eastern Daylight Time),676873.8999999762,A,gras,I,s,292,1,1483.6999999284744,675390.2000000477,9090,WL,B,10.0
5,24.450000047683716,learn,60000.0,Wed Jun 24 2026 15:13:15 GMT-0400 (Eastern Daylight Time),677107.1000000238,A,grass,I,s,214,1,1716.8999999761581,675390.2000000477,9090,WL,B,10.0
5,24.89900016784668,learn,60000.0,Wed Jun 24 2026 15:13:15 GMT-0400 (Eastern Daylight Time),677556.7000000477,A,grassenter,I,enter,428,1,2166.5,675390.2000000477,9090,WL,B,10.0
5,25.216000080108643,learn,60000.0,Wed Jun 24 2026 15:13:15 GMT-0400 (Eastern Daylight Time),677873.8000000715,A,c,I,c,305,1,316.7000000476837,677557.1000000238,9090,WL,B,11.0
5,26.41600012779236,learn,60000.0,Wed Jun 24 2026 15:13:15 GMT-0400 (Eastern Daylight Time),679073.8000000715,A,cl,I,l,1182,1,1516.7000000476837,677557.1000000238,9090,WL,B,11.0
5,26.716000080108643,learn,60000.0,Wed Jun 24 2026 15:13:15 GMT-0400 (Eastern Daylight Time),679373.6000000238,A,clo,I,o,287,1,1816.5,677557.1000000238,9090,WL,B,11.0
5,26.950000047683716,learn,60000.0,Wed Jun 24 2026 15:13:15 GMT-0400 (Eastern Daylight Time),679607.2000000477,A,cloc,I,c,211,1,2050.100000023842,677557.1000000238,9090,WL,B,11.0
5,27.266000032424927,learn,60000.0,Wed Jun 24 2026 15:13:15 GMT-0400 (Eastern Daylight Time),679923.7000000477,A,clock,I,k,288,1,2366.600000023842,677557.1000000238,9090,WL,B,11.0
5,27.749000072479248,learn,60000.0,Wed Jun 24 2026 15:13:15 GMT-0400 (Eastern Daylight Time),680406.7000000477,A,clockenter,I,enter,462,1,2849.600000023842,677557.1000000238,9090,WL,B,11.0
5,28.516000032424927,learn,60000.0,Wed Jun 24 2026 15:13:15 GMT-0400 (Eastern Daylight Time),681173.8000000715,A,f,I,f,751,1,766.9000000953674,680406.8999999762,9090,WL,B,12.0
5,28.782999992370605,learn,60000.0,Wed Jun 24 2026 15:13:15 GMT-0400 (Eastern Daylight Time),681440.5,A,fi,I,i,250,1,1033.6000000238419,680406.8999999762,9090,WL,B,12.0
5,29.032999992370605,learn,60000.0,Wed Jun 24 2026 15:13:15 GMT-0400 (Eastern Daylight Time),681690.5,A,fir,I,r,223,1,1283.6000000238419,680406.8999999762,9090,WL,B,12.0
5,29.299000024795532,learn,60000.0,Wed Jun 24 2026 15:13:15 GMT-0400 (Eastern Daylight Time),681957.0,A,fire,I,e,247,1,1550.1000000238419,680406.8999999762,9090,WL,B,12.0
5,29.749000072479248,learn,60000.0,Wed Jun 24 2026 15:13:15 GMT-0400 (Eastern Daylight Time),682406.7000000477,A,fireenter,I,enter,428,1,1999.8000000715256,680406.8999999762,9090,WL,B,12.0
5,30.282999992370605,learn,60000.0,Wed Jun 24 2026 15:13:15 GMT-0400 (Eastern Daylight Time),682940.5,A,a,I,a,510,1,533.5,682407.0,9090,WL,B,13.0
5,30.633000135421753,learn,60000.0,Wed Jun 24 2026 15:13:15 GMT-0400 (Eastern Daylight Time),683290.3999999762,A,ar,I,r,325,1,883.3999999761581,682407.0,9090,WL,B,13.0
5,31.099000215530396,learn,60000.0,Wed Jun 24 2026 15:13:15 GMT-0400 (Eastern Daylight Time),683756.7000000477,A,arm,I,m,454,1,1349.7000000476837,682407.0,9090,WL,B,13.0
5,31.83300018310547,learn,60000.0,Wed Jun 24 2026 15:13:15 GMT-0400 (Eastern Daylight Time),684490.0,A,armenter,I,enter,708,1,2083.0,682407.0,9090,WL,B,13.0
5,32.282999992370605,learn,60000.0,Wed Jun 24 2026 15:13:15 GMT-0400 (Eastern Daylight Time),684940.3999999762,A,s,I,s,427,1,450.0,684490.3999999762,9090,WL,B,14.0
5,32.699000120162964,learn,60000.0,Wed Jun 24 2026 15:13:15 GMT-0400 (Eastern Daylight Time),685356.8000000715,A,sk,I,k,406,1,866.4000000953674,684490.3999999762,9090,WL,B,14.0
5,33.099000215530396,learn,60000.0,Wed Jun 24 2026 15:13:15 GMT-0400 (Eastern Daylight Time),685756.8000000715,A,ski,I,i,387,1,1266.4000000953674,684490.3999999762,9090,WL,B,14.0
5,33.700000047683716,learn,60000.0,Wed Jun 24 2026 15:13:15 GMT-0400 (Eastern Daylight Time),686357.0,A,skin,I,n,582,1,1866.6000000238419,684490.3999999762,9090,WL,B,14.0
5,34.16600012779236,learn,60000.0,Wed Jun 24 2026 15:13:15 GMT-0400 (Eastern Daylight Time),686823.3999999762,A,skinenter,I,enter,442,1,2333.0,684490.3999999762,9090,WL,B,14.0
5,37.349000215530396,learn,60000.0,Wed Jun 24 2026 15:13:15 GMT-0400 (Eastern Daylight Time),690006.7000000477,A,enter,I,enter,3164,1,3183.100000023842,686823.6000000238,9090,WL,B,15.0
6,1.1669998168945312,distr,58833.00018310547,Wed Jun 24 2026 15:13:15 GMT-0400 (Eastern Daylight Time),766190.3999999762,B,b,I,b,1155,1,1166.2999999523163,765024.1000000238,9090,WL,B,1.0
6,1.5999999046325684,distr,58400.00009536743,Wed Jun 24 2026 15:13:15 GMT-0400 (Eastern Daylight Time),766623.8000000715,B,ba,I,a,420,1,1599.7000000476837,765024.1000000238,9090,WL,B,1.0
6,2.0339999198913574,distr,57966.00008010864,Wed Jun 24 2026 15:13:15 GMT-0400 (Eastern Daylight Time),767057.2000000477,B,bab,I,b,418,1,2033.1000000238419,765024.1000000238,9090,WL,B,1.0
6,2.299999952316284,distr,57700.000047683716,Wed Jun 24 2026 15:13:15 GMT-0400 (Eastern Daylight Time),767323.8000000715,B,baby,I,y,239,1,2299.7000000476837,765024.1000000238,9090,WL,B,1.0
6,3.0329999923706055,distr,56967.000007629395,Wed Jun 24 2026 15:13:15 GMT-0400 (Eastern Daylight Time),768056.7000000477,B,babyenter,I,enter,698,1,3032.600000023842,765024.1000000238,9090,WL,B,1.0
6,3.799999952316284,distr,56200.000047683716,Wed Jun 24 2026 15:13:15 GMT-0400 (Eastern Daylight Time),768823.8000000715,B,o,I,o,749,1,766.8000000715256,768057.0,9090,WL,B,2.0
6,4.0,distr,56000.0,Wed Jun 24 2026 15:13:15 GMT-0400 (Eastern Daylight Time),769023.8000000715,B,oc,I,c,187,1,966.8000000715256,768057.0,9090,WL,B,2.0
6,4.316999912261963,distr,55683.00008773804,Wed Jun 24 2026 15:13:15 GMT-0400 (Eastern Daylight Time),769340.5,B,oce,I,e,306,1,1283.5,768057.0,9090,WL,B,2.0
6,4.599999904632568,distr,55400.00009536743,Wed Jun 24 2026 15:13:15 GMT-0400 (Eastern Daylight Time),769623.8000000715,B,ocea,I,a,261,1,1566.8000000715256,768057.0,9090,WL,B,2.0
6,4.949999809265137,distr,55050.00019073486,Wed Jun 24 2026 15:13:15 GMT-0400 (Eastern Daylight Time),769973.8000000715,B,ocean,I,n,329,1,1916.8000000715256,768057.0,9090,WL,B,2.0
6,5.615999937057495,distr,54384.000062942505,Wed Jun 24 2026 15:13:15 GMT-0400 (Eastern Daylight Time),770639.8999999762,B,oceanenter,I,enter,650,1,2582.899999976158,768057.0,9090,WL,B,2.0
6,6.184000015258789,distr,53815.99998474121,Wed Jun 24 2026 15:13:15 GMT-0400 (Eastern Daylight Time),771207.1000000238,B,p,I,p,549,1,566.8999999761581,770640.2000000477,9090,WL,B,3.0
6,6.934000015258789,distr,53065.99998474121,Wed Jun 24 2026 15:13:15 GMT-0400 (Eastern Daylight Time),771957.1000000238,B,pa,I,a,729,1,1316.8999999761581,770640.2000000477,9090,WL,B,3.0
6,7.184000015258789,distr,52815.99998474121,Wed Jun 24 2026 15:13:15 GMT-0400 (Eastern Daylight Time),772207.1000000238,B,pal,I,l,237,1,1566.8999999761581,770640.2000000477,9090,WL,B,3.0
6,7.566999912261963,distr,52433.00008773804,Wed Jun 24 2026 15:13:15 GMT-0400 (Eastern Daylight Time),772590.5,B,pala,I,a,361,1,1950.2999999523163,770640.2000000477,9090,WL,B,3.0
6,7.866999864578247,distr,52133.00013542175,Wed Jun 24 2026 15:13:15 GMT-0400 (Eastern Daylight Time),772890.6000000238,B,palac,I,c,275,1,2250.399999976158,770640.2000000477,9090,WL,B,3.0
6,8.199999809265137,distr,51800.00019073486,Wed Jun 24 2026 15:13:15 GMT-0400 (Eastern Daylight Time),773223.8000000715,B,palace,I,e,311,1,2583.600000023842,770640.2000000477,9090,WL,B,3.0
6,8.532999992370605,distr,51467.000007629395,Wed Jun 24 2026 15:13:15 GMT-0400 (Eastern Daylight Time),773556.7000000477,B,palaceenter,I,enter,312,1,2916.5,770640.2000000477,9090,WL,B,3.0
6,9.366999864578247,distr,50633.00013542175,Wed Jun 24 2026 15:13:15 GMT-0400 (Eastern Daylight Time),774390.3999999762,B,l,I,l,817,1,833.3999999761581,773557.0,9090,WL,B,4.0
6,9.717000007629395,distr,50282.999992370605,Wed Jun 24 2026 15:13:15 GMT-0400 (Eastern Daylight Time),774740.3999999762,B,li,I,i,330,1,1183.3999999761581,773557.0,9090,WL,B,4.0
6,10.016999959945679,distr,49983.00004005432,Wed Jun 24 2026 15:13:15 GMT-0400 (Eastern Daylight Time),775040.6000000238,B,lip,I,p,284,1,1483.6000000238419,773557.0,9090,WL,B,4.0
6,10.75,distr,49250.0,Wed Jun 24 2026 15:13:15 GMT-0400 (Eastern Daylight Time),775773.3000000715,B,lipenter,I,enter,719,1,2216.3000000715256,773557.0,9090,WL,B,4.0
6,11.199999809265137,distr,48800.00019073486,Wed Jun 24 2026 15:13:15 GMT-0400 (Eastern Daylight Time),776223.8000000715,B,s,I,s,440,1,450.2000000476837,775773.6000000238,9090,WL,B,5.0
6,11.566999912261963,distr,48433.00008773804,Wed Jun 24 2026 15:13:15 GMT-0400 (Eastern Daylight Time),776590.3000000715,B,st,I,t,352,1,816.7000000476837,775773.6000000238,9090,WL,B,5.0
6,11.783999919891357,distr,48216.00008010864,Wed Jun 24 2026 15:13:15 GMT-0400 (Eastern Daylight Time),776807.1000000238,B,sto,I,o,195,1,1033.5,775773.6000000238,9090,WL,B,5.0
6,11.983999967575073,distr,48016.00003242493,Wed Jun 24 2026 15:13:15 GMT-0400 (Eastern Daylight Time),777007.3000000715,B,stor,I,r,185,1,1233.7000000476837,775773.6000000238,9090,WL,B,5.0
6,12.349999904632568,distr,47650.00009536743,Wed Jun 24 2026 15:13:15 GMT-0400 (Eastern Daylight Time),777373.6000000238,B,storm,I,m,345,1,1600.0,775773.6000000238,9090,WL,B,5.0
6,12.882999897003174,distr,47117.000102996826,Wed Jun 24 2026 15:13:15 GMT-0400 (Eastern Daylight Time),777906.7000000477,B,stormenter,I,enter,515,1,2133.100000023842,775773.6000000238,9090,WL,B,5.0
6,13.333999872207642,distr,46666.00012779236,Wed Jun 24 2026 15:13:15 GMT-0400 (Eastern Daylight Time),778357.2000000477,B,a,I,a,434,1,450.2000000476837,777907.0,9090,WL,B,6.0
6,13.616999864578247,distr,46383.00013542175,Wed Jun 24 2026 15:13:15 GMT-0400 (Eastern Daylight Time),778640.3999999762,B,ar,I,r,267,1,733.3999999761581,777907.0,9090,WL,B,6.0
6,13.967000007629395,distr,46032.999992370605,Wed Jun 24 2026 15:13:15 GMT-0400 (Eastern Daylight Time),778990.3000000715,B,arm,I,m,336,1,1083.3000000715256,777907.0,9090,WL,B,6.0
6,14.666999816894531,distr,45333.00018310547,Wed Jun 24 2026 15:13:15 GMT-0400 (Eastern Daylight Time),779690.6000000238,B,army,I,y,676,1,1783.6000000238419,777907.0,9090,WL,B,6.0
6,15.782999992370605,distr,44217.000007629395,Wed Jun 24 2026 15:13:15 GMT-0400 (Eastern Daylight Time),780806.7000000477,B,armyenter,I,enter,1094,1,2899.7000000476837,777907.0,9090,WL,B,6.0
6,23.83299994468689,distr,36167.00005531311,Wed Jun 24 2026 15:13:15 GMT-0400 (Eastern Daylight Time),788856.7000000477,B,enter,I,enter,8029,1,8049.700000047684,780807.0,9090,WL,B,7.0
6,60.01699995994568,distr,-16.99995994567871,Wed Jun 24 2026 15:13:15 GMT-0400 (Eastern Daylight Time),825040.8999999762,B,None,I,None,36175,1,36183.89999997616,788857.0,9090,WL,B,8.0
7,10.066999912261963,immed,49933.00008773804,Wed Jun 24 2026 15:13:15 GMT-0400 (Eastern Daylight Time),837940.6000000238,A,w,I,w,10049,1,10066.299999952316,827874.3000000715,9090,WL,B,1.0
7,10.33400011062622,immed,49665.99988937378,Wed Jun 24 2026 15:13:15 GMT-0400 (Eastern Daylight Time),838207.2000000477,A,wi,I,i,254,1,10332.899999976158,827874.3000000715,9090,WL,B,1.0
7,10.66700005531311,immed,49332.99994468689,Wed Jun 24 2026 15:13:15 GMT-0400 (Eastern Daylight Time),838540.6000000238,A,win,I,n,306,1,10666.299999952316,827874.3000000715,9090,WL,B,1.0
7,10.884000062942505,immed,49115.999937057495,Wed Jun 24 2026 15:13:15 GMT-0400 (Eastern Daylight Time),838757.1000000238,A,wind,I,d,197,1,10882.799999952316,827874.3000000715,9090,WL,B,1.0
7,11.08299994468689,immed,48917.00005531311,Wed Jun 24 2026 15:13:15 GMT-0400 (Eastern Daylight Time),838957.0,A,windo,I,o,189,1,11082.699999928474,827874.3000000715,9090,WL,B,1.0
7,11.634000062942505,immed,48365.999937057495,Wed Jun 24 2026 15:13:15 GMT-0400 (Eastern Daylight Time),839507.0,A,windoe,I,e,534,1,11632.699999928474,827874.3000000715,9090,WL,B,1.0
7,12.316999912261963,immed,47683.00008773804,Wed Jun 24 2026 15:13:15 GMT-0400 (Eastern Daylight Time),840190.5,A,windo,I,backspace,670,1,12316.199999928474,827874.3000000715,9090,WL,B,1.0
7,12.733999967575073,immed,47266.00003242493,Wed Jun 24 2026 15:13:15 GMT-0400 (Eastern Daylight Time),840607.1000000238,A,window,I,w,402,1,12732.799999952316,827874.3000000715,9090,WL,B,1.0
7,13.150000095367432,immed,46849.99990463257,Wed Jun 24 2026 15:13:15 GMT-0400 (Eastern Daylight Time),841023.5,A,windowenter,I,enter,401,1,13149.199999928474,827874.3000000715,9090,WL,B,1.0
7,14.66700005531311,immed,45332.99994468689,Wed Jun 24 2026 15:13:15 GMT-0400 (Eastern Daylight Time),842540.6000000238,A,g,I,g,1493,1,1516.6000000238419,841024.0,9090,WL,B,2.0
7,14.91700005531311,immed,45082.99994468689,Wed Jun 24 2026 15:13:15 GMT-0400 (Eastern Daylight Time),842790.5,A,gr,I,r,230,1,1766.5,841024.0,9090,WL,B,2.0
7,15.184000015258789,immed,44815.99998474121,Wed Jun 24 2026 15:13:15 GMT-0400 (Eastern Daylight Time),843057.1000000238,A,gra,I,a,242,1,2033.1000000238419,841024.0,9090,WL,B,2.0
7,15.849999904632568,immed,44150.00009536743,Wed Jun 24 2026 15:13:15 GMT-0400 (Eastern Daylight Time),843723.8000000715,A,gras,I,s,639,1,2699.8000000715256,841024.0,9090,WL,B,2.0
7,16.033999919891357,immed,43966.00008010864,Wed Jun 24 2026 15:13:15 GMT-0400 (Eastern Daylight Time),843907.2000000477,A,grass,I,s,166,1,2883.2000000476837,841024.0,9090,WL,B,2.0
7,16.65000009536743,immed,43349.99990463257,Wed Jun 24 2026 15:13:15 GMT-0400 (Eastern Daylight Time),844523.3999999762,A,grassenter,I,enter,580,1,3499.399999976158,841024.0,9090,WL,B,2.0
7,17.217000007629395,immed,42782.999992370605,Wed Jun 24 2026 15:13:15 GMT-0400 (Eastern Daylight Time),845090.5,A,s,I,s,554,1,566.6999999284744,844523.8000000715,9090,WL,B,3.0
7,17.5,immed,42500.0,Wed Jun 24 2026 15:13:15 GMT-0400 (Eastern Daylight Time),845373.6000000238,A,st,I,t,271,1,849.7999999523163,844523.8000000715,9090,WL,B,3.0
7,17.733999967575073,immed,42266.00003242493,Wed Jun 24 2026 15:13:15 GMT-0400 (Eastern Daylight Time),845607.0,A,str,I,r,212,1,1083.1999999284744,844523.8000000715,9090,WL,B,3.0
7,17.950000047683716,immed,42049.999952316284,Wed Jun 24 2026 15:13:15 GMT-0400 (Eastern Daylight Time),845823.8000000715,A,stre,I,e,204,1,1300.0,844523.8000000715,9090,WL,B,3.0
7,18.134000062942505,immed,41865.999937057495,Wed Jun 24 2026 15:13:15 GMT-0400 (Eastern Daylight Time),846007.2000000477,A,stree,I,e,160,1,1483.3999999761581,844523.8000000715,9090,WL,B,3.0
7,18.66700005531311,immed,41332.99994468689,Wed Jun 24 2026 15:13:15 GMT-0400 (Eastern Daylight Time),846540.6000000238,A,street,I,t,506,1,2016.7999999523163,844523.8000000715,9090,WL,B,3.0
7,19.01699995994568,immed,40983.00004005432,Wed Jun 24 2026 15:13:15 GMT-0400 (Eastern Daylight Time),846890.1000000238,A,streetenter,I,enter,323,1,2366.2999999523163,844523.8000000715,9090,WL,B,3.0
7,20.733999967575073,immed,39266.00003242493,Wed Jun 24 2026 15:13:15 GMT-0400 (Eastern Daylight Time),848607.1000000238,A,d,I,d,1707,1,1716.7000000476837,846890.3999999762,9090,WL,B,4.0
7,20.983999967575073,immed,39016.00003242493,Wed Jun 24 2026 15:13:15 GMT-0400 (Eastern Daylight Time),848857.3000000715,A,do,I,o,226,1,1966.9000000953674,846890.3999999762,9090,WL,B,4.0
7,21.18400001525879,immed,38815.99998474121,Wed Jun 24 2026 15:13:15 GMT-0400 (Eastern Daylight Time),849057.2000000477,A,doo,I,o,183,1,2166.8000000715256,846890.3999999762,9090,WL,B,4.0
7,21.450000047683716,immed,38549.999952316284,Wed Jun 24 2026 15:13:15 GMT-0400 (Eastern Daylight Time),849323.8000000715,A,door,I,r,231,1,2433.4000000953674,846890.3999999762,9090,WL,B,4.0
7,21.76699995994568,immed,38233.00004005432,Wed Jun 24 2026 15:13:15 GMT-0400 (Eastern Daylight Time),849640.1000000238,A,doorenter,I,enter,292,1,2749.7000000476837,846890.3999999762,9090,WL,B,4.0
7,22.16700005531311,immed,37832.99994468689,Wed Jun 24 2026 15:13:15 GMT-0400 (Eastern Daylight Time),850040.5,A,w,I,w,381,1,400.10000002384186,849640.3999999762,9090,WL,B,5.0
7,22.367000102996826,immed,37632.999897003174,Wed Jun 24 2026 15:13:15 GMT-0400 (Eastern Daylight Time),850240.3999999762,A,wi,I,i,184,1,600.0,849640.3999999762,9090,WL,B,5.0
7,22.783999919891357,immed,37216.00008010864,Wed Jun 24 2026 15:13:15 GMT-0400 (Eastern Daylight Time),850657.3000000715,A,win,I,n,399,1,1016.9000000953674,849640.3999999762,9090,WL,B,5.0
7,23.066999912261963,immed,36933.00008773804,Wed Jun 24 2026 15:13:15 GMT-0400 (Eastern Daylight Time),850940.6000000238,A,wind,I,d,271,1,1300.2000000476837,849640.3999999762,9090,WL,B,5.0
7,23.25,immed,36750.0,Wed Jun 24 2026 15:13:15 GMT-0400 (Eastern Daylight Time),851123.8000000715,A,windo,I,o,155,1,1483.4000000953674,849640.3999999762,9090,WL,B,5.0
7,23.48300004005432,immed,36516.99995994568,Wed Jun 24 2026 15:13:15 GMT-0400 (Eastern Daylight Time),851356.8999999762,A,window,I,w,211,1,1716.5,849640.3999999762,9090,WL,B,5.0
7,23.83299994468689,immed,36167.00005531311,Wed Jun 24 2026 15:13:15 GMT-0400 (Eastern Daylight Time),851706.8000000715,A,windowenter,I,enter,323,1,2066.4000000953674,849640.3999999762,9090,WL,B,5.0
7,24.549999952316284,immed,35450.000047683716,Wed Jun 24 2026 15:13:15 GMT-0400 (Eastern Daylight Time),852423.8999999762,A,f,I,f,699,1,716.7999999523163,851707.1000000238,9090,WL,B,6.0
7,24.700000047683716,immed,35299.999952316284,Wed Jun 24 2026 15:13:15 GMT-0400 (Eastern Daylight Time),852573.7000000477,A,fi,I,i,136,1,866.6000000238419,851707.1000000238,9090,WL,B,6.0
7,24.93400001525879,immed,35065.99998474121,Wed Jun 24 2026 15:13:15 GMT-0400 (Eastern Daylight Time),852807.2000000477,A,fir,I,r,210,1,1100.1000000238419,851707.1000000238,9090,WL,B,6.0
7,25.200000047683716,immed,34799.999952316284,Wed Jun 24 2026 15:13:15 GMT-0400 (Eastern Daylight Time),853073.7000000477,A,fire,I,e,250,1,1366.6000000238419,851707.1000000238,9090,WL,B,6.0
7,25.59999990463257,immed,34400.00009536743,Wed Jun 24 2026 15:13:15 GMT-0400 (Eastern Daylight Time),853473.3999999762,A,fireenter,I,enter,382,1,1766.2999999523163,851707.1000000238,9090,WL,B,6.0
7,26.816999912261963,immed,33183.00008773804,Wed Jun 24 2026 15:13:15 GMT-0400 (Eastern Daylight Time),854690.5,A,p,I,p,1204,1,1216.7999999523163,853473.7000000477,9090,WL,B,7.0
7,27.200000047683716,immed,32799.999952316284,Wed Jun 24 2026 15:13:15 GMT-0400 (Eastern Daylight Time),855073.1000000238,A,pu,I,u,365,1,1599.3999999761581,853473.7000000477,9090,WL,B,7.0
7,27.58400011062622,immed,32415.99988937378,Wed Jun 24 2026 15:13:15 GMT-0400 (Eastern Daylight Time),855457.3000000715,A,pup,I,p,372,1,1983.6000000238419,853473.7000000477,9090,WL,B,7.0
7,27.91700005531311,immed,32082.99994468689,Wed Jun 24 2026 15:13:15 GMT-0400 (Eastern Daylight Time),855790.3999999762,A,pupi,I,i,319,1,2316.6999999284744,853473.7000000477,9090,WL,B,7.0
7,28.25,immed,31750.0,Wed Jun 24 2026 15:13:15 GMT-0400 (Eastern Daylight Time),856123.8000000715,A,pupil,I,l,306,1,2650.100000023842,853473.7000000477,9090,WL,B,7.0
7,29.41700005531311,immed,30582.99994468689,Wed Jun 24 2026 15:13:15 GMT-0400 (Eastern Daylight Time),857290.1000000238,A,pupilenter,I,enter,1141,1,3816.399999976158,853473.7000000477,9090,WL,B,7.0
7,29.783999919891357,immed,30216.000080108643,Wed Jun 24 2026 15:13:15 GMT-0400 (Eastern Daylight Time),857656.8999999762,A,c,I,c,346,1,366.39999997615814,857290.5,9090,WL,B,8.0
7,29.967000007629395,immed,30032.999992370605,Wed Jun 24 2026 15:13:15 GMT-0400 (Eastern Daylight Time),857840.3999999762,A,ci,I,i,169,1,549.8999999761581,857290.5,9090,WL,B,8.0
7,30.33400011062622,immed,29665.99988937378,Wed Jun 24 2026 15:13:15 GMT-0400 (Eastern Daylight Time),858207.1000000238,A,cit,I,t,344,1,916.6000000238419,857290.5,9090,WL,B,8.0
7,30.51699995994568,immed,29483.00004005432,Wed Jun 24 2026 15:13:15 GMT-0400 (Eastern Daylight Time),858390.3999999762,A,city,I,y,161,1,1099.8999999761581,857290.5,9090,WL,B,8.0
7,31.049999952316284,immed,28950.000047683716,Wed Jun 24 2026 15:13:15 GMT-0400 (Eastern Daylight Time),858923.8000000715,A,cityenter,I,enter,522,1,1633.3000000715256,857290.5,9090,WL,B,8.0
7,31.467000007629395,immed,28532.999992370605,Wed Jun 24 2026 15:13:15 GMT-0400 (Eastern Daylight Time),859340.6000000238,A,w,I,w,393,1,416.60000002384186,858924.0,9090,WL,B,9.0
7,31.66700005531311,immed,28332.99994468689,Wed Jun 24 2026 15:13:15 GMT-0400 (Eastern Daylight Time),859540.5,A,wi,I,i,182,1,616.5,858924.0,9090,WL,B,9.0
7,31.950000047683716,immed,28049.999952316284,Wed Jun 24 2026 15:13:15 GMT-0400 (Eastern Daylight Time),859823.8999999762,A,wif,I,f,269,1,899.8999999761581,858924.0,9090,WL,B,9.0
7,32.43400001525879,immed,27565.99998474121,Wed Jun 24 2026 15:13:15 GMT-0400 (Eastern Daylight Time),860307.2000000477,A,wife,I,e,455,1,1383.2000000476837,858924.0,9090,WL,B,9.0
7,32.84999990463257,immed,27150.00009536743,Wed Jun 24 2026 15:13:15 GMT-0400 (Eastern Daylight Time),860723.3999999762,A,wifeenter,I,enter,396,1,1799.3999999761581,858924.0,9090,WL,B,9.0
7,36.01699995994568,immed,23983.00004005432,Wed Jun 24 2026 15:13:15 GMT-0400 (Eastern Daylight Time),863890.3999999762,A,f,I,f,3153,1,3166.6999999284744,860723.7000000477,9090,WL,B,10.0
7,36.53399991989136,immed,23466.000080108643,Wed Jun 24 2026 15:13:15 GMT-0400 (Eastern Daylight Time),864407.2000000477,A,fi,I,i,495,1,3683.5,860723.7000000477,9090,WL,B,10.0
7,36.75,immed,23250.0,Wed Jun 24 2026 15:13:15 GMT-0400 (Eastern Daylight Time),864623.8000000715,A,fir,I,r,201,1,3900.100000023842,860723.7000000477,9090,WL,B,10.0
7,36.98399996757507,immed,23016.000032424927,Wed Jun 24 2026 15:13:15 GMT-0400 (Eastern Daylight Time),864857.2000000477,A,fire,I,e,210,1,4133.5,860723.7000000477,9090,WL,B,10.0
7,37.43300008773804,immed,22566.999912261963,Wed Jun 24 2026 15:13:15 GMT-0400 (Eastern Daylight Time),865306.7000000477,A,fireenter,I,enter,423,1,4583.0,860723.7000000477,9090,WL,B,10.0
7,38.282999992370605,immed,21717.000007629395,Wed Jun 24 2026 15:13:15 GMT-0400 (Eastern Daylight Time),866156.8000000715,A,a,I,a,843,1,849.8000000715256,865307.0,9090,WL,B,11.0
7,38.59999990463257,immed,21400.00009536743,Wed Jun 24 2026 15:13:15 GMT-0400 (Eastern Daylight Time),866473.8999999762,A,ar,I,r,294,1,1166.8999999761581,865307.0,9090,WL,B,11.0
7,39.717000007629395,immed,20282.999992370605,Wed Jun 24 2026 15:13:15 GMT-0400 (Eastern Daylight Time),867590.3000000715,A,arm,I,m,1096,1,2283.3000000715256,865307.0,9090,WL,B,11.0
7,40.08299994468689,immed,19917.00005531311,Wed Jun 24 2026 15:13:15 GMT-0400 (Eastern Daylight Time),867956.8000000715,A,armenter,I,enter,345,1,2649.8000000715256,865307.0,9090,WL,B,11.0
7,40.43400001525879,immed,19565.99998474121,Wed Jun 24 2026 15:13:15 GMT-0400 (Eastern Daylight Time),868307.1000000238,A,s,I,s,336,1,350.0,867957.1000000238,9090,WL,B,12.0
7,40.68300008773804,immed,19316.999912261963,Wed Jun 24 2026 15:13:15 GMT-0400 (Eastern Daylight Time),868556.8000000715,A,sk,I,k,238,1,599.7000000476837,867957.1000000238,9090,WL,B,12.0
7,40.967000007629395,immed,19032.999992370605,Wed Jun 24 2026 15:13:15 GMT-0400 (Eastern Daylight Time),868840.6000000238,A,ski,I,i,260,1,883.5,867957.1000000238,9090,WL,B,12.0
7,41.26699995994568,immed,18733.00004005432,Wed Jun 24 2026 15:13:15 GMT-0400 (Eastern Daylight Time),869140.5,A,skin,I,n,279,1,1183.3999999761581,867957.1000000238,9090,WL,B,12.0
7,41.63300013542175,immed,18366.999864578247,Wed Jun 24 2026 15:13:15 GMT-0400 (Eastern Daylight Time),869506.7000000477,A,skinenter,I,enter,348,1,1549.6000000238419,867957.1000000238,9090,WL,B,12.0
7,45.78399991989136,immed,14216.000080108643,Wed Jun 24 2026 15:13:15 GMT-0400 (Eastern Daylight Time),873657.2000000477,A,c,I,c,4130,1,4150.100000023842,869507.1000000238,9090,WL,B,13.0
7,46.049999952316284,immed,13950.000047683716,Wed Jun 24 2026 15:13:15 GMT-0400 (Eastern Daylight Time),873923.8000000715,A,cl,I,l,247,1,4416.700000047684,869507.1000000238,9090,WL,B,13.0
7,46.41700005531311,immed,13582.99994468689,Wed Jun 24 2026 15:13:15 GMT-0400 (Eastern Daylight Time),874290.5,A,clo,I,o,350,1,4783.399999976158,869507.1000000238,9090,WL,B,13.0
7,46.66700005531311,immed,13332.99994468689,Wed Jun 24 2026 15:13:15 GMT-0400 (Eastern Daylight Time),874540.6000000238,A,cloc,I,c,222,1,5033.5,869507.1000000238,9090,WL,B,13.0
7,47.0,immed,13000.0,Wed Jun 24 2026 15:13:15 GMT-0400 (Eastern Daylight Time),874873.8999999762,A,clock,I,k,310,1,5366.799999952316,869507.1000000238,9090,WL,B,13.0
7,47.43300008773804,immed,12566.999912261963,Wed Jun 24 2026 15:13:15 GMT-0400 (Eastern Daylight Time),875306.7000000477,A,clockenter,I,enter,397,1,5799.600000023842,869507.1000000238,9090,WL,B,13.0
7,60.01699995994568,immed,-16.99995994567871,Wed Jun 24 2026 15:13:15 GMT-0400 (Eastern Daylight Time),887890.8000000715,A,None,I,None,12576,1,12583.700000047684,875307.1000000238,9090,WL,B,14.0
