acc_sum,block,block_c,change,condition,correct,correct_response,datetime,endtime,face,project,response,response_time,row_sel,session_number,start_end,starttime,subject_id,task,task_vers,trial
0,prac,1,,1-Back,,,Tue Jun 03 2025 08:54:02 GMT-0500 (Central Daylight Time),,012_o_f_d_a.png,O,space,6441,1,1,,,7160,VNB,C,0
0,prac,1,0.0,1-Back,0,m,Tue Jun 03 2025 08:54:02 GMT-0500 (Central Daylight Time),151315.30000000075,022_y_f_n_a.png,O,None,2006,2,1,2887.39999999851,148427.90000000224,7160,VNB,C,1
0,prac,1,0.0,1-Back,0,m,Tue Jun 03 2025 08:54:02 GMT-0500 (Central Daylight Time),153548.1000000015,014_m_m_h_a.png,O,z,1351,3,1,2224.0,151324.1000000015,7160,VNB,C,2
1,prac,1,0.0,1-Back,1,m,Tue Jun 03 2025 08:54:02 GMT-0500 (Central Daylight Time),155464.80000000075,025_y_m_d_a.png,O,m,1057,4,1,1907.199999999255,153557.6000000015,7160,VNB,C,3
2,prac,1,0.0,1-Back,1,m,Tue Jun 03 2025 08:54:02 GMT-0500 (Central Daylight Time),157680.0,012_o_f_n_a.png,O,m,1322,5,1,2206.199999999255,155473.80000000075,7160,VNB,C,4
2,prac,1,1.0,1-Back,0,z,Tue Jun 03 2025 08:54:02 GMT-0500 (Central Daylight Time),159780.1000000015,025_y_m_n_a.png,O,m,1234,6,1,2091.10000000149,157689.0,7160,VNB,C,5
2,prac,1,0.0,1-Back,0,m,Tue Jun 03 2025 08:54:02 GMT-0500 (Central Daylight Time),161996.90000000224,015_o_m_h_a.png,O,z,1326,7,1,2207.199999999255,159789.70000000298,7160,VNB,C,6
2,prac,1,0.0,1-Back,0,m,Tue Jun 03 2025 08:54:02 GMT-0500 (Central Daylight Time),164195.5,019_m_f_d_a.png,O,z,1296,8,1,2190.099999997765,162005.40000000224,7160,VNB,C,7
2,prac,1,1.0,1-Back,0,z,Tue Jun 03 2025 08:54:02 GMT-0500 (Central Daylight Time),166276.20000000298,022_y_f_d_a.png,O,m,1174,9,1,2069.5,164206.70000000298,7160,VNB,C,8
2,prac,1,0.0,1-Back,0,m,Tue Jun 03 2025 08:54:02 GMT-0500 (Central Daylight Time),168560.20000000298,014_m_m_n_a.png,O,z,1390,10,1,2274.5,166285.70000000298,7160,VNB,C,9
3,prac,1,0.0,1-Back,1,m,Tue Jun 03 2025 08:54:02 GMT-0500 (Central Daylight Time),170360.20000000298,012_o_f_h_a.png,O,m,907,11,1,1792.0,168568.20000000298,7160,VNB,C,10
4,prac,1,0.0,1-Back,1,m,Tue Jun 03 2025 08:54:02 GMT-0500 (Central Daylight Time),172260.40000000224,025_y_m_d_a.png,O,m,1034,12,1,1889.800000000745,170370.6000000015,7160,VNB,C,11
0,prac,2,0.0,1-Back,,,Tue Jun 03 2025 08:54:02 GMT-0500 (Central Daylight Time),172260.40000000224,012_o_f_d_a.png,O,a,3095,1,1,1889.800000000745,170370.6000000015,7160,VNB,C,0
0,prac,2,0.0,1-Back,0,m,Tue Jun 03 2025 08:54:02 GMT-0500 (Central Daylight Time),180655.80000000075,022_y_f_n_a.png,O,z,1357,2,1,2237.89999999851,178417.90000000224,7160,VNB,C,1
1,prac,2,0.0,1-Back,1,m,Tue Jun 03 2025 08:54:02 GMT-0500 (Central Daylight Time),182924.0,014_m_m_h_a.png,O,m,1381,3,1,2257.39999999851,180666.6000000015,7160,VNB,C,2
2,prac,2,0.0,1-Back,1,m,Tue Jun 03 2025 08:54:02 GMT-0500 (Central Daylight Time),184656.40000000224,025_y_m_d_a.png,O,m,956,4,1,1724.1000000014901,182932.30000000075,7160,VNB,C,3
3,prac,2,0.0,1-Back,1,m,Tue Jun 03 2025 08:54:02 GMT-0500 (Central Daylight Time),186505.40000000224,012_o_f_n_a.png,O,m,960,5,1,1839.0,184666.40000000224,7160,VNB,C,4
3,prac,2,1.0,1-Back,0,z,Tue Jun 03 2025 08:54:02 GMT-0500 (Central Daylight Time),188288.30000000075,025_y_m_n_a.png,O,m,895,6,1,1772.8999999985099,186515.40000000224,7160,VNB,C,5
4,prac,2,0.0,1-Back,1,m,Tue Jun 03 2025 08:54:02 GMT-0500 (Central Daylight Time),189987.6000000015,015_o_m_h_a.png,O,m,804,7,1,1690.199999999255,188297.40000000224,7160,VNB,C,6
5,prac,2,0.0,1-Back,1,m,Tue Jun 03 2025 08:54:02 GMT-0500 (Central Daylight Time),191719.6000000015,019_m_f_d_a.png,O,m,831,8,1,1721.3999999985099,189998.20000000298,7160,VNB,C,7
6,prac,2,1.0,1-Back,1,z,Tue Jun 03 2025 08:54:02 GMT-0500 (Central Daylight Time),193768.90000000224,022_y_f_d_a.png,O,z,1151,9,1,2041.800000000745,191727.1000000015,7160,VNB,C,8
7,prac,2,0.0,1-Back,1,m,Tue Jun 03 2025 08:54:02 GMT-0500 (Central Daylight Time),195468.5,014_m_m_n_a.png,O,m,819,10,1,1690.0,193778.5,7160,VNB,C,9
8,prac,2,0.0,1-Back,1,m,Tue Jun 03 2025 08:54:02 GMT-0500 (Central Daylight Time),198035.30000000075,012_o_f_h_a.png,O,m,1672,11,1,2558.099999997765,195477.20000000298,7160,VNB,C,10
9,prac,2,0.0,1-Back,1,m,Tue Jun 03 2025 08:54:02 GMT-0500 (Central Daylight Time),200250.90000000224,025_y_m_d_a.png,O,m,1352,12,1,2204.699999999255,198046.20000000298,7160,VNB,C,11
0,test,1,0.0,1-Back,,,Tue Jun 03 2025 08:54:02 GMT-0500 (Central Daylight Time),200250.90000000224,022_y_f_d_a.png,O,space,8174,1,1,2204.699999999255,198046.20000000298,7160,VNB,C,0
1,test,1,0.0,1-Back,1,m,Tue Jun 03 2025 08:54:02 GMT-0500 (Central Daylight Time),217144.0,019_m_f_n_a.png,O,m,1376,2,1,2393.0,214751.0,7160,VNB,C,1
2,test,1,0.0,1-Back,1,m,Tue Jun 03 2025 08:54:02 GMT-0500 (Central Daylight Time),219260.0,015_o_m_h_a.png,O,m,1087,3,1,2109.199999999255,217150.80000000075,7160,VNB,C,2
3,test,1,1.0,1-Back,1,z,Tue Jun 03 2025 08:54:02 GMT-0500 (Central Daylight Time),221290.20000000298,014_m_m_h_a.png,O,z,1012,4,1,2020.7000000029802,219269.5,7160,VNB,C,3
4,test,1,0.0,1-Back,1,m,Tue Jun 03 2025 08:54:02 GMT-0500 (Central Daylight Time),223442.6000000015,012_o_f_n_a.png,O,m,1123,5,1,2149.0,221293.6000000015,7160,VNB,C,4
5,test,1,0.0,1-Back,1,m,Tue Jun 03 2025 08:54:02 GMT-0500 (Central Daylight Time),225625.0,025_y_m_d_a.png,O,m,1158,6,1,2174.5,223450.5,7160,VNB,C,5
5,test,1,1.0,1-Back,0,z,Tue Jun 03 2025 08:54:02 GMT-0500 (Central Daylight Time),227643.30000000075,019_m_f_d_a.png,O,m,985,7,1,2010.699999999255,225632.6000000015,7160,VNB,C,6
6,test,1,0.0,1-Back,1,m,Tue Jun 03 2025 08:54:02 GMT-0500 (Central Daylight Time),229789.40000000224,022_y_f_h_a.png,O,m,1127,8,1,2139.10000000149,227650.30000000075,7160,VNB,C,7
6,test,1,0.0,1-Back,0,m,Tue Jun 03 2025 08:54:02 GMT-0500 (Central Daylight Time),232055.80000000075,015_o_m_n_a.png,O,z,1236,9,1,2257.89999999851,229797.90000000224,7160,VNB,C,8
7,test,1,0.0,1-Back,1,m,Tue Jun 03 2025 08:54:02 GMT-0500 (Central Daylight Time),234572.90000000224,025_y_m_h_a.png,O,m,1500,10,1,2510.199999999255,232062.70000000298,7160,VNB,C,9
8,test,1,0.0,1-Back,1,m,Tue Jun 03 2025 08:54:02 GMT-0500 (Central Daylight Time),236721.1000000015,015_o_m_d_a.png,O,m,1126,11,1,2141.699999999255,234579.40000000224,7160,VNB,C,10
9,test,1,1.0,1-Back,1,z,Tue Jun 03 2025 08:54:02 GMT-0500 (Central Daylight Time),239203.40000000224,012_o_f_d_a.png,O,z,1457,12,1,2475.10000000149,236728.30000000075,7160,VNB,C,11
10,test,1,0.0,1-Back,1,m,Tue Jun 03 2025 08:54:02 GMT-0500 (Central Daylight Time),241436.20000000298,014_m_m_n_a.png,O,m,1206,13,1,2224.7000000029802,239211.5,7160,VNB,C,12
10,test,1,1.0,1-Back,0,z,Tue Jun 03 2025 08:54:02 GMT-0500 (Central Daylight Time),243784.1000000015,022_y_f_n_a.png,O,m,1325,14,1,2340.0,241444.1000000015,7160,VNB,C,13
10,test,1,0.0,1-Back,0,m,Tue Jun 03 2025 08:54:02 GMT-0500 (Central Daylight Time),245951.5,019_m_f_h_a.png,O,z,1143,15,1,2164.699999999255,243786.80000000075,7160,VNB,C,14
11,test,1,0.0,1-Back,1,m,Tue Jun 03 2025 08:54:02 GMT-0500 (Central Daylight Time),248034.6000000015,014_m_m_d_a.png,O,m,1066,16,1,2074.10000000149,245960.5,7160,VNB,C,15
12,test,1,0.0,1-Back,1,m,Tue Jun 03 2025 08:54:02 GMT-0500 (Central Daylight Time),250583.70000000298,025_y_m_n_a.png,O,m,1519,17,1,2540.5,248043.20000000298,7160,VNB,C,16
13,test,1,0.0,1-Back,1,m,Tue Jun 03 2025 08:54:02 GMT-0500 (Central Daylight Time),252416.40000000224,012_o_f_h_a.png,O,m,809,18,1,1822.5,250593.90000000224,7160,VNB,C,17
0,test,2,0.0,1-Back,,,Tue Jun 03 2025 08:54:02 GMT-0500 (Central Daylight Time),252416.40000000224,025_y_m_n_a.png,O,space,1919,1,1,1822.5,250593.90000000224,7160,VNB,C,0
1,test,2,0.0,1-Back,1,m,Tue Jun 03 2025 08:54:02 GMT-0500 (Central Daylight Time),258531.40000000224,022_y_f_h_a.png,O,m,1148,2,1,2157.60000000149,256373.80000000075,7160,VNB,C,1
2,test,2,1.0,1-Back,1,m,Tue Jun 03 2025 08:54:02 GMT-0500 (Central Daylight Time),260963.0,015_o_m_n_a.png,O,m,1405,3,1,2422.7999999970198,258540.20000000298,7160,VNB,C,2
3,test,2,0.0,1-Back,1,m,Tue Jun 03 2025 08:54:02 GMT-0500 (Central Daylight Time),263164.1000000015,019_m_f_d_a.png,O,m,1184,4,1,2192.300000000745,260971.80000000075,7160,VNB,C,3
4,test,2,0.0,1-Back,1,z,Tue Jun 03 2025 08:54:02 GMT-0500 (Central Daylight Time),265412.6000000015,014_m_m_d_a.png,O,z,1231,5,1,2241.89999999851,263170.700000003,7160,VNB,C,4
5,test,2,0.0,1-Back,1,m,Tue Jun 03 2025 08:54:02 GMT-0500 (Central Daylight Time),267594.30000000075,025_y_m_h_a.png,O,m,1154,6,1,2173.5,265420.80000000075,7160,VNB,C,5
6,test,2,1.0,1-Back,1,z,Tue Jun 03 2025 08:54:02 GMT-0500 (Central Daylight Time),269709.90000000224,012_o_f_h_a.png,O,z,1093,7,1,2107.0,267602.90000000224,7160,VNB,C,6
7,test,2,0.0,1-Back,1,m,Tue Jun 03 2025 08:54:02 GMT-0500 (Central Daylight Time),272077.1000000015,019_m_f_n_a.png,O,m,1345,8,1,2359.5,269717.6000000015,7160,VNB,C,7
8,test,2,0.0,1-Back,1,m,Tue Jun 03 2025 08:54:02 GMT-0500 (Central Daylight Time),274308.90000000224,022_y_f_d_a.png,O,m,1204,9,1,2221.0,272087.90000000224,7160,VNB,C,8
9,test,2,0.0,1-Back,1,m,Tue Jun 03 2025 08:54:02 GMT-0500 (Central Daylight Time),277009.700000003,014_m_m_n_a.png,O,m,1676,10,1,2692.300000000745,274317.40000000224,7160,VNB,C,9
10,test,2,1.0,1-Back,1,m,Tue Jun 03 2025 08:54:02 GMT-0500 (Central Daylight Time),279123.90000000224,019_m_f_h_a.png,O,m,1097,11,1,2104.5,277019.40000000224,7160,VNB,C,10
11,test,2,0.0,1-Back,1,z,Tue Jun 03 2025 08:54:02 GMT-0500 (Central Daylight Time),281141.40000000224,015_o_m_h_a.png,O,z,989,12,1,2012.699999999255,279128.700000003,7160,VNB,C,11
12,test,2,0.0,1-Back,1,m,Tue Jun 03 2025 08:54:02 GMT-0500 (Central Daylight Time),283407.30000000075,025_y_m_d_a.png,O,m,1245,13,1,2257.099999997765,281150.200000003,7160,VNB,C,12
13,test,2,0.0,1-Back,1,m,Tue Jun 03 2025 08:54:02 GMT-0500 (Central Daylight Time),285456.1000000015,012_o_f_n_a.png,O,m,1017,14,1,2041.3999999985099,283414.700000003,7160,VNB,C,13
13,test,2,0.0,1-Back,0,z,Tue Jun 03 2025 08:54:02 GMT-0500 (Central Daylight Time),287638.700000003,022_y_f_n_a.png,O,m,1152,15,1,2175.7000000029802,285463.0,7160,VNB,C,14
14,test,2,1.0,1-Back,1,m,Tue Jun 03 2025 08:54:02 GMT-0500 (Central Daylight Time),289988.200000003,014_m_m_h_a.png,O,m,1321,16,1,2342.0,287646.200000003,7160,VNB,C,15
15,test,2,0.0,1-Back,1,m,Tue Jun 03 2025 08:54:02 GMT-0500 (Central Daylight Time),292404.0,012_o_f_d_a.png,O,m,1397,17,1,2410.0,289994.0,7160,VNB,C,16
16,test,2,1.0,1-Back,1,z,Tue Jun 03 2025 08:54:02 GMT-0500 (Central Daylight Time),294535.6000000015,015_o_m_d_a.png,O,z,1109,18,1,2124.5,292411.1000000015,7160,VNB,C,17
0,test,3,1.0,1-Back,,,Tue Jun 03 2025 08:54:02 GMT-0500 (Central Daylight Time),294535.6000000015,012_o_f_h_a.png,O,space,1410,1,1,2124.5,292411.1000000015,7160,VNB,C,0
1,test,3,0.0,1-Back,1,m,Tue Jun 03 2025 08:54:02 GMT-0500 (Central Daylight Time),300067.6000000015,019_m_f_d_a.png,O,m,964,2,1,1971.5,298096.1000000015,7160,VNB,C,1
2,test,3,1.0,1-Back,1,m,Tue Jun 03 2025 08:54:02 GMT-0500 (Central Daylight Time),302451.40000000224,014_m_m_n_a.png,O,m,1367,3,1,2375.0,300076.40000000224,7160,VNB,C,2
3,test,3,0.0,1-Back,1,z,Tue Jun 03 2025 08:54:02 GMT-0500 (Central Daylight Time),304715.200000003,012_o_f_n_a.png,O,z,1239,4,1,2258.2000000029802,302457.0,7160,VNB,C,3
3,test,3,1.0,1-Back,0,m,Tue Jun 03 2025 08:54:02 GMT-0500 (Central Daylight Time),307033.0,015_o_m_d_a.png,O,z,1294,5,1,2308.89999999851,304724.1000000015,7160,VNB,C,4
4,test,3,0.0,1-Back,1,m,Tue Jun 03 2025 08:54:02 GMT-0500 (Central Daylight Time),308916.5,022_y_f_h_a.png,O,m,866,6,1,1875.5999999977648,307040.90000000224,7160,VNB,C,5
4,test,3,0.0,1-Back,0,z,Tue Jun 03 2025 08:54:02 GMT-0500 (Central Daylight Time),311364.5,025_y_m_h_a.png,O,m,1431,7,1,2440.89999999851,308923.6000000015,7160,VNB,C,6
5,test,3,0.0,1-Back,1,m,Tue Jun 03 2025 08:54:02 GMT-0500 (Central Daylight Time),313646.1000000015,019_m_f_n_a.png,O,m,1250,8,1,2274.300000000745,311371.80000000075,7160,VNB,C,7
6,test,3,0.0,1-Back,1,m,Tue Jun 03 2025 08:54:02 GMT-0500 (Central Daylight Time),315563.200000003,022_y_f_d_a.png,O,m,897,9,1,1909.9000000022352,313653.30000000075,7160,VNB,C,8
7,test,3,1.0,1-Back,1,m,Tue Jun 03 2025 08:54:02 GMT-0500 (Central Daylight Time),317912.700000003,015_o_m_n_a.png,O,m,1316,10,1,2343.5,315569.200000003,7160,VNB,C,9
8,test,3,0.0,1-Back,1,m,Tue Jun 03 2025 08:54:02 GMT-0500 (Central Daylight Time),320114.0,014_m_m_h_a.png,O,m,1184,11,1,2192.7999999970198,317921.200000003,7160,VNB,C,10
9,test,3,0.0,1-Back,1,z,Tue Jun 03 2025 08:54:02 GMT-0500 (Central Daylight Time),322211.1000000015,019_m_f_h_a.png,O,z,1072,12,1,2090.300000000745,320120.80000000075,7160,VNB,C,11
10,test,3,1.0,1-Back,1,m,Tue Jun 03 2025 08:54:02 GMT-0500 (Central Daylight Time),324126.40000000224,012_o_f_d_a.png,O,m,885,13,1,1906.699999999255,322219.700000003,7160,VNB,C,12
11,test,3,0.0,1-Back,1,z,Tue Jun 03 2025 08:54:02 GMT-0500 (Central Daylight Time),326840.80000000075,014_m_m_d_a.png,O,z,1690,14,1,2707.599999997765,324133.200000003,7160,VNB,C,13
12,test,3,0.0,1-Back,1,m,Tue Jun 03 2025 08:54:02 GMT-0500 (Central Daylight Time),328825.700000003,025_y_m_n_a.png,O,m,950,15,1,1981.300000000745,326844.40000000224,7160,VNB,C,14
13,test,3,1.0,1-Back,1,m,Tue Jun 03 2025 08:54:02 GMT-0500 (Central Daylight Time),331077.80000000075,015_o_m_h_a.png,O,m,1235,16,1,2243.199999999255,328834.6000000015,7160,VNB,C,15
14,test,3,0.0,1-Back,1,m,Tue Jun 03 2025 08:54:02 GMT-0500 (Central Daylight Time),333641.1000000015,025_y_m_d_a.png,O,m,1533,17,1,2555.5,331085.6000000015,7160,VNB,C,16
15,test,3,1.0,1-Back,1,m,Tue Jun 03 2025 08:54:02 GMT-0500 (Central Daylight Time),335691.0,022_y_f_n_a.png,O,m,1017,18,1,2045.0999999977648,333645.90000000224,7160,VNB,C,17
0,test,4,1.0,1-Back,,,Tue Jun 03 2025 08:54:02 GMT-0500 (Central Daylight Time),335691.0,014_m_m_d_a.png,O,space,1279,1,1,2045.0999999977648,333645.90000000224,7160,VNB,C,0
1,test,4,0.0,1-Back,1,z,Tue Jun 03 2025 08:54:02 GMT-0500 (Central Daylight Time),341255.0,015_o_m_d_a.png,O,z,1235,2,1,2256.2999999970198,338998.700000003,7160,VNB,C,1
2,test,4,0.0,1-Back,1,m,Tue Jun 03 2025 08:54:02 GMT-0500 (Central Daylight Time),343637.40000000224,025_y_m_h_a.png,O,m,1366,3,1,2373.199999999255,341264.200000003,7160,VNB,C,2
3,test,4,0.0,1-Back,1,m,Tue Jun 03 2025 08:54:02 GMT-0500 (Central Daylight Time),345670.90000000224,019_m_f_n_a.png,O,m,1017,4,1,2023.6000000014901,343647.30000000075,7160,VNB,C,3
4,test,4,1.0,1-Back,1,m,Tue Jun 03 2025 08:54:02 GMT-0500 (Central Daylight Time),348203.6000000015,012_o_f_h_a.png,O,m,1516,5,1,2525.60000000149,345678.0,7160,VNB,C,4
5,test,4,0.0,1-Back,1,m,Tue Jun 03 2025 08:54:02 GMT-0500 (Central Daylight Time),350154.6000000015,014_m_m_n_a.png,O,m,925,6,1,1941.5,348213.1000000015,7160,VNB,C,5
6,test,4,0.0,1-Back,1,m,Tue Jun 03 2025 08:54:02 GMT-0500 (Central Daylight Time),352601.30000000075,025_y_m_d_a.png,O,m,1425,7,1,2444.099999997765,350157.200000003,7160,VNB,C,6
7,test,4,1.0,1-Back,1,z,Tue Jun 03 2025 08:54:02 GMT-0500 (Central Daylight Time),354750.6000000015,022_y_f_d_a.png,O,z,1118,8,1,2140.300000000745,352610.30000000075,7160,VNB,C,7
8,test,4,0.0,1-Back,1,m,Tue Jun 03 2025 08:54:02 GMT-0500 (Central Daylight Time),356882.90000000224,019_m_f_h_a.png,O,m,1105,9,1,2124.400000002235,354758.5,7160,VNB,C,8
9,test,4,0.0,1-Back,1,z,Tue Jun 03 2025 08:54:02 GMT-0500 (Central Daylight Time),358999.6000000015,015_o_m_h_a.png,O,z,1085,10,1,2108.800000000745,356890.80000000075,7160,VNB,C,9
10,test,4,1.0,1-Back,1,m,Tue Jun 03 2025 08:54:02 GMT-0500 (Central Daylight Time),361064.90000000224,012_o_f_n_a.png,O,m,1041,11,1,2056.900000002235,359008.0,7160,VNB,C,10
11,test,4,0.0,1-Back,1,m,Tue Jun 03 2025 08:54:02 GMT-0500 (Central Daylight Time),363197.6000000015,019_m_f_d_a.png,O,m,1110,12,1,2123.39999999851,361074.200000003,7160,VNB,C,11
12,test,4,0.0,1-Back,1,m,Tue Jun 03 2025 08:54:02 GMT-0500 (Central Daylight Time),365645.0,022_y_f_n_a.png,O,m,1426,13,1,2438.7999999970198,363206.200000003,7160,VNB,C,12
12,test,4,0.0,1-Back,0,m,Tue Jun 03 2025 08:54:02 GMT-0500 (Central Daylight Time),368346.30000000075,012_o_f_d_a.png,O,z,1682,14,1,2698.300000000745,365648.0,7160,VNB,C,13
13,test,4,0.0,1-Back,1,m,Tue Jun 03 2025 08:54:02 GMT-0500 (Central Daylight Time),370892.80000000075,022_y_f_h_a.png,O,m,1527,15,1,2540.199999999255,368352.6000000015,7160,VNB,C,14
14,test,4,1.0,1-Back,1,z,Tue Jun 03 2025 08:54:02 GMT-0500 (Central Daylight Time),372762.200000003,014_m_m_h_a.png,O,z,851,16,1,1863.2000000029802,370899.0,7160,VNB,C,15
15,test,4,0.0,1-Back,1,m,Tue Jun 03 2025 08:54:02 GMT-0500 (Central Daylight Time),374578.80000000075,015_o_m_n_a.png,O,m,800,17,1,1808.5,372770.30000000075,7160,VNB,C,16
16,test,4,1.0,1-Back,1,z,Tue Jun 03 2025 08:54:02 GMT-0500 (Central Daylight Time),376727.0,025_y_m_n_a.png,O,z,1125,18,1,2143.2999999970198,374583.700000003,7160,VNB,C,17
0,test,5,1.0,1-Back,,,Tue Jun 03 2025 08:54:02 GMT-0500 (Central Daylight Time),376727.0,015_o_m_n_a.png,O,space,1250,1,1,2143.2999999970198,374583.700000003,7160,VNB,C,0
1,test,5,1.0,1-Back,1,m,Tue Jun 03 2025 08:54:02 GMT-0500 (Central Daylight Time),381924.700000003,012_o_f_h_a.png,O,m,914,2,1,1922.9000000022352,380001.80000000075,7160,VNB,C,1
2,test,5,0.0,1-Back,1,m,Tue Jun 03 2025 08:54:02 GMT-0500 (Central Daylight Time),384076.90000000224,025_y_m_d_a.png,O,m,1134,3,1,2143.0,381933.90000000224,7160,VNB,C,2
3,test,5,0.0,1-Back,1,z,Tue Jun 03 2025 08:54:02 GMT-0500 (Central Daylight Time),386323.40000000224,015_o_m_d_a.png,O,z,1221,4,1,2241.5,384081.90000000224,7160,VNB,C,3
4,test,5,0.0,1-Back,1,m,Tue Jun 03 2025 08:54:02 GMT-0500 (Central Daylight Time),388655.6000000015,019_m_f_h_a.png,O,m,1302,5,1,2324.39999999851,386331.200000003,7160,VNB,C,4
5,test,5,0.0,1-Back,1,m,Tue Jun 03 2025 08:54:02 GMT-0500 (Central Daylight Time),390755.700000003,022_y_f_n_a.png,O,m,1073,6,1,2090.900000002235,388664.80000000075,7160,VNB,C,5
6,test,5,1.0,1-Back,1,z,Tue Jun 03 2025 08:54:02 GMT-0500 (Central Daylight Time),393054.40000000224,012_o_f_n_a.png,O,z,1268,7,1,2290.60000000149,390763.80000000075,7160,VNB,C,6
7,test,5,0.0,1-Back,1,m,Tue Jun 03 2025 08:54:02 GMT-0500 (Central Daylight Time),395087.30000000075,019_m_f_d_a.png,O,m,1002,8,1,2026.0,393061.30000000075,7160,VNB,C,7
8,test,5,0.0,1-Back,1,m,Tue Jun 03 2025 08:54:02 GMT-0500 (Central Daylight Time),397217.90000000224,025_y_m_h_a.png,O,m,1106,9,1,2123.60000000149,395094.30000000075,7160,VNB,C,8
9,test,5,0.0,1-Back,1,m,Tue Jun 03 2025 08:54:02 GMT-0500 (Central Daylight Time),399269.6000000015,022_y_f_d_a.png,O,m,1028,10,1,2049.199999999255,397220.40000000224,7160,VNB,C,9
10,test,5,0.0,1-Back,1,m,Tue Jun 03 2025 08:54:02 GMT-0500 (Central Daylight Time),401852.200000003,014_m_m_n_a.png,O,m,1555,11,1,2574.5,399277.700000003,7160,VNB,C,10
11,test,5,1.0,1-Back,1,z,Tue Jun 03 2025 08:54:02 GMT-0500 (Central Daylight Time),404001.30000000075,019_m_f_n_a.png,O,z,1125,12,1,2141.199999999255,401860.1000000015,7160,VNB,C,11
12,test,5,0.0,1-Back,1,m,Tue Jun 03 2025 08:54:02 GMT-0500 (Central Daylight Time),405982.90000000224,015_o_m_h_a.png,O,m,949,13,1,1973.9000000022352,404009.0,7160,VNB,C,12
13,test,5,0.0,1-Back,1,z,Tue Jun 03 2025 08:54:02 GMT-0500 (Central Daylight Time),408183.30000000075,014_m_m_h_a.png,O,z,1168,14,1,2191.099999997765,405992.200000003,7160,VNB,C,13
14,test,5,1.0,1-Back,1,m,Tue Jun 03 2025 08:54:02 GMT-0500 (Central Daylight Time),410433.0,012_o_f_d_a.png,O,m,1226,15,1,2241.099999997765,408191.90000000224,7160,VNB,C,14
15,test,5,0.0,1-Back,1,m,Tue Jun 03 2025 08:54:02 GMT-0500 (Central Daylight Time),412962.700000003,025_y_m_n_a.png,O,m,1511,16,1,2522.400000002235,410440.30000000075,7160,VNB,C,15
16,test,5,0.0,1-Back,1,m,Tue Jun 03 2025 08:54:02 GMT-0500 (Central Daylight Time),415180.700000003,022_y_f_h_a.png,O,m,1199,17,1,2214.60000000149,412966.1000000015,7160,VNB,C,16
17,test,5,0.0,1-Back,1,m,Tue Jun 03 2025 08:54:02 GMT-0500 (Central Daylight Time),417847.30000000075,014_m_m_d_a.png,O,m,1635,18,1,2658.099999997765,415189.200000003,7160,VNB,C,17
0,prac,1,0.0,2-Back,,,Tue Jun 03 2025 08:54:02 GMT-0500 (Central Daylight Time),417847.30000000075,019_m_f_n_a.png,O,space,7144,1,1,2658.099999997765,415189.200000003,7160,VNB,C,0
0,prac,1,0.0,2-Back,,,Tue Jun 03 2025 08:54:02 GMT-0500 (Central Daylight Time),417847.30000000075,012_o_f_h_a.png,O,space,7144,2,1,2658.099999997765,415189.200000003,7160,VNB,C,0
0,prac,1,0.0,2-Back,0,m,Tue Jun 03 2025 08:54:02 GMT-0500 (Central Daylight Time),546688.4000000022,015_o_m_d_a.png,O,None,2012,3,1,2895.60000000149,543792.8000000007,7160,VNB,C,1
1,prac,1,1.0,2-Back,1,z,Tue Jun 03 2025 08:54:02 GMT-0500 (Central Daylight Time),549556.700000003,014_m_m_h_a.png,O,z,1971,4,1,2859.10000000149,546697.6000000015,7160,VNB,C,2
1,prac,1,0.0,2-Back,0,m,Tue Jun 03 2025 08:54:02 GMT-0500 (Central Daylight Time),552255.3000000007,022_y_f_n_a.png,O,z,1797,5,1,2686.89999999851,549568.4000000022,7160,VNB,C,3
1,prac,1,1.0,2-Back,0,z,Tue Jun 03 2025 08:54:02 GMT-0500 (Central Daylight Time),554269.9000000022,015_o_m_h_a.png,O,m,1234,6,1,2006.5,552263.4000000022,7160,VNB,C,4
1,prac,1,1.0,2-Back,0,z,Tue Jun 03 2025 08:54:02 GMT-0500 (Central Daylight Time),556286.8000000007,025_y_m_n_a.png,O,m,1150,7,1,2005.5999999977648,554281.200000003,7160,VNB,C,5
1,prac,1,0.0,2-Back,0,m,Tue Jun 03 2025 08:54:02 GMT-0500 (Central Daylight Time),558136.3000000007,019_m_f_d_a.png,O,z,947,8,1,1839.0,556297.3000000007,7160,VNB,C,6
2,prac,1,0.0,2-Back,1,m,Tue Jun 03 2025 08:54:02 GMT-0500 (Central Daylight Time),560569.6000000015,012_o_f_d_a.png,O,m,1535,9,1,2423.199999999255,558146.4000000022,7160,VNB,C,7
2,prac,1,0.0,2-Back,0,m,Tue Jun 03 2025 08:54:02 GMT-0500 (Central Daylight Time),562868.5,014_m_m_h_a.png,O,z,1505,10,1,2287.39999999851,560581.1000000015,7160,VNB,C,8
2,prac,1,1.0,2-Back,0,z,Tue Jun 03 2025 08:54:02 GMT-0500 (Central Daylight Time),565267.0,022_y_f_d_a.png,O,m,1496,11,1,2389.2999999970198,562877.700000003,7160,VNB,C,9
3,prac,1,0.0,2-Back,1,m,Tue Jun 03 2025 08:54:02 GMT-0500 (Central Daylight Time),567283.700000003,015_o_m_n_a.png,O,m,1110,12,1,2005.2000000029802,565278.5,7160,VNB,C,10
0,test,1,0.0,2-Back,,,Tue Jun 03 2025 08:54:02 GMT-0500 (Central Daylight Time),567283.700000003,025_y_m_h_a.png,O,space,11754,1,1,2005.2000000029802,565278.5,7160,VNB,C,0
0,test,1,0.0,2-Back,,,Tue Jun 03 2025 08:54:02 GMT-0500 (Central Daylight Time),567283.700000003,012_o_f_n_a.png,O,space,11754,2,1,2005.2000000029802,565278.5,7160,VNB,C,0
1,test,1,0.0,2-Back,1,z,Tue Jun 03 2025 08:54:02 GMT-0500 (Central Daylight Time),591608.700000003,015_o_m_h_a.png,O,z,1158,3,1,2171.5,589437.200000003,7160,VNB,C,1
2,test,1,0.0,2-Back,1,m,Tue Jun 03 2025 08:54:02 GMT-0500 (Central Daylight Time),594224.3000000007,019_m_f_d_a.png,O,m,1583,4,1,2610.5,591613.8000000007,7160,VNB,C,2
3,test,1,1.0,2-Back,1,m,Tue Jun 03 2025 08:54:02 GMT-0500 (Central Daylight Time),596839.9000000022,025_y_m_n_a.png,O,m,1592,5,1,2608.5,594231.4000000022,7160,VNB,C,3
3,test,1,0.0,2-Back,0,z,Tue Jun 03 2025 08:54:02 GMT-0500 (Central Daylight Time),599305.6000000015,022_y_f_d_a.png,O,m,1441,6,1,2457.199999999255,596848.4000000022,7160,VNB,C,4
4,test,1,0.0,2-Back,1,m,Tue Jun 03 2025 08:54:02 GMT-0500 (Central Daylight Time),601989.3000000007,014_m_m_h_a.png,O,m,1666,7,1,2675.300000000745,599314.0,7160,VNB,C,5
4,test,1,1.0,2-Back,0,m,Tue Jun 03 2025 08:54:02 GMT-0500 (Central Daylight Time),604388.3000000007,022_y_f_n_a.png,O,z,1383,8,1,2389.5,601998.8000000007,7160,VNB,C,6
5,test,1,0.0,2-Back,1,z,Tue Jun 03 2025 08:54:02 GMT-0500 (Central Daylight Time),606720.4000000022,012_o_f_h_a.png,O,z,1300,9,1,2324.400000002235,604396.0,7160,VNB,C,7
6,test,1,0.0,2-Back,1,m,Tue Jun 03 2025 08:54:02 GMT-0500 (Central Daylight Time),609685.700000003,015_o_m_d_a.png,O,m,1944,10,1,2957.2000000029802,606728.5,7160,VNB,C,8
7,test,1,1.0,2-Back,1,m,Tue Jun 03 2025 08:54:02 GMT-0500 (Central Daylight Time),612268.200000003,014_m_m_d_a.png,O,m,1563,11,1,2572.10000000149,609696.1000000015,7160,VNB,C,9
7,test,1,0.0,2-Back,0,m,Tue Jun 03 2025 08:54:02 GMT-0500 (Central Daylight Time),614900.0,019_m_f_n_a.png,O,z,1604,12,1,2621.599999997765,612278.4000000022,7160,VNB,C,10
8,test,1,0.0,2-Back,1,m,Tue Jun 03 2025 08:54:02 GMT-0500 (Central Daylight Time),616983.6000000015,022_y_f_h_a.png,O,m,1063,13,1,2076.300000000745,614907.3000000007,7160,VNB,C,11
8,test,1,0.0,2-Back,0,z,Tue Jun 03 2025 08:54:02 GMT-0500 (Central Daylight Time),619100.6000000015,014_m_m_n_a.png,O,m,1098,14,1,2108.60000000149,616992.0,7160,VNB,C,12
9,test,1,0.0,2-Back,1,m,Tue Jun 03 2025 08:54:02 GMT-0500 (Central Daylight Time),621100.8000000007,025_y_m_d_a.png,O,m,983,15,1,1991.800000000745,619109.0,7160,VNB,C,13
9,test,1,1.0,2-Back,0,m,Tue Jun 03 2025 08:54:02 GMT-0500 (Central Daylight Time),623331.1000000015,019_m_f_h_a.png,O,z,1206,16,1,2221.699999999255,621109.4000000022,7160,VNB,C,14
9,test,1,0.0,2-Back,0,z,Tue Jun 03 2025 08:54:02 GMT-0500 (Central Daylight Time),625296.4000000022,012_o_f_d_a.png,O,m,943,17,1,1957.800000000745,623338.6000000015,7160,VNB,C,15
9,test,1,0.0,2-Back,0,m,Tue Jun 03 2025 08:54:02 GMT-0500 (Central Daylight Time),628114.4000000022,015_o_m_n_a.png,O,z,1791,18,1,2811.10000000149,625303.3000000007,7160,VNB,C,16
0,test,2,0.0,2-Back,,,Tue Jun 03 2025 08:54:02 GMT-0500 (Central Daylight Time),628114.4000000022,014_m_m_h_a.png,O,space,1648,1,1,2811.10000000149,625303.3000000007,7160,VNB,C,0
0,test,2,0.0,2-Back,,,Tue Jun 03 2025 08:54:02 GMT-0500 (Central Daylight Time),628114.4000000022,022_y_f_n_a.png,O,space,1648,2,1,2811.10000000149,625303.3000000007,7160,VNB,C,0
1,test,2,1.0,2-Back,1,z,Tue Jun 03 2025 08:54:02 GMT-0500 (Central Daylight Time),637028.700000003,012_o_f_h_a.png,O,z,1015,3,1,2023.9000000022352,635004.8000000007,7160,VNB,C,1
2,test,2,0.0,2-Back,1,m,Tue Jun 03 2025 08:54:02 GMT-0500 (Central Daylight Time),639842.8000000007,015_o_m_d_a.png,O,m,1790,4,1,2803.89999999851,637038.9000000022,7160,VNB,C,2
2,test,2,0.0,2-Back,0,m,Tue Jun 03 2025 08:54:02 GMT-0500 (Central Daylight Time),642108.700000003,019_m_f_d_a.png,O,z,1232,5,1,2257.60000000149,639851.1000000015,7160,VNB,C,3
3,test,2,0.0,2-Back,1,m,Tue Jun 03 2025 08:54:02 GMT-0500 (Central Daylight Time),644341.6000000015,025_y_m_h_a.png,O,m,1212,6,1,2225.5,642116.1000000015,7160,VNB,C,4
3,test,2,0.0,2-Back,0,m,Tue Jun 03 2025 08:54:02 GMT-0500 (Central Daylight Time),646973.8000000007,012_o_f_n_a.png,O,z,1604,7,1,2623.0,644350.8000000007,7160,VNB,C,5
4,test,2,1.0,2-Back,1,z,Tue Jun 03 2025 08:54:02 GMT-0500 (Central Daylight Time),649540.5,015_o_m_h_a.png,O,z,1547,8,1,2559.2999999970198,646981.200000003,7160,VNB,C,6
5,test,2,0.0,2-Back,1,m,Tue Jun 03 2025 08:54:02 GMT-0500 (Central Daylight Time),651589.3000000007,022_y_f_d_a.png,O,m,1030,9,1,2040.0999999977648,649549.200000003,7160,VNB,C,7
6,test,2,0.0,2-Back,1,m,Tue Jun 03 2025 08:54:02 GMT-0500 (Central Daylight Time),654020.9000000022,025_y_m_d_a.png,O,m,1410,10,1,2423.199999999255,651597.700000003,7160,VNB,C,8
6,test,2,0.0,2-Back,0,m,Tue Jun 03 2025 08:54:02 GMT-0500 (Central Daylight Time),656504.6000000015,014_m_m_n_a.png,O,z,1449,11,1,2476.10000000149,654028.5,7160,VNB,C,9
7,test,2,0.0,2-Back,1,m,Tue Jun 03 2025 08:54:02 GMT-0500 (Central Daylight Time),658453.200000003,019_m_f_h_a.png,O,m,928,12,1,1939.7000000029802,656513.5,7160,VNB,C,10
7,test,2,1.0,2-Back,0,z,Tue Jun 03 2025 08:54:02 GMT-0500 (Central Daylight Time),661019.6000000015,015_o_m_n_a.png,O,m,1538,13,1,2558.10000000149,658461.5,7160,VNB,C,11
8,test,2,0.0,2-Back,1,m,Tue Jun 03 2025 08:54:02 GMT-0500 (Central Daylight Time),663154.3000000007,012_o_f_d_a.png,O,m,1101,14,1,2125.800000000745,661028.5,7160,VNB,C,12
8,test,2,0.0,2-Back,0,m,Tue Jun 03 2025 08:54:02 GMT-0500 (Central Daylight Time),665234.8000000007,022_y_f_h_a.png,O,z,1057,15,1,2074.099999997765,663160.700000003,7160,VNB,C,13
8,test,2,0.0,2-Back,0,z,Tue Jun 03 2025 08:54:02 GMT-0500 (Central Daylight Time),667818.5,014_m_m_d_a.png,O,m,1558,16,1,2575.699999999255,665242.8000000007,7160,VNB,C,14
9,test,2,0.0,2-Back,1,m,Tue Jun 03 2025 08:54:02 GMT-0500 (Central Daylight Time),670017.8000000007,025_y_m_n_a.png,O,m,1174,17,1,2191.199999999255,667826.6000000015,7160,VNB,C,15
10,test,2,1.0,2-Back,1,m,Tue Jun 03 2025 08:54:02 GMT-0500 (Central Daylight Time),672051.8000000007,019_m_f_n_a.png,O,m,1001,18,1,2024.699999999255,670027.1000000015,7160,VNB,C,16
0,test,3,1.0,2-Back,,,Tue Jun 03 2025 08:54:02 GMT-0500 (Central Daylight Time),672051.8000000007,015_o_m_n_a.png,O,space,2031,1,1,2024.699999999255,670027.1000000015,7160,VNB,C,0
0,test,3,1.0,2-Back,,,Tue Jun 03 2025 08:54:02 GMT-0500 (Central Daylight Time),672051.8000000007,012_o_f_d_a.png,O,space,2031,2,1,2024.699999999255,670027.1000000015,7160,VNB,C,0
1,test,3,0.0,2-Back,1,m,Tue Jun 03 2025 08:54:02 GMT-0500 (Central Daylight Time),681379.3000000007,022_y_f_h_a.png,O,m,1215,3,1,2224.300000000745,679155.0,7160,VNB,C,1
2,test,3,0.0,2-Back,1,z,Tue Jun 03 2025 08:54:02 GMT-0500 (Central Daylight Time),683628.5,019_m_f_d_a.png,O,z,1221,4,1,2241.7999999970198,681386.700000003,7160,VNB,C,2
3,test,3,1.0,2-Back,1,m,Tue Jun 03 2025 08:54:02 GMT-0500 (Central Daylight Time),685695.1000000015,025_y_m_n_a.png,O,m,1035,5,1,2060.39999999851,683634.700000003,7160,VNB,C,3
4,test,3,0.0,2-Back,1,m,Tue Jun 03 2025 08:54:02 GMT-0500 (Central Daylight Time),688078.6000000015,015_o_m_h_a.png,O,m,1353,6,1,2375.199999999255,685703.4000000022,7160,VNB,C,4
5,test,3,0.0,2-Back,1,z,Tue Jun 03 2025 08:54:02 GMT-0500 (Central Daylight Time),690811.6000000015,022_y_f_n_a.png,O,z,1716,7,1,2722.0,688089.6000000015,7160,VNB,C,5
6,test,3,1.0,2-Back,1,m,Tue Jun 03 2025 08:54:02 GMT-0500 (Central Daylight Time),693075.8000000007,014_m_m_d_a.png,O,m,1249,8,1,2255.800000000745,690820.0,7160,VNB,C,6
7,test,3,0.0,2-Back,1,m,Tue Jun 03 2025 08:54:02 GMT-0500 (Central Daylight Time),695625.5,025_y_m_d_a.png,O,m,1524,9,1,2542.199999999255,693083.3000000007,7160,VNB,C,7
8,test,3,0.0,2-Back,1,m,Tue Jun 03 2025 08:54:02 GMT-0500 (Central Daylight Time),697790.700000003,012_o_f_h_a.png,O,m,1142,10,1,2155.400000002235,695635.3000000007,7160,VNB,C,8
9,test,3,1.0,2-Back,1,m,Tue Jun 03 2025 08:54:02 GMT-0500 (Central Daylight Time),699858.1000000015,019_m_f_n_a.png,O,m,1050,11,1,2059.5,697798.6000000015,7160,VNB,C,9
10,test,3,1.0,2-Back,1,z,Tue Jun 03 2025 08:54:02 GMT-0500 (Central Daylight Time),702090.0,014_m_m_h_a.png,O,z,1217,12,1,2223.5,699866.5,7160,VNB,C,10
11,test,3,0.0,2-Back,1,m,Tue Jun 03 2025 08:54:02 GMT-0500 (Central Daylight Time),704506.3000000007,022_y_f_d_a.png,O,m,1389,13,1,2409.0,702097.3000000007,7160,VNB,C,11
12,test,3,0.0,2-Back,1,m,Tue Jun 03 2025 08:54:02 GMT-0500 (Central Daylight Time),707322.3000000007,012_o_f_n_a.png,O,m,1792,14,1,2809.699999999255,704512.6000000015,7160,VNB,C,12
12,test,3,0.0,2-Back,0,z,Tue Jun 03 2025 08:54:02 GMT-0500 (Central Daylight Time),709854.700000003,015_o_m_d_a.png,O,m,1502,15,1,2523.400000002235,707331.3000000007,7160,VNB,C,13
13,test,3,1.0,2-Back,1,m,Tue Jun 03 2025 08:54:02 GMT-0500 (Central Daylight Time),712169.700000003,019_m_f_h_a.png,O,m,1291,16,1,2306.800000000745,709862.9000000022,7160,VNB,C,14
14,test,3,0.0,2-Back,1,m,Tue Jun 03 2025 08:54:02 GMT-0500 (Central Daylight Time),715085.1000000015,014_m_m_n_a.png,O,m,1894,17,1,2908.0,712177.1000000015,7160,VNB,C,15
14,test,3,0.0,2-Back,0,z,Tue Jun 03 2025 08:54:02 GMT-0500 (Central Daylight Time),717767.700000003,025_y_m_h_a.png,O,m,1659,18,1,2675.10000000149,715092.6000000015,7160,VNB,C,16
0,test,4,0.0,2-Back,,,Tue Jun 03 2025 08:54:02 GMT-0500 (Central Daylight Time),717767.700000003,019_m_f_n_a.png,O,space,1401,1,1,2675.10000000149,715092.6000000015,7160,VNB,C,0
0,test,4,0.0,2-Back,,,Tue Jun 03 2025 08:54:02 GMT-0500 (Central Daylight Time),717767.700000003,015_o_m_n_a.png,O,space,1401,2,1,2675.10000000149,715092.6000000015,7160,VNB,C,0
1,test,4,1.0,2-Back,1,m,Tue Jun 03 2025 08:54:02 GMT-0500 (Central Daylight Time),726749.3000000007,025_y_m_h_a.png,O,m,1278,3,1,2291.199999999255,724458.1000000015,7160,VNB,C,1
2,test,4,1.0,2-Back,1,m,Tue Jun 03 2025 08:54:02 GMT-0500 (Central Daylight Time),728764.4000000022,012_o_f_d_a.png,O,m,998,4,1,2011.9000000022352,726752.5,7160,VNB,C,2
3,test,4,0.0,2-Back,1,z,Tue Jun 03 2025 08:54:02 GMT-0500 (Central Daylight Time),731163.3000000007,015_o_m_h_a.png,O,z,1380,5,1,2391.0,728772.3000000007,7160,VNB,C,3
4,test,4,0.0,2-Back,1,m,Tue Jun 03 2025 08:54:02 GMT-0500 (Central Daylight Time),733912.3000000007,014_m_m_n_a.png,O,m,1718,6,1,2739.5,731172.8000000007,7160,VNB,C,4
5,test,4,0.0,2-Back,1,m,Tue Jun 03 2025 08:54:02 GMT-0500 (Central Daylight Time),736128.3000000007,019_m_f_d_a.png,O,m,1192,7,1,2206.5,733921.8000000007,7160,VNB,C,5
6,test,4,0.0,2-Back,1,z,Tue Jun 03 2025 08:54:02 GMT-0500 (Central Daylight Time),738362.200000003,022_y_f_n_a.png,O,z,1217,8,1,2226.10000000149,736136.1000000015,7160,VNB,C,6
7,test,4,1.0,2-Back,1,m,Tue Jun 03 2025 08:54:02 GMT-0500 (Central Daylight Time),741143.200000003,012_o_f_h_a.png,O,m,1758,9,1,2774.60000000149,738368.6000000015,7160,VNB,C,7
8,test,4,0.0,2-Back,1,m,Tue Jun 03 2025 08:54:02 GMT-0500 (Central Daylight Time),743409.6000000015,014_m_m_h_a.png,O,m,1240,10,1,2259.800000000745,741149.8000000007,7160,VNB,C,8
9,test,4,0.0,2-Back,1,m,Tue Jun 03 2025 08:54:02 GMT-0500 (Central Daylight Time),745808.700000003,022_y_f_d_a.png,O,m,1365,11,1,2390.300000000745,743418.4000000022,7160,VNB,C,9
9,test,4,0.0,2-Back,0,m,Tue Jun 03 2025 08:54:02 GMT-0500 (Central Daylight Time),748824.700000003,025_y_m_n_a.png,O,z,1984,12,1,3007.0,745817.700000003,7160,VNB,C,10
9,test,4,0.0,2-Back,0,z,Tue Jun 03 2025 08:54:02 GMT-0500 (Central Daylight Time),751240.700000003,015_o_m_d_a.png,O,m,1391,13,1,2405.900000002235,748834.8000000007,7160,VNB,C,11
10,test,4,1.0,2-Back,1,m,Tue Jun 03 2025 08:54:02 GMT-0500 (Central Daylight Time),754123.9000000022,019_m_f_h_a.png,O,m,1865,14,1,2875.400000002235,751248.5,7160,VNB,C,12
11,test,4,1.0,2-Back,1,m,Tue Jun 03 2025 08:54:02 GMT-0500 (Central Daylight Time),756221.6000000015,022_y_f_h_a.png,O,m,1078,15,1,2091.0,754130.6000000015,7160,VNB,C,13
12,test,4,0.0,2-Back,1,m,Tue Jun 03 2025 08:54:02 GMT-0500 (Central Daylight Time),758620.5,012_o_f_n_a.png,O,m,1370,16,1,2391.099999997765,756229.4000000022,7160,VNB,C,14
13,test,4,0.0,2-Back,1,m,Tue Jun 03 2025 08:54:02 GMT-0500 (Central Daylight Time),761303.8000000007,025_y_m_d_a.png,O,m,1659,17,1,2674.89999999851,758628.9000000022,7160,VNB,C,15
14,test,4,1.0,2-Back,1,m,Tue Jun 03 2025 08:54:02 GMT-0500 (Central Daylight Time),763535.9000000022,014_m_m_d_a.png,O,m,1209,18,1,2224.900000002235,761311.0,7160,VNB,C,16
0,test,5,1.0,2-Back,,,Tue Jun 03 2025 08:54:02 GMT-0500 (Central Daylight Time),763535.9000000022,022_y_f_d_a.png,O,space,1329,1,1,2224.900000002235,761311.0,7160,VNB,C,0
0,test,5,1.0,2-Back,,,Tue Jun 03 2025 08:54:02 GMT-0500 (Central Daylight Time),763535.9000000022,012_o_f_h_a.png,O,space,1329,2,1,2224.900000002235,761311.0,7160,VNB,C,0
0,test,5,1.0,2-Back,0,z,Tue Jun 03 2025 08:54:02 GMT-0500 (Central Daylight Time),772217.6000000015,015_o_m_d_a.png,O,m,1048,3,1,2073.5,770144.1000000015,7160,VNB,C,1
1,test,5,1.0,2-Back,1,m,Tue Jun 03 2025 08:54:02 GMT-0500 (Central Daylight Time),774366.9000000022,019_m_f_n_a.png,O,m,1118,4,1,2142.199999999255,772224.700000003,7160,VNB,C,2
1,test,5,0.0,2-Back,0,m,Tue Jun 03 2025 08:54:02 GMT-0500 (Central Daylight Time),776616.9000000022,014_m_m_h_a.png,O,z,1217,5,1,2241.300000000745,774375.6000000015,7160,VNB,C,3
1,test,5,0.0,2-Back,0,z,Tue Jun 03 2025 08:54:02 GMT-0500 (Central Daylight Time),779132.0,022_y_f_n_a.png,O,m,1489,6,1,2506.7999999970198,776625.200000003,7160,VNB,C,4
2,test,5,0.0,2-Back,1,m,Tue Jun 03 2025 08:54:02 GMT-0500 (Central Daylight Time),781248.0,012_o_f_d_a.png,O,m,1094,7,1,2108.699999999255,779139.3000000007,7160,VNB,C,5
3,test,5,0.0,2-Back,1,m,Tue Jun 03 2025 08:54:02 GMT-0500 (Central Daylight Time),783912.6000000015,015_o_m_h_a.png,O,m,1648,8,1,2658.10000000149,781254.5,7160,VNB,C,6
4,test,5,1.0,2-Back,1,z,Tue Jun 03 2025 08:54:02 GMT-0500 (Central Daylight Time),786114.0,019_m_f_d_a.png,O,z,1168,9,1,2198.5,783915.5,7160,VNB,C,7
5,test,5,0.0,2-Back,1,m,Tue Jun 03 2025 08:54:02 GMT-0500 (Central Daylight Time),788312.200000003,025_y_m_n_a.png,O,m,1177,10,1,2189.0,786123.200000003,7160,VNB,C,8
6,test,5,0.0,2-Back,1,m,Tue Jun 03 2025 08:54:02 GMT-0500 (Central Daylight Time),791127.8000000007,014_m_m_n_a.png,O,m,1793,11,1,2808.099999997765,788319.700000003,7160,VNB,C,9
7,test,5,0.0,2-Back,1,m,Tue Jun 03 2025 08:54:02 GMT-0500 (Central Daylight Time),793360.5,022_y_f_h_a.png,O,m,1209,12,1,2226.199999999255,791134.3000000007,7160,VNB,C,10
8,test,5,0.0,2-Back,1,m,Tue Jun 03 2025 08:54:02 GMT-0500 (Central Daylight Time),795960.6000000015,025_y_m_d_a.png,O,m,1576,13,1,2593.699999999255,793366.9000000022,7160,VNB,C,11
8,test,5,1.0,2-Back,0,z,Tue Jun 03 2025 08:54:02 GMT-0500 (Central Daylight Time),798224.9000000022,019_m_f_h_a.png,O,m,1240,14,1,2258.0,795966.9000000022,7160,VNB,C,12
8,test,5,0.0,2-Back,0,m,Tue Jun 03 2025 08:54:02 GMT-0500 (Central Daylight Time),800407.9000000022,015_o_m_n_a.png,O,z,1159,15,1,2174.800000000745,798233.1000000015,7160,VNB,C,13
9,test,5,0.0,2-Back,1,m,Tue Jun 03 2025 08:54:02 GMT-0500 (Central Daylight Time),802541.6000000015,014_m_m_d_a.png,O,m,1102,16,1,2128.60000000149,800413.0,7160,VNB,C,14
10,test,5,0.0,2-Back,1,z,Tue Jun 03 2025 08:54:02 GMT-0500 (Central Daylight Time),804724.6000000015,012_o_f_n_a.png,O,z,1167,17,1,2174.800000000745,802549.8000000007,7160,VNB,C,15
10,test,5,1.0,2-Back,0,m,Tue Jun 03 2025 08:54:02 GMT-0500 (Central Daylight Time),807157.0,025_y_m_h_a.png,O,z,1405,18,1,2425.5,804731.5,7160,VNB,C,16
