acc_sum,block,block_c,change,condition,correct,correct_response,datetime,endtime,face,project,response,response_time,row_sel,session_number,start_end,starttime,subject_id,task,task_vers,trial
0,prac,1,,1-Back,,,Thu Aug 14 2025 15:08:38 GMT-0500 (Central Daylight Time),,005_o_f_d_a.png,I,space,2359,1,1,,,8009,VNB,B,0
1,prac,1,0.0,1-Back,1.0,m,Thu Aug 14 2025 15:08:38 GMT-0500 (Central Daylight Time),88851.80000001192,020_y_f_n_a.png,I,m,1268,2,1,2138.5,86713.30000001192,8009,VNB,B,1
2,prac,1,0.0,1-Back,1.0,m,Thu Aug 14 2025 15:08:38 GMT-0500 (Central Daylight Time),91267.5,007_m_m_h_a.png,I,m,1501,3,1,2407.100000023842,88860.39999997616,8009,VNB,B,2
3,prac,1,0.0,1-Back,1.0,m,Thu Aug 14 2025 15:08:38 GMT-0500 (Central Daylight Time),92917.19999998808,016_y_m_d_a.png,I,m,747,4,1,1640.5,91276.69999998808,8009,VNB,B,3
4,prac,1,0.0,1-Back,1.0,m,Thu Aug 14 2025 15:08:38 GMT-0500 (Central Daylight Time),95216.39999997616,005_o_f_n_a.png,I,m,1405,5,1,2291.2999999523163,92925.10000002384,8009,VNB,B,4
5,prac,1,1.0,1-Back,1.0,z,Thu Aug 14 2025 15:08:38 GMT-0500 (Central Daylight Time),96716.0,016_y_m_n_a.png,I,z,584,6,1,1491.6000000238419,95224.39999997616,8009,VNB,B,5
6,prac,1,0.0,1-Back,1.0,m,Thu Aug 14 2025 15:08:38 GMT-0500 (Central Daylight Time),98582.0,004_o_m_h_a.png,I,m,992,7,1,1858.199999988079,96723.80000001192,8009,VNB,B,6
7,prac,1,0.0,1-Back,1.0,m,Thu Aug 14 2025 15:08:38 GMT-0500 (Central Daylight Time),100881.19999998808,011_m_f_d_a.png,I,m,1396,8,1,2291.899999976158,98589.30000001192,8009,VNB,B,7
7,prac,1,1.0,1-Back,0.0,z,Thu Aug 14 2025 15:08:38 GMT-0500 (Central Daylight Time),102914.0,020_y_f_d_a.png,I,m,1137,9,1,2022.6000000238419,100891.39999997616,8009,VNB,B,8
7,prac,1,0.0,1-Back,0.0,m,Thu Aug 14 2025 15:08:38 GMT-0500 (Central Daylight Time),105814.30000001192,007_m_m_n_a.png,I,None,2002,10,1,2892.400000035763,102921.89999997616,8009,VNB,B,9
8,prac,1,0.0,1-Back,1.0,m,Thu Aug 14 2025 15:08:38 GMT-0500 (Central Daylight Time),107813.80000001192,005_o_f_h_a.png,I,m,1088,11,1,1991.300000011921,105822.5,8009,VNB,B,10
9,prac,1,0.0,1-Back,1.0,m,Thu Aug 14 2025 15:08:38 GMT-0500 (Central Daylight Time),109728.60000002384,016_y_m_d_a.png,I,m,1011,12,1,1906.800000011921,107821.80000001192,8009,VNB,B,11
0,test,1,0.0,1-Back,,,Thu Aug 14 2025 15:08:38 GMT-0500 (Central Daylight Time),109728.60000002384,020_y_f_d_a.png,I,space,2825,1,1,1906.800000011921,107821.80000001192,8009,VNB,B,0
1,test,1,0.0,1-Back,1.0,m,Thu Aug 14 2025 15:08:38 GMT-0500 (Central Daylight Time),120625.0,011_m_f_n_a.png,I,m,1314,2,1,2326.899999976158,118298.10000002384,8009,VNB,B,1
2,test,1,0.0,1-Back,1.0,m,Thu Aug 14 2025 15:08:38 GMT-0500 (Central Daylight Time),122574.30000001192,004_o_m_h_a.png,I,m,916,3,1,1943.9000000357628,120630.39999997616,8009,VNB,B,2
3,test,1,1.0,1-Back,1.0,z,Thu Aug 14 2025 15:08:38 GMT-0500 (Central Daylight Time),124123.89999997616,007_m_m_h_a.png,I,z,528,4,1,1544.2999999523163,122579.60000002384,8009,VNB,B,3
4,test,1,0.0,1-Back,1.0,m,Thu Aug 14 2025 15:08:38 GMT-0500 (Central Daylight Time),125806.89999997616,005_o_f_n_a.png,I,m,666,5,1,1677.0999999642372,124129.80000001192,8009,VNB,B,4
5,test,1,0.0,1-Back,1.0,m,Thu Aug 14 2025 15:08:38 GMT-0500 (Central Daylight Time),127689.5,016_y_m_d_a.png,I,m,864,6,1,1877.8999999761581,125811.60000002384,8009,VNB,B,5
6,test,1,1.0,1-Back,1.0,z,Thu Aug 14 2025 15:08:38 GMT-0500 (Central Daylight Time),129622.10000002384,011_m_f_d_a.png,I,z,909,7,1,1926.9000000357628,127695.19999998808,8009,VNB,B,6
7,test,1,0.0,1-Back,1.0,m,Thu Aug 14 2025 15:08:38 GMT-0500 (Central Daylight Time),131738.19999998808,020_y_f_h_a.png,I,m,1088,8,1,2110.899999976158,129627.30000001192,8009,VNB,B,7
8,test,1,0.0,1-Back,1.0,m,Thu Aug 14 2025 15:08:38 GMT-0500 (Central Daylight Time),133404.30000001192,004_o_m_n_a.png,I,m,643,9,1,1660.800000011921,131743.5,8009,VNB,B,8
9,test,1,0.0,1-Back,1.0,m,Thu Aug 14 2025 15:08:38 GMT-0500 (Central Daylight Time),135220.19999998808,016_y_m_h_a.png,I,m,794,10,1,1810.0,133410.19999998808,8009,VNB,B,9
10,test,1,0.0,1-Back,1.0,m,Thu Aug 14 2025 15:08:38 GMT-0500 (Central Daylight Time),136969.80000001192,004_o_m_d_a.png,I,m,722,11,1,1744.4000000357628,135225.39999997616,8009,VNB,B,10
11,test,1,1.0,1-Back,1.0,z,Thu Aug 14 2025 15:08:38 GMT-0500 (Central Daylight Time),138569.5,005_o_f_d_a.png,I,z,572,12,1,1594.800000011921,136974.69999998808,8009,VNB,B,11
12,test,1,0.0,1-Back,1.0,m,Thu Aug 14 2025 15:08:38 GMT-0500 (Central Daylight Time),140585.10000002384,007_m_m_n_a.png,I,m,989,13,1,2009.6000000238419,138575.5,8009,VNB,B,12
13,test,1,1.0,1-Back,1.0,z,Thu Aug 14 2025 15:08:38 GMT-0500 (Central Daylight Time),142268.19999998808,020_y_f_n_a.png,I,z,661,14,1,1677.8999999761581,140590.30000001192,8009,VNB,B,13
14,test,1,0.0,1-Back,1.0,m,Thu Aug 14 2025 15:08:38 GMT-0500 (Central Daylight Time),143917.69999998808,011_m_f_h_a.png,I,m,625,15,1,1643.699999988079,142274.0,8009,VNB,B,14
15,test,1,0.0,1-Back,1.0,m,Thu Aug 14 2025 15:08:38 GMT-0500 (Central Daylight Time),146300.19999998808,007_m_m_d_a.png,I,m,1360,16,1,2377.699999988079,143922.5,8009,VNB,B,15
16,test,1,0.0,1-Back,1.0,m,Thu Aug 14 2025 15:08:38 GMT-0500 (Central Daylight Time),148183.0,016_y_m_n_a.png,I,m,857,17,1,1877.6000000238419,146305.39999997616,8009,VNB,B,16
17,test,1,0.0,1-Back,1.0,m,Thu Aug 14 2025 15:08:38 GMT-0500 (Central Daylight Time),149956.19999998808,005_o_f_h_a.png,I,m,756,18,1,1767.5999999642372,148188.60000002384,8009,VNB,B,17
0,test,2,0.0,1-Back,,,Thu Aug 14 2025 15:08:38 GMT-0500 (Central Daylight Time),149956.19999998808,016_y_m_n_a.png,I,space,866,1,1,1767.5999999642372,148188.60000002384,8009,VNB,B,0
1,test,2,0.0,1-Back,1.0,m,Thu Aug 14 2025 15:08:38 GMT-0500 (Central Daylight Time),154581.0,020_y_f_h_a.png,I,m,710,2,1,1725.6000000238419,152855.39999997616,8009,VNB,B,1
2,test,2,1.0,1-Back,1.0,m,Thu Aug 14 2025 15:08:38 GMT-0500 (Central Daylight Time),156330.5,004_o_m_n_a.png,I,m,728,3,1,1744.1000000238419,154586.39999997616,8009,VNB,B,2
3,test,2,0.0,1-Back,1.0,m,Thu Aug 14 2025 15:08:38 GMT-0500 (Central Daylight Time),157896.69999998808,011_m_f_d_a.png,I,m,547,4,1,1560.300000011921,156336.39999997616,8009,VNB,B,3
4,test,2,0.0,1-Back,1.0,z,Thu Aug 14 2025 15:08:38 GMT-0500 (Central Daylight Time),159512.69999998808,007_m_m_d_a.png,I,z,590,5,1,1610.3999999761581,157902.30000001192,8009,VNB,B,4
5,test,2,0.0,1-Back,1.0,m,Thu Aug 14 2025 15:08:38 GMT-0500 (Central Daylight Time),161212.30000001192,016_y_m_h_a.png,I,m,670,6,1,1694.0,159518.30000001192,8009,VNB,B,5
6,test,2,1.0,1-Back,1.0,z,Thu Aug 14 2025 15:08:38 GMT-0500 (Central Daylight Time),162945.0,005_o_f_h_a.png,I,z,714,7,1,1727.699999988079,161217.30000001192,8009,VNB,B,6
7,test,2,0.0,1-Back,1.0,m,Thu Aug 14 2025 15:08:38 GMT-0500 (Central Daylight Time),164644.60000002384,011_m_f_n_a.png,I,m,669,8,1,1693.9000000357628,162950.69999998808,8009,VNB,B,7
8,test,2,0.0,1-Back,1.0,m,Thu Aug 14 2025 15:08:38 GMT-0500 (Central Daylight Time),166277.30000001192,020_y_f_d_a.png,I,m,610,9,1,1628.1000000238419,164649.19999998808,8009,VNB,B,8
9,test,2,0.0,1-Back,1.0,m,Thu Aug 14 2025 15:08:38 GMT-0500 (Central Daylight Time),168443.30000001192,007_m_m_n_a.png,I,m,1137,10,1,2160.600000023842,166282.69999998808,8009,VNB,B,9
10,test,2,1.0,1-Back,1.0,m,Thu Aug 14 2025 15:08:38 GMT-0500 (Central Daylight Time),170059.60000002384,011_m_f_h_a.png,I,m,585,11,1,1611.300000011921,168448.30000001192,8009,VNB,B,10
11,test,2,0.0,1-Back,1.0,z,Thu Aug 14 2025 15:08:38 GMT-0500 (Central Daylight Time),171575.89999997616,004_o_m_h_a.png,I,z,491,12,1,1510.7999999523163,170065.10000002384,8009,VNB,B,11
12,test,2,0.0,1-Back,1.0,m,Thu Aug 14 2025 15:08:38 GMT-0500 (Central Daylight Time),173208.5,016_y_m_d_a.png,I,m,606,13,1,1627.1000000238419,171581.39999997616,8009,VNB,B,12
13,test,2,0.0,1-Back,1.0,m,Thu Aug 14 2025 15:08:38 GMT-0500 (Central Daylight Time),174791.5,005_o_f_n_a.png,I,m,566,14,1,1577.3999999761581,173214.10000002384,8009,VNB,B,13
14,test,2,0.0,1-Back,1.0,z,Thu Aug 14 2025 15:08:38 GMT-0500 (Central Daylight Time),176374.39999997616,020_y_f_n_a.png,I,z,559,15,1,1578.0999999642372,174796.30000001192,8009,VNB,B,14
15,test,2,1.0,1-Back,1.0,m,Thu Aug 14 2025 15:08:38 GMT-0500 (Central Daylight Time),178073.69999998808,007_m_m_h_a.png,I,m,679,16,1,1693.800000011921,176379.89999997616,8009,VNB,B,15
15,test,2,0.0,1-Back,0.0,m,Thu Aug 14 2025 15:08:38 GMT-0500 (Central Daylight Time),179923.10000002384,005_o_f_d_a.png,I,z,829,17,1,1844.2000000476837,178078.89999997616,8009,VNB,B,16
16,test,2,1.0,1-Back,1.0,z,Thu Aug 14 2025 15:08:38 GMT-0500 (Central Daylight Time),181622.60000002384,004_o_m_d_a.png,I,z,667,18,1,1694.300000011921,179928.30000001192,8009,VNB,B,17
0,test,3,1.0,1-Back,,,Thu Aug 14 2025 15:08:38 GMT-0500 (Central Daylight Time),181622.60000002384,005_o_f_h_a.png,I,space,911,1,1,1694.300000011921,179928.30000001192,8009,VNB,B,0
1,test,3,0.0,1-Back,1.0,m,Thu Aug 14 2025 15:08:38 GMT-0500 (Central Daylight Time),187070.80000001192,011_m_f_d_a.png,I,m,1399,2,1,2410.100000023842,184660.69999998808,8009,VNB,B,1
2,test,3,1.0,1-Back,1.0,m,Thu Aug 14 2025 15:08:38 GMT-0500 (Central Daylight Time),189086.80000001192,007_m_m_n_a.png,I,m,984,3,1,2010.800000011921,187076.0,8009,VNB,B,2
3,test,3,0.0,1-Back,1.0,z,Thu Aug 14 2025 15:08:38 GMT-0500 (Central Daylight Time),190969.60000002384,005_o_f_n_a.png,I,z,862,4,1,1877.2000000476837,189092.39999997616,8009,VNB,B,3
4,test,3,1.0,1-Back,1.0,m,Thu Aug 14 2025 15:08:38 GMT-0500 (Central Daylight Time),192687.0,004_o_m_d_a.png,I,m,684,5,1,1712.300000011921,190974.69999998808,8009,VNB,B,4
5,test,3,0.0,1-Back,1.0,m,Thu Aug 14 2025 15:08:38 GMT-0500 (Central Daylight Time),194601.69999998808,020_y_f_h_a.png,I,m,896,6,1,1908.800000011921,192692.89999997616,8009,VNB,B,5
6,test,3,0.0,1-Back,1.0,z,Thu Aug 14 2025 15:08:38 GMT-0500 (Central Daylight Time),196301.10000002384,016_y_m_h_a.png,I,z,677,7,1,1694.7000000476837,194606.39999997616,8009,VNB,B,6
7,test,3,0.0,1-Back,1.0,m,Thu Aug 14 2025 15:08:38 GMT-0500 (Central Daylight Time),198217.30000001192,011_m_f_n_a.png,I,m,888,8,1,1910.0,196307.30000001192,8009,VNB,B,7
8,test,3,0.0,1-Back,1.0,m,Thu Aug 14 2025 15:08:38 GMT-0500 (Central Daylight Time),200183.5,020_y_f_d_a.png,I,m,949,9,1,1961.300000011921,198222.19999998808,8009,VNB,B,8
9,test,3,1.0,1-Back,1.0,m,Thu Aug 14 2025 15:08:38 GMT-0500 (Central Daylight Time),202149.39999997616,004_o_m_n_a.png,I,m,943,10,1,1961.0999999642372,200188.30000001192,8009,VNB,B,9
10,test,3,0.0,1-Back,1.0,m,Thu Aug 14 2025 15:08:38 GMT-0500 (Central Daylight Time),203982.30000001192,007_m_m_h_a.png,I,m,809,11,1,1826.5,202155.80000001192,8009,VNB,B,10
11,test,3,0.0,1-Back,1.0,z,Thu Aug 14 2025 15:08:38 GMT-0500 (Central Daylight Time),205515.19999998808,011_m_f_h_a.png,I,z,504,12,1,1527.8999999761581,203987.30000001192,8009,VNB,B,11
12,test,3,1.0,1-Back,1.0,m,Thu Aug 14 2025 15:08:38 GMT-0500 (Central Daylight Time),207164.69999998808,005_o_f_d_a.png,I,m,618,13,1,1645.0,205519.69999998808,8009,VNB,B,12
13,test,3,0.0,1-Back,1.0,z,Thu Aug 14 2025 15:08:38 GMT-0500 (Central Daylight Time),208963.69999998808,007_m_m_d_a.png,I,z,770,14,1,1793.699999988079,207170.0,8009,VNB,B,13
14,test,3,0.0,1-Back,1.0,m,Thu Aug 14 2025 15:08:38 GMT-0500 (Central Daylight Time),210796.69999998808,016_y_m_n_a.png,I,m,810,15,1,1826.5999999642372,208970.10000002384,8009,VNB,B,14
15,test,3,1.0,1-Back,1.0,m,Thu Aug 14 2025 15:08:38 GMT-0500 (Central Daylight Time),212429.60000002384,004_o_m_h_a.png,I,m,608,16,1,1627.9000000357628,210801.69999998808,8009,VNB,B,15
16,test,3,0.0,1-Back,1.0,m,Thu Aug 14 2025 15:08:38 GMT-0500 (Central Daylight Time),214062.10000002384,016_y_m_d_a.png,I,m,609,17,1,1627.300000011921,212434.80000001192,8009,VNB,B,16
17,test,3,1.0,1-Back,1.0,m,Thu Aug 14 2025 15:08:38 GMT-0500 (Central Daylight Time),216111.69999998808,020_y_f_n_a.png,I,m,1016,18,1,2044.5999999642372,214067.10000002384,8009,VNB,B,17
0,test,4,1.0,1-Back,,,Thu Aug 14 2025 15:08:38 GMT-0500 (Central Daylight Time),216111.69999998808,007_m_m_d_a.png,I,space,791,1,1,2044.5999999642372,214067.10000002384,8009,VNB,B,0
1,test,4,0.0,1-Back,1.0,z,Thu Aug 14 2025 15:08:38 GMT-0500 (Central Daylight Time),220959.89999997616,004_o_m_d_a.png,I,z,1014,2,1,2026.3999999761581,218933.5,8009,VNB,B,1
2,test,4,0.0,1-Back,1.0,m,Thu Aug 14 2025 15:08:38 GMT-0500 (Central Daylight Time),222426.19999998808,016_y_m_h_a.png,I,m,437,3,1,1461.0999999642372,220965.10000002384,8009,VNB,B,2
3,test,4,0.0,1-Back,1.0,m,Thu Aug 14 2025 15:08:38 GMT-0500 (Central Daylight Time),224192.39999997616,011_m_f_n_a.png,I,m,740,4,1,1760.699999988079,222431.69999998808,8009,VNB,B,3
4,test,4,1.0,1-Back,1.0,m,Thu Aug 14 2025 15:08:38 GMT-0500 (Central Daylight Time),225941.80000001192,005_o_f_h_a.png,I,m,726,5,1,1744.5,224197.30000001192,8009,VNB,B,4
5,test,4,0.0,1-Back,1.0,m,Thu Aug 14 2025 15:08:38 GMT-0500 (Central Daylight Time),228174.60000002384,007_m_m_n_a.png,I,m,1208,6,1,2227.7000000476837,225946.89999997616,8009,VNB,B,5
5,test,4,0.0,1-Back,0.0,m,Thu Aug 14 2025 15:08:38 GMT-0500 (Central Daylight Time),229707.39999997616,016_y_m_d_a.png,I,z,512,7,1,1527.3999999761581,228180.0,8009,VNB,B,6
6,test,4,1.0,1-Back,1.0,z,Thu Aug 14 2025 15:08:38 GMT-0500 (Central Daylight Time),231340.30000001192,020_y_f_d_a.png,I,z,603,8,1,1627.0,229713.30000001192,8009,VNB,B,7
7,test,4,0.0,1-Back,1.0,m,Thu Aug 14 2025 15:08:38 GMT-0500 (Central Daylight Time),232956.5,011_m_f_h_a.png,I,m,594,9,1,1610.8999999761581,231345.60000002384,8009,VNB,B,8
8,test,4,0.0,1-Back,1.0,z,Thu Aug 14 2025 15:08:38 GMT-0500 (Central Daylight Time),234739.10000002384,004_o_m_h_a.png,I,z,762,10,1,1776.300000011921,232962.80000001192,8009,VNB,B,9
9,test,4,1.0,1-Back,1.0,m,Thu Aug 14 2025 15:08:38 GMT-0500 (Central Daylight Time),236856.30000001192,005_o_f_n_a.png,I,m,1099,11,1,2110.600000023842,234745.69999998808,8009,VNB,B,10
10,test,4,0.0,1-Back,1.0,m,Thu Aug 14 2025 15:08:38 GMT-0500 (Central Daylight Time),239487.60000002384,011_m_f_d_a.png,I,m,1615,12,1,2626.100000023842,236861.5,8009,VNB,B,11
11,test,4,0.0,1-Back,1.0,m,Thu Aug 14 2025 15:08:38 GMT-0500 (Central Daylight Time),241170.60000002384,020_y_f_n_a.png,I,m,663,13,1,1678.1000000238419,239492.5,8009,VNB,B,12
12,test,4,0.0,1-Back,1.0,m,Thu Aug 14 2025 15:08:38 GMT-0500 (Central Daylight Time),243020.39999997616,005_o_f_d_a.png,I,m,819,14,1,1844.0,241176.39999997616,8009,VNB,B,13
13,test,4,0.0,1-Back,1.0,m,Thu Aug 14 2025 15:08:38 GMT-0500 (Central Daylight Time),244652.39999997616,020_y_f_h_a.png,I,m,602,15,1,1627.199999988079,243025.19999998808,8009,VNB,B,14
14,test,4,1.0,1-Back,1.0,z,Thu Aug 14 2025 15:08:38 GMT-0500 (Central Daylight Time),246352.10000002384,007_m_m_h_a.png,I,z,673,16,1,1694.9000000357628,244657.19999998808,8009,VNB,B,15
15,test,4,0.0,1-Back,1.0,m,Thu Aug 14 2025 15:08:38 GMT-0500 (Central Daylight Time),247918.19999998808,004_o_m_n_a.png,I,m,533,17,1,1560.8999999761581,246357.30000001192,8009,VNB,B,16
16,test,4,1.0,1-Back,1.0,z,Thu Aug 14 2025 15:08:38 GMT-0500 (Central Daylight Time),249852.60000002384,016_y_m_n_a.png,I,z,911,18,1,1929.1000000238419,247923.5,8009,VNB,B,17
0,test,5,1.0,1-Back,,,Thu Aug 14 2025 15:08:38 GMT-0500 (Central Daylight Time),249852.60000002384,004_o_m_n_a.png,I,space,1018,1,1,1929.1000000238419,247923.5,8009,VNB,B,0
1,test,5,1.0,1-Back,1.0,m,Thu Aug 14 2025 15:08:38 GMT-0500 (Central Daylight Time),254766.10000002384,005_o_f_h_a.png,I,m,833,2,1,1860.4000000357628,252905.69999998808,8009,VNB,B,1
2,test,5,0.0,1-Back,1.0,m,Thu Aug 14 2025 15:08:38 GMT-0500 (Central Daylight Time),256732.39999997616,016_y_m_d_a.png,I,m,936,3,1,1960.3999999761581,254772.0,8009,VNB,B,2
3,test,5,0.0,1-Back,1.0,z,Thu Aug 14 2025 15:08:38 GMT-0500 (Central Daylight Time),258415.10000002384,004_o_m_d_a.png,I,z,666,4,1,1677.6000000238419,256737.5,8009,VNB,B,3
4,test,5,0.0,1-Back,1.0,m,Thu Aug 14 2025 15:08:38 GMT-0500 (Central Daylight Time),260081.30000001192,011_m_f_h_a.png,I,m,647,5,1,1661.0,258420.30000001192,8009,VNB,B,4
5,test,5,0.0,1-Back,1.0,m,Thu Aug 14 2025 15:08:38 GMT-0500 (Central Daylight Time),261747.0,020_y_f_n_a.png,I,m,634,6,1,1660.300000011921,260086.69999998808,8009,VNB,B,5
5,test,5,1.0,1-Back,0.0,z,Thu Aug 14 2025 15:08:38 GMT-0500 (Central Daylight Time),263713.39999997616,005_o_f_n_a.png,I,m,946,7,1,1960.5999999642372,261752.80000001192,8009,VNB,B,6
6,test,5,0.0,1-Back,1.0,m,Thu Aug 14 2025 15:08:38 GMT-0500 (Central Daylight Time),265396.3000000119,011_m_f_d_a.png,I,m,661,8,1,1677.699999988079,263718.60000002384,8009,VNB,B,7
7,test,5,0.0,1-Back,1.0,m,Thu Aug 14 2025 15:08:38 GMT-0500 (Central Daylight Time),267228.8000000119,016_y_m_h_a.png,I,m,801,9,1,1828.0,265400.8000000119,8009,VNB,B,8
8,test,5,0.0,1-Back,1.0,m,Thu Aug 14 2025 15:08:38 GMT-0500 (Central Daylight Time),269244.89999997616,020_y_f_d_a.png,I,m,984,10,1,2010.5999999642372,267234.3000000119,8009,VNB,B,9
9,test,5,0.0,1-Back,1.0,m,Thu Aug 14 2025 15:08:38 GMT-0500 (Central Daylight Time),271077.60000002384,007_m_m_n_a.png,I,m,800,11,1,1827.1000000238419,269250.5,8009,VNB,B,10
10,test,5,1.0,1-Back,1.0,z,Thu Aug 14 2025 15:08:38 GMT-0500 (Central Daylight Time),272727.1999999881,011_m_f_n_a.png,I,z,624,12,1,1644.199999988079,271083.0,8009,VNB,B,11
11,test,5,0.0,1-Back,1.0,m,Thu Aug 14 2025 15:08:38 GMT-0500 (Central Daylight Time),274426.60000002384,004_o_m_h_a.png,I,m,679,13,1,1695.0,272731.60000002384,8009,VNB,B,12
12,test,5,0.0,1-Back,1.0,z,Thu Aug 14 2025 15:08:38 GMT-0500 (Central Daylight Time),276259.5,007_m_m_h_a.png,I,z,812,14,1,1827.3999999761581,274432.10000002384,8009,VNB,B,13
13,test,5,1.0,1-Back,1.0,m,Thu Aug 14 2025 15:08:38 GMT-0500 (Central Daylight Time),278092.3000000119,005_o_f_d_a.png,I,m,811,15,1,1827.4000000357628,276264.89999997616,8009,VNB,B,14
14,test,5,0.0,1-Back,1.0,m,Thu Aug 14 2025 15:08:38 GMT-0500 (Central Daylight Time),280191.5,016_y_m_n_a.png,I,m,1074,16,1,2094.800000011921,278096.6999999881,8009,VNB,B,15
15,test,5,0.0,1-Back,1.0,m,Thu Aug 14 2025 15:08:38 GMT-0500 (Central Daylight Time),281924.5,020_y_f_h_a.png,I,m,711,17,1,1728.6000000238419,280195.89999997616,8009,VNB,B,16
16,test,5,0.0,1-Back,1.0,m,Thu Aug 14 2025 15:08:38 GMT-0500 (Central Daylight Time),283574.0,007_m_m_d_a.png,I,m,626,18,1,1643.3999999761581,281930.60000002384,8009,VNB,B,17
0,prac,1,0.0,2-Back,,,Thu Aug 14 2025 15:08:38 GMT-0500 (Central Daylight Time),283574.0,011_m_f_n_a.png,I,space,2440,1,1,1643.3999999761581,281930.60000002384,8009,VNB,B,0
0,prac,1,0.0,2-Back,,,Thu Aug 14 2025 15:08:38 GMT-0500 (Central Daylight Time),283574.0,005_o_f_h_a.png,I,space,2440,2,1,1643.3999999761581,281930.60000002384,8009,VNB,B,0
0,prac,1,0.0,2-Back,0.0,m,Thu Aug 14 2025 15:08:38 GMT-0500 (Central Daylight Time),353618.60000002384,004_o_m_d_a.png,I,None,2010,3,1,2875.400000035763,350743.1999999881,8009,VNB,B,1
0,prac,1,1.0,2-Back,0.0,z,Thu Aug 14 2025 15:08:38 GMT-0500 (Central Daylight Time),354501.8000000119,007_m_m_h_a.png,I,m,1,4,1,875.3000000119209,353626.5,8009,VNB,B,2
0,prac,1,0.0,2-Back,0.0,m,Thu Aug 14 2025 15:08:38 GMT-0500 (Central Daylight Time),357384.10000002384,020_y_f_n_a.png,I,None,2002,5,1,2873.400000035763,354510.6999999881,8009,VNB,B,3
0,prac,1,1.0,2-Back,0.0,z,Thu Aug 14 2025 15:08:38 GMT-0500 (Central Daylight Time),360166.39999997616,004_o_m_h_a.png,I,None,2009,6,1,2776.199999988079,357390.1999999881,8009,VNB,B,4
0,prac,1,1.0,2-Back,0.0,z,Thu Aug 14 2025 15:08:38 GMT-0500 (Central Daylight Time),363082.3000000119,016_y_m_n_a.png,I,None,2016,7,1,2908.5,360173.8000000119,8009,VNB,B,5
1,prac,1,0.0,2-Back,1.0,m,Thu Aug 14 2025 15:08:38 GMT-0500 (Central Daylight Time),365231.5,011_m_f_d_a.png,I,m,1249,8,1,2142.300000011921,363089.1999999881,8009,VNB,B,6
2,prac,1,0.0,2-Back,1.0,m,Thu Aug 14 2025 15:08:38 GMT-0500 (Central Daylight Time),366697.8000000119,005_o_f_d_a.png,I,m,562,9,1,1459.300000011921,365238.5,8009,VNB,B,7
2,prac,1,0.0,2-Back,0.0,m,Thu Aug 14 2025 15:08:38 GMT-0500 (Central Daylight Time),367864.10000002384,007_m_m_h_a.png,I,z,388,10,1,1158.1000000238419,366706.0,8009,VNB,B,8
2,prac,1,1.0,2-Back,0.0,z,Thu Aug 14 2025 15:08:38 GMT-0500 (Central Daylight Time),368880.39999997616,020_y_f_d_a.png,I,m,129,11,1,1010.0999999642372,367870.3000000119,8009,VNB,B,9
2,prac,1,0.0,2-Back,0.0,m,Thu Aug 14 2025 15:08:38 GMT-0500 (Central Daylight Time),370130.0,004_o_m_n_a.png,I,z,371,12,1,1242.1000000238419,368887.89999997616,8009,VNB,B,10
0,prac,2,0.0,2-Back,,,Thu Aug 14 2025 15:08:38 GMT-0500 (Central Daylight Time),370130.0,011_m_f_n_a.png,I,a,2473,1,1,1242.1000000238419,368887.89999997616,8009,VNB,B,0
0,prac,2,0.0,2-Back,,,Thu Aug 14 2025 15:08:38 GMT-0500 (Central Daylight Time),370130.0,005_o_f_h_a.png,I,a,2473,2,1,1242.1000000238419,368887.89999997616,8009,VNB,B,0
1,prac,2,0.0,2-Back,1.0,m,Thu Aug 14 2025 15:08:38 GMT-0500 (Central Daylight Time),380193.6999999881,004_o_m_d_a.png,I,m,1422,3,1,2291.199999988079,377902.5,8009,VNB,B,1
2,prac,2,1.0,2-Back,1.0,z,Thu Aug 14 2025 15:08:38 GMT-0500 (Central Daylight Time),382592.60000002384,007_m_m_h_a.png,I,z,1613,4,1,2391.600000023842,380201.0,8009,VNB,B,2
3,prac,2,0.0,2-Back,1.0,m,Thu Aug 14 2025 15:08:38 GMT-0500 (Central Daylight Time),385059.60000002384,020_y_f_n_a.png,I,m,1581,5,1,2458.600000023842,382601.0,8009,VNB,B,3
4,prac,2,1.0,2-Back,1.0,z,Thu Aug 14 2025 15:08:38 GMT-0500 (Central Daylight Time),386609.5,004_o_m_h_a.png,I,z,664,6,1,1542.0,385067.5,8009,VNB,B,4
5,prac,2,1.0,2-Back,1.0,z,Thu Aug 14 2025 15:08:38 GMT-0500 (Central Daylight Time),388590.89999997616,016_y_m_n_a.png,I,z,1079,7,1,1974.0,386616.89999997616,8009,VNB,B,5
6,prac,2,0.0,2-Back,1.0,m,Thu Aug 14 2025 15:08:38 GMT-0500 (Central Daylight Time),390590.39999997616,011_m_f_d_a.png,I,m,1099,8,1,1992.5999999642372,388597.8000000119,8009,VNB,B,6
7,prac,2,0.0,2-Back,1.0,m,Thu Aug 14 2025 15:08:38 GMT-0500 (Central Daylight Time),392822.89999997616,005_o_f_d_a.png,I,m,1338,9,1,2226.2999999523163,390596.60000002384,8009,VNB,B,7
8,prac,2,0.0,2-Back,1.0,m,Thu Aug 14 2025 15:08:38 GMT-0500 (Central Daylight Time),394740.10000002384,007_m_m_h_a.png,I,m,1137,10,1,1910.5,392829.60000002384,8009,VNB,B,8
9,prac,2,1.0,2-Back,1.0,z,Thu Aug 14 2025 15:08:38 GMT-0500 (Central Daylight Time),397238.1999999881,020_y_f_d_a.png,I,z,1606,11,1,2489.899999976158,394748.3000000119,8009,VNB,B,9
10,prac,2,0.0,2-Back,1.0,m,Thu Aug 14 2025 15:08:38 GMT-0500 (Central Daylight Time),399753.89999997616,004_o_m_n_a.png,I,m,1634,12,1,2508.099999964237,397245.8000000119,8009,VNB,B,10
0,test,1,0.0,2-Back,,,Thu Aug 14 2025 15:08:38 GMT-0500 (Central Daylight Time),399753.89999997616,016_y_m_h_a.png,I,space,6879,1,1,2508.099999964237,397245.8000000119,8009,VNB,B,0
0,test,1,0.0,2-Back,,,Thu Aug 14 2025 15:08:38 GMT-0500 (Central Daylight Time),399753.89999997616,005_o_f_n_a.png,I,space,6879,2,1,2508.099999964237,397245.8000000119,8009,VNB,B,0
1,test,1,0.0,2-Back,1.0,z,Thu Aug 14 2025 15:08:38 GMT-0500 (Central Daylight Time),418981.10000002384,004_o_m_h_a.png,I,z,676,3,1,1693.7000000476837,417287.39999997616,8009,VNB,B,1
2,test,1,0.0,2-Back,1.0,m,Thu Aug 14 2025 15:08:38 GMT-0500 (Central Daylight Time),421547.10000002384,011_m_f_d_a.png,I,m,1545,4,1,2560.600000023842,418986.5,8009,VNB,B,2
2,test,1,1.0,2-Back,0.0,m,Thu Aug 14 2025 15:08:38 GMT-0500 (Central Daylight Time),423729.8000000119,016_y_m_n_a.png,I,z,1155,5,1,2177.800000011921,421552.0,8009,VNB,B,3
3,test,1,0.0,2-Back,1.0,z,Thu Aug 14 2025 15:08:38 GMT-0500 (Central Daylight Time),426129.39999997616,020_y_f_d_a.png,I,z,1373,6,1,2394.0,423735.39999997616,8009,VNB,B,4
3,test,1,0.0,2-Back,0.0,m,Thu Aug 14 2025 15:08:38 GMT-0500 (Central Daylight Time),428678.3000000119,007_m_m_h_a.png,I,z,1516,7,1,2543.300000011921,426135.0,8009,VNB,B,5
4,test,1,1.0,2-Back,1.0,m,Thu Aug 14 2025 15:08:38 GMT-0500 (Central Daylight Time),430910.89999997616,020_y_f_n_a.png,I,m,1216,8,1,2227.2999999523163,428683.60000002384,8009,VNB,B,6
5,test,1,0.0,2-Back,1.0,z,Thu Aug 14 2025 15:08:38 GMT-0500 (Central Daylight Time),432960.60000002384,005_o_f_h_a.png,I,z,1031,9,1,2044.9000000357628,430915.6999999881,8009,VNB,B,7
6,test,1,0.0,2-Back,1.0,m,Thu Aug 14 2025 15:08:38 GMT-0500 (Central Daylight Time),435242.6999999881,004_o_m_d_a.png,I,m,1262,10,1,2276.899999976158,432965.8000000119,8009,VNB,B,8
7,test,1,1.0,2-Back,1.0,m,Thu Aug 14 2025 15:08:38 GMT-0500 (Central Daylight Time),437875.39999997616,007_m_m_d_a.png,I,m,1602,11,1,2627.699999988079,435247.6999999881,8009,VNB,B,9
8,test,1,0.0,2-Back,1.0,m,Thu Aug 14 2025 15:08:38 GMT-0500 (Central Daylight Time),440358.0,011_m_f_n_a.png,I,m,1459,12,1,2477.800000011921,437880.1999999881,8009,VNB,B,10
8,test,1,0.0,2-Back,0.0,m,Thu Aug 14 2025 15:08:38 GMT-0500 (Central Daylight Time),443391.0,020_y_f_h_a.png,I,None,2016,13,1,3027.800000011921,440363.1999999881,8009,VNB,B,11
9,test,1,0.0,2-Back,1.0,z,Thu Aug 14 2025 15:08:38 GMT-0500 (Central Daylight Time),446056.10000002384,007_m_m_n_a.png,I,z,1648,14,1,2660.800000011921,443395.3000000119,8009,VNB,B,12
9,test,1,0.0,2-Back,0.0,m,Thu Aug 14 2025 15:08:38 GMT-0500 (Central Daylight Time),448238.8000000119,016_y_m_d_a.png,I,z,1157,15,1,2176.699999988079,446062.10000002384,8009,VNB,B,13
9,test,1,1.0,2-Back,0.0,m,Thu Aug 14 2025 15:08:38 GMT-0500 (Central Daylight Time),450571.6999999881,011_m_f_h_a.png,I,z,1302,16,1,2328.099999964237,448243.60000002384,8009,VNB,B,14
10,test,1,0.0,2-Back,1.0,z,Thu Aug 14 2025 15:08:38 GMT-0500 (Central Daylight Time),453170.60000002384,005_o_f_d_a.png,I,z,1578,17,1,2593.7000000476837,450576.89999997616,8009,VNB,B,15
11,test,1,0.0,2-Back,1.0,m,Thu Aug 14 2025 15:08:38 GMT-0500 (Central Daylight Time),455337.8000000119,004_o_m_n_a.png,I,m,1148,18,1,2162.0,453175.8000000119,8009,VNB,B,16
0,test,2,0.0,2-Back,,,Thu Aug 14 2025 15:08:38 GMT-0500 (Central Daylight Time),455337.8000000119,007_m_m_h_a.png,I,space,989,1,1,2162.0,453175.8000000119,8009,VNB,B,0
0,test,2,0.0,2-Back,,,Thu Aug 14 2025 15:08:38 GMT-0500 (Central Daylight Time),455337.8000000119,020_y_f_n_a.png,I,space,989,2,1,2162.0,453175.8000000119,8009,VNB,B,0
1,test,2,1.0,2-Back,1.0,z,Thu Aug 14 2025 15:08:38 GMT-0500 (Central Daylight Time),463284.10000002384,005_o_f_h_a.png,I,z,653,3,1,1676.4000000357628,461607.6999999881,8009,VNB,B,1
2,test,2,0.0,2-Back,1.0,m,Thu Aug 14 2025 15:08:38 GMT-0500 (Central Daylight Time),465416.8000000119,004_o_m_d_a.png,I,m,1106,4,1,2128.0,463288.8000000119,8009,VNB,B,2
3,test,2,0.0,2-Back,1.0,m,Thu Aug 14 2025 15:08:38 GMT-0500 (Central Daylight Time),467916.10000002384,011_m_f_d_a.png,I,m,1477,5,1,2494.7000000476837,465421.39999997616,8009,VNB,B,3
3,test,2,0.0,2-Back,0.0,m,Thu Aug 14 2025 15:08:38 GMT-0500 (Central Daylight Time),469798.8000000119,016_y_m_h_a.png,I,z,866,6,1,1877.300000011921,467921.5,8009,VNB,B,4
4,test,2,0.0,2-Back,1.0,m,Thu Aug 14 2025 15:08:38 GMT-0500 (Central Daylight Time),472364.39999997616,005_o_f_n_a.png,I,m,1536,7,1,2560.5,469803.89999997616,8009,VNB,B,5
5,test,2,1.0,2-Back,1.0,z,Thu Aug 14 2025 15:08:38 GMT-0500 (Central Daylight Time),474280.60000002384,004_o_m_h_a.png,I,z,897,8,1,1911.4000000357628,472369.1999999881,8009,VNB,B,6
6,test,2,0.0,2-Back,1.0,m,Thu Aug 14 2025 15:08:38 GMT-0500 (Central Daylight Time),477263.10000002384,020_y_f_d_a.png,I,m,1950,9,1,2977.300000011921,474285.8000000119,8009,VNB,B,7
7,test,2,0.0,2-Back,1.0,m,Thu Aug 14 2025 15:08:38 GMT-0500 (Central Daylight Time),479912.10000002384,016_y_m_d_a.png,I,m,1623,10,1,2643.600000023842,477268.5,8009,VNB,B,8
7,test,2,0.0,2-Back,0.0,m,Thu Aug 14 2025 15:08:38 GMT-0500 (Central Daylight Time),482594.6999999881,007_m_m_n_a.png,I,z,1654,11,1,2677.599999964237,479917.10000002384,8009,VNB,B,9
7,test,2,0.0,2-Back,0.0,m,Thu Aug 14 2025 15:08:38 GMT-0500 (Central Daylight Time),485627.3000000119,011_m_f_h_a.png,I,None,2016,12,1,3028.199999988079,482599.10000002384,8009,VNB,B,10
8,test,2,1.0,2-Back,1.0,z,Thu Aug 14 2025 15:08:38 GMT-0500 (Central Daylight Time),487959.5,004_o_m_n_a.png,I,z,1299,13,1,2327.600000023842,485631.89999997616,8009,VNB,B,11
9,test,2,0.0,2-Back,1.0,m,Thu Aug 14 2025 15:08:38 GMT-0500 (Central Daylight Time),490592.39999997616,005_o_f_d_a.png,I,m,1607,14,1,2628.399999976158,487964.0,8009,VNB,B,12
9,test,2,0.0,2-Back,0.0,m,Thu Aug 14 2025 15:08:38 GMT-0500 (Central Daylight Time),492891.5,020_y_f_h_a.png,I,z,1278,15,1,2293.699999988079,490597.8000000119,8009,VNB,B,13
9,test,2,0.0,2-Back,0.0,z,Thu Aug 14 2025 15:08:38 GMT-0500 (Central Daylight Time),495924.0,007_m_m_d_a.png,I,None,2016,16,1,3027.800000011921,492896.1999999881,8009,VNB,B,14
9,test,2,0.0,2-Back,0.0,m,Thu Aug 14 2025 15:08:38 GMT-0500 (Central Daylight Time),498239.8000000119,016_y_m_n_a.png,I,z,1290,17,1,2311.0,495928.8000000119,8009,VNB,B,15
10,test,2,1.0,2-Back,1.0,m,Thu Aug 14 2025 15:08:38 GMT-0500 (Central Daylight Time),500605.8000000119,011_m_f_n_a.png,I,m,1343,18,1,2360.300000011921,498245.5,8009,VNB,B,16
0,test,3,1.0,2-Back,,,Thu Aug 14 2025 15:08:38 GMT-0500 (Central Daylight Time),500605.8000000119,004_o_m_n_a.png,I,space,1048,1,1,2360.300000011921,498245.5,8009,VNB,B,0
0,test,3,1.0,2-Back,,,Thu Aug 14 2025 15:08:38 GMT-0500 (Central Daylight Time),500605.8000000119,005_o_f_d_a.png,I,space,1048,2,1,2360.300000011921,498245.5,8009,VNB,B,0
1,test,3,0.0,2-Back,1.0,m,Thu Aug 14 2025 15:08:38 GMT-0500 (Central Daylight Time),508753.3000000119,020_y_f_h_a.png,I,m,1030,3,1,2043.9000000357628,506709.39999997616,8009,VNB,B,1
2,test,3,0.0,2-Back,1.0,z,Thu Aug 14 2025 15:08:38 GMT-0500 (Central Daylight Time),510669.1999999881,011_m_f_d_a.png,I,z,885,4,1,1910.5999999642372,508758.60000002384,8009,VNB,B,2
3,test,3,1.0,2-Back,1.0,m,Thu Aug 14 2025 15:08:38 GMT-0500 (Central Daylight Time),512718.5,016_y_m_n_a.png,I,m,1016,5,1,2044.5,510674.0,8009,VNB,B,3
3,test,3,0.0,2-Back,0.0,m,Thu Aug 14 2025 15:08:38 GMT-0500 (Central Daylight Time),514518.0,004_o_m_h_a.png,I,z,767,6,1,1793.300000011921,512724.6999999881,8009,VNB,B,4
4,test,3,0.0,2-Back,1.0,z,Thu Aug 14 2025 15:08:38 GMT-0500 (Central Daylight Time),517200.60000002384,020_y_f_n_a.png,I,z,1656,7,1,2677.600000023842,514523.0,8009,VNB,B,5
5,test,3,1.0,2-Back,1.0,m,Thu Aug 14 2025 15:08:38 GMT-0500 (Central Daylight Time),519549.8000000119,007_m_m_d_a.png,I,m,1326,8,1,2344.400000035763,517205.39999997616,8009,VNB,B,6
6,test,3,0.0,2-Back,1.0,m,Thu Aug 14 2025 15:08:38 GMT-0500 (Central Daylight Time),521899.0,016_y_m_d_a.png,I,m,1320,9,1,2344.699999988079,519554.3000000119,8009,VNB,B,7
6,test,3,0.0,2-Back,0.0,m,Thu Aug 14 2025 15:08:38 GMT-0500 (Central Daylight Time),523931.89999997616,005_o_f_h_a.png,I,z,1011,10,1,2027.7999999523163,521904.10000002384,8009,VNB,B,8
7,test,3,1.0,2-Back,1.0,m,Thu Aug 14 2025 15:08:38 GMT-0500 (Central Daylight Time),526830.8999999762,011_m_f_n_a.png,I,m,1867,11,1,2894.099999964237,523936.8000000119,8009,VNB,B,9
8,test,3,1.0,2-Back,1.0,z,Thu Aug 14 2025 15:08:38 GMT-0500 (Central Daylight Time),528563.5,007_m_m_h_a.png,I,z,704,12,1,1727.300000011921,526836.1999999881,8009,VNB,B,10
9,test,3,0.0,2-Back,1.0,m,Thu Aug 14 2025 15:08:38 GMT-0500 (Central Daylight Time),530963.0,020_y_f_d_a.png,I,m,1379,13,1,2394.800000011921,528568.1999999881,8009,VNB,B,11
9,test,3,0.0,2-Back,0.0,m,Thu Aug 14 2025 15:08:38 GMT-0500 (Central Daylight Time),533112.1000000238,005_o_f_n_a.png,I,z,1123,14,1,2144.0,530968.1000000238,8009,VNB,B,12
9,test,3,0.0,2-Back,0.0,z,Thu Aug 14 2025 15:08:38 GMT-0500 (Central Daylight Time),536111.6000000238,004_o_m_d_a.png,I,m,1983,15,1,2993.7000000476837,533117.8999999762,8009,VNB,B,13
9,test,3,1.0,2-Back,0.0,m,Thu Aug 14 2025 15:08:38 GMT-0500 (Central Daylight Time),538360.6000000238,011_m_f_h_a.png,I,z,1223,16,1,2244.0,536116.6000000238,8009,VNB,B,14
9,test,3,0.0,2-Back,0.0,m,Thu Aug 14 2025 15:08:38 GMT-0500 (Central Daylight Time),541393.1999999881,007_m_m_n_a.png,I,None,2015,17,1,3027.399999976158,538365.8000000119,8009,VNB,B,15
10,test,3,0.0,2-Back,1.0,z,Thu Aug 14 2025 15:08:38 GMT-0500 (Central Daylight Time),543425.6999999881,016_y_m_h_a.png,I,z,1005,18,1,2027.699999988079,541398.0,8009,VNB,B,16
0,test,4,0.0,2-Back,,,Thu Aug 14 2025 15:08:38 GMT-0500 (Central Daylight Time),543425.6999999881,011_m_f_n_a.png,I,space,965,1,1,2027.699999988079,541398.0,8009,VNB,B,0
0,test,4,0.0,2-Back,,,Thu Aug 14 2025 15:08:38 GMT-0500 (Central Daylight Time),543425.6999999881,004_o_m_n_a.png,I,space,965,2,1,2027.699999988079,541398.0,8009,VNB,B,0
1,test,4,1.0,2-Back,1.0,m,Thu Aug 14 2025 15:08:38 GMT-0500 (Central Daylight Time),551724.5,016_y_m_h_a.png,I,m,1060,3,1,2078.0,549646.5,8009,VNB,B,1
2,test,4,1.0,2-Back,1.0,m,Thu Aug 14 2025 15:08:38 GMT-0500 (Central Daylight Time),553856.8000000119,005_o_f_d_a.png,I,m,1115,4,1,2126.900000035763,551729.8999999762,8009,VNB,B,2
3,test,4,0.0,2-Back,1.0,z,Thu Aug 14 2025 15:08:38 GMT-0500 (Central Daylight Time),555754.8999999762,004_o_m_h_a.png,I,z,877,5,1,1892.7999999523163,553862.1000000238,8009,VNB,B,3
4,test,4,0.0,2-Back,1.0,m,Thu Aug 14 2025 15:08:38 GMT-0500 (Central Daylight Time),558537.5,007_m_m_n_a.png,I,m,1755,6,1,2777.699999988079,555759.8000000119,8009,VNB,B,4
4,test,4,0.0,2-Back,0.0,m,Thu Aug 14 2025 15:08:38 GMT-0500 (Central Daylight Time),560620.3000000119,011_m_f_d_a.png,I,z,1061,7,1,2078.0,558542.3000000119,8009,VNB,B,5
5,test,4,0.0,2-Back,1.0,z,Thu Aug 14 2025 15:08:38 GMT-0500 (Central Daylight Time),562936.6999999881,020_y_f_n_a.png,I,z,1298,8,1,2311.800000011921,560624.8999999762,8009,VNB,B,6
6,test,4,1.0,2-Back,1.0,m,Thu Aug 14 2025 15:08:38 GMT-0500 (Central Daylight Time),565385.5,005_o_f_h_a.png,I,m,1422,9,1,2443.199999988079,562942.3000000119,8009,VNB,B,7
7,test,4,0.0,2-Back,1.0,m,Thu Aug 14 2025 15:08:38 GMT-0500 (Central Daylight Time),567784.6999999881,007_m_m_h_a.png,I,m,1379,10,1,2393.699999988079,565391.0,8009,VNB,B,8
8,test,4,0.0,2-Back,1.0,m,Thu Aug 14 2025 15:08:38 GMT-0500 (Central Daylight Time),569950.6000000238,020_y_f_d_a.png,I,m,1133,11,1,2160.7000000476837,567789.8999999762,8009,VNB,B,9
9,test,4,0.0,2-Back,1.0,m,Thu Aug 14 2025 15:08:38 GMT-0500 (Central Daylight Time),572633.1000000238,016_y_m_n_a.png,I,m,1663,12,1,2677.5,569955.6000000238,8009,VNB,B,10
10,test,4,0.0,2-Back,1.0,z,Thu Aug 14 2025 15:08:38 GMT-0500 (Central Daylight Time),574932.5,004_o_m_d_a.png,I,z,1277,13,1,2294.0,572638.5,8009,VNB,B,11
11,test,4,1.0,2-Back,1.0,m,Thu Aug 14 2025 15:08:38 GMT-0500 (Central Daylight Time),577232.6999999881,011_m_f_h_a.png,I,m,1274,14,1,2295.0,574937.6999999881,8009,VNB,B,12
12,test,4,1.0,2-Back,1.0,m,Thu Aug 14 2025 15:08:38 GMT-0500 (Central Daylight Time),579581.0,020_y_f_h_a.png,I,m,1325,15,1,2342.5,577238.5,8009,VNB,B,13
13,test,4,0.0,2-Back,1.0,m,Thu Aug 14 2025 15:08:38 GMT-0500 (Central Daylight Time),582330.0,005_o_f_n_a.png,I,m,1729,16,1,2744.399999976158,579585.6000000238,8009,VNB,B,14
13,test,4,0.0,2-Back,0.0,m,Thu Aug 14 2025 15:08:38 GMT-0500 (Central Daylight Time),585362.5,016_y_m_d_a.png,I,None,2015,17,1,3027.300000011921,582335.1999999881,8009,VNB,B,15
14,test,4,1.0,2-Back,1.0,m,Thu Aug 14 2025 15:08:38 GMT-0500 (Central Daylight Time),587278.5,007_m_m_d_a.png,I,m,891,18,1,1911.300000011921,585367.1999999881,8009,VNB,B,16
0,test,5,1.0,2-Back,,,Thu Aug 14 2025 15:08:38 GMT-0500 (Central Daylight Time),587278.5,020_y_f_d_a.png,I,space,928,1,1,1911.300000011921,585367.1999999881,8009,VNB,B,0
0,test,5,1.0,2-Back,,,Thu Aug 14 2025 15:08:38 GMT-0500 (Central Daylight Time),587278.5,005_o_f_h_a.png,I,space,928,2,1,1911.300000011921,585367.1999999881,8009,VNB,B,0
1,test,5,1.0,2-Back,1.0,z,Thu Aug 14 2025 15:08:38 GMT-0500 (Central Daylight Time),595393.0,004_o_m_d_a.png,I,z,889,3,1,1911.6000000238419,593481.3999999762,8009,VNB,B,1
2,test,5,1.0,2-Back,1.0,m,Thu Aug 14 2025 15:08:38 GMT-0500 (Central Daylight Time),597391.8000000119,011_m_f_n_a.png,I,m,982,4,1,1993.5,595398.3000000119,8009,VNB,B,2
3,test,5,0.0,2-Back,1.0,m,Thu Aug 14 2025 15:08:38 GMT-0500 (Central Daylight Time),600362.1000000238,007_m_m_h_a.png,I,m,1934,5,1,2965.300000011921,597396.8000000119,8009,VNB,B,3
4,test,5,0.0,2-Back,1.0,z,Thu Aug 14 2025 15:08:38 GMT-0500 (Central Daylight Time),602623.8000000119,020_y_f_n_a.png,I,z,1241,6,1,2253.900000035763,600369.8999999762,8009,VNB,B,4
5,test,5,0.0,2-Back,1.0,m,Thu Aug 14 2025 15:08:38 GMT-0500 (Central Daylight Time),604790.6000000238,005_o_f_d_a.png,I,m,1150,7,1,2162.7000000476837,602627.8999999762,8009,VNB,B,5
5,test,5,0.0,2-Back,0.0,m,Thu Aug 14 2025 15:08:38 GMT-0500 (Central Daylight Time),606655.6999999881,004_o_m_h_a.png,I,z,840,8,1,1860.699999988079,604795.0,8009,VNB,B,6
5,test,5,1.0,2-Back,0.0,z,Thu Aug 14 2025 15:08:38 GMT-0500 (Central Daylight Time),609688.1000000238,011_m_f_d_a.png,I,None,2015,9,1,3028.900000035763,606659.1999999881,8009,VNB,B,7
6,test,5,0.0,2-Back,1.0,m,Thu Aug 14 2025 15:08:38 GMT-0500 (Central Daylight Time),611554.1999999881,016_y_m_n_a.png,I,m,838,10,1,1862.3999999761581,609691.8000000119,8009,VNB,B,8
7,test,5,0.0,2-Back,1.0,m,Thu Aug 14 2025 15:08:38 GMT-0500 (Central Daylight Time),613420.3999999762,007_m_m_n_a.png,I,m,836,11,1,1862.3999999761581,611558.0,8009,VNB,B,9
8,test,5,0.0,2-Back,1.0,m,Thu Aug 14 2025 15:08:38 GMT-0500 (Central Daylight Time),615469.6999999881,020_y_f_h_a.png,I,m,1025,12,1,2045.300000011921,613424.3999999762,8009,VNB,B,10
9,test,5,0.0,2-Back,1.0,m,Thu Aug 14 2025 15:08:38 GMT-0500 (Central Daylight Time),617818.8000000119,016_y_m_d_a.png,I,m,1328,13,1,2345.100000023842,615473.6999999881,8009,VNB,B,11
9,test,5,1.0,2-Back,0.0,z,Thu Aug 14 2025 15:08:38 GMT-0500 (Central Daylight Time),619984.8999999762,011_m_f_h_a.png,I,m,1147,14,1,2161.399999976158,617823.5,8009,VNB,B,12
10,test,5,0.0,2-Back,1.0,m,Thu Aug 14 2025 15:08:38 GMT-0500 (Central Daylight Time),622734.3000000119,004_o_m_n_a.png,I,m,1725,15,1,2745.600000023842,619988.6999999881,8009,VNB,B,13
11,test,5,0.0,2-Back,1.0,m,Thu Aug 14 2025 15:08:38 GMT-0500 (Central Daylight Time),625416.6999999881,007_m_m_d_a.png,I,m,1655,16,1,2677.5,622739.1999999881,8009,VNB,B,14
12,test,5,0.0,2-Back,1.0,z,Thu Aug 14 2025 15:08:38 GMT-0500 (Central Daylight Time),627665.6999999881,005_o_f_n_a.png,I,z,1230,17,1,2244.300000011921,625421.3999999762,8009,VNB,B,15
13,test,5,1.0,2-Back,1.0,m,Thu Aug 14 2025 15:08:38 GMT-0500 (Central Daylight Time),629815.0,016_y_m_h_a.png,I,m,1132,18,1,2144.699999988079,627670.3000000119,8009,VNB,B,16
