acc_sum,block,block_c,change,condition,correct,correct_response,datetime,endtime,face,project,response,response_time,row_sel,session_number,start_end,starttime,subject_id,task,task_vers,trial
0,prac,1,,1-Back,,,Tue Jul 01 2025 14:16:17 GMT-0500 (Central Daylight Time),,124_o_f_d_a.png,O,space,6223,1,1,,,7175,VNB,A,0
1,prac,1,0.0,1-Back,1,m,Tue Jul 01 2025 14:16:17 GMT-0500 (Central Daylight Time),128335.1000000001,071_y_f_n_a.png,O,m,1115,2,1,1924.5,126410.6000000001,7175,VNB,A,1
1,prac,1,0.0,1-Back,0,m,Tue Jul 01 2025 14:16:17 GMT-0500 (Central Daylight Time),130700.8999999999,165_m_m_h_a.png,O,z,1560,3,1,2358.1999999997206,128342.70000000019,7175,VNB,A,2
1,prac,1,0.0,1-Back,0,m,Tue Jul 01 2025 14:16:17 GMT-0500 (Central Daylight Time),133516.3999999999,109_y_m_d_a.png,O,None,2010,4,1,2807.6999999997206,130708.70000000019,7175,VNB,A,3
2,prac,1,0.0,1-Back,1,m,Tue Jul 01 2025 14:16:17 GMT-0500 (Central Daylight Time),135982.3999999999,124_o_f_n_a.png,O,m,1622,5,1,2458.899999999907,133523.5,7175,VNB,A,4
3,prac,1,1.0,1-Back,1,z,Tue Jul 01 2025 14:16:17 GMT-0500 (Central Daylight Time),137882.1000000001,109_y_m_n_a.png,O,z,1092,6,1,1892.6000000000931,135989.5,7175,VNB,A,5
4,prac,1,0.0,1-Back,1,m,Tue Jul 01 2025 14:16:17 GMT-0500 (Central Daylight Time),139964.7000000002,039_o_m_h_a.png,O,m,1280,7,1,2075.2000000001863,137889.5,7175,VNB,A,6
5,prac,1,0.0,1-Back,1,m,Tue Jul 01 2025 14:16:17 GMT-0500 (Central Daylight Time),142063.7999999998,139_m_f_d_a.png,O,m,1299,8,1,2091.7999999998137,139972.0,7175,VNB,A,7
6,prac,1,1.0,1-Back,1,z,Tue Jul 01 2025 14:16:17 GMT-0500 (Central Daylight Time),143879.8999999999,071_y_f_d_a.png,O,z,1005,9,1,1807.1999999997206,142072.7000000002,7175,VNB,A,8
7,prac,1,0.0,1-Back,1,m,Tue Jul 01 2025 14:16:17 GMT-0500 (Central Daylight Time),145512.7999999998,165_m_m_n_a.png,O,m,822,10,1,1624.3999999999069,143888.3999999999,7175,VNB,A,9
7,prac,1,0.0,1-Back,0,m,Tue Jul 01 2025 14:16:17 GMT-0500 (Central Daylight Time),147512.2999999998,124_o_f_h_a.png,O,z,1165,11,1,1992.1999999997206,145520.1000000001,7175,VNB,A,10
8,prac,1,0.0,1-Back,1,m,Tue Jul 01 2025 14:16:17 GMT-0500 (Central Daylight Time),149178.5,109_y_m_d_a.png,O,m,889,12,1,1658.8999999999069,147519.6000000001,7175,VNB,A,11
0,test,1,0.0,1-Back,,,Tue Jul 01 2025 14:16:17 GMT-0500 (Central Daylight Time),149178.5,071_y_f_d_a.png,O,space,8436,1,1,1658.8999999999069,147519.6000000001,7175,VNB,A,0
1,test,1,0.0,1-Back,1,m,Tue Jul 01 2025 14:16:17 GMT-0500 (Central Daylight Time),173588.2999999998,139_m_f_n_a.png,O,m,948,2,1,1960.2999999998137,171628.0,7175,VNB,A,1
2,test,1,0.0,1-Back,1,m,Tue Jul 01 2025 14:16:17 GMT-0500 (Central Daylight Time),176136.7000000002,039_o_m_h_a.png,O,m,1526,3,1,2542.4000000003725,173594.2999999998,7175,VNB,A,2
3,test,1,1.0,1-Back,1,z,Tue Jul 01 2025 14:16:17 GMT-0500 (Central Daylight Time),178069.5,165_m_m_h_a.png,O,z,911,4,1,1926.2999999998137,176143.2000000002,7175,VNB,A,3
4,test,1,0.0,1-Back,1,m,Tue Jul 01 2025 14:16:17 GMT-0500 (Central Daylight Time),180035.3999999999,124_o_f_n_a.png,O,m,940,5,1,1960.1000000000931,178075.2999999998,7175,VNB,A,4
5,test,1,0.0,1-Back,1,m,Tue Jul 01 2025 14:16:17 GMT-0500 (Central Daylight Time),182601.2999999998,109_y_m_d_a.png,O,m,1533,6,1,2559.7999999998137,180041.5,7175,VNB,A,5
6,test,1,1.0,1-Back,1,z,Tue Jul 01 2025 14:16:17 GMT-0500 (Central Daylight Time),184733.7999999998,139_m_f_d_a.png,O,z,1110,7,1,2124.0,182609.7999999998,7175,VNB,A,6
7,test,1,0.0,1-Back,1,m,Tue Jul 01 2025 14:16:17 GMT-0500 (Central Daylight Time),186849.7000000002,071_y_f_h_a.png,O,m,1083,8,1,2109.5,184740.2000000002,7175,VNB,A,7
8,test,1,0.0,1-Back,1,m,Tue Jul 01 2025 14:16:17 GMT-0500 (Central Daylight Time),188849.5,039_o_m_n_a.png,O,m,966,9,1,1993.6000000000931,186855.8999999999,7175,VNB,A,8
9,test,1,0.0,1-Back,1,m,Tue Jul 01 2025 14:16:17 GMT-0500 (Central Daylight Time),190965.0,109_y_m_h_a.png,O,m,1096,10,1,2109.100000000093,188855.8999999999,7175,VNB,A,9
10,test,1,0.0,1-Back,1,m,Tue Jul 01 2025 14:16:17 GMT-0500 (Central Daylight Time),192814.7000000002,039_o_m_d_a.png,O,m,828,11,1,1843.1000000000931,190971.6000000001,7175,VNB,A,10
11,test,1,1.0,1-Back,1,z,Tue Jul 01 2025 14:16:17 GMT-0500 (Central Daylight Time),194714.2000000002,124_o_f_d_a.png,O,z,873,12,1,1892.9000000003725,192821.2999999998,7175,VNB,A,11
12,test,1,0.0,1-Back,1,m,Tue Jul 01 2025 14:16:17 GMT-0500 (Central Daylight Time),196513.6000000001,165_m_m_n_a.png,O,m,782,13,1,1793.3000000002794,194720.2999999998,7175,VNB,A,12
13,test,1,1.0,1-Back,1,z,Tue Jul 01 2025 14:16:17 GMT-0500 (Central Daylight Time),198629.5,071_y_f_n_a.png,O,z,1095,14,1,2109.899999999907,196519.6000000001,7175,VNB,A,13
14,test,1,0.0,1-Back,1,m,Tue Jul 01 2025 14:16:17 GMT-0500 (Central Daylight Time),200562.0,139_m_f_h_a.png,O,m,914,15,1,1926.2999999998137,198635.7000000002,7175,VNB,A,14
15,test,1,0.0,1-Back,1,m,Tue Jul 01 2025 14:16:17 GMT-0500 (Central Daylight Time),202728.0,165_m_m_d_a.png,O,m,1142,16,1,2160.2000000001863,200567.7999999998,7175,VNB,A,15
16,test,1,0.0,1-Back,1,m,Tue Jul 01 2025 14:16:17 GMT-0500 (Central Daylight Time),204872.6000000001,109_y_m_n_a.png,O,m,981,17,1,2137.399999999907,202735.2000000002,7175,VNB,A,16
17,test,1,0.0,1-Back,1,m,Tue Jul 01 2025 14:16:17 GMT-0500 (Central Daylight Time),206776.8999999999,124_o_f_h_a.png,O,m,873,18,1,1897.1000000000931,204879.7999999998,7175,VNB,A,17
0,test,2,0.0,1-Back,,,Tue Jul 01 2025 14:16:17 GMT-0500 (Central Daylight Time),206776.8999999999,109_y_m_n_a.png,O,space,2584,1,1,1897.1000000000931,204879.7999999998,7175,VNB,A,0
1,test,2,0.0,1-Back,1,m,Tue Jul 01 2025 14:16:17 GMT-0500 (Central Daylight Time),213424.8999999999,071_y_f_h_a.png,O,m,1009,2,1,2026.7999999998137,211398.1000000001,7175,VNB,A,1
2,test,2,1.0,1-Back,1,m,Tue Jul 01 2025 14:16:17 GMT-0500 (Central Daylight Time),215607.3999999999,039_o_m_n_a.png,O,m,1151,3,1,2176.1999999997206,213431.2000000002,7175,VNB,A,2
3,test,2,0.0,1-Back,1,m,Tue Jul 01 2025 14:16:17 GMT-0500 (Central Daylight Time),217606.5,139_m_f_d_a.png,O,m,969,4,1,1992.7999999998137,215613.7000000002,7175,VNB,A,3
4,test,2,0.0,1-Back,1,z,Tue Jul 01 2025 14:16:17 GMT-0500 (Central Daylight Time),219472.7999999998,165_m_m_d_a.png,O,z,833,5,1,1860.1999999997206,217612.6000000001,7175,VNB,A,4
5,test,2,0.0,1-Back,1,m,Tue Jul 01 2025 14:16:17 GMT-0500 (Central Daylight Time),221406.8999999999,109_y_m_h_a.png,O,m,911,6,1,1928.0,219478.8999999999,7175,VNB,A,5
6,test,2,1.0,1-Back,1,z,Tue Jul 01 2025 14:16:17 GMT-0500 (Central Daylight Time),223421.7000000002,124_o_f_h_a.png,O,z,987,7,1,2008.6000000000931,221413.1000000001,7175,VNB,A,6
7,test,2,0.0,1-Back,1,m,Tue Jul 01 2025 14:16:17 GMT-0500 (Central Daylight Time),225354.6000000001,139_m_f_n_a.png,O,m,906,8,1,1926.6000000000931,223428.0,7175,VNB,A,7
8,test,2,0.0,1-Back,1,m,Tue Jul 01 2025 14:16:17 GMT-0500 (Central Daylight Time),227354.1000000001,071_y_f_d_a.png,O,m,983,9,1,1993.2000000001863,225360.8999999999,7175,VNB,A,8
9,test,2,0.0,1-Back,1,m,Tue Jul 01 2025 14:16:17 GMT-0500 (Central Daylight Time),229786.2000000002,165_m_m_n_a.png,O,m,1355,10,1,2425.9000000003725,227360.2999999998,7175,VNB,A,9
10,test,2,1.0,1-Back,1,m,Tue Jul 01 2025 14:16:17 GMT-0500 (Central Daylight Time),231719.2000000002,139_m_f_h_a.png,O,m,910,11,1,1926.9000000003725,229792.2999999998,7175,VNB,A,10
11,test,2,0.0,1-Back,1,z,Tue Jul 01 2025 14:16:17 GMT-0500 (Central Daylight Time),233668.3999999999,039_o_m_h_a.png,O,z,921,12,1,1943.1999999997206,231725.2000000002,7175,VNB,A,11
12,test,2,0.0,1-Back,1,m,Tue Jul 01 2025 14:16:17 GMT-0500 (Central Daylight Time),235551.2999999998,109_y_m_d_a.png,O,m,853,13,1,1875.3999999999069,233675.8999999999,7175,VNB,A,12
13,test,2,0.0,1-Back,1,m,Tue Jul 01 2025 14:16:17 GMT-0500 (Central Daylight Time),237800.6000000001,124_o_f_n_a.png,O,m,1217,14,1,2243.100000000093,235557.5,7175,VNB,A,13
14,test,2,0.0,1-Back,1,z,Tue Jul 01 2025 14:16:17 GMT-0500 (Central Daylight Time),240016.3999999999,071_y_f_n_a.png,O,z,1185,15,1,2209.2999999998137,237807.1000000001,7175,VNB,A,14
15,test,2,1.0,1-Back,1,m,Tue Jul 01 2025 14:16:17 GMT-0500 (Central Daylight Time),241999.2999999998,165_m_m_h_a.png,O,m,953,16,1,1976.5999999996275,240022.7000000002,7175,VNB,A,15
16,test,2,0.0,1-Back,1,m,Tue Jul 01 2025 14:16:17 GMT-0500 (Central Daylight Time),243981.8999999999,124_o_f_d_a.png,O,m,954,17,1,1976.2999999998137,242005.6000000001,7175,VNB,A,16
17,test,2,1.0,1-Back,1,z,Tue Jul 01 2025 14:16:17 GMT-0500 (Central Daylight Time),245964.7999999998,039_o_m_d_a.png,O,z,954,18,1,1976.0,243988.7999999998,7175,VNB,A,17
0,test,3,1.0,1-Back,,,Tue Jul 01 2025 14:16:17 GMT-0500 (Central Daylight Time),245964.7999999998,124_o_f_h_a.png,O,space,2157,1,1,1976.0,243988.7999999998,7175,VNB,A,0
1,test,3,0.0,1-Back,1,m,Tue Jul 01 2025 14:16:17 GMT-0500 (Central Daylight Time),252129.1000000001,139_m_f_d_a.png,O,m,900,2,1,1926.2000000001863,250202.8999999999,7175,VNB,A,1
2,test,3,1.0,1-Back,1,m,Tue Jul 01 2025 14:16:17 GMT-0500 (Central Daylight Time),254212.1000000001,165_m_m_n_a.png,O,m,1063,3,1,2076.0,252136.1000000001,7175,VNB,A,2
3,test,3,0.0,1-Back,1,z,Tue Jul 01 2025 14:16:17 GMT-0500 (Central Daylight Time),256444.8999999999,124_o_f_n_a.png,O,z,1204,4,1,2226.600000000093,254218.2999999998,7175,VNB,A,3
4,test,3,1.0,1-Back,1,m,Tue Jul 01 2025 14:16:17 GMT-0500 (Central Daylight Time),258277.2999999998,039_o_m_d_a.png,O,m,804,5,1,1825.6999999997206,256451.6000000001,7175,VNB,A,4
5,test,3,0.0,1-Back,1,m,Tue Jul 01 2025 14:16:17 GMT-0500 (Central Daylight Time),260360.1000000001,071_y_f_h_a.png,O,m,1060,6,1,2076.2000000001863,258283.8999999999,7175,VNB,A,5
6,test,3,0.0,1-Back,1,z,Tue Jul 01 2025 14:16:17 GMT-0500 (Central Daylight Time),262292.8999999999,109_y_m_h_a.png,O,z,913,7,1,1926.5,260366.3999999999,7175,VNB,A,6
7,test,3,0.0,1-Back,1,m,Tue Jul 01 2025 14:16:17 GMT-0500 (Central Daylight Time),264159.0,139_m_f_n_a.png,O,m,844,8,1,1859.8999999999069,262299.1000000001,7175,VNB,A,7
8,test,3,0.0,1-Back,1,m,Tue Jul 01 2025 14:16:17 GMT-0500 (Central Daylight Time),266341.6000000001,071_y_f_d_a.png,O,m,1154,9,1,2176.3000000002794,264165.2999999998,7175,VNB,A,8
9,test,3,1.0,1-Back,1,m,Tue Jul 01 2025 14:16:17 GMT-0500 (Central Daylight Time),268324.3999999999,039_o_m_n_a.png,O,m,956,10,1,1976.0,266348.3999999999,7175,VNB,A,9
10,test,3,0.0,1-Back,1,m,Tue Jul 01 2025 14:16:17 GMT-0500 (Central Daylight Time),270323.7000000002,165_m_m_h_a.png,O,m,973,11,1,1992.8000000002794,268330.8999999999,7175,VNB,A,10
11,test,3,0.0,1-Back,1,z,Tue Jul 01 2025 14:16:17 GMT-0500 (Central Daylight Time),272139.7999999998,139_m_f_h_a.png,O,z,796,12,1,1809.8999999999069,270329.8999999999,7175,VNB,A,11
12,test,3,1.0,1-Back,1,m,Tue Jul 01 2025 14:16:17 GMT-0500 (Central Daylight Time),274122.7000000002,124_o_f_d_a.png,O,m,957,13,1,1976.6000000000931,272146.1000000001,7175,VNB,A,12
13,test,3,0.0,1-Back,1,z,Tue Jul 01 2025 14:16:17 GMT-0500 (Central Daylight Time),276121.8999999999,165_m_m_d_a.png,O,z,982,14,1,1992.7999999998137,274129.1000000001,7175,VNB,A,13
14,test,3,0.0,1-Back,1,m,Tue Jul 01 2025 14:16:17 GMT-0500 (Central Daylight Time),278005.7000000002,109_y_m_n_a.png,O,m,854,15,1,1877.4000000003725,276128.2999999998,7175,VNB,A,14
15,test,3,1.0,1-Back,1,m,Tue Jul 01 2025 14:16:17 GMT-0500 (Central Daylight Time),280220.6000000001,039_o_m_h_a.png,O,m,1196,16,1,2208.399999999907,278012.2000000002,7175,VNB,A,15
16,test,3,0.0,1-Back,1,m,Tue Jul 01 2025 14:16:17 GMT-0500 (Central Daylight Time),282186.7000000002,109_y_m_d_a.png,O,m,940,17,1,1960.0,280226.7000000002,7175,VNB,A,16
17,test,3,1.0,1-Back,1,m,Tue Jul 01 2025 14:16:17 GMT-0500 (Central Daylight Time),284119.3999999999,071_y_f_n_a.png,O,m,902,18,1,1926.1999999997206,282193.2000000002,7175,VNB,A,17
0,test,4,1.0,1-Back,,,Tue Jul 01 2025 14:16:17 GMT-0500 (Central Daylight Time),284119.3999999999,165_m_m_d_a.png,O,space,2257,1,1,1926.1999999997206,282193.2000000002,7175,VNB,A,0
1,test,4,0.0,1-Back,1,z,Tue Jul 01 2025 14:16:17 GMT-0500 (Central Daylight Time),290434.0,039_o_m_d_a.png,O,z,1016,2,1,2026.7000000001863,288407.2999999998,7175,VNB,A,1
2,test,4,0.0,1-Back,1,m,Tue Jul 01 2025 14:16:17 GMT-0500 (Central Daylight Time),292083.6000000001,109_y_m_h_a.png,O,m,631,3,1,1643.3000000002794,290440.2999999998,7175,VNB,A,2
3,test,4,0.0,1-Back,1,m,Tue Jul 01 2025 14:16:17 GMT-0500 (Central Daylight Time),293899.6000000001,139_m_f_n_a.png,O,m,789,4,1,1809.5,292090.1000000001,7175,VNB,A,3
4,test,4,1.0,1-Back,1,m,Tue Jul 01 2025 14:16:17 GMT-0500 (Central Daylight Time),295898.7999999998,124_o_f_h_a.png,O,m,981,5,1,1992.0999999996275,293906.7000000002,7175,VNB,A,4
5,test,4,0.0,1-Back,1,m,Tue Jul 01 2025 14:16:17 GMT-0500 (Central Daylight Time),297931.7000000002,165_m_m_n_a.png,O,m,1013,6,1,2026.7000000001863,295905.0,7175,VNB,A,5
6,test,4,0.0,1-Back,1,m,Tue Jul 01 2025 14:16:17 GMT-0500 (Central Daylight Time),299964.3999999999,109_y_m_d_a.png,O,m,966,7,1,2026.1999999997206,297938.2000000002,7175,VNB,A,6
7,test,4,1.0,1-Back,1,z,Tue Jul 01 2025 14:16:17 GMT-0500 (Central Daylight Time),301847.2000000002,071_y_f_d_a.png,O,z,853,8,1,1876.2000000001863,299971.0,7175,VNB,A,7
8,test,4,0.0,1-Back,1,m,Tue Jul 01 2025 14:16:17 GMT-0500 (Central Daylight Time),303779.7999999998,139_m_f_h_a.png,O,m,913,9,1,1925.6999999997206,301854.1000000001,7175,VNB,A,8
9,test,4,0.0,1-Back,1,z,Tue Jul 01 2025 14:16:17 GMT-0500 (Central Daylight Time),305762.3999999999,039_o_m_h_a.png,O,z,964,10,1,1976.6000000000931,303785.7999999998,7175,VNB,A,9
10,test,4,1.0,1-Back,1,m,Tue Jul 01 2025 14:16:17 GMT-0500 (Central Daylight Time),307745.2999999998,124_o_f_n_a.png,O,m,959,11,1,1975.2999999998137,305770.0,7175,VNB,A,10
11,test,4,0.0,1-Back,1,m,Tue Jul 01 2025 14:16:17 GMT-0500 (Central Daylight Time),310194.6000000001,139_m_f_d_a.png,O,m,1423,12,1,2443.0,307751.6000000001,7175,VNB,A,11
12,test,4,0.0,1-Back,1,m,Tue Jul 01 2025 14:16:17 GMT-0500 (Central Daylight Time),312543.6000000001,071_y_f_n_a.png,O,m,1319,13,1,2342.5,310201.1000000001,7175,VNB,A,12
13,test,4,0.0,1-Back,1,m,Tue Jul 01 2025 14:16:17 GMT-0500 (Central Daylight Time),314326.5,124_o_f_d_a.png,O,m,760,14,1,1776.5,312550.0,7175,VNB,A,13
14,test,4,0.0,1-Back,1,m,Tue Jul 01 2025 14:16:17 GMT-0500 (Central Daylight Time),316209.2999999998,071_y_f_h_a.png,O,m,859,15,1,1876.5999999996275,314332.7000000002,7175,VNB,A,14
15,test,4,1.0,1-Back,1,z,Tue Jul 01 2025 14:16:17 GMT-0500 (Central Daylight Time),318325.5,165_m_m_h_a.png,O,z,1088,16,1,2109.5,316216.0,7175,VNB,A,15
16,test,4,0.0,1-Back,1,m,Tue Jul 01 2025 14:16:17 GMT-0500 (Central Daylight Time),320558.0,039_o_m_n_a.png,O,m,1203,17,1,2226.2000000001863,318331.7999999998,7175,VNB,A,16
17,test,4,1.0,1-Back,1,z,Tue Jul 01 2025 14:16:17 GMT-0500 (Central Daylight Time),322891.6000000001,109_y_m_n_a.png,O,z,1315,18,1,2327.3000000002794,320564.2999999998,7175,VNB,A,17
0,test,5,1.0,1-Back,,,Tue Jul 01 2025 14:16:17 GMT-0500 (Central Daylight Time),322891.6000000001,039_o_m_n_a.png,O,space,2101,1,1,2327.3000000002794,320564.2999999998,7175,VNB,A,0
1,test,5,1.0,1-Back,1,m,Tue Jul 01 2025 14:16:17 GMT-0500 (Central Daylight Time),329172.0,124_o_f_h_a.png,O,m,1122,2,1,2142.2000000001863,327029.7999999998,7175,VNB,A,1
2,test,5,0.0,1-Back,1,m,Tue Jul 01 2025 14:16:17 GMT-0500 (Central Daylight Time),331338.1000000001,109_y_m_d_a.png,O,m,1141,3,1,2159.8000000002794,329178.2999999998,7175,VNB,A,2
3,test,5,0.0,1-Back,1,z,Tue Jul 01 2025 14:16:17 GMT-0500 (Central Daylight Time),333338.0,039_o_m_d_a.png,O,z,983,4,1,1993.7000000001863,331344.2999999998,7175,VNB,A,3
4,test,5,0.0,1-Back,1,m,Tue Jul 01 2025 14:16:17 GMT-0500 (Central Daylight Time),335253.2999999998,139_m_f_h_a.png,O,m,896,5,1,1908.5,333344.7999999998,7175,VNB,A,4
5,test,5,0.0,1-Back,1,m,Tue Jul 01 2025 14:16:17 GMT-0500 (Central Daylight Time),337352.7000000002,071_y_f_n_a.png,O,m,1075,6,1,2093.0,335259.7000000002,7175,VNB,A,5
6,test,5,1.0,1-Back,1,z,Tue Jul 01 2025 14:16:17 GMT-0500 (Central Daylight Time),339368.6000000001,124_o_f_n_a.png,O,z,984,7,1,2009.8000000002794,337358.7999999998,7175,VNB,A,6
7,test,5,0.0,1-Back,1,m,Tue Jul 01 2025 14:16:17 GMT-0500 (Central Daylight Time),341218.0,139_m_f_d_a.png,O,m,831,8,1,1843.2000000001863,339374.7999999998,7175,VNB,A,7
8,test,5,0.0,1-Back,1,m,Tue Jul 01 2025 14:16:17 GMT-0500 (Central Daylight Time),343084.2999999998,109_y_m_h_a.png,O,m,839,9,1,1860.1999999997206,341224.1000000001,7175,VNB,A,8
9,test,5,0.0,1-Back,1,m,Tue Jul 01 2025 14:16:17 GMT-0500 (Central Daylight Time),345000.2999999998,071_y_f_d_a.png,O,m,893,10,1,1909.6999999997206,343090.6000000001,7175,VNB,A,9
10,test,5,0.0,1-Back,1,m,Tue Jul 01 2025 14:16:17 GMT-0500 (Central Daylight Time),346916.2999999998,165_m_m_n_a.png,O,m,866,11,1,1909.5,345006.7999999998,7175,VNB,A,10
11,test,5,1.0,1-Back,1,z,Tue Jul 01 2025 14:16:17 GMT-0500 (Central Daylight Time),348882.2999999998,139_m_f_n_a.png,O,z,948,12,1,1959.7999999998137,346922.5,7175,VNB,A,11
12,test,5,0.0,1-Back,1,m,Tue Jul 01 2025 14:16:17 GMT-0500 (Central Daylight Time),350865.2999999998,039_o_m_h_a.png,O,m,949,13,1,1976.6999999997206,348888.6000000001,7175,VNB,A,12
13,test,5,0.0,1-Back,1,z,Tue Jul 01 2025 14:16:17 GMT-0500 (Central Daylight Time),352831.2000000002,165_m_m_h_a.png,O,z,944,14,1,1959.9000000003725,350871.2999999998,7175,VNB,A,13
14,test,5,1.0,1-Back,1,m,Tue Jul 01 2025 14:16:17 GMT-0500 (Central Daylight Time),354897.3999999999,124_o_f_d_a.png,O,m,1033,15,1,2059.899999999907,352837.5,7175,VNB,A,14
15,test,5,0.0,1-Back,1,m,Tue Jul 01 2025 14:16:17 GMT-0500 (Central Daylight Time),357063.1000000001,109_y_m_n_a.png,O,m,1136,16,1,2159.3000000002794,354903.7999999998,7175,VNB,A,15
16,test,5,0.0,1-Back,1,m,Tue Jul 01 2025 14:16:17 GMT-0500 (Central Daylight Time),359046.0,071_y_f_h_a.png,O,m,953,17,1,1976.2000000001863,357069.7999999998,7175,VNB,A,16
17,test,5,0.0,1-Back,1,m,Tue Jul 01 2025 14:16:17 GMT-0500 (Central Daylight Time),361561.7999999998,165_m_m_d_a.png,O,m,1483,18,1,2509.6999999997206,359052.1000000001,7175,VNB,A,17
0,prac,1,0.0,2-Back,,,Tue Jul 01 2025 14:16:17 GMT-0500 (Central Daylight Time),361561.7999999998,139_m_f_n_a.png,O,space,6669,1,1,2509.6999999997206,359052.1000000001,7175,VNB,A,0
0,prac,1,0.0,2-Back,,,Tue Jul 01 2025 14:16:17 GMT-0500 (Central Daylight Time),361561.7999999998,124_o_f_h_a.png,O,space,6669,2,1,2509.6999999997206,359052.1000000001,7175,VNB,A,0
0,prac,1,0.0,2-Back,0,m,Tue Jul 01 2025 14:16:17 GMT-0500 (Central Daylight Time),475092.8999999999,039_o_m_d_a.png,O,z,1531,3,1,2325.399999999907,472767.5,7175,VNB,A,1
0,prac,1,1.0,2-Back,0,z,Tue Jul 01 2025 14:16:17 GMT-0500 (Central Daylight Time),477908.7999999998,165_m_m_h_a.png,O,None,2014,4,1,2807.899999999907,475100.8999999999,7175,VNB,A,2
1,prac,1,0.0,2-Back,1,m,Tue Jul 01 2025 14:16:17 GMT-0500 (Central Daylight Time),480424.5,071_y_f_n_a.png,O,m,1716,5,1,2508.100000000093,477916.3999999999,7175,VNB,A,3
1,prac,1,1.0,2-Back,0,z,Tue Jul 01 2025 14:16:17 GMT-0500 (Central Daylight Time),482174.1000000001,039_o_m_h_a.png,O,m,936,6,1,1741.7000000001863,480432.3999999999,7175,VNB,A,4
1,prac,1,1.0,2-Back,0,z,Tue Jul 01 2025 14:16:17 GMT-0500 (Central Daylight Time),484189.8999999999,109_y_m_n_a.png,O,m,1196,7,1,2008.3999999999069,482181.5,7175,VNB,A,5
1,prac,1,0.0,2-Back,0,m,Tue Jul 01 2025 14:16:17 GMT-0500 (Central Daylight Time),487005.7999999998,139_m_f_d_a.png,O,None,2016,8,1,2808.2999999998137,484197.5,7175,VNB,A,6
1,prac,1,0.0,2-Back,0,m,Tue Jul 01 2025 14:16:17 GMT-0500 (Central Daylight Time),489838.0,124_o_f_d_a.png,O,None,2003,9,1,2824.399999999907,487013.6000000001,7175,VNB,A,7
1,prac,1,0.0,2-Back,0,m,Tue Jul 01 2025 14:16:17 GMT-0500 (Central Daylight Time),492620.6000000001,165_m_m_h_a.png,O,None,2008,10,1,2775.100000000093,489845.5,7175,VNB,A,8
1,prac,1,1.0,2-Back,0,z,Tue Jul 01 2025 14:16:17 GMT-0500 (Central Daylight Time),494370.2000000002,071_y_f_d_a.png,O,m,949,11,1,1742.2000000001863,492628.0,7175,VNB,A,9
1,prac,1,0.0,2-Back,0,m,Tue Jul 01 2025 14:16:17 GMT-0500 (Central Daylight Time),496252.6000000001,039_o_m_n_a.png,O,z,1073,12,1,1875.0,494377.6000000001,7175,VNB,A,10
0,prac,2,0.0,2-Back,,,Tue Jul 01 2025 14:16:17 GMT-0500 (Central Daylight Time),496252.6000000001,139_m_f_n_a.png,O,a,15985,1,1,1875.0,494377.6000000001,7175,VNB,A,0
0,prac,2,0.0,2-Back,,,Tue Jul 01 2025 14:16:17 GMT-0500 (Central Daylight Time),496252.6000000001,124_o_f_h_a.png,O,a,15985,2,1,1875.0,494377.6000000001,7175,VNB,A,0
0,prac,2,0.0,2-Back,0,m,Tue Jul 01 2025 14:16:17 GMT-0500 (Central Daylight Time),519629.0,039_o_m_d_a.png,O,z,1472,3,1,2275.2999999998137,517353.7000000002,7175,VNB,A,1
0,prac,2,1.0,2-Back,0,z,Tue Jul 01 2025 14:16:17 GMT-0500 (Central Daylight Time),522395.7999999998,165_m_m_h_a.png,O,None,2008,4,1,2759.1999999997206,519636.6000000001,7175,VNB,A,2
1,prac,2,0.0,2-Back,1,m,Tue Jul 01 2025 14:16:17 GMT-0500 (Central Daylight Time),524660.7000000002,071_y_f_n_a.png,O,m,1452,5,1,2257.2000000001863,522403.5,7175,VNB,A,3
1,prac,2,1.0,2-Back,0,z,Tue Jul 01 2025 14:16:17 GMT-0500 (Central Daylight Time),526293.2999999998,039_o_m_h_a.png,O,m,821,6,1,1624.6999999997206,524668.6000000001,7175,VNB,A,4
1,prac,2,1.0,2-Back,0,z,Tue Jul 01 2025 14:16:17 GMT-0500 (Central Daylight Time),528659.2000000002,109_y_m_n_a.png,O,m,1558,7,1,2358.9000000003725,526300.2999999998,7175,VNB,A,5
1,prac,2,0.0,2-Back,0,m,Tue Jul 01 2025 14:16:17 GMT-0500 (Central Daylight Time),531475.2000000002,139_m_f_d_a.png,O,None,2008,8,1,2808.2000000001863,528667.0,7175,VNB,A,6
2,prac,2,0.0,2-Back,1,m,Tue Jul 01 2025 14:16:17 GMT-0500 (Central Daylight Time),533441.2000000002,124_o_f_d_a.png,O,m,1134,9,1,1958.0,531483.2000000002,7175,VNB,A,7
2,prac,2,0.0,2-Back,0,m,Tue Jul 01 2025 14:16:17 GMT-0500 (Central Daylight Time),535423.8999999999,165_m_m_h_a.png,O,z,1193,10,1,1975.5,533448.3999999999,7175,VNB,A,8
2,prac,2,1.0,2-Back,0,z,Tue Jul 01 2025 14:16:17 GMT-0500 (Central Daylight Time),536923.3999999999,071_y_f_d_a.png,O,m,689,11,1,1491.8999999999069,535431.5,7175,VNB,A,9
2,prac,2,0.0,2-Back,0,m,Tue Jul 01 2025 14:16:17 GMT-0500 (Central Daylight Time),539722.5,039_o_m_n_a.png,O,None,2003,12,1,2791.899999999907,536930.6000000001,7175,VNB,A,10
0,test,1,0.0,2-Back,,,Tue Jul 01 2025 14:16:17 GMT-0500 (Central Daylight Time),539722.5,109_y_m_h_a.png,O,space,11710,1,1,2791.899999999907,536930.6000000001,7175,VNB,A,0
0,test,1,0.0,2-Back,,,Tue Jul 01 2025 14:16:17 GMT-0500 (Central Daylight Time),539722.5,124_o_f_n_a.png,O,space,11710,2,1,2791.899999999907,536930.6000000001,7175,VNB,A,0
1,test,1,0.0,2-Back,1,z,Tue Jul 01 2025 14:16:17 GMT-0500 (Central Daylight Time),616731.5,039_o_m_h_a.png,O,z,855,3,1,1876.1000000000931,614855.3999999999,7175,VNB,A,1
2,test,1,0.0,2-Back,1,m,Tue Jul 01 2025 14:16:17 GMT-0500 (Central Daylight Time),618914.2000000002,139_m_f_d_a.png,O,m,1150,4,1,2175.3000000002794,616738.8999999999,7175,VNB,A,2
3,test,1,1.0,2-Back,1,m,Tue Jul 01 2025 14:16:17 GMT-0500 (Central Daylight Time),620897.0,109_y_m_n_a.png,O,m,950,5,1,1976.6000000000931,618920.3999999999,7175,VNB,A,3
3,test,1,0.0,2-Back,0,z,Tue Jul 01 2025 14:16:17 GMT-0500 (Central Daylight Time),623162.8999999999,071_y_f_d_a.png,O,m,1240,6,1,2259.2999999998137,620903.6000000001,7175,VNB,A,4
4,test,1,0.0,2-Back,1,m,Tue Jul 01 2025 14:16:17 GMT-0500 (Central Daylight Time),625145.8999999999,165_m_m_h_a.png,O,m,950,7,1,1976.6000000000931,623169.2999999998,7175,VNB,A,5
5,test,1,1.0,2-Back,1,m,Tue Jul 01 2025 14:16:17 GMT-0500 (Central Daylight Time),627444.7999999998,071_y_f_n_a.png,O,m,1279,8,1,2292.1999999997206,625152.6000000001,7175,VNB,A,6
6,test,1,0.0,2-Back,1,z,Tue Jul 01 2025 14:16:17 GMT-0500 (Central Daylight Time),629927.5,124_o_f_h_a.png,O,z,1346,9,1,2476.2000000001863,627451.2999999998,7175,VNB,A,7
7,test,1,0.0,2-Back,1,m,Tue Jul 01 2025 14:16:17 GMT-0500 (Central Daylight Time),632276.7999999998,039_o_m_d_a.png,O,m,1322,10,1,2342.6999999997206,629934.1000000001,7175,VNB,A,8
8,test,1,1.0,2-Back,1,m,Tue Jul 01 2025 14:16:17 GMT-0500 (Central Daylight Time),634809.2000000002,165_m_m_d_a.png,O,m,1508,11,1,2525.5,632283.7000000002,7175,VNB,A,9
9,test,1,0.0,2-Back,1,m,Tue Jul 01 2025 14:16:17 GMT-0500 (Central Daylight Time),637208.7000000002,139_m_f_n_a.png,O,m,1368,12,1,2392.9000000003725,634815.7999999998,7175,VNB,A,10
10,test,1,0.0,2-Back,1,m,Tue Jul 01 2025 14:16:17 GMT-0500 (Central Daylight Time),639324.7999999998,071_y_f_h_a.png,O,m,1088,13,1,2107.7999999998137,637217.0,7175,VNB,A,11
10,test,1,0.0,2-Back,0,z,Tue Jul 01 2025 14:16:17 GMT-0500 (Central Daylight Time),641840.5,165_m_m_n_a.png,O,m,1485,14,1,2509.5,639331.0,7175,VNB,A,12
11,test,1,0.0,2-Back,1,m,Tue Jul 01 2025 14:16:17 GMT-0500 (Central Daylight Time),643973.1000000001,109_y_m_d_a.png,O,m,1105,15,1,2126.100000000093,641847.0,7175,VNB,A,13
12,test,1,1.0,2-Back,1,m,Tue Jul 01 2025 14:16:17 GMT-0500 (Central Daylight Time),645923.7000000002,139_m_f_h_a.png,O,m,932,16,1,1943.2000000001863,643980.5,7175,VNB,A,14
12,test,1,0.0,2-Back,0,z,Tue Jul 01 2025 14:16:17 GMT-0500 (Central Daylight Time),648854.7999999998,124_o_f_d_a.png,O,m,1911,17,1,2924.7999999998137,645930.0,7175,VNB,A,15
13,test,1,0.0,2-Back,1,m,Tue Jul 01 2025 14:16:17 GMT-0500 (Central Daylight Time),650737.8999999999,039_o_m_n_a.png,O,m,866,18,1,1876.7999999998137,648861.1000000001,7175,VNB,A,16
0,test,2,0.0,2-Back,,,Tue Jul 01 2025 14:16:17 GMT-0500 (Central Daylight Time),650737.8999999999,165_m_m_h_a.png,O,space,5199,1,1,1876.7999999998137,648861.1000000001,7175,VNB,A,0
0,test,2,0.0,2-Back,,,Tue Jul 01 2025 14:16:17 GMT-0500 (Central Daylight Time),650737.8999999999,071_y_f_n_a.png,O,space,5199,2,1,1876.7999999998137,648861.1000000001,7175,VNB,A,0
1,test,2,1.0,2-Back,1,z,Tue Jul 01 2025 14:16:17 GMT-0500 (Central Daylight Time),663484.7999999998,124_o_f_h_a.png,O,z,1431,3,1,2443.2999999998137,661041.5,7175,VNB,A,1
2,test,2,0.0,2-Back,1,m,Tue Jul 01 2025 14:16:17 GMT-0500 (Central Daylight Time),666282.7000000002,039_o_m_d_a.png,O,m,1773,4,1,2791.8000000002794,663490.8999999999,7175,VNB,A,2
3,test,2,0.0,2-Back,1,m,Tue Jul 01 2025 14:16:17 GMT-0500 (Central Daylight Time),668782.2000000002,139_m_f_d_a.png,O,m,1478,5,1,2493.2000000001863,666289.0,7175,VNB,A,3
4,test,2,0.0,2-Back,1,m,Tue Jul 01 2025 14:16:17 GMT-0500 (Central Daylight Time),670881.5,109_y_m_h_a.png,O,m,1075,6,1,2092.5,668789.0,7175,VNB,A,4
5,test,2,0.0,2-Back,1,m,Tue Jul 01 2025 14:16:17 GMT-0500 (Central Daylight Time),673397.2000000002,124_o_f_n_a.png,O,m,1488,7,1,2509.100000000093,670888.1000000001,7175,VNB,A,5
6,test,2,1.0,2-Back,1,z,Tue Jul 01 2025 14:16:17 GMT-0500 (Central Daylight Time),675329.8999999999,039_o_m_h_a.png,O,z,908,8,1,1926.1000000000931,673403.7999999998,7175,VNB,A,6
7,test,2,0.0,2-Back,1,m,Tue Jul 01 2025 14:16:17 GMT-0500 (Central Daylight Time),677795.6000000001,071_y_f_d_a.png,O,m,1439,9,1,2459.3000000002794,675336.2999999998,7175,VNB,A,7
8,test,2,0.0,2-Back,1,m,Tue Jul 01 2025 14:16:17 GMT-0500 (Central Daylight Time),680095.1000000001,109_y_m_d_a.png,O,m,1269,10,1,2292.7000000001863,677802.3999999999,7175,VNB,A,8
9,test,2,0.0,2-Back,1,m,Tue Jul 01 2025 14:16:17 GMT-0500 (Central Daylight Time),682378.1000000001,165_m_m_n_a.png,O,m,1265,11,1,2276.3000000002794,680101.7999999998,7175,VNB,A,9
10,test,2,0.0,2-Back,1,m,Tue Jul 01 2025 14:16:17 GMT-0500 (Central Daylight Time),684477.0,139_m_f_h_a.png,O,m,1072,12,1,2092.399999999907,682384.6000000001,7175,VNB,A,10
11,test,2,1.0,2-Back,1,z,Tue Jul 01 2025 14:16:17 GMT-0500 (Central Daylight Time),686576.6000000001,039_o_m_n_a.png,O,z,1075,13,1,2092.8000000002794,684483.7999999998,7175,VNB,A,11
12,test,2,0.0,2-Back,1,m,Tue Jul 01 2025 14:16:17 GMT-0500 (Central Daylight Time),689025.7999999998,124_o_f_d_a.png,O,m,1433,14,1,2442.7999999998137,686583.0,7175,VNB,A,12
13,test,2,0.0,2-Back,1,m,Tue Jul 01 2025 14:16:17 GMT-0500 (Central Daylight Time),691674.7999999998,071_y_f_h_a.png,O,m,1624,15,1,2642.5,689032.2999999998,7175,VNB,A,13
14,test,2,0.0,2-Back,1,z,Tue Jul 01 2025 14:16:17 GMT-0500 (Central Daylight Time),693690.7000000002,165_m_m_d_a.png,O,z,990,16,1,2009.5,691681.2000000002,7175,VNB,A,14
14,test,2,0.0,2-Back,0,m,Tue Jul 01 2025 14:16:17 GMT-0500 (Central Daylight Time),696723.0,109_y_m_n_a.png,O,None,2015,17,1,3025.5,693697.5,7175,VNB,A,15
15,test,2,1.0,2-Back,1,m,Tue Jul 01 2025 14:16:17 GMT-0500 (Central Daylight Time),699005.7999999998,139_m_f_n_a.png,O,m,1262,18,1,2276.1999999997206,696729.6000000001,7175,VNB,A,16
0,test,3,1.0,2-Back,,,Tue Jul 01 2025 14:16:17 GMT-0500 (Central Daylight Time),699005.7999999998,039_o_m_n_a.png,O,space,4971,1,1,2276.1999999997206,696729.6000000001,7175,VNB,A,0
0,test,3,1.0,2-Back,,,Tue Jul 01 2025 14:16:17 GMT-0500 (Central Daylight Time),699005.7999999998,124_o_f_d_a.png,O,space,4971,2,1,2276.1999999997206,696729.6000000001,7175,VNB,A,0
1,test,3,0.0,2-Back,1,m,Tue Jul 01 2025 14:16:17 GMT-0500 (Central Daylight Time),711185.5999999996,071_y_f_h_a.png,O,m,1117,3,1,2143.0999999996275,709042.5,7175,VNB,A,1
2,test,3,0.0,2-Back,1,z,Tue Jul 01 2025 14:16:17 GMT-0500 (Central Daylight Time),713218.0999999996,139_m_f_d_a.png,O,z,1008,4,1,2026.0999999996275,711192.0,7175,VNB,A,2
3,test,3,1.0,2-Back,1,m,Tue Jul 01 2025 14:16:17 GMT-0500 (Central Daylight Time),715300.5,109_y_m_n_a.png,O,m,1055,5,1,2075.7999999998137,713224.7000000002,7175,VNB,A,3
4,test,3,0.0,2-Back,1,m,Tue Jul 01 2025 14:16:17 GMT-0500 (Central Daylight Time),717783.2999999998,039_o_m_h_a.png,O,m,1452,6,1,2476.399999999441,715306.9000000004,7175,VNB,A,4
4,test,3,0.0,2-Back,0,z,Tue Jul 01 2025 14:16:17 GMT-0500 (Central Daylight Time),720215.9000000004,071_y_f_n_a.png,O,m,1401,7,1,2425.7000000001863,717790.2000000002,7175,VNB,A,5
5,test,3,1.0,2-Back,1,m,Tue Jul 01 2025 14:16:17 GMT-0500 (Central Daylight Time),722381.9000000004,165_m_m_d_a.png,O,m,1137,8,1,2158.9000000003725,720223.0,7175,VNB,A,6
6,test,3,0.0,2-Back,1,m,Tue Jul 01 2025 14:16:17 GMT-0500 (Central Daylight Time),724364.7000000002,109_y_m_d_a.png,O,m,954,9,1,1975.0,722389.7000000002,7175,VNB,A,7
6,test,3,0.0,2-Back,0,m,Tue Jul 01 2025 14:16:17 GMT-0500 (Central Daylight Time),727396.9000000004,124_o_f_h_a.png,O,None,2016,10,1,3025.600000000559,724371.2999999998,7175,VNB,A,8
7,test,3,1.0,2-Back,1,m,Tue Jul 01 2025 14:16:17 GMT-0500 (Central Daylight Time),729462.7000000002,139_m_f_n_a.png,O,m,1035,11,1,2058.7999999998137,727403.9000000004,7175,VNB,A,9
8,test,3,1.0,2-Back,1,z,Tue Jul 01 2025 14:16:17 GMT-0500 (Central Daylight Time),731728.9000000004,165_m_m_h_a.png,O,z,1242,12,1,2259.300000000745,729469.5999999996,7175,VNB,A,10
9,test,3,0.0,2-Back,1,m,Tue Jul 01 2025 14:16:17 GMT-0500 (Central Daylight Time),733994.7999999998,071_y_f_d_a.png,O,m,1240,13,1,2259.2000000001863,731735.5999999996,7175,VNB,A,11
10,test,3,0.0,2-Back,1,m,Tue Jul 01 2025 14:16:17 GMT-0500 (Central Daylight Time),736244.2000000002,124_o_f_n_a.png,O,m,1230,14,1,2242.7000000001863,734001.5,7175,VNB,A,12
11,test,3,0.0,2-Back,1,z,Tue Jul 01 2025 14:16:17 GMT-0500 (Central Daylight Time),738460.0999999996,039_o_m_d_a.png,O,z,1197,15,1,2209.2999999998137,736250.7999999998,7175,VNB,A,13
12,test,3,1.0,2-Back,1,m,Tue Jul 01 2025 14:16:17 GMT-0500 (Central Daylight Time),740576.0999999996,139_m_f_h_a.png,O,m,1085,16,1,2109.5,738466.5999999996,7175,VNB,A,14
13,test,3,0.0,2-Back,1,m,Tue Jul 01 2025 14:16:17 GMT-0500 (Central Daylight Time),742675.5999999996,165_m_m_n_a.png,O,m,1073,17,1,2092.899999999441,740582.7000000002,7175,VNB,A,15
13,test,3,0.0,2-Back,0,z,Tue Jul 01 2025 14:16:17 GMT-0500 (Central Daylight Time),744958.0,109_y_m_h_a.png,O,m,1254,18,1,2275.5999999996275,742682.4000000004,7175,VNB,A,16
0,test,4,0.0,2-Back,,,Tue Jul 01 2025 14:16:17 GMT-0500 (Central Daylight Time),744958.0,139_m_f_n_a.png,O,space,9083,1,1,2275.5999999996275,742682.4000000004,7175,VNB,A,0
0,test,4,0.0,2-Back,,,Tue Jul 01 2025 14:16:17 GMT-0500 (Central Daylight Time),744958.0,039_o_m_n_a.png,O,space,9083,2,1,2275.5999999996275,742682.4000000004,7175,VNB,A,0
1,test,4,1.0,2-Back,1,m,Tue Jul 01 2025 14:16:17 GMT-0500 (Central Daylight Time),761369.7000000002,109_y_m_h_a.png,O,m,1224,3,1,2242.0,759127.7000000002,7175,VNB,A,1
2,test,4,1.0,2-Back,1,m,Tue Jul 01 2025 14:16:17 GMT-0500 (Central Daylight Time),764085.2999999998,124_o_f_d_a.png,O,m,1696,4,1,2709.2000000001863,761376.0999999996,7175,VNB,A,2
3,test,4,0.0,2-Back,1,z,Tue Jul 01 2025 14:16:17 GMT-0500 (Central Daylight Time),766051.5,039_o_m_h_a.png,O,z,948,5,1,1959.2000000001863,764092.2999999998,7175,VNB,A,3
4,test,4,0.0,2-Back,1,m,Tue Jul 01 2025 14:16:17 GMT-0500 (Central Daylight Time),768367.2999999998,165_m_m_n_a.png,O,m,1294,6,1,2309.0999999996275,766058.2000000002,7175,VNB,A,4
5,test,4,0.0,2-Back,1,m,Tue Jul 01 2025 14:16:17 GMT-0500 (Central Daylight Time),770799.9000000004,139_m_f_d_a.png,O,m,1402,7,1,2425.5,768374.4000000004,7175,VNB,A,5
5,test,4,0.0,2-Back,0,z,Tue Jul 01 2025 14:16:17 GMT-0500 (Central Daylight Time),773332.4000000004,071_y_f_n_a.png,O,m,1513,8,1,2526.300000000745,770806.0999999996,7175,VNB,A,6
6,test,4,1.0,2-Back,1,m,Tue Jul 01 2025 14:16:17 GMT-0500 (Central Daylight Time),775781.7999999998,124_o_f_h_a.png,O,m,1420,9,1,2442.5,773339.2999999998,7175,VNB,A,7
7,test,4,0.0,2-Back,1,m,Tue Jul 01 2025 14:16:17 GMT-0500 (Central Daylight Time),777981.0,165_m_m_h_a.png,O,m,1179,10,1,2192.7000000001863,775788.2999999998,7175,VNB,A,8
8,test,4,0.0,2-Back,1,m,Tue Jul 01 2025 14:16:17 GMT-0500 (Central Daylight Time),780363.5,071_y_f_d_a.png,O,m,1363,11,1,2376.0999999996275,777987.4000000004,7175,VNB,A,9
9,test,4,0.0,2-Back,1,m,Tue Jul 01 2025 14:16:17 GMT-0500 (Central Daylight Time),782646.2000000002,109_y_m_n_a.png,O,m,1253,12,1,2275.7000000001863,780370.5,7175,VNB,A,10
9,test,4,0.0,2-Back,0,z,Tue Jul 01 2025 14:16:17 GMT-0500 (Central Daylight Time),785678.7999999998,039_o_m_d_a.png,O,None,2016,13,1,3025.2999999998137,782653.5,7175,VNB,A,11
10,test,4,1.0,2-Back,1,m,Tue Jul 01 2025 14:16:17 GMT-0500 (Central Daylight Time),787661.5,139_m_f_h_a.png,O,m,955,14,1,1975.9000000003725,785685.5999999996,7175,VNB,A,12
11,test,4,1.0,2-Back,1,m,Tue Jul 01 2025 14:16:17 GMT-0500 (Central Daylight Time),789510.7999999998,071_y_f_h_a.png,O,m,820,15,1,1842.2999999998137,787668.5,7175,VNB,A,13
12,test,4,0.0,2-Back,1,m,Tue Jul 01 2025 14:16:17 GMT-0500 (Central Daylight Time),791793.7999999998,124_o_f_n_a.png,O,m,1251,16,1,2275.899999999441,789517.9000000004,7175,VNB,A,14
13,test,4,0.0,2-Back,1,m,Tue Jul 01 2025 14:16:17 GMT-0500 (Central Daylight Time),794609.2999999998,109_y_m_d_a.png,O,m,1792,17,1,2808.5,791800.7999999998,7175,VNB,A,15
14,test,4,1.0,2-Back,1,m,Tue Jul 01 2025 14:16:17 GMT-0500 (Central Daylight Time),796875.2999999998,165_m_m_d_a.png,O,m,1240,18,1,2259.2999999998137,794616.0,7175,VNB,A,16
0,test,5,1.0,2-Back,,,Tue Jul 01 2025 14:16:17 GMT-0500 (Central Daylight Time),796875.2999999998,071_y_f_d_a.png,O,space,3926,1,1,2259.2999999998137,794616.0,7175,VNB,A,0
0,test,5,1.0,2-Back,,,Tue Jul 01 2025 14:16:17 GMT-0500 (Central Daylight Time),796875.2999999998,124_o_f_h_a.png,O,space,3926,2,1,2259.2999999998137,794616.0,7175,VNB,A,0
1,test,5,1.0,2-Back,1,z,Tue Jul 01 2025 14:16:17 GMT-0500 (Central Daylight Time),807938.4000000004,039_o_m_d_a.png,O,z,1016,3,1,2042.800000000745,805895.5999999996,7175,VNB,A,1
2,test,5,1.0,2-Back,1,m,Tue Jul 01 2025 14:16:17 GMT-0500 (Central Daylight Time),809904.7000000002,139_m_f_n_a.png,O,m,935,4,1,1959.6000000005588,807945.0999999996,7175,VNB,A,2
3,test,5,0.0,2-Back,1,m,Tue Jul 01 2025 14:16:17 GMT-0500 (Central Daylight Time),812103.5999999996,165_m_m_h_a.png,O,m,1168,5,1,2192.2999999998137,809911.2999999998,7175,VNB,A,3
3,test,5,0.0,2-Back,0,z,Tue Jul 01 2025 14:16:17 GMT-0500 (Central Daylight Time),814269.7999999998,071_y_f_n_a.png,O,m,1144,6,1,2159.7000000001863,812110.0999999996,7175,VNB,A,4
4,test,5,0.0,2-Back,1,m,Tue Jul 01 2025 14:16:17 GMT-0500 (Central Daylight Time),816252.2999999998,124_o_f_d_a.png,O,m,955,7,1,1975.5999999996275,814276.7000000002,7175,VNB,A,5
5,test,5,0.0,2-Back,1,m,Tue Jul 01 2025 14:16:17 GMT-0500 (Central Daylight Time),818534.9000000004,039_o_m_h_a.png,O,m,1253,8,1,2274.7000000001863,816260.2000000002,7175,VNB,A,6
6,test,5,1.0,2-Back,1,z,Tue Jul 01 2025 14:16:17 GMT-0500 (Central Daylight Time),820850.9000000004,139_m_f_d_a.png,O,z,1290,9,1,2309.4000000003725,818541.5,7175,VNB,A,7
7,test,5,0.0,2-Back,1,m,Tue Jul 01 2025 14:16:17 GMT-0500 (Central Daylight Time),823300.2000000002,109_y_m_n_a.png,O,m,1430,10,1,2442.2999999998137,820857.9000000004,7175,VNB,A,8
8,test,5,0.0,2-Back,1,m,Tue Jul 01 2025 14:16:17 GMT-0500 (Central Daylight Time),825666.2000000002,165_m_m_n_a.png,O,m,1333,11,1,2359.4000000003725,823306.7999999998,7175,VNB,A,9
9,test,5,0.0,2-Back,1,m,Tue Jul 01 2025 14:16:17 GMT-0500 (Central Daylight Time),828316.4000000004,071_y_f_h_a.png,O,m,1631,12,1,2643.4000000003725,825673.0,7175,VNB,A,10
9,test,5,0.0,2-Back,0,m,Tue Jul 01 2025 14:16:17 GMT-0500 (Central Daylight Time),831081.0,109_y_m_d_a.png,O,z,1742,13,1,2757.7999999998137,828323.2000000002,7175,VNB,A,11
10,test,5,1.0,2-Back,1,z,Tue Jul 01 2025 14:16:17 GMT-0500 (Central Daylight Time),833097.2000000002,139_m_f_h_a.png,O,z,992,14,1,2009.4000000003725,831087.7999999998,7175,VNB,A,12
11,test,5,0.0,2-Back,1,m,Tue Jul 01 2025 14:16:17 GMT-0500 (Central Daylight Time),835179.5999999996,039_o_m_n_a.png,O,m,1055,15,1,2075.7999999998137,833103.7999999998,7175,VNB,A,13
12,test,5,0.0,2-Back,1,m,Tue Jul 01 2025 14:16:17 GMT-0500 (Central Daylight Time),837845.7000000002,165_m_m_d_a.png,O,m,1637,16,1,2659.600000000559,835186.0999999996,7175,VNB,A,14
12,test,5,0.0,2-Back,0,z,Tue Jul 01 2025 14:16:17 GMT-0500 (Central Daylight Time),840606.5999999996,124_o_f_n_a.png,O,m,1727,17,1,2754.2999999998137,837852.2999999998,7175,VNB,A,15
13,test,5,1.0,2-Back,1,m,Tue Jul 01 2025 14:16:17 GMT-0500 (Central Daylight Time),842827.5,109_y_m_h_a.png,O,m,1189,18,1,2213.4000000003725,840614.0999999996,7175,VNB,A,16
