acc_sum,block,block_c,change,condition,correct,correct_response,datetime,endtime,face,project,response,response_time,row_sel,session_number,start_end,starttime,subject_id,task,task_vers,trial
0,prac,1,,1-Back,,,Fri Aug 02 2024 13:31:34 GMT-0500 (Central Daylight Time),,124_o_f_d_a.png,O,space,12257,1,1,,,7005,VNB,A,0
1,prac,1,0.0,1-Back,1,m,Fri Aug 02 2024 13:31:34 GMT-0500 (Central Daylight Time),132512.09999990463,071_y_f_n_a.png,O,m,1433,2,1,2225.7999999523163,130286.29999995232,7005,VNB,A,1
1,prac,1,0.0,1-Back,0,m,Fri Aug 02 2024 13:31:34 GMT-0500 (Central Daylight Time),135318.20000004768,165_m_m_h_a.png,O,None,2003,3,1,2793.7000000476837,132524.5,7005,VNB,A,2
1,prac,1,0.0,1-Back,0,m,Fri Aug 02 2024 13:31:34 GMT-0500 (Central Daylight Time),137923.70000004768,109_y_m_d_a.png,O,z,1807,4,1,2592.4000000953674,135331.29999995232,7005,VNB,A,3
2,prac,1,0.0,1-Back,1,m,Fri Aug 02 2024 13:31:34 GMT-0500 (Central Daylight Time),140211.09999990463,124_o_f_n_a.png,O,m,1453,5,1,2276.399999856949,137934.70000004768,7005,VNB,A,4
3,prac,1,1.0,1-Back,1,z,Fri Aug 02 2024 13:31:34 GMT-0500 (Central Daylight Time),142064.5,109_y_m_n_a.png,O,z,1057,6,1,1842.7000000476837,140221.79999995232,7005,VNB,A,5
4,prac,1,0.0,1-Back,1,m,Fri Aug 02 2024 13:31:34 GMT-0500 (Central Daylight Time),144268.90000009537,039_o_m_h_a.png,O,m,1406,7,1,2194.300000190735,142074.59999990463,7005,VNB,A,6
5,prac,1,0.0,1-Back,1,m,Fri Aug 02 2024 13:31:34 GMT-0500 (Central Daylight Time),146055.70000004768,139_m_f_d_a.png,O,m,982,8,1,1775.7000000476837,144280.0,7005,VNB,A,7
6,prac,1,1.0,1-Back,1,z,Fri Aug 02 2024 13:31:34 GMT-0500 (Central Daylight Time),147725.20000004768,071_y_f_d_a.png,O,z,860,9,1,1658.2000000476837,146067.0,7005,VNB,A,8
7,prac,1,0.0,1-Back,1,m,Fri Aug 02 2024 13:31:34 GMT-0500 (Central Daylight Time),149494.90000009537,165_m_m_n_a.png,O,m,972,10,1,1758.9000000953674,147736.0,7005,VNB,A,9
8,prac,1,0.0,1-Back,1,m,Fri Aug 02 2024 13:31:34 GMT-0500 (Central Daylight Time),151431.90000009537,124_o_f_h_a.png,O,m,1111,11,1,1929.6000001430511,149502.29999995232,7005,VNB,A,10
9,prac,1,0.0,1-Back,1,m,Fri Aug 02 2024 13:31:34 GMT-0500 (Central Daylight Time),153553.90000009537,109_y_m_d_a.png,O,m,1349,12,1,2113.7000000476837,151440.20000004768,7005,VNB,A,11
0,test,1,0.0,1-Back,,,Fri Aug 02 2024 13:31:34 GMT-0500 (Central Daylight Time),153553.90000009537,071_y_f_d_a.png,O,space,12541,1,1,2113.7000000476837,151440.20000004768,7005,VNB,A,0
1,test,1,0.0,1-Back,1,m,Fri Aug 02 2024 13:31:34 GMT-0500 (Central Daylight Time),178635.5,139_m_f_n_a.png,O,m,778,2,1,1792.0,176843.5,7005,VNB,A,1
2,test,1,0.0,1-Back,1,m,Fri Aug 02 2024 13:31:34 GMT-0500 (Central Daylight Time),180589.5,039_o_m_h_a.png,O,m,918,3,1,1944.5999999046326,178644.90000009537,7005,VNB,A,2
3,test,1,1.0,1-Back,1,z,Fri Aug 02 2024 13:31:34 GMT-0500 (Central Daylight Time),182475.90000009537,165_m_m_h_a.png,O,z,860,4,1,1877.5,180598.40000009537,7005,VNB,A,3
4,test,1,0.0,1-Back,1,m,Fri Aug 02 2024 13:31:34 GMT-0500 (Central Daylight Time),184613.79999995232,124_o_f_n_a.png,O,m,1110,5,1,2128.5999999046326,182485.20000004768,7005,VNB,A,4
5,test,1,0.0,1-Back,1,m,Fri Aug 02 2024 13:31:34 GMT-0500 (Central Daylight Time),186718.20000004768,109_y_m_d_a.png,O,m,1084,6,1,2093.5,184624.70000004768,7005,VNB,A,5
6,test,1,1.0,1-Back,1,z,Fri Aug 02 2024 13:31:34 GMT-0500 (Central Daylight Time),188972.59999990463,139_m_f_d_a.png,O,z,1227,7,1,2243.5,186729.09999990463,7005,VNB,A,6
7,test,1,0.0,1-Back,1,m,Fri Aug 02 2024 13:31:34 GMT-0500 (Central Daylight Time),191192.90000009537,071_y_f_h_a.png,O,m,1198,8,1,2210.5,188982.40000009537,7005,VNB,A,7
8,test,1,0.0,1-Back,1,m,Fri Aug 02 2024 13:31:34 GMT-0500 (Central Daylight Time),193264.09999990463,039_o_m_n_a.png,O,m,1048,9,1,2058.399999856949,191205.70000004768,7005,VNB,A,8
9,test,1,0.0,1-Back,1,m,Fri Aug 02 2024 13:31:34 GMT-0500 (Central Daylight Time),195334.29999995232,109_y_m_h_a.png,O,m,1042,10,1,2061.399999856949,193272.90000009537,7005,VNB,A,9
10,test,1,0.0,1-Back,1,m,Fri Aug 02 2024 13:31:34 GMT-0500 (Central Daylight Time),197388.59999990463,039_o_m_d_a.png,O,m,1020,11,1,2044.6999998092651,195343.90000009537,7005,VNB,A,10
11,test,1,1.0,1-Back,1,z,Fri Aug 02 2024 13:31:34 GMT-0500 (Central Daylight Time),199176.0,124_o_f_d_a.png,O,z,765,12,1,1775.9000000953674,197400.09999990463,7005,VNB,A,11
12,test,1,0.0,1-Back,1,m,Fri Aug 02 2024 13:31:34 GMT-0500 (Central Daylight Time),201129.0,165_m_m_n_a.png,O,m,922,13,1,1940.5999999046326,199188.40000009537,7005,VNB,A,12
13,test,1,1.0,1-Back,1,z,Fri Aug 02 2024 13:31:34 GMT-0500 (Central Daylight Time),203083.29999995232,071_y_f_n_a.png,O,z,920,14,1,1944.5999999046326,201138.70000004768,7005,VNB,A,13
14,test,1,0.0,1-Back,1,m,Fri Aug 02 2024 13:31:34 GMT-0500 (Central Daylight Time),205187.09999990463,139_m_f_h_a.png,O,m,1079,15,1,2092.7999999523163,203094.29999995232,7005,VNB,A,14
15,test,1,0.0,1-Back,1,m,Fri Aug 02 2024 13:31:34 GMT-0500 (Central Daylight Time),207425.09999990463,165_m_m_d_a.png,O,m,1215,16,1,2225.0999999046326,205200.0,7005,VNB,A,15
16,test,1,0.0,1-Back,1,m,Fri Aug 02 2024 13:31:34 GMT-0500 (Central Daylight Time),209145.20000004768,109_y_m_n_a.png,O,m,689,17,1,1710.1000001430511,207435.09999990463,7005,VNB,A,16
17,test,1,0.0,1-Back,1,m,Fri Aug 02 2024 13:31:34 GMT-0500 (Central Daylight Time),211532.79999995232,124_o_f_h_a.png,O,m,1353,18,1,2374.899999856949,209157.90000009537,7005,VNB,A,17
0,test,2,0.0,1-Back,,,Fri Aug 02 2024 13:31:34 GMT-0500 (Central Daylight Time),211532.79999995232,109_y_m_n_a.png,O,space,1317,1,1,2374.899999856949,209157.90000009537,7005,VNB,A,0
1,test,2,0.0,1-Back,1,m,Fri Aug 02 2024 13:31:34 GMT-0500 (Central Daylight Time),216861.79999995232,071_y_f_h_a.png,O,m,952,2,1,1956.5,214905.29999995232,7005,VNB,A,1
2,test,2,1.0,1-Back,1,m,Fri Aug 02 2024 13:31:34 GMT-0500 (Central Daylight Time),219047.09999990463,039_o_m_n_a.png,O,m,1167,3,1,2177.5,216869.59999990463,7005,VNB,A,2
3,test,2,0.0,1-Back,1,m,Fri Aug 02 2024 13:31:34 GMT-0500 (Central Daylight Time),221384.90000009537,139_m_f_d_a.png,O,m,1315,4,1,2325.0,219059.90000009537,7005,VNB,A,3
4,test,2,0.0,1-Back,1,z,Fri Aug 02 2024 13:31:34 GMT-0500 (Central Daylight Time),223322.29999995232,165_m_m_d_a.png,O,z,904,5,1,1930.0,221392.29999995232,7005,VNB,A,4
5,test,2,0.0,1-Back,1,m,Fri Aug 02 2024 13:31:34 GMT-0500 (Central Daylight Time),225410.0,109_y_m_h_a.png,O,m,1055,6,1,2075.7999999523163,223334.20000004768,7005,VNB,A,5
6,test,2,1.0,1-Back,1,z,Fri Aug 02 2024 13:31:34 GMT-0500 (Central Daylight Time),227313.20000004768,124_o_f_h_a.png,O,z,871,7,1,1894.2999999523163,225418.90000009537,7005,VNB,A,6
7,test,2,0.0,1-Back,1,m,Fri Aug 02 2024 13:31:34 GMT-0500 (Central Daylight Time),229233.5,139_m_f_n_a.png,O,m,888,8,1,1910.0999999046326,227323.40000009537,7005,VNB,A,7
8,test,2,0.0,1-Back,1,m,Fri Aug 02 2024 13:31:34 GMT-0500 (Central Daylight Time),231605.5,071_y_f_d_a.png,O,m,1344,9,1,2360.2999999523163,229245.20000004768,7005,VNB,A,8
9,test,2,0.0,1-Back,1,m,Fri Aug 02 2024 13:31:34 GMT-0500 (Central Daylight Time),233625.70000004768,165_m_m_n_a.png,O,m,996,10,1,2007.7999999523163,231617.90000009537,7005,VNB,A,9
10,test,2,1.0,1-Back,1,m,Fri Aug 02 2024 13:31:34 GMT-0500 (Central Daylight Time),235830.20000004768,139_m_f_h_a.png,O,m,1185,11,1,2192.7000000476837,233637.5,7005,VNB,A,10
11,test,2,0.0,1-Back,1,z,Fri Aug 02 2024 13:31:34 GMT-0500 (Central Daylight Time),237667.79999995232,039_o_m_h_a.png,O,z,803,12,1,1826.0999999046326,235841.70000004768,7005,VNB,A,11
12,test,2,0.0,1-Back,1,m,Fri Aug 02 2024 13:31:34 GMT-0500 (Central Daylight Time),239637.79999995232,109_y_m_d_a.png,O,m,936,13,1,1957.8999998569489,237679.90000009537,7005,VNB,A,12
13,test,2,0.0,1-Back,1,m,Fri Aug 02 2024 13:31:34 GMT-0500 (Central Daylight Time),241858.40000009537,124_o_f_n_a.png,O,m,1188,14,1,2208.7000000476837,239649.70000004768,7005,VNB,A,13
14,test,2,0.0,1-Back,1,z,Fri Aug 02 2024 13:31:34 GMT-0500 (Central Daylight Time),243729.09999990463,071_y_f_n_a.png,O,z,839,15,1,1859.5999999046326,241869.5,7005,VNB,A,14
15,test,2,1.0,1-Back,1,m,Fri Aug 02 2024 13:31:34 GMT-0500 (Central Daylight Time),245499.20000004768,165_m_m_h_a.png,O,m,745,16,1,1760.4000000953674,243738.79999995232,7005,VNB,A,15
16,test,2,0.0,1-Back,1,m,Fri Aug 02 2024 13:31:34 GMT-0500 (Central Daylight Time),247753.5,124_o_f_d_a.png,O,m,1232,17,1,2243.7999999523163,245509.70000004768,7005,VNB,A,16
17,test,2,1.0,1-Back,1,z,Fri Aug 02 2024 13:31:34 GMT-0500 (Central Daylight Time),249440.0,039_o_m_d_a.png,O,z,664,18,1,1673.5,247766.5,7005,VNB,A,17
0,test,3,1.0,1-Back,,,Fri Aug 02 2024 13:31:34 GMT-0500 (Central Daylight Time),249440.0,124_o_f_h_a.png,O,space,1139,1,1,1673.5,247766.5,7005,VNB,A,0
1,test,3,0.0,1-Back,1,m,Fri Aug 02 2024 13:31:34 GMT-0500 (Central Daylight Time),254282.90000009537,139_m_f_d_a.png,O,m,603,2,1,1626.5,252656.40000009537,7005,VNB,A,1
2,test,3,1.0,1-Back,1,m,Fri Aug 02 2024 13:31:34 GMT-0500 (Central Daylight Time),256837.70000004768,165_m_m_n_a.png,O,m,1519,3,1,2545.4000000953674,254292.29999995232,7005,VNB,A,2
3,test,3,0.0,1-Back,1,z,Fri Aug 02 2024 13:31:34 GMT-0500 (Central Daylight Time),258624.20000004768,124_o_f_n_a.png,O,z,756,4,1,1776.2000000476837,256848.0,7005,VNB,A,3
4,test,3,1.0,1-Back,1,m,Fri Aug 02 2024 13:31:34 GMT-0500 (Central Daylight Time),260428.5,039_o_m_d_a.png,O,m,769,5,1,1794.2999999523163,258634.20000004768,7005,VNB,A,4
4,test,3,0.0,1-Back,0,m,Fri Aug 02 2024 13:31:34 GMT-0500 (Central Daylight Time),262215.59999990463,071_y_f_h_a.png,O,z,757,6,1,1777.1999998092651,260438.40000009537,7005,VNB,A,5
5,test,3,0.0,1-Back,1,z,Fri Aug 02 2024 13:31:34 GMT-0500 (Central Daylight Time),264386.0,109_y_m_h_a.png,O,z,1146,7,1,2158.7000000476837,262227.2999999523,7005,VNB,A,6
6,test,3,0.0,1-Back,1,m,Fri Aug 02 2024 13:31:34 GMT-0500 (Central Daylight Time),266523.2999999523,139_m_f_n_a.png,O,m,1104,8,1,2124.7000000476837,264398.59999990463,7005,VNB,A,7
7,test,3,0.0,1-Back,1,m,Fri Aug 02 2024 13:31:34 GMT-0500 (Central Daylight Time),268694.2999999523,071_y_f_d_a.png,O,m,1152,9,1,2159.899999856949,266534.40000009537,7005,VNB,A,8
8,test,3,1.0,1-Back,1,m,Fri Aug 02 2024 13:31:34 GMT-0500 (Central Daylight Time),270731.2999999523,039_o_m_n_a.png,O,m,1003,10,1,2025.7999999523163,268705.5,7005,VNB,A,9
9,test,3,0.0,1-Back,1,m,Fri Aug 02 2024 13:31:34 GMT-0500 (Central Daylight Time),272902.59999990463,165_m_m_h_a.png,O,m,1143,11,1,2158.0,270744.59999990463,7005,VNB,A,10
9,test,3,0.0,1-Back,0,z,Fri Aug 02 2024 13:31:34 GMT-0500 (Central Daylight Time),275173.59999990463,139_m_f_h_a.png,O,m,1235,12,1,2260.699999809265,272912.90000009537,7005,VNB,A,11
10,test,3,1.0,1-Back,1,m,Fri Aug 02 2024 13:31:34 GMT-0500 (Central Daylight Time),276977.09999990463,124_o_f_d_a.png,O,m,772,13,1,1794.0999999046326,275183.0,7005,VNB,A,12
11,test,3,0.0,1-Back,1,z,Fri Aug 02 2024 13:31:34 GMT-0500 (Central Daylight Time),278596.7000000477,165_m_m_d_a.png,O,z,593,14,1,1609.4000000953674,276987.2999999523,7005,VNB,A,13
12,test,3,0.0,1-Back,1,m,Fri Aug 02 2024 13:31:34 GMT-0500 (Central Daylight Time),280734.0,109_y_m_n_a.png,O,m,1109,15,1,2126.0,278608.0,7005,VNB,A,14
13,test,3,1.0,1-Back,1,m,Fri Aug 02 2024 13:31:34 GMT-0500 (Central Daylight Time),283055.40000009537,039_o_m_h_a.png,O,m,1292,16,1,2311.100000143051,280744.2999999523,7005,VNB,A,15
14,test,3,0.0,1-Back,1,m,Fri Aug 02 2024 13:31:34 GMT-0500 (Central Daylight Time),284808.59999990463,109_y_m_d_a.png,O,m,724,17,1,1743.0999999046326,283065.5,7005,VNB,A,16
15,test,3,1.0,1-Back,1,m,Fri Aug 02 2024 13:31:34 GMT-0500 (Central Daylight Time),286963.2999999523,071_y_f_n_a.png,O,m,1120,18,1,2144.0,284819.2999999523,7005,VNB,A,17
0,test,4,1.0,1-Back,,,Fri Aug 02 2024 13:31:34 GMT-0500 (Central Daylight Time),286963.2999999523,165_m_m_d_a.png,O,space,991,1,1,2144.0,284819.2999999523,7005,VNB,A,0
1,test,4,0.0,1-Back,1,z,Fri Aug 02 2024 13:31:34 GMT-0500 (Central Daylight Time),291739.09999990463,039_o_m_d_a.png,O,z,728,2,1,1742.2999999523163,289996.7999999523,7005,VNB,A,1
2,test,4,0.0,1-Back,1,m,Fri Aug 02 2024 13:31:34 GMT-0500 (Central Daylight Time),293726.2000000477,109_y_m_h_a.png,O,m,969,3,1,1976.5,291749.7000000477,7005,VNB,A,2
3,test,4,0.0,1-Back,1,m,Fri Aug 02 2024 13:31:34 GMT-0500 (Central Daylight Time),295530.2000000477,139_m_f_n_a.png,O,m,778,4,1,1792.4000000953674,293737.7999999523,7005,VNB,A,3
4,test,4,1.0,1-Back,1,m,Fri Aug 02 2024 13:31:34 GMT-0500 (Central Daylight Time),297583.2999999523,124_o_f_h_a.png,O,m,1033,5,1,2041.5,295541.7999999523,7005,VNB,A,4
5,test,4,0.0,1-Back,1,m,Fri Aug 02 2024 13:31:34 GMT-0500 (Central Daylight Time),300038.7999999523,165_m_m_n_a.png,O,m,1427,6,1,2444.399999856949,297594.40000009537,7005,VNB,A,5
6,test,4,0.0,1-Back,1,m,Fri Aug 02 2024 13:31:34 GMT-0500 (Central Daylight Time),302059.09999990463,109_y_m_d_a.png,O,m,996,7,1,2010.6999998092651,300048.40000009537,7005,VNB,A,6
7,test,4,1.0,1-Back,1,z,Fri Aug 02 2024 13:31:34 GMT-0500 (Central Daylight Time),303762.2999999523,071_y_f_d_a.png,O,z,672,8,1,1689.3999998569489,302072.90000009537,7005,VNB,A,7
8,test,4,0.0,1-Back,1,m,Fri Aug 02 2024 13:31:34 GMT-0500 (Central Daylight Time),305448.7999999523,139_m_f_h_a.png,O,m,655,9,1,1676.7000000476837,303772.09999990463,7005,VNB,A,8
9,test,4,0.0,1-Back,1,z,Fri Aug 02 2024 13:31:34 GMT-0500 (Central Daylight Time),307186.0,039_o_m_h_a.png,O,z,714,10,1,1727.7999999523163,305458.2000000477,7005,VNB,A,9
10,test,4,1.0,1-Back,1,m,Fri Aug 02 2024 13:31:34 GMT-0500 (Central Daylight Time),309038.7999999523,124_o_f_n_a.png,O,m,832,11,1,1840.7000000476837,307198.09999990463,7005,VNB,A,10
11,test,4,0.0,1-Back,1,m,Fri Aug 02 2024 13:31:34 GMT-0500 (Central Daylight Time),311076.7999999523,139_m_f_d_a.png,O,m,1002,12,1,2026.3999998569489,309050.40000009537,7005,VNB,A,11
12,test,4,0.0,1-Back,1,m,Fri Aug 02 2024 13:31:34 GMT-0500 (Central Daylight Time),313081.0,071_y_f_n_a.png,O,m,973,13,1,1994.7000000476837,311086.2999999523,7005,VNB,A,12
13,test,4,0.0,1-Back,1,m,Fri Aug 02 2024 13:31:34 GMT-0500 (Central Daylight Time),315535.0,124_o_f_d_a.png,O,m,1425,14,1,2443.0,313092.0,7005,VNB,A,13
14,test,4,0.0,1-Back,1,m,Fri Aug 02 2024 13:31:34 GMT-0500 (Central Daylight Time),317238.2999999523,071_y_f_h_a.png,O,m,674,15,1,1693.2000000476837,315545.09999990463,7005,VNB,A,14
15,test,4,1.0,1-Back,1,z,Fri Aug 02 2024 13:31:34 GMT-0500 (Central Daylight Time),319125.90000009537,165_m_m_h_a.png,O,z,867,16,1,1875.1000001430511,317250.7999999523,7005,VNB,A,15
16,test,4,0.0,1-Back,1,m,Fri Aug 02 2024 13:31:34 GMT-0500 (Central Daylight Time),320861.7000000477,039_o_m_n_a.png,O,m,708,17,1,1724.1000001430511,319137.59999990463,7005,VNB,A,16
17,test,4,1.0,1-Back,1,z,Fri Aug 02 2024 13:31:34 GMT-0500 (Central Daylight Time),322566.09999990463,109_y_m_n_a.png,O,z,683,18,1,1693.6999998092651,320872.40000009537,7005,VNB,A,17
0,test,5,1.0,1-Back,,,Fri Aug 02 2024 13:31:34 GMT-0500 (Central Daylight Time),322566.09999990463,039_o_m_n_a.png,O,space,1109,1,1,1693.6999998092651,320872.40000009537,7005,VNB,A,0
1,test,5,1.0,1-Back,1,m,Fri Aug 02 2024 13:31:34 GMT-0500 (Central Daylight Time),327809.0,124_o_f_h_a.png,O,m,1073,2,1,2091.0999999046326,325717.90000009537,7005,VNB,A,1
2,test,5,0.0,1-Back,1,m,Fri Aug 02 2024 13:31:34 GMT-0500 (Central Daylight Time),329445.59999990463,109_y_m_d_a.png,O,m,609,3,1,1626.1999998092651,327819.40000009537,7005,VNB,A,2
3,test,5,0.0,1-Back,1,z,Fri Aug 02 2024 13:31:34 GMT-0500 (Central Daylight Time),331132.0,039_o_m_d_a.png,O,z,651,4,1,1674.0999999046326,329457.90000009537,7005,VNB,A,3
4,test,5,0.0,1-Back,1,m,Fri Aug 02 2024 13:31:34 GMT-0500 (Central Daylight Time),333219.7000000477,139_m_f_h_a.png,O,m,1062,5,1,2077.7999999523163,331141.90000009537,7005,VNB,A,4
5,test,5,0.0,1-Back,1,m,Fri Aug 02 2024 13:31:34 GMT-0500 (Central Daylight Time),335290.09999990463,071_y_f_n_a.png,O,m,1037,6,1,2061.699999809265,333228.40000009537,7005,VNB,A,5
6,test,5,1.0,1-Back,1,z,Fri Aug 02 2024 13:31:34 GMT-0500 (Central Daylight Time),336994.40000009537,124_o_f_n_a.png,O,z,679,7,1,1694.2000000476837,335300.2000000477,7005,VNB,A,6
7,test,5,0.0,1-Back,1,m,Fri Aug 02 2024 13:31:34 GMT-0500 (Central Daylight Time),338880.7000000477,139_m_f_d_a.png,O,m,864,8,1,1873.2999999523163,337007.40000009537,7005,VNB,A,7
8,test,5,0.0,1-Back,1,m,Fri Aug 02 2024 13:31:34 GMT-0500 (Central Daylight Time),340684.2000000477,109_y_m_h_a.png,O,m,768,9,1,1792.7999999523163,338891.40000009537,7005,VNB,A,8
9,test,5,0.0,1-Back,1,m,Fri Aug 02 2024 13:31:34 GMT-0500 (Central Daylight Time),342788.40000009537,071_y_f_d_a.png,O,m,1077,10,1,2093.800000190735,340694.59999990463,7005,VNB,A,9
10,test,5,0.0,1-Back,1,m,Fri Aug 02 2024 13:31:34 GMT-0500 (Central Daylight Time),345042.7000000477,165_m_m_n_a.png,O,m,1230,11,1,2244.100000143051,342798.59999990463,7005,VNB,A,10
11,test,5,1.0,1-Back,1,z,Fri Aug 02 2024 13:31:34 GMT-0500 (Central Daylight Time),346596.0,139_m_f_n_a.png,O,z,526,12,1,1541.5999999046326,345054.40000009537,7005,VNB,A,11
12,test,5,0.0,1-Back,1,m,Fri Aug 02 2024 13:31:34 GMT-0500 (Central Daylight Time),348449.59999990463,039_o_m_h_a.png,O,m,823,13,1,1842.5999999046326,346607.0,7005,VNB,A,12
13,test,5,0.0,1-Back,1,z,Fri Aug 02 2024 13:31:34 GMT-0500 (Central Daylight Time),350135.7999999523,165_m_m_h_a.png,O,z,657,14,1,1673.7999999523163,348462.0,7005,VNB,A,13
14,test,5,1.0,1-Back,1,m,Fri Aug 02 2024 13:31:34 GMT-0500 (Central Daylight Time),351939.09999990463,124_o_f_d_a.png,O,m,778,15,1,1791.1999998092651,350147.90000009537,7005,VNB,A,14
15,test,5,0.0,1-Back,1,m,Fri Aug 02 2024 13:31:34 GMT-0500 (Central Daylight Time),354210.7999999523,109_y_m_n_a.png,O,m,1247,16,1,2260.7000000476837,351950.09999990463,7005,VNB,A,15
16,test,5,0.0,1-Back,1,m,Fri Aug 02 2024 13:31:34 GMT-0500 (Central Daylight Time),356314.40000009537,071_y_f_h_a.png,O,m,1071,17,1,2092.300000190735,354222.09999990463,7005,VNB,A,16
17,test,5,0.0,1-Back,1,m,Fri Aug 02 2024 13:31:34 GMT-0500 (Central Daylight Time),358351.40000009537,165_m_m_d_a.png,O,m,1015,18,1,2026.6000001430511,356324.7999999523,7005,VNB,A,17
0,prac,1,0.0,2-Back,,,Fri Aug 02 2024 13:31:34 GMT-0500 (Central Daylight Time),358351.40000009537,139_m_f_n_a.png,O,space,11241,1,1,2026.6000001430511,356324.7999999523,7005,VNB,A,0
0,prac,1,0.0,2-Back,,,Fri Aug 02 2024 13:31:34 GMT-0500 (Central Daylight Time),358351.40000009537,124_o_f_h_a.png,O,space,11241,2,1,2026.6000001430511,356324.7999999523,7005,VNB,A,0
1,prac,1,0.0,2-Back,1,m,Fri Aug 02 2024 13:31:34 GMT-0500 (Central Daylight Time),469669.09999990463,039_o_m_d_a.png,O,m,1264,3,1,2043.8999998569489,467625.2000000477,7005,VNB,A,1
1,prac,1,1.0,2-Back,0,z,Fri Aug 02 2024 13:31:34 GMT-0500 (Central Daylight Time),471939.7000000477,165_m_m_h_a.png,O,m,1479,4,1,2260.0,469679.7000000477,7005,VNB,A,2
2,prac,1,0.0,2-Back,1,m,Fri Aug 02 2024 13:31:34 GMT-0500 (Central Daylight Time),474611.7000000477,071_y_f_n_a.png,O,m,1869,5,1,2660.100000143051,471951.59999990463,7005,VNB,A,3
2,prac,1,1.0,2-Back,0,z,Fri Aug 02 2024 13:31:34 GMT-0500 (Central Daylight Time),477066.7999999523,039_o_m_h_a.png,O,m,1666,6,1,2444.399999856949,474622.40000009537,7005,VNB,A,4
2,prac,1,1.0,2-Back,0,z,Fri Aug 02 2024 13:31:34 GMT-0500 (Central Daylight Time),479888.40000009537,109_y_m_n_a.png,O,None,2015,7,1,2810.0,477078.40000009537,7005,VNB,A,5
2,prac,1,0.0,2-Back,0,m,Fri Aug 02 2024 13:31:34 GMT-0500 (Central Daylight Time),482677.7000000477,139_m_f_d_a.png,O,None,2002,8,1,2775.7000000476837,479902.0,7005,VNB,A,6
2,prac,1,0.0,2-Back,0,m,Fri Aug 02 2024 13:31:34 GMT-0500 (Central Daylight Time),484748.2999999523,124_o_f_d_a.png,O,z,1246,9,1,2056.899999856949,482691.40000009537,7005,VNB,A,7
2,prac,1,0.0,2-Back,0,m,Fri Aug 02 2024 13:31:34 GMT-0500 (Central Daylight Time),487519.90000009537,165_m_m_h_a.png,O,None,2009,10,1,2761.2000000476837,484758.7000000477,7005,VNB,A,8
2,prac,1,1.0,2-Back,0,z,Fri Aug 02 2024 13:31:34 GMT-0500 (Central Daylight Time),490308.90000009537,071_y_f_d_a.png,O,None,2007,11,1,2780.7000000476837,487528.2000000477,7005,VNB,A,9
3,prac,1,0.0,2-Back,1,m,Fri Aug 02 2024 13:31:34 GMT-0500 (Central Daylight Time),492346.2999999523,039_o_m_n_a.png,O,m,1225,12,1,2026.8999998569489,490319.40000009537,7005,VNB,A,10
0,prac,2,0.0,2-Back,,,Fri Aug 02 2024 13:31:34 GMT-0500 (Central Daylight Time),492346.2999999523,139_m_f_n_a.png,O,a,12571,1,1,2026.8999998569489,490319.40000009537,7005,VNB,A,0
0,prac,2,0.0,2-Back,,,Fri Aug 02 2024 13:31:34 GMT-0500 (Central Daylight Time),492346.2999999523,124_o_f_h_a.png,O,a,12571,2,1,2026.8999998569489,490319.40000009537,7005,VNB,A,0
1,prac,2,0.0,2-Back,1,m,Fri Aug 02 2024 13:31:34 GMT-0500 (Central Daylight Time),512000.7000000477,039_o_m_d_a.png,O,m,1183,3,1,1960.0,510040.7000000477,7005,VNB,A,1
2,prac,2,1.0,2-Back,1,z,Fri Aug 02 2024 13:31:34 GMT-0500 (Central Daylight Time),514004.7999999523,165_m_m_h_a.png,O,z,1234,4,1,1993.8999998569489,512010.90000009537,7005,VNB,A,2
3,prac,2,0.0,2-Back,1,m,Fri Aug 02 2024 13:31:34 GMT-0500 (Central Daylight Time),516676.90000009537,071_y_f_n_a.png,O,m,1871,5,1,2662.100000143051,514014.7999999523,7005,VNB,A,3
3,prac,2,1.0,2-Back,0,z,Fri Aug 02 2024 13:31:34 GMT-0500 (Central Daylight Time),518747.7000000477,039_o_m_h_a.png,O,m,1257,6,1,2060.4000000953674,516687.2999999523,7005,VNB,A,4
4,prac,2,1.0,2-Back,1,z,Fri Aug 02 2024 13:31:34 GMT-0500 (Central Daylight Time),521002.09999990463,109_y_m_n_a.png,O,z,1456,7,1,2242.5,518759.59999990463,7005,VNB,A,5
5,prac,2,0.0,2-Back,1,m,Fri Aug 02 2024 13:31:34 GMT-0500 (Central Daylight Time),523445.7999999523,139_m_f_d_a.png,O,m,1641,8,1,2433.2000000476837,521012.59999990463,7005,VNB,A,6
5,prac,2,0.0,2-Back,0,m,Fri Aug 02 2024 13:31:34 GMT-0500 (Central Daylight Time),526295.5999999046,124_o_f_d_a.png,O,None,2016,9,1,2840.0999999046326,523455.5,7005,VNB,A,7
6,prac,2,0.0,2-Back,1,m,Fri Aug 02 2024 13:31:34 GMT-0500 (Central Daylight Time),527982.0999999046,165_m_m_h_a.png,O,m,916,10,1,1676.8999998569489,526305.2000000477,7005,VNB,A,8
6,prac,2,1.0,2-Back,0,z,Fri Aug 02 2024 13:31:34 GMT-0500 (Central Daylight Time),530770.7000000477,071_y_f_d_a.png,O,None,2004,11,1,2777.2000000476837,527993.5,7005,VNB,A,9
7,prac,2,0.0,2-Back,1,m,Fri Aug 02 2024 13:31:34 GMT-0500 (Central Daylight Time),532691.2000000477,039_o_m_n_a.png,O,m,1113,12,1,1908.2999999523163,530782.9000000954,7005,VNB,A,10
0,test,1,0.0,2-Back,,,Fri Aug 02 2024 13:31:34 GMT-0500 (Central Daylight Time),532691.2000000477,109_y_m_h_a.png,O,space,15695,1,1,1908.2999999523163,530782.9000000954,7005,VNB,A,0
0,test,1,0.0,2-Back,,,Fri Aug 02 2024 13:31:34 GMT-0500 (Central Daylight Time),532691.2000000477,124_o_f_n_a.png,O,space,15695,2,1,1908.2999999523163,530782.9000000954,7005,VNB,A,0
1,test,1,0.0,2-Back,1,z,Fri Aug 02 2024 13:31:34 GMT-0500 (Central Daylight Time),562749.5,039_o_m_h_a.png,O,z,659,3,1,1675.7000000476837,561073.7999999523,7005,VNB,A,1
2,test,1,0.0,2-Back,1,m,Fri Aug 02 2024 13:31:34 GMT-0500 (Central Daylight Time),564670.4000000954,139_m_f_d_a.png,O,m,893,4,1,1909.3000001907349,562761.0999999046,7005,VNB,A,2
3,test,1,1.0,2-Back,1,m,Fri Aug 02 2024 13:31:34 GMT-0500 (Central Daylight Time),567308.7999999523,109_y_m_n_a.png,O,m,1613,5,1,2627.0999999046326,564681.7000000477,7005,VNB,A,3
3,test,1,0.0,2-Back,0,z,Fri Aug 02 2024 13:31:34 GMT-0500 (Central Daylight Time),570164.4000000954,071_y_f_d_a.png,O,m,1829,6,1,2847.0,567317.4000000954,7005,VNB,A,4
3,test,1,0.0,2-Back,0,m,Fri Aug 02 2024 13:31:34 GMT-0500 (Central Daylight Time),572351.5999999046,165_m_m_h_a.png,O,z,1167,7,1,2177.5999999046326,570174.0,7005,VNB,A,5
3,test,1,1.0,2-Back,0,m,Fri Aug 02 2024 13:31:34 GMT-0500 (Central Daylight Time),575375.4000000954,071_y_f_n_a.png,O,None,2003,8,1,3011.7000000476837,572363.7000000477,7005,VNB,A,6
4,test,1,0.0,2-Back,1,z,Fri Aug 02 2024 13:31:34 GMT-0500 (Central Daylight Time),577227.4000000954,124_o_f_h_a.png,O,z,828,9,1,1844.1000001430511,575383.2999999523,7005,VNB,A,7
5,test,1,0.0,2-Back,1,m,Fri Aug 02 2024 13:31:34 GMT-0500 (Central Daylight Time),579349.0,039_o_m_d_a.png,O,m,1095,10,1,2111.7000000476837,577237.2999999523,7005,VNB,A,8
5,test,1,1.0,2-Back,0,m,Fri Aug 02 2024 13:31:34 GMT-0500 (Central Daylight Time),582371.4000000954,165_m_m_d_a.png,O,None,2003,11,1,3011.0,579360.4000000954,7005,VNB,A,9
6,test,1,0.0,2-Back,1,m,Fri Aug 02 2024 13:31:34 GMT-0500 (Central Daylight Time),584141.7000000477,139_m_f_n_a.png,O,m,742,12,1,1760.0,582381.7000000477,7005,VNB,A,10
6,test,1,0.0,2-Back,0,m,Fri Aug 02 2024 13:31:34 GMT-0500 (Central Daylight Time),587163.9000000954,071_y_f_h_a.png,O,None,2004,13,1,3009.300000190735,584154.5999999046,7005,VNB,A,11
6,test,1,0.0,2-Back,0,z,Fri Aug 02 2024 13:31:34 GMT-0500 (Central Daylight Time),590187.9000000954,165_m_m_n_a.png,O,None,2004,14,1,3012.2000000476837,587175.7000000477,7005,VNB,A,12
7,test,1,0.0,2-Back,1,m,Fri Aug 02 2024 13:31:34 GMT-0500 (Central Daylight Time),591923.5,109_y_m_d_a.png,O,m,712,15,1,1723.7999999523163,590199.7000000477,7005,VNB,A,13
8,test,1,1.0,2-Back,1,m,Fri Aug 02 2024 13:31:34 GMT-0500 (Central Daylight Time),593910.7999999523,139_m_f_h_a.png,O,m,959,16,1,1977.2000000476837,591933.5999999046,7005,VNB,A,14
8,test,1,0.0,2-Back,0,z,Fri Aug 02 2024 13:31:34 GMT-0500 (Central Daylight Time),596649.0,124_o_f_d_a.png,O,m,1707,17,1,2728.2999999523163,593920.7000000477,7005,VNB,A,15
9,test,1,0.0,2-Back,1,m,Fri Aug 02 2024 13:31:34 GMT-0500 (Central Daylight Time),598820.4000000954,039_o_m_n_a.png,O,m,1145,18,1,2161.2000000476837,596659.2000000477,7005,VNB,A,16
0,test,2,0.0,2-Back,,,Fri Aug 02 2024 13:31:34 GMT-0500 (Central Daylight Time),598820.4000000954,165_m_m_h_a.png,O,space,7261,1,1,2161.2000000476837,596659.2000000477,7005,VNB,A,0
0,test,2,0.0,2-Back,,,Fri Aug 02 2024 13:31:34 GMT-0500 (Central Daylight Time),598820.4000000954,071_y_f_n_a.png,O,space,7261,2,1,2161.2000000476837,596659.2000000477,7005,VNB,A,0
1,test,2,1.0,2-Back,1,z,Fri Aug 02 2024 13:31:34 GMT-0500 (Central Daylight Time),612896.9000000954,124_o_f_h_a.png,O,z,687,3,1,1709.3000001907349,611187.5999999046,7005,VNB,A,1
2,test,2,0.0,2-Back,1,m,Fri Aug 02 2024 13:31:34 GMT-0500 (Central Daylight Time),615102.2999999523,039_o_m_d_a.png,O,m,1185,4,1,2195.7000000476837,612906.5999999046,7005,VNB,A,2
3,test,2,0.0,2-Back,1,m,Fri Aug 02 2024 13:31:34 GMT-0500 (Central Daylight Time),617890.7000000477,139_m_f_d_a.png,O,m,1765,5,1,2779.5,615111.2000000477,7005,VNB,A,3
3,test,2,0.0,2-Back,0,m,Fri Aug 02 2024 13:31:34 GMT-0500 (Central Daylight Time),620914.7000000477,109_y_m_h_a.png,O,None,2003,6,1,3014.2000000476837,617900.5,7005,VNB,A,4
4,test,2,0.0,2-Back,1,m,Fri Aug 02 2024 13:31:34 GMT-0500 (Central Daylight Time),623417.5999999046,124_o_f_n_a.png,O,m,1481,7,1,2493.2999999523163,620924.2999999523,7005,VNB,A,5
4,test,2,1.0,2-Back,0,z,Fri Aug 02 2024 13:31:34 GMT-0500 (Central Daylight Time),625839.0,039_o_m_h_a.png,O,m,1392,8,1,2412.5,623426.5,7005,VNB,A,6
5,test,2,0.0,2-Back,1,m,Fri Aug 02 2024 13:31:34 GMT-0500 (Central Daylight Time),628060.2000000477,071_y_f_d_a.png,O,m,1194,9,1,2211.2000000476837,625849.0,7005,VNB,A,7
6,test,2,0.0,2-Back,1,m,Fri Aug 02 2024 13:31:34 GMT-0500 (Central Daylight Time),630264.0,109_y_m_d_a.png,O,m,1181,10,1,2195.2000000476837,628068.7999999523,7005,VNB,A,8
7,test,2,0.0,2-Back,1,m,Fri Aug 02 2024 13:31:34 GMT-0500 (Central Daylight Time),632601.4000000954,165_m_m_n_a.png,O,m,1305,11,1,2326.7000000476837,630274.7000000477,7005,VNB,A,9
8,test,2,0.0,2-Back,1,m,Fri Aug 02 2024 13:31:34 GMT-0500 (Central Daylight Time),634989.5,139_m_f_h_a.png,O,m,1367,12,1,2378.4000000953674,632611.0999999046,7005,VNB,A,10
9,test,2,1.0,2-Back,1,z,Fri Aug 02 2024 13:31:34 GMT-0500 (Central Daylight Time),637026.9000000954,039_o_m_n_a.png,O,z,1012,13,1,2028.5,634998.4000000954,7005,VNB,A,11
9,test,2,0.0,2-Back,0,m,Fri Aug 02 2024 13:31:34 GMT-0500 (Central Daylight Time),639448.4000000954,124_o_f_d_a.png,O,z,1390,14,1,2416.0,637032.4000000954,7005,VNB,A,12
10,test,2,0.0,2-Back,1,m,Fri Aug 02 2024 13:31:34 GMT-0500 (Central Daylight Time),641251.7000000477,071_y_f_h_a.png,O,m,776,15,1,1798.1000001430511,639453.5999999046,7005,VNB,A,13
10,test,2,0.0,2-Back,0,z,Fri Aug 02 2024 13:31:34 GMT-0500 (Central Daylight Time),644163.0999999046,165_m_m_d_a.png,O,m,1877,16,1,2904.5,641258.5999999046,7005,VNB,A,14
11,test,2,0.0,2-Back,1,m,Fri Aug 02 2024 13:31:34 GMT-0500 (Central Daylight Time),646378.7000000477,109_y_m_n_a.png,O,m,1188,17,1,2210.2999999523163,644168.4000000954,7005,VNB,A,15
12,test,2,1.0,2-Back,1,m,Fri Aug 02 2024 13:31:34 GMT-0500 (Central Daylight Time),648816.7000000477,139_m_f_n_a.png,O,m,1406,18,1,2430.7000000476837,646386.0,7005,VNB,A,16
0,test,3,1.0,2-Back,,,Fri Aug 02 2024 13:31:34 GMT-0500 (Central Daylight Time),648816.7000000477,039_o_m_n_a.png,O,space,2609,1,1,2430.7000000476837,646386.0,7005,VNB,A,0
0,test,3,1.0,2-Back,,,Fri Aug 02 2024 13:31:34 GMT-0500 (Central Daylight Time),648816.7000000477,124_o_f_d_a.png,O,space,2609,2,1,2430.7000000476837,646386.0,7005,VNB,A,0
1,test,3,0.0,2-Back,1,m,Fri Aug 02 2024 13:31:34 GMT-0500 (Central Daylight Time),658235.0,071_y_f_h_a.png,O,m,661,3,1,1681.7000000476837,656553.2999999523,7005,VNB,A,1
2,test,3,0.0,2-Back,1,z,Fri Aug 02 2024 13:31:34 GMT-0500 (Central Daylight Time),659888.2999999523,139_m_f_d_a.png,O,z,630,4,1,1647.7000000476837,658240.5999999046,7005,VNB,A,2
3,test,3,1.0,2-Back,1,m,Fri Aug 02 2024 13:31:34 GMT-0500 (Central Daylight Time),661858.5,109_y_m_n_a.png,O,m,937,5,1,1964.2999999523163,659894.2000000477,7005,VNB,A,3
3,test,3,0.0,2-Back,0,m,Fri Aug 02 2024 13:31:34 GMT-0500 (Central Daylight Time),663913.0999999046,039_o_m_h_a.png,O,z,1031,6,1,2049.199999809265,661863.9000000954,7005,VNB,A,4
4,test,3,0.0,2-Back,1,z,Fri Aug 02 2024 13:31:34 GMT-0500 (Central Daylight Time),666467.7000000477,071_y_f_n_a.png,O,z,1530,7,1,2545.7000000476837,663922.0,7005,VNB,A,5
4,test,3,1.0,2-Back,0,m,Fri Aug 02 2024 13:31:34 GMT-0500 (Central Daylight Time),669491.2000000477,165_m_m_d_a.png,O,None,2003,8,1,3016.600000143051,666474.5999999046,7005,VNB,A,6
5,test,3,0.0,2-Back,1,m,Fri Aug 02 2024 13:31:34 GMT-0500 (Central Daylight Time),671861.7000000477,109_y_m_d_a.png,O,m,1344,9,1,2364.7000000476837,669497.0,7005,VNB,A,7
5,test,3,0.0,2-Back,0,m,Fri Aug 02 2024 13:31:34 GMT-0500 (Central Daylight Time),673932.5999999046,124_o_f_h_a.png,O,z,1035,10,1,2060.7999999523163,671871.7999999523,7005,VNB,A,8
5,test,3,1.0,2-Back,0,m,Fri Aug 02 2024 13:31:34 GMT-0500 (Central Daylight Time),676955.7999999523,139_m_f_n_a.png,O,None,2002,11,1,3012.899999856949,673942.9000000954,7005,VNB,A,9
6,test,3,1.0,2-Back,1,z,Fri Aug 02 2024 13:31:34 GMT-0500 (Central Daylight Time),679025.7999999523,165_m_m_h_a.png,O,z,1038,12,1,2059.399999856949,676966.4000000954,7005,VNB,A,10
7,test,3,0.0,2-Back,1,m,Fri Aug 02 2024 13:31:34 GMT-0500 (Central Daylight Time),681464.2999999523,071_y_f_d_a.png,O,m,1417,13,1,2428.399999856949,679035.9000000954,7005,VNB,A,11
7,test,3,0.0,2-Back,0,m,Fri Aug 02 2024 13:31:34 GMT-0500 (Central Daylight Time),683618.5,124_o_f_n_a.png,O,z,1121,14,1,2147.5999999046326,681470.9000000954,7005,VNB,A,12
7,test,3,0.0,2-Back,0,z,Fri Aug 02 2024 13:31:34 GMT-0500 (Central Daylight Time),685655.5,039_o_m_d_a.png,O,m,1016,15,1,2026.7000000476837,683628.7999999523,7005,VNB,A,13
7,test,3,1.0,2-Back,0,m,Fri Aug 02 2024 13:31:34 GMT-0500 (Central Daylight Time),688260.4000000954,139_m_f_h_a.png,O,z,1570,16,1,2594.2000000476837,685666.2000000477,7005,VNB,A,14
8,test,3,0.0,2-Back,1,m,Fri Aug 02 2024 13:31:34 GMT-0500 (Central Daylight Time),691250.0999999046,165_m_m_n_a.png,O,m,1958,17,1,2980.2999999523163,688269.7999999523,7005,VNB,A,15
8,test,3,0.0,2-Back,0,z,Fri Aug 02 2024 13:31:34 GMT-0500 (Central Daylight Time),694274.5999999046,109_y_m_h_a.png,O,None,2003,18,1,3015.5,691259.0999999046,7005,VNB,A,16
0,test,4,0.0,2-Back,,,Fri Aug 02 2024 13:31:34 GMT-0500 (Central Daylight Time),694274.5999999046,139_m_f_n_a.png,O,space,3306,1,1,3015.5,691259.0999999046,7005,VNB,A,0
0,test,4,0.0,2-Back,,,Fri Aug 02 2024 13:31:34 GMT-0500 (Central Daylight Time),694274.5999999046,039_o_m_n_a.png,O,space,3306,2,1,3015.5,691259.0999999046,7005,VNB,A,0
1,test,4,1.0,2-Back,1,m,Fri Aug 02 2024 13:31:34 GMT-0500 (Central Daylight Time),704609.0999999046,109_y_m_h_a.png,O,m,923,3,1,1943.5,702665.5999999046,7005,VNB,A,1
2,test,4,1.0,2-Back,1,m,Fri Aug 02 2024 13:31:34 GMT-0500 (Central Daylight Time),706681.7999999523,124_o_f_d_a.png,O,m,1049,4,1,2062.2000000476837,704619.5999999046,7005,VNB,A,2
3,test,4,0.0,2-Back,1,z,Fri Aug 02 2024 13:31:34 GMT-0500 (Central Daylight Time),708500.2999999523,039_o_m_h_a.png,O,z,787,5,1,1811.8999998569489,706688.4000000954,7005,VNB,A,3
4,test,4,0.0,2-Back,1,m,Fri Aug 02 2024 13:31:34 GMT-0500 (Central Daylight Time),710771.2999999523,165_m_m_n_a.png,O,m,1246,6,1,2258.5999999046326,708512.7000000477,7005,VNB,A,4
4,test,4,0.0,2-Back,0,m,Fri Aug 02 2024 13:31:34 GMT-0500 (Central Daylight Time),713125.5999999046,139_m_f_d_a.png,O,z,1328,7,1,2343.5,710782.0999999046,7005,VNB,A,5
5,test,4,0.0,2-Back,1,z,Fri Aug 02 2024 13:31:34 GMT-0500 (Central Daylight Time),714995.7999999523,071_y_f_n_a.png,O,z,835,8,1,1859.2999999523163,713136.5,7005,VNB,A,6
6,test,4,1.0,2-Back,1,m,Fri Aug 02 2024 13:31:34 GMT-0500 (Central Daylight Time),717684.2000000477,124_o_f_h_a.png,O,m,1661,9,1,2679.600000143051,715004.5999999046,7005,VNB,A,7
7,test,4,0.0,2-Back,1,m,Fri Aug 02 2024 13:31:34 GMT-0500 (Central Daylight Time),719988.7999999523,165_m_m_h_a.png,O,m,1277,10,1,2295.399999856949,717693.4000000954,7005,VNB,A,8
8,test,4,0.0,2-Back,1,m,Fri Aug 02 2024 13:31:34 GMT-0500 (Central Daylight Time),721842.9000000954,071_y_f_d_a.png,O,m,821,11,1,1843.0,719999.9000000954,7005,VNB,A,9
8,test,4,0.0,2-Back,0,m,Fri Aug 02 2024 13:31:34 GMT-0500 (Central Daylight Time),723762.5999999046,109_y_m_n_a.png,O,z,894,12,1,1908.1999998092651,721854.4000000954,7005,VNB,A,10
8,test,4,0.0,2-Back,0,z,Fri Aug 02 2024 13:31:34 GMT-0500 (Central Daylight Time),725783.5999999046,039_o_m_d_a.png,O,m,1000,13,1,2014.7999999523163,723768.7999999523,7005,VNB,A,11
9,test,4,1.0,2-Back,1,m,Fri Aug 02 2024 13:31:34 GMT-0500 (Central Daylight Time),728055.2000000477,139_m_f_h_a.png,O,m,1242,14,1,2259.600000143051,725795.5999999046,7005,VNB,A,12
10,test,4,1.0,2-Back,1,m,Fri Aug 02 2024 13:31:34 GMT-0500 (Central Daylight Time),730242.5,071_y_f_h_a.png,O,m,1164,15,1,2175.5,728067.0,7005,VNB,A,13
11,test,4,0.0,2-Back,1,m,Fri Aug 02 2024 13:31:34 GMT-0500 (Central Daylight Time),732730.5,124_o_f_n_a.png,O,m,1456,16,1,2477.2000000476837,730253.2999999523,7005,VNB,A,14
12,test,4,0.0,2-Back,1,m,Fri Aug 02 2024 13:31:34 GMT-0500 (Central Daylight Time),734734.2999999523,109_y_m_d_a.png,O,m,985,17,1,1992.0999999046326,732742.2000000477,7005,VNB,A,15
13,test,4,1.0,2-Back,1,m,Fri Aug 02 2024 13:31:34 GMT-0500 (Central Daylight Time),737272.5999999046,165_m_m_d_a.png,O,m,1508,18,1,2529.5,734743.0999999046,7005,VNB,A,16
0,test,5,1.0,2-Back,,,Fri Aug 02 2024 13:31:34 GMT-0500 (Central Daylight Time),737272.5999999046,071_y_f_d_a.png,O,space,1355,1,1,2529.5,734743.0999999046,7005,VNB,A,0
0,test,5,1.0,2-Back,,,Fri Aug 02 2024 13:31:34 GMT-0500 (Central Daylight Time),737272.5999999046,124_o_f_h_a.png,O,space,1355,2,1,2529.5,734743.0999999046,7005,VNB,A,0
1,test,5,1.0,2-Back,1,z,Fri Aug 02 2024 13:31:34 GMT-0500 (Central Daylight Time),745355.5999999046,039_o_m_d_a.png,O,z,579,3,1,1592.3999998569489,743763.2000000477,7005,VNB,A,1
2,test,5,1.0,2-Back,1,m,Fri Aug 02 2024 13:31:34 GMT-0500 (Central Daylight Time),747191.9000000954,139_m_f_n_a.png,O,m,806,4,1,1826.0,745365.9000000954,7005,VNB,A,2
2,test,5,0.0,2-Back,0,m,Fri Aug 02 2024 13:31:34 GMT-0500 (Central Daylight Time),749613.2000000477,165_m_m_h_a.png,O,z,1386,5,1,2412.100000143051,747201.0999999046,7005,VNB,A,3
3,test,5,0.0,2-Back,1,z,Fri Aug 02 2024 13:31:34 GMT-0500 (Central Daylight Time),751617.2999999523,071_y_f_n_a.png,O,z,972,6,1,1995.2000000476837,749622.0999999046,7005,VNB,A,4
4,test,5,0.0,2-Back,1,m,Fri Aug 02 2024 13:31:34 GMT-0500 (Central Daylight Time),753804.9000000954,124_o_f_d_a.png,O,m,1160,7,1,2178.2000000476837,751626.7000000477,7005,VNB,A,5
5,test,5,0.0,2-Back,1,m,Fri Aug 02 2024 13:31:34 GMT-0500 (Central Daylight Time),756025.7000000477,039_o_m_h_a.png,O,m,1198,8,1,2210.2999999523163,753815.4000000954,7005,VNB,A,6
5,test,5,1.0,2-Back,0,z,Fri Aug 02 2024 13:31:34 GMT-0500 (Central Daylight Time),759050.2000000477,139_m_f_d_a.png,O,None,2004,9,1,3014.0,756036.2000000477,7005,VNB,A,7
5,test,5,0.0,2-Back,0,m,Fri Aug 02 2024 13:31:34 GMT-0500 (Central Daylight Time),762071.2999999523,109_y_m_n_a.png,O,None,2003,10,1,3010.0999999046326,759061.2000000477,7005,VNB,A,8
6,test,5,0.0,2-Back,1,m,Fri Aug 02 2024 13:31:34 GMT-0500 (Central Daylight Time),764459.5,165_m_m_n_a.png,O,m,1363,11,1,2379.4000000953674,762080.0999999046,7005,VNB,A,9
7,test,5,0.0,2-Back,1,m,Fri Aug 02 2024 13:31:34 GMT-0500 (Central Daylight Time),766513.0999999046,071_y_f_h_a.png,O,m,1031,12,1,2042.8999998569489,764470.2000000477,7005,VNB,A,10
8,test,5,0.0,2-Back,1,m,Fri Aug 02 2024 13:31:34 GMT-0500 (Central Daylight Time),769001.4000000954,109_y_m_d_a.png,O,m,1456,13,1,2476.4000000953674,766525.0,7005,VNB,A,11
8,test,5,1.0,2-Back,0,z,Fri Aug 02 2024 13:31:34 GMT-0500 (Central Daylight Time),771456.2000000477,139_m_f_h_a.png,O,m,1425,14,1,2444.4000000953674,769011.7999999523,7005,VNB,A,12
9,test,5,0.0,2-Back,1,m,Fri Aug 02 2024 13:31:34 GMT-0500 (Central Daylight Time),773460.4000000954,039_o_m_n_a.png,O,m,979,15,1,1993.7000000476837,771466.7000000477,7005,VNB,A,13
9,test,5,0.0,2-Back,0,m,Fri Aug 02 2024 13:31:34 GMT-0500 (Central Daylight Time),775747.5999999046,165_m_m_d_a.png,O,z,1253,16,1,2275.7999999523163,773471.7999999523,7005,VNB,A,14
9,test,5,0.0,2-Back,0,z,Fri Aug 02 2024 13:31:34 GMT-0500 (Central Daylight Time),777702.2000000477,124_o_f_n_a.png,O,m,919,17,1,1945.5,775756.7000000477,7005,VNB,A,15
9,test,5,1.0,2-Back,0,m,Fri Aug 02 2024 13:31:34 GMT-0500 (Central Daylight Time),780725.5999999046,109_y_m_h_a.png,O,None,2003,18,1,3012.899999856949,777712.7000000477,7005,VNB,A,16
