acc_sum,block,block_c,change,condition,correct,correct_response,datetime,endtime,face,project,response,response_time,row_sel,session_number,start_end,starttime,subject_id,task,task_vers,trial
0,prac,1,,1-Back,,,Tue Dec 30 2025 18:02:16 GMT-0600 (Central Standard Time),,093_m_f_n_a.png,I,space,3388,1,3,,,8037,NNB,C,0
1,prac,1,0.0,1-Back,1.0,m,Tue Dec 30 2025 18:02:16 GMT-0600 (Central Standard Time),84625.10000002384,098_y_f_n_a.png,I,m,907,2,3,1754.300000011921,82870.80000001192,8037,NNB,C,1
2,prac,1,1.0,1-Back,1.0,z,Tue Dec 30 2025 18:02:16 GMT-0600 (Central Standard Time),86107.60000002384,098_y_f_n_a.png,I,z,701,3,3,1473.4000000357628,84634.19999998808,8037,NNB,C,2
3,prac,1,0.0,1-Back,1.0,m,Tue Dec 30 2025 18:02:16 GMT-0600 (Central Standard Time),87623.90000003576,059_o_m_n_a.png,I,m,651,4,3,1508.7000000476837,86115.19999998808,8037,NNB,C,3
4,prac,1,0.0,1-Back,1.0,m,Tue Dec 30 2025 18:02:16 GMT-0600 (Central Standard Time),89240.19999998808,092_m_m_n_a.png,I,m,751,5,3,1607.199999988079,87633.0,8037,NNB,C,4
5,prac,1,1.0,1-Back,1.0,z,Tue Dec 30 2025 18:02:16 GMT-0600 (Central Standard Time),90689.5,092_m_m_n_a.png,I,z,671,6,3,1440.5,89249.0,8037,NNB,C,5
6,prac,1,0.0,1-Back,1.0,m,Tue Dec 30 2025 18:02:16 GMT-0600 (Central Standard Time),92572.60000002384,130_o_f_n_a.png,I,m,1009,7,3,1874.699999988079,90697.90000003576,8037,NNB,C,6
7,prac,1,0.0,1-Back,1.0,m,Tue Dec 30 2025 18:02:16 GMT-0600 (Central Standard Time),94321.80000001192,082_m_m_n_a.png,I,m,889,8,3,1740.300000011921,92581.5,8037,NNB,C,7
8,prac,1,0.0,1-Back,1.0,m,Tue Dec 30 2025 18:02:16 GMT-0600 (Central Standard Time),95788.19999998808,093_m_f_n_a.png,I,m,686,9,3,1457.2999999523163,94330.90000003576,8037,NNB,C,8
9,prac,1,1.0,1-Back,1.0,z,Tue Dec 30 2025 18:02:16 GMT-0600 (Central Standard Time),97287.40000003576,093_m_f_n_a.png,I,z,715,10,3,1490.7000000476837,95796.69999998808,8037,NNB,C,9
10,prac,1,0.0,1-Back,1.0,m,Tue Dec 30 2025 18:02:16 GMT-0600 (Central Standard Time),99087.10000002384,059_o_m_n_a.png,I,m,1009,11,3,1792.300000011921,97294.80000001192,8037,NNB,C,10
11,prac,1,0.0,1-Back,1.0,m,Tue Dec 30 2025 18:02:16 GMT-0600 (Central Standard Time),100769.60000002384,028_y_f_n_a.png,I,m,822,12,3,1674.1000000238419,99095.5,8037,NNB,C,11
0,test,1,0.0,1-Back,,,Tue Dec 30 2025 18:02:16 GMT-0600 (Central Standard Time),100769.60000002384,098_y_f_n_a.png,I,space,5123,1,3,1674.1000000238419,99095.5,8037,NNB,C,0
1,test,1,0.0,1-Back,1.0,m,Tue Dec 30 2025 18:02:16 GMT-0600 (Central Standard Time),114565.80000001192,006_m_f_n_a.png,I,m,828,2,3,1842.6000000238419,112723.19999998808,8037,NNB,C,1
2,test,1,0.0,1-Back,1.0,m,Tue Dec 30 2025 18:02:16 GMT-0600 (Central Standard Time),116364.90000003576,028_y_f_n_a.png,I,m,770,3,3,1793.300000011921,114571.60000002384,8037,NNB,C,2
3,test,1,1.0,1-Back,1.0,z,Tue Dec 30 2025 18:02:16 GMT-0600 (Central Standard Time),117864.10000002384,028_y_f_n_a.png,I,z,482,4,3,1493.800000011921,116370.30000001192,8037,NNB,C,3
4,test,1,0.0,1-Back,1.0,m,Tue Dec 30 2025 18:02:16 GMT-0600 (Central Standard Time),119613.69999998808,006_m_f_n_a.png,I,m,727,5,3,1742.699999988079,117871.0,8037,NNB,C,4
5,test,1,0.0,1-Back,1.0,m,Tue Dec 30 2025 18:02:16 GMT-0600 (Central Standard Time),121263.5,059_o_m_n_a.png,I,m,617,6,3,1644.0999999642372,119619.40000003576,8037,NNB,C,5
6,test,1,1.0,1-Back,1.0,z,Tue Dec 30 2025 18:02:16 GMT-0600 (Central Standard Time),122963.19999998808,059_o_m_n_a.png,I,z,672,7,3,1695.2999999523163,121267.90000003576,8037,NNB,C,6
7,test,1,0.0,1-Back,1.0,m,Tue Dec 30 2025 18:02:16 GMT-0600 (Central Standard Time),124595.5,092_m_m_n_a.png,I,m,612,8,3,1627.5,122968.0,8037,NNB,C,7
8,test,1,0.0,1-Back,1.0,m,Tue Dec 30 2025 18:02:16 GMT-0600 (Central Standard Time),126361.40000003576,130_o_f_n_a.png,I,m,748,9,3,1761.5,124599.90000003576,8037,NNB,C,8
9,test,1,0.0,1-Back,1.0,m,Tue Dec 30 2025 18:02:16 GMT-0600 (Central Standard Time),128061.19999998808,092_m_m_n_a.png,I,m,670,10,3,1694.5,126366.69999998808,8037,NNB,C,9
10,test,1,0.0,1-Back,1.0,m,Tue Dec 30 2025 18:02:16 GMT-0600 (Central Standard Time),129644.10000002384,057_y_m_n_a.png,I,m,554,11,3,1577.0,128067.10000002384,8037,NNB,C,10
10,test,1,1.0,1-Back,0.0,z,Tue Dec 30 2025 18:02:16 GMT-0600 (Central Standard Time),131210.30000001192,057_y_m_n_a.png,I,m,540,12,3,1560.8999999761581,129649.40000003576,8037,NNB,C,11
11,test,1,0.0,1-Back,1.0,m,Tue Dec 30 2025 18:02:16 GMT-0600 (Central Standard Time),133376.40000003576,030_o_f_n_a.png,I,m,1142,13,3,2160.800000011921,131215.60000002384,8037,NNB,C,12
11,test,1,1.0,1-Back,0.0,z,Tue Dec 30 2025 18:02:16 GMT-0600 (Central Standard Time),135025.90000003576,030_o_f_n_a.png,I,m,623,14,3,1644.4000000357628,133381.5,8037,NNB,C,13
12,test,1,0.0,1-Back,1.0,m,Tue Dec 30 2025 18:02:16 GMT-0600 (Central Standard Time),136808.40000003576,031_y_m_n_a.png,I,m,766,15,3,1777.2000000476837,135031.19999998808,8037,NNB,C,14
13,test,1,0.0,1-Back,1.0,m,Tue Dec 30 2025 18:02:16 GMT-0600 (Central Standard Time),138757.90000003576,093_m_f_n_a.png,I,m,919,16,3,1943.9000000357628,136814.0,8037,NNB,C,15
14,test,1,0.0,1-Back,1.0,m,Tue Dec 30 2025 18:02:16 GMT-0600 (Central Standard Time),140340.90000003576,146_o_m_n_a.png,I,m,562,17,3,1577.7000000476837,138763.19999998808,8037,NNB,C,16
15,test,1,0.0,1-Back,1.0,m,Tue Dec 30 2025 18:02:16 GMT-0600 (Central Standard Time),141890.19999998808,093_m_f_n_a.png,I,m,523,18,3,1544.3999999761581,140345.80000001192,8037,NNB,C,17
0,test,2,0.0,1-Back,,,Tue Dec 30 2025 18:02:16 GMT-0600 (Central Standard Time),141890.19999998808,092_m_m_n_a.png,I,space,2549,1,3,1544.3999999761581,140345.80000001192,8037,NNB,C,0
1,test,2,0.0,1-Back,1.0,m,Tue Dec 30 2025 18:02:16 GMT-0600 (Central Standard Time),148104.60000002384,006_m_f_n_a.png,I,m,615,2,3,1627.1000000238419,146477.5,8037,NNB,C,1
2,test,2,1.0,1-Back,1.0,z,Tue Dec 30 2025 18:02:16 GMT-0600 (Central Standard Time),149787.5,006_m_f_n_a.png,I,z,662,3,3,1678.0,148109.5,8037,NNB,C,2
3,test,2,0.0,1-Back,1.0,m,Tue Dec 30 2025 18:02:16 GMT-0600 (Central Standard Time),151387.5,092_m_m_n_a.png,I,m,579,4,3,1594.5999999642372,149792.90000003576,8037,NNB,C,3
4,test,2,0.0,1-Back,1.0,m,Tue Dec 30 2025 18:02:16 GMT-0600 (Central Standard Time),153003.40000003576,057_y_m_n_a.png,I,m,588,5,3,1610.5,151392.90000003576,8037,NNB,C,4
5,test,2,0.0,1-Back,1.0,m,Tue Dec 30 2025 18:02:16 GMT-0600 (Central Standard Time),154619.60000002384,098_y_f_n_a.png,I,m,596,6,3,1610.199999988079,153009.40000003576,8037,NNB,C,5
6,test,2,1.0,1-Back,1.0,z,Tue Dec 30 2025 18:02:16 GMT-0600 (Central Standard Time),156319.0,098_y_f_n_a.png,I,z,675,7,3,1694.8999999761581,154624.10000002384,8037,NNB,C,6
7,test,2,0.0,1-Back,1.0,m,Tue Dec 30 2025 18:02:16 GMT-0600 (Central Standard Time),158035.19999998808,057_y_m_n_a.png,I,m,688,8,3,1711.7999999523163,156323.40000003576,8037,NNB,C,7
8,test,2,0.0,1-Back,1.0,m,Tue Dec 30 2025 18:02:16 GMT-0600 (Central Standard Time),159784.60000002384,030_o_f_n_a.png,I,m,716,9,3,1744.300000011921,158040.30000001192,8037,NNB,C,8
9,test,2,0.0,1-Back,1.0,m,Tue Dec 30 2025 18:02:16 GMT-0600 (Central Standard Time),161400.69999998808,082_m_m_n_a.png,I,m,591,10,3,1610.2999999523163,159790.40000003576,8037,NNB,C,9
10,test,2,1.0,1-Back,1.0,z,Tue Dec 30 2025 18:02:16 GMT-0600 (Central Standard Time),163066.90000003576,082_m_m_n_a.png,I,z,639,11,3,1661.7000000476837,161405.19999998808,8037,NNB,C,10
11,test,2,0.0,1-Back,1.0,m,Tue Dec 30 2025 18:02:16 GMT-0600 (Central Standard Time),164783.10000002384,030_o_f_n_a.png,I,m,693,12,3,1711.5,163071.60000002384,8037,NNB,C,11
12,test,2,0.0,1-Back,1.0,m,Tue Dec 30 2025 18:02:16 GMT-0600 (Central Standard Time),166449.30000001192,130_o_f_n_a.png,I,m,641,13,3,1661.1000000238419,164788.19999998808,8037,NNB,C,12
13,test,2,0.0,1-Back,1.0,m,Tue Dec 30 2025 18:02:16 GMT-0600 (Central Standard Time),168082.10000002384,059_o_m_n_a.png,I,m,607,14,3,1627.300000011921,166454.80000001192,8037,NNB,C,13
14,test,2,0.0,1-Back,1.0,m,Tue Dec 30 2025 18:02:16 GMT-0600 (Central Standard Time),169831.69999998808,146_o_m_n_a.png,I,m,726,15,3,1744.0,168087.69999998808,8037,NNB,C,14
15,test,2,1.0,1-Back,1.0,z,Tue Dec 30 2025 18:02:16 GMT-0600 (Central Standard Time),171364.30000001192,146_o_m_n_a.png,I,z,504,16,3,1528.6000000238419,169835.69999998808,8037,NNB,C,15
16,test,2,0.0,1-Back,1.0,m,Tue Dec 30 2025 18:02:16 GMT-0600 (Central Standard Time),173030.60000002384,031_y_m_n_a.png,I,m,643,17,3,1662.0,171368.60000002384,8037,NNB,C,16
16,test,2,1.0,1-Back,0.0,z,Tue Dec 30 2025 18:02:16 GMT-0600 (Central Standard Time),174713.40000003576,031_y_m_n_a.png,I,m,657,18,3,1679.0,173034.40000003576,8037,NNB,C,17
0,test,3,1.0,1-Back,,,Tue Dec 30 2025 18:02:16 GMT-0600 (Central Standard Time),174713.40000003576,028_y_f_n_a.png,I,space,1023,1,3,1679.0,173034.40000003576,8037,NNB,C,0
1,test,3,0.0,1-Back,1.0,m,Tue Dec 30 2025 18:02:16 GMT-0600 (Central Standard Time),179411.90000003576,146_o_m_n_a.png,I,m,538,1,3,1562.6000000238419,177849.30000001192,8037,NNB,C,1
2,test,3,1.0,1-Back,1.0,z,Tue Dec 30 2025 18:02:16 GMT-0600 (Central Standard Time),181078.0,146_o_m_n_a.png,I,z,637,1,3,1661.5999999642372,179416.40000003576,8037,NNB,C,2
3,test,3,0.0,1-Back,1.0,m,Tue Dec 30 2025 18:02:16 GMT-0600 (Central Standard Time),182644.19999998808,093_m_f_n_a.png,I,m,546,1,3,1562.5999999642372,181081.60000002384,8037,NNB,C,3
4,test,3,1.0,1-Back,1.0,z,Tue Dec 30 2025 18:02:16 GMT-0600 (Central Standard Time),184176.80000001192,093_m_f_n_a.png,I,z,515,1,3,1527.8999999761581,182648.90000003576,8037,NNB,C,4
5,test,3,0.0,1-Back,1.0,m,Tue Dec 30 2025 18:02:16 GMT-0600 (Central Standard Time),185943.30000001192,030_o_f_n_a.png,I,m,743,1,3,1762.5,184180.80000001192,8037,NNB,C,5
6,test,3,0.0,1-Back,1.0,m,Tue Dec 30 2025 18:02:16 GMT-0600 (Central Standard Time),187560.30000001192,057_y_m_n_a.png,I,m,584,1,3,1612.6000000238419,185947.69999998808,8037,NNB,C,6
7,test,3,0.0,1-Back,1.0,m,Tue Dec 30 2025 18:02:16 GMT-0600 (Central Standard Time),189092.10000002384,030_o_f_n_a.png,I,m,504,1,3,1527.1000000238419,187565.0,8037,NNB,C,7
8,test,3,0.0,1-Back,1.0,m,Tue Dec 30 2025 18:02:16 GMT-0600 (Central Standard Time),190741.69999998808,031_y_m_n_a.png,I,m,627,1,3,1645.199999988079,189096.5,8037,NNB,C,8
9,test,3,1.0,1-Back,1.0,z,Tue Dec 30 2025 18:02:16 GMT-0600 (Central Standard Time),192208.40000003576,031_y_m_n_a.png,I,z,450,1,3,1462.4000000357628,190746.0,8037,NNB,C,9
10,test,3,0.0,1-Back,1.0,m,Tue Dec 30 2025 18:02:16 GMT-0600 (Central Standard Time),193821.10000002384,006_m_f_n_a.png,I,m,597,1,3,1607.9000000357628,192213.19999998808,8037,NNB,C,10
11,test,3,0.0,1-Back,1.0,m,Tue Dec 30 2025 18:02:16 GMT-0600 (Central Standard Time),195373.60000002384,098_y_f_n_a.png,I,m,520,1,3,1546.300000011921,193827.30000001192,8037,NNB,C,11
12,test,3,1.0,1-Back,1.0,z,Tue Dec 30 2025 18:02:16 GMT-0600 (Central Standard Time),196773.10000002384,098_y_f_n_a.png,I,z,378,1,3,1394.199999988079,195378.90000003576,8037,NNB,C,12
13,test,3,0.0,1-Back,1.0,m,Tue Dec 30 2025 18:02:16 GMT-0600 (Central Standard Time),198355.80000001192,006_m_f_n_a.png,I,m,554,1,3,1578.300000011921,196777.5,8037,NNB,C,13
14,test,3,0.0,1-Back,1.0,m,Tue Dec 30 2025 18:02:16 GMT-0600 (Central Standard Time),199905.60000002384,092_m_m_n_a.png,I,m,523,1,3,1543.800000011921,198361.80000001192,8037,NNB,C,14
15,test,3,1.0,1-Back,1.0,z,Tue Dec 30 2025 18:02:16 GMT-0600 (Central Standard Time),201538.5,092_m_m_n_a.png,I,z,606,1,3,1629.0999999642372,199909.40000003576,8037,NNB,C,15
16,test,3,0.0,1-Back,1.0,m,Tue Dec 30 2025 18:02:16 GMT-0600 (Central Standard Time),203270.80000001192,130_o_f_n_a.png,I,m,709,1,3,1727.8999999761581,201542.90000003576,8037,NNB,C,16
16,test,3,1.0,1-Back,0.0,z,Tue Dec 30 2025 18:02:16 GMT-0600 (Central Standard Time),204803.80000001192,130_o_f_n_a.png,I,m,504,1,3,1529.1000000238419,203274.69999998808,8037,NNB,C,17
0,test,4,1.0,1-Back,,,Tue Dec 30 2025 18:02:16 GMT-0600 (Central Standard Time),204803.80000001192,093_m_f_n_a.png,I,space,684,1,3,1529.1000000238419,203274.69999998808,8037,NNB,C,0
1,test,4,0.0,1-Back,1.0,m,Tue Dec 30 2025 18:02:16 GMT-0600 (Central Standard Time),209235.69999998808,146_o_m_n_a.png,I,m,621,2,3,1642.8999999761581,207592.80000001192,8037,NNB,C,1
2,test,4,0.0,1-Back,1.0,m,Tue Dec 30 2025 18:02:16 GMT-0600 (Central Standard Time),210918.5,093_m_f_n_a.png,I,m,652,3,3,1677.8999999761581,209240.60000002384,8037,NNB,C,2
3,test,4,0.0,1-Back,1.0,m,Tue Dec 30 2025 18:02:16 GMT-0600 (Central Standard Time),212418.19999998808,030_o_f_n_a.png,I,m,474,4,3,1496.5,210921.69999998808,8037,NNB,C,3
4,test,4,1.0,1-Back,1.0,z,Tue Dec 30 2025 18:02:16 GMT-0600 (Central Standard Time),213951.10000002384,030_o_f_n_a.png,I,z,501,5,3,1528.300000011921,212422.80000001192,8037,NNB,C,4
5,test,4,0.0,1-Back,1.0,m,Tue Dec 30 2025 18:02:16 GMT-0600 (Central Standard Time),215483.80000001192,098_y_f_n_a.png,I,m,514,6,3,1529.0,213954.80000001192,8037,NNB,C,5
6,test,4,0.0,1-Back,1.0,m,Tue Dec 30 2025 18:02:16 GMT-0600 (Central Standard Time),217033.40000003576,057_y_m_n_a.png,I,m,525,7,3,1545.6000000238419,215487.80000001192,8037,NNB,C,6
7,test,4,1.0,1-Back,1.0,z,Tue Dec 30 2025 18:02:16 GMT-0600 (Central Standard Time),218632.90000003576,057_y_m_n_a.png,I,z,574,8,3,1595.0,217037.90000003576,8037,NNB,C,7
8,test,4,0.0,1-Back,1.0,m,Tue Dec 30 2025 18:02:16 GMT-0600 (Central Standard Time),220116.30000001192,098_y_f_n_a.png,I,m,455,9,3,1479.1000000238419,218637.19999998808,8037,NNB,C,8
9,test,4,0.0,1-Back,1.0,m,Tue Dec 30 2025 18:02:16 GMT-0600 (Central Standard Time),221665.30000001192,082_m_m_n_a.png,I,m,517,10,3,1545.6000000238419,220119.69999998808,8037,NNB,C,9
10,test,4,1.0,1-Back,1.0,z,Tue Dec 30 2025 18:02:16 GMT-0600 (Central Standard Time),223148.19999998808,082_m_m_n_a.png,I,z,462,11,3,1478.3999999761581,221669.80000001192,8037,NNB,C,10
11,test,4,0.0,1-Back,1.0,m,Tue Dec 30 2025 18:02:16 GMT-0600 (Central Standard Time),224747.40000003576,130_o_f_n_a.png,I,m,571,12,3,1594.300000011921,223153.10000002384,8037,NNB,C,11
12,test,4,0.0,1-Back,1.0,m,Tue Dec 30 2025 18:02:16 GMT-0600 (Central Standard Time),226313.5,059_o_m_n_a.png,I,m,549,13,3,1560.0,224753.5,8037,NNB,C,12
13,test,4,0.0,1-Back,1.0,m,Tue Dec 30 2025 18:02:16 GMT-0600 (Central Standard Time),227846.60000002384,130_o_f_n_a.png,I,m,502,14,3,1528.199999988079,226318.40000003576,8037,NNB,C,13
14,test,4,0.0,1-Back,1.0,m,Tue Dec 30 2025 18:02:16 GMT-0600 (Central Standard Time),229396.0,028_y_f_n_a.png,I,m,521,15,3,1544.199999988079,227851.80000001192,8037,NNB,C,14
15,test,4,1.0,1-Back,1.0,z,Tue Dec 30 2025 18:02:16 GMT-0600 (Central Standard Time),230895.80000001192,028_y_f_n_a.png,I,z,467,16,3,1495.6000000238419,229400.19999998808,8037,NNB,C,15
16,test,4,0.0,1-Back,1.0,m,Tue Dec 30 2025 18:02:16 GMT-0600 (Central Standard Time),232428.5,006_m_f_n_a.png,I,m,511,17,3,1528.3999999761581,230900.10000002384,8037,NNB,C,16
17,test,4,1.0,1-Back,1.0,z,Tue Dec 30 2025 18:02:16 GMT-0600 (Central Standard Time),234144.60000002384,006_m_f_n_a.png,I,z,684,18,3,1711.300000011921,232433.30000001192,8037,NNB,C,17
0,test,5,1.0,1-Back,,,Tue Dec 30 2025 18:02:16 GMT-0600 (Central Standard Time),234144.60000002384,059_o_m_n_a.png,I,space,2119,1,3,1711.300000011921,232433.30000001192,8037,NNB,C,0
1,test,5,1.0,1-Back,1.0,z,Tue Dec 30 2025 18:02:16 GMT-0600 (Central Standard Time),239777.30000001192,059_o_m_n_a.png,I,z,450,2,3,1478.6000000238419,238298.69999998808,8037,NNB,C,1
2,test,5,0.0,1-Back,1.0,m,Tue Dec 30 2025 18:02:16 GMT-0600 (Central Standard Time),241325.80000001192,098_y_f_n_a.png,I,m,519,3,3,1542.6000000238419,239783.19999998808,8037,NNB,C,2
3,test,5,0.0,1-Back,1.0,m,Tue Dec 30 2025 18:02:16 GMT-0600 (Central Standard Time),242875.0,057_y_m_n_a.png,I,m,531,4,3,1544.800000011921,241330.19999998808,8037,NNB,C,3
4,test,5,0.0,1-Back,1.0,m,Tue Dec 30 2025 18:02:16 GMT-0600 (Central Standard Time),244424.60000002384,098_y_f_n_a.png,I,m,532,5,3,1545.5,242879.10000002384,8037,NNB,C,4
5,test,5,0.0,1-Back,1.0,m,Tue Dec 30 2025 18:02:16 GMT-0600 (Central Standard Time),245957.5,092_m_m_n_a.png,I,m,503,6,3,1528.800000011921,244428.69999998808,8037,NNB,C,5
6,test,5,1.0,1-Back,1.0,z,Tue Dec 30 2025 18:02:16 GMT-0600 (Central Standard Time),247540.40000003576,092_m_m_n_a.png,I,z,562,7,3,1579.5,245960.90000003576,8037,NNB,C,6
7,test,5,0.0,1-Back,1.0,m,Tue Dec 30 2025 18:02:16 GMT-0600 (Central Standard Time),249156.60000002384,028_y_f_n_a.png,I,m,594,8,3,1611.699999988079,247544.90000003576,8037,NNB,C,7
8,test,5,0.0,1-Back,1.0,m,Tue Dec 30 2025 18:02:16 GMT-0600 (Central Standard Time),250639.5,031_y_m_n_a.png,I,m,459,9,3,1479.5,249160.0,8037,NNB,C,8
9,test,5,0.0,1-Back,1.0,m,Tue Dec 30 2025 18:02:16 GMT-0600 (Central Standard Time),252239.0,028_y_f_n_a.png,I,m,568,10,3,1595.300000011921,250643.69999998808,8037,NNB,C,9
10,test,5,0.0,1-Back,1.0,m,Tue Dec 30 2025 18:02:16 GMT-0600 (Central Standard Time),253722.0,130_o_f_n_a.png,I,m,456,11,3,1477.0999999642372,252244.90000003576,8037,NNB,C,10
11,test,5,1.0,1-Back,1.0,z,Tue Dec 30 2025 18:02:16 GMT-0600 (Central Standard Time),255588.10000002384,130_o_f_n_a.png,I,z,846,12,3,1861.4000000357628,253726.69999998808,8037,NNB,C,11
12,test,5,0.0,1-Back,1.0,m,Tue Dec 30 2025 18:02:16 GMT-0600 (Central Standard Time),257104.19999998808,146_o_m_n_a.png,I,m,484,13,3,1511.5,255592.69999998808,8037,NNB,C,12
13,test,5,0.0,1-Back,1.0,m,Tue Dec 30 2025 18:02:16 GMT-0600 (Central Standard Time),258703.69999998808,093_m_f_n_a.png,I,m,567,14,3,1595.5999999642372,257108.10000002384,8037,NNB,C,13
14,test,5,1.0,1-Back,1.0,z,Tue Dec 30 2025 18:02:16 GMT-0600 (Central Standard Time),260336.19999998808,093_m_f_n_a.png,I,z,613,15,3,1627.3999999761581,258708.80000001192,8037,NNB,C,14
15,test,5,0.0,1-Back,1.0,m,Tue Dec 30 2025 18:02:16 GMT-0600 (Central Standard Time),261886.0,146_o_m_n_a.png,I,m,527,16,3,1545.5,260340.5,8037,NNB,C,15
16,test,5,0.0,1-Back,1.0,m,Tue Dec 30 2025 18:02:16 GMT-0600 (Central Standard Time),263435.60000002384,006_m_f_n_a.png,I,m,529,17,3,1545.0,261890.60000002384,8037,NNB,C,16
17,test,5,0.0,1-Back,1.0,m,Tue Dec 30 2025 18:02:16 GMT-0600 (Central Standard Time),265051.5,082_m_m_n_a.png,I,m,499,18,3,1612.0999999642372,263439.40000003576,8037,NNB,C,17
0,prac,1,0.0,2-Back,,,Tue Dec 30 2025 18:02:16 GMT-0600 (Central Standard Time),265051.5,031_y_m_n_a.png,I,space,3098,1,3,1612.0999999642372,263439.40000003576,8037,NNB,C,0
0,prac,1,0.0,2-Back,,,Tue Dec 30 2025 18:02:16 GMT-0600 (Central Standard Time),265051.5,006_m_f_n_a.png,I,space,3098,2,3,1612.0999999642372,263439.40000003576,8037,NNB,C,0
1,prac,1,1.0,2-Back,1.0,m,Tue Dec 30 2025 18:02:16 GMT-0600 (Central Standard Time),345593.0,146_o_m_n_a.png,I,m,743,3,3,1608.199999988079,343984.8000000119,8037,NNB,C,1
2,prac,1,0.0,2-Back,1.0,m,Tue Dec 30 2025 18:02:16 GMT-0600 (Central Standard Time),347225.6999999881,130_o_f_n_a.png,I,m,757,4,3,1624.5,345601.1999999881,8037,NNB,C,2
3,prac,1,0.0,2-Back,1.0,z,Tue Dec 30 2025 18:02:16 GMT-0600 (Central Standard Time),348641.90000003576,146_o_m_n_a.png,I,z,629,5,3,1406.9000000357628,347235.0,8037,NNB,C,3
4,prac,1,1.0,2-Back,1.0,z,Tue Dec 30 2025 18:02:16 GMT-0600 (Central Standard Time),350341.60000002384,130_o_f_n_a.png,I,z,910,6,3,1691.9000000357628,348649.6999999881,8037,NNB,C,4
5,prac,1,0.0,2-Back,1.0,m,Tue Dec 30 2025 18:02:16 GMT-0600 (Central Standard Time),352157.8000000119,082_m_m_n_a.png,I,m,1034,7,3,1808.0,350349.8000000119,8037,NNB,C,5
6,prac,1,0.0,2-Back,1.0,m,Tue Dec 30 2025 18:02:16 GMT-0600 (Central Standard Time),353874.10000002384,059_o_m_n_a.png,I,m,842,8,3,1707.1000000238419,352167.0,8037,NNB,C,6
7,prac,1,0.0,2-Back,1.0,m,Tue Dec 30 2025 18:02:16 GMT-0600 (Central Standard Time),355556.5,028_y_f_n_a.png,I,m,819,9,3,1673.699999988079,353882.8000000119,8037,NNB,C,7
8,prac,1,1.0,2-Back,1.0,z,Tue Dec 30 2025 18:02:16 GMT-0600 (Central Standard Time),357072.90000003576,059_o_m_n_a.png,I,z,739,10,3,1508.6000000238419,355564.3000000119,8037,NNB,C,8
9,prac,1,0.0,2-Back,1.0,m,Tue Dec 30 2025 18:02:16 GMT-0600 (Central Standard Time),358605.90000003576,098_y_f_n_a.png,I,m,663,11,3,1523.9000000357628,357082.0,8037,NNB,C,9
10,prac,1,0.0,2-Back,1.0,m,Tue Dec 30 2025 18:02:16 GMT-0600 (Central Standard Time),360155.3000000119,082_m_m_n_a.png,I,m,762,12,3,1541.3999999761581,358613.90000003576,8037,NNB,C,10
0,test,1,0.0,2-Back,,,Tue Dec 30 2025 18:02:16 GMT-0600 (Central Standard Time),360155.3000000119,057_y_m_n_a.png,I,space,5233,1,3,1541.3999999761581,358613.90000003576,8037,NNB,C,0
0,test,1,0.0,2-Back,,,Tue Dec 30 2025 18:02:16 GMT-0600 (Central Standard Time),360155.3000000119,057_y_m_n_a.png,I,space,5233,2,3,1541.3999999761581,358613.90000003576,8037,NNB,C,0
1,test,1,0.0,2-Back,1.0,m,Tue Dec 30 2025 18:02:16 GMT-0600 (Central Standard Time),379466.8000000119,130_o_f_n_a.png,I,m,581,3,3,1595.300000011921,377871.5,8037,NNB,C,1
2,test,1,0.0,2-Back,1.0,m,Tue Dec 30 2025 18:02:16 GMT-0600 (Central Standard Time),381232.3000000119,092_m_m_n_a.png,I,m,740,4,3,1760.800000011921,379471.5,8037,NNB,C,2
3,test,1,1.0,2-Back,1.0,z,Tue Dec 30 2025 18:02:16 GMT-0600 (Central Standard Time),382731.40000003576,130_o_f_n_a.png,I,z,472,5,3,1495.2000000476837,381236.1999999881,8037,NNB,C,3
4,test,1,0.0,2-Back,1.0,m,Tue Dec 30 2025 18:02:16 GMT-0600 (Central Standard Time),384580.8000000119,098_y_f_n_a.png,I,m,820,6,3,1845.8999999761581,382734.90000003576,8037,NNB,C,4
5,test,1,0.0,2-Back,1.0,m,Tue Dec 30 2025 18:02:16 GMT-0600 (Central Standard Time),386330.1999999881,092_m_m_n_a.png,I,m,724,7,3,1744.0,384586.1999999881,8037,NNB,C,5
6,test,1,1.0,2-Back,1.0,z,Tue Dec 30 2025 18:02:16 GMT-0600 (Central Standard Time),388379.90000003576,098_y_f_n_a.png,I,z,1022,8,3,2044.9000000357628,386335.0,8037,NNB,C,6
6,test,1,0.0,2-Back,0.0,m,Tue Dec 30 2025 18:02:16 GMT-0600 (Central Standard Time),390195.6999999881,031_y_m_n_a.png,I,z,788,9,3,1812.2999999523163,388383.40000003576,8037,NNB,C,7
7,test,1,0.0,2-Back,1.0,m,Tue Dec 30 2025 18:02:16 GMT-0600 (Central Standard Time),391961.5,030_o_f_n_a.png,I,m,739,10,3,1760.5999999642372,390200.90000003576,8037,NNB,C,8
8,test,1,1.0,2-Back,1.0,z,Tue Dec 30 2025 18:02:16 GMT-0600 (Central Standard Time),393777.8000000119,031_y_m_n_a.png,I,z,799,11,3,1811.800000011921,391966.0,8037,NNB,C,9
9,test,1,0.0,2-Back,1.0,m,Tue Dec 30 2025 18:02:16 GMT-0600 (Central Standard Time),395494.1999999881,006_m_f_n_a.png,I,m,685,12,3,1712.0999999642372,393782.10000002384,8037,NNB,C,10
10,test,1,0.0,2-Back,1.0,m,Tue Dec 30 2025 18:02:16 GMT-0600 (Central Standard Time),397293.40000003576,006_m_f_n_a.png,I,m,778,13,3,1794.2000000476837,395499.1999999881,8037,NNB,C,11
11,test,1,0.0,2-Back,1.0,m,Tue Dec 30 2025 18:02:16 GMT-0600 (Central Standard Time),399209.5,146_o_m_n_a.png,I,m,890,14,3,1911.800000011921,397297.6999999881,8037,NNB,C,12
12,test,1,0.0,2-Back,1.0,m,Tue Dec 30 2025 18:02:16 GMT-0600 (Central Standard Time),401158.8000000119,030_o_f_n_a.png,I,m,918,15,3,1945.3999999761581,399213.40000003576,8037,NNB,C,13
13,test,1,1.0,2-Back,1.0,z,Tue Dec 30 2025 18:02:16 GMT-0600 (Central Standard Time),402758.60000002384,146_o_m_n_a.png,I,z,577,16,3,1594.300000011921,401164.3000000119,8037,NNB,C,14
14,test,1,0.0,2-Back,1.0,m,Tue Dec 30 2025 18:02:16 GMT-0600 (Central Standard Time),404491.0,093_m_f_n_a.png,I,m,705,17,3,1727.800000011921,402763.1999999881,8037,NNB,C,15
14,test,1,0.0,2-Back,0.0,m,Tue Dec 30 2025 18:02:16 GMT-0600 (Central Standard Time),406690.8000000119,082_m_m_n_a.png,I,z,1172,18,3,2195.0,404495.8000000119,8037,NNB,C,16
0,test,2,0.0,2-Back,,,Tue Dec 30 2025 18:02:16 GMT-0600 (Central Standard Time),406690.8000000119,082_m_m_n_a.png,I,space,1326,1,3,2195.0,404495.8000000119,8037,NNB,C,0
0,test,2,0.0,2-Back,,,Tue Dec 30 2025 18:02:16 GMT-0600 (Central Standard Time),406690.8000000119,028_y_f_n_a.png,I,space,1326,2,3,2195.0,404495.8000000119,8037,NNB,C,0
1,test,2,1.0,2-Back,1.0,z,Tue Dec 30 2025 18:02:16 GMT-0600 (Central Standard Time),414889.0,082_m_m_n_a.png,I,z,700,3,3,1729.3999999761581,413159.60000002384,8037,NNB,C,1
2,test,2,0.0,2-Back,1.0,m,Tue Dec 30 2025 18:02:16 GMT-0600 (Central Standard Time),416570.90000003576,093_m_f_n_a.png,I,m,663,4,3,1677.7000000476837,414893.1999999881,8037,NNB,C,2
3,test,2,0.0,2-Back,1.0,m,Tue Dec 30 2025 18:02:16 GMT-0600 (Central Standard Time),418286.8000000119,028_y_f_n_a.png,I,m,684,5,3,1709.8999999761581,416576.90000003576,8037,NNB,C,3
3,test,2,0.0,2-Back,0.0,m,Tue Dec 30 2025 18:02:16 GMT-0600 (Central Standard Time),420319.5,146_o_m_n_a.png,I,z,1009,6,3,2028.5999999642372,418290.90000003576,8037,NNB,C,4
4,test,2,0.0,2-Back,1.0,m,Tue Dec 30 2025 18:02:16 GMT-0600 (Central Standard Time),422268.90000003576,098_y_f_n_a.png,I,m,928,7,3,1944.0,420324.90000003576,8037,NNB,C,5
5,test,2,1.0,2-Back,1.0,z,Tue Dec 30 2025 18:02:16 GMT-0600 (Central Standard Time),423985.3000000119,146_o_m_n_a.png,I,z,691,8,3,1711.3999999761581,422273.90000003576,8037,NNB,C,6
6,test,2,0.0,2-Back,1.0,m,Tue Dec 30 2025 18:02:16 GMT-0600 (Central Standard Time),425801.5,031_y_m_n_a.png,I,m,783,9,3,1811.8999999761581,423989.60000002384,8037,NNB,C,7
7,test,2,0.0,2-Back,1.0,m,Tue Dec 30 2025 18:02:16 GMT-0600 (Central Standard Time),427567.3000000119,031_y_m_n_a.png,I,m,742,10,3,1761.3999999761581,425805.90000003576,8037,NNB,C,8
8,test,2,0.0,2-Back,1.0,m,Tue Dec 30 2025 18:02:16 GMT-0600 (Central Standard Time),429250.0,006_m_f_n_a.png,I,m,664,11,3,1678.0999999642372,427571.90000003576,8037,NNB,C,9
9,test,2,0.0,2-Back,1.0,m,Tue Dec 30 2025 18:02:16 GMT-0600 (Central Standard Time),430849.60000002384,028_y_f_n_a.png,I,m,573,12,3,1595.199999988079,429254.40000003576,8037,NNB,C,10
10,test,2,1.0,2-Back,1.0,z,Tue Dec 30 2025 18:02:16 GMT-0600 (Central Standard Time),432315.8000000119,006_m_f_n_a.png,I,z,446,13,3,1459.699999988079,430856.10000002384,8037,NNB,C,11
11,test,2,0.0,2-Back,1.0,m,Tue Dec 30 2025 18:02:16 GMT-0600 (Central Standard Time),433982.3000000119,059_o_m_n_a.png,I,m,636,14,3,1662.8999999761581,432319.40000003576,8037,NNB,C,12
12,test,2,0.0,2-Back,1.0,m,Tue Dec 30 2025 18:02:16 GMT-0600 (Central Standard Time),435514.90000003576,059_o_m_n_a.png,I,m,504,15,3,1528.800000011921,433986.10000002384,8037,NNB,C,13
13,test,2,0.0,2-Back,1.0,m,Tue Dec 30 2025 18:02:16 GMT-0600 (Central Standard Time),437331.0,030_o_f_n_a.png,I,m,788,16,3,1810.3999999761581,435520.60000002384,8037,NNB,C,14
14,test,2,0.0,2-Back,1.0,m,Tue Dec 30 2025 18:02:16 GMT-0600 (Central Standard Time),438964.0,092_m_m_n_a.png,I,m,604,17,3,1628.8999999761581,437335.10000002384,8037,NNB,C,15
15,test,2,1.0,2-Back,1.0,z,Tue Dec 30 2025 18:02:16 GMT-0600 (Central Standard Time),441013.0,030_o_f_n_a.png,I,z,1020,18,3,2045.0999999642372,438967.90000003576,8037,NNB,C,16
0,test,3,1.0,2-Back,,,Tue Dec 30 2025 18:02:16 GMT-0600 (Central Standard Time),441013.0,057_y_m_n_a.png,I,space,1394,1,3,2045.0999999642372,438967.90000003576,8037,NNB,C,0
0,test,3,1.0,2-Back,,,Tue Dec 30 2025 18:02:16 GMT-0600 (Central Standard Time),441013.0,057_y_m_n_a.png,I,space,1394,2,3,2045.0999999642372,438967.90000003576,8037,NNB,C,0
1,test,3,0.0,2-Back,1.0,m,Tue Dec 30 2025 18:02:16 GMT-0600 (Central Standard Time),449193.5,030_o_f_n_a.png,I,m,649,3,3,1660.300000011921,447533.1999999881,8037,NNB,C,1
2,test,3,0.0,2-Back,1.0,m,Tue Dec 30 2025 18:02:16 GMT-0600 (Central Standard Time),450743.60000002384,082_m_m_n_a.png,I,m,527,4,3,1545.1000000238419,449198.5,8037,NNB,C,2
3,test,3,1.0,2-Back,1.0,z,Tue Dec 30 2025 18:02:16 GMT-0600 (Central Standard Time),452293.1999999881,030_o_f_n_a.png,I,z,519,5,3,1545.0,450748.1999999881,8037,NNB,C,3
4,test,3,0.0,2-Back,1.0,m,Tue Dec 30 2025 18:02:16 GMT-0600 (Central Standard Time),454042.0,031_y_m_n_a.png,I,m,736,6,3,1744.699999988079,452297.3000000119,8037,NNB,C,4
4,test,3,0.0,2-Back,0.0,m,Tue Dec 30 2025 18:02:16 GMT-0600 (Central Standard Time),455775.0,082_m_m_n_a.png,I,z,701,7,3,1729.300000011921,454045.6999999881,8037,NNB,C,5
5,test,3,1.0,2-Back,1.0,z,Tue Dec 30 2025 18:02:16 GMT-0600 (Central Standard Time),457441.10000002384,031_y_m_n_a.png,I,z,648,8,3,1662.0,455779.10000002384,8037,NNB,C,6
6,test,3,0.0,2-Back,1.0,m,Tue Dec 30 2025 18:02:16 GMT-0600 (Central Standard Time),459224.0,028_y_f_n_a.png,I,m,758,9,3,1779.0999999642372,457444.90000003576,8037,NNB,C,7
7,test,3,0.0,2-Back,1.0,m,Tue Dec 30 2025 18:02:16 GMT-0600 (Central Standard Time),460990.1999999881,092_m_m_n_a.png,I,m,735,10,3,1762.7999999523163,459227.40000003576,8037,NNB,C,8
7,test,3,1.0,2-Back,0.0,z,Tue Dec 30 2025 18:02:16 GMT-0600 (Central Standard Time),462639.8000000119,028_y_f_n_a.png,I,m,625,11,3,1645.8999999761581,460993.90000003576,8037,NNB,C,9
8,test,3,1.0,2-Back,1.0,z,Tue Dec 30 2025 18:02:16 GMT-0600 (Central Standard Time),464172.3000000119,092_m_m_n_a.png,I,z,504,12,3,1528.8999999761581,462643.40000003576,8037,NNB,C,10
9,test,3,0.0,2-Back,1.0,m,Tue Dec 30 2025 18:02:16 GMT-0600 (Central Standard Time),465805.40000003576,030_o_f_n_a.png,I,m,611,13,3,1627.800000011921,464177.60000002384,8037,NNB,C,11
10,test,3,0.0,2-Back,1.0,m,Tue Dec 30 2025 18:02:16 GMT-0600 (Central Standard Time),467471.60000002384,093_m_f_n_a.png,I,m,634,14,3,1661.800000011921,465809.8000000119,8037,NNB,C,12
11,test,3,0.0,2-Back,1.0,m,Tue Dec 30 2025 18:02:16 GMT-0600 (Central Standard Time),469171.10000002384,146_o_m_n_a.png,I,m,680,15,3,1695.800000011921,467475.3000000119,8037,NNB,C,13
12,test,3,1.0,2-Back,1.0,z,Tue Dec 30 2025 18:02:16 GMT-0600 (Central Standard Time),470903.90000003576,093_m_f_n_a.png,I,z,700,16,3,1728.300000011921,469175.60000002384,8037,NNB,C,14
13,test,3,0.0,2-Back,1.0,m,Tue Dec 30 2025 18:02:16 GMT-0600 (Central Standard Time),472803.10000002384,130_o_f_n_a.png,I,m,879,17,3,1894.9000000357628,470908.1999999881,8037,NNB,C,15
14,test,3,0.0,2-Back,1.0,m,Tue Dec 30 2025 18:02:16 GMT-0600 (Central Standard Time),474619.1999999881,130_o_f_n_a.png,I,m,788,18,3,1811.8999999761581,472807.3000000119,8037,NNB,C,16
0,test,4,0.0,2-Back,,,Tue Dec 30 2025 18:02:16 GMT-0600 (Central Standard Time),474619.1999999881,059_o_m_n_a.png,I,space,1148,1,3,1811.8999999761581,472807.3000000119,8037,NNB,C,0
0,test,4,0.0,2-Back,,,Tue Dec 30 2025 18:02:16 GMT-0600 (Central Standard Time),474619.1999999881,098_y_f_n_a.png,I,space,1148,2,3,1811.8999999761581,472807.3000000119,8037,NNB,C,0
1,test,4,1.0,2-Back,1.0,z,Tue Dec 30 2025 18:02:16 GMT-0600 (Central Standard Time),482833.10000002384,059_o_m_n_a.png,I,z,832,3,3,1844.699999988079,480988.40000003576,8037,NNB,C,1
2,test,4,1.0,2-Back,1.0,z,Tue Dec 30 2025 18:02:16 GMT-0600 (Central Standard Time),484482.90000003576,098_y_f_n_a.png,I,z,630,4,3,1643.800000011921,482839.10000002384,8037,NNB,C,2
3,test,4,0.0,2-Back,1.0,m,Tue Dec 30 2025 18:02:16 GMT-0600 (Central Standard Time),486149.10000002384,030_o_f_n_a.png,I,m,637,5,3,1661.9000000357628,484487.1999999881,8037,NNB,C,3
4,test,4,0.0,2-Back,1.0,m,Tue Dec 30 2025 18:02:16 GMT-0600 (Central Standard Time),487848.40000003576,030_o_f_n_a.png,I,m,674,6,3,1694.4000000357628,486154.0,8037,NNB,C,4
5,test,4,0.0,2-Back,1.0,m,Tue Dec 30 2025 18:02:16 GMT-0600 (Central Standard Time),489614.6999999881,006_m_f_n_a.png,I,m,735,7,3,1762.199999988079,487852.5,8037,NNB,C,5
6,test,4,0.0,2-Back,1.0,m,Tue Dec 30 2025 18:02:16 GMT-0600 (Central Standard Time),491247.3000000119,031_y_m_n_a.png,I,m,601,8,3,1627.300000011921,489620.0,8037,NNB,C,6
7,test,4,1.0,2-Back,1.0,z,Tue Dec 30 2025 18:02:16 GMT-0600 (Central Standard Time),492946.8000000119,006_m_f_n_a.png,I,z,673,9,3,1695.1000000238419,491251.6999999881,8037,NNB,C,7
8,test,4,0.0,2-Back,1.0,m,Tue Dec 30 2025 18:02:16 GMT-0600 (Central Standard Time),494512.8000000119,092_m_m_n_a.png,I,m,550,10,3,1562.0,492950.8000000119,8037,NNB,C,8
8,test,4,0.0,2-Back,0.0,m,Tue Dec 30 2025 18:02:16 GMT-0600 (Central Standard Time),496545.60000002384,031_y_m_n_a.png,I,z,1014,11,3,2028.800000011921,494516.8000000119,8037,NNB,C,9
9,test,4,0.0,2-Back,1.0,m,Tue Dec 30 2025 18:02:16 GMT-0600 (Central Standard Time),498561.5,130_o_f_n_a.png,I,m,999,12,3,2011.5,496550.0,8037,NNB,C,10
10,test,4,0.0,2-Back,1.0,m,Tue Dec 30 2025 18:02:16 GMT-0600 (Central Standard Time),500437.6999999881,057_y_m_n_a.png,I,m,859,13,3,1872.3999999761581,498565.3000000119,8037,NNB,C,11
11,test,4,1.0,2-Back,1.0,z,Tue Dec 30 2025 18:02:16 GMT-0600 (Central Standard Time),502177.3000000119,130_o_f_n_a.png,I,z,724,14,3,1735.3999999761581,500441.90000003576,8037,NNB,C,12
12,test,4,1.0,2-Back,1.0,z,Tue Dec 30 2025 18:02:16 GMT-0600 (Central Standard Time),503993.60000002384,057_y_m_n_a.png,I,z,790,15,3,1810.699999988079,502182.90000003576,8037,NNB,C,13
13,test,4,0.0,2-Back,1.0,m,Tue Dec 30 2025 18:02:16 GMT-0600 (Central Standard Time),505692.60000002384,082_m_m_n_a.png,I,m,678,16,3,1694.4000000357628,503998.1999999881,8037,NNB,C,14
14,test,4,0.0,2-Back,1.0,m,Tue Dec 30 2025 18:02:16 GMT-0600 (Central Standard Time),507358.90000003576,093_m_f_n_a.png,I,m,633,17,3,1662.7000000476837,505696.1999999881,8037,NNB,C,15
15,test,4,1.0,2-Back,1.0,z,Tue Dec 30 2025 18:02:16 GMT-0600 (Central Standard Time),509008.5,082_m_m_n_a.png,I,z,616,18,3,1645.300000011921,507363.1999999881,8037,NNB,C,16
0,test,5,1.0,2-Back,,,Tue Dec 30 2025 18:02:16 GMT-0600 (Central Standard Time),509008.5,057_y_m_n_a.png,I,space,2175,1,3,1645.300000011921,507363.1999999881,8037,NNB,C,0
0,test,5,1.0,2-Back,,,Tue Dec 30 2025 18:02:16 GMT-0600 (Central Standard Time),509008.5,093_m_f_n_a.png,I,space,2175,2,3,1645.300000011921,507363.1999999881,8037,NNB,C,0
1,test,5,1.0,2-Back,1.0,z,Tue Dec 30 2025 18:02:16 GMT-0600 (Central Standard Time),517922.1999999881,057_y_m_n_a.png,I,z,656,3,3,1677.0,516245.1999999881,8037,NNB,C,1
2,test,5,1.0,2-Back,1.0,z,Tue Dec 30 2025 18:02:16 GMT-0600 (Central Standard Time),519955.0,093_m_f_n_a.png,I,z,1005,4,3,2027.300000011921,517927.6999999881,8037,NNB,C,2
3,test,5,0.0,2-Back,1.0,m,Tue Dec 30 2025 18:02:16 GMT-0600 (Central Standard Time),521754.40000003576,130_o_f_n_a.png,I,m,780,5,3,1794.800000011921,519959.60000002384,8037,NNB,C,3
3,test,5,0.0,2-Back,0.0,m,Tue Dec 30 2025 18:02:16 GMT-0600 (Central Standard Time),523620.60000002384,057_y_m_n_a.png,I,z,837,6,3,1861.6000000238419,521759.0,8037,NNB,C,4
4,test,5,0.0,2-Back,1.0,m,Tue Dec 30 2025 18:02:16 GMT-0600 (Central Standard Time),525353.5,028_y_f_n_a.png,I,m,708,7,3,1728.5,523625.0,8037,NNB,C,5
5,test,5,0.0,2-Back,1.0,m,Tue Dec 30 2025 18:02:16 GMT-0600 (Central Standard Time),527053.0,130_o_f_n_a.png,I,m,670,8,3,1694.5,525358.5,8037,NNB,C,6
6,test,5,1.0,2-Back,1.0,z,Tue Dec 30 2025 18:02:16 GMT-0600 (Central Standard Time),528952.3000000119,028_y_f_n_a.png,I,z,867,9,3,1895.1000000238419,527057.1999999881,8037,NNB,C,7
7,test,5,0.0,2-Back,1.0,m,Tue Dec 30 2025 18:02:16 GMT-0600 (Central Standard Time),530834.9000000358,146_o_m_n_a.png,I,m,863,10,3,1878.4000000357628,528956.5,8037,NNB,C,8
8,test,5,0.0,2-Back,1.0,m,Tue Dec 30 2025 18:02:16 GMT-0600 (Central Standard Time),533000.6000000238,006_m_f_n_a.png,I,m,1149,11,3,2160.5,530840.1000000238,8037,NNB,C,9
9,test,5,0.0,2-Back,1.0,m,Tue Dec 30 2025 18:02:16 GMT-0600 (Central Standard Time),534950.3000000119,092_m_m_n_a.png,I,m,918,12,3,1946.199999988079,533004.1000000238,8037,NNB,C,10
10,test,5,0.0,2-Back,1.0,m,Tue Dec 30 2025 18:02:16 GMT-0600 (Central Standard Time),536533.3000000119,146_o_m_n_a.png,I,m,553,13,3,1579.199999988079,534954.1000000238,8037,NNB,C,11
11,test,5,1.0,2-Back,1.0,z,Tue Dec 30 2025 18:02:16 GMT-0600 (Central Standard Time),538182.8000000119,092_m_m_n_a.png,I,z,627,14,3,1645.0,536537.8000000119,8037,NNB,C,12
12,test,5,0.0,2-Back,1.0,m,Tue Dec 30 2025 18:02:16 GMT-0600 (Central Standard Time),539932.3000000119,098_y_f_n_a.png,I,m,729,15,3,1745.3999999761581,538186.9000000358,8037,NNB,C,13
13,test,5,0.0,2-Back,1.0,m,Tue Dec 30 2025 18:02:16 GMT-0600 (Central Standard Time),541749.3000000119,059_o_m_n_a.png,I,m,795,16,3,1812.6000000238419,539936.6999999881,8037,NNB,C,14
14,test,5,0.0,2-Back,1.0,m,Tue Dec 30 2025 18:02:16 GMT-0600 (Central Standard Time),543797.4000000358,006_m_f_n_a.png,I,m,1027,17,3,2043.5,541753.9000000358,8037,NNB,C,15
15,test,5,1.0,2-Back,1.0,z,Tue Dec 30 2025 18:02:16 GMT-0600 (Central Standard Time),545580.4000000358,059_o_m_n_a.png,I,z,763,18,3,1776.7000000476837,543803.6999999881,8037,NNB,C,16
