block_c,block_dur,condition,countdown,datetime,endtime,list,multichar_response,project,response,response_time,session_number,start_end,starttime,subject_id,task,task_vers,trial
,,,,Thu Jun 11 2026 14:29:52 GMT-0500 (Central Daylight Time),,,,I,space,457,2,,,8062,WL,A,
prac,,0,,Thu Jun 11 2026 14:29:52 GMT-0500 (Central Daylight Time),,NA,b,I,b,6360,2,,,8062,WL,A,1.0
prac,,0,,Thu Jun 11 2026 14:29:52 GMT-0500 (Central Daylight Time),,NA,bo,I,o,181,2,,,8062,WL,A,1.0
prac,,0,,Thu Jun 11 2026 14:29:52 GMT-0500 (Central Daylight Time),,NA,boo,I,o,166,2,,,8062,WL,A,1.0
prac,,0,,Thu Jun 11 2026 14:29:52 GMT-0500 (Central Daylight Time),,NA,boos,I,s,110,2,,,8062,WL,A,1.0
prac,,0,,Thu Jun 11 2026 14:29:52 GMT-0500 (Central Daylight Time),,NA,boost,I,t,217,2,,,8062,WL,A,1.0
prac,,0,,Thu Jun 11 2026 14:29:52 GMT-0500 (Central Daylight Time),,NA,boostenter,I,enter,304,2,,,8062,WL,A,1.0
1,1.4499998092651367,learn,58550.00019073486,Thu Jun 11 2026 14:29:52 GMT-0500 (Central Daylight Time),134161.29999995232,A,s,I,s,1427,2,1449.4000000953674,132711.89999985695,8062,WL,A,1.0
1,1.6499998569488525,learn,58350.00014305115,Thu Jun 11 2026 14:29:52 GMT-0500 (Central Daylight Time),134360.89999985695,A,sa,I,a,184,2,1649.0,132711.89999985695,8062,WL,A,1.0
1,1.8329999446868896,learn,58167.00005531311,Thu Jun 11 2026 14:29:52 GMT-0500 (Central Daylight Time),134544.20000004768,A,sal,I,l,161,2,1832.3000001907349,132711.89999985695,8062,WL,A,1.0
1,2.3329999446868896,learn,57667.00005531311,Thu Jun 11 2026 14:29:52 GMT-0500 (Central Daylight Time),135044.20000004768,A,salt,I,t,490,2,2332.300000190735,132711.89999985695,8062,WL,A,1.0
1,2.6659998893737793,learn,57334.00011062622,Thu Jun 11 2026 14:29:52 GMT-0500 (Central Daylight Time),135377.09999990463,A,saltenter,I,enter,326,2,2665.2000000476837,132711.89999985695,8062,WL,A,1.0
1,3.298999786376953,learn,56701.00021362305,Thu Jun 11 2026 14:29:52 GMT-0500 (Central Daylight Time),136010.5,A,f,I,f,617,2,633.1000001430511,135377.39999985695,8062,WL,A,2.0
1,3.3989999294281006,learn,56601.0000705719,Thu Jun 11 2026 14:29:52 GMT-0500 (Central Daylight Time),136110.20000004768,A,fi,I,i,88,2,732.8000001907349,135377.39999985695,8062,WL,A,2.0
1,3.6499998569488525,learn,56350.00014305115,Thu Jun 11 2026 14:29:52 GMT-0500 (Central Daylight Time),136361.0,A,fin,I,n,236,2,983.6000001430511,135377.39999985695,8062,WL,A,2.0
1,3.748999834060669,learn,56251.00016593933,Thu Jun 11 2026 14:29:52 GMT-0500 (Central Daylight Time),136460.39999985695,A,fing,I,g,90,2,1083.0,135377.39999985695,8062,WL,A,2.0
1,3.9659998416900635,learn,56034.00015830994,Thu Jun 11 2026 14:29:52 GMT-0500 (Central Daylight Time),136677.0,A,finge,I,e,206,2,1299.6000001430511,135377.39999985695,8062,WL,A,2.0
1,4.115999937057495,learn,55884.000062942505,Thu Jun 11 2026 14:29:52 GMT-0500 (Central Daylight Time),136826.89999985695,A,finger,I,r,133,2,1449.5,135377.39999985695,8062,WL,A,2.0
1,4.448999881744385,learn,55551.000118255615,Thu Jun 11 2026 14:29:52 GMT-0500 (Central Daylight Time),137160.0,A,fingerenter,I,enter,319,2,1782.6000001430511,135377.39999985695,8062,WL,A,2.0
1,6.664999961853027,learn,53335.00003814697,Thu Jun 11 2026 14:29:52 GMT-0500 (Central Daylight Time),139376.09999990463,A,b,I,b,2194,2,2215.5999999046326,137160.5,8062,WL,A,3.0
1,6.830999851226807,learn,53169.00014877319,Thu Jun 11 2026 14:29:52 GMT-0500 (Central Daylight Time),139542.70000004768,A,bo,I,o,147,2,2382.2000000476837,137160.5,8062,WL,A,3.0
1,6.997999906539917,learn,53002.00009346008,Thu Jun 11 2026 14:29:52 GMT-0500 (Central Daylight Time),139709.20000004768,A,boo,I,o,148,2,2548.7000000476837,137160.5,8062,WL,A,3.0
1,7.297999858856201,learn,52702.0001411438,Thu Jun 11 2026 14:29:52 GMT-0500 (Central Daylight Time),140009.39999985695,A,book,I,k,285,2,2848.899999856949,137160.5,8062,WL,A,3.0
1,7.664999961853027,learn,52335.00003814697,Thu Jun 11 2026 14:29:52 GMT-0500 (Central Daylight Time),140375.89999985695,A,bookenter,I,enter,345,2,3215.399999856949,137160.5,8062,WL,A,3.0
1,9.196999788284302,learn,50803.0002117157,Thu Jun 11 2026 14:29:52 GMT-0500 (Central Daylight Time),141908.70000004768,A,f,I,f,1514,2,1532.3000001907349,140376.39999985695,8062,WL,A,4.0
1,9.346999883651733,learn,50653.00011634827,Thu Jun 11 2026 14:29:52 GMT-0500 (Central Daylight Time),142058.5,A,fl,I,l,142,2,1682.1000001430511,140376.39999985695,8062,WL,A,4.0
1,9.563999891281128,learn,50436.00010871887,Thu Jun 11 2026 14:29:52 GMT-0500 (Central Daylight Time),142275.29999995232,A,flo,I,o,208,2,1898.9000000953674,140376.39999985695,8062,WL,A,4.0
1,9.696999788284302,learn,50303.0002117157,Thu Jun 11 2026 14:29:52 GMT-0500 (Central Daylight Time),142408.59999990463,A,flow,I,w,119,2,2032.2000000476837,140376.39999985695,8062,WL,A,4.0
1,9.813999891281128,learn,50186.00010871887,Thu Jun 11 2026 14:29:52 GMT-0500 (Central Daylight Time),142524.89999985695,A,flowe,I,e,99,2,2148.5,140376.39999985695,8062,WL,A,4.0
1,9.979999780654907,learn,50020.00021934509,Thu Jun 11 2026 14:29:52 GMT-0500 (Central Daylight Time),142691.39999985695,A,flower,I,r,150,2,2315.0,140376.39999985695,8062,WL,A,4.0
1,10.329999923706055,learn,49670.000076293945,Thu Jun 11 2026 14:29:52 GMT-0500 (Central Daylight Time),143041.59999990463,A,flowerenter,I,enter,336,2,2665.2000000476837,140376.39999985695,8062,WL,A,4.0
1,11.946999788284302,learn,48053.0002117157,Thu Jun 11 2026 14:29:52 GMT-0500 (Central Daylight Time),144657.89999985695,A,m,I,m,1601,2,1615.7999999523163,143042.09999990463,8062,WL,A,5.0
1,12.096999883651733,learn,47903.00011634827,Thu Jun 11 2026 14:29:52 GMT-0500 (Central Daylight Time),144807.70000004768,A,me,I,e,129,2,1765.6000001430511,143042.09999990463,8062,WL,A,5.0
1,12.245999813079834,learn,47754.000186920166,Thu Jun 11 2026 14:29:52 GMT-0500 (Central Daylight Time),144957.70000004768,A,mea,I,a,139,2,1915.6000001430511,143042.09999990463,8062,WL,A,5.0
1,12.52999997138977,learn,47470.00002861023,Thu Jun 11 2026 14:29:52 GMT-0500 (Central Daylight Time),145240.89999985695,A,mead,I,d,269,2,2198.7999999523163,143042.09999990463,8062,WL,A,5.0
1,12.77899980545044,learn,47221.00019454956,Thu Jun 11 2026 14:29:52 GMT-0500 (Central Daylight Time),145490.70000004768,A,meado,I,o,234,2,2448.600000143051,143042.09999990463,8062,WL,A,5.0
1,12.912999868392944,learn,47087.000131607056,Thu Jun 11 2026 14:29:52 GMT-0500 (Central Daylight Time),145623.89999985695,A,meadow,I,w,128,2,2581.7999999523163,143042.09999990463,8062,WL,A,5.0
1,13.212999820709229,learn,46787.00017929077,Thu Jun 11 2026 14:29:52 GMT-0500 (Central Daylight Time),145924.0,A,meadowenter,I,enter,283,2,2881.9000000953674,143042.09999990463,8062,WL,A,5.0
1,16.51199984550476,learn,43488.00015449524,Thu Jun 11 2026 14:29:52 GMT-0500 (Central Daylight Time),149223.09999990463,A,c,I,c,3287,2,3298.7000000476837,145924.39999985695,8062,WL,A,6.0
1,16.67799997329712,learn,43322.00002670288,Thu Jun 11 2026 14:29:52 GMT-0500 (Central Daylight Time),149389.5,A,ch,I,h,148,2,3465.100000143051,145924.39999985695,8062,WL,A,6.0
1,16.777999877929688,learn,43222.00012207031,Thu Jun 11 2026 14:29:52 GMT-0500 (Central Daylight Time),149489.20000004768,A,chi,I,i,92,2,3564.800000190735,145924.39999985695,8062,WL,A,6.0
1,17.42799997329712,learn,42572.00002670288,Thu Jun 11 2026 14:29:52 GMT-0500 (Central Daylight Time),150139.39999985695,A,chim,I,m,640,2,4215.0,145924.39999985695,8062,WL,A,6.0
1,17.960999965667725,learn,42039.000034332275,Thu Jun 11 2026 14:29:52 GMT-0500 (Central Daylight Time),150672.5,A,chimn,I,n,513,2,4748.100000143051,145924.39999985695,8062,WL,A,6.0
1,18.127999782562256,learn,41872.000217437744,Thu Jun 11 2026 14:29:52 GMT-0500 (Central Daylight Time),150839.20000004768,A,chimne,I,e,145,2,4914.800000190735,145924.39999985695,8062,WL,A,6.0
1,18.293999910354614,learn,41706.000089645386,Thu Jun 11 2026 14:29:52 GMT-0500 (Central Daylight Time),151005.59999990463,A,chimney,I,y,155,2,5081.200000047684,145924.39999985695,8062,WL,A,6.0
1,18.66099977493286,learn,41339.00022506714,Thu Jun 11 2026 14:29:52 GMT-0500 (Central Daylight Time),151372.29999995232,A,chimneyenter,I,enter,350,2,5447.900000095367,145924.39999985695,8062,WL,A,6.0
1,22.676999807357788,learn,37323.00019264221,Thu Jun 11 2026 14:29:52 GMT-0500 (Central Daylight Time),155387.79999995232,A,r,I,r,4007,2,4015.0,151372.79999995232,8062,WL,A,7.0
1,22.776999950408936,learn,37223.000049591064,Thu Jun 11 2026 14:29:52 GMT-0500 (Central Daylight Time),155487.79999995232,A,ri,I,i,87,2,4115.0,151372.79999995232,8062,WL,A,7.0
1,22.97599983215332,learn,37024.00016784668,Thu Jun 11 2026 14:29:52 GMT-0500 (Central Daylight Time),155687.70000004768,A,rin,I,n,179,2,4314.900000095367,151372.79999995232,8062,WL,A,7.0
1,23.109999895095825,learn,36890.000104904175,Thu Jun 11 2026 14:29:52 GMT-0500 (Central Daylight Time),155820.89999985695,A,ring,I,g,124,2,4448.099999904633,151372.79999995232,8062,WL,A,7.0
1,23.259999990463257,learn,36740.00000953674,Thu Jun 11 2026 14:29:52 GMT-0500 (Central Daylight Time),155970.79999995232,A,ringenter,I,enter,135,2,4598.0,151372.79999995232,8062,WL,A,7.0
1,27.757999897003174,learn,32242.000102996826,Thu Jun 11 2026 14:29:52 GMT-0500 (Central Daylight Time),160469.59999990463,A,t,I,t,4480,2,4498.399999856949,155971.20000004768,8062,WL,A,8.0
1,27.991999864578247,learn,32008.000135421753,Thu Jun 11 2026 14:29:52 GMT-0500 (Central Daylight Time),160702.89999985695,A,tr,I,r,213,2,4731.699999809265,155971.20000004768,8062,WL,A,8.0
1,28.074999809265137,learn,31925.000190734863,Thu Jun 11 2026 14:29:52 GMT-0500 (Central Daylight Time),160786.20000004768,A,tra,I,a,68,2,4815.0,155971.20000004768,8062,WL,A,8.0
1,28.20799994468689,learn,31792.00005531311,Thu Jun 11 2026 14:29:52 GMT-0500 (Central Daylight Time),160919.39999985695,A,trai,I,i,121,2,4948.199999809265,155971.20000004768,8062,WL,A,8.0
1,28.390999794006348,learn,31609.000205993652,Thu Jun 11 2026 14:29:52 GMT-0500 (Central Daylight Time),161102.29999995232,A,train,I,n,171,2,5131.099999904633,155971.20000004768,8062,WL,A,8.0
1,28.590999841690063,learn,31409.000158309937,Thu Jun 11 2026 14:29:52 GMT-0500 (Central Daylight Time),161302.70000004768,A,trainenter,I,enter,189,2,5331.5,155971.20000004768,8062,WL,A,8.0
1,60.014999866485596,learn,-14.999866485595703,Thu Jun 11 2026 14:29:52 GMT-0500 (Central Daylight Time),192726.09999990463,A,None,I,None,31418,2,31423.0,161303.09999990463,8062,WL,A,9.0
2,0.9830000400543213,learn,59016.99995994568,Thu Jun 11 2026 14:29:52 GMT-0500 (Central Daylight Time),259655.0,A,l,I,l,964,2,982.7000000476837,258672.29999995232,8062,WL,A,1.0
2,1.2330000400543213,learn,58766.99995994568,Thu Jun 11 2026 14:29:52 GMT-0500 (Central Daylight Time),259904.89999985695,A,lo,I,o,244,2,1232.5999999046326,258672.29999995232,8062,WL,A,1.0
2,1.4830000400543213,learn,58516.99995994568,Thu Jun 11 2026 14:29:52 GMT-0500 (Central Daylight Time),260154.89999985695,A,log,I,g,234,2,1482.5999999046326,258672.29999995232,8062,WL,A,1.0
2,1.815999984741211,learn,58184.00001525879,Thu Jun 11 2026 14:29:52 GMT-0500 (Central Daylight Time),260488.29999995232,A,logenter,I,enter,313,2,1816.0,258672.29999995232,8062,WL,A,1.0
2,2.183000087738037,learn,57816.99991226196,Thu Jun 11 2026 14:29:52 GMT-0500 (Central Daylight Time),260854.59999990463,A,k,I,k,355,2,366.0,260488.59999990463,8062,WL,A,2.0
2,2.4160001277923584,learn,57583.99987220764,Thu Jun 11 2026 14:29:52 GMT-0500 (Central Daylight Time),261088.09999990463,A,ke,I,e,213,2,599.5,260488.59999990463,8062,WL,A,2.0
2,2.7170000076293945,learn,57282.999992370605,Thu Jun 11 2026 14:29:52 GMT-0500 (Central Daylight Time),261388.5,A,key,I,y,289,2,899.9000000953674,260488.59999990463,8062,WL,A,2.0
2,3.0329999923706055,learn,56967.000007629395,Thu Jun 11 2026 14:29:52 GMT-0500 (Central Daylight Time),261704.39999985695,A,keyenter,I,enter,303,2,1215.7999999523163,260488.59999990463,8062,WL,A,2.0
2,3.4660000801086426,learn,56533.99991989136,Thu Jun 11 2026 14:29:52 GMT-0500 (Central Daylight Time),262137.59999990463,A,r,I,r,426,2,432.7999999523163,261704.79999995232,8062,WL,A,3.0
2,3.632000207901001,learn,56367.999792099,Thu Jun 11 2026 14:29:52 GMT-0500 (Central Daylight Time),262304.2000000477,A,ra,I,a,145,2,599.4000000953674,261704.79999995232,8062,WL,A,3.0
2,3.7660000324249268,learn,56233.99996757507,Thu Jun 11 2026 14:29:52 GMT-0500 (Central Daylight Time),262437.5,A,rat,I,t,123,2,732.7000000476837,261704.79999995232,8062,WL,A,3.0
2,3.9660000801086426,learn,56033.99991989136,Thu Jun 11 2026 14:29:52 GMT-0500 (Central Daylight Time),262637.7000000477,A,rate,I,e,189,2,932.9000000953674,261704.79999995232,8062,WL,A,3.0
2,4.582000017166138,learn,55417.99998283386,Thu Jun 11 2026 14:29:52 GMT-0500 (Central Daylight Time),263253.7999999523,A,rat,I,backspace,598,2,1549.0,261704.79999995232,8062,WL,A,3.0
2,5.215000152587891,learn,54784.99984741211,Thu Jun 11 2026 14:29:52 GMT-0500 (Central Daylight Time),263887.0,A,ratt,I,t,622,2,2182.2000000476837,261704.79999995232,8062,WL,A,3.0
2,5.499000072479248,learn,54500.99992752075,Thu Jun 11 2026 14:29:52 GMT-0500 (Central Daylight Time),264170.5,A,rattl,I,l,268,2,2465.7000000476837,261704.79999995232,8062,WL,A,3.0
2,5.648000001907349,learn,54351.99999809265,Thu Jun 11 2026 14:29:52 GMT-0500 (Central Daylight Time),264320.2000000477,A,rattle,I,e,129,2,2615.4000000953674,261704.79999995232,8062,WL,A,3.0
2,5.865000009536743,learn,54134.99999046326,Thu Jun 11 2026 14:29:52 GMT-0500 (Central Daylight Time),264536.5,A,rattleenter,I,enter,211,2,2831.7000000476837,261704.79999995232,8062,WL,A,3.0
2,6.248000144958496,learn,53751.999855041504,Thu Jun 11 2026 14:29:52 GMT-0500 (Central Daylight Time),264920.0,A,g,I,g,363,2,383.2000000476837,264536.7999999523,8062,WL,A,4.0
2,6.38100004196167,learn,53618.99995803833,Thu Jun 11 2026 14:29:52 GMT-0500 (Central Daylight Time),265053.2000000477,A,go,I,o,115,2,516.4000000953674,264536.7999999523,8062,WL,A,4.0
2,6.5980000495910645,learn,53401.999950408936,Thu Jun 11 2026 14:29:52 GMT-0500 (Central Daylight Time),265270.09999990463,A,gol,I,l,205,2,733.2999999523163,264536.7999999523,8062,WL,A,4.0
2,6.814000129699707,learn,53185.99987030029,Thu Jun 11 2026 14:29:52 GMT-0500 (Central Daylight Time),265486.09999990463,A,gold,I,d,204,2,949.2999999523163,264536.7999999523,8062,WL,A,4.0
2,7.031000137329102,learn,52968.9998626709,Thu Jun 11 2026 14:29:52 GMT-0500 (Central Daylight Time),265702.7000000477,A,goldenter,I,enter,202,2,1165.9000000953674,264536.7999999523,8062,WL,A,4.0
2,9.397000074386597,learn,50602.9999256134,Thu Jun 11 2026 14:29:52 GMT-0500 (Central Daylight Time),268068.89999985695,A,f,I,f,2347,2,2365.899999856949,265703.0,8062,WL,A,5.0
2,9.514000177383423,learn,50485.99982261658,Thu Jun 11 2026 14:29:52 GMT-0500 (Central Daylight Time),268185.39999985695,A,fi,I,i,110,2,2482.399999856949,265703.0,8062,WL,A,5.0
2,9.71399998664856,learn,50286.00001335144,Thu Jun 11 2026 14:29:52 GMT-0500 (Central Daylight Time),268385.39999985695,A,fin,I,n,193,2,2682.399999856949,265703.0,8062,WL,A,5.0
2,9.847000122070312,learn,50152.99987792969,Thu Jun 11 2026 14:29:52 GMT-0500 (Central Daylight Time),268518.7999999523,A,fing,I,g,121,2,2815.7999999523163,265703.0,8062,WL,A,5.0
2,10.163000106811523,learn,49836.99989318848,Thu Jun 11 2026 14:29:52 GMT-0500 (Central Daylight Time),268835.2000000477,A,finge,I,e,300,2,3132.2000000476837,265703.0,8062,WL,A,5.0
2,10.246999979019165,learn,49753.000020980835,Thu Jun 11 2026 14:29:52 GMT-0500 (Central Daylight Time),268918.39999985695,A,finger,I,r,70,2,3215.399999856949,265703.0,8062,WL,A,5.0
2,10.563000202178955,learn,49436.999797821045,Thu Jun 11 2026 14:29:52 GMT-0500 (Central Daylight Time),269234.89999985695,A,fingerenter,I,enter,307,2,3531.899999856949,265703.0,8062,WL,A,5.0
2,10.980000019073486,learn,49019.999980926514,Thu Jun 11 2026 14:29:52 GMT-0500 (Central Daylight Time),269651.59999990463,A,s,I,s,408,2,416.39999985694885,269235.2000000477,8062,WL,A,6.0
2,11.11300015449524,learn,48886.99984550476,Thu Jun 11 2026 14:29:52 GMT-0500 (Central Daylight Time),269784.7999999523,A,sa,I,a,127,2,549.5999999046326,269235.2000000477,8062,WL,A,6.0
2,11.297000169754028,learn,48702.99983024597,Thu Jun 11 2026 14:29:52 GMT-0500 (Central Daylight Time),269968.39999985695,A,sal,I,l,171,2,733.1999998092651,269235.2000000477,8062,WL,A,6.0
2,11.531000137329102,learn,48468.9998626709,Thu Jun 11 2026 14:29:52 GMT-0500 (Central Daylight Time),270202.5,A,salt,I,t,227,2,967.2999999523163,269235.2000000477,8062,WL,A,6.0
2,11.830000162124634,learn,48169.999837875366,Thu Jun 11 2026 14:29:52 GMT-0500 (Central Daylight Time),270501.7000000477,A,saltenter,I,enter,289,2,1266.5,269235.2000000477,8062,WL,A,6.0
2,16.24500012397766,learn,43754.99987602234,Thu Jun 11 2026 14:29:52 GMT-0500 (Central Daylight Time),274916.7999999523,A,b,I,b,4396,2,4414.700000047684,270502.09999990463,8062,WL,A,7.0
2,16.545000076293945,learn,43454.999923706055,Thu Jun 11 2026 14:29:52 GMT-0500 (Central Daylight Time),275216.7000000477,A,bo,I,o,278,2,4714.600000143051,270502.09999990463,8062,WL,A,7.0
2,16.811000108718872,learn,43188.99989128113,Thu Jun 11 2026 14:29:52 GMT-0500 (Central Daylight Time),275483.09999990463,A,boo,I,o,250,2,4981.0,270502.09999990463,8062,WL,A,7.0
2,16.961000204086304,learn,43038.999795913696,Thu Jun 11 2026 14:29:52 GMT-0500 (Central Daylight Time),275633.0,A,book,I,k,142,2,5130.900000095367,270502.09999990463,8062,WL,A,7.0
2,17.24500012397766,learn,42754.99987602234,Thu Jun 11 2026 14:29:52 GMT-0500 (Central Daylight Time),275917.09999990463,A,bookenter,I,enter,265,2,5415.0,270502.09999990463,8062,WL,A,7.0
2,17.644999980926514,learn,42355.000019073486,Thu Jun 11 2026 14:29:52 GMT-0500 (Central Daylight Time),276316.39999985695,A,f,I,f,382,2,399.0,275917.39999985695,8062,WL,A,8.0
2,17.77900004386902,learn,42220.99995613098,Thu Jun 11 2026 14:29:52 GMT-0500 (Central Daylight Time),276450.89999985695,A,fl,I,l,128,2,533.5,275917.39999985695,8062,WL,A,8.0
2,18.028000116348267,learn,41971.99988365173,Thu Jun 11 2026 14:29:52 GMT-0500 (Central Daylight Time),276699.39999985695,A,flo,I,o,232,2,782.0,275917.39999985695,8062,WL,A,8.0
2,18.16100001335144,learn,41838.99998664856,Thu Jun 11 2026 14:29:52 GMT-0500 (Central Daylight Time),276833.0,A,flow,I,w,119,2,915.6000001430511,275917.39999985695,8062,WL,A,8.0
2,18.261000156402588,learn,41738.99984359741,Thu Jun 11 2026 14:29:52 GMT-0500 (Central Daylight Time),276932.89999985695,A,flowe,I,e,90,2,1015.5,275917.39999985695,8062,WL,A,8.0
2,18.4280002117157,learn,41571.9997882843,Thu Jun 11 2026 14:29:52 GMT-0500 (Central Daylight Time),277099.7000000477,A,flower,I,r,158,2,1182.3000001907349,275917.39999985695,8062,WL,A,8.0
2,18.64400005340576,learn,41355.99994659424,Thu Jun 11 2026 14:29:52 GMT-0500 (Central Daylight Time),277316.2999999523,A,flowerenter,I,enter,208,2,1398.9000000953674,275917.39999985695,8062,WL,A,8.0
2,20.06000018119812,learn,39939.99981880188,Thu Jun 11 2026 14:29:52 GMT-0500 (Central Daylight Time),278732.2000000477,A,t,I,t,1407,2,1415.6000001430511,277316.59999990463,8062,WL,A,9.0
2,20.277000188827515,learn,39722.999811172485,Thu Jun 11 2026 14:29:52 GMT-0500 (Central Daylight Time),278948.89999985695,A,tr,I,r,207,2,1632.2999999523163,277316.59999990463,8062,WL,A,9.0
2,20.360000133514404,learn,39639.999866485596,Thu Jun 11 2026 14:29:52 GMT-0500 (Central Daylight Time),279032.09999990463,A,tra,I,a,78,2,1715.5,277316.59999990463,8062,WL,A,9.0
2,20.460000038146973,learn,39539.99996185303,Thu Jun 11 2026 14:29:52 GMT-0500 (Central Daylight Time),279132.09999990463,A,trai,I,i,91,2,1815.5,277316.59999990463,8062,WL,A,9.0
2,20.66000008583069,learn,39339.99991416931,Thu Jun 11 2026 14:29:52 GMT-0500 (Central Daylight Time),279332.0,A,train,I,n,191,2,2015.4000000953674,277316.59999990463,8062,WL,A,9.0
2,20.91000008583069,learn,39089.99991416931,Thu Jun 11 2026 14:29:52 GMT-0500 (Central Daylight Time),279582.09999990463,A,trainenter,I,enter,231,2,2265.5,277316.59999990463,8062,WL,A,9.0
2,21.9760000705719,learn,38023.9999294281,Thu Jun 11 2026 14:29:52 GMT-0500 (Central Daylight Time),280648.2999999523,A,r,I,r,1061,2,1065.9000000953674,279582.39999985695,8062,WL,A,10.0
2,22.194000005722046,learn,37805.999994277954,Thu Jun 11 2026 14:29:52 GMT-0500 (Central Daylight Time),280865.2999999523,A,ru,I,u,202,2,1282.9000000953674,279582.39999985695,8062,WL,A,10.0
2,22.427000045776367,learn,37572.99995422363,Thu Jun 11 2026 14:29:52 GMT-0500 (Central Daylight Time),281098.2999999523,A,rug,I,g,218,2,1515.9000000953674,279582.39999985695,8062,WL,A,10.0
2,22.62600016593933,learn,37373.99983406067,Thu Jun 11 2026 14:29:52 GMT-0500 (Central Daylight Time),281298.09999990463,A,rugenter,I,enter,185,2,1715.7000000476837,279582.39999985695,8062,WL,A,10.0
2,23.22699999809265,learn,36773.00000190735,Thu Jun 11 2026 14:29:52 GMT-0500 (Central Daylight Time),281898.7000000477,A,m,I,m,594,2,600.2000000476837,281298.5,8062,WL,A,11.0
2,23.409000158309937,learn,36590.99984169006,Thu Jun 11 2026 14:29:52 GMT-0500 (Central Daylight Time),282081.2000000477,A,me,I,e,177,2,782.7000000476837,281298.5,8062,WL,A,11.0
2,23.593000173568726,learn,36406.999826431274,Thu Jun 11 2026 14:29:52 GMT-0500 (Central Daylight Time),282264.7999999523,A,mea,I,a,163,2,966.2999999523163,281298.5,8062,WL,A,11.0
2,23.792999982833862,learn,36207.00001716614,Thu Jun 11 2026 14:29:52 GMT-0500 (Central Daylight Time),282464.7000000477,A,mead,I,d,179,2,1166.2000000476837,281298.5,8062,WL,A,11.0
2,24.026000022888184,learn,35973.99997711182,Thu Jun 11 2026 14:29:52 GMT-0500 (Central Daylight Time),282697.7999999523,A,meado,I,o,227,2,1399.2999999523163,281298.5,8062,WL,A,11.0
2,24.176000118255615,learn,35823.999881744385,Thu Jun 11 2026 14:29:52 GMT-0500 (Central Daylight Time),282847.59999990463,A,meadow,I,w,129,2,1549.0999999046326,281298.5,8062,WL,A,11.0
2,24.55900001525879,learn,35440.99998474121,Thu Jun 11 2026 14:29:52 GMT-0500 (Central Daylight Time),283231.0,A,meadowenter,I,enter,372,2,1932.5,281298.5,8062,WL,A,11.0
2,37.65500020980835,learn,22344.99979019165,Thu Jun 11 2026 14:29:52 GMT-0500 (Central Daylight Time),296326.7999999523,A,k,I,k,13084,2,13095.5,283231.2999999523,8062,WL,A,12.0
2,37.82100009918213,learn,22178.99990081787,Thu Jun 11 2026 14:29:52 GMT-0500 (Central Daylight Time),296493.2999999523,A,ke,I,e,147,2,13262.0,283231.2999999523,8062,WL,A,12.0
2,38.021000146865845,learn,21978.999853134155,Thu Jun 11 2026 14:29:52 GMT-0500 (Central Daylight Time),296693.5,A,key,I,y,190,2,13462.200000047684,283231.2999999523,8062,WL,A,12.0
2,38.32200002670288,learn,21677.99997329712,Thu Jun 11 2026 14:29:52 GMT-0500 (Central Daylight Time),296993.7000000477,A,keyenter,I,enter,286,2,13762.400000095367,283231.2999999523,8062,WL,A,12.0
2,38.72100019454956,learn,21278.99980545044,Thu Jun 11 2026 14:29:52 GMT-0500 (Central Daylight Time),297392.89999985695,A,g,I,g,394,2,398.89999985694885,296994.0,8062,WL,A,13.0
2,38.88800001144409,learn,21111.99998855591,Thu Jun 11 2026 14:29:52 GMT-0500 (Central Daylight Time),297560.0,A,go,I,o,154,2,566.0,296994.0,8062,WL,A,13.0
2,39.104000091552734,learn,20895.999908447266,Thu Jun 11 2026 14:29:52 GMT-0500 (Central Daylight Time),297776.39999985695,A,gol,I,l,203,2,782.3999998569489,296994.0,8062,WL,A,13.0
2,39.28800010681152,learn,20711.999893188477,Thu Jun 11 2026 14:29:52 GMT-0500 (Central Daylight Time),297959.89999985695,A,gold,I,d,179,2,965.8999998569489,296994.0,8062,WL,A,13.0
2,39.504000186920166,learn,20495.999813079834,Thu Jun 11 2026 14:29:52 GMT-0500 (Central Daylight Time),298176.2999999523,A,goldenter,I,enter,211,2,1182.2999999523163,296994.0,8062,WL,A,13.0
2,60.015000104904175,learn,-15.000104904174805,Thu Jun 11 2026 14:29:52 GMT-0500 (Central Daylight Time),318686.59999990463,A,None,I,None,20505,2,20510.099999904633,298176.5,8062,WL,A,14.0
3,1.9830000400543213,learn,58016.99995994568,Thu Jun 11 2026 14:29:52 GMT-0500 (Central Daylight Time),387131.7999999523,A,b,I,b,1975,2,1982.7999999523163,385149.0,8062,WL,A,1.0
3,2.199000120162964,learn,57800.999879837036,Thu Jun 11 2026 14:29:52 GMT-0500 (Central Daylight Time),387348.2999999523,A,bu,I,u,199,2,2199.2999999523163,385149.0,8062,WL,A,1.0
3,2.4820001125335693,learn,57517.99988746643,Thu Jun 11 2026 14:29:52 GMT-0500 (Central Daylight Time),387631.5,A,but,I,t,270,2,2482.5,385149.0,8062,WL,A,1.0
3,2.6660001277923584,learn,57333.99987220764,Thu Jun 11 2026 14:29:52 GMT-0500 (Central Daylight Time),387814.7999999523,A,butt,I,t,164,2,2665.7999999523163,385149.0,8062,WL,A,1.0
3,2.749000072479248,learn,57250.99992752075,Thu Jun 11 2026 14:29:52 GMT-0500 (Central Daylight Time),387898.09999990463,A,butto,I,o,76,2,2749.0999999046326,385149.0,8062,WL,A,1.0
3,2.9820001125335693,learn,57017.99988746643,Thu Jun 11 2026 14:29:52 GMT-0500 (Central Daylight Time),388131.39999985695,A,button,I,n,225,2,2982.399999856949,385149.0,8062,WL,A,1.0
3,3.265000104904175,learn,56734.999895095825,Thu Jun 11 2026 14:29:52 GMT-0500 (Central Daylight Time),388414.59999990463,A,buttonenter,I,enter,264,2,3265.5999999046326,385149.0,8062,WL,A,1.0
3,3.616000175476074,learn,56383.999824523926,Thu Jun 11 2026 14:29:52 GMT-0500 (Central Daylight Time),388764.7999999523,A,l,I,l,333,2,349.7999999523163,388415.0,8062,WL,A,2.0
3,3.8489999771118164,learn,56151.00002288818,Thu Jun 11 2026 14:29:52 GMT-0500 (Central Daylight Time),388997.7999999523,A,lo,I,o,222,2,582.7999999523163,388415.0,8062,WL,A,2.0
3,4.0320000648498535,learn,55967.99993515015,Thu Jun 11 2026 14:29:52 GMT-0500 (Central Daylight Time),389181.2999999523,A,log,I,g,165,2,766.2999999523163,388415.0,8062,WL,A,2.0
3,4.29800009727478,learn,55701.99990272522,Thu Jun 11 2026 14:29:52 GMT-0500 (Central Daylight Time),389447.59999990463,A,logenter,I,enter,254,2,1032.5999999046326,388415.0,8062,WL,A,2.0
3,4.748000144958496,learn,55251.999855041504,Thu Jun 11 2026 14:29:52 GMT-0500 (Central Daylight Time),389897.2000000477,A,k,I,k,443,2,449.30000019073486,389447.89999985695,8062,WL,A,3.0
3,4.932000160217285,learn,55067.999839782715,Thu Jun 11 2026 14:29:52 GMT-0500 (Central Daylight Time),390080.7999999523,A,ke,I,e,163,2,632.9000000953674,389447.89999985695,8062,WL,A,3.0
3,5.215000152587891,learn,54784.99984741211,Thu Jun 11 2026 14:29:52 GMT-0500 (Central Daylight Time),390364.0,A,key,I,y,275,2,916.1000001430511,389447.89999985695,8062,WL,A,3.0
3,5.615000009536743,learn,54384.99999046326,Thu Jun 11 2026 14:29:52 GMT-0500 (Central Daylight Time),390764.09999990463,A,keyenter,I,enter,391,2,1316.2000000476837,389447.89999985695,8062,WL,A,3.0
3,6.180999994277954,learn,53819.000005722046,Thu Jun 11 2026 14:29:52 GMT-0500 (Central Daylight Time),391330.09999990463,A,r,I,r,559,2,565.7000000476837,390764.39999985695,8062,WL,A,4.0
3,6.614000082015991,learn,53385.99991798401,Thu Jun 11 2026 14:29:52 GMT-0500 (Central Daylight Time),391763.7000000477,A,ra,I,a,425,2,999.3000001907349,390764.39999985695,8062,WL,A,4.0
3,6.831000089645386,learn,53168.999910354614,Thu Jun 11 2026 14:29:52 GMT-0500 (Central Daylight Time),391980.0,A,rat,I,t,208,2,1215.6000001430511,390764.39999985695,8062,WL,A,4.0
3,6.981000185012817,learn,53018.99981498718,Thu Jun 11 2026 14:29:52 GMT-0500 (Central Daylight Time),392130.0,A,ratt,I,t,135,2,1365.6000001430511,390764.39999985695,8062,WL,A,4.0
3,7.180999994277954,learn,52819.000005722046,Thu Jun 11 2026 14:29:52 GMT-0500 (Central Daylight Time),392330.2000000477,A,rattl,I,l,185,2,1565.8000001907349,390764.39999985695,8062,WL,A,4.0
3,7.414000034332275,learn,52585.999965667725,Thu Jun 11 2026 14:29:52 GMT-0500 (Central Daylight Time),392563.2000000477,A,rattle,I,e,217,2,1798.8000001907349,390764.39999985695,8062,WL,A,4.0
3,7.88100004196167,learn,52118.99995803833,Thu Jun 11 2026 14:29:52 GMT-0500 (Central Daylight Time),393029.89999985695,A,rattleenter,I,enter,456,2,2265.5,390764.39999985695,8062,WL,A,4.0
3,9.630000114440918,learn,50369.99988555908,Thu Jun 11 2026 14:29:52 GMT-0500 (Central Daylight Time),394779.2999999523,A,b,I,b,1742,2,1749.0999999046326,393030.2000000477,8062,WL,A,5.0
3,9.930000066757202,learn,50069.9999332428,Thu Jun 11 2026 14:29:52 GMT-0500 (Central Daylight Time),395079.2999999523,A,bo,I,o,288,2,2049.0999999046326,393030.2000000477,8062,WL,A,5.0
3,10.230000019073486,learn,49769.999980926514,Thu Jun 11 2026 14:29:52 GMT-0500 (Central Daylight Time),395379.2000000477,A,boo,I,o,293,2,2349.0,393030.2000000477,8062,WL,A,5.0
3,10.463000059127808,learn,49536.99994087219,Thu Jun 11 2026 14:29:52 GMT-0500 (Central Daylight Time),395612.39999985695,A,book,I,k,216,2,2582.199999809265,393030.2000000477,8062,WL,A,5.0
3,10.763000011444092,learn,49236.99998855591,Thu Jun 11 2026 14:29:52 GMT-0500 (Central Daylight Time),395912.2999999523,A,bookenter,I,enter,295,2,2882.0999999046326,393030.2000000477,8062,WL,A,5.0
3,11.146000146865845,learn,48853.999853134155,Thu Jun 11 2026 14:29:52 GMT-0500 (Central Daylight Time),396295.2000000477,A,f,I,f,362,2,382.60000014305115,395912.59999990463,8062,WL,A,6.0
3,11.230000019073486,learn,48769.999980926514,Thu Jun 11 2026 14:29:52 GMT-0500 (Central Daylight Time),396378.7999999523,A,fl,I,l,75,2,466.2000000476837,395912.59999990463,8062,WL,A,6.0
3,11.496000051498413,learn,48503.99994850159,Thu Jun 11 2026 14:29:52 GMT-0500 (Central Daylight Time),396645.2000000477,A,flo,I,o,257,2,732.6000001430511,395912.59999990463,8062,WL,A,6.0
3,11.59600019454956,learn,48403.99980545044,Thu Jun 11 2026 14:29:52 GMT-0500 (Central Daylight Time),396745.09999990463,A,flow,I,w,86,2,832.5,395912.59999990463,8062,WL,A,6.0
3,11.713000059127808,learn,48286.99994087219,Thu Jun 11 2026 14:29:52 GMT-0500 (Central Daylight Time),396861.89999985695,A,flowe,I,e,97,2,949.2999999523163,395912.59999990463,8062,WL,A,6.0
3,11.896000146865845,learn,48103.999853134155,Thu Jun 11 2026 14:29:52 GMT-0500 (Central Daylight Time),397045.2000000477,A,flower,I,r,173,2,1132.6000001430511,395912.59999990463,8062,WL,A,6.0
3,12.163000106811523,learn,47836.99989318848,Thu Jun 11 2026 14:29:52 GMT-0500 (Central Daylight Time),397311.7999999523,A,flowerenter,I,enter,262,2,1399.2000000476837,395912.59999990463,8062,WL,A,6.0
3,16.82800006866455,learn,43171.99993133545,Thu Jun 11 2026 14:29:52 GMT-0500 (Central Daylight Time),401976.89999985695,A,m,I,m,4659,2,4664.899999856949,397312.0,8062,WL,A,7.0
3,16.99400019645691,learn,43005.99980354309,Thu Jun 11 2026 14:29:52 GMT-0500 (Central Daylight Time),402143.59999990463,A,me,I,e,146,2,4831.599999904633,397312.0,8062,WL,A,7.0
3,17.111000061035156,learn,42888.999938964844,Thu Jun 11 2026 14:29:52 GMT-0500 (Central Daylight Time),402260.2999999523,A,mea,I,a,100,2,4948.299999952316,397312.0,8062,WL,A,7.0
3,17.261000156402588,learn,42738.99984359741,Thu Jun 11 2026 14:29:52 GMT-0500 (Central Daylight Time),402410.2000000477,A,mead,I,d,143,2,5098.200000047684,397312.0,8062,WL,A,7.0
3,17.561000108718872,learn,42438.99989128113,Thu Jun 11 2026 14:29:52 GMT-0500 (Central Daylight Time),402710.2000000477,A,meado,I,o,281,2,5398.200000047684,397312.0,8062,WL,A,7.0
3,17.694000005722046,learn,42305.999994277954,Thu Jun 11 2026 14:29:52 GMT-0500 (Central Daylight Time),402843.59999990463,A,meadow,I,w,125,2,5531.599999904633,397312.0,8062,WL,A,7.0
3,17.961000204086304,learn,42038.999795913696,Thu Jun 11 2026 14:29:52 GMT-0500 (Central Daylight Time),403110.0,A,meadowenter,I,enter,256,2,5798.0,397312.0,8062,WL,A,7.0
3,18.8270001411438,learn,41172.9998588562,Thu Jun 11 2026 14:29:52 GMT-0500 (Central Daylight Time),403976.5,A,r,I,r,845,2,866.2000000476837,403110.2999999523,8062,WL,A,8.0
3,18.960000038146973,learn,41039.99996185303,Thu Jun 11 2026 14:29:52 GMT-0500 (Central Daylight Time),404109.7999999523,A,ru,I,u,114,2,999.5,403110.2999999523,8062,WL,A,8.0
3,19.127000093460083,learn,40872.99990653992,Thu Jun 11 2026 14:29:52 GMT-0500 (Central Daylight Time),404276.39999985695,A,rug,I,g,150,2,1166.0999999046326,403110.2999999523,8062,WL,A,8.0
3,19.344000101089478,learn,40655.99989891052,Thu Jun 11 2026 14:29:52 GMT-0500 (Central Daylight Time),404493.09999990463,A,rugenter,I,enter,208,2,1382.7999999523163,403110.2999999523,8062,WL,A,8.0
3,21.076000213623047,learn,38923.99978637695,Thu Jun 11 2026 14:29:52 GMT-0500 (Central Daylight Time),406225.7999999523,A,t,I,t,1726,2,1732.4000000953674,404493.39999985695,8062,WL,A,9.0
3,21.326000213623047,learn,38673.99978637695,Thu Jun 11 2026 14:29:52 GMT-0500 (Central Daylight Time),406475.39999985695,A,tr,I,r,235,2,1982.0,404493.39999985695,8062,WL,A,9.0
3,21.56000018119812,learn,38439.99981880188,Thu Jun 11 2026 14:29:52 GMT-0500 (Central Daylight Time),406708.89999985695,A,tri,I,i,224,2,2215.5,404493.39999985695,8062,WL,A,9.0
3,21.759999990463257,learn,38240.00000953674,Thu Jun 11 2026 14:29:52 GMT-0500 (Central Daylight Time),406909.0,A,trin,I,n,190,2,2415.600000143051,404493.39999985695,8062,WL,A,9.0
3,22.509000062942505,learn,37490.999937057495,Thu Jun 11 2026 14:29:52 GMT-0500 (Central Daylight Time),407658.59999990463,A,tri,I,backspace,741,2,3165.2000000476837,404493.39999985695,8062,WL,A,9.0
3,22.70900011062622,learn,37290.99988937378,Thu Jun 11 2026 14:29:52 GMT-0500 (Central Daylight Time),407858.2999999523,A,tr,I,backspace,191,2,3364.9000000953674,404493.39999985695,8062,WL,A,9.0
3,23.159000158309937,learn,36840.99984169006,Thu Jun 11 2026 14:29:52 GMT-0500 (Central Daylight Time),408308.59999990463,A,tra,I,a,441,2,3815.2000000476837,404493.39999985695,8062,WL,A,9.0
3,23.292999982833862,learn,36707.00001716614,Thu Jun 11 2026 14:29:52 GMT-0500 (Central Daylight Time),408441.7999999523,A,trai,I,i,127,2,3948.4000000953674,404493.39999985695,8062,WL,A,9.0
3,23.492000102996826,learn,36507.999897003174,Thu Jun 11 2026 14:29:52 GMT-0500 (Central Daylight Time),408641.7000000477,A,train,I,n,186,2,4148.300000190735,404493.39999985695,8062,WL,A,9.0
3,23.7260000705719,learn,36273.9999294281,Thu Jun 11 2026 14:29:52 GMT-0500 (Central Daylight Time),408875.0,A,trainenter,I,enter,225,2,4381.600000143051,404493.39999985695,8062,WL,A,9.0
3,24.125,learn,35875.0,Thu Jun 11 2026 14:29:52 GMT-0500 (Central Daylight Time),409274.5,A,s,I,s,385,2,399.2000000476837,408875.2999999523,8062,WL,A,10.0
3,24.277000188827515,learn,35722.999811172485,Thu Jun 11 2026 14:29:52 GMT-0500 (Central Daylight Time),409425.7999999523,A,sa,I,a,144,2,550.5,408875.2999999523,8062,WL,A,10.0
3,24.45900011062622,learn,35540.99988937378,Thu Jun 11 2026 14:29:52 GMT-0500 (Central Daylight Time),409608.09999990463,A,sal,I,l,161,2,732.7999999523163,408875.2999999523,8062,WL,A,10.0
3,24.7260000705719,learn,35273.9999294281,Thu Jun 11 2026 14:29:52 GMT-0500 (Central Daylight Time),409874.89999985695,A,salt,I,t,251,2,999.5999999046326,408875.2999999523,8062,WL,A,10.0
3,24.95900011062622,learn,35040.99988937378,Thu Jun 11 2026 14:29:52 GMT-0500 (Central Daylight Time),410108.0,A,saltenter,I,enter,225,2,1232.7000000476837,408875.2999999523,8062,WL,A,10.0
3,25.342000007629395,learn,34657.999992370605,Thu Jun 11 2026 14:29:52 GMT-0500 (Central Daylight Time),410490.89999985695,A,f,I,f,375,2,382.59999990463257,410108.2999999523,8062,WL,A,11.0
3,25.45800018310547,learn,34541.99981689453,Thu Jun 11 2026 14:29:52 GMT-0500 (Central Daylight Time),410607.7000000477,A,fi,I,i,96,2,499.40000009536743,410108.2999999523,8062,WL,A,11.0
3,25.675000190734863,learn,34324.99980926514,Thu Jun 11 2026 14:29:52 GMT-0500 (Central Daylight Time),410824.2999999523,A,fin,I,n,196,2,716.0,410108.2999999523,8062,WL,A,11.0
3,25.825000047683716,learn,34174.999952316284,Thu Jun 11 2026 14:29:52 GMT-0500 (Central Daylight Time),410974.39999985695,A,fing,I,g,139,2,866.0999999046326,410108.2999999523,8062,WL,A,11.0
3,26.008000135421753,learn,33991.99986457825,Thu Jun 11 2026 14:29:52 GMT-0500 (Central Daylight Time),411157.59999990463,A,finge,I,e,165,2,1049.2999999523163,410108.2999999523,8062,WL,A,11.0
3,26.141000032424927,learn,33858.99996757507,Thu Jun 11 2026 14:29:52 GMT-0500 (Central Daylight Time),411290.89999985695,A,finger,I,r,126,2,1182.5999999046326,410108.2999999523,8062,WL,A,11.0
3,26.473999977111816,learn,33526.00002288818,Thu Jun 11 2026 14:29:52 GMT-0500 (Central Daylight Time),411623.89999985695,A,fingerenter,I,enter,312,2,1515.5999999046326,410108.2999999523,8062,WL,A,11.0
3,27.558000087738037,learn,32441.999912261963,Thu Jun 11 2026 14:29:52 GMT-0500 (Central Daylight Time),412707.09999990463,A,g,I,g,1075,2,1083.0,411624.09999990463,8062,WL,A,12.0
3,27.69099998474121,learn,32309.00001525879,Thu Jun 11 2026 14:29:52 GMT-0500 (Central Daylight Time),412840.39999985695,A,go,I,o,120,2,1216.2999999523163,411624.09999990463,8062,WL,A,12.0
3,27.907999992370605,learn,32092.000007629395,Thu Jun 11 2026 14:29:52 GMT-0500 (Central Daylight Time),413057.09999990463,A,gol,I,l,203,2,1433.0,411624.09999990463,8062,WL,A,12.0
3,28.074000120162964,learn,31925.999879837036,Thu Jun 11 2026 14:29:52 GMT-0500 (Central Daylight Time),413223.7000000477,A,gold,I,d,146,2,1599.6000001430511,411624.09999990463,8062,WL,A,12.0
3,28.35700011253357,learn,31642.99988746643,Thu Jun 11 2026 14:29:52 GMT-0500 (Central Daylight Time),413506.7999999523,A,goldenter,I,enter,268,2,1882.7000000476837,411624.09999990463,8062,WL,A,12.0
3,33.60600018501282,learn,26393.999814987183,Thu Jun 11 2026 14:29:52 GMT-0500 (Central Daylight Time),418755.2000000477,A,a,I,a,5242,2,5248.0,413507.2000000477,8062,WL,A,13.0
3,33.855000019073486,learn,26144.999980926514,Thu Jun 11 2026 14:29:52 GMT-0500 (Central Daylight Time),419004.89999985695,A,ap,I,p,232,2,5497.699999809265,413507.2000000477,8062,WL,A,13.0
3,34.055999994277954,learn,25944.000005722046,Thu Jun 11 2026 14:29:52 GMT-0500 (Central Daylight Time),419205.09999990463,A,app,I,p,190,2,5697.899999856949,413507.2000000477,8062,WL,A,13.0
3,34.3050000667572,learn,25694.999933242798,Thu Jun 11 2026 14:29:52 GMT-0500 (Central Daylight Time),419454.7999999523,A,appl,I,l,238,2,5947.599999904633,413507.2000000477,8062,WL,A,13.0
3,34.48900008201599,learn,25510.99991798401,Thu Jun 11 2026 14:29:52 GMT-0500 (Central Daylight Time),419638.09999990463,A,apple,I,e,164,2,6130.899999856949,413507.2000000477,8062,WL,A,13.0
3,34.65500020980835,learn,25344.99979019165,Thu Jun 11 2026 14:29:52 GMT-0500 (Central Daylight Time),419804.7999999523,A,appleenter,I,enter,157,2,6297.599999904633,413507.2000000477,8062,WL,A,13.0
3,60.01400017738342,learn,-14.000177383422852,Thu Jun 11 2026 14:29:52 GMT-0500 (Central Daylight Time),445163.59999990463,A,None,I,None,25353,2,25358.39999985695,419805.2000000477,8062,WL,A,14.0
4,1.0829999446868896,learn,58917.00005531311,Thu Jun 11 2026 14:29:52 GMT-0500 (Central Daylight Time),515091.59999990463,A,r,I,r,1075,2,1082.7000000476837,514008.89999985695,8062,WL,A,1.0
4,1.565999984741211,learn,58434.00001525879,Thu Jun 11 2026 14:29:52 GMT-0500 (Central Daylight Time),515574.89999985695,A,ra,I,a,462,2,1566.0,514008.89999985695,8062,WL,A,1.0
4,1.8829998970031738,learn,58117.000102996826,Thu Jun 11 2026 14:29:52 GMT-0500 (Central Daylight Time),515891.2000000477,A,rat,I,t,300,2,1882.3000001907349,514008.89999985695,8062,WL,A,1.0
4,2.0819997787475586,learn,57918.00022125244,Thu Jun 11 2026 14:29:52 GMT-0500 (Central Daylight Time),516091.09999990463,A,ratt,I,t,193,2,2082.2000000476837,514008.89999985695,8062,WL,A,1.0
4,2.299999952316284,learn,57700.000047683716,Thu Jun 11 2026 14:29:52 GMT-0500 (Central Daylight Time),516308.09999990463,A,rattl,I,l,200,2,2299.2000000476837,514008.89999985695,8062,WL,A,1.0
4,2.4659998416900635,learn,57534.00015830994,Thu Jun 11 2026 14:29:52 GMT-0500 (Central Daylight Time),516474.2999999523,A,rattle,I,e,151,2,2465.4000000953674,514008.89999985695,8062,WL,A,1.0
4,2.7149999141693115,learn,57285.00008583069,Thu Jun 11 2026 14:29:52 GMT-0500 (Central Daylight Time),516724.09999990463,A,rattleenter,I,enter,241,2,2715.2000000476837,514008.89999985695,8062,WL,A,1.0
4,4.298999786376953,learn,55701.00021362305,Thu Jun 11 2026 14:29:52 GMT-0500 (Central Daylight Time),518307.2999999523,A,g,I,g,1575,2,1583.0,516724.2999999523,8062,WL,A,2.0
4,4.431999921798706,learn,55568.000078201294,Thu Jun 11 2026 14:29:52 GMT-0500 (Central Daylight Time),518440.59999990463,A,go,I,o,120,2,1716.2999999523163,516724.2999999523,8062,WL,A,2.0
4,4.614999771118164,learn,55385.000228881836,Thu Jun 11 2026 14:29:52 GMT-0500 (Central Daylight Time),518623.89999985695,A,gol,I,l,170,2,1899.5999999046326,516724.2999999523,8062,WL,A,2.0
4,4.81499981880188,learn,55185.00018119812,Thu Jun 11 2026 14:29:52 GMT-0500 (Central Daylight Time),518823.89999985695,A,gold,I,d,179,2,2099.5999999046326,516724.2999999523,8062,WL,A,2.0
4,4.998999834060669,learn,55001.00016593933,Thu Jun 11 2026 14:29:52 GMT-0500 (Central Daylight Time),519007.2000000477,A,goldenter,I,enter,171,2,2282.9000000953674,516724.2999999523,8062,WL,A,2.0
4,6.080999851226807,learn,53919.00014877319,Thu Jun 11 2026 14:29:52 GMT-0500 (Central Daylight Time),520090.0,A,h,I,h,1076,2,1082.5,519007.5,8062,WL,A,3.0
4,6.247999906539917,learn,53752.00009346008,Thu Jun 11 2026 14:29:52 GMT-0500 (Central Daylight Time),520256.7999999523,A,ha,I,a,155,2,1249.2999999523163,519007.5,8062,WL,A,3.0
4,6.364999771118164,learn,53635.000228881836,Thu Jun 11 2026 14:29:52 GMT-0500 (Central Daylight Time),520373.2000000477,A,har,I,r,98,2,1365.7000000476837,519007.5,8062,WL,A,3.0
4,6.580999851226807,learn,53419.00014877319,Thu Jun 11 2026 14:29:52 GMT-0500 (Central Daylight Time),520589.89999985695,A,harp,I,p,206,2,1582.3999998569489,519007.5,8062,WL,A,3.0
4,6.880999803543091,learn,53119.00019645691,Thu Jun 11 2026 14:29:52 GMT-0500 (Central Daylight Time),520889.7000000477,A,harpenter,I,enter,286,2,1882.2000000476837,519007.5,8062,WL,A,3.0
4,8.196999788284302,learn,51803.0002117157,Thu Jun 11 2026 14:29:52 GMT-0500 (Central Daylight Time),522205.7999999523,A,k,I,k,1307,2,1315.7999999523163,520890.0,8062,WL,A,4.0
4,8.363999843597412,learn,51636.00015640259,Thu Jun 11 2026 14:29:52 GMT-0500 (Central Daylight Time),522372.59999990463,A,ke,I,e,149,2,1482.5999999046326,520890.0,8062,WL,A,4.0
4,8.54699993133545,learn,51453.00006866455,Thu Jun 11 2026 14:29:52 GMT-0500 (Central Daylight Time),522555.7999999523,A,key,I,y,175,2,1665.7999999523163,520890.0,8062,WL,A,4.0
4,8.913999795913696,learn,51086.000204086304,Thu Jun 11 2026 14:29:52 GMT-0500 (Central Daylight Time),522922.39999985695,A,keyenter,I,enter,351,2,2032.3999998569489,520890.0,8062,WL,A,4.0
4,10.679999828338623,learn,49320.00017166138,Thu Jun 11 2026 14:29:52 GMT-0500 (Central Daylight Time),524688.5,A,b,I,b,1761,2,1765.7999999523163,522922.7000000477,8062,WL,A,5.0
4,10.846999883651733,learn,49153.00011634827,Thu Jun 11 2026 14:29:52 GMT-0500 (Central Daylight Time),524855.5,A,bo,I,o,156,2,1932.7999999523163,522922.7000000477,8062,WL,A,5.0
4,11.046000003814697,learn,48953.9999961853,Thu Jun 11 2026 14:29:52 GMT-0500 (Central Daylight Time),525055.0,A,boo,I,o,179,2,2132.2999999523163,522922.7000000477,8062,WL,A,5.0
4,11.19599986076355,learn,48804.00013923645,Thu Jun 11 2026 14:29:52 GMT-0500 (Central Daylight Time),525205.0,A,book,I,k,140,2,2282.2999999523163,522922.7000000477,8062,WL,A,5.0
4,11.510999917984009,learn,48489.00008201599,Thu Jun 11 2026 14:29:52 GMT-0500 (Central Daylight Time),525519.7000000477,A,bookenter,I,enter,309,2,2597.0,522922.7000000477,8062,WL,A,5.0
4,12.145999908447266,learn,47854.000091552734,Thu Jun 11 2026 14:29:52 GMT-0500 (Central Daylight Time),526154.7999999523,A,f,I,f,627,2,634.7999999523163,525520.0,8062,WL,A,6.0
4,12.27899980545044,learn,47721.00019454956,Thu Jun 11 2026 14:29:52 GMT-0500 (Central Daylight Time),526288.0999999046,A,fl,I,l,120,2,768.0999999046326,525520.0,8062,WL,A,6.0
4,12.495999813079834,learn,47504.000186920166,Thu Jun 11 2026 14:29:52 GMT-0500 (Central Daylight Time),526504.7000000477,A,flo,I,o,196,2,984.7000000476837,525520.0,8062,WL,A,6.0
4,12.578999996185303,learn,47421.0000038147,Thu Jun 11 2026 14:29:52 GMT-0500 (Central Daylight Time),526587.899999857,A,flow,I,w,67,2,1067.8999998569489,525520.0,8062,WL,A,6.0
4,12.662999868392944,learn,47337.000131607056,Thu Jun 11 2026 14:29:52 GMT-0500 (Central Daylight Time),526671.5999999046,A,flowe,I,e,63,2,1151.5999999046326,525520.0,8062,WL,A,6.0
4,12.861999988555908,learn,47138.00001144409,Thu Jun 11 2026 14:29:52 GMT-0500 (Central Daylight Time),526871.0999999046,A,flower,I,r,179,2,1351.0999999046326,525520.0,8062,WL,A,6.0
4,13.095999956130981,learn,46904.00004386902,Thu Jun 11 2026 14:29:52 GMT-0500 (Central Daylight Time),527104.2999999523,A,flowerenter,I,enter,214,2,1584.2999999523163,525520.0,8062,WL,A,6.0
4,13.79699993133545,learn,46203.00006866455,Thu Jun 11 2026 14:29:52 GMT-0500 (Central Daylight Time),527805.399999857,A,m,I,m,683,2,700.7999999523163,527104.5999999046,8062,WL,A,7.0
4,13.86299991607666,learn,46137.00008392334,Thu Jun 11 2026 14:29:52 GMT-0500 (Central Daylight Time),527871.0999999046,A,me,I,e,45,2,766.5,527104.5999999046,8062,WL,A,7.0
4,13.994999885559082,learn,46005.00011444092,Thu Jun 11 2026 14:29:52 GMT-0500 (Central Daylight Time),528004.0,A,mea,I,a,124,2,899.4000000953674,527104.5999999046,8062,WL,A,7.0
4,14.162999868392944,learn,45837.000131607056,Thu Jun 11 2026 14:29:52 GMT-0500 (Central Daylight Time),528171.2000000477,A,mead,I,d,151,2,1066.6000001430511,527104.5999999046,8062,WL,A,7.0
4,14.328999996185303,learn,45671.0000038147,Thu Jun 11 2026 14:29:52 GMT-0500 (Central Daylight Time),528337.5,A,meado,I,o,153,2,1232.9000000953674,527104.5999999046,8062,WL,A,7.0
4,14.461999893188477,learn,45538.00010681152,Thu Jun 11 2026 14:29:52 GMT-0500 (Central Daylight Time),528470.7999999523,A,meadow,I,w,122,2,1366.2000000476837,527104.5999999046,8062,WL,A,7.0
4,14.711999893188477,learn,45288.00010681152,Thu Jun 11 2026 14:29:52 GMT-0500 (Central Daylight Time),528720.7999999523,A,meadowenter,I,enter,238,2,1616.2000000476837,527104.5999999046,8062,WL,A,7.0
4,17.99399995803833,learn,42006.00004196167,Thu Jun 11 2026 14:29:52 GMT-0500 (Central Daylight Time),532002.7000000477,A,r,I,r,3274,2,3281.600000143051,528721.0999999046,8062,WL,A,8.0
4,18.161999940872192,learn,41838.00005912781,Thu Jun 11 2026 14:29:52 GMT-0500 (Central Daylight Time),532170.5999999046,A,ru,I,u,161,2,3449.5,528721.0999999046,8062,WL,A,8.0
4,18.444000005722046,learn,41555.999994277954,Thu Jun 11 2026 14:29:52 GMT-0500 (Central Daylight Time),532453.0999999046,A,rug,I,g,264,2,3732.0,528721.0999999046,8062,WL,A,8.0
4,18.694000005722046,learn,41305.999994277954,Thu Jun 11 2026 14:29:52 GMT-0500 (Central Daylight Time),532702.7999999523,A,rugenter,I,enter,230,2,3981.7000000476837,528721.0999999046,8062,WL,A,8.0
4,19.209999799728394,learn,40790.00020027161,Thu Jun 11 2026 14:29:52 GMT-0500 (Central Daylight Time),533219.2000000477,A,t,I,t,501,2,516.0,532703.2000000477,8062,WL,A,9.0
4,19.426999807357788,learn,40573.00019264221,Thu Jun 11 2026 14:29:52 GMT-0500 (Central Daylight Time),533435.7999999523,A,tr,I,r,208,2,732.5999999046326,532703.2000000477,8062,WL,A,9.0
4,19.543999910354614,learn,40456.000089645386,Thu Jun 11 2026 14:29:52 GMT-0500 (Central Daylight Time),533552.7000000477,A,tra,I,a,95,2,849.5,532703.2000000477,8062,WL,A,9.0
4,19.65999984741211,learn,40340.00015258789,Thu Jun 11 2026 14:29:52 GMT-0500 (Central Daylight Time),533669.2000000477,A,trai,I,i,98,2,966.0,532703.2000000477,8062,WL,A,9.0
4,19.8439998626709,learn,40156.0001373291,Thu Jun 11 2026 14:29:52 GMT-0500 (Central Daylight Time),533852.5,A,train,I,n,174,2,1149.2999999523163,532703.2000000477,8062,WL,A,9.0
4,20.043999910354614,learn,39956.000089645386,Thu Jun 11 2026 14:29:52 GMT-0500 (Central Daylight Time),534052.5,A,trainenter,I,enter,192,2,1349.2999999523163,532703.2000000477,8062,WL,A,9.0
4,21.075999975204468,learn,38924.00002479553,Thu Jun 11 2026 14:29:52 GMT-0500 (Central Daylight Time),535085.2999999523,A,s,I,s,1016,2,1032.5,534052.7999999523,8062,WL,A,10.0
4,21.192999839782715,learn,38807.000160217285,Thu Jun 11 2026 14:29:52 GMT-0500 (Central Daylight Time),535201.899999857,A,sa,I,a,110,2,1149.0999999046326,534052.7999999523,8062,WL,A,10.0
4,21.40999984741211,learn,38590.00015258789,Thu Jun 11 2026 14:29:52 GMT-0500 (Central Daylight Time),535418.7000000477,A,sal,I,l,209,2,1365.9000000953674,534052.7999999523,8062,WL,A,10.0
4,21.80999994277954,learn,38190.00005722046,Thu Jun 11 2026 14:29:52 GMT-0500 (Central Daylight Time),535818.5999999046,A,salt,I,t,384,2,1765.7999999523163,534052.7999999523,8062,WL,A,10.0
4,22.525999784469604,learn,37474.000215530396,Thu Jun 11 2026 14:29:52 GMT-0500 (Central Daylight Time),536534.5,A,saltenter,I,enter,696,2,2481.7000000476837,534052.7999999523,8062,WL,A,10.0
4,23.05899977684021,learn,36941.00022315979,Thu Jun 11 2026 14:29:52 GMT-0500 (Central Daylight Time),537067.5999999046,A,f,I,f,516,2,532.8999998569489,536534.7000000477,8062,WL,A,11.0
4,23.191999912261963,learn,36808.00008773804,Thu Jun 11 2026 14:29:52 GMT-0500 (Central Daylight Time),537200.899999857,A,fi,I,i,128,2,666.1999998092651,536534.7000000477,8062,WL,A,11.0
4,23.39199995994568,learn,36608.00004005432,Thu Jun 11 2026 14:29:52 GMT-0500 (Central Daylight Time),537400.7999999523,A,fin,I,n,193,2,866.0999999046326,536534.7000000477,8062,WL,A,11.0
4,23.54199981689453,learn,36458.00018310547,Thu Jun 11 2026 14:29:52 GMT-0500 (Central Daylight Time),537550.7999999523,A,fing,I,g,137,2,1016.0999999046326,536534.7000000477,8062,WL,A,11.0
4,23.774999856948853,learn,36225.00014305115,Thu Jun 11 2026 14:29:52 GMT-0500 (Central Daylight Time),537784.0,A,finge,I,e,227,2,1249.2999999523163,536534.7000000477,8062,WL,A,11.0
4,23.924999952316284,learn,36075.000047683716,Thu Jun 11 2026 14:29:52 GMT-0500 (Central Daylight Time),537933.899999857,A,finger,I,r,130,2,1399.1999998092651,536534.7000000477,8062,WL,A,11.0
4,24.241999864578247,learn,35758.00013542175,Thu Jun 11 2026 14:29:52 GMT-0500 (Central Daylight Time),538250.5,A,fingerenter,I,enter,300,2,1715.7999999523163,536534.7000000477,8062,WL,A,11.0
4,24.907999992370605,learn,35092.000007629395,Thu Jun 11 2026 14:29:52 GMT-0500 (Central Daylight Time),538916.899999857,A,b,I,b,649,2,666.0999999046326,538250.7999999523,8062,WL,A,12.0
4,25.04199981689453,learn,34958.00018310547,Thu Jun 11 2026 14:29:52 GMT-0500 (Central Daylight Time),539050.2999999523,A,bu,I,u,117,2,799.5,538250.7999999523,8062,WL,A,12.0
4,25.240999937057495,learn,34759.000062942505,Thu Jun 11 2026 14:29:52 GMT-0500 (Central Daylight Time),539250.2000000477,A,but,I,t,192,2,999.4000000953674,538250.7999999523,8062,WL,A,12.0
4,25.375,learn,34625.0,Thu Jun 11 2026 14:29:52 GMT-0500 (Central Daylight Time),539383.7999999523,A,butt,I,t,129,2,1133.0,538250.7999999523,8062,WL,A,12.0
4,25.524999856948853,learn,34475.00014305115,Thu Jun 11 2026 14:29:52 GMT-0500 (Central Daylight Time),539534.0999999046,A,butto,I,o,131,2,1283.2999999523163,538250.7999999523,8062,WL,A,12.0
4,25.72499990463257,learn,34275.00009536743,Thu Jun 11 2026 14:29:52 GMT-0500 (Central Daylight Time),539733.7999999523,A,button,I,n,181,2,1483.0,538250.7999999523,8062,WL,A,12.0
4,25.908999919891357,learn,34091.00008010864,Thu Jun 11 2026 14:29:52 GMT-0500 (Central Daylight Time),539917.2999999523,A,buttonenter,I,enter,174,2,1666.5,538250.7999999523,8062,WL,A,12.0
4,27.757999897003174,learn,32242.000102996826,Thu Jun 11 2026 14:29:52 GMT-0500 (Central Daylight Time),541766.5999999046,A,a,I,a,1838,2,1849.0,539917.5999999046,8062,WL,A,13.0
4,27.94099998474121,learn,32059.00001525879,Thu Jun 11 2026 14:29:52 GMT-0500 (Central Daylight Time),541949.7999999523,A,ap,I,p,164,2,2032.2000000476837,539917.5999999046,8062,WL,A,13.0
4,28.12399983406067,learn,31876.00016593933,Thu Jun 11 2026 14:29:52 GMT-0500 (Central Daylight Time),542133.0,A,app,I,p,166,2,2215.4000000953674,539917.5999999046,8062,WL,A,13.0
4,28.29099988937378,learn,31709.00011062622,Thu Jun 11 2026 14:29:52 GMT-0500 (Central Daylight Time),542300.0,A,appl,I,l,150,2,2382.4000000953674,539917.5999999046,8062,WL,A,13.0
4,28.473999977111816,learn,31526.000022888184,Thu Jun 11 2026 14:29:52 GMT-0500 (Central Daylight Time),542482.899999857,A,apple,I,e,175,2,2565.2999999523163,539917.5999999046,8062,WL,A,13.0
4,28.656999826431274,learn,31343.000173568726,Thu Jun 11 2026 14:29:52 GMT-0500 (Central Daylight Time),542666.2000000477,A,appleenter,I,enter,168,2,2748.600000143051,539917.5999999046,8062,WL,A,13.0
4,31.455999851226807,learn,28544.000148773193,Thu Jun 11 2026 14:29:52 GMT-0500 (Central Daylight Time),545465.0999999046,A,l,I,l,2794,2,2798.5999999046326,542666.5,8062,WL,A,14.0
4,31.6729998588562,learn,28327.0001411438,Thu Jun 11 2026 14:29:52 GMT-0500 (Central Daylight Time),545682.0999999046,A,lo,I,o,210,2,3015.5999999046326,542666.5,8062,WL,A,14.0
4,31.789999961853027,learn,28210.000038146973,Thu Jun 11 2026 14:29:52 GMT-0500 (Central Daylight Time),545798.5999999046,A,log,I,g,105,2,3132.0999999046326,542666.5,8062,WL,A,14.0
4,31.972999811172485,learn,28027.000188827515,Thu Jun 11 2026 14:29:52 GMT-0500 (Central Daylight Time),545981.7999999523,A,logenter,I,enter,174,2,3315.2999999523163,542666.5,8062,WL,A,14.0
4,60.013999938964844,learn,-13.99993896484375,Thu Jun 11 2026 14:29:52 GMT-0500 (Central Daylight Time),574023.2999999523,A,None,I,None,28037,2,28041.200000047684,545982.0999999046,8062,WL,A,15.0
5,1.5839998722076416,learn,60000.0,Thu Jun 11 2026 14:29:52 GMT-0500 (Central Daylight Time),655631.7999999523,A,b,I,b,1564,2,1583.5,654048.2999999523,8062,WL,A,1.0
5,1.748999834060669,learn,60000.0,Thu Jun 11 2026 14:29:52 GMT-0500 (Central Daylight Time),655797.2999999523,A,bu,I,u,156,2,1749.0,654048.2999999523,8062,WL,A,1.0
5,2.0160000324249268,learn,60000.0,Thu Jun 11 2026 14:29:52 GMT-0500 (Central Daylight Time),656064.0999999046,A,but,I,t,254,2,2015.7999999523163,654048.2999999523,8062,WL,A,1.0
5,2.1659998893737793,learn,60000.0,Thu Jun 11 2026 14:29:52 GMT-0500 (Central Daylight Time),656214.0999999046,A,butt,I,t,139,2,2165.7999999523163,654048.2999999523,8062,WL,A,1.0
5,2.315999984741211,learn,60000.0,Thu Jun 11 2026 14:29:52 GMT-0500 (Central Daylight Time),656363.899999857,A,butto,I,o,133,2,2315.5999999046326,654048.2999999523,8062,WL,A,1.0
5,2.498999834060669,learn,60000.0,Thu Jun 11 2026 14:29:52 GMT-0500 (Central Daylight Time),656547.2999999523,A,button,I,n,169,2,2499.0,654048.2999999523,8062,WL,A,1.0
5,2.6989998817443848,learn,60000.0,Thu Jun 11 2026 14:29:52 GMT-0500 (Central Daylight Time),656747.2999999523,A,buttonenter,I,enter,192,2,2699.0,654048.2999999523,8062,WL,A,1.0
5,3.132999897003174,learn,60000.0,Thu Jun 11 2026 14:29:52 GMT-0500 (Central Daylight Time),657180.7999999523,A,l,I,l,424,2,433.2000000476837,656747.5999999046,8062,WL,A,2.0
5,3.3320000171661377,learn,60000.0,Thu Jun 11 2026 14:29:52 GMT-0500 (Central Daylight Time),657380.2999999523,A,lo,I,o,190,2,632.7000000476837,656747.5999999046,8062,WL,A,2.0
5,3.4649999141693115,learn,60000.0,Thu Jun 11 2026 14:29:52 GMT-0500 (Central Daylight Time),657513.5999999046,A,log,I,g,127,2,766.0,656747.5999999046,8062,WL,A,2.0
5,3.681999921798706,learn,60000.0,Thu Jun 11 2026 14:29:52 GMT-0500 (Central Daylight Time),657730.2000000477,A,logenter,I,enter,210,2,982.6000001430511,656747.5999999046,8062,WL,A,2.0
5,3.9649999141693115,learn,60000.0,Thu Jun 11 2026 14:29:52 GMT-0500 (Central Daylight Time),658013.5,A,k,I,k,265,2,282.90000009536743,657730.5999999046,8062,WL,A,3.0
5,4.131999969482422,learn,60000.0,Thu Jun 11 2026 14:29:52 GMT-0500 (Central Daylight Time),658180.0999999046,A,ke,I,e,158,2,449.5,657730.5999999046,8062,WL,A,3.0
5,4.365000009536743,learn,60000.0,Thu Jun 11 2026 14:29:52 GMT-0500 (Central Daylight Time),658413.2999999523,A,key,I,y,223,2,682.7000000476837,657730.5999999046,8062,WL,A,3.0
5,5.197999954223633,learn,60000.0,Thu Jun 11 2026 14:29:52 GMT-0500 (Central Daylight Time),659246.5,A,keyenter,I,enter,814,2,1515.9000000953674,657730.5999999046,8062,WL,A,3.0
5,5.680999994277954,learn,60000.0,Thu Jun 11 2026 14:29:52 GMT-0500 (Central Daylight Time),659729.399999857,A,r,I,r,478,2,482.5,659246.899999857,8062,WL,A,4.0
5,5.865000009536743,learn,60000.0,Thu Jun 11 2026 14:29:52 GMT-0500 (Central Daylight Time),659912.7999999523,A,ra,I,a,179,2,665.9000000953674,659246.899999857,8062,WL,A,4.0
5,5.997999906539917,learn,60000.0,Thu Jun 11 2026 14:29:52 GMT-0500 (Central Daylight Time),660046.2999999523,A,rat,I,t,114,2,799.4000000953674,659246.899999857,8062,WL,A,4.0
5,6.164999961853027,learn,60000.0,Thu Jun 11 2026 14:29:52 GMT-0500 (Central Daylight Time),660212.7999999523,A,ratt,I,t,149,2,965.9000000953674,659246.899999857,8062,WL,A,4.0
5,6.3480000495910645,learn,60000.0,Thu Jun 11 2026 14:29:52 GMT-0500 (Central Daylight Time),660396.0,A,rattl,I,l,166,2,1149.1000001430511,659246.899999857,8062,WL,A,4.0
5,6.46399998664856,learn,60000.0,Thu Jun 11 2026 14:29:52 GMT-0500 (Central Daylight Time),660512.5,A,rattle,I,e,111,2,1265.6000001430511,659246.899999857,8062,WL,A,4.0
5,6.730999946594238,learn,60000.0,Thu Jun 11 2026 14:29:52 GMT-0500 (Central Daylight Time),660779.2000000477,A,rattleenter,I,enter,259,2,1532.3000001907349,659246.899999857,8062,WL,A,4.0
5,8.480000019073486,learn,60000.0,Thu Jun 11 2026 14:29:52 GMT-0500 (Central Daylight Time),662528.5999999046,A,b,I,b,1735,2,1748.8999998569489,660779.7000000477,8062,WL,A,5.0
5,8.680000066757202,learn,60000.0,Thu Jun 11 2026 14:29:52 GMT-0500 (Central Daylight Time),662728.399999857,A,bo,I,o,186,2,1948.6999998092651,660779.7000000477,8062,WL,A,5.0
5,8.829999923706055,learn,60000.0,Thu Jun 11 2026 14:29:52 GMT-0500 (Central Daylight Time),662878.5999999046,A,boo,I,o,139,2,2098.899999856949,660779.7000000477,8062,WL,A,5.0
5,8.996999979019165,learn,60000.0,Thu Jun 11 2026 14:29:52 GMT-0500 (Central Daylight Time),663045.2000000477,A,book,I,k,149,2,2265.5,660779.7000000477,8062,WL,A,5.0
5,9.263999938964844,learn,60000.0,Thu Jun 11 2026 14:29:52 GMT-0500 (Central Daylight Time),663311.7999999523,A,bookenter,I,enter,246,2,2532.0999999046326,660779.7000000477,8062,WL,A,5.0
5,9.77999997138977,learn,60000.0,Thu Jun 11 2026 14:29:52 GMT-0500 (Central Daylight Time),663828.2999999523,A,f,I,f,500,2,516.2000000476837,663312.0999999046,8062,WL,A,6.0
5,9.898000001907349,learn,60000.0,Thu Jun 11 2026 14:29:52 GMT-0500 (Central Daylight Time),663945.7999999523,A,fl,I,l,103,2,633.7000000476837,663312.0999999046,8062,WL,A,6.0
5,10.096999883651733,learn,60000.0,Thu Jun 11 2026 14:29:52 GMT-0500 (Central Daylight Time),664144.7000000477,A,flo,I,o,193,2,832.6000001430511,663312.0999999046,8062,WL,A,6.0
5,10.213000059127808,learn,60000.0,Thu Jun 11 2026 14:29:52 GMT-0500 (Central Daylight Time),664261.5999999046,A,flow,I,w,107,2,949.5,663312.0999999046,8062,WL,A,6.0
5,10.29699993133545,learn,60000.0,Thu Jun 11 2026 14:29:52 GMT-0500 (Central Daylight Time),664344.7999999523,A,flowe,I,e,70,2,1032.7000000476837,663312.0999999046,8062,WL,A,6.0
5,10.463000059127808,learn,60000.0,Thu Jun 11 2026 14:29:52 GMT-0500 (Central Daylight Time),664511.5,A,flower,I,r,146,2,1199.4000000953674,663312.0999999046,8062,WL,A,6.0
5,10.680000066757202,learn,60000.0,Thu Jun 11 2026 14:29:52 GMT-0500 (Central Daylight Time),664728.2000000477,A,flowerenter,I,enter,196,2,1416.1000001430511,663312.0999999046,8062,WL,A,6.0
5,11.345999956130981,learn,60000.0,Thu Jun 11 2026 14:29:52 GMT-0500 (Central Daylight Time),665394.399999857,A,m,I,m,659,2,665.8999998569489,664728.5,8062,WL,A,7.0
5,11.463000059127808,learn,60000.0,Thu Jun 11 2026 14:29:52 GMT-0500 (Central Daylight Time),665511.0999999046,A,me,I,e,105,2,782.5999999046326,664728.5,8062,WL,A,7.0
5,11.63100004196167,learn,60000.0,Thu Jun 11 2026 14:29:52 GMT-0500 (Central Daylight Time),665678.7999999523,A,mea,I,a,148,2,950.2999999523163,664728.5,8062,WL,A,7.0
5,11.86299991607666,learn,60000.0,Thu Jun 11 2026 14:29:52 GMT-0500 (Central Daylight Time),665910.7000000477,A,mead,I,d,221,2,1182.2000000476837,664728.5,8062,WL,A,7.0
5,12.046000003814697,learn,60000.0,Thu Jun 11 2026 14:29:52 GMT-0500 (Central Daylight Time),666094.2000000477,A,meado,I,o,174,2,1365.7000000476837,664728.5,8062,WL,A,7.0
5,12.19599986076355,learn,60000.0,Thu Jun 11 2026 14:29:52 GMT-0500 (Central Daylight Time),666244.0999999046,A,meadow,I,w,141,2,1515.5999999046326,664728.5,8062,WL,A,7.0
5,12.378999948501587,learn,60000.0,Thu Jun 11 2026 14:29:52 GMT-0500 (Central Daylight Time),666427.5999999046,A,meadown,I,n,175,2,1699.0999999046326,664728.5,8062,WL,A,7.0
5,12.562999963760376,learn,60000.0,Thu Jun 11 2026 14:29:52 GMT-0500 (Central Daylight Time),666610.899999857,A,meadownenter,I,enter,177,2,1882.3999998569489,664728.5,8062,WL,A,7.0
5,15.062000036239624,learn,60000.0,Thu Jun 11 2026 14:29:52 GMT-0500 (Central Daylight Time),669110.0999999046,A,r,I,r,2489,2,2498.899999856949,666611.2000000477,8062,WL,A,8.0
5,15.244999885559082,learn,60000.0,Thu Jun 11 2026 14:29:52 GMT-0500 (Central Daylight Time),669293.2999999523,A,ru,I,u,173,2,2682.0999999046326,666611.2000000477,8062,WL,A,8.0
5,15.412999868392944,learn,60000.0,Thu Jun 11 2026 14:29:52 GMT-0500 (Central Daylight Time),669461.0999999046,A,rug,I,g,150,2,2849.899999856949,666611.2000000477,8062,WL,A,8.0
5,15.67799997329712,learn,60000.0,Thu Jun 11 2026 14:29:52 GMT-0500 (Central Daylight Time),669726.5999999046,A,rugenter,I,enter,246,2,3115.399999856949,666611.2000000477,8062,WL,A,8.0
5,17.42799997329712,learn,60000.0,Thu Jun 11 2026 14:29:52 GMT-0500 (Central Daylight Time),671475.7999999523,A,t,I,t,1742,2,1748.9000000953674,669726.899999857,8062,WL,A,9.0
5,17.710999965667725,learn,60000.0,Thu Jun 11 2026 14:29:52 GMT-0500 (Central Daylight Time),671759.2000000477,A,ta,I,a,271,2,2032.3000001907349,669726.899999857,8062,WL,A,9.0
5,18.276999950408936,learn,60000.0,Thu Jun 11 2026 14:29:52 GMT-0500 (Central Daylight Time),672325.5999999046,A,t,I,backspace,557,2,2598.7000000476837,669726.899999857,8062,WL,A,9.0
5,18.64400005340576,learn,60000.0,Thu Jun 11 2026 14:29:52 GMT-0500 (Central Daylight Time),672692.0999999046,A,tr,I,r,350,2,2965.2000000476837,669726.899999857,8062,WL,A,9.0
5,18.793999910354614,learn,60000.0,Thu Jun 11 2026 14:29:52 GMT-0500 (Central Daylight Time),672842.0,A,tra,I,a,135,2,3115.100000143051,669726.899999857,8062,WL,A,9.0
5,18.944000005722046,learn,60000.0,Thu Jun 11 2026 14:29:52 GMT-0500 (Central Daylight Time),672992.2999999523,A,trai,I,i,139,2,3265.4000000953674,669726.899999857,8062,WL,A,9.0
5,19.16100001335144,learn,60000.0,Thu Jun 11 2026 14:29:52 GMT-0500 (Central Daylight Time),673208.7000000477,A,train,I,n,202,2,3481.800000190735,669726.899999857,8062,WL,A,9.0
5,19.359999895095825,learn,60000.0,Thu Jun 11 2026 14:29:52 GMT-0500 (Central Daylight Time),673408.7000000477,A,trainenter,I,enter,178,2,3681.800000190735,669726.899999857,8062,WL,A,9.0
5,21.526000022888184,learn,60000.0,Thu Jun 11 2026 14:29:52 GMT-0500 (Central Daylight Time),675574.399999857,A,h,I,h,2147,2,2165.5,673408.899999857,8062,WL,A,10.0
5,21.64299988746643,learn,60000.0,Thu Jun 11 2026 14:29:52 GMT-0500 (Central Daylight Time),675691.0,A,ha,I,a,101,2,2282.100000143051,673408.899999857,8062,WL,A,10.0
5,21.776000022888184,learn,60000.0,Thu Jun 11 2026 14:29:52 GMT-0500 (Central Daylight Time),675824.399999857,A,har,I,r,128,2,2415.5,673408.899999857,8062,WL,A,10.0
5,22.009999990463257,learn,60000.0,Thu Jun 11 2026 14:29:52 GMT-0500 (Central Daylight Time),676057.7999999523,A,harp,I,p,227,2,2648.9000000953674,673408.899999857,8062,WL,A,10.0
5,23.042999982833862,learn,60000.0,Thu Jun 11 2026 14:29:52 GMT-0500 (Central Daylight Time),677090.7999999523,A,harpenter,I,enter,1026,2,3681.9000000953674,673408.899999857,8062,WL,A,10.0
5,23.80900001525879,learn,60000.0,Thu Jun 11 2026 14:29:52 GMT-0500 (Central Daylight Time),677857.2000000477,A,s,I,s,753,2,766.0,677091.2000000477,8062,WL,A,11.0
5,23.89199995994568,learn,60000.0,Thu Jun 11 2026 14:29:52 GMT-0500 (Central Daylight Time),677940.5,A,sa,I,a,66,2,849.2999999523163,677091.2000000477,8062,WL,A,11.0
5,24.009000062942505,learn,60000.0,Thu Jun 11 2026 14:29:52 GMT-0500 (Central Daylight Time),678056.899999857,A,sal,I,l,112,2,965.6999998092651,677091.2000000477,8062,WL,A,11.0
5,24.241999864578247,learn,60000.0,Thu Jun 11 2026 14:29:52 GMT-0500 (Central Daylight Time),678290.399999857,A,salt,I,t,227,2,1199.1999998092651,677091.2000000477,8062,WL,A,11.0
5,24.575000047683716,learn,60000.0,Thu Jun 11 2026 14:29:52 GMT-0500 (Central Daylight Time),678623.5,A,saltenter,I,enter,313,2,1532.2999999523163,677091.2000000477,8062,WL,A,11.0
5,25.657999992370605,learn,60000.0,Thu Jun 11 2026 14:29:52 GMT-0500 (Central Daylight Time),679706.5999999046,A,a,I,a,1068,2,1082.7999999523163,678623.7999999523,8062,WL,A,12.0
5,25.875,learn,60000.0,Thu Jun 11 2026 14:29:52 GMT-0500 (Central Daylight Time),679923.0999999046,A,ap,I,p,201,2,1299.2999999523163,678623.7999999523,8062,WL,A,12.0
5,26.042999982833862,learn,60000.0,Thu Jun 11 2026 14:29:52 GMT-0500 (Central Daylight Time),680090.899999857,A,app,I,p,161,2,1467.0999999046326,678623.7999999523,8062,WL,A,12.0
5,26.241999864578247,learn,60000.0,Thu Jun 11 2026 14:29:52 GMT-0500 (Central Daylight Time),680290.0,A,appl,I,l,192,2,1666.2000000476837,678623.7999999523,8062,WL,A,12.0
5,26.424999952316284,learn,60000.0,Thu Jun 11 2026 14:29:52 GMT-0500 (Central Daylight Time),680472.7999999523,A,apple,I,e,177,2,1849.0,678623.7999999523,8062,WL,A,12.0
5,26.62399983406067,learn,60000.0,Thu Jun 11 2026 14:29:52 GMT-0500 (Central Daylight Time),680672.7000000477,A,appleenter,I,enter,195,2,2048.9000000953674,678623.7999999523,8062,WL,A,12.0
5,28.10800004005432,learn,60000.0,Thu Jun 11 2026 14:29:52 GMT-0500 (Central Daylight Time),682155.899999857,A,f,I,f,1476,2,1483.0,680672.899999857,8062,WL,A,13.0
5,28.223999977111816,learn,60000.0,Thu Jun 11 2026 14:29:52 GMT-0500 (Central Daylight Time),682272.5999999046,A,fi,I,i,96,2,1599.7000000476837,680672.899999857,8062,WL,A,13.0
5,28.407999992370605,learn,60000.0,Thu Jun 11 2026 14:29:52 GMT-0500 (Central Daylight Time),682456.0,A,fin,I,n,172,2,1783.1000001430511,680672.899999857,8062,WL,A,13.0
5,28.507999897003174,learn,60000.0,Thu Jun 11 2026 14:29:52 GMT-0500 (Central Daylight Time),682555.7999999523,A,fing,I,g,91,2,1882.9000000953674,680672.899999857,8062,WL,A,13.0
5,28.707000017166138,learn,60000.0,Thu Jun 11 2026 14:29:52 GMT-0500 (Central Daylight Time),682755.7000000477,A,finge,I,e,191,2,2082.800000190735,680672.899999857,8062,WL,A,13.0
5,28.823999881744385,learn,60000.0,Thu Jun 11 2026 14:29:52 GMT-0500 (Central Daylight Time),682872.2999999523,A,finger,I,r,104,2,2199.4000000953674,680672.899999857,8062,WL,A,13.0
5,29.0239999294281,learn,60000.0,Thu Jun 11 2026 14:29:52 GMT-0500 (Central Daylight Time),683072.2000000477,A,fingerenter,I,enter,187,2,2399.300000190735,680672.899999857,8062,WL,A,13.0
5,33.19099998474121,learn,60000.0,Thu Jun 11 2026 14:29:52 GMT-0500 (Central Daylight Time),687238.7000000477,A,c,I,c,4155,2,4166.200000047684,683072.5,8062,WL,A,14.0
5,33.305999994277954,learn,60000.0,Thu Jun 11 2026 14:29:52 GMT-0500 (Central Daylight Time),687354.2999999523,A,ch,I,h,108,2,4281.799999952316,683072.5,8062,WL,A,14.0
5,33.4229998588562,learn,60000.0,Thu Jun 11 2026 14:29:52 GMT-0500 (Central Daylight Time),687470.899999857,A,chi,I,i,97,2,4398.399999856949,683072.5,8062,WL,A,14.0
5,33.82299995422363,learn,60000.0,Thu Jun 11 2026 14:29:52 GMT-0500 (Central Daylight Time),687870.899999857,A,chim,I,m,381,2,4798.399999856949,683072.5,8062,WL,A,14.0
5,34.17199993133545,learn,60000.0,Thu Jun 11 2026 14:29:52 GMT-0500 (Central Daylight Time),688220.5,A,chimn,I,n,340,2,5148.0,683072.5,8062,WL,A,14.0
5,34.305999994277954,learn,60000.0,Thu Jun 11 2026 14:29:52 GMT-0500 (Central Daylight Time),688353.899999857,A,chimne,I,e,127,2,5281.399999856949,683072.5,8062,WL,A,14.0
5,34.48899984359741,learn,60000.0,Thu Jun 11 2026 14:29:52 GMT-0500 (Central Daylight Time),688537.2999999523,A,chimney,I,y,162,2,5464.799999952316,683072.5,8062,WL,A,14.0
5,34.75600004196167,learn,60000.0,Thu Jun 11 2026 14:29:52 GMT-0500 (Central Daylight Time),688804.0,A,chimneyenter,I,enter,251,2,5731.5,683072.5,8062,WL,A,14.0
5,39.12100005149841,learn,60000.0,Thu Jun 11 2026 14:29:52 GMT-0500 (Central Daylight Time),693169.0999999046,A,b,I,b,4351,2,4364.799999952316,688804.2999999523,8062,WL,A,15.0
5,39.30399990081787,learn,60000.0,Thu Jun 11 2026 14:29:52 GMT-0500 (Central Daylight Time),693352.399999857,A,bu,I,u,162,2,4548.099999904633,688804.2999999523,8062,WL,A,15.0
5,39.57099986076355,learn,60000.0,Thu Jun 11 2026 14:29:52 GMT-0500 (Central Daylight Time),693618.7999999523,A,but,I,t,251,2,4814.5,688804.2999999523,8062,WL,A,15.0
5,39.75399994850159,learn,60000.0,Thu Jun 11 2026 14:29:52 GMT-0500 (Central Daylight Time),693802.2999999523,A,butt,I,t,167,2,4998.0,688804.2999999523,8062,WL,A,15.0
5,39.87100005149841,learn,60000.0,Thu Jun 11 2026 14:29:52 GMT-0500 (Central Daylight Time),693919.0999999046,A,butto,I,o,106,2,5114.799999952316,688804.2999999523,8062,WL,A,15.0
5,40.07099986076355,learn,60000.0,Thu Jun 11 2026 14:29:52 GMT-0500 (Central Daylight Time),694119.0,A,button,I,n,189,2,5314.700000047684,688804.2999999523,8062,WL,A,15.0
5,40.23699998855591,learn,60000.0,Thu Jun 11 2026 14:29:52 GMT-0500 (Central Daylight Time),694285.5,A,buttonenter,I,enter,156,2,5481.200000047684,688804.2999999523,8062,WL,A,15.0
6,1.5989999771118164,distr,58401.00002288818,Thu Jun 11 2026 14:29:52 GMT-0500 (Central Daylight Time),770561.2999999523,B,s,I,s,1595,2,1599.0999999046326,768962.2000000477,8062,WL,A,1.0
6,1.7990000247955322,distr,58200.99997520447,Thu Jun 11 2026 14:29:52 GMT-0500 (Central Daylight Time),770761.399999857,B,sh,I,h,193,2,1799.1999998092651,768962.2000000477,8062,WL,A,1.0
6,2.014000177383423,distr,57985.99982261658,Thu Jun 11 2026 14:29:52 GMT-0500 (Central Daylight Time),770978.0,B,she,I,e,202,2,2015.7999999523163,768962.2000000477,8062,WL,A,1.0
6,2.198000192642212,distr,57801.99980735779,Thu Jun 11 2026 14:29:52 GMT-0500 (Central Daylight Time),771161.2000000477,B,shee,I,e,178,2,2199.0,768962.2000000477,8062,WL,A,1.0
6,2.3980000019073486,distr,57601.99999809265,Thu Jun 11 2026 14:29:52 GMT-0500 (Central Daylight Time),771361.399999857,B,sheep,I,p,187,2,2399.199999809265,768962.2000000477,8062,WL,A,1.0
6,2.680999994277954,distr,57319.000005722046,Thu Jun 11 2026 14:29:52 GMT-0500 (Central Daylight Time),771644.5,B,sheepenter,I,enter,274,2,2682.2999999523163,768962.2000000477,8062,WL,A,1.0
6,3.1470000743865967,distr,56852.9999256134,Thu Jun 11 2026 14:29:52 GMT-0500 (Central Daylight Time),772110.899999857,B,m,I,m,447,2,466.19999980926514,771644.7000000477,8062,WL,A,2.0
6,3.246999979019165,distr,56753.000020980835,Thu Jun 11 2026 14:29:52 GMT-0500 (Central Daylight Time),772211.0999999046,B,me,I,e,84,2,566.3999998569489,771644.7000000477,8062,WL,A,2.0
6,3.3970000743865967,distr,56602.9999256134,Thu Jun 11 2026 14:29:52 GMT-0500 (Central Daylight Time),772361.0999999046,B,mea,I,a,136,2,716.3999998569489,771644.7000000477,8062,WL,A,2.0
6,3.5470001697540283,distr,56452.99983024597,Thu Jun 11 2026 14:29:52 GMT-0500 (Central Daylight Time),772511.0999999046,B,meal,I,l,130,2,866.3999998569489,771644.7000000477,8062,WL,A,2.0
6,3.88100004196167,distr,56118.99995803833,Thu Jun 11 2026 14:29:52 GMT-0500 (Central Daylight Time),772844.2999999523,B,mealenter,I,enter,317,2,1199.5999999046326,771644.7000000477,8062,WL,A,2.0
6,5.730000019073486,distr,54269.999980926514,Thu Jun 11 2026 14:29:52 GMT-0500 (Central Daylight Time),774693.5999999046,B,c,I,c,1832,2,1849.0,772844.5999999046,8062,WL,A,3.0
6,5.830000162124634,distr,54169.999837875366,Thu Jun 11 2026 14:29:52 GMT-0500 (Central Daylight Time),774793.0999999046,B,ch,I,h,94,2,1948.5,772844.5999999046,8062,WL,A,3.0
6,6.463000059127808,distr,53536.99994087219,Thu Jun 11 2026 14:29:52 GMT-0500 (Central Daylight Time),775426.899999857,B,cha,I,a,619,2,2582.2999999523163,772844.5999999046,8062,WL,A,3.0
6,6.746000051498413,distr,53253.99994850159,Thu Jun 11 2026 14:29:52 GMT-0500 (Central Daylight Time),775709.7000000477,B,chai,I,i,265,2,2865.100000143051,772844.5999999046,8062,WL,A,3.0
6,6.963000059127808,distr,53036.99994087219,Thu Jun 11 2026 14:29:52 GMT-0500 (Central Daylight Time),775926.5,B,chair,I,r,205,2,3081.9000000953674,772844.5999999046,8062,WL,A,3.0
6,7.229000091552734,distr,52770.999908447266,Thu Jun 11 2026 14:29:52 GMT-0500 (Central Daylight Time),776192.7999999523,B,chairenter,I,enter,253,2,3348.2000000476837,772844.5999999046,8062,WL,A,3.0
6,8.029000043869019,distr,51970.99995613098,Thu Jun 11 2026 14:29:52 GMT-0500 (Central Daylight Time),776992.7999999523,B,c,I,c,795,2,799.7000000476837,776193.0999999046,8062,WL,A,4.0
6,8.09600019454956,distr,51903.99980545044,Thu Jun 11 2026 14:29:52 GMT-0500 (Central Daylight Time),777059.399999857,B,co,I,o,51,2,866.2999999523163,776193.0999999046,8062,WL,A,4.0
6,8.229000091552734,distr,51770.999908447266,Thu Jun 11 2026 14:29:52 GMT-0500 (Central Daylight Time),777192.7000000477,B,cou,I,u,128,2,999.6000001430511,776193.0999999046,8062,WL,A,4.0
6,8.496000051498413,distr,51503.99994850159,Thu Jun 11 2026 14:29:52 GMT-0500 (Central Daylight Time),777459.2999999523,B,coun,I,n,258,2,1266.2000000476837,776193.0999999046,8062,WL,A,4.0
6,8.629000186920166,distr,51370.999813079834,Thu Jun 11 2026 14:29:52 GMT-0500 (Central Daylight Time),777592.7000000477,B,count,I,t,113,2,1399.6000001430511,776193.0999999046,8062,WL,A,4.0
6,9.045000076293945,distr,50954.999923706055,Thu Jun 11 2026 14:29:52 GMT-0500 (Central Daylight Time),778008.899999857,B,county,I,y,410,2,1815.7999999523163,776193.0999999046,8062,WL,A,4.0
6,9.529000043869019,distr,50470.99995613098,Thu Jun 11 2026 14:29:52 GMT-0500 (Central Daylight Time),778492.399999857,B,count,I,backspace,466,2,2299.2999999523163,776193.0999999046,8062,WL,A,4.0
6,9.662000179290771,distr,50337.99982070923,Thu Jun 11 2026 14:29:52 GMT-0500 (Central Daylight Time),778625.899999857,B,countr,I,r,120,2,2432.7999999523163,776193.0999999046,8062,WL,A,4.0
6,9.830000162124634,distr,50169.999837875366,Thu Jun 11 2026 14:29:52 GMT-0500 (Central Daylight Time),778793.2999999523,B,country,I,y,153,2,2600.2000000476837,776193.0999999046,8062,WL,A,4.0
6,10.09500002861023,distr,49904.99997138977,Thu Jun 11 2026 14:29:52 GMT-0500 (Central Daylight Time),779058.899999857,B,countryenter,I,enter,259,2,2865.7999999523163,776193.0999999046,8062,WL,A,4.0
6,11.511000156402588,distr,48488.99984359741,Thu Jun 11 2026 14:29:52 GMT-0500 (Central Daylight Time),780475.0,B,d,I,d,1401,2,1415.7999999523163,779059.2000000477,8062,WL,A,5.0
6,11.663000106811523,distr,48336.99989318848,Thu Jun 11 2026 14:29:52 GMT-0500 (Central Daylight Time),780626.7000000477,B,da,I,a,145,2,1567.5,779059.2000000477,8062,WL,A,5.0
6,11.896000146865845,distr,48103.999853134155,Thu Jun 11 2026 14:29:52 GMT-0500 (Central Daylight Time),780859.7000000477,B,daw,I,w,216,2,1800.5,779059.2000000477,8062,WL,A,5.0
6,12.16100001335144,distr,47838.99998664856,Thu Jun 11 2026 14:29:52 GMT-0500 (Central Daylight Time),781124.899999857,B,dawn,I,n,256,2,2065.699999809265,779059.2000000477,8062,WL,A,5.0
6,12.42799997329712,distr,47572.00002670288,Thu Jun 11 2026 14:29:52 GMT-0500 (Central Daylight Time),781391.399999857,B,dawnenter,I,enter,254,2,2332.199999809265,779059.2000000477,8062,WL,A,5.0
6,60.01300001144409,distr,-13.000011444091797,Thu Jun 11 2026 14:29:52 GMT-0500 (Central Daylight Time),828976.5999999046,B,None,I,None,47580,2,47584.89999985695,781391.7000000477,8062,WL,A,6.0
7,2.200000047683716,immed,57799.999952316284,Thu Jun 11 2026 14:29:52 GMT-0500 (Central Daylight Time),843088.899999857,A,b,I,b,2179,2,2199.5,840889.399999857,8062,WL,A,1.0
7,2.5169999599456787,immed,57483.00004005432,Thu Jun 11 2026 14:29:52 GMT-0500 (Central Daylight Time),843405.399999857,A,bo,I,o,307,2,2516.0,840889.399999857,8062,WL,A,1.0
7,2.9660000801086426,immed,57033.99991989136,Thu Jun 11 2026 14:29:52 GMT-0500 (Central Daylight Time),843855.2000000477,A,boo,I,o,430,2,2965.800000190735,840889.399999857,8062,WL,A,1.0
7,3.1670000553131104,immed,56832.99994468689,Thu Jun 11 2026 14:29:52 GMT-0500 (Central Daylight Time),844055.2999999523,A,book,I,k,189,2,3165.9000000953674,840889.399999857,8062,WL,A,1.0
7,3.549999952316284,immed,56450.000047683716,Thu Jun 11 2026 14:29:52 GMT-0500 (Central Daylight Time),844438.399999857,A,bookenter,I,enter,373,2,3549.0,840889.399999857,8062,WL,A,1.0
7,3.9660000801086426,immed,56033.99991989136,Thu Jun 11 2026 14:29:52 GMT-0500 (Central Daylight Time),844854.899999857,A,f,I,f,406,2,416.19999980926514,844438.7000000477,8062,WL,A,2.0
7,4.065999984741211,immed,55934.00001525879,Thu Jun 11 2026 14:29:52 GMT-0500 (Central Daylight Time),844954.7999999523,A,fl,I,l,92,2,516.0999999046326,844438.7000000477,8062,WL,A,2.0
7,4.315999984741211,immed,55684.00001525879,Thu Jun 11 2026 14:29:52 GMT-0500 (Central Daylight Time),845204.7000000477,A,flo,I,o,233,2,766.0,844438.7000000477,8062,WL,A,2.0
7,4.433000087738037,immed,55566.99991226196,Thu Jun 11 2026 14:29:52 GMT-0500 (Central Daylight Time),845321.399999857,A,flow,I,w,96,2,882.6999998092651,844438.7000000477,8062,WL,A,2.0
7,4.549000024795532,immed,55450.99997520447,Thu Jun 11 2026 14:29:52 GMT-0500 (Central Daylight Time),845437.899999857,A,flowe,I,e,99,2,999.1999998092651,844438.7000000477,8062,WL,A,2.0
7,4.699000120162964,immed,55300.999879837036,Thu Jun 11 2026 14:29:52 GMT-0500 (Central Daylight Time),845588.2000000477,A,flower,I,r,135,2,1149.5,844438.7000000477,8062,WL,A,2.0
7,4.983000040054321,immed,55016.99995994568,Thu Jun 11 2026 14:29:52 GMT-0500 (Central Daylight Time),845871.5,A,flowerenter,I,enter,272,2,1432.7999999523163,844438.7000000477,8062,WL,A,2.0
7,7.54800009727478,immed,52451.99990272522,Thu Jun 11 2026 14:29:52 GMT-0500 (Central Daylight Time),848437.2000000477,A,m,I,m,2557,2,2565.5,845871.7000000477,8062,WL,A,3.0
7,7.664999961853027,immed,52335.00003814697,Thu Jun 11 2026 14:29:52 GMT-0500 (Central Daylight Time),848553.5,A,me,I,e,110,2,2681.7999999523163,845871.7000000477,8062,WL,A,3.0
7,7.799000024795532,immed,52200.99997520447,Thu Jun 11 2026 14:29:52 GMT-0500 (Central Daylight Time),848688.0,A,mea,I,a,114,2,2816.2999999523163,845871.7000000477,8062,WL,A,3.0
7,7.947999954223633,immed,52052.00004577637,Thu Jun 11 2026 14:29:52 GMT-0500 (Central Daylight Time),848837.0,A,mead,I,d,140,2,2965.2999999523163,845871.7000000477,8062,WL,A,3.0
7,8.115000009536743,immed,51884.99999046326,Thu Jun 11 2026 14:29:52 GMT-0500 (Central Daylight Time),849003.7999999523,A,meado,I,o,151,2,3132.0999999046326,845871.7000000477,8062,WL,A,3.0
7,8.248000144958496,immed,51751.999855041504,Thu Jun 11 2026 14:29:52 GMT-0500 (Central Daylight Time),849136.5999999046,A,meadow,I,w,119,2,3264.899999856949,845871.7000000477,8062,WL,A,3.0
7,8.598000049591064,immed,51401.999950408936,Thu Jun 11 2026 14:29:52 GMT-0500 (Central Daylight Time),849487.0,A,meadowenter,I,enter,331,2,3615.2999999523163,845871.7000000477,8062,WL,A,3.0
7,9.864000082015991,immed,50135.99991798401,Thu Jun 11 2026 14:29:52 GMT-0500 (Central Daylight Time),850753.0999999046,A,r,I,r,1261,2,1265.5999999046326,849487.5,8062,WL,A,4.0
7,10.04800009727478,immed,49951.99990272522,Thu Jun 11 2026 14:29:52 GMT-0500 (Central Daylight Time),850936.399999857,A,ru,I,u,171,2,1448.8999998569489,849487.5,8062,WL,A,4.0
7,10.197999954223633,immed,49802.00004577637,Thu Jun 11 2026 14:29:52 GMT-0500 (Central Daylight Time),851086.2999999523,A,rug,I,g,139,2,1598.7999999523163,849487.5,8062,WL,A,4.0
7,10.46399998664856,immed,49536.00001335144,Thu Jun 11 2026 14:29:52 GMT-0500 (Central Daylight Time),851352.7999999523,A,rugenter,I,enter,252,2,1865.2999999523163,849487.5,8062,WL,A,4.0
7,15.529000043869019,immed,44470.99995613098,Thu Jun 11 2026 14:29:52 GMT-0500 (Central Daylight Time),856417.899999857,A,h,I,h,5051,2,5064.799999952316,851353.0999999046,8062,WL,A,5.0
7,15.67900013923645,immed,44320.99986076355,Thu Jun 11 2026 14:29:52 GMT-0500 (Central Daylight Time),856567.7999999523,A,ha,I,a,129,2,5214.700000047684,851353.0999999046,8062,WL,A,5.0
7,15.828999996185303,immed,44171.0000038147,Thu Jun 11 2026 14:29:52 GMT-0500 (Central Daylight Time),856718.0,A,har,I,r,133,2,5364.900000095367,851353.0999999046,8062,WL,A,5.0
7,16.062999963760376,immed,43937.000036239624,Thu Jun 11 2026 14:29:52 GMT-0500 (Central Daylight Time),856951.2999999523,A,harp,I,p,213,2,5598.200000047684,851353.0999999046,8062,WL,A,5.0
7,16.361999988555908,immed,43638.00001144409,Thu Jun 11 2026 14:29:52 GMT-0500 (Central Daylight Time),857250.899999857,A,harpenter,I,enter,284,2,5897.799999952316,851353.0999999046,8062,WL,A,5.0
7,17.045000076293945,immed,42954.999923706055,Thu Jun 11 2026 14:29:52 GMT-0500 (Central Daylight Time),857934.0,A,f,I,f,673,2,682.9000000953674,857251.0999999046,8062,WL,A,6.0
7,17.144999980926514,immed,42855.000019073486,Thu Jun 11 2026 14:29:52 GMT-0500 (Central Daylight Time),858034.0999999046,A,fi,I,i,94,2,783.0,857251.0999999046,8062,WL,A,6.0
7,17.34500002861023,immed,42654.99997138977,Thu Jun 11 2026 14:29:52 GMT-0500 (Central Daylight Time),858234.0999999046,A,fin,I,n,186,2,983.0,857251.0999999046,8062,WL,A,6.0
7,17.462000131607056,immed,42537.999868392944,Thu Jun 11 2026 14:29:52 GMT-0500 (Central Daylight Time),858350.399999857,A,fing,I,g,98,2,1099.2999999523163,857251.0999999046,8062,WL,A,6.0
7,17.67799997329712,immed,42322.00002670288,Thu Jun 11 2026 14:29:52 GMT-0500 (Central Daylight Time),858567.0999999046,A,finge,I,e,197,2,1316.0,857251.0999999046,8062,WL,A,6.0
7,17.76200008392334,immed,42237.99991607666,Thu Jun 11 2026 14:29:52 GMT-0500 (Central Daylight Time),858650.5999999046,A,finger,I,r,77,2,1399.5,857251.0999999046,8062,WL,A,6.0
7,18.01200008392334,immed,41987.99991607666,Thu Jun 11 2026 14:29:52 GMT-0500 (Central Daylight Time),858900.5,A,fingerenter,I,enter,242,2,1649.4000000953674,857251.0999999046,8062,WL,A,6.0
7,18.278000116348267,immed,41721.99988365173,Thu Jun 11 2026 14:29:52 GMT-0500 (Central Daylight Time),859167.2000000477,A,s,I,s,255,2,266.40000009536743,858900.7999999523,8062,WL,A,7.0
7,18.394999980926514,immed,41605.000019073486,Thu Jun 11 2026 14:29:52 GMT-0500 (Central Daylight Time),859283.7000000477,A,sa,I,a,110,2,382.90000009536743,858900.7999999523,8062,WL,A,7.0
7,18.545000076293945,immed,41454.999923706055,Thu Jun 11 2026 14:29:52 GMT-0500 (Central Daylight Time),859433.5,A,sal,I,l,144,2,532.7000000476837,858900.7999999523,8062,WL,A,7.0
7,18.729000091552734,immed,41270.999908447266,Thu Jun 11 2026 14:29:52 GMT-0500 (Central Daylight Time),859617.7999999523,A,salt,I,t,178,2,717.0,858900.7999999523,8062,WL,A,7.0
7,18.960999965667725,immed,41039.000034332275,Thu Jun 11 2026 14:29:52 GMT-0500 (Central Daylight Time),859850.2000000477,A,saltenter,I,enter,225,2,949.4000000953674,858900.7999999523,8062,WL,A,7.0
7,19.361000061035156,immed,40638.999938964844,Thu Jun 11 2026 14:29:52 GMT-0500 (Central Daylight Time),860249.899999857,A,a,I,a,386,2,399.39999985694885,859850.5,8062,WL,A,8.0
7,19.59500002861023,immed,40404.99997138977,Thu Jun 11 2026 14:29:52 GMT-0500 (Central Daylight Time),860483.5,A,ap,I,p,225,2,633.0,859850.5,8062,WL,A,8.0
7,19.794000148773193,immed,40205.99985122681,Thu Jun 11 2026 14:29:52 GMT-0500 (Central Daylight Time),860683.2000000477,A,app,I,p,192,2,832.7000000476837,859850.5,8062,WL,A,8.0
7,20.078999996185303,immed,39921.0000038147,Thu Jun 11 2026 14:29:52 GMT-0500 (Central Daylight Time),860967.5999999046,A,appl,I,l,264,2,1117.0999999046326,859850.5,8062,WL,A,8.0
7,20.278000116348267,immed,39721.99988365173,Thu Jun 11 2026 14:29:52 GMT-0500 (Central Daylight Time),861166.399999857,A,apple,I,e,187,2,1315.8999998569489,859850.5,8062,WL,A,8.0
7,20.49399995803833,immed,39506.00004196167,Thu Jun 11 2026 14:29:52 GMT-0500 (Central Daylight Time),861382.899999857,A,appleenter,I,enter,197,2,1532.3999998569489,859850.5,8062,WL,A,8.0
7,22.594000101089478,immed,37405.99989891052,Thu Jun 11 2026 14:29:52 GMT-0500 (Central Daylight Time),863482.399999857,A,c,I,c,2093,2,2099.199999809265,861383.2000000477,8062,WL,A,9.0
7,22.710000038146973,immed,37289.99996185303,Thu Jun 11 2026 14:29:52 GMT-0500 (Central Daylight Time),863599.2000000477,A,ch,I,h,97,2,2216.0,861383.2000000477,8062,WL,A,9.0
7,22.80999994277954,immed,37190.00005722046,Thu Jun 11 2026 14:29:52 GMT-0500 (Central Daylight Time),863699.0,A,chi,I,i,84,2,2315.7999999523163,861383.2000000477,8062,WL,A,9.0
7,23.14400005340576,immed,36855.99994659424,Thu Jun 11 2026 14:29:52 GMT-0500 (Central Daylight Time),864032.399999857,A,chim,I,m,313,2,2649.199999809265,861383.2000000477,8062,WL,A,9.0
7,23.575999975204468,immed,36424.00002479553,Thu Jun 11 2026 14:29:52 GMT-0500 (Central Daylight Time),864465.2000000477,A,chimn,I,n,428,2,3082.0,861383.2000000477,8062,WL,A,9.0
7,23.743000030517578,immed,36256.99996948242,Thu Jun 11 2026 14:29:52 GMT-0500 (Central Daylight Time),864632.2000000477,A,chimne,I,e,155,2,3249.0,861383.2000000477,8062,WL,A,9.0
7,23.91000008583069,immed,36089.99991416931,Thu Jun 11 2026 14:29:52 GMT-0500 (Central Daylight Time),864798.899999857,A,chimney,I,y,155,2,3415.699999809265,861383.2000000477,8062,WL,A,9.0
7,24.177000045776367,immed,35822.99995422363,Thu Jun 11 2026 14:29:52 GMT-0500 (Central Daylight Time),865065.399999857,A,chimneyenter,I,enter,254,2,3682.199999809265,861383.2000000477,8062,WL,A,9.0
7,26.192000150680542,immed,33807.99984931946,Thu Jun 11 2026 14:29:52 GMT-0500 (Central Daylight Time),867081.0,A,l,I,l,2011,2,2015.2000000476837,865065.7999999523,8062,WL,A,10.0
7,26.426000118255615,immed,33573.999881744385,Thu Jun 11 2026 14:29:52 GMT-0500 (Central Daylight Time),867314.7000000477,A,lo,I,o,219,2,2248.9000000953674,865065.7999999523,8062,WL,A,10.0
7,26.55900001525879,immed,33440.99998474121,Thu Jun 11 2026 14:29:52 GMT-0500 (Central Daylight Time),867447.899999857,A,log,I,g,113,2,2382.0999999046326,865065.7999999523,8062,WL,A,10.0
7,26.759000062942505,immed,33240.999937057495,Thu Jun 11 2026 14:29:52 GMT-0500 (Central Daylight Time),867647.7000000477,A,logenter,I,enter,179,2,2581.9000000953674,865065.7999999523,8062,WL,A,10.0
7,60.01600003242493,immed,-16.000032424926758,Thu Jun 11 2026 14:29:52 GMT-0500 (Central Daylight Time),900905.0,A,None,I,None,33253,2,33256.90000009537,867648.0999999046,8062,WL,A,11.0
