block_c,block_dur,condition,countdown,datetime,endtime,list,multichar_response,project,response,response_time,session_number,start_end,starttime,subject_id,task,task_vers,trial
,,,,Thu Mar 19 2026 09:09:07 GMT-0500 (Central Daylight Time),,,,I,space,817,1,,,8062,WL,B,
prac,,0,,Thu Mar 19 2026 09:09:07 GMT-0500 (Central Daylight Time),,NA,b,I,b,10952,1,,,8062,WL,B,1.0
prac,,0,,Thu Mar 19 2026 09:09:07 GMT-0500 (Central Daylight Time),,NA,bo,I,o,425,1,,,8062,WL,B,1.0
prac,,0,,Thu Mar 19 2026 09:09:07 GMT-0500 (Central Daylight Time),,NA,boo,I,o,136,1,,,8062,WL,B,1.0
prac,,0,,Thu Mar 19 2026 09:09:07 GMT-0500 (Central Daylight Time),,NA,boos,I,s,418,1,,,8062,WL,B,1.0
prac,,0,,Thu Mar 19 2026 09:09:07 GMT-0500 (Central Daylight Time),,NA,boost,I,t,289,1,,,8062,WL,B,1.0
prac,,0,,Thu Mar 19 2026 09:09:07 GMT-0500 (Central Daylight Time),,NA,boostenter,I,enter,3077,1,,,8062,WL,B,1.0
1,1.5,learn,58500.0,Thu Mar 19 2026 09:09:07 GMT-0500 (Central Daylight Time),144045.39999997616,A,s,I,s,1481,1,1499.2999999523163,142546.10000002384,8062,WL,B,1.0
1,1.7330000400543213,learn,58266.99995994568,Thu Mar 19 2026 09:09:07 GMT-0500 (Central Daylight Time),144278.69999992847,A,st,I,t,213,1,1732.5999999046326,142546.10000002384,8062,WL,B,1.0
1,2.0829999446868896,learn,57917.00005531311,Thu Mar 19 2026 09:09:07 GMT-0500 (Central Daylight Time),144628.39999997616,A,str,I,r,333,1,2082.2999999523163,142546.10000002384,8062,WL,B,1.0
1,2.365999937057495,learn,57634.000062942505,Thu Mar 19 2026 09:09:07 GMT-0500 (Central Daylight Time),144911.5,A,stre,I,e,271,1,2365.399999976158,142546.10000002384,8062,WL,B,1.0
1,2.5160000324249268,learn,57483.99996757507,Thu Mar 19 2026 09:09:07 GMT-0500 (Central Daylight Time),145061.60000002384,A,stree,I,e,132,1,2515.5,142546.10000002384,8062,WL,B,1.0
1,2.7990000247955322,learn,57200.99997520447,Thu Mar 19 2026 09:09:07 GMT-0500 (Central Daylight Time),145344.79999995232,A,street,I,t,270,1,2798.6999999284744,142546.10000002384,8062,WL,B,1.0
1,3.315999984741211,learn,56684.00001525879,Thu Mar 19 2026 09:09:07 GMT-0500 (Central Daylight Time),145861.29999995232,A,streetenter,I,enter,507,1,3315.1999999284744,142546.10000002384,8062,WL,B,1.0
1,3.9820001125335693,learn,56017.99988746643,Thu Mar 19 2026 09:09:07 GMT-0500 (Central Daylight Time),146527.60000002384,A,g,I,g,654,1,665.8000000715256,145861.79999995232,8062,WL,B,2.0
1,4.299000024795532,learn,55700.99997520447,Thu Mar 19 2026 09:09:07 GMT-0500 (Central Daylight Time),146844.69999992847,A,gr,I,r,300,1,982.8999999761581,145861.79999995232,8062,WL,B,2.0
1,4.681999921798706,learn,55318.000078201294,Thu Mar 19 2026 09:09:07 GMT-0500 (Central Daylight Time),147227.60000002384,A,gra,I,a,375,1,1365.8000000715256,145861.79999995232,8062,WL,B,2.0
1,5.015000104904175,learn,54984.999895095825,Thu Mar 19 2026 09:09:07 GMT-0500 (Central Daylight Time),147560.79999995232,A,gras,I,s,320,1,1699.0,145861.79999995232,8062,WL,B,2.0
1,5.315000057220459,learn,54684.99994277954,Thu Mar 19 2026 09:09:07 GMT-0500 (Central Daylight Time),147860.79999995232,A,grass,I,s,283,1,1999.0,145861.79999995232,8062,WL,B,2.0
1,6.115000009536743,learn,53884.99999046326,Thu Mar 19 2026 09:09:07 GMT-0500 (Central Daylight Time),148660.29999995232,A,grassenter,I,enter,791,1,2798.5,145861.79999995232,8062,WL,B,2.0
1,6.781000137329102,learn,53218.9998626709,Thu Mar 19 2026 09:09:07 GMT-0500 (Central Daylight Time),149327.10000002384,A,d,I,d,647,1,666.4000000953674,148660.69999992847,8062,WL,B,3.0
1,7.216000080108643,learn,52783.99991989136,Thu Mar 19 2026 09:09:07 GMT-0500 (Central Daylight Time),149761.39999997616,A,do,I,o,413,1,1100.7000000476837,148660.69999992847,8062,WL,B,3.0
1,7.38100004196167,learn,52618.99995803833,Thu Mar 19 2026 09:09:07 GMT-0500 (Central Daylight Time),149926.79999995232,A,doo,I,o,155,1,1266.1000000238419,148660.69999992847,8062,WL,B,3.0
1,7.748000144958496,learn,52251.999855041504,Thu Mar 19 2026 09:09:07 GMT-0500 (Central Daylight Time),150293.5,A,door,I,r,349,1,1632.8000000715256,148660.69999992847,8062,WL,B,3.0
1,8.281000137329102,learn,51718.9998626709,Thu Mar 19 2026 09:09:07 GMT-0500 (Central Daylight Time),150826.5,A,doorenter,I,enter,518,1,2165.8000000715256,148660.69999992847,8062,WL,B,3.0
1,9.013999938964844,learn,50986.000061035156,Thu Mar 19 2026 09:09:07 GMT-0500 (Central Daylight Time),151559.60000002384,A,a,I,a,713,1,732.8000000715256,150826.79999995232,8062,WL,B,4.0
1,9.347000122070312,learn,50652.99987792969,Thu Mar 19 2026 09:09:07 GMT-0500 (Central Daylight Time),151892.79999995232,A,ar,I,r,316,1,1066.0,150826.79999995232,8062,WL,B,4.0
1,10.02999997138977,learn,49970.00002861023,Thu Mar 19 2026 09:09:07 GMT-0500 (Central Daylight Time),152575.89999997616,A,arm,I,m,670,1,1749.1000000238419,150826.79999995232,8062,WL,B,4.0
1,10.54699993133545,learn,49453.00006866455,Thu Mar 19 2026 09:09:07 GMT-0500 (Central Daylight Time),153092.5,A,armenter,I,enter,500,1,2265.7000000476837,150826.79999995232,8062,WL,B,4.0
1,12.079999923706055,learn,47920.000076293945,Thu Mar 19 2026 09:09:07 GMT-0500 (Central Daylight Time),154625.29999995232,A,p,I,p,1511,1,1532.3999999761581,153092.89999997616,8062,WL,B,5.0
1,12.446000099182129,learn,47553.99990081787,Thu Mar 19 2026 09:09:07 GMT-0500 (Central Daylight Time),154991.89999997616,A,pu,I,u,355,1,1899.0,153092.89999997616,8062,WL,B,5.0
1,12.895999908447266,learn,47104.000091552734,Thu Mar 19 2026 09:09:07 GMT-0500 (Central Daylight Time),155441.79999995232,A,pup,I,p,436,1,2348.899999976158,153092.89999997616,8062,WL,B,5.0
1,13.196000099182129,learn,46803.99990081787,Thu Mar 19 2026 09:09:07 GMT-0500 (Central Daylight Time),155741.69999992847,A,pupi,I,i,290,1,2648.7999999523163,153092.89999997616,8062,WL,B,5.0
1,13.51200008392334,learn,46487.99991607666,Thu Mar 19 2026 09:09:07 GMT-0500 (Central Daylight Time),156058.10000002384,A,pupil,I,l,308,1,2965.2000000476837,153092.89999997616,8062,WL,B,5.0
1,13.878999948501587,learn,46121.00005149841,Thu Mar 19 2026 09:09:07 GMT-0500 (Central Daylight Time),156424.69999992847,A,pupilenter,I,enter,346,1,3331.7999999523163,153092.89999997616,8062,WL,B,5.0
1,14.328999996185303,learn,45671.0000038147,Thu Mar 19 2026 09:09:07 GMT-0500 (Central Daylight Time),156874.60000002384,A,s,I,s,443,1,449.60000002384186,156425.0,8062,WL,B,6.0
1,14.645999908447266,learn,45354.000091552734,Thu Mar 19 2026 09:09:07 GMT-0500 (Central Daylight Time),157191.60000002384,A,st,I,t,305,1,766.6000000238419,156425.0,8062,WL,B,6.0
1,14.92900013923645,learn,45070.99986076355,Thu Mar 19 2026 09:09:07 GMT-0500 (Central Daylight Time),157474.39999997616,A,sta,I,a,268,1,1049.3999999761581,156425.0,8062,WL,B,6.0
1,15.212000131607056,learn,44787.999868392944,Thu Mar 19 2026 09:09:07 GMT-0500 (Central Daylight Time),157757.60000002384,A,star,I,r,275,1,1332.6000000238419,156425.0,8062,WL,B,6.0
1,15.661999940872192,learn,44338.00005912781,Thu Mar 19 2026 09:09:07 GMT-0500 (Central Daylight Time),158207.60000002384,A,starenter,I,enter,438,1,1782.6000000238419,156425.0,8062,WL,B,6.0
1,16.111999988555908,learn,43888.00001144409,Thu Mar 19 2026 09:09:07 GMT-0500 (Central Daylight Time),158657.29999995232,A,l,I,l,444,1,449.5,158207.79999995232,8062,WL,B,7.0
1,16.51099991798401,learn,43489.00008201599,Thu Mar 19 2026 09:09:07 GMT-0500 (Central Daylight Time),159057.19999992847,A,la,I,a,377,1,849.3999999761581,158207.79999995232,8062,WL,B,7.0
1,17.061000108718872,learn,42938.99989128113,Thu Mar 19 2026 09:09:07 GMT-0500 (Central Daylight Time),159607.10000002384,A,lak,I,k,539,1,1399.3000000715256,158207.79999995232,8062,WL,B,7.0
1,17.477999925613403,learn,42522.0000743866,Thu Mar 19 2026 09:09:07 GMT-0500 (Central Daylight Time),160023.79999995232,A,lake,I,e,405,1,1816.0,158207.79999995232,8062,WL,B,7.0
1,18.210999965667725,learn,41789.000034332275,Thu Mar 19 2026 09:09:07 GMT-0500 (Central Daylight Time),160756.60000002384,A,lakeenter,I,enter,716,1,2548.8000000715256,158207.79999995232,8062,WL,B,7.0
1,36.72200012207031,learn,23277.999877929688,Thu Mar 19 2026 09:09:07 GMT-0500 (Central Daylight Time),179267.5,A,f,I,f,18495,1,18510.5,160757.0,8062,WL,B,8.0
1,37.07200002670288,learn,22927.99997329712,Thu Mar 19 2026 09:09:07 GMT-0500 (Central Daylight Time),179617.5,A,fi,I,i,336,1,18860.5,160757.0,8062,WL,B,8.0
1,37.38800001144409,learn,22611.99998855591,Thu Mar 19 2026 09:09:07 GMT-0500 (Central Daylight Time),179934.10000002384,A,fir,I,r,307,1,19177.100000023842,160757.0,8062,WL,B,8.0
1,37.63800001144409,learn,22361.99998855591,Thu Mar 19 2026 09:09:07 GMT-0500 (Central Daylight Time),180184.0,A,fire,I,e,238,1,19427.0,160757.0,8062,WL,B,8.0
1,37.97200012207031,learn,22027.999877929688,Thu Mar 19 2026 09:09:07 GMT-0500 (Central Daylight Time),180517.29999995232,A,fireenter,I,enter,324,1,19760.299999952316,160757.0,8062,WL,B,8.0
1,60.015000104904175,learn,-15.000104904174805,Thu Mar 19 2026 09:09:07 GMT-0500 (Central Daylight Time),202560.29999995232,A,None,I,None,22037,1,22042.699999928474,180517.60000002384,8062,WL,B,9.0
2,0.8330001831054688,learn,59166.99981689453,Thu Mar 19 2026 09:09:07 GMT-0500 (Central Daylight Time),277836.7999999523,A,c,I,c,817,1,833.0,277003.7999999523,8062,WL,B,1.0
2,1.0160000324249268,learn,58983.99996757507,Thu Mar 19 2026 09:09:07 GMT-0500 (Central Daylight Time),278020.10000002384,A,cl,I,l,175,1,1016.3000000715256,277003.7999999523,8062,WL,B,1.0
2,1.2829999923706055,learn,58717.000007629395,Thu Mar 19 2026 09:09:07 GMT-0500 (Central Daylight Time),278286.60000002384,A,clo,I,o,256,1,1282.8000000715256,277003.7999999523,8062,WL,B,1.0
2,1.567000150680542,learn,58432.99984931946,Thu Mar 19 2026 09:09:07 GMT-0500 (Central Daylight Time),278571.10000002384,A,cloc,I,c,270,1,1567.3000000715256,277003.7999999523,8062,WL,B,1.0
2,1.8660001754760742,learn,58133.999824523926,Thu Mar 19 2026 09:09:07 GMT-0500 (Central Daylight Time),278870.10000002384,A,clock,I,k,289,1,1866.3000000715256,277003.7999999523,8062,WL,B,1.0
2,2.8320000171661377,learn,57167.99998283386,Thu Mar 19 2026 09:09:07 GMT-0500 (Central Daylight Time),279836.10000002384,A,clockf,I,f,958,1,2832.3000000715256,277003.7999999523,8062,WL,B,1.0
2,3.1490001678466797,learn,56850.99983215332,Thu Mar 19 2026 09:09:07 GMT-0500 (Central Daylight Time),280152.60000002384,A,clockfi,I,i,296,1,3148.8000000715256,277003.7999999523,8062,WL,B,1.0
2,3.6490001678466797,learn,56350.99983215332,Thu Mar 19 2026 09:09:07 GMT-0500 (Central Daylight Time),280652.60000002384,A,clockfir,I,r,484,1,3648.8000000715256,277003.7999999523,8062,WL,B,1.0
2,3.932000160217285,learn,56067.999839782715,Thu Mar 19 2026 09:09:07 GMT-0500 (Central Daylight Time),280935.6999999285,A,clockfire,I,e,264,1,3931.899999976158,277003.7999999523,8062,WL,B,1.0
2,4.682000160217285,learn,55317.999839782715,Thu Mar 19 2026 09:09:07 GMT-0500 (Central Daylight Time),281685.6999999285,A,clockfirec,I,c,732,1,4681.899999976158,277003.7999999523,8062,WL,B,1.0
2,4.996000051498413,learn,55003.99994850159,Thu Mar 19 2026 09:09:07 GMT-0500 (Central Daylight Time),281999.6999999285,A,clockfireca,I,a,303,1,4995.899999976158,277003.7999999523,8062,WL,B,1.0
2,5.398000001907349,learn,54601.99999809265,Thu Mar 19 2026 09:09:07 GMT-0500 (Central Daylight Time),282402.0,A,clockfirecab,I,b,387,1,5398.200000047684,277003.7999999523,8062,WL,B,1.0
2,5.7820000648498535,learn,54217.99993515015,Thu Mar 19 2026 09:09:07 GMT-0500 (Central Daylight Time),282785.60000002384,A,clockfirecabi,I,i,378,1,5781.800000071526,277003.7999999523,8062,WL,B,1.0
2,7.1650002002716064,learn,52834.99979972839,Thu Mar 19 2026 09:09:07 GMT-0500 (Central Daylight Time),284168.39999997616,A,clockfirecabic,I,c,1363,1,7164.600000023842,277003.7999999523,8062,WL,B,1.0
2,7.498000144958496,learn,52501.999855041504,Thu Mar 19 2026 09:09:07 GMT-0500 (Central Daylight Time),284501.5,A,clockfirecabici,I,i,323,1,7497.700000047684,277003.7999999523,8062,WL,B,1.0
2,7.864000082015991,learn,52135.99991798401,Thu Mar 19 2026 09:09:07 GMT-0500 (Central Daylight Time),284868.1999999285,A,clockfirecabicit,I,t,351,1,7864.399999976158,277003.7999999523,8062,WL,B,1.0
2,8.13100004196167,learn,51868.99995803833,Thu Mar 19 2026 09:09:07 GMT-0500 (Central Daylight Time),285134.5,A,clockfirecabicity,I,y,256,1,8130.700000047684,277003.7999999523,8062,WL,B,1.0
2,10.246999979019165,learn,49753.000020980835,Thu Mar 19 2026 09:09:07 GMT-0500 (Central Daylight Time),287250.39999997616,A,clockfirecabicityp,I,p,2103,1,10246.600000023842,277003.7999999523,8062,WL,B,1.0
2,10.580000162124634,learn,49419.999837875366,Thu Mar 19 2026 09:09:07 GMT-0500 (Central Daylight Time),287583.7999999523,A,clockfirecabicitypu,I,u,314,1,10580.0,277003.7999999523,8062,WL,B,1.0
2,10.880000114440918,learn,49119.99988555908,Thu Mar 19 2026 09:09:07 GMT-0500 (Central Daylight Time),287883.6999999285,A,clockfirecabicitypup,I,p,285,1,10879.899999976158,277003.7999999523,8062,WL,B,1.0
2,11.163000106811523,learn,48836.99989318848,Thu Mar 19 2026 09:09:07 GMT-0500 (Central Daylight Time),288166.7999999523,A,clockfirecabicitypupi,I,i,265,1,11163.0,277003.7999999523,8062,WL,B,1.0
2,11.430000066757202,learn,48569.9999332428,Thu Mar 19 2026 09:09:07 GMT-0500 (Central Daylight Time),288433.39999997616,A,clockfirecabicitypupil,I,l,254,1,11429.600000023842,277003.7999999523,8062,WL,B,1.0
2,13.962000131607056,learn,46037.999868392944,Thu Mar 19 2026 09:09:07 GMT-0500 (Central Daylight Time),290966.0,A,clockfirecabicitypupi,I,backspace,2523,1,13962.200000047684,277003.7999999523,8062,WL,B,1.0
2,15.26200008392334,learn,44737.99991607666,Thu Mar 19 2026 09:09:07 GMT-0500 (Central Daylight Time),292265.7999999523,A,clockfirecabicitypup,I,backspace,1294,1,15262.0,277003.7999999523,8062,WL,B,1.0
2,15.57800006866455,learn,44421.99993133545,Thu Mar 19 2026 09:09:07 GMT-0500 (Central Daylight Time),292582.1999999285,A,clockfirecabicitypu,I,backspace,298,1,15578.399999976158,277003.7999999523,8062,WL,B,1.0
2,15.795000076293945,learn,44204.999923706055,Thu Mar 19 2026 09:09:07 GMT-0500 (Central Daylight Time),292798.6999999285,A,clockfirecabicityp,I,backspace,206,1,15794.899999976158,277003.7999999523,8062,WL,B,1.0
2,16.045000076293945,learn,43954.999923706055,Thu Mar 19 2026 09:09:07 GMT-0500 (Central Daylight Time),293048.6999999285,A,clockfirecabicity,I,backspace,237,1,16044.899999976158,277003.7999999523,8062,WL,B,1.0
2,16.278000116348267,learn,43721.99988365173,Thu Mar 19 2026 09:09:07 GMT-0500 (Central Daylight Time),293281.89999997616,A,clockfirecabicit,I,backspace,219,1,16278.100000023842,277003.7999999523,8062,WL,B,1.0
2,16.511000156402588,learn,43488.99984359741,Thu Mar 19 2026 09:09:07 GMT-0500 (Central Daylight Time),293515.1999999285,A,clockfirecabici,I,backspace,226,1,16511.399999976158,277003.7999999523,8062,WL,B,1.0
2,16.67799997329712,learn,43322.00002670288,Thu Mar 19 2026 09:09:07 GMT-0500 (Central Daylight Time),293681.7999999523,A,clockfirecabic,I,backspace,161,1,16678.0,277003.7999999523,8062,WL,B,1.0
2,16.894999980926514,learn,43105.000019073486,Thu Mar 19 2026 09:09:07 GMT-0500 (Central Daylight Time),293898.39999997616,A,clockfirecabi,I,backspace,203,1,16894.600000023842,277003.7999999523,8062,WL,B,1.0
2,17.07800006866455,learn,42921.99993133545,Thu Mar 19 2026 09:09:07 GMT-0500 (Central Daylight Time),294081.6999999285,A,clockfirecab,I,backspace,178,1,17077.899999976158,277003.7999999523,8062,WL,B,1.0
2,17.278000116348267,learn,42721.99988365173,Thu Mar 19 2026 09:09:07 GMT-0500 (Central Daylight Time),294281.6999999285,A,clockfireca,I,backspace,195,1,17277.899999976158,277003.7999999523,8062,WL,B,1.0
2,17.478000164031982,learn,42521.99983596802,Thu Mar 19 2026 09:09:07 GMT-0500 (Central Daylight Time),294481.60000002384,A,clockfirec,I,backspace,186,1,17477.800000071526,277003.7999999523,8062,WL,B,1.0
2,17.67799997329712,learn,42322.00002670288,Thu Mar 19 2026 09:09:07 GMT-0500 (Central Daylight Time),294681.60000002384,A,clockfire,I,backspace,187,1,17677.800000071526,277003.7999999523,8062,WL,B,1.0
2,17.878000020980835,learn,42121.999979019165,Thu Mar 19 2026 09:09:07 GMT-0500 (Central Daylight Time),294881.6999999285,A,clockfir,I,backspace,195,1,17877.899999976158,277003.7999999523,8062,WL,B,1.0
2,18.094000101089478,learn,41905.99989891052,Thu Mar 19 2026 09:09:07 GMT-0500 (Central Daylight Time),295098.10000002384,A,clockfi,I,backspace,210,1,18094.300000071526,277003.7999999523,8062,WL,B,1.0
2,18.39300012588501,learn,41606.99987411499,Thu Mar 19 2026 09:09:07 GMT-0500 (Central Daylight Time),295398.2999999523,A,clockf,I,backspace,290,1,18394.5,277003.7999999523,8062,WL,B,1.0
2,18.843000173568726,learn,41156.999826431274,Thu Mar 19 2026 09:09:07 GMT-0500 (Central Daylight Time),295847.7999999523,A,clock,I,backspace,438,1,18844.0,277003.7999999523,8062,WL,B,1.0
2,20.026000022888184,learn,39973.99997711182,Thu Mar 19 2026 09:09:07 GMT-0500 (Central Daylight Time),297030.7999999523,A,clockenter,I,enter,1165,1,20027.0,277003.7999999523,8062,WL,B,1.0
2,20.592000007629395,learn,39407.999992370605,Thu Mar 19 2026 09:09:07 GMT-0500 (Central Daylight Time),297597.1999999285,A,f,I,f,550,1,566.0999999046326,297031.10000002384,8062,WL,B,2.0
2,20.842000007629395,learn,39157.999992370605,Thu Mar 19 2026 09:09:07 GMT-0500 (Central Daylight Time),297847.2999999523,A,fi,I,i,239,1,816.1999999284744,297031.10000002384,8062,WL,B,2.0
2,21.159000158309937,learn,38840.99984169006,Thu Mar 19 2026 09:09:07 GMT-0500 (Central Daylight Time),298163.60000002384,A,fir,I,r,308,1,1132.5,297031.10000002384,8062,WL,B,2.0
2,21.409000158309937,learn,38590.99984169006,Thu Mar 19 2026 09:09:07 GMT-0500 (Central Daylight Time),298413.6999999285,A,fire,I,e,232,1,1382.5999999046326,297031.10000002384,8062,WL,B,2.0
2,22.29200005531311,learn,37707.99994468689,Thu Mar 19 2026 09:09:07 GMT-0500 (Central Daylight Time),299296.60000002384,A,fireenter,I,enter,862,1,2265.5,297031.10000002384,8062,WL,B,2.0
2,23.341000080108643,learn,36658.99991989136,Thu Mar 19 2026 09:09:07 GMT-0500 (Central Daylight Time),300346.5,A,c,I,c,1035,1,1049.6000000238419,299296.89999997616,8062,WL,B,3.0
2,23.69099998474121,learn,36309.00001525879,Thu Mar 19 2026 09:09:07 GMT-0500 (Central Daylight Time),300696.39999997616,A,ci,I,i,330,1,1399.5,299296.89999997616,8062,WL,B,3.0
2,23.991000175476074,learn,36008.999824523926,Thu Mar 19 2026 09:09:07 GMT-0500 (Central Daylight Time),300996.10000002384,A,cit,I,t,292,1,1699.2000000476837,299296.89999997616,8062,WL,B,3.0
2,24.20800018310547,learn,35791.99981689453,Thu Mar 19 2026 09:09:07 GMT-0500 (Central Daylight Time),301212.7999999523,A,city,I,y,208,1,1915.8999999761581,299296.89999997616,8062,WL,B,3.0
2,24.85800004005432,learn,35141.99995994568,Thu Mar 19 2026 09:09:07 GMT-0500 (Central Daylight Time),301862.60000002384,A,cityenter,I,enter,640,1,2565.7000000476837,299296.89999997616,8062,WL,B,3.0
2,26.756999969482422,learn,33243.00003051758,Thu Mar 19 2026 09:09:07 GMT-0500 (Central Daylight Time),303762.10000002384,A,c,I,c,1886,1,1899.3000000715256,301862.7999999523,8062,WL,B,4.0
2,27.140000104904175,learn,32859.999895095825,Thu Mar 19 2026 09:09:07 GMT-0500 (Central Daylight Time),304145.2999999523,A,ca,I,a,362,1,2282.5,301862.7999999523,8062,WL,B,4.0
2,27.623000144958496,learn,32376.999855041504,Thu Mar 19 2026 09:09:07 GMT-0500 (Central Daylight Time),304628.2999999523,A,cab,I,b,475,1,2765.5,301862.7999999523,8062,WL,B,4.0
2,27.956000089645386,learn,32043.999910354614,Thu Mar 19 2026 09:09:07 GMT-0500 (Central Daylight Time),304961.5,A,cabi,I,i,328,1,3098.7000000476837,301862.7999999523,8062,WL,B,4.0
2,29.02300000190735,learn,30976.99999809265,Thu Mar 19 2026 09:09:07 GMT-0500 (Central Daylight Time),306027.89999997616,A,cabin,I,n,1060,1,4165.100000023842,301862.7999999523,8062,WL,B,4.0
2,29.67300009727478,learn,30326.99990272522,Thu Mar 19 2026 09:09:07 GMT-0500 (Central Daylight Time),306677.60000002384,A,cabinenter,I,enter,633,1,4814.800000071526,301862.7999999523,8062,WL,B,4.0
2,32.055999994277954,learn,27944.000005722046,Thu Mar 19 2026 09:09:07 GMT-0500 (Central Daylight Time),309060.6999999285,A,s,I,s,2367,1,2382.7999999523163,306677.89999997616,8062,WL,B,5.0
2,32.3050000667572,learn,27694.999933242798,Thu Mar 19 2026 09:09:07 GMT-0500 (Central Daylight Time),309310.10000002384,A,st,I,t,231,1,2632.2000000476837,306677.89999997616,8062,WL,B,5.0
2,32.605000019073486,learn,27394.999980926514,Thu Mar 19 2026 09:09:07 GMT-0500 (Central Daylight Time),309610.1999999285,A,ste,I,e,286,1,2932.2999999523163,306677.89999997616,8062,WL,B,5.0
2,32.7720000743866,learn,27227.999925613403,Thu Mar 19 2026 09:09:07 GMT-0500 (Central Daylight Time),309776.7999999523,A,stee,I,e,154,1,3098.899999976158,306677.89999997616,8062,WL,B,5.0
2,32.98900008201599,learn,27010.99991798401,Thu Mar 19 2026 09:09:07 GMT-0500 (Central Daylight Time),309993.60000002384,A,steer,I,r,212,1,3315.7000000476837,306677.89999997616,8062,WL,B,5.0
2,33.205000162124634,learn,26794.999837875366,Thu Mar 19 2026 09:09:07 GMT-0500 (Central Daylight Time),310209.89999997616,A,steert,I,t,211,1,3532.0,306677.89999997616,8062,WL,B,5.0
2,33.73800015449524,learn,26261.99984550476,Thu Mar 19 2026 09:09:07 GMT-0500 (Central Daylight Time),310743.1999999285,A,steertenter,I,enter,515,1,4065.2999999523163,306677.89999997616,8062,WL,B,5.0
2,35.03800010681152,learn,24961.999893188477,Thu Mar 19 2026 09:09:07 GMT-0500 (Central Daylight Time),312042.6999999285,A,g,I,g,1293,1,1299.1999999284744,310743.5,8062,WL,B,6.0
2,35.30400013923645,learn,24695.99986076355,Thu Mar 19 2026 09:09:07 GMT-0500 (Central Daylight Time),312309.39999997616,A,gr,I,r,250,1,1565.8999999761581,310743.5,8062,WL,B,6.0
2,35.57100009918213,learn,24428.99990081787,Thu Mar 19 2026 09:09:07 GMT-0500 (Central Daylight Time),312575.7999999523,A,gra,I,a,255,1,1832.2999999523163,310743.5,8062,WL,B,6.0
2,35.82100009918213,learn,24178.99990081787,Thu Mar 19 2026 09:09:07 GMT-0500 (Central Daylight Time),312825.7999999523,A,gras,I,s,237,1,2082.2999999523163,310743.5,8062,WL,B,6.0
2,35.9539999961853,learn,24046.000003814697,Thu Mar 19 2026 09:09:07 GMT-0500 (Central Daylight Time),312959.1999999285,A,grass,I,s,123,1,2215.6999999284744,310743.5,8062,WL,B,6.0
2,36.47100019454956,learn,23528.99980545044,Thu Mar 19 2026 09:09:07 GMT-0500 (Central Daylight Time),313475.5,A,grassenter,I,enter,509,1,2732.0,310743.5,8062,WL,B,6.0
2,36.98699998855591,learn,23013.00001144409,Thu Mar 19 2026 09:09:07 GMT-0500 (Central Daylight Time),313992.10000002384,A,d,I,d,497,1,516.3000000715256,313475.7999999523,8062,WL,B,7.0
2,37.337000131607056,learn,22662.999868392944,Thu Mar 19 2026 09:09:07 GMT-0500 (Central Daylight Time),314342.10000002384,A,do,I,o,332,1,866.3000000715256,313475.7999999523,8062,WL,B,7.0
2,37.53700017929077,learn,22462.99982070923,Thu Mar 19 2026 09:09:07 GMT-0500 (Central Daylight Time),314541.89999997616,A,doo,I,o,190,1,1066.1000000238419,313475.7999999523,8062,WL,B,7.0
2,37.937000036239624,learn,22062.999963760376,Thu Mar 19 2026 09:09:07 GMT-0500 (Central Daylight Time),314941.89999997616,A,door,I,r,390,1,1466.1000000238419,313475.7999999523,8062,WL,B,7.0
2,38.40300011634827,learn,21596.999883651733,Thu Mar 19 2026 09:09:07 GMT-0500 (Central Daylight Time),315408.39999997616,A,doorenter,I,enter,447,1,1932.6000000238419,313475.7999999523,8062,WL,B,7.0
2,38.837000131607056,learn,21162.999868392944,Thu Mar 19 2026 09:09:07 GMT-0500 (Central Daylight Time),315841.60000002384,A,a,I,a,419,1,433.0,315408.60000002384,8062,WL,B,8.0
2,39.253000020980835,learn,20746.999979019165,Thu Mar 19 2026 09:09:07 GMT-0500 (Central Daylight Time),316258.10000002384,A,ar,I,r,412,1,849.5,315408.60000002384,8062,WL,B,8.0
2,39.753000020980835,learn,20246.999979019165,Thu Mar 19 2026 09:09:07 GMT-0500 (Central Daylight Time),316757.89999997616,A,arm,I,m,491,1,1349.2999999523163,315408.60000002384,8062,WL,B,8.0
2,40.43600010871887,learn,19563.999891281128,Thu Mar 19 2026 09:09:07 GMT-0500 (Central Daylight Time),317441.1999999285,A,armenter,I,enter,662,1,2032.5999999046326,315408.60000002384,8062,WL,B,8.0
2,42.069000005722046,learn,17930.999994277954,Thu Mar 19 2026 09:09:07 GMT-0500 (Central Daylight Time),319073.7999999523,A,w,I,w,1619,1,1632.2999999523163,317441.5,8062,WL,B,9.0
2,42.485000133514404,learn,17514.999866485596,Thu Mar 19 2026 09:09:07 GMT-0500 (Central Daylight Time),319490.2999999523,A,wi,I,i,410,1,2048.7999999523163,317441.5,8062,WL,B,9.0
2,42.86900019645691,learn,17130.99980354309,Thu Mar 19 2026 09:09:07 GMT-0500 (Central Daylight Time),319873.6999999285,A,wif,I,f,362,1,2432.1999999284744,317441.5,8062,WL,B,9.0
2,43.9520001411438,learn,16047.999858856201,Thu Mar 19 2026 09:09:07 GMT-0500 (Central Daylight Time),320956.60000002384,A,wife,I,e,1075,1,3515.100000023842,317441.5,8062,WL,B,9.0
2,44.88499999046326,learn,15115.000009536743,Thu Mar 19 2026 09:09:07 GMT-0500 (Central Daylight Time),321889.5,A,wifeenter,I,enter,928,1,4448.0,317441.5,8062,WL,B,9.0
2,60.01300001144409,learn,-13.000011444091797,Thu Mar 19 2026 09:09:07 GMT-0500 (Central Daylight Time),337018.2999999523,A,None,I,None,15123,1,15128.5,321889.7999999523,8062,WL,B,10.0
3,0.8669998645782471,learn,59133.00013542175,Thu Mar 19 2026 09:09:07 GMT-0500 (Central Daylight Time),404613.89999997616,A,s,I,s,849,1,866.2999999523163,403747.60000002384,8062,WL,B,1.0
3,1.1499998569488525,learn,58850.00014305115,Thu Mar 19 2026 09:09:07 GMT-0500 (Central Daylight Time),404897.10000002384,A,sk,I,k,262,1,1149.5,403747.60000002384,8062,WL,B,1.0
3,1.432999849319458,learn,58567.00015068054,Thu Mar 19 2026 09:09:07 GMT-0500 (Central Daylight Time),405180.2999999523,A,ski,I,i,267,1,1432.6999999284744,403747.60000002384,8062,WL,B,1.0
3,1.7829999923706055,learn,58217.000007629395,Thu Mar 19 2026 09:09:07 GMT-0500 (Central Daylight Time),405530.1999999285,A,skin,I,n,337,1,1782.5999999046326,403747.60000002384,8062,WL,B,1.0
3,2.615999937057495,learn,57384.000062942505,Thu Mar 19 2026 09:09:07 GMT-0500 (Central Daylight Time),406363.2999999523,A,skinenter,I,enter,825,1,2615.6999999284744,403747.60000002384,8062,WL,B,1.0
3,3.381999969482422,learn,56618.00003051758,Thu Mar 19 2026 09:09:07 GMT-0500 (Central Daylight Time),407129.6999999285,A,f,I,f,761,1,766.1999999284744,406363.5,8062,WL,B,2.0
3,3.7659997940063477,learn,56234.00020599365,Thu Mar 19 2026 09:09:07 GMT-0500 (Central Daylight Time),407512.89999997616,A,fi,I,i,371,1,1149.3999999761581,406363.5,8062,WL,B,2.0
3,4.181999921798706,learn,55818.000078201294,Thu Mar 19 2026 09:09:07 GMT-0500 (Central Daylight Time),407929.39999997616,A,fir,I,r,395,1,1565.8999999761581,406363.5,8062,WL,B,2.0
3,4.48199987411499,learn,55518.00012588501,Thu Mar 19 2026 09:09:07 GMT-0500 (Central Daylight Time),408229.2999999523,A,fire,I,e,283,1,1865.7999999523163,406363.5,8062,WL,B,2.0
3,5.049000024795532,learn,54950.99997520447,Thu Mar 19 2026 09:09:07 GMT-0500 (Central Daylight Time),408795.6999999285,A,fireenter,I,enter,559,1,2432.1999999284744,406363.5,8062,WL,B,2.0
3,5.781999826431274,learn,54218.000173568726,Thu Mar 19 2026 09:09:07 GMT-0500 (Central Daylight Time),409528.89999997616,A,c,I,c,713,1,733.0,408795.89999997616,8062,WL,B,3.0
3,6.098999977111816,learn,53901.00002288818,Thu Mar 19 2026 09:09:07 GMT-0500 (Central Daylight Time),409846.60000002384,A,cl,I,l,308,1,1050.7000000476837,408795.89999997616,8062,WL,B,3.0
3,6.347999811172485,learn,53652.000188827515,Thu Mar 19 2026 09:09:07 GMT-0500 (Central Daylight Time),410095.5,A,clo,I,o,238,1,1299.6000000238419,408795.89999997616,8062,WL,B,3.0
3,6.664999961853027,learn,53335.00003814697,Thu Mar 19 2026 09:09:07 GMT-0500 (Central Daylight Time),410412.0,A,cloc,I,c,301,1,1616.1000000238419,408795.89999997616,8062,WL,B,3.0
3,7.047999858856201,learn,52952.0001411438,Thu Mar 19 2026 09:09:07 GMT-0500 (Central Daylight Time),410795.1999999285,A,clock,I,k,368,1,1999.2999999523163,408795.89999997616,8062,WL,B,3.0
3,7.913999795913696,learn,52086.000204086304,Thu Mar 19 2026 09:09:07 GMT-0500 (Central Daylight Time),411661.60000002384,A,clockenter,I,enter,850,1,2865.7000000476837,408795.89999997616,8062,WL,B,3.0
3,8.830999851226807,learn,51169.00014877319,Thu Mar 19 2026 09:09:07 GMT-0500 (Central Daylight Time),412577.89999997616,A,p,I,p,903,1,916.0,411661.89999997616,8062,WL,B,4.0
3,9.146999835968018,learn,50853.00016403198,Thu Mar 19 2026 09:09:07 GMT-0500 (Central Daylight Time),412894.60000002384,A,pi,I,i,298,1,1232.7000000476837,411661.89999997616,8062,WL,B,4.0
3,9.413999795913696,learn,50586.000204086304,Thu Mar 19 2026 09:09:07 GMT-0500 (Central Daylight Time),413161.10000002384,A,pip,I,p,253,1,1499.2000000476837,411661.89999997616,8062,WL,B,4.0
3,9.81499981880188,learn,50185.00018119812,Thu Mar 19 2026 09:09:07 GMT-0500 (Central Daylight Time),413562.1999999285,A,pipe,I,e,379,1,1900.2999999523163,411661.89999997616,8062,WL,B,4.0
3,10.163999795913696,learn,49836.000204086304,Thu Mar 19 2026 09:09:07 GMT-0500 (Central Daylight Time),413910.89999997616,A,pipeenter,I,enter,330,1,2249.0,411661.89999997616,8062,WL,B,4.0
3,10.86299991607666,learn,49137.00008392334,Thu Mar 19 2026 09:09:07 GMT-0500 (Central Daylight Time),414610.5,A,c,I,c,694,1,699.3999999761581,413911.10000002384,8062,WL,B,5.0
3,11.212999820709229,learn,48787.00017929077,Thu Mar 19 2026 09:09:07 GMT-0500 (Central Daylight Time),414960.60000002384,A,ca,I,a,330,1,1049.5,413911.10000002384,8062,WL,B,5.0
3,11.52999997138977,learn,48470.00002861023,Thu Mar 19 2026 09:09:07 GMT-0500 (Central Daylight Time),415277.10000002384,A,cab,I,b,299,1,1366.0,413911.10000002384,8062,WL,B,5.0
3,11.878000020980835,learn,48121.999979019165,Thu Mar 19 2026 09:09:07 GMT-0500 (Central Daylight Time),415626.89999997616,A,cabi,I,i,335,1,1715.7999999523163,413911.10000002384,8062,WL,B,5.0
3,12.228999853134155,learn,47771.000146865845,Thu Mar 19 2026 09:09:07 GMT-0500 (Central Daylight Time),415977.10000002384,A,cabin,I,n,330,1,2066.0,413911.10000002384,8062,WL,B,5.0
3,12.611999988555908,learn,47388.00001144409,Thu Mar 19 2026 09:09:07 GMT-0500 (Central Daylight Time),416360.10000002384,A,cabinenter,I,enter,371,1,2449.0,413911.10000002384,8062,WL,B,5.0
3,13.194999933242798,learn,46805.0000667572,Thu Mar 19 2026 09:09:07 GMT-0500 (Central Daylight Time),416943.1999999285,A,s,I,s,564,1,582.8999999761581,416360.2999999523,8062,WL,B,6.0
3,13.460999965667725,learn,46539.000034332275,Thu Mar 19 2026 09:09:07 GMT-0500 (Central Daylight Time),417209.89999997616,A,st,I,t,261,1,849.6000000238419,416360.2999999523,8062,WL,B,6.0
3,13.760999917984009,learn,46239.00008201599,Thu Mar 19 2026 09:09:07 GMT-0500 (Central Daylight Time),417509.7999999523,A,str,I,r,283,1,1149.5,416360.2999999523,8062,WL,B,6.0
3,14.093999862670898,learn,45906.0001373291,Thu Mar 19 2026 09:09:07 GMT-0500 (Central Daylight Time),417842.89999997616,A,stre,I,e,319,1,1482.6000000238419,416360.2999999523,8062,WL,B,6.0
3,14.327999830245972,learn,45672.00016975403,Thu Mar 19 2026 09:09:07 GMT-0500 (Central Daylight Time),418076.2999999523,A,stree,I,e,217,1,1716.0,416360.2999999523,8062,WL,B,6.0
3,14.628000020980835,learn,45371.999979019165,Thu Mar 19 2026 09:09:07 GMT-0500 (Central Daylight Time),418376.1999999285,A,street,I,t,288,1,2015.8999999761581,416360.2999999523,8062,WL,B,6.0
3,15.293999910354614,learn,44706.000089645386,Thu Mar 19 2026 09:09:07 GMT-0500 (Central Daylight Time),419042.6999999285,A,streetenter,I,enter,660,1,2682.399999976158,416360.2999999523,8062,WL,B,6.0
3,16.609999895095825,learn,43390.000104904175,Thu Mar 19 2026 09:09:07 GMT-0500 (Central Daylight Time),420358.6999999285,A,f,I,f,1298,1,1315.6999999284744,419043.0,8062,WL,B,7.0
3,17.043999910354614,learn,42956.000089645386,Thu Mar 19 2026 09:09:07 GMT-0500 (Central Daylight Time),420792.10000002384,A,fi,I,i,414,1,1749.1000000238419,419043.0,8062,WL,B,7.0
3,18.05999994277954,learn,41940.00005722046,Thu Mar 19 2026 09:09:07 GMT-0500 (Central Daylight Time),421808.5,A,f,I,backspace,1003,1,2765.5,419043.0,8062,WL,B,7.0
3,18.39299988746643,learn,41607.00011253357,Thu Mar 19 2026 09:09:07 GMT-0500 (Central Daylight Time),422141.60000002384,A,,I,backspace,324,1,3098.600000023842,419043.0,8062,WL,B,7.0
3,19.68999981880188,learn,40310.00018119812,Thu Mar 19 2026 09:09:07 GMT-0500 (Central Daylight Time),423438.6999999285,A,g,I,g,1292,1,4395.699999928474,419043.0,8062,WL,B,7.0
3,19.908999919891357,learn,40091.00008010864,Thu Mar 19 2026 09:09:07 GMT-0500 (Central Daylight Time),423657.89999997616,A,gr,I,r,205,1,4614.899999976158,419043.0,8062,WL,B,7.0
3,20.175999879837036,learn,39824.000120162964,Thu Mar 19 2026 09:09:07 GMT-0500 (Central Daylight Time),423924.1999999285,A,gra,I,a,259,1,4881.199999928474,419043.0,8062,WL,B,7.0
3,20.70899987220764,learn,39291.00012779236,Thu Mar 19 2026 09:09:07 GMT-0500 (Central Daylight Time),424457.5,A,gras,I,s,513,1,5414.5,419043.0,8062,WL,B,7.0
3,20.908999919891357,learn,39091.00008010864,Thu Mar 19 2026 09:09:07 GMT-0500 (Central Daylight Time),424657.5,A,grass,I,s,179,1,5614.5,419043.0,8062,WL,B,7.0
3,21.72499990463257,learn,38275.00009536743,Thu Mar 19 2026 09:09:07 GMT-0500 (Central Daylight Time),425474.0,A,grassenter,I,enter,811,1,6431.0,419043.0,8062,WL,B,7.0
3,22.674999952316284,learn,37325.000047683716,Thu Mar 19 2026 09:09:07 GMT-0500 (Central Daylight Time),426423.5,A,d,I,d,938,1,949.3000000715256,425474.1999999285,8062,WL,B,8.0
3,23.107999801635742,learn,36892.00019836426,Thu Mar 19 2026 09:09:07 GMT-0500 (Central Daylight Time),426856.7999999523,A,do,I,o,413,1,1382.6000000238419,425474.1999999285,8062,WL,B,8.0
3,23.276000022888184,learn,36723.99997711182,Thu Mar 19 2026 09:09:07 GMT-0500 (Central Daylight Time),427024.60000002384,A,doo,I,o,156,1,1550.4000000953674,425474.1999999285,8062,WL,B,8.0
3,23.674999952316284,learn,36325.000047683716,Thu Mar 19 2026 09:09:07 GMT-0500 (Central Daylight Time),427423.2999999523,A,door,I,r,380,1,1949.1000000238419,425474.1999999285,8062,WL,B,8.0
3,24.240999937057495,learn,35759.000062942505,Thu Mar 19 2026 09:09:07 GMT-0500 (Central Daylight Time),427989.6999999285,A,doorenter,I,enter,549,1,2515.5,425474.1999999285,8062,WL,B,8.0
3,24.757999897003174,learn,35242.000102996826,Thu Mar 19 2026 09:09:07 GMT-0500 (Central Daylight Time),428506.39999997616,A,a,I,a,512,1,516.6000000238419,427989.7999999523,8062,WL,B,9.0
3,25.307999849319458,learn,34692.00015068054,Thu Mar 19 2026 09:09:07 GMT-0500 (Central Daylight Time),429056.0,A,ar,I,r,538,1,1066.2000000476837,427989.7999999523,8062,WL,B,9.0
3,25.87399983406067,learn,34126.00016593933,Thu Mar 19 2026 09:09:07 GMT-0500 (Central Daylight Time),429622.6999999285,A,arm,I,m,548,1,1632.8999999761581,427989.7999999523,8062,WL,B,9.0
3,26.823999881744385,learn,33176.000118255615,Thu Mar 19 2026 09:09:07 GMT-0500 (Central Daylight Time),430572.2999999523,A,armenter,I,enter,942,1,2582.5,427989.7999999523,8062,WL,B,9.0
3,27.639999866485596,learn,32360.000133514404,Thu Mar 19 2026 09:09:07 GMT-0500 (Central Daylight Time),431388.7999999523,A,w,I,w,800,1,816.2999999523163,430572.5,8062,WL,B,10.0
3,27.990000009536743,learn,32009.999990463257,Thu Mar 19 2026 09:09:07 GMT-0500 (Central Daylight Time),431738.7999999523,A,wi,I,i,343,1,1166.2999999523163,430572.5,8062,WL,B,10.0
3,28.322999954223633,learn,31677.000045776367,Thu Mar 19 2026 09:09:07 GMT-0500 (Central Daylight Time),432071.89999997616,A,wif,I,f,321,1,1499.3999999761581,430572.5,8062,WL,B,10.0
3,28.639999866485596,learn,31360.000133514404,Thu Mar 19 2026 09:09:07 GMT-0500 (Central Daylight Time),432388.39999997616,A,wife,I,e,309,1,1815.8999999761581,430572.5,8062,WL,B,10.0
3,29.122999906539917,learn,30877.000093460083,Thu Mar 19 2026 09:09:07 GMT-0500 (Central Daylight Time),432871.60000002384,A,wifeenter,I,enter,472,1,2299.100000023842,430572.5,8062,WL,B,10.0
3,30.238999843597412,learn,29761.000156402588,Thu Mar 19 2026 09:09:07 GMT-0500 (Central Daylight Time),433987.89999997616,A,s,I,s,1110,1,1116.1000000238419,432871.7999999523,8062,WL,B,11.0
3,30.60599994659424,learn,29394.00005340576,Thu Mar 19 2026 09:09:07 GMT-0500 (Central Daylight Time),434354.39999997616,A,st,I,t,353,1,1482.6000000238419,432871.7999999523,8062,WL,B,11.0
3,32.888999938964844,learn,27111.000061035156,Thu Mar 19 2026 09:09:07 GMT-0500 (Central Daylight Time),436637.0,A,sta,I,a,2266,1,3765.2000000476837,432871.7999999523,8062,WL,B,11.0
3,33.204999923706055,learn,26795.000076293945,Thu Mar 19 2026 09:09:07 GMT-0500 (Central Daylight Time),436953.60000002384,A,star,I,r,303,1,4081.8000000715256,432871.7999999523,8062,WL,B,11.0
3,33.75499987602234,learn,26245.00012397766,Thu Mar 19 2026 09:09:07 GMT-0500 (Central Daylight Time),437503.39999997616,A,starenter,I,enter,539,1,4631.600000023842,432871.7999999523,8062,WL,B,11.0
3,35.6710000038147,learn,24328.999996185303,Thu Mar 19 2026 09:09:07 GMT-0500 (Central Daylight Time),439419.60000002384,A,s,I,s,1901,1,1915.9000000953674,437503.6999999285,8062,WL,B,12.0
3,36.370999813079834,learn,23629.000186920166,Thu Mar 19 2026 09:09:07 GMT-0500 (Central Daylight Time),440119.39999997616,A,sk,I,k,689,1,2615.7000000476837,437503.6999999285,8062,WL,B,12.0
3,36.65399980545044,learn,23346.00019454956,Thu Mar 19 2026 09:09:07 GMT-0500 (Central Daylight Time),440402.60000002384,A,ski,I,i,269,1,2898.9000000953674,437503.6999999285,8062,WL,B,12.0
3,36.9539999961853,learn,23046.000003814697,Thu Mar 19 2026 09:09:07 GMT-0500 (Central Daylight Time),440702.60000002384,A,skin,I,n,282,1,3198.9000000953674,437503.6999999285,8062,WL,B,12.0
3,37.36999988555908,learn,22630.000114440918,Thu Mar 19 2026 09:09:07 GMT-0500 (Central Daylight Time),441119.0,A,skinenter,I,enter,406,1,3615.3000000715256,437503.6999999285,8062,WL,B,12.0
3,39.36999988555908,learn,20630.000114440918,Thu Mar 19 2026 09:09:07 GMT-0500 (Central Daylight Time),443118.39999997616,A,c,I,c,1982,1,1999.2000000476837,441119.1999999285,8062,WL,B,13.0
3,39.95299983024597,learn,20047.00016975403,Thu Mar 19 2026 09:09:07 GMT-0500 (Central Daylight Time),443701.6999999285,A,ca,I,a,566,1,2582.5,441119.1999999285,8062,WL,B,13.0
3,40.36999988555908,learn,19630.000114440918,Thu Mar 19 2026 09:09:07 GMT-0500 (Central Daylight Time),444118.10000002384,A,cab,I,b,399,1,2998.9000000953674,441119.1999999285,8062,WL,B,13.0
3,40.669999837875366,learn,19330.000162124634,Thu Mar 19 2026 09:09:07 GMT-0500 (Central Daylight Time),444418.0,A,cabi,I,i,294,1,3298.8000000715256,441119.1999999285,8062,WL,B,13.0
3,41.03600001335144,learn,18963.99998664856,Thu Mar 19 2026 09:09:07 GMT-0500 (Central Daylight Time),444784.5,A,cabin,I,n,346,1,3665.3000000715256,441119.1999999285,8062,WL,B,13.0
3,41.45299983024597,learn,18547.00016975403,Thu Mar 19 2026 09:09:07 GMT-0500 (Central Daylight Time),445201.0,A,cabinenter,I,enter,404,1,4081.8000000715256,441119.1999999285,8062,WL,B,13.0
3,42.93499994277954,learn,17065.00005722046,Thu Mar 19 2026 09:09:07 GMT-0500 (Central Daylight Time),446683.89999997616,A,p,I,p,1476,1,1482.7000000476837,445201.1999999285,8062,WL,B,14.0
3,43.282999992370605,learn,16717.000007629395,Thu Mar 19 2026 09:09:07 GMT-0500 (Central Daylight Time),447031.39999997616,A,pi,I,i,342,1,1830.2000000476837,445201.1999999285,8062,WL,B,14.0
3,43.48699998855591,learn,16513.00001144409,Thu Mar 19 2026 09:09:07 GMT-0500 (Central Daylight Time),447235.89999997616,A,pip,I,p,196,1,2034.7000000476837,445201.1999999285,8062,WL,B,14.0
3,43.95199990272522,learn,16048.00009727478,Thu Mar 19 2026 09:09:07 GMT-0500 (Central Daylight Time),447700.39999997616,A,pipe,I,e,448,1,2499.2000000476837,445201.1999999285,8062,WL,B,14.0
3,44.26799988746643,learn,15732.00011253357,Thu Mar 19 2026 09:09:07 GMT-0500 (Central Daylight Time),448016.7999999523,A,pipeenter,I,enter,295,1,2815.600000023842,445201.1999999285,8062,WL,B,14.0
3,45.51799988746643,learn,14482.00011253357,Thu Mar 19 2026 09:09:07 GMT-0500 (Central Daylight Time),449266.5,A,l,I,l,1244,1,1249.3999999761581,448017.10000002384,8062,WL,B,15.0
3,45.83399987220764,learn,14166.000127792358,Thu Mar 19 2026 09:09:07 GMT-0500 (Central Daylight Time),449582.89999997616,A,la,I,a,306,1,1565.7999999523163,448017.10000002384,8062,WL,B,15.0
3,46.151000022888184,learn,13848.999977111816,Thu Mar 19 2026 09:09:07 GMT-0500 (Central Daylight Time),449899.60000002384,A,lak,I,k,309,1,1882.5,448017.10000002384,8062,WL,B,15.0
3,46.46799993515015,learn,13532.000064849854,Thu Mar 19 2026 09:09:07 GMT-0500 (Central Daylight Time),450216.1999999285,A,lake,I,e,297,1,2199.0999999046326,448017.10000002384,8062,WL,B,15.0
3,47.117999792099,learn,12882.000207901001,Thu Mar 19 2026 09:09:07 GMT-0500 (Central Daylight Time),450866.10000002384,A,lakeenter,I,enter,636,1,2849.0,448017.10000002384,8062,WL,B,15.0
4,0.5659999847412109,learn,59434.00001525879,Thu Mar 19 2026 09:09:07 GMT-0500 (Central Daylight Time),521743.7999999523,A,s,I,s,555,1,566.1999999284744,521177.60000002384,8062,WL,B,1.0
4,0.8159999847412109,learn,59184.00001525879,Thu Mar 19 2026 09:09:07 GMT-0500 (Central Daylight Time),521993.6999999285,A,sk,I,k,229,1,816.0999999046326,521177.60000002384,8062,WL,B,1.0
4,1.065999984741211,learn,58934.00001525879,Thu Mar 19 2026 09:09:07 GMT-0500 (Central Daylight Time),522243.6999999285,A,ski,I,i,244,1,1066.0999999046326,521177.60000002384,8062,WL,B,1.0
4,1.4159998893737793,learn,58584.00011062622,Thu Mar 19 2026 09:09:07 GMT-0500 (Central Daylight Time),522593.60000002384,A,skin,I,n,345,1,1416.0,521177.60000002384,8062,WL,B,1.0
4,2.4649999141693115,learn,57535.00008583069,Thu Mar 19 2026 09:09:07 GMT-0500 (Central Daylight Time),523643.10000002384,A,skinenter,I,enter,1043,1,2465.5,521177.60000002384,8062,WL,B,1.0
4,3.547999858856201,learn,56452.0001411438,Thu Mar 19 2026 09:09:07 GMT-0500 (Central Daylight Time),524726.1999999285,A,f,I,f,1067,1,1082.8999999761581,523643.2999999523,8062,WL,B,2.0
4,3.881999969482422,learn,56118.00003051758,Thu Mar 19 2026 09:09:07 GMT-0500 (Central Daylight Time),525059.3999999762,A,fi,I,i,318,1,1416.1000000238419,523643.2999999523,8062,WL,B,2.0
4,4.23199987411499,learn,55768.00012588501,Thu Mar 19 2026 09:09:07 GMT-0500 (Central Daylight Time),525409.2999999523,A,fir,I,r,337,1,1766.0,523643.2999999523,8062,WL,B,2.0
4,4.48199987411499,learn,55518.00012588501,Thu Mar 19 2026 09:09:07 GMT-0500 (Central Daylight Time),525659.1999999285,A,fire,I,e,236,1,2015.8999999761581,523643.2999999523,8062,WL,B,2.0
4,5.0309998989105225,learn,54969.00010108948,Thu Mar 19 2026 09:09:07 GMT-0500 (Central Daylight Time),526209.1999999285,A,fireenter,I,enter,529,1,2565.899999976158,523643.2999999523,8062,WL,B,2.0
4,5.5980000495910645,learn,54401.999950408936,Thu Mar 19 2026 09:09:07 GMT-0500 (Central Daylight Time),526775.5,A,c,I,c,547,1,566.0,526209.5,8062,WL,B,3.0
4,5.898000001907349,learn,54101.99999809265,Thu Mar 19 2026 09:09:07 GMT-0500 (Central Daylight Time),527075.5,A,cl,I,l,285,1,866.0,526209.5,8062,WL,B,3.0
4,6.13100004196167,learn,53868.99995803833,Thu Mar 19 2026 09:09:07 GMT-0500 (Central Daylight Time),527308.7999999523,A,clo,I,o,225,1,1099.2999999523163,526209.5,8062,WL,B,3.0
4,6.46399998664856,learn,53536.00001335144,Thu Mar 19 2026 09:09:07 GMT-0500 (Central Daylight Time),527642.0,A,cloc,I,c,321,1,1432.5,526209.5,8062,WL,B,3.0
4,6.746999979019165,learn,53253.000020980835,Thu Mar 19 2026 09:09:07 GMT-0500 (Central Daylight Time),527925.1999999285,A,clock,I,k,267,1,1715.6999999284744,526209.5,8062,WL,B,3.0
4,7.546999931335449,learn,52453.00006866455,Thu Mar 19 2026 09:09:07 GMT-0500 (Central Daylight Time),528724.8999999762,A,clockenter,I,enter,783,1,2515.399999976158,526209.5,8062,WL,B,3.0
4,12.395999908447266,learn,47604.000091552734,Thu Mar 19 2026 09:09:07 GMT-0500 (Central Daylight Time),533573.3999999762,A,g,I,g,4841,1,4848.200000047684,528725.1999999285,8062,WL,B,4.0
4,12.69599986076355,learn,47304.00013923645,Thu Mar 19 2026 09:09:07 GMT-0500 (Central Daylight Time),533873.2999999523,A,gr,I,r,279,1,5148.100000023842,528725.1999999285,8062,WL,B,4.0
4,13.062000036239624,learn,46937.999963760376,Thu Mar 19 2026 09:09:07 GMT-0500 (Central Daylight Time),534240.0,A,gra,I,a,347,1,5514.800000071526,528725.1999999285,8062,WL,B,4.0
4,13.711999893188477,learn,46288.00010681152,Thu Mar 19 2026 09:09:07 GMT-0500 (Central Daylight Time),534889.6999999285,A,gras,I,s,637,1,6164.5,528725.1999999285,8062,WL,B,4.0
4,13.894999980926514,learn,46105.000019073486,Thu Mar 19 2026 09:09:07 GMT-0500 (Central Daylight Time),535073.1000000238,A,grass,I,s,172,1,6347.900000095367,528725.1999999285,8062,WL,B,4.0
4,14.460999965667725,learn,45539.000034332275,Thu Mar 19 2026 09:09:07 GMT-0500 (Central Daylight Time),535639.6000000238,A,grassenter,I,enter,555,1,6914.400000095367,528725.1999999285,8062,WL,B,4.0
4,15.07699990272522,learn,44923.00009727478,Thu Mar 19 2026 09:09:07 GMT-0500 (Central Daylight Time),536255.8999999762,A,d,I,d,606,1,616.1000000238419,535639.7999999523,8062,WL,B,5.0
4,15.427000045776367,learn,44572.99995422363,Thu Mar 19 2026 09:09:07 GMT-0500 (Central Daylight Time),536605.7999999523,A,do,I,o,332,1,966.0,535639.7999999523,8062,WL,B,5.0
4,15.592999935150146,learn,44407.00006484985,Thu Mar 19 2026 09:09:07 GMT-0500 (Central Daylight Time),536772.3999999762,A,doo,I,o,150,1,1132.6000000238419,535639.7999999523,8062,WL,B,5.0
4,15.90999984741211,learn,44090.00015258789,Thu Mar 19 2026 09:09:07 GMT-0500 (Central Daylight Time),537089.0,A,door,I,r,305,1,1449.2000000476837,535639.7999999523,8062,WL,B,5.0
4,16.259999990463257,learn,43740.00000953674,Thu Mar 19 2026 09:09:07 GMT-0500 (Central Daylight Time),537439.0,A,doorenter,I,enter,331,1,1799.2000000476837,535639.7999999523,8062,WL,B,5.0
4,16.609999895095825,learn,43390.000104904175,Thu Mar 19 2026 09:09:07 GMT-0500 (Central Daylight Time),537788.6999999285,A,a,I,a,341,1,349.39999997615814,537439.2999999523,8062,WL,B,6.0
4,16.960000038146973,learn,43039.99996185303,Thu Mar 19 2026 09:09:07 GMT-0500 (Central Daylight Time),538138.6999999285,A,ar,I,r,344,1,699.3999999761581,537439.2999999523,8062,WL,B,6.0
4,17.442999839782715,learn,42557.000160217285,Thu Mar 19 2026 09:09:07 GMT-0500 (Central Daylight Time),538621.8999999762,A,arm,I,m,474,1,1182.6000000238419,537439.2999999523,8062,WL,B,6.0
4,17.875999927520752,learn,42124.00007247925,Thu Mar 19 2026 09:09:07 GMT-0500 (Central Daylight Time),539055.0,A,armenter,I,enter,423,1,1615.7000000476837,537439.2999999523,8062,WL,B,6.0
4,18.276000022888184,learn,41723.99997711182,Thu Mar 19 2026 09:09:07 GMT-0500 (Central Daylight Time),539454.7999999523,A,s,I,s,390,1,399.60000002384186,539055.1999999285,8062,WL,B,7.0
4,18.942999839782715,learn,41057.000160217285,Thu Mar 19 2026 09:09:07 GMT-0500 (Central Daylight Time),540121.6999999285,A,sk,I,k,663,1,1066.5,539055.1999999285,8062,WL,B,7.0
4,19.22599983215332,learn,40774.00016784668,Thu Mar 19 2026 09:09:07 GMT-0500 (Central Daylight Time),540404.7999999523,A,ski,I,i,268,1,1349.6000000238419,539055.1999999285,8062,WL,B,7.0
4,19.55900001525879,learn,40440.99998474121,Thu Mar 19 2026 09:09:07 GMT-0500 (Central Daylight Time),540738.1000000238,A,skin,I,n,313,1,1682.9000000953674,539055.1999999285,8062,WL,B,7.0
4,20.758999824523926,learn,39241.000175476074,Thu Mar 19 2026 09:09:07 GMT-0500 (Central Daylight Time),541937.6999999285,A,skinenter,I,enter,1187,1,2882.5,539055.1999999285,8062,WL,B,7.0
4,21.424999952316284,learn,38575.000047683716,Thu Mar 19 2026 09:09:07 GMT-0500 (Central Daylight Time),542604.0,A,c,I,c,650,1,666.0,541938.0,8062,WL,B,8.0
4,21.79199981689453,learn,38208.00018310547,Thu Mar 19 2026 09:09:07 GMT-0500 (Central Daylight Time),542970.6000000238,A,ca,I,a,361,1,1032.6000000238419,541938.0,8062,WL,B,8.0
4,22.325000047683716,learn,37674.999952316284,Thu Mar 19 2026 09:09:07 GMT-0500 (Central Daylight Time),543503.6999999285,A,cab,I,b,514,1,1565.6999999284744,541938.0,8062,WL,B,8.0
4,22.641000032424927,learn,37358.99996757507,Thu Mar 19 2026 09:09:07 GMT-0500 (Central Daylight Time),543820.1999999285,A,cabi,I,i,310,1,1882.1999999284744,541938.0,8062,WL,B,8.0
4,23.007999897003174,learn,36992.000102996826,Thu Mar 19 2026 09:09:07 GMT-0500 (Central Daylight Time),544186.8999999762,A,cabin,I,n,353,1,2248.899999976158,541938.0,8062,WL,B,8.0
4,23.391000032424927,learn,36608.99996757507,Thu Mar 19 2026 09:09:07 GMT-0500 (Central Daylight Time),544570.1999999285,A,cabinenter,I,enter,363,1,2632.1999999284744,541938.0,8062,WL,B,8.0
4,23.79099988937378,learn,36209.00011062622,Thu Mar 19 2026 09:09:07 GMT-0500 (Central Daylight Time),544969.8999999762,A,p,I,p,379,1,399.5,544570.3999999762,8062,WL,B,9.0
4,24.10800004005432,learn,35891.99995994568,Thu Mar 19 2026 09:09:07 GMT-0500 (Central Daylight Time),545286.6000000238,A,pi,I,i,299,1,716.2000000476837,544570.3999999762,8062,WL,B,9.0
4,24.375,learn,35625.0,Thu Mar 19 2026 09:09:07 GMT-0500 (Central Daylight Time),545553.7999999523,A,pip,I,p,263,1,983.3999999761581,544570.3999999762,8062,WL,B,9.0
4,24.756999969482422,learn,35243.00003051758,Thu Mar 19 2026 09:09:07 GMT-0500 (Central Daylight Time),545936.1999999285,A,pipe,I,e,363,1,1365.7999999523163,544570.3999999762,8062,WL,B,9.0
4,25.056999921798706,learn,34943.000078201294,Thu Mar 19 2026 09:09:07 GMT-0500 (Central Daylight Time),546236.1999999285,A,pipeenter,I,enter,292,1,1665.7999999523163,544570.3999999762,8062,WL,B,9.0
4,25.406999826431274,learn,34593.000173568726,Thu Mar 19 2026 09:09:07 GMT-0500 (Central Daylight Time),546585.8999999762,A,w,I,w,344,1,349.5,546236.3999999762,8062,WL,B,10.0
4,27.18999981880188,learn,32810.00018119812,Thu Mar 19 2026 09:09:07 GMT-0500 (Central Daylight Time),548368.8999999762,A,wi,I,i,1770,1,2132.5,546236.3999999762,8062,WL,B,10.0
4,27.572999954223633,learn,32427.000045776367,Thu Mar 19 2026 09:09:07 GMT-0500 (Central Daylight Time),548752.1000000238,A,wif,I,f,372,1,2515.7000000476837,546236.3999999762,8062,WL,B,10.0
4,27.905999898910522,learn,32094.000101089478,Thu Mar 19 2026 09:09:07 GMT-0500 (Central Daylight Time),549085.2999999523,A,wife,I,e,317,1,2848.899999976158,546236.3999999762,8062,WL,B,10.0
4,28.424000024795532,learn,31575.999975204468,Thu Mar 19 2026 09:09:07 GMT-0500 (Central Daylight Time),549602.8999999762,A,wifeenter,I,enter,511,1,3366.5,546236.3999999762,8062,WL,B,10.0
4,28.938999891281128,learn,31061.000108718872,Thu Mar 19 2026 09:09:07 GMT-0500 (Central Daylight Time),550118.2999999523,A,p,I,p,506,1,515.1000000238419,549603.1999999285,8062,WL,B,11.0
4,29.289999961853027,learn,30710.000038146973,Thu Mar 19 2026 09:09:07 GMT-0500 (Central Daylight Time),550469.2999999523,A,pu,I,u,343,1,866.1000000238419,549603.1999999285,8062,WL,B,11.0
4,29.655999898910522,learn,30344.000101089478,Thu Mar 19 2026 09:09:07 GMT-0500 (Central Daylight Time),550834.6999999285,A,pup,I,p,359,1,1231.5,549603.1999999285,8062,WL,B,11.0
4,29.988999843597412,learn,30011.000156402588,Thu Mar 19 2026 09:09:07 GMT-0500 (Central Daylight Time),551167.8999999762,A,pupi,I,i,314,1,1564.7000000476837,549603.1999999285,8062,WL,B,11.0
4,30.289000034332275,learn,29710.999965667725,Thu Mar 19 2026 09:09:07 GMT-0500 (Central Daylight Time),551468.0,A,pupil,I,l,285,1,1864.8000000715256,549603.1999999285,8062,WL,B,11.0
4,30.638999938964844,learn,29361.000061035156,Thu Mar 19 2026 09:09:07 GMT-0500 (Central Daylight Time),551817.8999999762,A,pupilenter,I,enter,346,1,2214.7000000476837,549603.1999999285,8062,WL,B,11.0
4,33.50499987602234,learn,26495.00012397766,Thu Mar 19 2026 09:09:07 GMT-0500 (Central Daylight Time),554683.6000000238,A,l,I,l,2851,1,2865.4000000953674,551818.1999999285,8062,WL,B,12.0
4,33.853999853134155,learn,26146.000146865845,Thu Mar 19 2026 09:09:07 GMT-0500 (Central Daylight Time),555033.2999999523,A,la,I,a,329,1,3215.100000023842,551818.1999999285,8062,WL,B,12.0
4,34.13800001144409,learn,25861.99998855591,Thu Mar 19 2026 09:09:07 GMT-0500 (Central Daylight Time),555316.6000000238,A,lak,I,k,267,1,3498.4000000953674,551818.1999999285,8062,WL,B,12.0
4,34.47099995613098,learn,25529.00004386902,Thu Mar 19 2026 09:09:07 GMT-0500 (Central Daylight Time),555649.8999999762,A,lake,I,e,320,1,3831.7000000476837,551818.1999999285,8062,WL,B,12.0
4,34.98799991607666,learn,25012.00008392334,Thu Mar 19 2026 09:09:07 GMT-0500 (Central Daylight Time),556166.5,A,lakeenter,I,enter,499,1,4348.300000071526,551818.1999999285,8062,WL,B,12.0
4,44.86800003051758,learn,15131.999969482422,Thu Mar 19 2026 09:09:07 GMT-0500 (Central Daylight Time),566046.6000000238,A,a,I,a,9871,1,9879.900000095367,556166.6999999285,8062,WL,B,13.0
4,45.25099992752075,learn,14749.000072479248,Thu Mar 19 2026 09:09:07 GMT-0500 (Central Daylight Time),566430.0,A,ar,I,r,365,1,10263.300000071526,556166.6999999285,8062,WL,B,13.0
4,45.633999824523926,learn,14366.000175476074,Thu Mar 19 2026 09:09:07 GMT-0500 (Central Daylight Time),566812.8999999762,A,arm,I,m,374,1,10646.200000047684,556166.6999999285,8062,WL,B,13.0
4,45.967000007629395,learn,14032.999992370605,Thu Mar 19 2026 09:09:07 GMT-0500 (Central Daylight Time),567146.1999999285,A,armenter,I,enter,328,1,10979.5,556166.6999999285,8062,WL,B,13.0
4,60.01300001144409,learn,-13.000011444091797,Thu Mar 19 2026 09:09:07 GMT-0500 (Central Daylight Time),581192.1999999285,A,None,I,None,14042,1,14045.699999928474,567146.5,8062,WL,B,14.0
5,0.932999849319458,learn,60000.0,Thu Mar 19 2026 09:09:07 GMT-0500 (Central Daylight Time),648470.8999999762,A,s,I,s,915,1,932.8999999761581,647538.0,8062,WL,B,1.0
5,1.182999849319458,learn,60000.0,Thu Mar 19 2026 09:09:07 GMT-0500 (Central Daylight Time),648720.7999999523,A,sk,I,k,230,1,1182.7999999523163,647538.0,8062,WL,B,1.0
5,1.432999849319458,learn,60000.0,Thu Mar 19 2026 09:09:07 GMT-0500 (Central Daylight Time),648970.6999999285,A,ski,I,i,244,1,1432.6999999284744,647538.0,8062,WL,B,1.0
5,1.7329998016357422,learn,60000.0,Thu Mar 19 2026 09:09:07 GMT-0500 (Central Daylight Time),649270.6000000238,A,skin,I,n,290,1,1732.6000000238419,647538.0,8062,WL,B,1.0
5,2.1669998168945312,learn,60000.0,Thu Mar 19 2026 09:09:07 GMT-0500 (Central Daylight Time),649704.1000000238,A,skinenter,I,enter,422,1,2166.100000023842,647538.0,8062,WL,B,1.0
5,2.798999786376953,learn,60000.0,Thu Mar 19 2026 09:09:07 GMT-0500 (Central Daylight Time),650337.0,A,f,I,f,620,1,632.6000000238419,649704.3999999762,8062,WL,B,2.0
5,3.2159998416900635,learn,60000.0,Thu Mar 19 2026 09:09:07 GMT-0500 (Central Daylight Time),650753.3999999762,A,fi,I,i,404,1,1049.0,649704.3999999762,8062,WL,B,2.0
5,3.5819997787475586,learn,60000.0,Thu Mar 19 2026 09:09:07 GMT-0500 (Central Daylight Time),651120.0,A,fir,I,r,356,1,1415.6000000238419,649704.3999999762,8062,WL,B,2.0
5,3.8489999771118164,learn,60000.0,Thu Mar 19 2026 09:09:07 GMT-0500 (Central Daylight Time),651386.6000000238,A,fire,I,e,262,1,1682.2000000476837,649704.3999999762,8062,WL,B,2.0
5,4.398999929428101,learn,60000.0,Thu Mar 19 2026 09:09:07 GMT-0500 (Central Daylight Time),651936.5,A,fireenter,I,enter,539,1,2232.100000023842,649704.3999999762,8062,WL,B,2.0
5,4.914999961853027,learn,60000.0,Thu Mar 19 2026 09:09:07 GMT-0500 (Central Daylight Time),652453.0,A,c,I,c,501,1,516.3000000715256,651936.6999999285,8062,WL,B,3.0
5,5.281999826431274,learn,60000.0,Thu Mar 19 2026 09:09:07 GMT-0500 (Central Daylight Time),652819.5,A,cl,I,l,360,1,882.8000000715256,651936.6999999285,8062,WL,B,3.0
5,5.581999778747559,learn,60000.0,Thu Mar 19 2026 09:09:07 GMT-0500 (Central Daylight Time),653119.2999999523,A,clo,I,o,290,1,1182.6000000238419,651936.6999999285,8062,WL,B,3.0
5,5.881999969482422,learn,60000.0,Thu Mar 19 2026 09:09:07 GMT-0500 (Central Daylight Time),653419.2999999523,A,cloc,I,c,286,1,1482.6000000238419,651936.6999999285,8062,WL,B,3.0
5,6.164999961853027,learn,60000.0,Thu Mar 19 2026 09:09:07 GMT-0500 (Central Daylight Time),653702.5,A,clock,I,k,265,1,1765.8000000715256,651936.6999999285,8062,WL,B,3.0
5,6.632999897003174,learn,60000.0,Thu Mar 19 2026 09:09:07 GMT-0500 (Central Daylight Time),654170.2999999523,A,clockenter,I,enter,454,1,2233.600000023842,651936.6999999285,8062,WL,B,3.0
5,9.363999843597412,learn,60000.0,Thu Mar 19 2026 09:09:07 GMT-0500 (Central Daylight Time),656901.6999999285,A,s,I,s,2723,1,2731.2999999523163,654170.3999999762,8062,WL,B,4.0
5,9.662999868392944,learn,60000.0,Thu Mar 19 2026 09:09:07 GMT-0500 (Central Daylight Time),657201.3999999762,A,st,I,t,287,1,3031.0,654170.3999999762,8062,WL,B,4.0
5,9.962999820709229,learn,60000.0,Thu Mar 19 2026 09:09:07 GMT-0500 (Central Daylight Time),657501.3999999762,A,str,I,r,283,1,3331.0,654170.3999999762,8062,WL,B,4.0
5,10.246999979019165,learn,60000.0,Thu Mar 19 2026 09:09:07 GMT-0500 (Central Daylight Time),657784.6999999285,A,stre,I,e,272,1,3614.2999999523163,654170.3999999762,8062,WL,B,4.0
5,10.412999868392944,learn,60000.0,Thu Mar 19 2026 09:09:07 GMT-0500 (Central Daylight Time),657951.1999999285,A,stree,I,e,157,1,3780.7999999523163,654170.3999999762,8062,WL,B,4.0
5,10.712999820709229,learn,60000.0,Thu Mar 19 2026 09:09:07 GMT-0500 (Central Daylight Time),658251.1999999285,A,street,I,t,285,1,4080.7999999523163,654170.3999999762,8062,WL,B,4.0
5,11.179999828338623,learn,60000.0,Thu Mar 19 2026 09:09:07 GMT-0500 (Central Daylight Time),658717.6999999285,A,streetenter,I,enter,458,1,4547.299999952316,654170.3999999762,8062,WL,B,4.0
5,11.884999990463257,learn,60000.0,Thu Mar 19 2026 09:09:07 GMT-0500 (Central Daylight Time),659422.6000000238,A,g,I,g,684,1,704.7000000476837,658717.8999999762,8062,WL,B,5.0
5,12.078999996185303,learn,60000.0,Thu Mar 19 2026 09:09:07 GMT-0500 (Central Daylight Time),659617.5,A,gr,I,r,182,1,899.6000000238419,658717.8999999762,8062,WL,B,5.0
5,12.345999956130981,learn,60000.0,Thu Mar 19 2026 09:09:07 GMT-0500 (Central Daylight Time),659884.0,A,gra,I,a,260,1,1166.1000000238419,658717.8999999762,8062,WL,B,5.0
5,12.678999900817871,learn,60000.0,Thu Mar 19 2026 09:09:07 GMT-0500 (Central Daylight Time),660217.1000000238,A,gras,I,s,313,1,1499.2000000476837,658717.8999999762,8062,WL,B,5.0
5,12.895999908447266,learn,60000.0,Thu Mar 19 2026 09:09:07 GMT-0500 (Central Daylight Time),660433.7999999523,A,grass,I,s,195,1,1715.8999999761581,658717.8999999762,8062,WL,B,5.0
5,13.328999996185303,learn,60000.0,Thu Mar 19 2026 09:09:07 GMT-0500 (Central Daylight Time),660867.1999999285,A,grassenter,I,enter,428,1,2149.2999999523163,658717.8999999762,8062,WL,B,5.0
5,13.94599986076355,learn,60000.0,Thu Mar 19 2026 09:09:07 GMT-0500 (Central Daylight Time),661483.6999999285,A,d,I,d,601,1,616.1999999284744,660867.5,8062,WL,B,6.0
5,14.34499979019165,learn,60000.0,Thu Mar 19 2026 09:09:07 GMT-0500 (Central Daylight Time),661883.3999999762,A,dp,I,p,393,1,1015.8999999761581,660867.5,8062,WL,B,6.0
5,15.994999885559082,learn,60000.0,Thu Mar 19 2026 09:09:07 GMT-0500 (Central Daylight Time),663532.8999999762,A,d,I,backspace,1633,1,2665.399999976158,660867.5,8062,WL,B,6.0
5,16.527999877929688,learn,60000.0,Thu Mar 19 2026 09:09:07 GMT-0500 (Central Daylight Time),664066.0,A,do,I,o,520,1,3198.5,660867.5,8062,WL,B,6.0
5,16.694999933242798,learn,60000.0,Thu Mar 19 2026 09:09:07 GMT-0500 (Central Daylight Time),664232.6000000238,A,doo,I,o,155,1,3365.100000023842,660867.5,8062,WL,B,6.0
5,17.110999822616577,learn,60000.0,Thu Mar 19 2026 09:09:07 GMT-0500 (Central Daylight Time),664649.1000000238,A,door,I,r,403,1,3781.600000023842,660867.5,8062,WL,B,6.0
5,17.49399995803833,learn,60000.0,Thu Mar 19 2026 09:09:07 GMT-0500 (Central Daylight Time),665032.3999999762,A,doorenter,I,enter,371,1,4164.899999976158,660867.5,8062,WL,B,6.0
5,17.99399995803833,learn,60000.0,Thu Mar 19 2026 09:09:07 GMT-0500 (Central Daylight Time),665532.1999999285,A,a,I,a,484,1,499.5,665032.6999999285,8062,WL,B,7.0
5,18.310999870300293,learn,60000.0,Thu Mar 19 2026 09:09:07 GMT-0500 (Central Daylight Time),665848.6000000238,A,ar,I,r,304,1,815.9000000953674,665032.6999999285,8062,WL,B,7.0
5,18.8439998626709,learn,60000.0,Thu Mar 19 2026 09:09:07 GMT-0500 (Central Daylight Time),666382.1000000238,A,arm,I,m,517,1,1349.4000000953674,665032.6999999285,8062,WL,B,7.0
5,19.26099991798401,learn,60000.0,Thu Mar 19 2026 09:09:07 GMT-0500 (Central Daylight Time),666798.6000000238,A,armenter,I,enter,407,1,1765.9000000953674,665032.6999999285,8062,WL,B,7.0
5,19.676999807357788,learn,60000.0,Thu Mar 19 2026 09:09:07 GMT-0500 (Central Daylight Time),667215.0,A,s,I,s,399,1,416.10000002384186,666798.8999999762,8062,WL,B,8.0
5,20.026999950408936,learn,60000.0,Thu Mar 19 2026 09:09:07 GMT-0500 (Central Daylight Time),667564.8999999762,A,st,I,t,334,1,766.0,666798.8999999762,8062,WL,B,8.0
5,20.276999950408936,learn,60000.0,Thu Mar 19 2026 09:09:07 GMT-0500 (Central Daylight Time),667814.8999999762,A,sta,I,a,232,1,1016.0,666798.8999999762,8062,WL,B,8.0
5,20.543999910354614,learn,60000.0,Thu Mar 19 2026 09:09:07 GMT-0500 (Central Daylight Time),668082.5,A,star,I,r,247,1,1283.6000000238419,666798.8999999762,8062,WL,B,8.0
5,21.042999982833862,learn,60000.0,Thu Mar 19 2026 09:09:07 GMT-0500 (Central Daylight Time),668581.1999999285,A,starenter,I,enter,491,1,1782.2999999523163,666798.8999999762,8062,WL,B,8.0
5,21.575999975204468,learn,60000.0,Thu Mar 19 2026 09:09:07 GMT-0500 (Central Daylight Time),669114.5,A,w,I,w,519,1,533.1000000238419,668581.3999999762,8062,WL,B,9.0
5,21.90999984741211,learn,60000.0,Thu Mar 19 2026 09:09:07 GMT-0500 (Central Daylight Time),669447.6999999285,A,wi,I,i,322,1,866.2999999523163,668581.3999999762,8062,WL,B,9.0
5,22.258999824523926,learn,60000.0,Thu Mar 19 2026 09:09:07 GMT-0500 (Central Daylight Time),669797.3999999762,A,wif,I,f,334,1,1216.0,668581.3999999762,8062,WL,B,9.0
5,22.608999967575073,learn,60000.0,Thu Mar 19 2026 09:09:07 GMT-0500 (Central Daylight Time),670147.5,A,wife,I,e,335,1,1566.1000000238419,668581.3999999762,8062,WL,B,9.0
5,23.008999824523926,learn,60000.0,Thu Mar 19 2026 09:09:07 GMT-0500 (Central Daylight Time),670547.2999999523,A,wifeenter,I,enter,394,1,1965.8999999761581,668581.3999999762,8062,WL,B,9.0
5,23.508999824523926,learn,60000.0,Thu Mar 19 2026 09:09:07 GMT-0500 (Central Daylight Time),671047.1000000238,A,c,I,c,490,1,499.60000002384186,670547.5,8062,WL,B,10.0
5,23.858999967575073,learn,60000.0,Thu Mar 19 2026 09:09:07 GMT-0500 (Central Daylight Time),671397.0,A,ci,I,i,334,1,849.5,670547.5,8062,WL,B,10.0
5,24.174999952316284,learn,60000.0,Thu Mar 19 2026 09:09:07 GMT-0500 (Central Daylight Time),671713.5,A,cit,I,t,303,1,1166.0,670547.5,8062,WL,B,10.0
5,24.47499990463257,learn,60000.0,Thu Mar 19 2026 09:09:07 GMT-0500 (Central Daylight Time),672013.5,A,city,I,y,292,1,1466.0,670547.5,8062,WL,B,10.0
5,24.97499990463257,learn,60000.0,Thu Mar 19 2026 09:09:07 GMT-0500 (Central Daylight Time),672513.5,A,cityenter,I,enter,488,1,1966.0,670547.5,8062,WL,B,10.0
5,25.424999952316284,learn,60000.0,Thu Mar 19 2026 09:09:07 GMT-0500 (Central Daylight Time),672963.1999999285,A,l,I,l,436,1,449.5,672513.6999999285,8062,WL,B,11.0
5,25.741999864578247,learn,60000.0,Thu Mar 19 2026 09:09:07 GMT-0500 (Central Daylight Time),673279.6999999285,A,la,I,a,298,1,766.0,672513.6999999285,8062,WL,B,11.0
5,26.008999824523926,learn,60000.0,Thu Mar 19 2026 09:09:07 GMT-0500 (Central Daylight Time),673546.6000000238,A,lak,I,k,254,1,1032.9000000953674,672513.6999999285,8062,WL,B,11.0
5,26.375,learn,60000.0,Thu Mar 19 2026 09:09:07 GMT-0500 (Central Daylight Time),673912.8999999762,A,lake,I,e,347,1,1399.2000000476837,672513.6999999285,8062,WL,B,11.0
5,26.70799994468689,learn,60000.0,Thu Mar 19 2026 09:09:07 GMT-0500 (Central Daylight Time),674246.1999999285,A,lakeenter,I,enter,324,1,1732.5,672513.6999999285,8062,WL,B,11.0
5,27.390999794006348,learn,60000.0,Thu Mar 19 2026 09:09:07 GMT-0500 (Central Daylight Time),674929.5,A,c,I,c,671,1,683.1000000238419,674246.3999999762,8062,WL,B,12.0
5,27.70799994468689,learn,60000.0,Thu Mar 19 2026 09:09:07 GMT-0500 (Central Daylight Time),675245.8999999762,A,ca,I,a,300,1,999.5,674246.3999999762,8062,WL,B,12.0
5,28.0239999294281,learn,60000.0,Thu Mar 19 2026 09:09:07 GMT-0500 (Central Daylight Time),675562.3999999762,A,cab,I,b,302,1,1316.0,674246.3999999762,8062,WL,B,12.0
5,28.340999841690063,learn,60000.0,Thu Mar 19 2026 09:09:07 GMT-0500 (Central Daylight Time),675879.0,A,cabi,I,i,299,1,1632.6000000238419,674246.3999999762,8062,WL,B,12.0
5,28.640999794006348,learn,60000.0,Thu Mar 19 2026 09:09:07 GMT-0500 (Central Daylight Time),676179.1000000238,A,cabin,I,n,294,1,1932.7000000476837,674246.3999999762,8062,WL,B,12.0
5,29.090999841690063,learn,60000.0,Thu Mar 19 2026 09:09:07 GMT-0500 (Central Daylight Time),676628.6999999285,A,cabinenter,I,enter,435,1,2382.2999999523163,674246.3999999762,8062,WL,B,12.0
5,31.372999906539917,learn,60000.0,Thu Mar 19 2026 09:09:07 GMT-0500 (Central Daylight Time),678911.5,A,p,I,p,2265,1,2282.600000023842,676628.8999999762,8062,WL,B,13.0
5,31.822999954223633,learn,60000.0,Thu Mar 19 2026 09:09:07 GMT-0500 (Central Daylight Time),679361.1999999285,A,pu,I,u,438,1,2732.2999999523163,676628.8999999762,8062,WL,B,13.0
5,32.37299990653992,learn,60000.0,Thu Mar 19 2026 09:09:07 GMT-0500 (Central Daylight Time),679911.1000000238,A,pup,I,p,531,1,3282.2000000476837,676628.8999999762,8062,WL,B,13.0
5,32.65599989891052,learn,60000.0,Thu Mar 19 2026 09:09:07 GMT-0500 (Central Daylight Time),680194.1999999285,A,pupi,I,i,270,1,3565.2999999523163,676628.8999999762,8062,WL,B,13.0
5,32.93899989128113,learn,60000.0,Thu Mar 19 2026 09:09:07 GMT-0500 (Central Daylight Time),680477.5,A,pupil,I,l,275,1,3848.600000023842,676628.8999999762,8062,WL,B,13.0
5,33.32299995422363,learn,60000.0,Thu Mar 19 2026 09:09:07 GMT-0500 (Central Daylight Time),680860.7999999523,A,pupilenter,I,enter,368,1,4231.899999976158,676628.8999999762,8062,WL,B,13.0
5,42.169999837875366,learn,60000.0,Thu Mar 19 2026 09:09:07 GMT-0500 (Central Daylight Time),689708.0,A,c,I,c,8841,1,8846.899999976158,680861.1000000238,8062,WL,B,14.0
5,42.45299983024597,learn,60000.0,Thu Mar 19 2026 09:09:07 GMT-0500 (Central Daylight Time),689991.1999999285,A,ci,I,i,264,1,9130.099999904633,680861.1000000238,8062,WL,B,14.0
5,42.752999782562256,learn,60000.0,Thu Mar 19 2026 09:09:07 GMT-0500 (Central Daylight Time),690291.1999999285,A,cit,I,t,287,1,9430.099999904633,680861.1000000238,8062,WL,B,14.0
5,42.95299983024597,learn,60000.0,Thu Mar 19 2026 09:09:07 GMT-0500 (Central Daylight Time),690491.1000000238,A,city,I,y,194,1,9630.0,680861.1000000238,8062,WL,B,14.0
5,43.55299997329712,learn,60000.0,Thu Mar 19 2026 09:09:07 GMT-0500 (Central Daylight Time),691090.7999999523,A,cityenter,I,enter,594,1,10229.699999928474,680861.1000000238,8062,WL,B,14.0
5,53.59999990463257,learn,60000.0,Thu Mar 19 2026 09:09:07 GMT-0500 (Central Daylight Time),701138.0,A,p,I,p,10042,1,10046.800000071526,691091.1999999285,8062,WL,B,15.0
5,53.882999897003174,learn,60000.0,Thu Mar 19 2026 09:09:07 GMT-0500 (Central Daylight Time),701420.7999999523,A,pi,I,i,267,1,10329.600000023842,691091.1999999285,8062,WL,B,15.0
5,54.132999897003174,learn,60000.0,Thu Mar 19 2026 09:09:07 GMT-0500 (Central Daylight Time),701670.7999999523,A,pip,I,p,240,1,10579.600000023842,691091.1999999285,8062,WL,B,15.0
5,54.54899978637695,learn,60000.0,Thu Mar 19 2026 09:09:07 GMT-0500 (Central Daylight Time),702087.5,A,pipe,I,e,406,1,10996.300000071526,691091.1999999285,8062,WL,B,15.0
5,54.81599998474121,learn,60000.0,Thu Mar 19 2026 09:09:07 GMT-0500 (Central Daylight Time),702353.8999999762,A,pipeenter,I,enter,254,1,11262.700000047684,691091.1999999285,8062,WL,B,15.0
6,0.7999999523162842,distr,59200.000047683716,Thu Mar 19 2026 09:09:07 GMT-0500 (Central Daylight Time),772665.5,B,b,I,b,780,1,799.7000000476837,771865.7999999523,8062,WL,B,1.0
6,1.1659998893737793,distr,58834.00011062622,Thu Mar 19 2026 09:09:07 GMT-0500 (Central Daylight Time),773032.1000000238,B,bu,I,u,356,1,1166.3000000715256,771865.7999999523,8062,WL,B,1.0
6,1.4159998893737793,distr,58584.00011062622,Thu Mar 19 2026 09:09:07 GMT-0500 (Central Daylight Time),773282.0,B,bui,I,i,229,1,1416.2000000476837,771865.7999999523,8062,WL,B,1.0
6,1.6659998893737793,distr,58334.00011062622,Thu Mar 19 2026 09:09:07 GMT-0500 (Central Daylight Time),773531.6999999285,B,buil,I,l,244,1,1665.8999999761581,771865.7999999523,8062,WL,B,1.0
6,2.2660000324249268,distr,57733.99996757507,Thu Mar 19 2026 09:09:07 GMT-0500 (Central Daylight Time),774131.5,B,build,I,d,594,1,2265.7000000476837,771865.7999999523,8062,WL,B,1.0
6,2.5329999923706055,distr,57467.000007629395,Thu Mar 19 2026 09:09:07 GMT-0500 (Central Daylight Time),774398.1000000238,B,buildi,I,i,249,1,2532.3000000715256,771865.7999999523,8062,WL,B,1.0
6,2.8489999771118164,distr,57151.00002288818,Thu Mar 19 2026 09:09:07 GMT-0500 (Central Daylight Time),774714.6999999285,B,buildin,I,n,311,1,2848.899999976158,771865.7999999523,8062,WL,B,1.0
6,3.1659998893737793,distr,56834.00011062622,Thu Mar 19 2026 09:09:07 GMT-0500 (Central Daylight Time),775031.3999999762,B,building,I,g,307,1,3165.600000023842,771865.7999999523,8062,WL,B,1.0
6,4.265000104904175,distr,55734.999895095825,Thu Mar 19 2026 09:09:07 GMT-0500 (Central Daylight Time),776131.0,B,buildingenter,I,enter,1094,1,4265.200000047684,771865.7999999523,8062,WL,B,1.0
6,4.815000057220459,distr,55184.99994277954,Thu Mar 19 2026 09:09:07 GMT-0500 (Central Daylight Time),776680.6000000238,B,v,I,v,530,1,549.4000000953674,776131.1999999285,8062,WL,B,2.0
6,5.148000001907349,distr,54851.99999809265,Thu Mar 19 2026 09:09:07 GMT-0500 (Central Daylight Time),777014.1000000238,B,vi,I,i,325,1,882.9000000953674,776131.1999999285,8062,WL,B,2.0
6,5.3480000495910645,distr,54651.999950408936,Thu Mar 19 2026 09:09:07 GMT-0500 (Central Daylight Time),777213.7999999523,B,vii,I,i,194,1,1082.6000000238419,776131.1999999285,8062,WL,B,2.0
6,7.364000082015991,distr,52635.99991798401,Thu Mar 19 2026 09:09:07 GMT-0500 (Central Daylight Time),779230.0,B,vi,I,backspace,1999,1,3098.8000000715256,776131.1999999285,8062,WL,B,2.0
6,8.063999891281128,distr,51936.00010871887,Thu Mar 19 2026 09:09:07 GMT-0500 (Central Daylight Time),779929.7999999523,B,vil,I,l,680,1,3798.600000023842,776131.1999999285,8062,WL,B,2.0
6,8.19700002670288,distr,51802.99997329712,Thu Mar 19 2026 09:09:07 GMT-0500 (Central Daylight Time),780063.1000000238,B,vill,I,l,116,1,3931.9000000953674,776131.1999999285,8062,WL,B,2.0
6,8.480000019073486,distr,51519.999980926514,Thu Mar 19 2026 09:09:07 GMT-0500 (Central Daylight Time),780346.2999999523,B,villa,I,a,270,1,4215.100000023842,776131.1999999285,8062,WL,B,2.0
6,8.77999997138977,distr,51220.00002861023,Thu Mar 19 2026 09:09:07 GMT-0500 (Central Daylight Time),780646.2999999523,B,villag,I,g,283,1,4515.100000023842,776131.1999999285,8062,WL,B,2.0
6,9.02999997138977,distr,50970.00002861023,Thu Mar 19 2026 09:09:07 GMT-0500 (Central Daylight Time),780896.1000000238,B,village,I,e,231,1,4764.900000095367,776131.1999999285,8062,WL,B,2.0
6,9.579999923706055,distr,50420.000076293945,Thu Mar 19 2026 09:09:07 GMT-0500 (Central Daylight Time),781446.0,B,villageenter,I,enter,541,1,5314.800000071526,776131.1999999285,8062,WL,B,2.0
6,10.61299991607666,distr,49387.00008392334,Thu Mar 19 2026 09:09:07 GMT-0500 (Central Daylight Time),782478.8999999762,B,c,I,c,1015,1,1032.6000000238419,781446.2999999523,8062,WL,B,3.0
6,10.895999908447266,distr,49104.000091552734,Thu Mar 19 2026 09:09:07 GMT-0500 (Central Daylight Time),782762.2999999523,B,ce,I,e,263,1,1316.0,781446.2999999523,8062,WL,B,3.0
6,11.229000091552734,distr,48770.999908447266,Thu Mar 19 2026 09:09:07 GMT-0500 (Central Daylight Time),783095.2999999523,B,cel,I,l,315,1,1649.0,781446.2999999523,8062,WL,B,3.0
6,11.379999876022339,distr,48620.00012397766,Thu Mar 19 2026 09:09:07 GMT-0500 (Central Daylight Time),783246.0,B,cell,I,l,134,1,1799.7000000476837,781446.2999999523,8062,WL,B,3.0
6,11.628999948501587,distr,48371.00005149841,Thu Mar 19 2026 09:09:07 GMT-0500 (Central Daylight Time),783495.2999999523,B,cellenter,I,enter,239,1,2049.0,781446.2999999523,8062,WL,B,3.0
6,11.961999893188477,distr,48038.00010681152,Thu Mar 19 2026 09:09:07 GMT-0500 (Central Daylight Time),783828.6999999285,B,s,I,s,318,1,333.1999999284744,783495.5,8062,WL,B,4.0
6,12.211999893188477,distr,47788.00010681152,Thu Mar 19 2026 09:09:07 GMT-0500 (Central Daylight Time),784078.5,B,st,I,t,241,1,583.0,783495.5,8062,WL,B,4.0
6,12.628999948501587,distr,47371.00005149841,Thu Mar 19 2026 09:09:07 GMT-0500 (Central Daylight Time),784495.0,B,sto,I,o,399,1,999.5,783495.5,8062,WL,B,4.0
6,13.01200008392334,distr,46987.99991607666,Thu Mar 19 2026 09:09:07 GMT-0500 (Central Daylight Time),784878.1999999285,B,stor,I,r,374,1,1382.6999999284744,783495.5,8062,WL,B,4.0
6,13.428999900817871,distr,46571.00009918213,Thu Mar 19 2026 09:09:07 GMT-0500 (Central Daylight Time),785294.6999999285,B,storm,I,m,407,1,1799.1999999284744,783495.5,8062,WL,B,4.0
6,13.812000036239624,distr,46187.999963760376,Thu Mar 19 2026 09:09:07 GMT-0500 (Central Daylight Time),785677.8999999762,B,stormenter,I,enter,375,1,2182.399999976158,783495.5,8062,WL,B,4.0
6,16.17799997329712,distr,43822.00002670288,Thu Mar 19 2026 09:09:07 GMT-0500 (Central Daylight Time),788043.7999999523,B,b,I,b,2360,1,2365.6999999284744,785678.1000000238,8062,WL,B,5.0
6,16.378000020980835,distr,43621.999979019165,Thu Mar 19 2026 09:09:07 GMT-0500 (Central Daylight Time),788243.8999999762,B,ba,I,a,185,1,2565.7999999523163,785678.1000000238,8062,WL,B,5.0
6,16.527999877929688,distr,43472.00012207031,Thu Mar 19 2026 09:09:07 GMT-0500 (Central Daylight Time),788393.8999999762,B,bab,I,b,145,1,2715.7999999523163,785678.1000000238,8062,WL,B,5.0
6,16.844000101089478,distr,43155.99989891052,Thu Mar 19 2026 09:09:07 GMT-0500 (Central Daylight Time),788710.5,B,baby,I,y,308,1,3032.399999976158,785678.1000000238,8062,WL,B,5.0
6,17.377000093460083,distr,42622.99990653992,Thu Mar 19 2026 09:09:07 GMT-0500 (Central Daylight Time),789243.5,B,babyenter,I,enter,519,1,3565.399999976158,785678.1000000238,8062,WL,B,5.0
6,17.710999965667725,distr,42289.000034332275,Thu Mar 19 2026 09:09:07 GMT-0500 (Central Daylight Time),789576.8999999762,B,o,I,o,322,1,333.10000002384186,789243.7999999523,8062,WL,B,6.0
6,18.16000008583069,distr,41839.99991416931,Thu Mar 19 2026 09:09:07 GMT-0500 (Central Daylight Time),790026.6000000238,B,oc,I,c,445,1,782.8000000715256,789243.7999999523,8062,WL,B,6.0
6,18.57699990272522,distr,41423.00009727478,Thu Mar 19 2026 09:09:07 GMT-0500 (Central Daylight Time),790443.1000000238,B,oce,I,e,411,1,1199.3000000715256,789243.7999999523,8062,WL,B,6.0
6,18.89400005340576,distr,41105.99994659424,Thu Mar 19 2026 09:09:07 GMT-0500 (Central Daylight Time),790759.7999999523,B,ocea,I,a,307,1,1516.0,789243.7999999523,8062,WL,B,6.0
6,19.243000030517578,distr,40756.99996948242,Thu Mar 19 2026 09:09:07 GMT-0500 (Central Daylight Time),791109.5,B,ocean,I,n,342,1,1865.7000000476837,789243.7999999523,8062,WL,B,6.0
6,20.042999982833862,distr,39957.00001716614,Thu Mar 19 2026 09:09:07 GMT-0500 (Central Daylight Time),791909.3999999762,B,oceanenter,I,enter,792,1,2665.600000023842,789243.7999999523,8062,WL,B,6.0
6,20.592999935150146,distr,39407.00006484985,Thu Mar 19 2026 09:09:07 GMT-0500 (Central Daylight Time),792459.1999999285,B,p,I,p,536,1,549.6999999284744,791909.5,8062,WL,B,7.0
6,20.825999975204468,distr,39174.00002479553,Thu Mar 19 2026 09:09:07 GMT-0500 (Central Daylight Time),792692.5,B,pa,I,a,226,1,783.0,791909.5,8062,WL,B,7.0
6,21.009999990463257,distr,38990.00000953674,Thu Mar 19 2026 09:09:07 GMT-0500 (Central Daylight Time),792875.8999999762,B,pal,I,l,169,1,966.3999999761581,791909.5,8062,WL,B,7.0
6,21.276000022888184,distr,38723.99997711182,Thu Mar 19 2026 09:09:07 GMT-0500 (Central Daylight Time),793142.2999999523,B,pala,I,a,249,1,1232.7999999523163,791909.5,8062,WL,B,7.0
6,21.542999982833862,distr,38457.00001716614,Thu Mar 19 2026 09:09:07 GMT-0500 (Central Daylight Time),793409.1000000238,B,palac,I,c,255,1,1499.6000000238419,791909.5,8062,WL,B,7.0
6,21.842999935150146,distr,38157.00006484985,Thu Mar 19 2026 09:09:07 GMT-0500 (Central Daylight Time),793709.0,B,palace,I,e,283,1,1799.5,791909.5,8062,WL,B,7.0
6,22.2260000705719,distr,37773.9999294281,Thu Mar 19 2026 09:09:07 GMT-0500 (Central Daylight Time),794091.8999999762,B,palaceenter,I,enter,376,1,2182.399999976158,791909.5,8062,WL,B,7.0
6,23.375999927520752,distr,36624.00007247925,Thu Mar 19 2026 09:09:07 GMT-0500 (Central Daylight Time),795241.6999999285,B,l,I,l,1130,1,1149.5,794092.1999999285,8062,WL,B,8.0
6,23.691999912261963,distr,36308.00008773804,Thu Mar 19 2026 09:09:07 GMT-0500 (Central Daylight Time),795558.2999999523,B,li,I,i,307,1,1466.1000000238419,794092.1999999285,8062,WL,B,8.0
6,23.992000102996826,distr,36007.999897003174,Thu Mar 19 2026 09:09:07 GMT-0500 (Central Daylight Time),795858.1000000238,B,lip,I,p,295,1,1765.9000000953674,794092.1999999285,8062,WL,B,8.0
6,24.424999952316284,distr,35575.000047683716,Thu Mar 19 2026 09:09:07 GMT-0500 (Central Daylight Time),796291.3999999762,B,lipenter,I,enter,420,1,2199.2000000476837,794092.1999999285,8062,WL,B,8.0
6,25.242000102996826,distr,34757.999897003174,Thu Mar 19 2026 09:09:07 GMT-0500 (Central Daylight Time),797107.6999999285,B,b,I,b,810,1,816.0999999046326,796291.6000000238,8062,WL,B,9.0
6,25.575000047683716,distr,34424.999952316284,Thu Mar 19 2026 09:09:07 GMT-0500 (Central Daylight Time),797441.1000000238,B,ba,I,a,322,1,1149.5,796291.6000000238,8062,WL,B,9.0
6,25.825000047683716,distr,34174.999952316284,Thu Mar 19 2026 09:09:07 GMT-0500 (Central Daylight Time),797690.6999999285,B,bar,I,r,244,1,1399.0999999046326,796291.6000000238,8062,WL,B,9.0
6,26.257999897003174,distr,33742.000102996826,Thu Mar 19 2026 09:09:07 GMT-0500 (Central Daylight Time),798124.2999999523,B,barenter,I,enter,427,1,1832.6999999284744,796291.6000000238,8062,WL,B,9.0
6,26.60800004005432,distr,33391.99995994568,Thu Mar 19 2026 09:09:07 GMT-0500 (Central Daylight Time),798474.1000000238,B,c,I,c,336,1,349.60000002384186,798124.5,8062,WL,B,10.0
6,26.891000032424927,distr,33108.99996757507,Thu Mar 19 2026 09:09:07 GMT-0500 (Central Daylight Time),798757.1999999285,B,co,I,o,267,1,632.6999999284744,798124.5,8062,WL,B,10.0
6,27.20799994468689,distr,32792.00005531311,Thu Mar 19 2026 09:09:07 GMT-0500 (Central Daylight Time),799073.7999999523,B,coi,I,i,296,1,949.2999999523163,798124.5,8062,WL,B,10.0
6,27.573999881744385,distr,32426.000118255615,Thu Mar 19 2026 09:09:07 GMT-0500 (Central Daylight Time),799440.2999999523,B,coin,I,n,356,1,1315.7999999523163,798124.5,8062,WL,B,10.0
6,28.04099988937378,distr,31959.00011062622,Thu Mar 19 2026 09:09:07 GMT-0500 (Central Daylight Time),799906.7999999523,B,coinenter,I,enter,453,1,1782.2999999523163,798124.5,8062,WL,B,10.0
6,35.8050000667572,distr,24194.999933242798,Thu Mar 19 2026 09:09:07 GMT-0500 (Central Daylight Time),807671.1999999285,B,b,I,b,7755,1,7764.099999904633,799907.1000000238,8062,WL,B,11.0
6,36.07200002670288,distr,23927.99997329712,Thu Mar 19 2026 09:09:07 GMT-0500 (Central Daylight Time),807938.0,B,ba,I,a,261,1,8030.899999976158,799907.1000000238,8062,WL,B,11.0
6,36.32200002670288,distr,23677.99997329712,Thu Mar 19 2026 09:09:07 GMT-0500 (Central Daylight Time),808187.6999999285,B,bar,I,r,235,1,8280.599999904633,799907.1000000238,8062,WL,B,11.0
6,36.6710000038147,distr,23328.999996185303,Thu Mar 19 2026 09:09:07 GMT-0500 (Central Daylight Time),808537.3999999762,B,barenter,I,enter,337,1,8630.299999952316,799907.1000000238,8062,WL,B,11.0
6,60.013999938964844,distr,-13.99993896484375,Thu Mar 19 2026 09:09:07 GMT-0500 (Central Daylight Time),831880.6000000238,B,None,I,None,23338,1,23342.900000095367,808537.6999999285,8062,WL,B,12.0
7,1.7000000476837158,immed,58299.999952316284,Thu Mar 19 2026 09:09:07 GMT-0500 (Central Daylight Time),866186.1999999285,A,s,I,s,1679,1,1699.2999999523163,864486.8999999762,8062,WL,B,1.0
7,1.9830000400543213,immed,58016.99995994568,Thu Mar 19 2026 09:09:07 GMT-0500 (Central Daylight Time),866469.3999999762,A,st,I,t,273,1,1982.5,864486.8999999762,8062,WL,B,1.0
7,2.2330000400543213,immed,57766.99995994568,Thu Mar 19 2026 09:09:07 GMT-0500 (Central Daylight Time),866719.1999999285,A,str,I,r,240,1,2232.2999999523163,864486.8999999762,8062,WL,B,1.0
7,2.383000135421753,immed,57616.99986457825,Thu Mar 19 2026 09:09:07 GMT-0500 (Central Daylight Time),866869.1999999285,A,strr,I,r,134,1,2382.2999999523163,864486.8999999762,8062,WL,B,1.0
7,2.5830001831054688,immed,57416.99981689453,Thu Mar 19 2026 09:09:07 GMT-0500 (Central Daylight Time),867069.2999999523,A,strre,I,e,192,1,2582.399999976158,864486.8999999762,8062,WL,B,1.0
7,2.8320000171661377,immed,57167.99998283386,Thu Mar 19 2026 09:09:07 GMT-0500 (Central Daylight Time),867319.1000000238,A,strret,I,t,240,1,2832.2000000476837,864486.8999999762,8062,WL,B,1.0
7,3.382000207901001,immed,56617.999792099,Thu Mar 19 2026 09:09:07 GMT-0500 (Central Daylight Time),867869.1000000238,A,strretenter,I,enter,534,1,3382.2000000476837,864486.8999999762,8062,WL,B,1.0
7,4.882000207901001,immed,55117.999792099,Thu Mar 19 2026 09:09:07 GMT-0500 (Central Daylight Time),869368.7999999523,A,g,I,g,1488,1,1499.5,867869.2999999523,8062,WL,B,2.0
7,5.132000207901001,immed,54867.999792099,Thu Mar 19 2026 09:09:07 GMT-0500 (Central Daylight Time),869618.3999999762,A,gr,I,r,244,1,1749.1000000238419,867869.2999999523,8062,WL,B,2.0
7,5.482000112533569,immed,54517.99988746643,Thu Mar 19 2026 09:09:07 GMT-0500 (Central Daylight Time),869968.2999999523,A,gra,I,a,331,1,2099.0,867869.2999999523,8062,WL,B,2.0
7,5.799000024795532,immed,54200.99997520447,Thu Mar 19 2026 09:09:07 GMT-0500 (Central Daylight Time),870286.1000000238,A,gras,I,s,301,1,2416.8000000715256,867869.2999999523,8062,WL,B,2.0
7,5.932000160217285,immed,54067.999839782715,Thu Mar 19 2026 09:09:07 GMT-0500 (Central Daylight Time),870418.1999999285,A,grass,I,s,127,1,2548.899999976158,867869.2999999523,8062,WL,B,2.0
7,6.382000207901001,immed,53617.999792099,Thu Mar 19 2026 09:09:07 GMT-0500 (Central Daylight Time),870868.1999999285,A,grassenter,I,enter,435,1,2998.899999976158,867869.2999999523,8062,WL,B,2.0
7,6.865000009536743,immed,53134.99999046326,Thu Mar 19 2026 09:09:07 GMT-0500 (Central Daylight Time),871351.2999999523,A,d,I,d,473,1,482.7999999523163,870868.5,8062,WL,B,3.0
7,7.199000120162964,immed,52800.999879837036,Thu Mar 19 2026 09:09:07 GMT-0500 (Central Daylight Time),871685.2999999523,A,do,I,o,329,1,816.7999999523163,870868.5,8062,WL,B,3.0
7,7.332000017166138,immed,52667.99998283386,Thu Mar 19 2026 09:09:07 GMT-0500 (Central Daylight Time),871818.8999999762,A,doo,I,o,118,1,950.3999999761581,870868.5,8062,WL,B,3.0
7,7.615000009536743,immed,52384.99999046326,Thu Mar 19 2026 09:09:07 GMT-0500 (Central Daylight Time),872101.2999999523,A,door,I,r,266,1,1232.7999999523163,870868.5,8062,WL,B,3.0
7,7.948000192642212,immed,52051.99980735779,Thu Mar 19 2026 09:09:07 GMT-0500 (Central Daylight Time),872434.1999999285,A,doorenter,I,enter,312,1,1565.6999999284744,870868.5,8062,WL,B,3.0
7,9.297000169754028,immed,50702.99983024597,Thu Mar 19 2026 09:09:07 GMT-0500 (Central Daylight Time),873784.0,A,w,I,w,1331,1,1349.3999999761581,872434.6000000238,8062,WL,B,4.0
7,9.647000074386597,immed,50352.9999256134,Thu Mar 19 2026 09:09:07 GMT-0500 (Central Daylight Time),874133.7999999523,A,wi,I,i,341,1,1699.1999999284744,872434.6000000238,8062,WL,B,4.0
7,9.96399998664856,immed,50036.00001335144,Thu Mar 19 2026 09:09:07 GMT-0500 (Central Daylight Time),874450.1999999285,A,wif,I,f,295,1,2015.5999999046326,872434.6000000238,8062,WL,B,4.0
7,10.264000177383423,immed,49735.99982261658,Thu Mar 19 2026 09:09:07 GMT-0500 (Central Daylight Time),874750.1999999285,A,wife,I,e,283,1,2315.5999999046326,872434.6000000238,8062,WL,B,4.0
7,10.880000114440918,immed,49119.99988555908,Thu Mar 19 2026 09:09:07 GMT-0500 (Central Daylight Time),875366.6999999285,A,wifeenter,I,enter,607,1,2932.0999999046326,872434.6000000238,8062,WL,B,4.0
7,11.896000146865845,immed,48103.999853134155,Thu Mar 19 2026 09:09:07 GMT-0500 (Central Daylight Time),876383.0,A,s,I,s,1006,1,1015.8999999761581,875367.1000000238,8062,WL,B,5.0
7,12.496000051498413,immed,47503.99994850159,Thu Mar 19 2026 09:09:07 GMT-0500 (Central Daylight Time),876983.0,A,sk,I,k,582,1,1615.8999999761581,875367.1000000238,8062,WL,B,5.0
7,12.713000059127808,immed,47286.99994087219,Thu Mar 19 2026 09:09:07 GMT-0500 (Central Daylight Time),877199.3999999762,A,ski,I,i,206,1,1832.2999999523163,875367.1000000238,8062,WL,B,5.0
7,13.013000011444092,immed,46986.99998855591,Thu Mar 19 2026 09:09:07 GMT-0500 (Central Daylight Time),877499.2999999523,A,skin,I,n,294,1,2132.1999999284744,875367.1000000238,8062,WL,B,5.0
7,13.496000051498413,immed,46503.99994850159,Thu Mar 19 2026 09:09:07 GMT-0500 (Central Daylight Time),877982.6000000238,A,skinenter,I,enter,465,1,2615.5,875367.1000000238,8062,WL,B,5.0
7,15.195000171661377,immed,44804.99982833862,Thu Mar 19 2026 09:09:07 GMT-0500 (Central Daylight Time),879682.1000000238,A,p,I,p,1695,1,1699.2000000476837,877982.8999999762,8062,WL,B,6.0
7,15.462000131607056,immed,44537.999868392944,Thu Mar 19 2026 09:09:07 GMT-0500 (Central Daylight Time),879948.6999999285,A,pi,I,i,259,1,1965.7999999523163,877982.8999999762,8062,WL,B,6.0
7,15.712000131607056,immed,44287.999868392944,Thu Mar 19 2026 09:09:07 GMT-0500 (Central Daylight Time),880198.1999999285,A,pip,I,p,232,1,2215.2999999523163,877982.8999999762,8062,WL,B,6.0
7,16.01200008392334,immed,43987.99991607666,Thu Mar 19 2026 09:09:07 GMT-0500 (Central Daylight Time),880498.5,A,pipe,I,e,295,1,2515.600000023842,877982.8999999762,8062,WL,B,6.0
7,16.32800006866455,immed,43671.99993133545,Thu Mar 19 2026 09:09:07 GMT-0500 (Central Daylight Time),880815.0,A,pipeenter,I,enter,307,1,2832.100000023842,877982.8999999762,8062,WL,B,6.0
7,16.76200008392334,immed,43237.99991607666,Thu Mar 19 2026 09:09:07 GMT-0500 (Central Daylight Time),881248.2999999523,A,p,I,p,422,1,433.10000002384186,880815.1999999285,8062,WL,B,7.0
7,17.045000076293945,immed,42954.999923706055,Thu Mar 19 2026 09:09:07 GMT-0500 (Central Daylight Time),881531.3999999762,A,pi,I,i,269,1,716.2000000476837,880815.1999999285,8062,WL,B,7.0
7,18.094000101089478,immed,41905.99989891052,Thu Mar 19 2026 09:09:07 GMT-0500 (Central Daylight Time),882581.0,A,p,I,backspace,1034,1,1765.8000000715256,880815.1999999285,8062,WL,B,7.0
7,18.694000005722046,immed,41305.999994277954,Thu Mar 19 2026 09:09:07 GMT-0500 (Central Daylight Time),883180.8999999762,A,pu,I,u,584,1,2365.7000000476837,880815.1999999285,8062,WL,B,7.0
7,19.07800006866455,immed,40921.99993133545,Thu Mar 19 2026 09:09:07 GMT-0500 (Central Daylight Time),883564.1999999285,A,pup,I,p,368,1,2749.0,880815.1999999285,8062,WL,B,7.0
7,19.311000108718872,immed,40688.99989128113,Thu Mar 19 2026 09:09:07 GMT-0500 (Central Daylight Time),883797.2999999523,A,pupi,I,i,224,1,2982.100000023842,880815.1999999285,8062,WL,B,7.0
7,19.5770001411438,immed,40422.9998588562,Thu Mar 19 2026 09:09:07 GMT-0500 (Central Daylight Time),884064.0,A,pupil,I,l,248,1,3248.8000000715256,880815.1999999285,8062,WL,B,7.0
7,19.927000045776367,immed,40072.99995422363,Thu Mar 19 2026 09:09:07 GMT-0500 (Central Daylight Time),884413.8999999762,A,pupilenter,I,enter,333,1,3598.7000000476837,880815.1999999285,8062,WL,B,7.0
7,22.277000188827515,immed,37722.999811172485,Thu Mar 19 2026 09:09:07 GMT-0500 (Central Daylight Time),886764.1000000238,A,c,I,c,2343,1,2349.9000000953674,884414.1999999285,8062,WL,B,8.0
7,22.62600016593933,immed,37373.99983406067,Thu Mar 19 2026 09:09:07 GMT-0500 (Central Daylight Time),887113.1000000238,A,cl,I,l,336,1,2698.9000000953674,884414.1999999285,8062,WL,B,8.0
7,22.843000173568726,immed,37156.999826431274,Thu Mar 19 2026 09:09:07 GMT-0500 (Central Daylight Time),887329.7999999523,A,clo,I,o,204,1,2915.600000023842,884414.1999999285,8062,WL,B,8.0
7,23.093000173568726,immed,36906.999826431274,Thu Mar 19 2026 09:09:07 GMT-0500 (Central Daylight Time),887579.7999999523,A,cloc,I,c,244,1,3165.600000023842,884414.1999999285,8062,WL,B,8.0
7,23.30900001525879,immed,36690.99998474121,Thu Mar 19 2026 09:09:07 GMT-0500 (Central Daylight Time),887796.1000000238,A,clock,I,k,201,1,3381.9000000953674,884414.1999999285,8062,WL,B,8.0
7,23.659000158309937,immed,36340.99984169006,Thu Mar 19 2026 09:09:07 GMT-0500 (Central Daylight Time),888146.0,A,clockenter,I,enter,336,1,3731.8000000715256,884414.1999999285,8062,WL,B,8.0
7,24.342000007629395,immed,35657.999992370605,Thu Mar 19 2026 09:09:07 GMT-0500 (Central Daylight Time),888829.1999999285,A,f,I,f,667,1,683.0,888146.1999999285,8062,WL,B,9.0
7,24.659000158309937,immed,35340.99984169006,Thu Mar 19 2026 09:09:07 GMT-0500 (Central Daylight Time),889145.6000000238,A,fi,I,i,304,1,999.4000000953674,888146.1999999285,8062,WL,B,9.0
7,24.942000150680542,immed,35057.99984931946,Thu Mar 19 2026 09:09:07 GMT-0500 (Central Daylight Time),889429.0,A,fir,I,r,268,1,1282.8000000715256,888146.1999999285,8062,WL,B,9.0
7,25.175000190734863,immed,34824.99980926514,Thu Mar 19 2026 09:09:07 GMT-0500 (Central Daylight Time),889662.1999999285,A,fire,I,e,217,1,1516.0,888146.1999999285,8062,WL,B,9.0
7,25.52500009536743,immed,34474.99990463257,Thu Mar 19 2026 09:09:07 GMT-0500 (Central Daylight Time),890011.8999999762,A,fireenter,I,enter,343,1,1865.7000000476837,888146.1999999285,8062,WL,B,9.0
7,55.382000207901,immed,4617.999792098999,Thu Mar 19 2026 09:09:07 GMT-0500 (Central Daylight Time),919869.5,A,a,I,a,29842,1,29857.399999976158,890012.1000000238,8062,WL,B,10.0
7,55.74900007247925,immed,4250.999927520752,Thu Mar 19 2026 09:09:07 GMT-0500 (Central Daylight Time),920235.7999999523,A,ar,I,r,359,1,30223.699999928474,890012.1000000238,8062,WL,B,10.0
7,56.24900007247925,immed,3750.999927520752,Thu Mar 19 2026 09:09:07 GMT-0500 (Central Daylight Time),920735.7999999523,A,arm,I,m,489,1,30723.699999928474,890012.1000000238,8062,WL,B,10.0
7,56.765000104904175,immed,3234.999895095825,Thu Mar 19 2026 09:09:07 GMT-0500 (Central Daylight Time),921252.3999999762,A,armenter,I,enter,501,1,31240.299999952316,890012.1000000238,8062,WL,B,10.0
7,60.015000104904175,immed,-15.000104904174805,Thu Mar 19 2026 09:09:07 GMT-0500 (Central Daylight Time),924501.5,A,None,I,None,3244,1,3248.899999976158,921252.6000000238,8062,WL,B,11.0
