acc_sum,block,block_c,change,condition,correct,correct_response,datetime,endtime,face,project,response,response_time,row_sel,session_number,start_end,starttime,subject_id,task,task_vers,trial
0,prac,1,,1-Back,,,Mon May 12 2025 16:26:39 GMT-0500 (Central Daylight Time),,124_o_f_d_a.png,O,space,9227,1,1,,,7151,VNB,A,0
0,prac,1,0.0,1-Back,0,m,Mon May 12 2025 16:26:39 GMT-0500 (Central Daylight Time),156663.30000007153,071_y_f_n_a.png,O,None,2013,2,1,2801.5,153861.80000007153,7151,VNB,A,1
1,prac,1,0.0,1-Back,1,m,Mon May 12 2025 16:26:39 GMT-0500 (Central Daylight Time),159295.0,165_m_m_h_a.png,O,m,1819,3,1,2619.899999976158,156675.10000002384,7151,VNB,A,2
1,prac,1,0.0,1-Back,0,m,Mon May 12 2025 16:26:39 GMT-0500 (Central Daylight Time),161445.70000004768,109_y_m_d_a.png,O,z,1343,4,1,2139.7000000476837,159306.0,7151,VNB,A,3
2,prac,1,0.0,1-Back,1,m,Mon May 12 2025 16:26:39 GMT-0500 (Central Daylight Time),163878.60000002384,124_o_f_n_a.png,O,m,1589,5,1,2420.2000000476837,161458.39999997616,7151,VNB,A,4
2,prac,1,1.0,1-Back,0,z,Mon May 12 2025 16:26:39 GMT-0500 (Central Daylight Time),166310.20000004768,109_y_m_n_a.png,O,m,1629,6,1,2419.100000023842,163891.10000002384,7151,VNB,A,5
3,prac,1,0.0,1-Back,1,m,Mon May 12 2025 16:26:39 GMT-0500 (Central Daylight Time),168627.10000002384,039_o_m_h_a.png,O,m,1512,7,1,2306.5,166320.60000002384,7151,VNB,A,6
3,prac,1,0.0,1-Back,0,m,Mon May 12 2025 16:26:39 GMT-0500 (Central Daylight Time),170493.80000007153,139_m_f_d_a.png,O,z,1070,8,1,1855.9000000953674,168637.89999997616,7151,VNB,A,7
4,prac,1,1.0,1-Back,1,z,Mon May 12 2025 16:26:39 GMT-0500 (Central Daylight Time),172659.0,071_y_f_d_a.png,O,z,1357,9,1,2154.899999976158,170504.10000002384,7151,VNB,A,8
5,prac,1,0.0,1-Back,1,m,Mon May 12 2025 16:26:39 GMT-0500 (Central Daylight Time),174408.10000002384,165_m_m_n_a.png,O,m,935,10,1,1738.2999999523163,172669.80000007153,7151,VNB,A,9
5,prac,1,0.0,1-Back,0,m,Mon May 12 2025 16:26:39 GMT-0500 (Central Daylight Time),176839.80000007153,124_o_f_h_a.png,O,z,1614,11,1,2420.8000000715256,174419.0,7151,VNB,A,10
5,prac,1,0.0,1-Back,0,m,Mon May 12 2025 16:26:39 GMT-0500 (Central Daylight Time),178973.0,109_y_m_d_a.png,O,z,1346,12,1,2122.899999976158,176850.10000002384,7151,VNB,A,11
0,prac,2,0.0,1-Back,,,Mon May 12 2025 16:26:39 GMT-0500 (Central Daylight Time),178973.0,124_o_f_d_a.png,O,a,3538,1,1,2122.899999976158,176850.10000002384,7151,VNB,A,0
1,prac,2,0.0,1-Back,1,m,Mon May 12 2025 16:26:39 GMT-0500 (Central Daylight Time),187987.0,071_y_f_n_a.png,O,m,1624,2,1,2421.1999999284744,185565.80000007153,7151,VNB,A,1
2,prac,2,0.0,1-Back,1,m,Mon May 12 2025 16:26:39 GMT-0500 (Central Daylight Time),190336.60000002384,165_m_m_h_a.png,O,m,1537,3,1,2339.100000023842,187997.5,7151,VNB,A,2
2,prac,2,0.0,1-Back,0,m,Mon May 12 2025 16:26:39 GMT-0500 (Central Daylight Time),192418.60000002384,109_y_m_d_a.png,O,z,1289,4,1,2072.5,190346.10000002384,7151,VNB,A,3
3,prac,2,0.0,1-Back,1,m,Mon May 12 2025 16:26:39 GMT-0500 (Central Daylight Time),194269.89999997616,124_o_f_n_a.png,O,m,1015,5,1,1839.0999999046326,192430.80000007153,7151,VNB,A,4
3,prac,2,1.0,1-Back,0,z,Mon May 12 2025 16:26:39 GMT-0500 (Central Daylight Time),196234.5,109_y_m_n_a.png,O,m,1161,6,1,1953.2999999523163,194281.20000004768,7151,VNB,A,5
4,prac,2,0.0,1-Back,1,m,Mon May 12 2025 16:26:39 GMT-0500 (Central Daylight Time),198150.80000007153,039_o_m_h_a.png,O,m,1124,7,1,1906.3000000715256,196244.5,7151,VNB,A,6
4,prac,2,0.0,1-Back,0,m,Mon May 12 2025 16:26:39 GMT-0500 (Central Daylight Time),200051.0,139_m_f_d_a.png,O,z,1111,8,1,1889.7999999523163,198161.20000004768,7151,VNB,A,7
5,prac,2,1.0,1-Back,1,z,Mon May 12 2025 16:26:39 GMT-0500 (Central Daylight Time),201683.5,071_y_f_d_a.png,O,z,818,9,1,1621.1999999284744,200062.30000007153,7151,VNB,A,8
6,prac,2,0.0,1-Back,1,m,Mon May 12 2025 16:26:39 GMT-0500 (Central Daylight Time),203282.0,165_m_m_n_a.png,O,m,802,10,1,1588.8999999761581,201693.10000002384,7151,VNB,A,9
7,prac,2,0.0,1-Back,1,m,Mon May 12 2025 16:26:39 GMT-0500 (Central Daylight Time),205397.60000002384,124_o_f_h_a.png,O,m,1288,11,1,2103.600000023842,203294.0,7151,VNB,A,10
7,prac,2,0.0,1-Back,0,m,Mon May 12 2025 16:26:39 GMT-0500 (Central Daylight Time),207183.5,109_y_m_d_a.png,O,z,1012,12,1,1774.8999999761581,205408.60000002384,7151,VNB,A,11
0,test,1,0.0,1-Back,,,Mon May 12 2025 16:26:39 GMT-0500 (Central Daylight Time),207183.5,071_y_f_d_a.png,O,space,7333,1,1,1774.8999999761581,205408.60000002384,7151,VNB,A,0
1,test,1,0.0,1-Back,1,m,Mon May 12 2025 16:26:39 GMT-0500 (Central Daylight Time),225391.80000007153,139_m_f_n_a.png,O,m,1354,2,1,2370.600000023842,223021.20000004768,7151,VNB,A,1
2,test,1,0.0,1-Back,1,m,Mon May 12 2025 16:26:39 GMT-0500 (Central Daylight Time),227690.5,039_o_m_h_a.png,O,m,1276,3,1,2288.399999976158,225402.10000002384,7151,VNB,A,2
2,test,1,1.0,1-Back,0,z,Mon May 12 2025 16:26:39 GMT-0500 (Central Daylight Time),230006.10000002384,165_m_m_h_a.png,O,m,1289,4,1,2307.0,227699.10000002384,7151,VNB,A,3
3,test,1,0.0,1-Back,1,m,Mon May 12 2025 16:26:39 GMT-0500 (Central Daylight Time),232423.30000007153,124_o_f_n_a.png,O,m,1398,5,1,2408.2000000476837,230015.10000002384,7151,VNB,A,4
3,test,1,0.0,1-Back,0,m,Mon May 12 2025 16:26:39 GMT-0500 (Central Daylight Time),235454.20000004768,109_y_m_d_a.png,O,None,2012,6,1,3021.3000000715256,232432.89999997616,7151,VNB,A,5
3,test,1,1.0,1-Back,0,z,Mon May 12 2025 16:26:39 GMT-0500 (Central Daylight Time),238153.70000004768,139_m_f_d_a.png,O,m,1677,7,1,2690.399999976158,235463.30000007153,7151,VNB,A,6
3,test,1,0.0,1-Back,0,m,Mon May 12 2025 16:26:39 GMT-0500 (Central Daylight Time),240120.0,071_y_f_h_a.png,O,z,935,8,1,1957.1999999284744,238162.80000007153,7151,VNB,A,7
4,test,1,0.0,1-Back,1,m,Mon May 12 2025 16:26:39 GMT-0500 (Central Daylight Time),242353.0,039_o_m_n_a.png,O,m,1211,9,1,2224.7999999523163,240128.20000004768,7151,VNB,A,8
4,test,1,0.0,1-Back,0,m,Mon May 12 2025 16:26:39 GMT-0500 (Central Daylight Time),244118.20000004768,109_y_m_h_a.png,O,z,738,10,1,1753.2000000476837,242365.0,7151,VNB,A,9
5,test,1,0.0,1-Back,1,m,Mon May 12 2025 16:26:39 GMT-0500 (Central Daylight Time),246252.60000002384,039_o_m_d_a.png,O,m,1101,11,1,2123.0,244129.60000002384,7151,VNB,A,10
5,test,1,1.0,1-Back,0,z,Mon May 12 2025 16:26:39 GMT-0500 (Central Daylight Time),248334.20000004768,124_o_f_d_a.png,O,m,1065,12,1,2070.600000023842,246263.60000002384,7151,VNB,A,11
6,test,1,0.0,1-Back,1,m,Mon May 12 2025 16:26:39 GMT-0500 (Central Daylight Time),250352.10000002384,165_m_m_n_a.png,O,m,988,13,1,2009.7000000476837,248342.39999997616,7151,VNB,A,12
6,test,1,1.0,1-Back,0,z,Mon May 12 2025 16:26:39 GMT-0500 (Central Daylight Time),252517.39999997616,071_y_f_n_a.png,O,m,1140,14,1,2155.7999999523163,250361.60000002384,7151,VNB,A,13
6,test,1,0.0,1-Back,0,m,Mon May 12 2025 16:26:39 GMT-0500 (Central Daylight Time),254481.60000002384,139_m_f_h_a.png,O,z,940,15,1,1954.0,252527.60000002384,7151,VNB,A,14
7,test,1,0.0,1-Back,1,m,Mon May 12 2025 16:26:39 GMT-0500 (Central Daylight Time),256349.30000007153,165_m_m_d_a.png,O,m,843,16,1,1858.1000000238419,254491.20000004768,7151,VNB,A,15
8,test,1,0.0,1-Back,1,m,Mon May 12 2025 16:26:39 GMT-0500 (Central Daylight Time),258329.60000002384,109_y_m_n_a.png,O,m,958,17,1,1970.7999999523163,256358.80000007153,7151,VNB,A,16
8,test,1,0.0,1-Back,0,m,Mon May 12 2025 16:26:39 GMT-0500 (Central Daylight Time),260046.70000004768,124_o_f_h_a.png,O,z,682,18,1,1709.1000000238419,258337.60000002384,7151,VNB,A,17
0,test,2,0.0,1-Back,,,Mon May 12 2025 16:26:39 GMT-0500 (Central Daylight Time),260046.70000004768,109_y_m_n_a.png,O,space,1140,1,1,1709.1000000238419,258337.60000002384,7151,VNB,A,0
1,test,2,0.0,1-Back,1,m,Mon May 12 2025 16:26:39 GMT-0500 (Central Daylight Time),265510.8000000715,071_y_f_h_a.png,O,m,1270,2,1,2289.3000000715256,263221.5,7151,VNB,A,1
1,test,2,1.0,1-Back,0,m,Mon May 12 2025 16:26:39 GMT-0500 (Central Daylight Time),267279.10000002384,039_o_m_n_a.png,O,z,749,3,1,1758.1000000238419,265521.0,7151,VNB,A,2
2,test,2,0.0,1-Back,1,m,Mon May 12 2025 16:26:39 GMT-0500 (Central Daylight Time),268976.60000002384,139_m_f_d_a.png,O,m,675,4,1,1688.8999999761581,267287.7000000477,7151,VNB,A,3
2,test,2,0.0,1-Back,0,z,Mon May 12 2025 16:26:39 GMT-0500 (Central Daylight Time),271060.0,165_m_m_d_a.png,O,m,1061,5,1,2077.600000023842,268982.39999997616,7151,VNB,A,4
2,test,2,0.0,1-Back,0,m,Mon May 12 2025 16:26:39 GMT-0500 (Central Daylight Time),273009.10000002384,109_y_m_h_a.png,O,z,917,6,1,1938.7999999523163,271070.3000000715,7151,VNB,A,5
2,test,2,1.0,1-Back,0,z,Mon May 12 2025 16:26:39 GMT-0500 (Central Daylight Time),274992.0,124_o_f_h_a.png,O,m,961,7,1,1972.5,273019.5,7151,VNB,A,6
2,test,2,0.0,1-Back,0,m,Mon May 12 2025 16:26:39 GMT-0500 (Central Daylight Time),276693.39999997616,139_m_f_n_a.png,O,z,683,8,1,1691.0,275002.39999997616,7151,VNB,A,7
3,test,2,0.0,1-Back,1,m,Mon May 12 2025 16:26:39 GMT-0500 (Central Daylight Time),278557.5,071_y_f_d_a.png,O,m,838,9,1,1854.8999999761581,276702.60000002384,7151,VNB,A,8
3,test,2,0.0,1-Back,0,m,Mon May 12 2025 16:26:39 GMT-0500 (Central Daylight Time),280190.7000000477,165_m_m_n_a.png,O,z,603,10,1,1623.3000000715256,278567.39999997616,7151,VNB,A,9
4,test,2,1.0,1-Back,1,m,Mon May 12 2025 16:26:39 GMT-0500 (Central Daylight Time),281891.8000000715,139_m_f_h_a.png,O,m,668,11,1,1691.5,280200.3000000715,7151,VNB,A,10
4,test,2,0.0,1-Back,0,z,Mon May 12 2025 16:26:39 GMT-0500 (Central Daylight Time),283672.7000000477,039_o_m_h_a.png,O,m,750,12,1,1770.5,281902.2000000477,7151,VNB,A,11
5,test,2,0.0,1-Back,1,m,Mon May 12 2025 16:26:39 GMT-0500 (Central Daylight Time),285738.39999997616,109_y_m_d_a.png,O,m,1042,13,1,2056.0,283682.39999997616,7151,VNB,A,12
5,test,2,0.0,1-Back,0,m,Mon May 12 2025 16:26:39 GMT-0500 (Central Daylight Time),287305.10000002384,124_o_f_n_a.png,O,z,535,14,1,1557.5,285747.60000002384,7151,VNB,A,13
6,test,2,0.0,1-Back,1,z,Mon May 12 2025 16:26:39 GMT-0500 (Central Daylight Time),289487.8000000715,071_y_f_n_a.png,O,z,1162,15,1,2172.5,287315.3000000715,7151,VNB,A,14
7,test,2,1.0,1-Back,1,m,Mon May 12 2025 16:26:39 GMT-0500 (Central Daylight Time),291420.89999997616,165_m_m_h_a.png,O,m,910,16,1,1922.7999999523163,289498.10000002384,7151,VNB,A,15
8,test,2,0.0,1-Back,1,m,Mon May 12 2025 16:26:39 GMT-0500 (Central Daylight Time),293369.3000000715,124_o_f_d_a.png,O,m,927,17,1,1938.5,291430.8000000715,7151,VNB,A,16
8,test,2,1.0,1-Back,0,z,Mon May 12 2025 16:26:39 GMT-0500 (Central Daylight Time),295086.5,039_o_m_d_a.png,O,m,698,18,1,1708.1000000238419,293378.39999997616,7151,VNB,A,17
0,test,3,1.0,1-Back,,,Mon May 12 2025 16:26:39 GMT-0500 (Central Daylight Time),295086.5,124_o_f_h_a.png,O,space,966,1,1,1708.1000000238419,293378.39999997616,7151,VNB,A,0
1,test,3,0.0,1-Back,1,m,Mon May 12 2025 16:26:39 GMT-0500 (Central Daylight Time),300318.7000000477,139_m_f_d_a.png,O,m,1168,2,1,2189.7000000476837,298129.0,7151,VNB,A,1
2,test,3,1.0,1-Back,1,m,Mon May 12 2025 16:26:39 GMT-0500 (Central Daylight Time),302016.5,165_m_m_n_a.png,O,m,678,3,1,1688.6999999284744,300327.8000000715,7151,VNB,A,2
2,test,3,0.0,1-Back,0,z,Mon May 12 2025 16:26:39 GMT-0500 (Central Daylight Time),303649.8000000715,124_o_f_n_a.png,O,m,601,4,1,1624.2000000476837,302025.60000002384,7151,VNB,A,3
3,test,3,1.0,1-Back,1,m,Mon May 12 2025 16:26:39 GMT-0500 (Central Daylight Time),305248.89999997616,039_o_m_d_a.png,O,m,578,5,1,1588.5,303660.39999997616,7151,VNB,A,4
3,test,3,0.0,1-Back,0,m,Mon May 12 2025 16:26:39 GMT-0500 (Central Daylight Time),306782.3000000715,071_y_f_h_a.png,O,z,505,6,1,1524.8000000715256,305257.5,7151,VNB,A,5
4,test,3,0.0,1-Back,1,z,Mon May 12 2025 16:26:39 GMT-0500 (Central Daylight Time),308366.3000000715,109_y_m_h_a.png,O,z,566,7,1,1575.7000000476837,306790.60000002384,7151,VNB,A,6
5,test,3,0.0,1-Back,1,m,Mon May 12 2025 16:26:39 GMT-0500 (Central Daylight Time),309950.0,139_m_f_n_a.png,O,m,567,8,1,1575.8999999761581,308374.10000002384,7151,VNB,A,7
6,test,3,0.0,1-Back,1,m,Mon May 12 2025 16:26:39 GMT-0500 (Central Daylight Time),311712.10000002384,071_y_f_d_a.png,O,m,744,9,1,1754.2000000476837,309957.89999997616,7151,VNB,A,8
7,test,3,1.0,1-Back,1,m,Mon May 12 2025 16:26:39 GMT-0500 (Central Daylight Time),313329.89999997616,039_o_m_n_a.png,O,m,585,10,1,1610.5999999046326,311719.3000000715,7151,VNB,A,9
7,test,3,0.0,1-Back,0,m,Mon May 12 2025 16:26:39 GMT-0500 (Central Daylight Time),315095.39999997616,165_m_m_h_a.png,O,z,746,11,1,1758.0999999046326,313337.3000000715,7151,VNB,A,10
8,test,3,0.0,1-Back,1,z,Mon May 12 2025 16:26:39 GMT-0500 (Central Daylight Time),316762.39999997616,139_m_f_h_a.png,O,z,643,12,1,1658.0,315104.39999997616,7151,VNB,A,11
9,test,3,1.0,1-Back,1,m,Mon May 12 2025 16:26:39 GMT-0500 (Central Daylight Time),318380.7000000477,124_o_f_d_a.png,O,m,599,13,1,1607.2000000476837,316773.5,7151,VNB,A,12
9,test,3,0.0,1-Back,0,z,Mon May 12 2025 16:26:39 GMT-0500 (Central Daylight Time),320210.7000000477,165_m_m_d_a.png,O,m,808,14,1,1820.6000000238419,318390.10000002384,7151,VNB,A,13
10,test,3,0.0,1-Back,1,m,Mon May 12 2025 16:26:39 GMT-0500 (Central Daylight Time),322143.3000000715,109_y_m_n_a.png,O,m,914,15,1,1924.2000000476837,320219.10000002384,7151,VNB,A,14
10,test,3,1.0,1-Back,0,m,Mon May 12 2025 16:26:39 GMT-0500 (Central Daylight Time),323747.8000000715,039_o_m_h_a.png,O,z,586,16,1,1594.6000000238419,322153.2000000477,7151,VNB,A,15
11,test,3,0.0,1-Back,1,m,Mon May 12 2025 16:26:39 GMT-0500 (Central Daylight Time),325341.89999997616,109_y_m_d_a.png,O,m,580,17,1,1582.0999999046326,323759.8000000715,7151,VNB,A,16
12,test,3,1.0,1-Back,1,m,Mon May 12 2025 16:26:39 GMT-0500 (Central Daylight Time),326892.8000000715,071_y_f_n_a.png,O,m,516,18,1,1540.4000000953674,325352.39999997616,7151,VNB,A,17
0,test,4,1.0,1-Back,,,Mon May 12 2025 16:26:39 GMT-0500 (Central Daylight Time),326892.8000000715,165_m_m_d_a.png,O,space,1023,1,1,1540.4000000953674,325352.39999997616,7151,VNB,A,0
1,test,4,0.0,1-Back,1,z,Mon May 12 2025 16:26:39 GMT-0500 (Central Daylight Time),332057.39999997616,039_o_m_d_a.png,O,z,1085,2,1,2105.899999976158,329951.5,7151,VNB,A,1
2,test,4,0.0,1-Back,1,m,Mon May 12 2025 16:26:39 GMT-0500 (Central Daylight Time),333657.0,109_y_m_h_a.png,O,m,569,3,1,1588.3999999761581,332068.60000002384,7151,VNB,A,2
3,test,4,0.0,1-Back,1,m,Mon May 12 2025 16:26:39 GMT-0500 (Central Daylight Time),335356.10000002384,139_m_f_n_a.png,O,m,674,4,1,1689.8999999761581,333666.2000000477,7151,VNB,A,3
4,test,4,1.0,1-Back,1,m,Mon May 12 2025 16:26:39 GMT-0500 (Central Daylight Time),337005.7000000477,124_o_f_h_a.png,O,m,622,5,1,1639.5,335366.2000000477,7151,VNB,A,4
5,test,4,0.0,1-Back,1,m,Mon May 12 2025 16:26:39 GMT-0500 (Central Daylight Time),338805.60000002384,165_m_m_n_a.png,O,m,772,6,1,1789.2999999523163,337016.3000000715,7151,VNB,A,5
5,test,4,0.0,1-Back,0,m,Mon May 12 2025 16:26:39 GMT-0500 (Central Daylight Time),340554.3000000715,109_y_m_d_a.png,O,z,718,7,1,1738.7000000476837,338815.60000002384,7151,VNB,A,6
6,test,4,1.0,1-Back,1,z,Mon May 12 2025 16:26:39 GMT-0500 (Central Daylight Time),342421.10000002384,071_y_f_d_a.png,O,z,840,8,1,1857.0,340564.10000002384,7151,VNB,A,7
7,test,4,0.0,1-Back,1,m,Mon May 12 2025 16:26:39 GMT-0500 (Central Daylight Time),343953.89999997616,139_m_f_h_a.png,O,m,508,9,1,1521.8999999761581,342432.0,7151,VNB,A,8
7,test,4,0.0,1-Back,0,z,Mon May 12 2025 16:26:39 GMT-0500 (Central Daylight Time),345552.39999997616,039_o_m_h_a.png,O,m,578,10,1,1588.5999999046326,343963.8000000715,7151,VNB,A,9
8,test,4,1.0,1-Back,1,m,Mon May 12 2025 16:26:39 GMT-0500 (Central Daylight Time),347071.60000002384,124_o_f_n_a.png,O,m,499,11,1,1508.7999999523163,345562.8000000715,7151,VNB,A,10
8,test,4,0.0,1-Back,0,m,Mon May 12 2025 16:26:39 GMT-0500 (Central Daylight Time),348718.7000000477,139_m_f_d_a.png,O,z,620,12,1,1640.0,347078.7000000477,7151,VNB,A,11
9,test,4,0.0,1-Back,1,m,Mon May 12 2025 16:26:39 GMT-0500 (Central Daylight Time),350351.8000000715,071_y_f_n_a.png,O,m,612,13,1,1624.3000000715256,348727.5,7151,VNB,A,12
9,test,4,0.0,1-Back,0,m,Mon May 12 2025 16:26:39 GMT-0500 (Central Daylight Time),351984.5,124_o_f_d_a.png,O,z,602,14,1,1622.6999999284744,350361.8000000715,7151,VNB,A,13
10,test,4,0.0,1-Back,1,m,Mon May 12 2025 16:26:39 GMT-0500 (Central Daylight Time),353551.0,071_y_f_h_a.png,O,m,547,15,1,1556.3999999761581,351994.60000002384,7151,VNB,A,14
10,test,4,1.0,1-Back,0,z,Mon May 12 2025 16:26:39 GMT-0500 (Central Daylight Time),355216.89999997616,165_m_m_h_a.png,O,m,637,16,1,1654.2999999523163,353562.60000002384,7151,VNB,A,15
11,test,4,0.0,1-Back,1,m,Mon May 12 2025 16:26:39 GMT-0500 (Central Daylight Time),356883.39999997616,039_o_m_n_a.png,O,m,641,17,1,1657.5,355225.89999997616,7151,VNB,A,16
11,test,4,1.0,1-Back,0,z,Mon May 12 2025 16:26:39 GMT-0500 (Central Daylight Time),358466.0,109_y_m_n_a.png,O,m,552,18,1,1571.5,356894.5,7151,VNB,A,17
0,test,5,1.0,1-Back,,,Mon May 12 2025 16:26:39 GMT-0500 (Central Daylight Time),358466.0,039_o_m_n_a.png,O,space,1066,1,1,1571.5,356894.5,7151,VNB,A,0
1,test,5,1.0,1-Back,1,m,Mon May 12 2025 16:26:39 GMT-0500 (Central Daylight Time),363165.5,124_o_f_h_a.png,O,m,599,2,1,1606.6000000238419,361558.89999997616,7151,VNB,A,1
2,test,5,0.0,1-Back,1,m,Mon May 12 2025 16:26:39 GMT-0500 (Central Daylight Time),364832.0,109_y_m_d_a.png,O,m,639,3,1,1657.0,363175.0,7151,VNB,A,2
2,test,5,0.0,1-Back,0,z,Mon May 12 2025 16:26:39 GMT-0500 (Central Daylight Time),366463.89999997616,039_o_m_d_a.png,O,m,604,4,1,1621.0,364842.89999997616,7151,VNB,A,3
3,test,5,0.0,1-Back,1,m,Mon May 12 2025 16:26:39 GMT-0500 (Central Daylight Time),368131.7000000477,139_m_f_h_a.png,O,m,637,5,1,1657.8000000715256,366473.89999997616,7151,VNB,A,4
3,test,5,0.0,1-Back,0,m,Mon May 12 2025 16:26:39 GMT-0500 (Central Daylight Time),369911.60000002384,071_y_f_n_a.png,O,z,760,6,1,1769.7999999523163,368141.8000000715,7151,VNB,A,5
4,test,5,1.0,1-Back,1,z,Mon May 12 2025 16:26:39 GMT-0500 (Central Daylight Time),371794.60000002384,124_o_f_n_a.png,O,z,859,7,1,1873.2999999523163,369921.3000000715,7151,VNB,A,6
5,test,5,0.0,1-Back,1,m,Mon May 12 2025 16:26:39 GMT-0500 (Central Daylight Time),373411.5,139_m_f_d_a.png,O,m,591,8,1,1606.3999999761581,371805.10000002384,7151,VNB,A,7
6,test,5,0.0,1-Back,1,m,Mon May 12 2025 16:26:39 GMT-0500 (Central Daylight Time),375075.39999997616,109_y_m_h_a.png,O,m,639,9,1,1655.0,373420.39999997616,7151,VNB,A,8
7,test,5,0.0,1-Back,1,m,Mon May 12 2025 16:26:39 GMT-0500 (Central Daylight Time),376844.0,071_y_f_d_a.png,O,m,744,10,1,1759.1000000238419,375084.89999997616,7151,VNB,A,9
7,test,5,0.0,1-Back,0,m,Mon May 12 2025 16:26:39 GMT-0500 (Central Daylight Time),378610.39999997616,165_m_m_n_a.png,O,z,736,11,1,1754.0,376856.39999997616,7151,VNB,A,10
8,test,5,1.0,1-Back,1,z,Mon May 12 2025 16:26:39 GMT-0500 (Central Daylight Time),380392.5,139_m_f_n_a.png,O,z,760,12,1,1769.1000000238419,378623.39999997616,7151,VNB,A,11
9,test,5,0.0,1-Back,1,m,Mon May 12 2025 16:26:39 GMT-0500 (Central Daylight Time),382076.89999997616,039_o_m_h_a.png,O,m,649,13,1,1675.1999999284744,380401.7000000477,7151,VNB,A,12
9,test,5,0.0,1-Back,0,z,Mon May 12 2025 16:26:39 GMT-0500 (Central Daylight Time),383874.2000000477,165_m_m_h_a.png,O,m,766,14,1,1788.2000000476837,382086.0,7151,VNB,A,13
10,test,5,1.0,1-Back,1,m,Mon May 12 2025 16:26:39 GMT-0500 (Central Daylight Time),385958.8000000715,124_o_f_d_a.png,O,m,1055,15,1,2074.0,383884.8000000715,7151,VNB,A,14
10,test,5,0.0,1-Back,0,m,Mon May 12 2025 16:26:39 GMT-0500 (Central Daylight Time),387505.8000000715,109_y_m_n_a.png,O,z,518,16,1,1535.5,385970.3000000715,7151,VNB,A,15
11,test,5,0.0,1-Back,1,m,Mon May 12 2025 16:26:39 GMT-0500 (Central Daylight Time),389173.60000002384,071_y_f_h_a.png,O,m,651,17,1,1658.2000000476837,387515.39999997616,7151,VNB,A,16
12,test,5,0.0,1-Back,1,m,Mon May 12 2025 16:26:39 GMT-0500 (Central Daylight Time),390824.0,165_m_m_d_a.png,O,m,630,18,1,1641.6000000238419,389182.39999997616,7151,VNB,A,17
0,prac,1,0.0,2-Back,,,Mon May 12 2025 16:26:39 GMT-0500 (Central Daylight Time),390824.0,139_m_f_n_a.png,O,space,7164,1,1,1641.6000000238419,389182.39999997616,7151,VNB,A,0
0,prac,1,0.0,2-Back,,,Mon May 12 2025 16:26:39 GMT-0500 (Central Daylight Time),390824.0,124_o_f_h_a.png,O,space,7164,2,1,1641.6000000238419,389182.39999997616,7151,VNB,A,0
1,prac,1,0.0,2-Back,1,m,Mon May 12 2025 16:26:39 GMT-0500 (Central Daylight Time),515085.3000000715,039_o_m_d_a.png,O,m,1602,3,1,2389.5,512695.8000000715,7151,VNB,A,1
1,prac,1,1.0,2-Back,0,z,Mon May 12 2025 16:26:39 GMT-0500 (Central Daylight Time),517899.39999997616,165_m_m_h_a.png,O,None,2013,4,1,2802.2999999523163,515097.10000002384,7151,VNB,A,2
2,prac,1,0.0,2-Back,1,m,Mon May 12 2025 16:26:39 GMT-0500 (Central Daylight Time),520565.89999997616,071_y_f_n_a.png,O,m,1867,5,1,2655.5999999046326,517910.3000000715,7151,VNB,A,3
3,prac,1,1.0,2-Back,1,z,Mon May 12 2025 16:26:39 GMT-0500 (Central Daylight Time),522681.10000002384,039_o_m_h_a.png,O,z,1313,6,1,2105.399999976158,520575.7000000477,7151,VNB,A,4
3,prac,1,1.0,2-Back,0,z,Mon May 12 2025 16:26:39 GMT-0500 (Central Daylight Time),524545.3000000715,109_y_m_n_a.png,O,m,1050,7,1,1852.4000000953674,522692.89999997616,7151,VNB,A,5
3,prac,1,0.0,2-Back,0,m,Mon May 12 2025 16:26:39 GMT-0500 (Central Daylight Time),527362.8999999762,139_m_f_d_a.png,O,None,2016,8,1,2805.7999999523163,524557.1000000238,7151,VNB,A,6
3,prac,1,0.0,2-Back,0,m,Mon May 12 2025 16:26:39 GMT-0500 (Central Daylight Time),529611.5,124_o_f_d_a.png,O,z,1423,9,1,2237.0,527374.5,7151,VNB,A,7
4,prac,1,0.0,2-Back,1,m,Mon May 12 2025 16:26:39 GMT-0500 (Central Daylight Time),532126.2000000477,165_m_m_h_a.png,O,m,1725,10,1,2502.3000000715256,529623.8999999762,7151,VNB,A,8
5,prac,1,1.0,2-Back,1,z,Mon May 12 2025 16:26:39 GMT-0500 (Central Daylight Time),533877.6000000238,071_y_f_d_a.png,O,z,962,11,1,1744.7000000476837,532132.8999999762,7151,VNB,A,9
5,prac,1,0.0,2-Back,0,m,Mon May 12 2025 16:26:39 GMT-0500 (Central Daylight Time),536193.3999999762,039_o_m_n_a.png,O,z,1518,12,1,2305.1999999284744,533888.2000000477,7151,VNB,A,10
0,prac,2,0.0,2-Back,,,Mon May 12 2025 16:26:39 GMT-0500 (Central Daylight Time),536193.3999999762,139_m_f_n_a.png,O,a,7610,1,1,2305.1999999284744,533888.2000000477,7151,VNB,A,0
0,prac,2,0.0,2-Back,,,Mon May 12 2025 16:26:39 GMT-0500 (Central Daylight Time),536193.3999999762,124_o_f_h_a.png,O,a,7610,2,1,2305.1999999284744,533888.2000000477,7151,VNB,A,0
1,prac,2,0.0,2-Back,1,m,Mon May 12 2025 16:26:39 GMT-0500 (Central Daylight Time),550905.3999999762,039_o_m_d_a.png,O,m,1187,3,1,1988.1999999284744,548917.2000000477,7151,VNB,A,1
2,prac,2,1.0,2-Back,1,z,Mon May 12 2025 16:26:39 GMT-0500 (Central Daylight Time),553552.8999999762,165_m_m_h_a.png,O,z,1865,4,1,2636.5999999046326,550916.3000000715,7151,VNB,A,2
2,prac,2,0.0,2-Back,0,m,Mon May 12 2025 16:26:39 GMT-0500 (Central Daylight Time),556235.5,071_y_f_n_a.png,O,z,1876,5,1,2672.0,553563.5,7151,VNB,A,3
3,prac,2,1.0,2-Back,1,z,Mon May 12 2025 16:26:39 GMT-0500 (Central Daylight Time),558336.3000000715,039_o_m_h_a.png,O,z,1300,6,1,2091.3000000715256,556245.0,7151,VNB,A,4
3,prac,2,1.0,2-Back,0,z,Mon May 12 2025 16:26:39 GMT-0500 (Central Daylight Time),560700.8999999762,109_y_m_n_a.png,O,m,1552,7,1,2353.7999999523163,558347.1000000238,7151,VNB,A,5
4,prac,2,0.0,2-Back,1,m,Mon May 12 2025 16:26:39 GMT-0500 (Central Daylight Time),563319.8000000715,139_m_f_d_a.png,O,m,1817,8,1,2607.3000000715256,560712.5,7151,VNB,A,6
4,prac,2,0.0,2-Back,0,m,Mon May 12 2025 16:26:39 GMT-0500 (Central Daylight Time),565351.1000000238,124_o_f_d_a.png,O,z,1197,9,1,2023.0,563328.1000000238,7151,VNB,A,7
4,prac,2,0.0,2-Back,0,m,Mon May 12 2025 16:26:39 GMT-0500 (Central Daylight Time),567666.3999999762,165_m_m_h_a.png,O,z,1522,10,1,2304.0,565362.3999999762,7151,VNB,A,8
4,prac,2,1.0,2-Back,0,z,Mon May 12 2025 16:26:39 GMT-0500 (Central Daylight Time),570132.6000000238,071_y_f_d_a.png,O,m,1659,11,1,2451.2999999523163,567681.3000000715,7151,VNB,A,9
4,prac,2,0.0,2-Back,0,m,Mon May 12 2025 16:26:39 GMT-0500 (Central Daylight Time),572664.1000000238,039_o_m_n_a.png,O,z,1731,12,1,2522.100000023842,570142.0,7151,VNB,A,10
0,test,1,0.0,2-Back,,,Mon May 12 2025 16:26:39 GMT-0500 (Central Daylight Time),572664.1000000238,109_y_m_h_a.png,O,space,12795,1,1,2522.100000023842,570142.0,7151,VNB,A,0
0,test,1,0.0,2-Back,,,Mon May 12 2025 16:26:39 GMT-0500 (Central Daylight Time),572664.1000000238,124_o_f_n_a.png,O,space,12795,2,1,2522.100000023842,570142.0,7151,VNB,A,0
1,test,1,0.0,2-Back,1,z,Mon May 12 2025 16:26:39 GMT-0500 (Central Daylight Time),597058.3999999762,039_o_m_h_a.png,O,z,1161,3,1,2172.899999976158,594885.5,7151,VNB,A,1
2,test,1,0.0,2-Back,1,m,Mon May 12 2025 16:26:39 GMT-0500 (Central Daylight Time),599190.8999999762,139_m_f_d_a.png,O,m,1105,4,1,2121.899999976158,597069.0,7151,VNB,A,2
3,test,1,1.0,2-Back,1,m,Mon May 12 2025 16:26:39 GMT-0500 (Central Daylight Time),601738.3999999762,109_y_m_n_a.png,O,m,1525,5,1,2536.6999999284744,599201.7000000477,7151,VNB,A,3
3,test,1,0.0,2-Back,0,z,Mon May 12 2025 16:26:39 GMT-0500 (Central Daylight Time),604171.1000000238,071_y_f_d_a.png,O,m,1407,6,1,2421.0,601750.1000000238,7151,VNB,A,4
3,test,1,0.0,2-Back,0,m,Mon May 12 2025 16:26:39 GMT-0500 (Central Daylight Time),606038.7000000477,165_m_m_h_a.png,O,z,850,7,1,1855.8999999761581,604182.8000000715,7151,VNB,A,5
4,test,1,1.0,2-Back,1,m,Mon May 12 2025 16:26:39 GMT-0500 (Central Daylight Time),608236.0,071_y_f_n_a.png,O,m,1174,8,1,2187.6999999284744,606048.3000000715,7151,VNB,A,6
5,test,1,0.0,2-Back,1,z,Mon May 12 2025 16:26:39 GMT-0500 (Central Daylight Time),610453.0,124_o_f_h_a.png,O,z,1191,9,1,2206.100000023842,608246.8999999762,7151,VNB,A,7
6,test,1,0.0,2-Back,1,m,Mon May 12 2025 16:26:39 GMT-0500 (Central Daylight Time),612750.7000000477,039_o_m_d_a.png,O,m,1279,10,1,2287.2000000476837,610463.5,7151,VNB,A,8
7,test,1,1.0,2-Back,1,m,Mon May 12 2025 16:26:39 GMT-0500 (Central Daylight Time),614833.6000000238,165_m_m_d_a.png,O,m,1052,11,1,2072.399999976158,612761.2000000477,7151,VNB,A,9
8,test,1,0.0,2-Back,1,m,Mon May 12 2025 16:26:39 GMT-0500 (Central Daylight Time),616783.5,139_m_f_n_a.png,O,m,928,12,1,1937.1999999284744,614846.3000000715,7151,VNB,A,10
8,test,1,0.0,2-Back,0,m,Mon May 12 2025 16:26:39 GMT-0500 (Central Daylight Time),618535.7000000477,071_y_f_h_a.png,O,z,735,13,1,1741.5,616794.2000000477,7151,VNB,A,11
8,test,1,0.0,2-Back,0,z,Mon May 12 2025 16:26:39 GMT-0500 (Central Daylight Time),620632.8999999762,165_m_m_n_a.png,O,m,1065,14,1,2087.6999999284744,618545.2000000477,7151,VNB,A,12
9,test,1,0.0,2-Back,1,m,Mon May 12 2025 16:26:39 GMT-0500 (Central Daylight Time),622733.3999999762,109_y_m_d_a.png,O,m,1067,15,1,2089.0,620644.3999999762,7151,VNB,A,13
9,test,1,1.0,2-Back,0,m,Mon May 12 2025 16:26:39 GMT-0500 (Central Daylight Time),624416.3000000715,139_m_f_h_a.png,O,z,666,16,1,1672.6000000238419,622743.7000000477,7151,VNB,A,14
9,test,1,0.0,2-Back,0,z,Mon May 12 2025 16:26:39 GMT-0500 (Central Daylight Time),626481.5,124_o_f_d_a.png,O,m,1047,17,1,2055.5,624426.0,7151,VNB,A,15
10,test,1,0.0,2-Back,1,m,Mon May 12 2025 16:26:39 GMT-0500 (Central Daylight Time),628595.1000000238,039_o_m_n_a.png,O,m,1082,18,1,2104.2999999523163,626490.8000000715,7151,VNB,A,16
0,test,2,0.0,2-Back,,,Mon May 12 2025 16:26:39 GMT-0500 (Central Daylight Time),628595.1000000238,165_m_m_h_a.png,O,space,1137,1,1,2104.2999999523163,626490.8000000715,7151,VNB,A,0
0,test,2,0.0,2-Back,,,Mon May 12 2025 16:26:39 GMT-0500 (Central Daylight Time),628595.1000000238,071_y_f_n_a.png,O,space,1137,2,1,2104.2999999523163,626490.8000000715,7151,VNB,A,0
0,test,2,1.0,2-Back,0,z,Mon May 12 2025 16:26:39 GMT-0500 (Central Daylight Time),636527.1000000238,124_o_f_h_a.png,O,m,664,3,1,1670.3999999761581,634856.7000000477,7151,VNB,A,1
0,test,2,0.0,2-Back,0,m,Mon May 12 2025 16:26:39 GMT-0500 (Central Daylight Time),639559.0,039_o_m_d_a.png,O,None,2014,4,1,3020.5,636538.5,7151,VNB,A,2
1,test,2,0.0,2-Back,1,m,Mon May 12 2025 16:26:39 GMT-0500 (Central Daylight Time),641459.3000000715,139_m_f_d_a.png,O,m,867,5,1,1890.3000000715256,639569.0,7151,VNB,A,3
1,test,2,0.0,2-Back,0,m,Mon May 12 2025 16:26:39 GMT-0500 (Central Daylight Time),643326.5,109_y_m_h_a.png,O,z,849,6,1,1858.0,641468.5,7151,VNB,A,4
2,test,2,0.0,2-Back,1,m,Mon May 12 2025 16:26:39 GMT-0500 (Central Daylight Time),645341.5,124_o_f_n_a.png,O,m,989,7,1,2005.1000000238419,643336.3999999762,7151,VNB,A,5
3,test,2,1.0,2-Back,1,z,Mon May 12 2025 16:26:39 GMT-0500 (Central Daylight Time),647290.3000000715,039_o_m_h_a.png,O,z,916,8,1,1939.1000000238419,645351.2000000477,7151,VNB,A,6
4,test,2,0.0,2-Back,1,m,Mon May 12 2025 16:26:39 GMT-0500 (Central Daylight Time),649072.0,071_y_f_d_a.png,O,m,750,9,1,1771.0,647301.0,7151,VNB,A,7
4,test,2,0.0,2-Back,0,m,Mon May 12 2025 16:26:39 GMT-0500 (Central Daylight Time),651407.1000000238,109_y_m_d_a.png,O,z,1316,10,1,2329.100000023842,649078.0,7151,VNB,A,8
5,test,2,0.0,2-Back,1,m,Mon May 12 2025 16:26:39 GMT-0500 (Central Daylight Time),653654.0,165_m_m_n_a.png,O,m,1220,11,1,2237.600000023842,651416.3999999762,7151,VNB,A,9
5,test,2,0.0,2-Back,0,m,Mon May 12 2025 16:26:39 GMT-0500 (Central Daylight Time),655737.8000000715,139_m_f_h_a.png,O,z,1060,12,1,2078.2000000476837,653659.6000000238,7151,VNB,A,10
5,test,2,1.0,2-Back,0,z,Mon May 12 2025 16:26:39 GMT-0500 (Central Daylight Time),657804.6000000238,039_o_m_n_a.png,O,m,1043,13,1,2056.600000023842,655748.0,7151,VNB,A,11
6,test,2,0.0,2-Back,1,m,Mon May 12 2025 16:26:39 GMT-0500 (Central Daylight Time),660020.3000000715,124_o_f_d_a.png,O,m,1185,14,1,2207.0,657813.3000000715,7151,VNB,A,12
6,test,2,0.0,2-Back,0,m,Mon May 12 2025 16:26:39 GMT-0500 (Central Daylight Time),662037.1000000238,071_y_f_h_a.png,O,z,1000,15,1,2006.7000000476837,660030.3999999762,7151,VNB,A,13
7,test,2,0.0,2-Back,1,z,Mon May 12 2025 16:26:39 GMT-0500 (Central Daylight Time),664420.3000000715,165_m_m_d_a.png,O,z,1350,16,1,2375.5,662044.8000000715,7151,VNB,A,14
8,test,2,0.0,2-Back,1,m,Mon May 12 2025 16:26:39 GMT-0500 (Central Daylight Time),666834.6000000238,109_y_m_n_a.png,O,m,1385,17,1,2403.7000000476837,664430.8999999762,7151,VNB,A,15
8,test,2,1.0,2-Back,0,m,Mon May 12 2025 16:26:39 GMT-0500 (Central Daylight Time),668768.6000000238,139_m_f_n_a.png,O,z,898,18,1,1924.2999999523163,666844.3000000715,7151,VNB,A,16
0,test,3,1.0,2-Back,,,Mon May 12 2025 16:26:39 GMT-0500 (Central Daylight Time),668768.6000000238,039_o_m_n_a.png,O,space,876,1,1,1924.2999999523163,666844.3000000715,7151,VNB,A,0
0,test,3,1.0,2-Back,,,Mon May 12 2025 16:26:39 GMT-0500 (Central Daylight Time),668768.6000000238,124_o_f_d_a.png,O,space,876,2,1,1924.2999999523163,666844.3000000715,7151,VNB,A,0
1,test,3,0.0,2-Back,1,m,Mon May 12 2025 16:26:39 GMT-0500 (Central Daylight Time),677549.6000000238,071_y_f_h_a.png,O,m,1850,3,1,2858.600000023842,674691.0,7151,VNB,A,1
1,test,3,0.0,2-Back,0,z,Mon May 12 2025 16:26:39 GMT-0500 (Central Daylight Time),680581.3999999762,139_m_f_d_a.png,O,None,2017,4,1,3023.2999999523163,677558.1000000238,7151,VNB,A,2
2,test,3,1.0,2-Back,1,m,Mon May 12 2025 16:26:39 GMT-0500 (Central Daylight Time),683229.5,109_y_m_n_a.png,O,m,1623,5,1,2638.899999976158,680590.6000000238,7151,VNB,A,3
2,test,3,0.0,2-Back,0,m,Mon May 12 2025 16:26:39 GMT-0500 (Central Daylight Time),685461.7000000477,039_o_m_h_a.png,O,z,1206,6,1,2222.2000000476837,683239.5,7151,VNB,A,4
3,test,3,0.0,2-Back,1,z,Mon May 12 2025 16:26:39 GMT-0500 (Central Daylight Time),688379.1000000238,071_y_f_n_a.png,O,z,1885,7,1,2907.2999999523163,685471.8000000715,7151,VNB,A,5
4,test,3,1.0,2-Back,1,m,Mon May 12 2025 16:26:39 GMT-0500 (Central Daylight Time),690309.3000000715,165_m_m_d_a.png,O,m,906,8,1,1921.3000000715256,688388.0,7151,VNB,A,6
4,test,3,0.0,2-Back,0,m,Mon May 12 2025 16:26:39 GMT-0500 (Central Daylight Time),692391.8999999762,109_y_m_d_a.png,O,z,1060,9,1,2071.5,690320.3999999762,7151,VNB,A,7
4,test,3,0.0,2-Back,0,m,Mon May 12 2025 16:26:39 GMT-0500 (Central Daylight Time),694941.8999999762,124_o_f_h_a.png,O,z,1523,10,1,2539.899999976158,692402.0,7151,VNB,A,8
5,test,3,1.0,2-Back,1,m,Mon May 12 2025 16:26:39 GMT-0500 (Central Daylight Time),697057.6000000238,139_m_f_n_a.png,O,m,1095,11,1,2105.100000023842,694952.5,7151,VNB,A,9
5,test,3,1.0,2-Back,0,z,Mon May 12 2025 16:26:39 GMT-0500 (Central Daylight Time),699341.6000000238,165_m_m_h_a.png,O,m,1259,12,1,2273.399999976158,697068.2000000477,7151,VNB,A,10
6,test,3,0.0,2-Back,1,m,Mon May 12 2025 16:26:39 GMT-0500 (Central Daylight Time),701524.5,071_y_f_d_a.png,O,m,1165,13,1,2171.600000023842,699352.8999999762,7151,VNB,A,11
6,test,3,0.0,2-Back,0,m,Mon May 12 2025 16:26:39 GMT-0500 (Central Daylight Time),703222.1000000238,124_o_f_n_a.png,O,z,671,14,1,1688.2999999523163,701533.8000000715,7151,VNB,A,12
6,test,3,0.0,2-Back,0,z,Mon May 12 2025 16:26:39 GMT-0500 (Central Daylight Time),705373.7000000477,039_o_m_d_a.png,O,m,1127,15,1,2140.5,703233.2000000477,7151,VNB,A,13
6,test,3,1.0,2-Back,0,m,Mon May 12 2025 16:26:39 GMT-0500 (Central Daylight Time),707454.3999999762,139_m_f_h_a.png,O,z,1063,16,1,2070.0,705384.3999999762,7151,VNB,A,14
7,test,3,0.0,2-Back,1,m,Mon May 12 2025 16:26:39 GMT-0500 (Central Daylight Time),709287.2000000477,165_m_m_n_a.png,O,m,801,17,1,1822.3000000715256,707464.8999999762,7151,VNB,A,15
7,test,3,0.0,2-Back,0,z,Mon May 12 2025 16:26:39 GMT-0500 (Central Daylight Time),711370.7000000477,109_y_m_h_a.png,O,m,1059,18,1,2073.5,709297.2000000477,7151,VNB,A,16
0,test,4,0.0,2-Back,,,Mon May 12 2025 16:26:39 GMT-0500 (Central Daylight Time),711370.7000000477,139_m_f_n_a.png,O,space,977,1,1,2073.5,709297.2000000477,7151,VNB,A,0
0,test,4,0.0,2-Back,,,Mon May 12 2025 16:26:39 GMT-0500 (Central Daylight Time),711370.7000000477,039_o_m_n_a.png,O,space,977,2,1,2073.5,709297.2000000477,7151,VNB,A,0
1,test,4,1.0,2-Back,1,m,Mon May 12 2025 16:26:39 GMT-0500 (Central Daylight Time),719585.1000000238,109_y_m_h_a.png,O,m,1135,3,1,2155.899999976158,717429.2000000477,7151,VNB,A,1
2,test,4,1.0,2-Back,1,m,Mon May 12 2025 16:26:39 GMT-0500 (Central Daylight Time),722267.7000000477,124_o_f_d_a.png,O,m,1660,4,1,2675.2000000476837,719592.5,7151,VNB,A,2
2,test,4,0.0,2-Back,0,z,Mon May 12 2025 16:26:39 GMT-0500 (Central Daylight Time),724399.5,039_o_m_h_a.png,O,m,1103,5,1,2120.100000023842,722279.3999999762,7151,VNB,A,3
2,test,4,0.0,2-Back,0,m,Mon May 12 2025 16:26:39 GMT-0500 (Central Daylight Time),726117.1000000238,165_m_m_n_a.png,O,z,694,6,1,1707.2000000476837,724409.8999999762,7151,VNB,A,4
3,test,4,0.0,2-Back,1,m,Mon May 12 2025 16:26:39 GMT-0500 (Central Daylight Time),728131.8000000715,139_m_f_d_a.png,O,m,992,7,1,2003.5,726128.3000000715,7151,VNB,A,5
4,test,4,0.0,2-Back,1,z,Mon May 12 2025 16:26:39 GMT-0500 (Central Daylight Time),730464.5,071_y_f_n_a.png,O,z,1298,8,1,2320.0,728144.5,7151,VNB,A,6
5,test,4,1.0,2-Back,1,m,Mon May 12 2025 16:26:39 GMT-0500 (Central Daylight Time),732446.0,124_o_f_h_a.png,O,m,955,9,1,1970.8999999761581,730475.1000000238,7151,VNB,A,7
6,test,4,0.0,2-Back,1,m,Mon May 12 2025 16:26:39 GMT-0500 (Central Daylight Time),734813.3000000715,165_m_m_h_a.png,O,m,1341,10,1,2357.2000000476837,732456.1000000238,7151,VNB,A,8
7,test,4,0.0,2-Back,1,m,Mon May 12 2025 16:26:39 GMT-0500 (Central Daylight Time),736777.2000000477,071_y_f_d_a.png,O,m,932,11,1,1953.3999999761581,734823.8000000715,7151,VNB,A,9
7,test,4,0.0,2-Back,0,m,Mon May 12 2025 16:26:39 GMT-0500 (Central Daylight Time),738395.6000000238,109_y_m_n_a.png,O,z,593,12,1,1611.8999999761581,736783.7000000477,7151,VNB,A,10
7,test,4,0.0,2-Back,0,z,Mon May 12 2025 16:26:39 GMT-0500 (Central Daylight Time),741427.3999999762,039_o_m_d_a.png,O,None,2014,13,1,3019.7999999523163,738407.6000000238,7151,VNB,A,11
8,test,4,1.0,2-Back,1,m,Mon May 12 2025 16:26:39 GMT-0500 (Central Daylight Time),743345.5,139_m_f_h_a.png,O,m,895,14,1,1907.0,741438.5,7151,VNB,A,12
9,test,4,1.0,2-Back,1,m,Mon May 12 2025 16:26:39 GMT-0500 (Central Daylight Time),745493.6000000238,071_y_f_h_a.png,O,m,1114,15,1,2141.100000023842,743352.5,7151,VNB,A,13
9,test,4,0.0,2-Back,0,m,Mon May 12 2025 16:26:39 GMT-0500 (Central Daylight Time),747243.2000000477,124_o_f_n_a.png,O,z,727,16,1,1739.8000000715256,745503.3999999762,7151,VNB,A,14
10,test,4,0.0,2-Back,1,m,Mon May 12 2025 16:26:39 GMT-0500 (Central Daylight Time),749125.6000000238,109_y_m_d_a.png,O,m,851,17,1,1873.6000000238419,747252.0,7151,VNB,A,15
10,test,4,1.0,2-Back,0,m,Mon May 12 2025 16:26:39 GMT-0500 (Central Daylight Time),751540.8000000715,165_m_m_d_a.png,O,z,1390,18,1,2406.2000000476837,749134.6000000238,7151,VNB,A,16
0,test,5,1.0,2-Back,,,Mon May 12 2025 16:26:39 GMT-0500 (Central Daylight Time),751540.8000000715,071_y_f_d_a.png,O,space,1218,1,1,2406.2000000476837,749134.6000000238,7151,VNB,A,0
0,test,5,1.0,2-Back,,,Mon May 12 2025 16:26:39 GMT-0500 (Central Daylight Time),751540.8000000715,124_o_f_h_a.png,O,space,1218,2,1,2406.2000000476837,749134.6000000238,7151,VNB,A,0
1,test,5,1.0,2-Back,1,z,Mon May 12 2025 16:26:39 GMT-0500 (Central Daylight Time),760055.0,039_o_m_d_a.png,O,z,1180,3,1,2189.600000023842,757865.3999999762,7151,VNB,A,1
2,test,5,1.0,2-Back,1,m,Mon May 12 2025 16:26:39 GMT-0500 (Central Daylight Time),761971.2000000477,139_m_f_n_a.png,O,m,883,4,1,1905.5,760065.7000000477,7151,VNB,A,2
3,test,5,0.0,2-Back,1,m,Mon May 12 2025 16:26:39 GMT-0500 (Central Daylight Time),764369.1000000238,165_m_m_h_a.png,O,m,1367,5,1,2388.5,761980.6000000238,7151,VNB,A,3
3,test,5,0.0,2-Back,0,z,Mon May 12 2025 16:26:39 GMT-0500 (Central Daylight Time),766752.6000000238,071_y_f_n_a.png,O,m,1359,6,1,2372.899999976158,764379.7000000477,7151,VNB,A,4
3,test,5,0.0,2-Back,0,m,Mon May 12 2025 16:26:39 GMT-0500 (Central Daylight Time),768652.7000000477,124_o_f_d_a.png,O,z,875,7,1,1894.2000000476837,766758.5,7151,VNB,A,5
4,test,5,0.0,2-Back,1,m,Mon May 12 2025 16:26:39 GMT-0500 (Central Daylight Time),770734.8000000715,039_o_m_h_a.png,O,m,1055,8,1,2072.9000000953674,768661.8999999762,7151,VNB,A,6
5,test,5,1.0,2-Back,1,z,Mon May 12 2025 16:26:39 GMT-0500 (Central Daylight Time),772501.8999999762,139_m_f_d_a.png,O,z,749,9,1,1756.5999999046326,770745.3000000715,7151,VNB,A,7
6,test,5,0.0,2-Back,1,m,Mon May 12 2025 16:26:39 GMT-0500 (Central Daylight Time),774666.7000000477,109_y_m_n_a.png,O,m,1135,10,1,2157.2000000476837,772509.5,7151,VNB,A,8
7,test,5,0.0,2-Back,1,m,Mon May 12 2025 16:26:39 GMT-0500 (Central Daylight Time),776664.8000000715,165_m_m_n_a.png,O,m,967,11,1,1988.3000000715256,774676.5,7151,VNB,A,9
8,test,5,0.0,2-Back,1,m,Mon May 12 2025 16:26:39 GMT-0500 (Central Daylight Time),778849.8999999762,071_y_f_h_a.png,O,m,1162,12,1,2175.7999999523163,776674.1000000238,7151,VNB,A,10
8,test,5,0.0,2-Back,0,m,Mon May 12 2025 16:26:39 GMT-0500 (Central Daylight Time),780498.0,109_y_m_d_a.png,O,z,618,13,1,1638.6000000238419,778859.3999999762,7151,VNB,A,11
8,test,5,1.0,2-Back,0,z,Mon May 12 2025 16:26:39 GMT-0500 (Central Daylight Time),782581.1000000238,139_m_f_h_a.png,O,m,1052,14,1,2072.5,780508.6000000238,7151,VNB,A,12
8,test,5,0.0,2-Back,0,m,Mon May 12 2025 16:26:39 GMT-0500 (Central Daylight Time),784813.8000000715,039_o_m_n_a.png,O,z,1215,15,1,2222.5,782591.3000000715,7151,VNB,A,13
8,test,5,0.0,2-Back,0,m,Mon May 12 2025 16:26:39 GMT-0500 (Central Daylight Time),786813.2000000477,165_m_m_d_a.png,O,z,975,16,1,1988.1000000238419,784825.1000000238,7151,VNB,A,14
8,test,5,0.0,2-Back,0,z,Mon May 12 2025 16:26:39 GMT-0500 (Central Daylight Time),788928.3000000715,124_o_f_n_a.png,O,m,1086,17,1,2104.600000023842,786823.7000000477,7151,VNB,A,15
9,test,5,1.0,2-Back,1,m,Mon May 12 2025 16:26:39 GMT-0500 (Central Daylight Time),790911.1000000238,109_y_m_h_a.png,O,m,963,18,1,1974.0,788937.1000000238,7151,VNB,A,16
