acc_sum,block,block_c,change,condition,correct,correct_response,datetime,endtime,face,project,response,response_time,row_sel,session_number,start_end,starttime,subject_id,task,task_vers,trial
0,prac,1,,1-Back,,,Tue Jan 13 2026 14:42:32 GMT-0500 (Eastern Standard Time),,097_m_f_n_a.png,I,space,10638,1,3,,,9023,NNB,B,0
1,prac,1,0.0,1-Back,1.0,m,Tue Jan 13 2026 14:42:32 GMT-0500 (Eastern Standard Time),135474.0999994278,152_y_f_n_a.png,I,m,999,2,3,1967.8000001907349,133506.29999923706,9023,NNB,B,1
2,prac,1,1.0,1-Back,1.0,z,Tue Jan 13 2026 14:42:32 GMT-0500 (Eastern Standard Time),138173.79999923706,152_y_f_n_a.png,I,z,1917,3,3,2685.199999809265,135488.5999994278,9023,NNB,B,2
3,prac,1,0.0,1-Back,1.0,m,Tue Jan 13 2026 14:42:32 GMT-0500 (Eastern Standard Time),140307.29999923706,176_o_m_n_a.png,I,m,1149,4,3,2114.699999809265,138192.5999994278,9023,NNB,B,3
4,prac,1,0.0,1-Back,1.0,m,Tue Jan 13 2026 14:42:32 GMT-0500 (Eastern Standard Time),142123.89999961853,126_m_m_n_a.png,I,m,1007,5,3,1801.3999996185303,140322.5,9023,NNB,B,4
5,prac,1,1.0,1-Back,1.0,z,Tue Jan 13 2026 14:42:32 GMT-0500 (Eastern Standard Time),143673.79999923706,126_m_m_n_a.png,I,z,745,6,3,1525.2999992370605,142148.5,9023,NNB,B,5
6,prac,1,0.0,1-Back,1.0,m,Tue Jan 13 2026 14:42:32 GMT-0500 (Eastern Standard Time),145773.79999923706,086_o_f_n_a.png,I,m,1054,7,3,2084.2999992370605,143689.5,9023,NNB,B,6
7,prac,1,0.0,1-Back,1.0,m,Tue Jan 13 2026 14:42:32 GMT-0500 (Eastern Standard Time),147890.5,178_m_m_n_a.png,I,m,1186,8,3,2098.2000007629395,145792.29999923706,9023,NNB,B,7
8,prac,1,0.0,1-Back,1.0,m,Tue Jan 13 2026 14:42:32 GMT-0500 (Eastern Standard Time),149807.19999980927,097_m_f_n_a.png,I,m,1134,9,3,1903.4000005722046,147903.79999923706,9023,NNB,B,8
9,prac,1,1.0,1-Back,1.0,z,Tue Jan 13 2026 14:42:32 GMT-0500 (Eastern Standard Time),151507.19999980927,097_m_f_n_a.png,I,z,911,10,3,1685.8000001907349,149821.39999961853,9023,NNB,B,9
10,prac,1,0.0,1-Back,1.0,m,Tue Jan 13 2026 14:42:32 GMT-0500 (Eastern Standard Time),153207.29999923706,176_o_m_n_a.png,I,m,907,11,3,1684.7999992370605,151522.5,9023,NNB,B,10
11,prac,1,0.0,1-Back,1.0,m,Tue Jan 13 2026 14:42:32 GMT-0500 (Eastern Standard Time),155190.5999994278,173_y_f_n_a.png,I,m,1012,12,3,1968.5,153222.0999994278,9023,NNB,B,11
0,test,1,0.0,1-Back,,,Tue Jan 13 2026 14:42:32 GMT-0500 (Eastern Standard Time),155190.5999994278,152_y_f_n_a.png,I,space,12944,1,3,1968.5,153222.0999994278,9023,NNB,B,0
1,test,1,0.0,1-Back,1.0,m,Tue Jan 13 2026 14:42:32 GMT-0500 (Eastern Standard Time),178590.29999923706,029_m_f_n_a.png,I,m,850,2,3,1871.5,176718.79999923706,9023,NNB,B,1
2,test,1,0.0,1-Back,1.0,m,Tue Jan 13 2026 14:42:32 GMT-0500 (Eastern Standard Time),180340.29999923706,173_y_f_n_a.png,I,m,726,3,3,1741.5,178598.79999923706,9023,NNB,B,2
3,test,1,1.0,1-Back,1.0,z,Tue Jan 13 2026 14:42:32 GMT-0500 (Eastern Standard Time),182090.29999923706,173_y_f_n_a.png,I,z,720,4,3,1737.2999992370605,180353.0,9023,NNB,B,3
4,test,1,0.0,1-Back,1.0,m,Tue Jan 13 2026 14:42:32 GMT-0500 (Eastern Standard Time),183940.19999980927,029_m_f_n_a.png,I,m,826,5,3,1839.5,182100.69999980927,9023,NNB,B,4
5,test,1,0.0,1-Back,1.0,m,Tue Jan 13 2026 14:42:32 GMT-0500 (Eastern Standard Time),185640.29999923706,176_o_m_n_a.png,I,m,672,6,3,1691.0,183949.29999923706,9023,NNB,B,5
6,test,1,1.0,1-Back,1.0,z,Tue Jan 13 2026 14:42:32 GMT-0500 (Eastern Standard Time),187390.29999923706,176_o_m_n_a.png,I,z,716,7,3,1739.5999994277954,185650.69999980927,9023,NNB,B,6
7,test,1,0.0,1-Back,1.0,m,Tue Jan 13 2026 14:42:32 GMT-0500 (Eastern Standard Time),189257.0999994278,126_m_m_n_a.png,I,m,822,8,3,1849.1999998092651,187407.89999961853,9023,NNB,B,7
8,test,1,0.0,1-Back,1.0,m,Tue Jan 13 2026 14:42:32 GMT-0500 (Eastern Standard Time),191123.5999994278,086_o_f_n_a.png,I,m,844,9,3,1855.8000001907349,189267.79999923706,9023,NNB,B,8
9,test,1,0.0,1-Back,1.0,m,Tue Jan 13 2026 14:42:32 GMT-0500 (Eastern Standard Time),192973.5999994278,126_m_m_n_a.png,I,m,817,10,3,1841.3000001907349,191132.29999923706,9023,NNB,B,9
10,test,1,0.0,1-Back,1.0,m,Tue Jan 13 2026 14:42:32 GMT-0500 (Eastern Standard Time),194790.39999961853,153_y_m_n_a.png,I,m,791,11,3,1807.3999996185303,192983.0,9023,NNB,B,10
11,test,1,1.0,1-Back,1.0,z,Tue Jan 13 2026 14:42:32 GMT-0500 (Eastern Standard Time),196540.19999980927,153_y_m_n_a.png,I,z,718,12,3,1737.6000003814697,194802.5999994278,9023,NNB,B,11
12,test,1,0.0,1-Back,1.0,m,Tue Jan 13 2026 14:42:32 GMT-0500 (Eastern Standard Time),198340.19999980927,110_o_f_n_a.png,I,m,777,13,3,1787.6000003814697,196552.5999994278,9023,NNB,B,12
13,test,1,1.0,1-Back,1.0,z,Tue Jan 13 2026 14:42:32 GMT-0500 (Eastern Standard Time),200190.5,110_o_f_n_a.png,I,z,832,14,3,1839.7000007629395,198350.79999923706,9023,NNB,B,13
14,test,1,0.0,1-Back,1.0,m,Tue Jan 13 2026 14:42:32 GMT-0500 (Eastern Standard Time),201957.0,013_y_m_n_a.png,I,m,742,15,3,1757.7000007629395,200199.29999923706,9023,NNB,B,14
15,test,1,0.0,1-Back,1.0,m,Tue Jan 13 2026 14:42:32 GMT-0500 (Eastern Standard Time),203907.0,097_m_f_n_a.png,I,m,927,16,3,1938.7000007629395,201968.29999923706,9023,NNB,B,15
16,test,1,0.0,1-Back,1.0,m,Tue Jan 13 2026 14:42:32 GMT-0500 (Eastern Standard Time),205656.89999961853,065_o_m_n_a.png,I,m,722,17,3,1739.1999998092651,203917.69999980927,9023,NNB,B,16
17,test,1,0.0,1-Back,1.0,m,Tue Jan 13 2026 14:42:32 GMT-0500 (Eastern Standard Time),207623.5999994278,097_m_f_n_a.png,I,m,940,18,3,1956.3999996185303,205667.19999980927,9023,NNB,B,17
0,test,2,0.0,1-Back,,,Tue Jan 13 2026 14:42:32 GMT-0500 (Eastern Standard Time),207623.5999994278,126_m_m_n_a.png,I,space,2645,1,3,1956.3999996185303,205667.19999980927,9023,NNB,B,0
1,test,2,0.0,1-Back,1.0,m,Tue Jan 13 2026 14:42:32 GMT-0500 (Eastern Standard Time),214173.5999994278,029_m_f_n_a.png,I,m,850,2,3,1873.3999996185303,212300.19999980927,9023,NNB,B,1
2,test,2,1.0,1-Back,1.0,z,Tue Jan 13 2026 14:42:32 GMT-0500 (Eastern Standard Time),216073.69999980927,029_m_f_n_a.png,I,z,871,3,3,1888.9000005722046,214184.79999923706,9023,NNB,B,2
3,test,2,0.0,1-Back,1.0,m,Tue Jan 13 2026 14:42:32 GMT-0500 (Eastern Standard Time),217790.39999961853,126_m_m_n_a.png,I,m,699,4,3,1706.0,216084.39999961853,9023,NNB,B,3
4,test,2,0.0,1-Back,1.0,m,Tue Jan 13 2026 14:42:32 GMT-0500 (Eastern Standard Time),219490.0999994278,153_y_m_n_a.png,I,m,677,5,3,1689.8999996185303,217800.19999980927,9023,NNB,B,4
5,test,2,0.0,1-Back,1.0,m,Tue Jan 13 2026 14:42:32 GMT-0500 (Eastern Standard Time),221223.69999980927,152_y_f_n_a.png,I,m,706,6,3,1721.6000003814697,219502.0999994278,9023,NNB,B,5
6,test,2,1.0,1-Back,1.0,z,Tue Jan 13 2026 14:42:32 GMT-0500 (Eastern Standard Time),223006.5,152_y_f_n_a.png,I,z,765,7,3,1773.7000007629395,221232.79999923706,9023,NNB,B,6
7,test,2,0.0,1-Back,1.0,m,Tue Jan 13 2026 14:42:32 GMT-0500 (Eastern Standard Time),224790.29999923706,153_y_m_n_a.png,I,m,758,8,3,1772.3999996185303,223017.89999961853,9023,NNB,B,7
8,test,2,0.0,1-Back,1.0,m,Tue Jan 13 2026 14:42:32 GMT-0500 (Eastern Standard Time),226556.89999961853,110_o_f_n_a.png,I,m,733,9,3,1753.5,224803.39999961853,9023,NNB,B,8
9,test,2,0.0,1-Back,1.0,m,Tue Jan 13 2026 14:42:32 GMT-0500 (Eastern Standard Time),228306.89999961853,178_m_m_n_a.png,I,m,727,10,3,1739.6000003814697,226567.29999923706,9023,NNB,B,9
10,test,2,1.0,1-Back,1.0,z,Tue Jan 13 2026 14:42:32 GMT-0500 (Eastern Standard Time),230140.29999923706,178_m_m_n_a.png,I,z,802,11,3,1821.1999998092651,228319.0999994278,9023,NNB,B,10
11,test,2,0.0,1-Back,1.0,m,Tue Jan 13 2026 14:42:32 GMT-0500 (Eastern Standard Time),231923.5999994278,110_o_f_n_a.png,I,m,760,12,3,1771.3000001907349,230152.29999923706,9023,NNB,B,11
12,test,2,0.0,1-Back,1.0,m,Tue Jan 13 2026 14:42:32 GMT-0500 (Eastern Standard Time),233673.5,086_o_f_n_a.png,I,m,721,13,3,1739.3000001907349,231934.19999980927,9023,NNB,B,12
13,test,2,0.0,1-Back,1.0,m,Tue Jan 13 2026 14:42:32 GMT-0500 (Eastern Standard Time),235340.19999980927,176_o_m_n_a.png,I,m,635,14,3,1653.8000001907349,233686.39999961853,9023,NNB,B,13
14,test,2,0.0,1-Back,1.0,m,Tue Jan 13 2026 14:42:32 GMT-0500 (Eastern Standard Time),237056.79999923706,065_o_m_n_a.png,I,m,696,15,3,1705.8999996185303,235350.89999961853,9023,NNB,B,14
15,test,2,1.0,1-Back,1.0,z,Tue Jan 13 2026 14:42:32 GMT-0500 (Eastern Standard Time),238840.29999923706,065_o_m_n_a.png,I,z,756,16,3,1774.5,237065.79999923706,9023,NNB,B,15
16,test,2,0.0,1-Back,1.0,m,Tue Jan 13 2026 14:42:32 GMT-0500 (Eastern Standard Time),240590.39999961853,013_y_m_n_a.png,I,m,732,17,3,1739.6999998092651,238850.69999980927,9023,NNB,B,16
17,test,2,1.0,1-Back,1.0,z,Tue Jan 13 2026 14:42:32 GMT-0500 (Eastern Standard Time),242406.79999923706,013_y_m_n_a.png,I,z,790,18,3,1807.3999996185303,240599.39999961853,9023,NNB,B,17
0,test,3,1.0,1-Back,,,Tue Jan 13 2026 14:42:32 GMT-0500 (Eastern Standard Time),242406.79999923706,173_y_f_n_a.png,I,space,1750,1,3,1807.3999996185303,240599.39999961853,9023,NNB,B,0
1,test,3,0.0,1-Back,1.0,m,Tue Jan 13 2026 14:42:32 GMT-0500 (Eastern Standard Time),248473.5999994278,065_o_m_n_a.png,I,m,1121,1,3,2143.199999809265,246330.39999961853,9023,NNB,B,1
2,test,3,1.0,1-Back,1.0,z,Tue Jan 13 2026 14:42:32 GMT-0500 (Eastern Standard Time),250390.19999980927,065_o_m_n_a.png,I,z,891,1,3,1904.1999998092651,248486.0,9023,NNB,B,2
3,test,3,0.0,1-Back,1.0,m,Tue Jan 13 2026 14:42:32 GMT-0500 (Eastern Standard Time),251990.0,097_m_f_n_a.png,I,m,573,1,3,1588.5,250401.5,9023,NNB,B,3
4,test,3,1.0,1-Back,1.0,z,Tue Jan 13 2026 14:42:32 GMT-0500 (Eastern Standard Time),253756.79999923706,097_m_f_n_a.png,I,z,735,1,3,1759.7999992370605,251997.0,9023,NNB,B,4
5,test,3,0.0,1-Back,1.0,m,Tue Jan 13 2026 14:42:32 GMT-0500 (Eastern Standard Time),255390.39999961853,110_o_f_n_a.png,I,m,615,1,3,1623.1999998092651,253767.19999980927,9023,NNB,B,5
6,test,3,0.0,1-Back,1.0,m,Tue Jan 13 2026 14:42:32 GMT-0500 (Eastern Standard Time),256923.5,153_y_m_n_a.png,I,m,502,1,3,1524.8000001907349,255398.69999980927,9023,NNB,B,6
7,test,3,0.0,1-Back,1.0,m,Tue Jan 13 2026 14:42:32 GMT-0500 (Eastern Standard Time),258623.29999923706,110_o_f_n_a.png,I,m,681,1,3,1686.7999992370605,256936.5,9023,NNB,B,7
8,test,3,0.0,1-Back,1.0,m,Tue Jan 13 2026 14:42:32 GMT-0500 (Eastern Standard Time),260390.19999980927,013_y_m_n_a.png,I,m,741,1,3,1754.1000003814697,258636.0999994278,9023,NNB,B,8
9,test,3,1.0,1-Back,1.0,z,Tue Jan 13 2026 14:42:32 GMT-0500 (Eastern Standard Time),262073.5999994278,013_y_m_n_a.png,I,z,654,1,3,1671.6999998092651,260401.89999961853,9023,NNB,B,9
10,test,3,0.0,1-Back,1.0,m,Tue Jan 13 2026 14:42:32 GMT-0500 (Eastern Standard Time),263823.29999923706,029_m_f_n_a.png,I,m,731,1,3,1738.3999996185303,262084.89999961853,9023,NNB,B,10
11,test,3,0.0,1-Back,1.0,m,Tue Jan 13 2026 14:42:32 GMT-0500 (Eastern Standard Time),265823.19999980927,152_y_f_n_a.png,I,m,982,1,3,1987.1000003814697,263836.0999994278,9023,NNB,B,11
12,test,3,1.0,1-Back,1.0,z,Tue Jan 13 2026 14:42:32 GMT-0500 (Eastern Standard Time),267689.5,152_y_f_n_a.png,I,z,836,1,3,1853.7000007629395,265835.79999923706,9023,NNB,B,12
13,test,3,0.0,1-Back,1.0,m,Tue Jan 13 2026 14:42:32 GMT-0500 (Eastern Standard Time),269340.19999980927,029_m_f_n_a.png,I,m,618,1,3,1645.9000005722046,267694.29999923706,9023,NNB,B,13
14,test,3,0.0,1-Back,1.0,m,Tue Jan 13 2026 14:42:32 GMT-0500 (Eastern Standard Time),271023.29999923706,126_m_m_n_a.png,I,m,664,1,3,1672.5999994277954,269350.69999980927,9023,NNB,B,14
15,test,3,1.0,1-Back,1.0,z,Tue Jan 13 2026 14:42:32 GMT-0500 (Eastern Standard Time),272756.79999923706,126_m_m_n_a.png,I,z,709,1,3,1723.0999994277954,271033.69999980927,9023,NNB,B,15
16,test,3,0.0,1-Back,1.0,m,Tue Jan 13 2026 14:42:32 GMT-0500 (Eastern Standard Time),274523.5,086_o_f_n_a.png,I,m,736,1,3,1758.4000005722046,272765.0999994278,9023,NNB,B,16
17,test,3,1.0,1-Back,1.0,z,Tue Jan 13 2026 14:42:32 GMT-0500 (Eastern Standard Time),276740.19999980927,086_o_f_n_a.png,I,z,1192,1,3,2205.0,274535.19999980927,9023,NNB,B,17
0,test,4,1.0,1-Back,,,Tue Jan 13 2026 14:42:32 GMT-0500 (Eastern Standard Time),276740.19999980927,097_m_f_n_a.png,I,space,1592,1,3,2205.0,274535.19999980927,9023,NNB,B,0
1,test,4,0.0,1-Back,1.0,m,Tue Jan 13 2026 14:42:32 GMT-0500 (Eastern Standard Time),282290.0999994278,065_o_m_n_a.png,I,m,779,2,3,1787.8000001907349,280502.29999923706,9023,NNB,B,1
2,test,4,0.0,1-Back,1.0,m,Tue Jan 13 2026 14:42:32 GMT-0500 (Eastern Standard Time),284106.79999923706,097_m_f_n_a.png,I,m,786,3,3,1804.1999998092651,282302.5999994278,9023,NNB,B,2
3,test,4,0.0,1-Back,1.0,m,Tue Jan 13 2026 14:42:32 GMT-0500 (Eastern Standard Time),285806.5,110_o_f_n_a.png,I,m,682,4,3,1687.3000001907349,284119.19999980927,9023,NNB,B,3
4,test,4,1.0,1-Back,1.0,z,Tue Jan 13 2026 14:42:32 GMT-0500 (Eastern Standard Time),287623.5,110_o_f_n_a.png,I,z,790,5,3,1807.8000001907349,285815.69999980927,9023,NNB,B,4
5,test,4,0.0,1-Back,1.0,m,Tue Jan 13 2026 14:42:32 GMT-0500 (Eastern Standard Time),289256.79999923706,152_y_f_n_a.png,I,m,605,6,3,1621.6999998092651,287635.0999994278,9023,NNB,B,5
6,test,4,0.0,1-Back,1.0,m,Tue Jan 13 2026 14:42:32 GMT-0500 (Eastern Standard Time),290873.5,153_y_m_n_a.png,I,m,587,7,3,1603.9000005722046,289269.5999994278,9023,NNB,B,6
7,test,4,1.0,1-Back,1.0,z,Tue Jan 13 2026 14:42:32 GMT-0500 (Eastern Standard Time),292540.0999994278,153_y_m_n_a.png,I,z,634,8,3,1656.0,290884.0999994278,9023,NNB,B,7
8,test,4,0.0,1-Back,1.0,m,Tue Jan 13 2026 14:42:32 GMT-0500 (Eastern Standard Time),294173.29999923706,152_y_f_n_a.png,I,m,600,9,3,1621.2999992370605,292552.0,9023,NNB,B,8
9,test,4,0.0,1-Back,1.0,m,Tue Jan 13 2026 14:42:32 GMT-0500 (Eastern Standard Time),295806.5999994278,178_m_m_n_a.png,I,m,615,10,3,1622.3999996185303,294184.19999980927,9023,NNB,B,9
9,test,4,1.0,1-Back,0.0,z,Tue Jan 13 2026 14:42:32 GMT-0500 (Eastern Standard Time),297556.79999923706,178_m_m_n_a.png,I,m,726,11,3,1742.5,295814.29999923706,9023,NNB,B,10
10,test,4,0.0,1-Back,1.0,m,Tue Jan 13 2026 14:42:32 GMT-0500 (Eastern Standard Time),299290.19999980927,086_o_f_n_a.png,I,m,702,12,3,1721.9000005722046,297568.29999923706,9023,NNB,B,11
11,test,4,0.0,1-Back,1.0,m,Tue Jan 13 2026 14:42:32 GMT-0500 (Eastern Standard Time),301006.5,176_o_m_n_a.png,I,m,698,13,3,1701.4000005722046,299305.0999994278,9023,NNB,B,12
12,test,4,0.0,1-Back,1.0,m,Tue Jan 13 2026 14:42:32 GMT-0500 (Eastern Standard Time),302956.79999923706,086_o_f_n_a.png,I,m,917,14,3,1938.3999996185303,301018.39999961853,9023,NNB,B,13
13,test,4,0.0,1-Back,1.0,m,Tue Jan 13 2026 14:42:32 GMT-0500 (Eastern Standard Time),304606.69999980927,173_y_f_n_a.png,I,m,632,15,3,1637.5,302969.19999980927,9023,NNB,B,14
14,test,4,1.0,1-Back,1.0,z,Tue Jan 13 2026 14:42:32 GMT-0500 (Eastern Standard Time),306356.79999923706,173_y_f_n_a.png,I,z,726,16,3,1741.6999998092651,304615.0999994278,9023,NNB,B,15
15,test,4,0.0,1-Back,1.0,m,Tue Jan 13 2026 14:42:32 GMT-0500 (Eastern Standard Time),308023.5,029_m_f_n_a.png,I,m,640,17,3,1658.0,306365.5,9023,NNB,B,16
16,test,4,1.0,1-Back,1.0,z,Tue Jan 13 2026 14:42:32 GMT-0500 (Eastern Standard Time),309839.89999961853,029_m_f_n_a.png,I,z,797,18,3,1804.6999998092651,308035.19999980927,9023,NNB,B,17
0,test,5,1.0,1-Back,,,Tue Jan 13 2026 14:42:32 GMT-0500 (Eastern Standard Time),309839.89999961853,176_o_m_n_a.png,I,space,1261,1,3,1804.6999998092651,308035.19999980927,9023,NNB,B,0
0,test,5,1.0,1-Back,0.0,z,Tue Jan 13 2026 14:42:32 GMT-0500 (Eastern Standard Time),315025.29999923706,176_o_m_n_a.png,I,m,881,2,3,1890.0999994277954,313135.19999980927,9023,NNB,B,1
1,test,5,0.0,1-Back,1.0,m,Tue Jan 13 2026 14:42:32 GMT-0500 (Eastern Standard Time),316806.79999923706,152_y_f_n_a.png,I,m,757,3,3,1776.0,315030.79999923706,9023,NNB,B,2
2,test,5,0.0,1-Back,1.0,m,Tue Jan 13 2026 14:42:32 GMT-0500 (Eastern Standard Time),318706.79999923706,153_y_m_n_a.png,I,m,877,4,3,1887.0,316819.79999923706,9023,NNB,B,3
3,test,5,0.0,1-Back,1.0,m,Tue Jan 13 2026 14:42:32 GMT-0500 (Eastern Standard Time),320390.0,152_y_f_n_a.png,I,m,658,5,3,1670.8000001907349,318719.19999980927,9023,NNB,B,4
4,test,5,0.0,1-Back,1.0,m,Tue Jan 13 2026 14:42:32 GMT-0500 (Eastern Standard Time),322090.0999994278,126_m_m_n_a.png,I,m,671,6,3,1689.6999998092651,320400.39999961853,9023,NNB,B,5
5,test,5,1.0,1-Back,1.0,z,Tue Jan 13 2026 14:42:32 GMT-0500 (Eastern Standard Time),323773.5,126_m_m_n_a.png,I,z,649,7,3,1671.3000001907349,322102.19999980927,9023,NNB,B,6
6,test,5,0.0,1-Back,1.0,m,Tue Jan 13 2026 14:42:32 GMT-0500 (Eastern Standard Time),325456.5,173_y_f_n_a.png,I,m,663,8,3,1670.4000005722046,323786.0999994278,9023,NNB,B,7
7,test,5,0.0,1-Back,1.0,m,Tue Jan 13 2026 14:42:32 GMT-0500 (Eastern Standard Time),327206.89999961853,013_y_m_n_a.png,I,m,723,9,3,1739.8999996185303,325467.0,9023,NNB,B,8
8,test,5,0.0,1-Back,1.0,m,Tue Jan 13 2026 14:42:32 GMT-0500 (Eastern Standard Time),329124.0999994278,173_y_f_n_a.png,I,m,896,10,3,1907.8000001907349,327216.29999923706,9023,NNB,B,9
9,test,5,0.0,1-Back,1.0,m,Tue Jan 13 2026 14:42:32 GMT-0500 (Eastern Standard Time),330823.5,086_o_f_n_a.png,I,m,673,11,3,1694.4000005722046,329129.0999994278,9023,NNB,B,10
10,test,5,1.0,1-Back,1.0,z,Tue Jan 13 2026 14:42:32 GMT-0500 (Eastern Standard Time),332456.79999923706,086_o_f_n_a.png,I,z,605,12,3,1622.5,330834.29999923706,9023,NNB,B,11
11,test,5,0.0,1-Back,1.0,m,Tue Jan 13 2026 14:42:32 GMT-0500 (Eastern Standard Time),334323.39999961853,065_o_m_n_a.png,I,m,844,13,3,1855.3000001907349,332468.0999994278,9023,NNB,B,12
12,test,5,0.0,1-Back,1.0,m,Tue Jan 13 2026 14:42:32 GMT-0500 (Eastern Standard Time),335940.0,097_m_f_n_a.png,I,m,593,14,3,1605.8000001907349,334334.19999980927,9023,NNB,B,13
13,test,5,1.0,1-Back,1.0,z,Tue Jan 13 2026 14:42:32 GMT-0500 (Eastern Standard Time),337806.5,097_m_f_n_a.png,I,z,849,15,3,1858.6000003814697,335947.89999961853,9023,NNB,B,14
14,test,5,0.0,1-Back,1.0,m,Tue Jan 13 2026 14:42:32 GMT-0500 (Eastern Standard Time),339390.39999961853,065_o_m_n_a.png,I,m,566,16,3,1575.6999998092651,337814.69999980927,9023,NNB,B,15
15,test,5,0.0,1-Back,1.0,m,Tue Jan 13 2026 14:42:32 GMT-0500 (Eastern Standard Time),340990.19999980927,029_m_f_n_a.png,I,m,565,17,3,1588.0,339402.19999980927,9023,NNB,B,16
16,test,5,0.0,1-Back,1.0,m,Tue Jan 13 2026 14:42:32 GMT-0500 (Eastern Standard Time),342656.5999994278,178_m_m_n_a.png,I,m,647,18,3,1656.0,341000.5999994278,9023,NNB,B,17
0,prac,1,0.0,2-Back,,,Tue Jan 13 2026 14:42:32 GMT-0500 (Eastern Standard Time),342656.5999994278,013_y_m_n_a.png,I,space,8943,1,3,1656.0,341000.5999994278,9023,NNB,B,0
0,prac,1,0.0,2-Back,,,Tue Jan 13 2026 14:42:32 GMT-0500 (Eastern Standard Time),342656.5999994278,029_m_f_n_a.png,I,space,8943,2,3,1656.0,341000.5999994278,9023,NNB,B,0
1,prac,1,1.0,2-Back,1.0,m,Tue Jan 13 2026 14:42:32 GMT-0500 (Eastern Standard Time),460023.69999980927,065_o_m_n_a.png,I,m,1448,3,3,2367.4000005722046,457656.29999923706,9023,NNB,B,1
1,prac,1,0.0,2-Back,0.0,m,Tue Jan 13 2026 14:42:32 GMT-0500 (Eastern Standard Time),462973.29999923706,086_o_f_n_a.png,I,None,2006,4,3,2934.5999994277954,460038.69999980927,9023,NNB,B,2
1,prac,1,0.0,2-Back,0.0,z,Tue Jan 13 2026 14:42:32 GMT-0500 (Eastern Standard Time),464956.79999923706,065_o_m_n_a.png,I,m,1184,5,3,1967.2999992370605,462989.5,9023,NNB,B,3
1,prac,1,1.0,2-Back,0.0,z,Tue Jan 13 2026 14:42:32 GMT-0500 (Eastern Standard Time),466990.0999994278,086_o_f_n_a.png,I,m,1251,6,3,2019.3000001907349,464970.79999923706,9023,NNB,B,4
2,prac,1,0.0,2-Back,1.0,m,Tue Jan 13 2026 14:42:32 GMT-0500 (Eastern Standard Time),468806.79999923706,178_m_m_n_a.png,I,m,870,7,3,1803.3999996185303,467003.39999961853,9023,NNB,B,5
3,prac,1,0.0,2-Back,1.0,m,Tue Jan 13 2026 14:42:32 GMT-0500 (Eastern Standard Time),470606.0,176_o_m_n_a.png,I,m,868,8,3,1783.2000007629395,468822.79999923706,9023,NNB,B,6
4,prac,1,0.0,2-Back,1.0,m,Tue Jan 13 2026 14:42:32 GMT-0500 (Eastern Standard Time),472506.79999923706,173_y_f_n_a.png,I,m,973,9,3,1892.5999994277954,470614.19999980927,9023,NNB,B,7
5,prac,1,1.0,2-Back,1.0,z,Tue Jan 13 2026 14:42:32 GMT-0500 (Eastern Standard Time),474373.5,176_o_m_n_a.png,I,z,1074,10,3,1850.4000005722046,472523.0999994278,9023,NNB,B,8
6,prac,1,0.0,2-Back,1.0,m,Tue Jan 13 2026 14:42:32 GMT-0500 (Eastern Standard Time),476523.5,152_y_f_n_a.png,I,m,1214,11,3,2135.6000003814697,474387.89999961853,9023,NNB,B,9
7,prac,1,0.0,2-Back,1.0,m,Tue Jan 13 2026 14:42:32 GMT-0500 (Eastern Standard Time),478206.79999923706,178_m_m_n_a.png,I,m,896,12,3,1665.2999992370605,476541.5,9023,NNB,B,10
0,test,1,0.0,2-Back,,,Tue Jan 13 2026 14:42:32 GMT-0500 (Eastern Standard Time),478206.79999923706,153_y_m_n_a.png,I,space,10098,1,3,1665.2999992370605,476541.5,9023,NNB,B,0
0,test,1,0.0,2-Back,,,Tue Jan 13 2026 14:42:32 GMT-0500 (Eastern Standard Time),478206.79999923706,153_y_m_n_a.png,I,space,10098,2,3,1665.2999992370605,476541.5,9023,NNB,B,0
1,test,1,0.0,2-Back,1.0,m,Tue Jan 13 2026 14:42:32 GMT-0500 (Eastern Standard Time),512906.69999980927,086_o_f_n_a.png,I,m,870,3,3,1887.6000003814697,511019.0999994278,9023,NNB,B,1
2,test,1,0.0,2-Back,1.0,m,Tue Jan 13 2026 14:42:32 GMT-0500 (Eastern Standard Time),514923.19999980927,126_m_m_n_a.png,I,m,985,4,3,2006.9000005722046,512916.29999923706,9023,NNB,B,2
3,test,1,1.0,2-Back,1.0,z,Tue Jan 13 2026 14:42:32 GMT-0500 (Eastern Standard Time),516723.19999980927,086_o_f_n_a.png,I,z,778,5,3,1789.6000003814697,514933.5999994278,9023,NNB,B,3
4,test,1,0.0,2-Back,1.0,m,Tue Jan 13 2026 14:42:32 GMT-0500 (Eastern Standard Time),518772.89999961853,152_y_f_n_a.png,I,m,1024,6,3,2037.3999996185303,516735.5,9023,NNB,B,4
4,test,1,0.0,2-Back,0.0,m,Tue Jan 13 2026 14:42:32 GMT-0500 (Eastern Standard Time),520706.5999994278,126_m_m_n_a.png,I,z,911,7,3,1927.0999994277954,518779.5,9023,NNB,B,5
5,test,1,1.0,2-Back,1.0,z,Tue Jan 13 2026 14:42:32 GMT-0500 (Eastern Standard Time),522756.5999994278,152_y_f_n_a.png,I,z,1025,8,3,2035.5999994277954,520721.0,9023,NNB,B,6
6,test,1,0.0,2-Back,1.0,m,Tue Jan 13 2026 14:42:32 GMT-0500 (Eastern Standard Time),525056.5,013_y_m_n_a.png,I,m,1279,9,3,2290.7000007629395,522765.79999923706,9023,NNB,B,7
7,test,1,0.0,2-Back,1.0,m,Tue Jan 13 2026 14:42:32 GMT-0500 (Eastern Standard Time),527206.5999994278,110_o_f_n_a.png,I,m,1122,10,3,2138.699999809265,525067.8999996185,9023,NNB,B,8
8,test,1,1.0,2-Back,1.0,z,Tue Jan 13 2026 14:42:32 GMT-0500 (Eastern Standard Time),529173.2999992371,013_y_m_n_a.png,I,z,924,11,3,1944.3999996185303,527228.8999996185,9023,NNB,B,9
9,test,1,0.0,2-Back,1.0,m,Tue Jan 13 2026 14:42:32 GMT-0500 (Eastern Standard Time),531423.0,029_m_f_n_a.png,I,m,1215,12,3,2236.0,529187.0,9023,NNB,B,10
10,test,1,0.0,2-Back,1.0,m,Tue Jan 13 2026 14:42:32 GMT-0500 (Eastern Standard Time),533606.5,029_m_f_n_a.png,I,m,1156,13,3,2174.0,531432.5,9023,NNB,B,11
11,test,1,0.0,2-Back,1.0,m,Tue Jan 13 2026 14:42:32 GMT-0500 (Eastern Standard Time),535790.5999994278,065_o_m_n_a.png,I,m,1165,14,3,2173.699999809265,533616.8999996185,9023,NNB,B,12
11,test,1,0.0,2-Back,0.0,m,Tue Jan 13 2026 14:42:32 GMT-0500 (Eastern Standard Time),537339.8999996185,110_o_f_n_a.png,I,z,519,15,3,1541.8999996185303,535798.0,9023,NNB,B,13
12,test,1,1.0,2-Back,1.0,z,Tue Jan 13 2026 14:42:32 GMT-0500 (Eastern Standard Time),539456.5999994278,065_o_m_n_a.png,I,z,1079,16,3,2101.800000190735,537354.7999992371,9023,NNB,B,14
13,test,1,0.0,2-Back,1.0,m,Tue Jan 13 2026 14:42:32 GMT-0500 (Eastern Standard Time),541673.1999998093,097_m_f_n_a.png,I,m,1187,17,3,2206.699999809265,539466.5,9023,NNB,B,15
14,test,1,0.0,2-Back,1.0,m,Tue Jan 13 2026 14:42:32 GMT-0500 (Eastern Standard Time),543623.1999998093,178_m_m_n_a.png,I,m,922,18,3,1936.1999998092651,541687.0,9023,NNB,B,16
0,test,2,0.0,2-Back,,,Tue Jan 13 2026 14:42:32 GMT-0500 (Eastern Standard Time),543623.1999998093,178_m_m_n_a.png,I,space,1796,1,3,1936.1999998092651,541687.0,9023,NNB,B,0
0,test,2,0.0,2-Back,,,Tue Jan 13 2026 14:42:32 GMT-0500 (Eastern Standard Time),543623.1999998093,173_y_f_n_a.png,I,space,1796,2,3,1936.1999998092651,541687.0,9023,NNB,B,0
0,test,2,1.0,2-Back,0.0,z,Tue Jan 13 2026 14:42:32 GMT-0500 (Eastern Standard Time),552789.8999996185,178_m_m_n_a.png,I,m,1142,3,3,2166.3999996185303,550623.5,9023,NNB,B,1
1,test,2,0.0,2-Back,1.0,m,Tue Jan 13 2026 14:42:32 GMT-0500 (Eastern Standard Time),554806.5,097_m_f_n_a.png,I,m,990,4,3,2003.8000001907349,552802.6999998093,9023,NNB,B,2
2,test,2,0.0,2-Back,1.0,m,Tue Jan 13 2026 14:42:32 GMT-0500 (Eastern Standard Time),557006.1999998093,173_y_f_n_a.png,I,m,1181,5,3,2188.4000005722046,554817.7999992371,9023,NNB,B,3
3,test,2,0.0,2-Back,1.0,m,Tue Jan 13 2026 14:42:32 GMT-0500 (Eastern Standard Time),558989.3999996185,065_o_m_n_a.png,I,m,966,6,3,1974.6999998092651,557014.6999998093,9023,NNB,B,4
4,test,2,0.0,2-Back,1.0,m,Tue Jan 13 2026 14:42:32 GMT-0500 (Eastern Standard Time),561323.1999998093,152_y_f_n_a.png,I,m,1302,7,3,2318.199999809265,559005.0,9023,NNB,B,5
5,test,2,1.0,2-Back,1.0,z,Tue Jan 13 2026 14:42:32 GMT-0500 (Eastern Standard Time),563156.5,065_o_m_n_a.png,I,z,809,8,3,1823.6000003814697,561332.8999996185,9023,NNB,B,6
6,test,2,0.0,2-Back,1.0,m,Tue Jan 13 2026 14:42:32 GMT-0500 (Eastern Standard Time),565356.5,013_y_m_n_a.png,I,m,1168,9,3,2188.1000003814697,563168.3999996185,9023,NNB,B,7
7,test,2,0.0,2-Back,1.0,m,Tue Jan 13 2026 14:42:32 GMT-0500 (Eastern Standard Time),567522.5999994278,013_y_m_n_a.png,I,m,1143,10,3,2152.3999996185303,565370.1999998093,9023,NNB,B,8
8,test,2,0.0,2-Back,1.0,m,Tue Jan 13 2026 14:42:32 GMT-0500 (Eastern Standard Time),569805.8999996185,029_m_f_n_a.png,I,m,1264,11,3,2279.1000003814697,567526.7999992371,9023,NNB,B,9
8,test,2,0.0,2-Back,0.0,m,Tue Jan 13 2026 14:42:32 GMT-0500 (Eastern Standard Time),572039.5,173_y_f_n_a.png,I,z,1205,12,3,2229.1000003814697,569810.3999996185,9023,NNB,B,10
9,test,2,1.0,2-Back,1.0,z,Tue Jan 13 2026 14:42:32 GMT-0500 (Eastern Standard Time),574289.5,029_m_f_n_a.png,I,z,1228,13,3,2244.800000190735,572044.6999998093,9023,NNB,B,11
10,test,2,0.0,2-Back,1.0,m,Tue Jan 13 2026 14:42:32 GMT-0500 (Eastern Standard Time),576239.5999994278,176_o_m_n_a.png,I,m,930,14,3,1945.5,574294.0999994278,9023,NNB,B,12
11,test,2,0.0,2-Back,1.0,m,Tue Jan 13 2026 14:42:32 GMT-0500 (Eastern Standard Time),578456.5,176_o_m_n_a.png,I,m,1188,15,3,2202.6000003814697,576253.8999996185,9023,NNB,B,13
12,test,2,0.0,2-Back,1.0,m,Tue Jan 13 2026 14:42:32 GMT-0500 (Eastern Standard Time),580789.7999992371,110_o_f_n_a.png,I,m,1291,16,3,2318.0999994277954,578471.6999998093,9023,NNB,B,14
13,test,2,0.0,2-Back,1.0,m,Tue Jan 13 2026 14:42:32 GMT-0500 (Eastern Standard Time),583006.2999992371,126_m_m_n_a.png,I,m,1199,17,3,2207.699999809265,580798.5999994278,9023,NNB,B,15
14,test,2,1.0,2-Back,1.0,z,Tue Jan 13 2026 14:42:32 GMT-0500 (Eastern Standard Time),584973.1999998093,110_o_f_n_a.png,I,z,934,18,3,1957.3000001907349,583015.8999996185,9023,NNB,B,16
0,test,3,1.0,2-Back,,,Tue Jan 13 2026 14:42:32 GMT-0500 (Eastern Standard Time),584973.1999998093,153_y_m_n_a.png,I,space,1742,1,3,1957.3000001907349,583015.8999996185,9023,NNB,B,0
0,test,3,1.0,2-Back,,,Tue Jan 13 2026 14:42:32 GMT-0500 (Eastern Standard Time),584973.1999998093,153_y_m_n_a.png,I,space,1742,2,3,1957.3000001907349,583015.8999996185,9023,NNB,B,0
1,test,3,0.0,2-Back,1.0,m,Tue Jan 13 2026 14:42:32 GMT-0500 (Eastern Standard Time),593790.2999992371,110_o_f_n_a.png,I,m,865,3,3,1871.5,591918.7999992371,9023,NNB,B,1
2,test,3,0.0,2-Back,1.0,m,Tue Jan 13 2026 14:42:32 GMT-0500 (Eastern Standard Time),595806.8999996185,178_m_m_n_a.png,I,m,999,4,3,2006.8999996185303,593800.0,9023,NNB,B,2
3,test,3,1.0,2-Back,1.0,z,Tue Jan 13 2026 14:42:32 GMT-0500 (Eastern Standard Time),597606.3999996185,110_o_f_n_a.png,I,z,773,5,3,1790.8999996185303,595815.5,9023,NNB,B,3
4,test,3,0.0,2-Back,1.0,m,Tue Jan 13 2026 14:42:32 GMT-0500 (Eastern Standard Time),599573.0999994278,013_y_m_n_a.png,I,m,941,6,3,1955.5999994277954,597617.5,9023,NNB,B,4
5,test,3,0.0,2-Back,1.0,m,Tue Jan 13 2026 14:42:32 GMT-0500 (Eastern Standard Time),601623.5999994278,178_m_m_n_a.png,I,m,1023,7,3,2038.5999994277954,599585.0,9023,NNB,B,5
6,test,3,1.0,2-Back,1.0,z,Tue Jan 13 2026 14:42:32 GMT-0500 (Eastern Standard Time),603623.0999994278,013_y_m_n_a.png,I,z,973,8,3,1988.3000001907349,601634.7999992371,9023,NNB,B,6
7,test,3,0.0,2-Back,1.0,m,Tue Jan 13 2026 14:42:32 GMT-0500 (Eastern Standard Time),606006.5,173_y_f_n_a.png,I,m,1357,9,3,2371.9000005722046,603634.5999994278,9023,NNB,B,7
8,test,3,0.0,2-Back,1.0,m,Tue Jan 13 2026 14:42:32 GMT-0500 (Eastern Standard Time),608239.5,126_m_m_n_a.png,I,m,1213,10,3,2220.6000003814697,606018.8999996185,9023,NNB,B,8
9,test,3,1.0,2-Back,1.0,z,Tue Jan 13 2026 14:42:32 GMT-0500 (Eastern Standard Time),610005.8999996185,173_y_f_n_a.png,I,z,740,11,3,1755.1999998092651,608250.6999998093,9023,NNB,B,9
10,test,3,1.0,2-Back,1.0,z,Tue Jan 13 2026 14:42:32 GMT-0500 (Eastern Standard Time),611989.7999992371,126_m_m_n_a.png,I,z,957,12,3,1978.5999994277954,610011.1999998093,9023,NNB,B,10
11,test,3,0.0,2-Back,1.0,m,Tue Jan 13 2026 14:42:32 GMT-0500 (Eastern Standard Time),613923.1999998093,110_o_f_n_a.png,I,m,910,13,3,1923.1000003814697,612000.0999994278,9023,NNB,B,11
12,test,3,0.0,2-Back,1.0,m,Tue Jan 13 2026 14:42:32 GMT-0500 (Eastern Standard Time),615839.5,097_m_f_n_a.png,I,m,897,14,3,1905.2000007629395,613934.2999992371,9023,NNB,B,12
13,test,3,0.0,2-Back,1.0,m,Tue Jan 13 2026 14:42:32 GMT-0500 (Eastern Standard Time),617873.0999994278,065_o_m_n_a.png,I,m,1013,15,3,2021.8999996185303,615851.1999998093,9023,NNB,B,13
14,test,3,1.0,2-Back,1.0,z,Tue Jan 13 2026 14:42:32 GMT-0500 (Eastern Standard Time),620289.7999992371,097_m_f_n_a.png,I,z,1395,16,3,2403.0,617886.7999992371,9023,NNB,B,14
15,test,3,0.0,2-Back,1.0,m,Tue Jan 13 2026 14:42:32 GMT-0500 (Eastern Standard Time),622956.5,086_o_f_n_a.png,I,m,1632,17,3,2657.9000005722046,620298.5999994278,9023,NNB,B,15
16,test,3,0.0,2-Back,1.0,m,Tue Jan 13 2026 14:42:32 GMT-0500 (Eastern Standard Time),625073.0999994278,086_o_f_n_a.png,I,m,1095,18,3,2105.0,622968.0999994278,9023,NNB,B,16
0,test,4,0.0,2-Back,,,Tue Jan 13 2026 14:42:32 GMT-0500 (Eastern Standard Time),625073.0999994278,176_o_m_n_a.png,I,space,1387,1,3,2105.0,622968.0999994278,9023,NNB,B,0
0,test,4,0.0,2-Back,,,Tue Jan 13 2026 14:42:32 GMT-0500 (Eastern Standard Time),625073.0999994278,152_y_f_n_a.png,I,space,1387,2,3,2105.0,622968.0999994278,9023,NNB,B,0
1,test,4,1.0,2-Back,1.0,z,Tue Jan 13 2026 14:42:32 GMT-0500 (Eastern Standard Time),633806.5999994278,176_o_m_n_a.png,I,z,982,3,3,1987.8999996185303,631818.6999998093,9023,NNB,B,1
2,test,4,1.0,2-Back,1.0,z,Tue Jan 13 2026 14:42:32 GMT-0500 (Eastern Standard Time),635689.8999996185,152_y_f_n_a.png,I,z,853,4,3,1876.5,633813.3999996185,9023,NNB,B,2
3,test,4,0.0,2-Back,1.0,m,Tue Jan 13 2026 14:42:32 GMT-0500 (Eastern Standard Time),637589.6999998093,110_o_f_n_a.png,I,m,874,5,3,1886.1999998092651,635703.5,9023,NNB,B,3
4,test,4,0.0,2-Back,1.0,m,Tue Jan 13 2026 14:42:32 GMT-0500 (Eastern Standard Time),639589.6999998093,110_o_f_n_a.png,I,m,974,6,3,1988.0,637601.6999998093,9023,NNB,B,4
5,test,4,0.0,2-Back,1.0,m,Tue Jan 13 2026 14:42:32 GMT-0500 (Eastern Standard Time),641822.7999992371,029_m_f_n_a.png,I,m,1214,7,3,2223.2999992370605,639599.5,9023,NNB,B,5
6,test,4,0.0,2-Back,1.0,m,Tue Jan 13 2026 14:42:32 GMT-0500 (Eastern Standard Time),643889.5999994278,013_y_m_n_a.png,I,m,1045,8,3,2054.199999809265,641835.3999996185,9023,NNB,B,6
7,test,4,1.0,2-Back,1.0,z,Tue Jan 13 2026 14:42:32 GMT-0500 (Eastern Standard Time),645689.7999992371,029_m_f_n_a.png,I,z,770,9,3,1790.6999998092651,643899.0999994278,9023,NNB,B,7
8,test,4,0.0,2-Back,1.0,m,Tue Jan 13 2026 14:42:32 GMT-0500 (Eastern Standard Time),647573.0999994278,126_m_m_n_a.png,I,m,857,10,3,1871.0,645702.0999994278,9023,NNB,B,8
9,test,4,0.0,2-Back,1.0,m,Tue Jan 13 2026 14:42:32 GMT-0500 (Eastern Standard Time),649789.7999992371,013_y_m_n_a.png,I,m,1184,11,3,2205.0999994277954,647584.6999998093,9023,NNB,B,9
10,test,4,0.0,2-Back,1.0,m,Tue Jan 13 2026 14:42:32 GMT-0500 (Eastern Standard Time),651723.0999994278,086_o_f_n_a.png,I,m,902,12,3,1922.3999996185303,649800.6999998093,9023,NNB,B,10
11,test,4,0.0,2-Back,1.0,m,Tue Jan 13 2026 14:42:32 GMT-0500 (Eastern Standard Time),653606.3999996185,153_y_m_n_a.png,I,m,857,13,3,1872.1000003814697,651734.2999992371,9023,NNB,B,11
12,test,4,1.0,2-Back,1.0,z,Tue Jan 13 2026 14:42:32 GMT-0500 (Eastern Standard Time),655389.8999996185,086_o_f_n_a.png,I,z,766,14,3,1773.1999998092651,653616.6999998093,9023,NNB,B,12
12,test,4,1.0,2-Back,0.0,z,Tue Jan 13 2026 14:42:32 GMT-0500 (Eastern Standard Time),657906.3999996185,153_y_m_n_a.png,I,m,1494,15,3,2503.199999809265,655403.1999998093,9023,NNB,B,13
13,test,4,0.0,2-Back,1.0,m,Tue Jan 13 2026 14:42:32 GMT-0500 (Eastern Standard Time),659839.5,178_m_m_n_a.png,I,m,913,16,3,1921.0,657918.5,9023,NNB,B,14
14,test,4,0.0,2-Back,1.0,m,Tue Jan 13 2026 14:42:32 GMT-0500 (Eastern Standard Time),661623.0999994278,097_m_f_n_a.png,I,m,755,17,3,1773.3000001907349,659849.7999992371,9023,NNB,B,15
15,test,4,1.0,2-Back,1.0,z,Tue Jan 13 2026 14:42:32 GMT-0500 (Eastern Standard Time),663623.0999994278,178_m_m_n_a.png,I,z,973,18,3,1989.3999996185303,661633.6999998093,9023,NNB,B,16
0,test,5,1.0,2-Back,,,Tue Jan 13 2026 14:42:32 GMT-0500 (Eastern Standard Time),663623.0999994278,153_y_m_n_a.png,I,space,1444,1,3,1989.3999996185303,661633.6999998093,9023,NNB,B,0
0,test,5,1.0,2-Back,,,Tue Jan 13 2026 14:42:32 GMT-0500 (Eastern Standard Time),663623.0999994278,097_m_f_n_a.png,I,space,1444,2,3,1989.3999996185303,661633.6999998093,9023,NNB,B,0
1,test,5,1.0,2-Back,1.0,z,Tue Jan 13 2026 14:42:32 GMT-0500 (Eastern Standard Time),672123.0999994278,153_y_m_n_a.png,I,z,936,3,3,1955.3999996185303,670167.6999998093,9023,NNB,B,1
2,test,5,1.0,2-Back,1.0,z,Tue Jan 13 2026 14:42:32 GMT-0500 (Eastern Standard Time),674056.5,097_m_f_n_a.png,I,z,906,4,3,1923.8000001907349,672132.6999998093,9023,NNB,B,2
3,test,5,0.0,2-Back,1.0,m,Tue Jan 13 2026 14:42:32 GMT-0500 (Eastern Standard Time),676006.2999992371,086_o_f_n_a.png,I,m,923,5,3,1939.8999996185303,674066.3999996185,9023,NNB,B,3
4,test,5,0.0,2-Back,1.0,m,Tue Jan 13 2026 14:42:32 GMT-0500 (Eastern Standard Time),678373.0,153_y_m_n_a.png,I,m,1341,6,3,2356.4000005722046,676016.5999994278,9023,NNB,B,4
5,test,5,0.0,2-Back,1.0,m,Tue Jan 13 2026 14:42:32 GMT-0500 (Eastern Standard Time),680473.0,173_y_f_n_a.png,I,m,1070,7,3,2089.800000190735,678383.1999998093,9023,NNB,B,5
5,test,5,0.0,2-Back,0.0,m,Tue Jan 13 2026 14:42:32 GMT-0500 (Eastern Standard Time),682589.6999998093,086_o_f_n_a.png,I,z,1084,8,3,2103.300000190735,680486.3999996185,9023,NNB,B,6
6,test,5,1.0,2-Back,1.0,z,Tue Jan 13 2026 14:42:32 GMT-0500 (Eastern Standard Time),684606.1999998093,173_y_f_n_a.png,I,z,998,9,3,2005.4000005722046,682600.7999992371,9023,NNB,B,7
7,test,5,0.0,2-Back,1.0,m,Tue Jan 13 2026 14:42:32 GMT-0500 (Eastern Standard Time),686439.7999992371,065_o_m_n_a.png,I,m,805,10,3,1820.8999996185303,684618.8999996185,9023,NNB,B,8
8,test,5,0.0,2-Back,1.0,m,Tue Jan 13 2026 14:42:32 GMT-0500 (Eastern Standard Time),688239.3999996185,029_m_f_n_a.png,I,m,780,11,3,1785.6000003814697,686453.7999992371,9023,NNB,B,9
9,test,5,0.0,2-Back,1.0,m,Tue Jan 13 2026 14:42:32 GMT-0500 (Eastern Standard Time),690289.6999998093,126_m_m_n_a.png,I,m,1027,12,3,2038.1000003814697,688251.5999994278,9023,NNB,B,10
9,test,5,0.0,2-Back,0.0,m,Tue Jan 13 2026 14:42:32 GMT-0500 (Eastern Standard Time),692623.8999996185,065_o_m_n_a.png,I,z,1315,13,3,2323.699999809265,690300.1999998093,9023,NNB,B,11
10,test,5,1.0,2-Back,1.0,z,Tue Jan 13 2026 14:42:32 GMT-0500 (Eastern Standard Time),694590.0,126_m_m_n_a.png,I,z,949,14,3,1955.8000001907349,692634.1999998093,9023,NNB,B,12
11,test,5,0.0,2-Back,1.0,m,Tue Jan 13 2026 14:42:32 GMT-0500 (Eastern Standard Time),696606.1999998093,152_y_f_n_a.png,I,m,996,15,3,2007.1999998092651,694599.0,9023,NNB,B,13
12,test,5,0.0,2-Back,1.0,m,Tue Jan 13 2026 14:42:32 GMT-0500 (Eastern Standard Time),698472.7999992371,176_o_m_n_a.png,I,m,837,16,3,1858.6999998092651,696614.0999994278,9023,NNB,B,14
13,test,5,0.0,2-Back,1.0,m,Tue Jan 13 2026 14:42:32 GMT-0500 (Eastern Standard Time),700555.6999998093,029_m_f_n_a.png,I,m,1051,17,3,2074.6000003814697,698481.0999994278,9023,NNB,B,15
14,test,5,1.0,2-Back,1.0,z,Tue Jan 13 2026 14:42:32 GMT-0500 (Eastern Standard Time),702523.0999994278,176_o_m_n_a.png,I,z,935,18,3,1961.0,700562.0999994278,9023,NNB,B,16
