acc_sum,block,block_c,change,condition,correct,correct_response,datetime,endtime,face,project,response,response_time,row_sel,session_number,start_end,starttime,subject_id,task,task_vers,trial
0,prac,1,,1-Back,,,Tue Jul 29 2025 16:55:13 GMT-0500 (Central Daylight Time),,097_m_f_n_a.png,I,space,7403,1,2,,,8040,NNB,B,0
1,prac,1,0.0,1-Back,1,m,Tue Jul 29 2025 16:55:13 GMT-0500 (Central Daylight Time),104663.89999997616,152_y_f_n_a.png,I,m,1602,2,2,2444.600000023842,102219.29999995232,8040,NNB,B,1
2,prac,1,1.0,1-Back,1,z,Tue Jul 29 2025 16:55:13 GMT-0500 (Central Daylight Time),106380.39999997616,152_y_f_n_a.png,I,z,954,3,2,1707.3999999761581,104673.0,8040,NNB,B,2
3,prac,1,0.0,1-Back,1,m,Tue Jul 29 2025 16:55:13 GMT-0500 (Central Daylight Time),108563.0,176_o_m_n_a.png,I,m,1292,4,2,2171.8000000715256,106391.19999992847,8040,NNB,B,3
4,prac,1,0.0,1-Back,1,m,Tue Jul 29 2025 16:55:13 GMT-0500 (Central Daylight Time),110629.0,126_m_m_n_a.png,I,m,1290,5,2,2057.2000000476837,108571.79999995232,8040,NNB,B,4
5,prac,1,1.0,1-Back,1,z,Tue Jul 29 2025 16:55:13 GMT-0500 (Central Daylight Time),112411.69999992847,126_m_m_n_a.png,I,z,1005,6,2,1773.6999999284744,110638.0,8040,NNB,B,5
6,prac,1,0.0,1-Back,1,m,Tue Jul 29 2025 16:55:13 GMT-0500 (Central Daylight Time),114294.10000002384,086_o_f_n_a.png,I,m,1090,7,2,1873.6000000238419,112420.5,8040,NNB,B,6
7,prac,1,0.0,1-Back,1,m,Tue Jul 29 2025 16:55:13 GMT-0500 (Central Daylight Time),116375.5,178_m_m_n_a.png,I,m,1209,8,2,2071.399999976158,114304.10000002384,8040,NNB,B,7
8,prac,1,0.0,1-Back,1,m,Tue Jul 29 2025 16:55:13 GMT-0500 (Central Daylight Time),118289.29999995232,097_m_f_n_a.png,I,m,1139,9,2,1905.6000000238419,116383.69999992847,8040,NNB,B,8
9,prac,1,1.0,1-Back,1,z,Tue Jul 29 2025 16:55:13 GMT-0500 (Central Daylight Time),119940.0,097_m_f_n_a.png,I,z,890,10,2,1642.8999999761581,118297.10000002384,8040,NNB,B,9
10,prac,1,0.0,1-Back,1,m,Tue Jul 29 2025 16:55:13 GMT-0500 (Central Daylight Time),121840.89999997616,176_o_m_n_a.png,I,m,1119,11,2,1893.0,119947.89999997616,8040,NNB,B,10
11,prac,1,0.0,1-Back,1,m,Tue Jul 29 2025 16:55:13 GMT-0500 (Central Daylight Time),123789.69999992847,173_y_f_n_a.png,I,m,1074,12,2,1940.3999999761581,121849.29999995232,8040,NNB,B,11
0,test,1,0.0,1-Back,,,Tue Jul 29 2025 16:55:13 GMT-0500 (Central Daylight Time),123789.69999992847,152_y_f_n_a.png,I,space,10789,1,2,1940.3999999761581,121849.29999995232,8040,NNB,B,0
1,test,1,0.0,1-Back,1,m,Tue Jul 29 2025 16:55:13 GMT-0500 (Central Daylight Time),146999.19999992847,029_m_f_n_a.png,I,m,1418,2,2,2440.1999999284744,144559.0,8040,NNB,B,1
2,test,1,0.0,1-Back,1,m,Tue Jul 29 2025 16:55:13 GMT-0500 (Central Daylight Time),149166.19999992847,173_y_f_n_a.png,I,m,1150,3,2,2158.5,147007.69999992847,8040,NNB,B,2
3,test,1,1.0,1-Back,1,z,Tue Jul 29 2025 16:55:13 GMT-0500 (Central Daylight Time),151065.0,173_y_f_n_a.png,I,z,869,4,2,1890.3000000715256,149174.69999992847,8040,NNB,B,3
4,test,1,0.0,1-Back,1,m,Tue Jul 29 2025 16:55:13 GMT-0500 (Central Daylight Time),152980.5,029_m_f_n_a.png,I,m,889,5,2,1907.1000000238419,151073.39999997616,8040,NNB,B,4
5,test,1,0.0,1-Back,1,m,Tue Jul 29 2025 16:55:13 GMT-0500 (Central Daylight Time),155012.60000002384,176_o_m_n_a.png,I,m,1005,6,2,2024.0,152988.60000002384,8040,NNB,B,5
6,test,1,1.0,1-Back,1,z,Tue Jul 29 2025 16:55:13 GMT-0500 (Central Daylight Time),156945.89999997616,176_o_m_n_a.png,I,z,884,7,2,1925.2000000476837,155020.69999992847,8040,NNB,B,6
7,test,1,0.0,1-Back,1,m,Tue Jul 29 2025 16:55:13 GMT-0500 (Central Daylight Time),158895.29999995232,126_m_m_n_a.png,I,m,929,8,2,1942.2999999523163,156953.0,8040,NNB,B,7
8,test,1,0.0,1-Back,1,m,Tue Jul 29 2025 16:55:13 GMT-0500 (Central Daylight Time),160910.79999995232,086_o_f_n_a.png,I,m,993,9,2,2009.3999999761581,158901.39999997616,8040,NNB,B,8
9,test,1,0.0,1-Back,1,m,Tue Jul 29 2025 16:55:13 GMT-0500 (Central Daylight Time),162977.19999992847,126_m_m_n_a.png,I,m,1042,10,2,2060.399999976158,160916.79999995232,8040,NNB,B,9
10,test,1,0.0,1-Back,1,m,Tue Jul 29 2025 16:55:13 GMT-0500 (Central Daylight Time),165142.89999997616,153_y_m_n_a.png,I,m,1136,11,2,2158.7999999523163,162984.10000002384,8040,NNB,B,10
11,test,1,1.0,1-Back,1,z,Tue Jul 29 2025 16:55:13 GMT-0500 (Central Daylight Time),167177.69999992847,153_y_m_n_a.png,I,z,1001,12,2,2027.0999999046326,165150.60000002384,8040,NNB,B,11
12,test,1,0.0,1-Back,1,m,Tue Jul 29 2025 16:55:13 GMT-0500 (Central Daylight Time),169159.89999997616,110_o_f_n_a.png,I,m,961,13,2,1974.7000000476837,167185.19999992847,8040,NNB,B,12
13,test,1,1.0,1-Back,1,z,Tue Jul 29 2025 16:55:13 GMT-0500 (Central Daylight Time),171308.19999992847,110_o_f_n_a.png,I,z,1124,14,2,2140.1999999284744,169168.0,8040,NNB,B,13
14,test,1,0.0,1-Back,1,m,Tue Jul 29 2025 16:55:13 GMT-0500 (Central Daylight Time),173341.19999992847,013_y_m_n_a.png,I,m,1005,15,2,2026.0999999046326,171315.10000002384,8040,NNB,B,14
15,test,1,0.0,1-Back,1,m,Tue Jul 29 2025 16:55:13 GMT-0500 (Central Daylight Time),175325.19999992847,097_m_f_n_a.png,I,m,968,16,2,1975.5,173349.69999992847,8040,NNB,B,15
16,test,1,0.0,1-Back,1,m,Tue Jul 29 2025 16:55:13 GMT-0500 (Central Daylight Time),177456.19999992847,065_o_m_n_a.png,I,m,1101,17,2,2125.5999999046326,175330.60000002384,8040,NNB,B,16
17,test,1,0.0,1-Back,1,m,Tue Jul 29 2025 16:55:13 GMT-0500 (Central Daylight Time),179555.29999995232,097_m_f_n_a.png,I,m,1072,18,2,2092.5,177462.79999995232,8040,NNB,B,17
0,test,2,0.0,1-Back,,,Tue Jul 29 2025 16:55:13 GMT-0500 (Central Daylight Time),179555.29999995232,126_m_m_n_a.png,I,space,2768,1,2,2092.5,177462.79999995232,8040,NNB,B,0
1,test,2,0.0,1-Back,1,m,Tue Jul 29 2025 16:55:13 GMT-0500 (Central Daylight Time),186319.29999995232,029_m_f_n_a.png,I,m,944,2,2,1956.6000000238419,184362.69999992847,8040,NNB,B,1
2,test,2,1.0,1-Back,1,z,Tue Jul 29 2025 16:55:13 GMT-0500 (Central Daylight Time),188187.29999995232,029_m_f_n_a.png,I,z,851,3,2,1861.3999999761581,186325.89999997616,8040,NNB,B,2
3,test,2,0.0,1-Back,1,m,Tue Jul 29 2025 16:55:13 GMT-0500 (Central Daylight Time),190169.39999997616,126_m_m_n_a.png,I,m,952,4,2,1976.1000000238419,188193.29999995232,8040,NNB,B,3
4,test,2,0.0,1-Back,1,m,Tue Jul 29 2025 16:55:13 GMT-0500 (Central Daylight Time),192186.10000002384,153_y_m_n_a.png,I,m,993,5,2,2010.4000000953674,190175.69999992847,8040,NNB,B,4
5,test,2,0.0,1-Back,1,m,Tue Jul 29 2025 16:55:13 GMT-0500 (Central Daylight Time),194285.60000002384,152_y_f_n_a.png,I,m,1086,6,2,2091.9000000953674,192193.69999992847,8040,NNB,B,5
6,test,2,1.0,1-Back,1,z,Tue Jul 29 2025 16:55:13 GMT-0500 (Central Daylight Time),196165.29999995232,152_y_f_n_a.png,I,z,853,7,2,1869.8999999761581,194295.39999997616,8040,NNB,B,6
7,test,2,0.0,1-Back,1,m,Tue Jul 29 2025 16:55:13 GMT-0500 (Central Daylight Time),198149.5,153_y_m_n_a.png,I,m,963,8,2,1977.2000000476837,196172.29999995232,8040,NNB,B,7
8,test,2,0.0,1-Back,1,m,Tue Jul 29 2025 16:55:13 GMT-0500 (Central Daylight Time),200133.19999992847,110_o_f_n_a.png,I,m,956,9,2,1975.3999999761581,198157.79999995232,8040,NNB,B,8
9,test,2,0.0,1-Back,1,m,Tue Jul 29 2025 16:55:13 GMT-0500 (Central Daylight Time),202196.39999997616,178_m_m_n_a.png,I,m,1037,10,2,2055.399999976158,200141.0,8040,NNB,B,9
10,test,2,1.0,1-Back,1,z,Tue Jul 29 2025 16:55:13 GMT-0500 (Central Daylight Time),204097.79999995232,178_m_m_n_a.png,I,z,875,11,2,1895.6999999284744,202202.10000002384,8040,NNB,B,10
11,test,2,0.0,1-Back,1,m,Tue Jul 29 2025 16:55:13 GMT-0500 (Central Daylight Time),206497.29999995232,110_o_f_n_a.png,I,m,1368,12,2,2392.899999976158,204104.39999997616,8040,NNB,B,11
12,test,2,0.0,1-Back,1,m,Tue Jul 29 2025 16:55:13 GMT-0500 (Central Daylight Time),208446.29999995232,086_o_f_n_a.png,I,m,929,13,2,1942.2999999523163,206504.0,8040,NNB,B,12
13,test,2,0.0,1-Back,1,m,Tue Jul 29 2025 16:55:13 GMT-0500 (Central Daylight Time),210513.29999995232,176_o_m_n_a.png,I,m,1044,14,2,2059.0,208454.29999995232,8040,NNB,B,13
14,test,2,0.0,1-Back,1,m,Tue Jul 29 2025 16:55:13 GMT-0500 (Central Daylight Time),212362.0,065_o_m_n_a.png,I,m,825,15,2,1841.5,210520.5,8040,NNB,B,14
15,test,2,1.0,1-Back,1,z,Tue Jul 29 2025 16:55:13 GMT-0500 (Central Daylight Time),214244.39999997616,065_o_m_n_a.png,I,z,864,16,2,1874.8999999761581,212369.5,8040,NNB,B,15
16,test,2,0.0,1-Back,1,m,Tue Jul 29 2025 16:55:13 GMT-0500 (Central Daylight Time),216193.5,013_y_m_n_a.png,I,m,926,17,2,1942.0,214251.5,8040,NNB,B,16
17,test,2,1.0,1-Back,1,z,Tue Jul 29 2025 16:55:13 GMT-0500 (Central Daylight Time),218077.0,013_y_m_n_a.png,I,z,856,18,2,1876.2000000476837,216200.79999995232,8040,NNB,B,17
0,test,3,1.0,1-Back,,,Tue Jul 29 2025 16:55:13 GMT-0500 (Central Daylight Time),218077.0,173_y_f_n_a.png,I,space,2524,1,2,1876.2000000476837,216200.79999995232,8040,NNB,B,0
1,test,3,0.0,1-Back,1,m,Tue Jul 29 2025 16:55:13 GMT-0500 (Central Daylight Time),224491.89999997616,065_o_m_n_a.png,I,m,758,1,2,1780.2000000476837,222711.69999992847,8040,NNB,B,1
2,test,3,1.0,1-Back,1,z,Tue Jul 29 2025 16:55:13 GMT-0500 (Central Daylight Time),226391.0,065_o_m_n_a.png,I,z,870,1,2,1892.0,224499.0,8040,NNB,B,2
3,test,3,0.0,1-Back,1,m,Tue Jul 29 2025 16:55:13 GMT-0500 (Central Daylight Time),228356.89999997616,097_m_f_n_a.png,I,m,940,1,2,1958.0,226398.89999997616,8040,NNB,B,3
4,test,3,1.0,1-Back,1,z,Tue Jul 29 2025 16:55:13 GMT-0500 (Central Daylight Time),230222.19999992847,097_m_f_n_a.png,I,z,839,1,2,1858.5,228363.69999992847,8040,NNB,B,4
5,test,3,0.0,1-Back,1,m,Tue Jul 29 2025 16:55:13 GMT-0500 (Central Daylight Time),232155.69999992847,110_o_f_n_a.png,I,m,901,1,2,1927.1999999284744,230228.5,8040,NNB,B,5
6,test,3,0.0,1-Back,1,m,Tue Jul 29 2025 16:55:13 GMT-0500 (Central Daylight Time),234138.19999992847,153_y_m_n_a.png,I,m,958,1,2,1974.3999999761581,232163.79999995232,8040,NNB,B,6
7,test,3,0.0,1-Back,1,m,Tue Jul 29 2025 16:55:13 GMT-0500 (Central Daylight Time),236189.10000002384,110_o_f_n_a.png,I,m,1034,1,2,2043.7000000476837,234145.39999997616,8040,NNB,B,7
8,test,3,0.0,1-Back,1,m,Tue Jul 29 2025 16:55:13 GMT-0500 (Central Daylight Time),238287.0,013_y_m_n_a.png,I,m,1070,1,2,2089.899999976158,236197.10000002384,8040,NNB,B,8
9,test,3,1.0,1-Back,1,z,Tue Jul 29 2025 16:55:13 GMT-0500 (Central Daylight Time),240168.5,013_y_m_n_a.png,I,z,858,1,2,1874.8999999761581,238293.60000002384,8040,NNB,B,9
10,test,3,0.0,1-Back,1,m,Tue Jul 29 2025 16:55:13 GMT-0500 (Central Daylight Time),242051.89999997616,029_m_f_n_a.png,I,m,855,1,2,1876.6000000238419,240175.29999995232,8040,NNB,B,10
11,test,3,0.0,1-Back,1,m,Tue Jul 29 2025 16:55:13 GMT-0500 (Central Daylight Time),244018.89999997616,152_y_f_n_a.png,I,m,933,1,2,1960.1000000238419,242058.79999995232,8040,NNB,B,11
12,test,3,1.0,1-Back,1,z,Tue Jul 29 2025 16:55:13 GMT-0500 (Central Daylight Time),245886.39999997616,152_y_f_n_a.png,I,z,852,1,2,1861.5,244024.89999997616,8040,NNB,B,12
13,test,3,0.0,1-Back,1,m,Tue Jul 29 2025 16:55:13 GMT-0500 (Central Daylight Time),247650.5,029_m_f_n_a.png,I,m,741,1,2,1756.3999999761581,245894.10000002384,8040,NNB,B,13
14,test,3,0.0,1-Back,1,m,Tue Jul 29 2025 16:55:13 GMT-0500 (Central Daylight Time),249650.89999997616,126_m_m_n_a.png,I,m,967,1,2,1995.7999999523163,247655.10000002384,8040,NNB,B,14
15,test,3,1.0,1-Back,1,z,Tue Jul 29 2025 16:55:13 GMT-0500 (Central Daylight Time),251749.10000002384,126_m_m_n_a.png,I,z,1072,1,2,2091.8000000715256,249657.29999995232,8040,NNB,B,15
16,test,3,0.0,1-Back,1,m,Tue Jul 29 2025 16:55:13 GMT-0500 (Central Daylight Time),253648.89999997616,086_o_f_n_a.png,I,m,868,1,2,1892.7000000476837,251756.19999992847,8040,NNB,B,16
17,test,3,1.0,1-Back,1,z,Tue Jul 29 2025 16:55:13 GMT-0500 (Central Daylight Time),255513.89999997616,086_o_f_n_a.png,I,z,835,1,2,1858.8999999761581,253655.0,8040,NNB,B,17
0,test,4,1.0,1-Back,,,Tue Jul 29 2025 16:55:13 GMT-0500 (Central Daylight Time),255513.89999997616,097_m_f_n_a.png,I,space,3129,1,2,1858.8999999761581,253655.0,8040,NNB,B,0
1,test,4,0.0,1-Back,1,m,Tue Jul 29 2025 16:55:13 GMT-0500 (Central Daylight Time),262563.5,065_o_m_n_a.png,I,m,800,2,2,1809.8000000715256,260753.69999992847,8040,NNB,B,1
2,test,4,0.0,1-Back,1,m,Tue Jul 29 2025 16:55:13 GMT-0500 (Central Daylight Time),264694.0,097_m_f_n_a.png,I,m,1114,3,2,2123.600000023842,262570.39999997616,8040,NNB,B,2
3,test,4,0.0,1-Back,1,m,Tue Jul 29 2025 16:55:13 GMT-0500 (Central Daylight Time),266795.0,110_o_f_n_a.png,I,m,1083,4,2,2094.399999976158,264700.60000002384,8040,NNB,B,3
4,test,4,1.0,1-Back,1,z,Tue Jul 29 2025 16:55:13 GMT-0500 (Central Daylight Time),268726.7999999523,110_o_f_n_a.png,I,z,903,5,2,1925.3999999761581,266801.39999997616,8040,NNB,B,4
5,test,4,0.0,1-Back,1,m,Tue Jul 29 2025 16:55:13 GMT-0500 (Central Daylight Time),270625.89999997616,152_y_f_n_a.png,I,m,864,6,2,1892.2999999523163,268733.60000002384,8040,NNB,B,5
6,test,4,0.0,1-Back,1,m,Tue Jul 29 2025 16:55:13 GMT-0500 (Central Daylight Time),272559.10000002384,153_y_m_n_a.png,I,m,904,7,2,1925.9000000953674,270633.1999999285,8040,NNB,B,6
7,test,4,1.0,1-Back,1,z,Tue Jul 29 2025 16:55:13 GMT-0500 (Central Daylight Time),274491.60000002384,153_y_m_n_a.png,I,z,908,8,2,1924.9000000953674,272566.6999999285,8040,NNB,B,7
8,test,4,0.0,1-Back,1,m,Tue Jul 29 2025 16:55:13 GMT-0500 (Central Daylight Time),276356.60000002384,152_y_f_n_a.png,I,m,848,9,2,1857.1000000238419,274499.5,8040,NNB,B,8
9,test,4,0.0,1-Back,1,m,Tue Jul 29 2025 16:55:13 GMT-0500 (Central Daylight Time),278355.89999997616,178_m_m_n_a.png,I,m,980,10,2,1992.0,276363.89999997616,8040,NNB,B,9
10,test,4,1.0,1-Back,1,z,Tue Jul 29 2025 16:55:13 GMT-0500 (Central Daylight Time),280288.10000002384,178_m_m_n_a.png,I,z,902,11,2,1928.5,278359.60000002384,8040,NNB,B,10
11,test,4,0.0,1-Back,1,m,Tue Jul 29 2025 16:55:13 GMT-0500 (Central Daylight Time),282188.10000002384,086_o_f_n_a.png,I,m,872,12,2,1897.2000000476837,280290.89999997616,8040,NNB,B,11
12,test,4,0.0,1-Back,1,m,Tue Jul 29 2025 16:55:13 GMT-0500 (Central Daylight Time),284202.89999997616,176_o_m_n_a.png,I,m,996,13,2,2012.0,282190.89999997616,8040,NNB,B,12
13,test,4,0.0,1-Back,1,m,Tue Jul 29 2025 16:55:13 GMT-0500 (Central Daylight Time),286253.0,086_o_f_n_a.png,I,m,1022,14,2,2046.3999999761581,284206.60000002384,8040,NNB,B,13
14,test,4,0.0,1-Back,1,m,Tue Jul 29 2025 16:55:13 GMT-0500 (Central Daylight Time),288218.1999999285,173_y_f_n_a.png,I,m,939,15,2,1962.0,286256.1999999285,8040,NNB,B,14
15,test,4,1.0,1-Back,1,z,Tue Jul 29 2025 16:55:13 GMT-0500 (Central Daylight Time),290051.10000002384,173_y_f_n_a.png,I,z,807,16,2,1829.8000000715256,288221.2999999523,8040,NNB,B,15
16,test,4,0.0,1-Back,1,m,Tue Jul 29 2025 16:55:13 GMT-0500 (Central Daylight Time),291884.1999999285,029_m_f_n_a.png,I,m,804,17,2,1830.5999999046326,290053.60000002384,8040,NNB,B,16
17,test,4,1.0,1-Back,1,z,Tue Jul 29 2025 16:55:13 GMT-0500 (Central Daylight Time),293785.2999999523,029_m_f_n_a.png,I,z,865,18,2,1898.3999999761581,291886.89999997616,8040,NNB,B,17
0,test,5,1.0,1-Back,,,Tue Jul 29 2025 16:55:13 GMT-0500 (Central Daylight Time),293785.2999999523,176_o_m_n_a.png,I,space,2616,1,2,1898.3999999761581,291886.89999997616,8040,NNB,B,0
1,test,5,1.0,1-Back,1,z,Tue Jul 29 2025 16:55:13 GMT-0500 (Central Daylight Time),300134.1999999285,176_o_m_n_a.png,I,z,688,2,2,1708.1999999284744,298426.0,8040,NNB,B,1
2,test,5,0.0,1-Back,1,m,Tue Jul 29 2025 16:55:13 GMT-0500 (Central Daylight Time),301918.5,152_y_f_n_a.png,I,m,757,3,2,1776.8999999761581,300141.60000002384,8040,NNB,B,2
3,test,5,0.0,1-Back,1,m,Tue Jul 29 2025 16:55:13 GMT-0500 (Central Daylight Time),303817.0,153_y_m_n_a.png,I,m,870,4,2,1896.0,301921.0,8040,NNB,B,3
4,test,5,0.0,1-Back,1,m,Tue Jul 29 2025 16:55:13 GMT-0500 (Central Daylight Time),305782.10000002384,152_y_f_n_a.png,I,m,937,5,2,1956.9000000953674,303825.1999999285,8040,NNB,B,4
5,test,5,0.0,1-Back,1,m,Tue Jul 29 2025 16:55:13 GMT-0500 (Central Daylight Time),307781.1999999285,126_m_m_n_a.png,I,m,972,6,2,1991.3999999761581,305789.7999999523,8040,NNB,B,5
6,test,5,1.0,1-Back,1,z,Tue Jul 29 2025 16:55:13 GMT-0500 (Central Daylight Time),309631.10000002384,126_m_m_n_a.png,I,z,821,7,2,1843.6000000238419,307787.5,8040,NNB,B,6
7,test,5,0.0,1-Back,1,m,Tue Jul 29 2025 16:55:13 GMT-0500 (Central Daylight Time),311581.0,173_y_f_n_a.png,I,m,923,8,2,1941.8000000715256,309639.1999999285,8040,NNB,B,7
8,test,5,0.0,1-Back,1,m,Tue Jul 29 2025 16:55:13 GMT-0500 (Central Daylight Time),313496.89999997616,013_y_m_n_a.png,I,m,894,9,2,1912.0,311584.89999997616,8040,NNB,B,8
9,test,5,0.0,1-Back,1,m,Tue Jul 29 2025 16:55:13 GMT-0500 (Central Daylight Time),315445.60000002384,173_y_f_n_a.png,I,m,932,10,2,1941.7000000476837,313503.89999997616,8040,NNB,B,9
10,test,5,0.0,1-Back,1,m,Tue Jul 29 2025 16:55:13 GMT-0500 (Central Daylight Time),317412.1999999285,086_o_f_n_a.png,I,m,949,11,2,1959.0,315453.1999999285,8040,NNB,B,10
11,test,5,1.0,1-Back,1,z,Tue Jul 29 2025 16:55:13 GMT-0500 (Central Daylight Time),319211.6999999285,086_o_f_n_a.png,I,z,774,12,2,1793.3999999761581,317418.2999999523,8040,NNB,B,11
12,test,5,0.0,1-Back,1,m,Tue Jul 29 2025 16:55:13 GMT-0500 (Central Daylight Time),320977.60000002384,065_o_m_n_a.png,I,m,736,13,2,1758.1000000238419,319219.5,8040,NNB,B,12
13,test,5,0.0,1-Back,1,m,Tue Jul 29 2025 16:55:13 GMT-0500 (Central Daylight Time),322943.10000002384,097_m_f_n_a.png,I,m,945,14,2,1958.2000000476837,320984.89999997616,8040,NNB,B,13
14,test,5,1.0,1-Back,1,z,Tue Jul 29 2025 16:55:13 GMT-0500 (Central Daylight Time),324758.89999997616,097_m_f_n_a.png,I,z,785,15,2,1806.7999999523163,322952.10000002384,8040,NNB,B,14
15,test,5,0.0,1-Back,1,m,Tue Jul 29 2025 16:55:13 GMT-0500 (Central Daylight Time),326473.7999999523,065_o_m_n_a.png,I,m,680,16,2,1708.8999999761581,324764.89999997616,8040,NNB,B,15
16,test,5,0.0,1-Back,1,m,Tue Jul 29 2025 16:55:13 GMT-0500 (Central Daylight Time),328276.60000002384,029_m_f_n_a.png,I,m,787,17,2,1800.2000000476837,326476.39999997616,8040,NNB,B,16
17,test,5,0.0,1-Back,1,m,Tue Jul 29 2025 16:55:13 GMT-0500 (Central Daylight Time),330141.1999999285,178_m_m_n_a.png,I,m,832,18,2,1858.0,328283.1999999285,8040,NNB,B,17
0,prac,1,0.0,2-Back,,,Tue Jul 29 2025 16:55:13 GMT-0500 (Central Daylight Time),330141.1999999285,013_y_m_n_a.png,I,space,8730,1,2,1858.0,328283.1999999285,8040,NNB,B,0
0,prac,1,0.0,2-Back,,,Tue Jul 29 2025 16:55:13 GMT-0500 (Central Daylight Time),330141.1999999285,029_m_f_n_a.png,I,space,8730,2,2,1858.0,328283.1999999285,8040,NNB,B,0
1,prac,1,1.0,2-Back,1,m,Tue Jul 29 2025 16:55:13 GMT-0500 (Central Daylight Time),435775.39999997616,065_o_m_n_a.png,I,m,1128,3,2,2008.7000000476837,433766.6999999285,8040,NNB,B,1
2,prac,1,0.0,2-Back,1,m,Tue Jul 29 2025 16:55:13 GMT-0500 (Central Daylight Time),437840.2999999523,086_o_f_n_a.png,I,m,1182,4,2,2058.600000023842,435781.6999999285,8040,NNB,B,2
3,prac,1,0.0,2-Back,1,z,Tue Jul 29 2025 16:55:13 GMT-0500 (Central Daylight Time),439670.2999999523,065_o_m_n_a.png,I,z,1057,5,2,1821.6000000238419,437848.6999999285,8040,NNB,B,3
4,prac,1,1.0,2-Back,1,z,Tue Jul 29 2025 16:55:13 GMT-0500 (Central Daylight Time),441556.89999997616,086_o_f_n_a.png,I,z,1112,6,2,1882.1000000238419,439674.7999999523,8040,NNB,B,4
5,prac,1,0.0,2-Back,1,m,Tue Jul 29 2025 16:55:13 GMT-0500 (Central Daylight Time),443506.5,178_m_m_n_a.png,I,m,1067,7,2,1940.7000000476837,441565.7999999523,8040,NNB,B,5
6,prac,1,0.0,2-Back,1,m,Tue Jul 29 2025 16:55:13 GMT-0500 (Central Daylight Time),445420.89999997616,176_o_m_n_a.png,I,m,1033,8,2,1906.5,443514.39999997616,8040,NNB,B,6
7,prac,1,0.0,2-Back,1,m,Tue Jul 29 2025 16:55:13 GMT-0500 (Central Daylight Time),447370.5,173_y_f_n_a.png,I,m,1079,9,2,1943.2000000476837,445427.2999999523,8040,NNB,B,7
8,prac,1,1.0,2-Back,1,z,Tue Jul 29 2025 16:55:13 GMT-0500 (Central Daylight Time),449088.0,176_o_m_n_a.png,I,z,941,10,2,1707.1000000238419,447380.89999997616,8040,NNB,B,8
9,prac,1,0.0,2-Back,1,m,Tue Jul 29 2025 16:55:13 GMT-0500 (Central Daylight Time),450953.2999999523,152_y_f_n_a.png,I,m,1003,11,2,1858.1000000238419,449095.1999999285,8040,NNB,B,9
10,prac,1,0.0,2-Back,1,m,Tue Jul 29 2025 16:55:13 GMT-0500 (Central Daylight Time),452869.7999999523,178_m_m_n_a.png,I,m,1145,12,2,1909.2999999523163,450960.5,8040,NNB,B,10
0,test,1,0.0,2-Back,,,Tue Jul 29 2025 16:55:13 GMT-0500 (Central Daylight Time),452869.7999999523,153_y_m_n_a.png,I,space,5993,1,2,1909.2999999523163,450960.5,8040,NNB,B,0
0,test,1,0.0,2-Back,,,Tue Jul 29 2025 16:55:13 GMT-0500 (Central Daylight Time),452869.7999999523,153_y_m_n_a.png,I,space,5993,2,2,1909.2999999523163,450960.5,8040,NNB,B,0
1,test,1,0.0,2-Back,1,m,Tue Jul 29 2025 16:55:13 GMT-0500 (Central Daylight Time),474578.1999999285,086_o_f_n_a.png,I,m,784,3,2,1807.0,472771.1999999285,8040,NNB,B,1
2,test,1,0.0,2-Back,1,m,Tue Jul 29 2025 16:55:13 GMT-0500 (Central Daylight Time),476577.6999999285,126_m_m_n_a.png,I,m,967,4,2,1991.7999999523163,474585.89999997616,8040,NNB,B,2
3,test,1,1.0,2-Back,1,z,Tue Jul 29 2025 16:55:13 GMT-0500 (Central Daylight Time),478460.7999999523,086_o_f_n_a.png,I,z,857,5,2,1876.0,476584.7999999523,8040,NNB,B,3
4,test,1,0.0,2-Back,1,m,Tue Jul 29 2025 16:55:13 GMT-0500 (Central Daylight Time),480325.89999997616,152_y_f_n_a.png,I,m,846,6,2,1857.7999999523163,478468.10000002384,8040,NNB,B,4
4,test,1,0.0,2-Back,0,m,Tue Jul 29 2025 16:55:13 GMT-0500 (Central Daylight Time),482442.39999997616,126_m_m_n_a.png,I,z,1094,7,2,2109.600000023842,480332.7999999523,8040,NNB,B,5
5,test,1,1.0,2-Back,1,z,Tue Jul 29 2025 16:55:13 GMT-0500 (Central Daylight Time),484425.60000002384,152_y_f_n_a.png,I,z,951,8,2,1975.6000000238419,482450.0,8040,NNB,B,6
6,test,1,0.0,2-Back,1,m,Tue Jul 29 2025 16:55:13 GMT-0500 (Central Daylight Time),486573.5,013_y_m_n_a.png,I,m,1121,9,2,2142.3000000715256,484431.1999999285,8040,NNB,B,7
7,test,1,0.0,2-Back,1,m,Tue Jul 29 2025 16:55:13 GMT-0500 (Central Daylight Time),488606.7999999523,110_o_f_n_a.png,I,m,1013,10,2,2026.1999999284744,486580.60000002384,8040,NNB,B,8
8,test,1,1.0,2-Back,1,z,Tue Jul 29 2025 16:55:13 GMT-0500 (Central Daylight Time),490589.2999999523,013_y_m_n_a.png,I,z,965,11,2,1975.3999999761581,488613.89999997616,8040,NNB,B,9
9,test,1,0.0,2-Back,1,m,Tue Jul 29 2025 16:55:13 GMT-0500 (Central Daylight Time),492655.1999999285,029_m_f_n_a.png,I,m,1035,12,2,2058.2999999523163,490596.89999997616,8040,NNB,B,10
10,test,1,0.0,2-Back,1,m,Tue Jul 29 2025 16:55:13 GMT-0500 (Central Daylight Time),494789.0,029_m_f_n_a.png,I,m,1109,13,2,2125.100000023842,492663.89999997616,8040,NNB,B,11
11,test,1,0.0,2-Back,1,m,Tue Jul 29 2025 16:55:13 GMT-0500 (Central Daylight Time),496956.0,065_o_m_n_a.png,I,m,1152,14,2,2159.8000000715256,494796.1999999285,8040,NNB,B,12
12,test,1,0.0,2-Back,1,m,Tue Jul 29 2025 16:55:13 GMT-0500 (Central Daylight Time),499170.39999997616,110_o_f_n_a.png,I,m,1191,15,2,2208.2999999523163,496962.10000002384,8040,NNB,B,13
13,test,1,1.0,2-Back,1,z,Tue Jul 29 2025 16:55:13 GMT-0500 (Central Daylight Time),501101.6999999285,065_o_m_n_a.png,I,z,913,16,2,1923.3999999761581,499178.2999999523,8040,NNB,B,14
14,test,1,0.0,2-Back,1,m,Tue Jul 29 2025 16:55:13 GMT-0500 (Central Daylight Time),503084.60000002384,097_m_f_n_a.png,I,m,954,17,2,1976.6000000238419,501108.0,8040,NNB,B,15
15,test,1,0.0,2-Back,1,m,Tue Jul 29 2025 16:55:13 GMT-0500 (Central Daylight Time),505132.60000002384,178_m_m_n_a.png,I,m,1020,18,2,2040.2000000476837,503092.39999997616,8040,NNB,B,16
0,test,2,0.0,2-Back,,,Tue Jul 29 2025 16:55:13 GMT-0500 (Central Daylight Time),505132.60000002384,178_m_m_n_a.png,I,space,2985,1,2,2040.2000000476837,503092.39999997616,8040,NNB,B,0
0,test,2,0.0,2-Back,,,Tue Jul 29 2025 16:55:13 GMT-0500 (Central Daylight Time),505132.60000002384,173_y_f_n_a.png,I,space,2985,2,2,2040.2000000476837,503092.39999997616,8040,NNB,B,0
1,test,2,1.0,2-Back,1,z,Tue Jul 29 2025 16:55:13 GMT-0500 (Central Daylight Time),514964.60000002384,178_m_m_n_a.png,I,z,695,3,2,1706.2000000476837,513258.39999997616,8040,NNB,B,1
2,test,2,0.0,2-Back,1,m,Tue Jul 29 2025 16:55:13 GMT-0500 (Central Daylight Time),516781.10000002384,097_m_f_n_a.png,I,m,798,4,2,1811.1000000238419,514970.0,8040,NNB,B,2
3,test,2,0.0,2-Back,1,m,Tue Jul 29 2025 16:55:13 GMT-0500 (Central Daylight Time),518714.1999999285,173_y_f_n_a.png,I,m,910,5,2,1926.1999999284744,516788.0,8040,NNB,B,3
4,test,2,0.0,2-Back,1,m,Tue Jul 29 2025 16:55:13 GMT-0500 (Central Daylight Time),520879.7999999523,065_o_m_n_a.png,I,m,1136,6,2,2159.100000023842,518720.6999999285,8040,NNB,B,4
5,test,2,0.0,2-Back,1,m,Tue Jul 29 2025 16:55:13 GMT-0500 (Central Daylight Time),523028.1999999285,152_y_f_n_a.png,I,m,1123,7,2,2141.6999999284744,520886.5,8040,NNB,B,5
6,test,2,1.0,2-Back,1,z,Tue Jul 29 2025 16:55:13 GMT-0500 (Central Daylight Time),524963.3999999762,065_o_m_n_a.png,I,z,916,8,2,1929.2999999523163,523034.10000002384,8040,NNB,B,6
7,test,2,0.0,2-Back,1,m,Tue Jul 29 2025 16:55:13 GMT-0500 (Central Daylight Time),526945.1999999285,013_y_m_n_a.png,I,m,960,9,2,1974.3999999761581,524970.7999999523,8040,NNB,B,7
8,test,2,0.0,2-Back,1,m,Tue Jul 29 2025 16:55:13 GMT-0500 (Central Daylight Time),529827.5,013_y_m_n_a.png,I,m,1852,10,2,2875.899999976158,526951.6000000238,8040,NNB,B,8
9,test,2,0.0,2-Back,1,m,Tue Jul 29 2025 16:55:13 GMT-0500 (Central Daylight Time),532011.3999999762,029_m_f_n_a.png,I,m,1167,11,2,2176.2999999523163,529835.1000000238,8040,NNB,B,9
10,test,2,0.0,2-Back,1,m,Tue Jul 29 2025 16:55:13 GMT-0500 (Central Daylight Time),534175.3999999762,173_y_f_n_a.png,I,m,1145,12,2,2156.899999976158,532018.5,8040,NNB,B,10
11,test,2,1.0,2-Back,1,z,Tue Jul 29 2025 16:55:13 GMT-0500 (Central Daylight Time),536075.8999999762,029_m_f_n_a.png,I,z,874,13,2,1892.6000000238419,534183.2999999523,8040,NNB,B,11
12,test,2,0.0,2-Back,1,m,Tue Jul 29 2025 16:55:13 GMT-0500 (Central Daylight Time),538025.8999999762,176_o_m_n_a.png,I,m,927,14,2,1942.0,536083.8999999762,8040,NNB,B,12
12,test,2,0.0,2-Back,0,m,Tue Jul 29 2025 16:55:13 GMT-0500 (Central Daylight Time),540356.1000000238,176_o_m_n_a.png,I,z,1300,15,2,2322.7000000476837,538033.3999999762,8040,NNB,B,13
13,test,2,0.0,2-Back,1,m,Tue Jul 29 2025 16:55:13 GMT-0500 (Central Daylight Time),542256.8999999762,110_o_f_n_a.png,I,m,878,16,2,1894.1000000238419,540362.7999999523,8040,NNB,B,14
14,test,2,0.0,2-Back,1,m,Tue Jul 29 2025 16:55:13 GMT-0500 (Central Daylight Time),544490.1999999285,126_m_m_n_a.png,I,m,1202,17,2,2227.1999999284744,542263.0,8040,NNB,B,15
14,test,2,1.0,2-Back,0,z,Tue Jul 29 2025 16:55:13 GMT-0500 (Central Daylight Time),546822.1999999285,110_o_f_n_a.png,I,m,1300,18,2,2326.0999999046326,544496.1000000238,8040,NNB,B,16
0,test,3,1.0,2-Back,,,Tue Jul 29 2025 16:55:13 GMT-0500 (Central Daylight Time),546822.1999999285,153_y_m_n_a.png,I,space,2499,1,2,2326.0999999046326,544496.1000000238,8040,NNB,B,0
0,test,3,1.0,2-Back,,,Tue Jul 29 2025 16:55:13 GMT-0500 (Central Daylight Time),546822.1999999285,153_y_m_n_a.png,I,space,2499,2,2,2326.0999999046326,544496.1000000238,8040,NNB,B,0
1,test,3,0.0,2-Back,1,m,Tue Jul 29 2025 16:55:13 GMT-0500 (Central Daylight Time),556219.3999999762,110_o_f_n_a.png,I,m,733,3,2,1745.2000000476837,554474.1999999285,8040,NNB,B,1
2,test,3,0.0,2-Back,1,m,Tue Jul 29 2025 16:55:13 GMT-0500 (Central Daylight Time),558136.1000000238,178_m_m_n_a.png,I,m,896,4,2,1912.8000000715256,556223.2999999523,8040,NNB,B,2
3,test,3,1.0,2-Back,1,z,Tue Jul 29 2025 16:55:13 GMT-0500 (Central Daylight Time),560084.7999999523,110_o_f_n_a.png,I,z,923,5,2,1941.7999999523163,558143.0,8040,NNB,B,3
4,test,3,0.0,2-Back,1,m,Tue Jul 29 2025 16:55:13 GMT-0500 (Central Daylight Time),562117.7999999523,013_y_m_n_a.png,I,m,1005,6,2,2025.6999999284744,560092.1000000238,8040,NNB,B,4
5,test,3,0.0,2-Back,1,m,Tue Jul 29 2025 16:55:13 GMT-0500 (Central Daylight Time),564965.7999999523,178_m_m_n_a.png,I,m,1829,7,2,2841.399999976158,562124.3999999762,8040,NNB,B,5
6,test,3,1.0,2-Back,1,z,Tue Jul 29 2025 16:55:13 GMT-0500 (Central Daylight Time),566898.5,013_y_m_n_a.png,I,z,909,8,2,1925.0,564973.5,8040,NNB,B,6
7,test,3,0.0,2-Back,1,m,Tue Jul 29 2025 16:55:13 GMT-0500 (Central Daylight Time),569265.6000000238,173_y_f_n_a.png,I,m,1337,9,2,2359.8000000715256,566905.7999999523,8040,NNB,B,7
8,test,3,0.0,2-Back,1,m,Tue Jul 29 2025 16:55:13 GMT-0500 (Central Daylight Time),571413.7999999523,126_m_m_n_a.png,I,m,1130,10,2,2141.399999976158,569272.3999999762,8040,NNB,B,8
9,test,3,1.0,2-Back,1,z,Tue Jul 29 2025 16:55:13 GMT-0500 (Central Daylight Time),573548.2999999523,173_y_f_n_a.png,I,z,1118,11,2,2127.7999999523163,571420.5,8040,NNB,B,9
10,test,3,1.0,2-Back,1,z,Tue Jul 29 2025 16:55:13 GMT-0500 (Central Daylight Time),575530.6999999285,126_m_m_n_a.png,I,z,951,12,2,1975.0999999046326,573555.6000000238,8040,NNB,B,10
11,test,3,0.0,2-Back,1,m,Tue Jul 29 2025 16:55:13 GMT-0500 (Central Daylight Time),577578.1000000238,110_o_f_n_a.png,I,m,1024,13,2,2043.3000000715256,575534.7999999523,8040,NNB,B,11
12,test,3,0.0,2-Back,1,m,Tue Jul 29 2025 16:55:13 GMT-0500 (Central Daylight Time),579661.1999999285,097_m_f_n_a.png,I,m,1056,14,2,2076.0999999046326,577585.1000000238,8040,NNB,B,12
13,test,3,0.0,2-Back,1,m,Tue Jul 29 2025 16:55:13 GMT-0500 (Central Daylight Time),581661.0,065_o_m_n_a.png,I,m,974,15,2,1993.3999999761581,579667.6000000238,8040,NNB,B,13
14,test,3,1.0,2-Back,1,z,Tue Jul 29 2025 16:55:13 GMT-0500 (Central Daylight Time),583726.1000000238,097_m_f_n_a.png,I,z,1046,16,2,2057.5,581668.6000000238,8040,NNB,B,14
15,test,3,0.0,2-Back,1,m,Tue Jul 29 2025 16:55:13 GMT-0500 (Central Daylight Time),585627.1000000238,086_o_f_n_a.png,I,m,877,17,2,1895.1000000238419,583732.0,8040,NNB,B,15
16,test,3,0.0,2-Back,1,m,Tue Jul 29 2025 16:55:13 GMT-0500 (Central Daylight Time),587841.6999999285,086_o_f_n_a.png,I,m,1192,18,2,2207.0,585634.6999999285,8040,NNB,B,16
0,test,4,0.0,2-Back,,,Tue Jul 29 2025 16:55:13 GMT-0500 (Central Daylight Time),587841.6999999285,176_o_m_n_a.png,I,space,3528,1,2,2207.0,585634.6999999285,8040,NNB,B,0
0,test,4,0.0,2-Back,,,Tue Jul 29 2025 16:55:13 GMT-0500 (Central Daylight Time),587841.6999999285,152_y_f_n_a.png,I,space,3528,2,2,2207.0,585634.6999999285,8040,NNB,B,0
1,test,4,1.0,2-Back,1,z,Tue Jul 29 2025 16:55:13 GMT-0500 (Central Daylight Time),598471.8999999762,176_o_m_n_a.png,I,z,862,3,2,1875.1000000238419,596596.7999999523,8040,NNB,B,1
2,test,4,1.0,2-Back,1,z,Tue Jul 29 2025 16:55:13 GMT-0500 (Central Daylight Time),600404.5,152_y_f_n_a.png,I,z,914,4,2,1927.1000000238419,598477.3999999762,8040,NNB,B,2
3,test,4,0.0,2-Back,1,m,Tue Jul 29 2025 16:55:13 GMT-0500 (Central Daylight Time),602270.0,110_o_f_n_a.png,I,m,839,5,2,1859.8999999761581,600410.1000000238,8040,NNB,B,3
4,test,4,0.0,2-Back,1,m,Tue Jul 29 2025 16:55:13 GMT-0500 (Central Daylight Time),604637.5,110_o_f_n_a.png,I,m,1338,6,2,2361.2000000476837,602276.2999999523,8040,NNB,B,4
5,test,4,0.0,2-Back,1,m,Tue Jul 29 2025 16:55:13 GMT-0500 (Central Daylight Time),606618.6999999285,029_m_f_n_a.png,I,m,965,7,2,1974.8999999761581,604643.7999999523,8040,NNB,B,5
6,test,4,0.0,2-Back,1,m,Tue Jul 29 2025 16:55:13 GMT-0500 (Central Daylight Time),608684.8999999762,013_y_m_n_a.png,I,m,1039,8,2,2062.399999976158,606622.5,8040,NNB,B,6
7,test,4,1.0,2-Back,1,z,Tue Jul 29 2025 16:55:13 GMT-0500 (Central Daylight Time),610585.0,029_m_f_n_a.png,I,z,878,9,2,1893.0,608692.0,8040,NNB,B,7
8,test,4,0.0,2-Back,1,m,Tue Jul 29 2025 16:55:13 GMT-0500 (Central Daylight Time),612566.1999999285,126_m_m_n_a.png,I,m,951,10,2,1974.5,610591.6999999285,8040,NNB,B,8
9,test,4,0.0,2-Back,1,m,Tue Jul 29 2025 16:55:13 GMT-0500 (Central Daylight Time),614799.6000000238,013_y_m_n_a.png,I,m,1201,11,2,2227.600000023842,612572.0,8040,NNB,B,9
10,test,4,0.0,2-Back,1,m,Tue Jul 29 2025 16:55:13 GMT-0500 (Central Daylight Time),616831.6999999285,086_o_f_n_a.png,I,m,1010,12,2,2025.2999999523163,614806.3999999762,8040,NNB,B,10
11,test,4,0.0,2-Back,1,m,Tue Jul 29 2025 16:55:13 GMT-0500 (Central Daylight Time),618932.8999999762,153_y_m_n_a.png,I,m,1068,13,2,2093.5,616839.3999999762,8040,NNB,B,11
12,test,4,1.0,2-Back,1,z,Tue Jul 29 2025 16:55:13 GMT-0500 (Central Daylight Time),620765.0,086_o_f_n_a.png,I,z,815,14,2,1825.5,618939.5,8040,NNB,B,12
13,test,4,1.0,2-Back,1,z,Tue Jul 29 2025 16:55:13 GMT-0500 (Central Daylight Time),622750.5,153_y_m_n_a.png,I,z,969,15,2,1978.5,620772.0,8040,NNB,B,13
14,test,4,0.0,2-Back,1,m,Tue Jul 29 2025 16:55:13 GMT-0500 (Central Daylight Time),624662.6999999285,178_m_m_n_a.png,I,m,894,16,2,1909.6999999284744,622753.0,8040,NNB,B,14
15,test,4,0.0,2-Back,1,m,Tue Jul 29 2025 16:55:13 GMT-0500 (Central Daylight Time),626664.1999999285,097_m_f_n_a.png,I,m,979,17,2,1995.1999999284744,624669.0,8040,NNB,B,15
15,test,4,1.0,2-Back,0,z,Tue Jul 29 2025 16:55:13 GMT-0500 (Central Daylight Time),628861.6999999285,178_m_m_n_a.png,I,m,1180,18,2,2190.7999999523163,626670.8999999762,8040,NNB,B,16
0,test,5,1.0,2-Back,,,Tue Jul 29 2025 16:55:13 GMT-0500 (Central Daylight Time),628861.6999999285,153_y_m_n_a.png,I,space,2167,1,2,2190.7999999523163,626670.8999999762,8040,NNB,B,0
0,test,5,1.0,2-Back,,,Tue Jul 29 2025 16:55:13 GMT-0500 (Central Daylight Time),628861.6999999285,097_m_f_n_a.png,I,space,2167,2,2,2190.7999999523163,626670.8999999762,8040,NNB,B,0
1,test,5,1.0,2-Back,1,z,Tue Jul 29 2025 16:55:13 GMT-0500 (Central Daylight Time),637843.2999999523,153_y_m_n_a.png,I,z,749,3,2,1776.5,636066.7999999523,8040,NNB,B,1
2,test,5,1.0,2-Back,1,z,Tue Jul 29 2025 16:55:13 GMT-0500 (Central Daylight Time),639724.8999999762,097_m_f_n_a.png,I,z,866,4,2,1875.3999999761581,637849.5,8040,NNB,B,2
3,test,5,0.0,2-Back,1,m,Tue Jul 29 2025 16:55:13 GMT-0500 (Central Daylight Time),641574.1999999285,086_o_f_n_a.png,I,m,821,5,2,1842.3999999761581,639731.7999999523,8040,NNB,B,3
3,test,5,0.0,2-Back,0,m,Tue Jul 29 2025 16:55:13 GMT-0500 (Central Daylight Time),643874.7999999523,153_y_m_n_a.png,I,z,1267,6,2,2294.1999999284744,641580.6000000238,8040,NNB,B,4
4,test,5,0.0,2-Back,1,m,Tue Jul 29 2025 16:55:13 GMT-0500 (Central Daylight Time),645940.7999999523,173_y_f_n_a.png,I,m,1041,7,2,2059.0,643881.7999999523,8040,NNB,B,5
5,test,5,0.0,2-Back,1,m,Tue Jul 29 2025 16:55:13 GMT-0500 (Central Daylight Time),648006.5,086_o_f_n_a.png,I,m,1034,8,2,2058.100000023842,645948.3999999762,8040,NNB,B,6
5,test,5,1.0,2-Back,0,z,Tue Jul 29 2025 16:55:13 GMT-0500 (Central Daylight Time),650238.3999999762,173_y_f_n_a.png,I,m,1213,9,2,2224.600000023842,648013.7999999523,8040,NNB,B,7
6,test,5,0.0,2-Back,1,m,Tue Jul 29 2025 16:55:13 GMT-0500 (Central Daylight Time),652288.6999999285,065_o_m_n_a.png,I,m,1030,10,2,2044.5,650244.1999999285,8040,NNB,B,8
7,test,5,0.0,2-Back,1,m,Tue Jul 29 2025 16:55:13 GMT-0500 (Central Daylight Time),654371.0,029_m_f_n_a.png,I,m,1058,11,2,2075.3000000715256,652295.6999999285,8040,NNB,B,9
8,test,5,0.0,2-Back,1,m,Tue Jul 29 2025 16:55:13 GMT-0500 (Central Daylight Time),656503.1000000238,126_m_m_n_a.png,I,m,1103,12,2,2124.600000023842,654378.5,8040,NNB,B,10
9,test,5,0.0,2-Back,1,m,Tue Jul 29 2025 16:55:13 GMT-0500 (Central Daylight Time),658570.3999999762,065_o_m_n_a.png,I,m,1033,13,2,2061.0,656509.3999999762,8040,NNB,B,11
10,test,5,1.0,2-Back,1,z,Tue Jul 29 2025 16:55:13 GMT-0500 (Central Daylight Time),660803.5,126_m_m_n_a.png,I,z,1202,14,2,2227.2000000476837,658576.2999999523,8040,NNB,B,12
11,test,5,0.0,2-Back,1,m,Tue Jul 29 2025 16:55:13 GMT-0500 (Central Daylight Time),662869.6999999285,152_y_f_n_a.png,I,m,1049,15,2,2058.2999999523163,660811.3999999762,8040,NNB,B,13
12,test,5,0.0,2-Back,1,m,Tue Jul 29 2025 16:55:13 GMT-0500 (Central Daylight Time),664885.1000000238,176_o_m_n_a.png,I,m,999,16,2,2007.5,662877.6000000238,8040,NNB,B,14
13,test,5,0.0,2-Back,1,m,Tue Jul 29 2025 16:55:13 GMT-0500 (Central Daylight Time),666801.6000000238,029_m_f_n_a.png,I,m,892,17,2,1910.4000000953674,664891.1999999285,8040,NNB,B,15
14,test,5,1.0,2-Back,1,z,Tue Jul 29 2025 16:55:13 GMT-0500 (Central Daylight Time),668717.1000000238,176_o_m_n_a.png,I,z,891,18,2,1908.4000000953674,666808.6999999285,8040,NNB,B,16
