acc_sum,block,block_c,condition,correct,correct_response,datetime,endtime,flanker,jitter,project,response,response_test_buffer_response,response_test_target_response,response_time,response_time_test_buffer_response,response_time_test_target_response,row_sel,session_number,start_end,starttime,subject_id,target,task,task_vers,time_test_buffer,time_test_buffer_response,time_test_constants,time_test_flanker,time_test_jitter,time_test_logger,time_test_target,time_test_target_response,time_test_variables,trial
1,prac,1,inc,1,z,Wed Apr 22 2026 15:07:50 GMT-0500 (Central Daylight Time),110255.79999998212,rock,900,I,z,,,651,,,10,2,2861.699999988079,107394.09999999404,8096,kind,AF,B,,,,,,,,,,1
2,prac,1,con,1,m,Wed Apr 22 2026 15:07:50 GMT-0500 (Central Daylight Time),112905.0,jacket,800,I,m,,,533,,,5,2,2642.7000000178814,110262.29999998212,8096,jacket,AF,B,,,,,,,,,,2
3,prac,1,con,1,z,Wed Apr 22 2026 15:07:50 GMT-0500 (Central Daylight Time),115770.5,love,1000,I,z,,,564,,,11,2,2861.0999999940395,112909.40000000596,8096,love,AF,B,,,,,,,,,,3
4,prac,1,inc,1,z,Wed Apr 22 2026 15:07:50 GMT-0500 (Central Daylight Time),118686.29999998212,film,900,I,z,,,701,,,14,2,2911.2999999821186,115775.0,8096,hate,AF,B,,,,,,,,,,4
5,prac,1,inc,1,m,Wed Apr 22 2026 15:07:50 GMT-0500 (Central Daylight Time),121452.09999999404,kind,900,I,m,,,556,,,2,2,2761.0999999940395,118691.0,8096,rock,AF,B,,,,,,,,,,5
6,prac,1,inc,1,z,Wed Apr 22 2026 15:07:50 GMT-0500 (Central Daylight Time),124551.19999998808,window,1100,I,z,,,693,,,16,2,3094.9000000059605,121456.29999998212,8096,temper,AF,B,,,,,,,,,,6
7,prac,1,con,1,m,Wed Apr 22 2026 15:07:50 GMT-0500 (Central Daylight Time),127467.0,bell,1000,I,m,,,614,,,3,2,2911.2000000178814,124555.79999998212,8096,bell,AF,B,,,,,,,,,,7
7,prac,1,con,0,z,Wed Apr 22 2026 15:07:50 GMT-0500 (Central Daylight Time),130149.5,brutal,800,I,m,,,569,,,13,2,2678.300000011921,127471.19999998808,8096,brutal,AF,B,,,,,,,,,,8
8,prac,1,inc,1,m,Wed Apr 22 2026 15:07:50 GMT-0500 (Central Daylight Time),133031.79999998212,elated,900,I,m,,,666,,,6,2,2877.5999999940395,130154.19999998808,8096,napkin,AF,B,,,,,,,,,,9
9,prac,1,inc,1,m,Wed Apr 22 2026 15:07:50 GMT-0500 (Central Daylight Time),136064.29999998212,hate,1100,I,m,,,617,,,4,2,3028.0,133036.29999998212,8096,film,AF,B,,,,,,,,,,10
10,prac,1,inc,1,z,Wed Apr 22 2026 15:07:50 GMT-0500 (Central Daylight Time),139263.0,napkin,1100,I,z,,,785,,,12,2,3193.5999999940395,136069.40000000596,8096,friend,AF,B,,,,,,,,,,11
11,prac,1,con,1,z,Wed Apr 22 2026 15:07:50 GMT-0500 (Central Daylight Time),141962.40000000596,elated,800,I,z,,,614,,,9,2,2695.2000000178814,139267.19999998808,8096,elated,AF,B,,,,,,,,,,12
12,prac,1,con,1,z,Wed Apr 22 2026 15:07:50 GMT-0500 (Central Daylight Time),144844.69999998808,rage,1000,I,z,,,577,,,15,2,2878.2999999821186,141966.40000000596,8096,rage,AF,B,,,,,,,,,,13
13,prac,1,inc,1,m,Wed Apr 22 2026 15:07:50 GMT-0500 (Central Daylight Time),147810.5,brutal,1100,I,m,,,556,,,8,2,2961.4000000059605,144849.09999999404,8096,window,AF,B,,,,,,,,,,14
14,prac,1,con,1,m,Wed Apr 22 2026 15:07:50 GMT-0500 (Central Daylight Time),151059.59999999404,remote,1000,I,m,,,937,,,7,2,3244.9000000059605,147814.69999998808,8096,remote,AF,B,,,,,,,,,,15
15,prac,1,con,1,m,Wed Apr 22 2026 15:07:50 GMT-0500 (Central Daylight Time),153842.09999999404,step,800,I,m,,,673,,,1,2,2778.4000000059605,151063.69999998808,8096,step,AF,B,,,,,,,,,,16
1,test,1,con,1,m,Wed Apr 22 2026 15:07:50 GMT-0500 (Central Daylight Time),165054.90000000596,napkin,1100,I,m,m,None,695,495.0,200.0,108,2,2328.800000011921,162726.09999999404,8096,napkin,AF,B,161975,161975,160145,161258,160145,162474,161774,161774,162474,1
2,test,1,con,1,z,Wed Apr 22 2026 15:07:50 GMT-0500 (Central Daylight Time),167187.5,friend,1100,I,z,z,None,498,298.0,200.0,28,2,2128.0999999940395,165059.40000000596,8096,friend,AF,B,164307,164307,162478,163591,162479,164607,164107,164107,164606,2
3,test,1,inc,1,z,Wed Apr 22 2026 15:07:50 GMT-0500 (Central Daylight Time),169404.79999998212,film,1100,I,z,z,None,582,382.0,200.0,48,2,2213.199999988079,167191.59999999404,8096,hate,AF,B,166440,166440,164611,165723,164611,166824,166240,166240,166824,3
4,test,1,inc,1,z,Wed Apr 22 2026 15:07:50 GMT-0500 (Central Daylight Time),171586.5,bell,1000,I,z,z,None,641,441.0,200.0,47,2,2177.4000000059605,169409.09999999404,8096,hate,AF,B,168556,168556,166828,167839,166828,169006,168356,168356,169006,4
5,test,1,inc,1,z,Wed Apr 22 2026 15:07:50 GMT-0500 (Central Daylight Time),173785.59999999404,remote,1000,I,z,z,None,658,459.0,199.0,31,2,2194.5,171591.09999999404,8096,friend,AF,B,170738,170738,169010,170022,169010,171205,170539,170539,171205,5
6,test,1,inc,1,z,Wed Apr 22 2026 15:07:50 GMT-0500 (Central Daylight Time),175968.5,napkin,900,I,z,z,None,735,535.0,200.0,38,2,2179.0,173789.5,8096,brutal,AF,B,172838,172838,171209,172121,171209,173388,172638,172638,173387,6
7,test,1,con,1,m,Wed Apr 22 2026 15:07:50 GMT-0500 (Central Daylight Time),178217.59999999404,bell,1100,I,m,m,None,608,408.0,200.0,84,2,2245.0999999940395,175972.5,8096,bell,AF,B,175221,175221,173392,174504,173392,175637,175021,175021,175637,7
8,test,1,con,1,m,Wed Apr 22 2026 15:07:50 GMT-0500 (Central Daylight Time),180066.5,rock,800,I,m,m,None,515,315.0,200.0,73,2,1844.7000000178814,178221.79999998212,8096,rock,AF,B,177170,177170,175641,176453,175641,177486,176970,176970,177486,8
9,test,1,inc,1,m,Wed Apr 22 2026 15:07:50 GMT-0500 (Central Daylight Time),182216.40000000596,temper,1000,I,m,m,None,611,411.0,200.0,111,2,2145.100000023842,180071.29999998212,8096,napkin,AF,B,179219,179219,177490,178503,177491,179636,179019,179019,179635,9
10,test,1,inc,1,m,Wed Apr 22 2026 15:07:50 GMT-0500 (Central Daylight Time),184182.40000000596,rage,800,I,m,m,None,628,334.0,294.0,93,2,1962.0,182220.40000000596,8096,film,AF,B,181263,181263,179639,180452,179640,181601,180968,180968,181601,10
11,test,1,con,1,z,Wed Apr 22 2026 15:07:50 GMT-0500 (Central Daylight Time),186515.19999998808,kind,1100,I,z,z,None,690,491.0,199.0,12,2,2328.4000000059605,184186.79999998212,8096,kind,AF,B,183434,183435,181606,182718,181606,183934,183235,183235,183934,11
12,test,1,inc,1,z,Wed Apr 22 2026 15:07:50 GMT-0500 (Central Daylight Time),188597.69999998808,napkin,900,I,z,z,None,639,439.0,200.0,62,2,2077.9000000059605,186519.79999998212,8096,temper,AF,B,185567,185567,183939,184851,183939,186017,185367,185367,186017,12
13,test,1,con,1,m,Wed Apr 22 2026 15:07:50 GMT-0500 (Central Daylight Time),190613.59999999404,film,900,I,m,m,None,580,379.0,201.0,90,2,2012.199999988079,188601.40000000596,8096,film,AF,B,187651,187651,186020,186933,186021,188033,187450,187450,188033,13
14,test,1,inc,1,m,Wed Apr 22 2026 15:07:50 GMT-0500 (Central Daylight Time),192863.0,hate,1100,I,m,m,None,610,411.0,199.0,96,2,2245.5,190617.5,8096,film,AF,B,189866,189866,188037,189149,188037,190282,189666,189666,190282,14
15,test,1,con,1,m,Wed Apr 22 2026 15:07:50 GMT-0500 (Central Daylight Time),195095.5,window,1000,I,m,m,None,686,486.0,200.0,123,2,2228.2000000178814,192867.29999998212,8096,window,AF,B,192015,192015,190286,191299,190287,192515,191815,191815,192514,15
16,test,1,inc,1,m,Wed Apr 22 2026 15:07:50 GMT-0500 (Central Daylight Time),197311.59999999404,temper,1000,I,m,m,None,694,495.0,199.0,127,2,2211.800000011921,195099.79999998212,8096,window,AF,B,194231,194231,192519,193531,192519,194731,194032,194032,194731,16
17,test,1,con,1,m,Wed Apr 22 2026 15:07:50 GMT-0500 (Central Daylight Time),199327.69999998808,window,900,I,m,m,None,576,377.0,199.0,122,2,2011.9000000059605,197315.79999998212,8096,window,AF,B,196364,196364,194735,195647,194735,196747,196164,196164,196747,17
18,test,1,con,1,m,Wed Apr 22 2026 15:07:50 GMT-0500 (Central Daylight Time),201427.90000000596,bell,900,I,m,m,None,665,465.0,200.0,82,2,2095.9000000059605,199332.0,8096,bell,AF,B,198380,198380,196751,197663,196751,198847,198180,198180,198847,18
19,test,1,con,1,z,Wed Apr 22 2026 15:07:50 GMT-0500 (Central Daylight Time),203859.5,hate,1100,I,z,z,None,790,590.0,200.0,44,2,2427.300000011921,201432.19999998808,8096,hate,AF,B,200679,200679,198851,199963,198851,201279,200479,200479,201278,19
20,test,1,con,1,z,Wed Apr 22 2026 15:07:50 GMT-0500 (Central Daylight Time),206108.69999998808,rage,1100,I,z,z,None,612,413.0,199.0,52,2,2245.199999988079,203863.5,8096,rage,AF,B,203112,203112,201283,202395,201283,203528,202912,202912,203528,20
21,test,1,inc,1,m,Wed Apr 22 2026 15:07:50 GMT-0500 (Central Daylight Time),208391.40000000596,hate,1100,I,m,m,None,635,436.0,199.0,80,2,2278.7000000178814,206112.69999998808,8096,rock,AF,B,205361,205361,203532,204644,203532,205810,205161,205161,205810,21
22,test,1,con,1,z,Wed Apr 22 2026 15:07:50 GMT-0500 (Central Daylight Time),210641.0,elated,1100,I,z,z,None,608,409.0,199.0,4,2,2244.2000000178814,208396.79999998212,8096,elated,AF,B,207644,207644,205816,206927,205816,208060,207443,207444,208060,22
23,test,1,con,1,z,Wed Apr 22 2026 15:07:50 GMT-0500 (Central Daylight Time),212756.79999998212,rage,900,I,z,z,None,672,472.0,200.0,50,2,2111.0999999940395,210645.69999998808,8096,rage,AF,B,209693,209693,208065,208976,208065,210176,209493,209493,210176,23
24,test,1,con,1,z,Wed Apr 22 2026 15:07:50 GMT-0500 (Central Daylight Time),214806.0,brutal,800,I,z,z,None,703,504.0,199.0,33,2,2045.2000000178814,212760.79999998212,8096,brutal,AF,B,211709,211709,210180,210992,210180,212225,211509,211509,212225,24
25,test,1,inc,1,z,Wed Apr 22 2026 15:07:50 GMT-0500 (Central Daylight Time),216788.69999998808,step,800,I,z,z,None,639,439.0,200.0,21,2,1979.0999999940395,214809.59999999404,8096,love,AF,B,213758,213758,212229,213041,212229,214208,213558,213558,214208,25
26,test,1,con,1,z,Wed Apr 22 2026 15:07:50 GMT-0500 (Central Daylight Time),218921.5,kind,900,I,z,z,None,684,484.0,200.0,10,2,2129.0999999940395,216792.40000000596,8096,kind,AF,B,215841,215841,214211,215124,214212,216341,215641,215641,216341,26
27,test,1,con,1,z,Wed Apr 22 2026 15:07:50 GMT-0500 (Central Daylight Time),221070.59999999404,elated,900,I,z,z,None,703,504.0,199.0,2,2,2145.0,218925.59999999404,8096,elated,AF,B,217973,217974,216345,217257,216345,218490,217774,217774,218490,27
28,test,1,inc,1,z,Wed Apr 22 2026 15:07:50 GMT-0500 (Central Daylight Time),223387.59999999404,window,1100,I,z,z,None,682,482.0,200.0,8,2,2313.0999999940395,221074.5,8096,elated,AF,B,220323,220323,218494,219606,218494,220807,220123,220123,220807,28
29,test,1,con,1,z,Wed Apr 22 2026 15:07:50 GMT-0500 (Central Daylight Time),225386.09999999404,elated,800,I,z,z,None,650,450.0,200.0,1,2,1994.699999988079,223391.40000000596,8096,elated,AF,B,222339,222339,220810,221623,220811,222805,222139,222139,222805,29
30,test,1,con,1,m,Wed Apr 22 2026 15:07:50 GMT-0500 (Central Daylight Time),227535.69999998808,film,1000,I,m,m,None,611,411.0,200.0,91,2,2145.7999999821186,225389.90000000596,8096,film,AF,B,224538,224538,222809,223822,222809,224955,224338,224338,224955,30
31,test,1,con,1,m,Wed Apr 22 2026 15:07:50 GMT-0500 (Central Daylight Time),229518.19999998808,step,800,I,m,m,None,646,446.0,200.0,65,2,1978.7999999821186,227539.40000000596,8096,step,AF,B,226488,226488,224958,225771,224959,226937,226288,226288,226937,31
32,test,1,inc,1,m,Wed Apr 22 2026 15:07:50 GMT-0500 (Central Daylight Time),231717.59999999404,kind,900,I,m,m,None,727,521.0,206.0,70,2,2195.4000000059605,229522.19999998808,8096,step,AF,B,228605,228605,226941,227854,226942,229137,228399,228399,229137,32
33,test,1,con,1,z,Wed Apr 22 2026 15:07:50 GMT-0500 (Central Daylight Time),234066.90000000596,brutal,1100,I,z,z,None,707,508.0,199.0,36,2,2345.100000023842,231721.79999998212,8096,brutal,AF,B,230969,230970,229141,230253,229141,231486,230769,230770,231486,33
34,test,1,inc,1,z,Wed Apr 22 2026 15:07:50 GMT-0500 (Central Daylight Time),236233.79999998212,rock,900,I,z,z,None,750,551.0,199.0,54,2,2163.199999988079,234070.59999999404,8096,rage,AF,B,233102,233102,231490,232402,231490,233653,232903,232903,233653,34
35,test,1,inc,1,m,Wed Apr 22 2026 15:07:50 GMT-0500 (Central Daylight Time),238182.19999998808,elated,800,I,m,m,None,612,412.0,200.0,125,2,1944.5999999940395,236237.59999999404,8096,window,AF,B,235185,235185,233657,234468,233657,235601,234985,234985,235601,35
36,test,1,con,1,m,Wed Apr 22 2026 15:07:50 GMT-0500 (Central Daylight Time),240498.19999998808,step,1100,I,m,m,None,674,474.0,200.0,68,2,2312.0999999940395,238186.09999999404,8096,step,AF,B,237435,237435,235605,236718,235605,237917,237234,237235,237917,36
37,test,1,inc,1,z,Wed Apr 22 2026 15:07:50 GMT-0500 (Central Daylight Time),242497.40000000596,step,800,I,z,z,None,651,451.0,200.0,53,2,1995.0,240502.40000000596,8096,rage,AF,B,239450,239450,237921,238734,237922,239916,239250,239250,239916,37
38,test,1,inc,1,z,Wed Apr 22 2026 15:07:50 GMT-0500 (Central Daylight Time),244780.0,bell,1000,I,z,z,None,746,531.0,215.0,23,2,2279.0,242501.0,8096,love,AF,B,241666,241666,239920,240933,239920,242199,241451,241451,242199,38
39,test,1,con,1,z,Wed Apr 22 2026 15:07:50 GMT-0500 (Central Daylight Time),246862.90000000596,friend,900,I,z,z,None,638,438.0,200.0,26,2,2079.0,244783.90000000596,8096,friend,AF,B,243832,243832,242203,243116,242203,244282,243632,243632,244282,39
40,test,1,con,1,z,Wed Apr 22 2026 15:07:50 GMT-0500 (Central Daylight Time),248978.5,temper,800,I,z,z,None,766,566.0,200.0,57,2,2111.800000011921,246866.69999998808,8096,temper,AF,B,245815,245815,244286,245098,244286,246398,245615,245615,246398,40
41,test,1,inc,1,z,Wed Apr 22 2026 15:07:50 GMT-0500 (Central Daylight Time),251011.19999998808,jacket,800,I,z,z,None,683,483.0,200.0,37,2,2029.0,248982.19999998808,8096,brutal,AF,B,247931,247931,246401,247214,246402,248430,247731,247731,248430,41
42,test,1,con,1,m,Wed Apr 22 2026 15:07:50 GMT-0500 (Central Daylight Time),253010.79999998212,remote,900,I,m,m,None,559,358.0,201.0,114,2,1995.7999999821186,251015.0,8096,remote,AF,B,250064,250064,248434,249347,248434,250430,249863,249863,250430,42
43,test,1,con,1,m,Wed Apr 22 2026 15:07:50 GMT-0500 (Central Daylight Time),255226.79999998212,step,1000,I,m,m,None,654,447.0,207.0,67,2,2212.399999976158,253014.40000000596,8096,step,AF,B,252198,252198,250433,251446,250434,252646,251991,251991,252646,43
44,test,1,con,1,m,Wed Apr 22 2026 15:07:50 GMT-0500 (Central Daylight Time),257392.79999998212,rock,1100,I,m,m,None,527,327.0,200.0,76,2,2162.399999976158,255230.40000000596,8096,rock,AF,B,254479,254479,252649,253762,252650,254812,254279,254279,254812,44
45,test,1,con,1,m,Wed Apr 22 2026 15:07:50 GMT-0500 (Central Daylight Time),259342.29999998212,remote,800,I,m,m,None,613,413.0,200.0,113,2,1945.0,257397.29999998212,8096,remote,AF,B,256345,256345,254816,255629,254816,256761,256145,256145,256761,45
46,test,1,con,1,z,Wed Apr 22 2026 15:07:50 GMT-0500 (Central Daylight Time),261258.29999998212,brutal,900,I,z,z,None,483,283.0,200.0,34,2,1912.5,259345.79999998212,8096,brutal,AF,B,258394,258394,256765,257678,256765,258677,258194,258194,258677,46
47,test,1,con,1,z,Wed Apr 22 2026 15:07:50 GMT-0500 (Central Daylight Time),263325.09999999404,love,1100,I,z,z,None,432,232.0,200.0,20,2,2062.9000000059605,261262.19999998808,8096,love,AF,B,260510,260510,258681,259794,258681,260744,260310,260310,260744,47
48,test,1,con,1,z,Wed Apr 22 2026 15:07:50 GMT-0500 (Central Daylight Time),265306.90000000596,temper,1000,I,z,z,None,442,242.0,200.0,59,2,1978.1000000238419,263328.7999999821,8096,temper,AF,B,262476,262476,260748,261760,260748,262726,262276,262276,262726,48
49,test,1,inc,1,z,Wed Apr 22 2026 15:07:50 GMT-0500 (Central Daylight Time),267523.7999999821,window,1100,I,z,z,None,582,382.0,200.0,64,2,2213.2999999821186,265310.5,8096,temper,AF,B,264559,264559,262730,263842,262730,264943,264359,264359,264943,49
50,test,1,inc,1,m,Wed Apr 22 2026 15:07:50 GMT-0500 (Central Daylight Time),269755.59999999404,friend,1100,I,m,m,None,590,390.0,200.0,112,2,2228.0999999940395,267527.5,8096,napkin,AF,B,266775,266775,264947,266059,264947,267175,266575,266575,267175,50
51,test,1,con,1,m,Wed Apr 22 2026 15:07:50 GMT-0500 (Central Daylight Time),271704.59999999404,jacket,900,I,m,m,None,508,309.0,199.0,98,2,1945.4000000059605,269759.1999999881,8096,jacket,AF,B,268808,268808,267178,268091,267178,269124,268608,268608,269124,51
51,test,1,inc,0,m,Wed Apr 22 2026 15:07:50 GMT-0500 (Central Daylight Time),273654.40000000596,rage,800,I,z,z,None,612,412.0,200.0,69,2,1946.0,271708.40000000596,8096,step,AF,B,270657,270657,269127,269941,269128,271073,270457,270457,271073,52
52,test,1,con,1,m,Wed Apr 22 2026 15:07:50 GMT-0500 (Central Daylight Time),275703.40000000596,window,800,I,m,m,None,703,503.0,200.0,121,2,2045.6000000238419,273657.7999999821,8096,window,AF,B,272606,272606,271077,271890,271077,273123,272406,272406,273122,53
53,test,1,con,1,z,Wed Apr 22 2026 15:07:50 GMT-0500 (Central Daylight Time),277786.1999999881,friend,1000,I,z,z,None,532,333.0,199.0,27,2,2079.2999999821186,275706.90000000596,8096,friend,AF,B,274856,274856,273126,274139,273126,275205,274656,274656,275205,54
54,test,1,inc,1,z,Wed Apr 22 2026 15:07:50 GMT-0500 (Central Daylight Time),279802.5,napkin,900,I,z,z,None,566,367.0,199.0,30,2,2012.5,277790.0,8096,friend,AF,B,276838,276838,275209,276122,275209,277222,276639,276639,277222,55
55,test,1,inc,1,z,Wed Apr 22 2026 15:07:50 GMT-0500 (Central Daylight Time),281785.09999999404,step,800,I,z,z,None,633,434.0,199.0,45,2,1978.800000011921,279806.2999999821,8096,hate,AF,B,278754,278755,277225,278038,277226,279204,278555,278555,279204,56
56,test,1,inc,1,z,Wed Apr 22 2026 15:07:50 GMT-0500 (Central Daylight Time),284217.90000000596,window,1100,I,z,z,None,784,584.0,200.0,40,2,2428.9000000059605,281789.0,8096,brutal,AF,B,281037,281037,279208,280321,279208,281637,280837,280837,281637,57
57,test,1,con,1,m,Wed Apr 22 2026 15:07:50 GMT-0500 (Central Daylight Time),286483.40000000596,window,1100,I,m,m,None,622,423.0,199.0,124,2,2261.7000000178814,284221.6999999881,8096,window,AF,B,283470,283470,281641,282753,281641,283903,283270,283270,283902,58
58,test,1,con,1,z,Wed Apr 22 2026 15:07:50 GMT-0500 (Central Daylight Time),288682.59999999404,love,1000,I,z,z,None,664,465.0,199.0,19,2,2195.5,286487.09999999404,8096,love,AF,B,285636,285636,283906,284919,283906,286102,285436,285436,286102,59
59,test,1,con,1,z,Wed Apr 22 2026 15:07:50 GMT-0500 (Central Daylight Time),290632.0,hate,800,I,z,z,None,601,402.0,199.0,41,2,1945.9000000059605,288686.09999999404,8096,hate,AF,B,287635,287635,286105,286919,286105,288051,287436,287436,288051,60
60,test,1,inc,1,z,Wed Apr 22 2026 15:07:50 GMT-0500 (Central Daylight Time),292648.5,step,800,I,z,z,None,667,468.0,199.0,13,2,2012.300000011921,290636.1999999881,8096,kind,AF,B,289584,289585,288055,288868,288056,290068,289384,289385,290068,61
61,test,1,con,1,z,Wed Apr 22 2026 15:07:50 GMT-0500 (Central Daylight Time),294714.2999999821,temper,900,I,z,z,None,617,416.0,201.0,58,2,2060.5999999940395,292653.6999999881,8096,temper,AF,B,291701,291701,290073,290984,290073,292133,291500,291500,292133,62
62,test,1,inc,1,m,Wed Apr 22 2026 15:07:50 GMT-0500 (Central Daylight Time),296913.7999999821,temper,1000,I,m,m,None,666,451.0,215.0,119,2,2195.7999999821186,294718.0,8096,remote,AF,B,293866,293866,292137,293150,292137,294333,293651,293651,294333,63
63,test,1,inc,1,m,Wed Apr 22 2026 15:07:50 GMT-0500 (Central Daylight Time),299196.2999999821,love,1000,I,m,m,None,748,548.0,200.0,87,2,2278.7999999821186,296917.5,8096,bell,AF,B,296066,296066,294337,295349,294337,296615,295866,295866,296615,64
64,test,1,inc,1,m,Wed Apr 22 2026 15:07:50 GMT-0500 (Central Daylight Time),301229.09999999404,brutal,900,I,m,m,None,596,397.0,199.0,118,2,2029.4000000059605,299199.6999999881,8096,remote,AF,B,298248,298248,296619,297532,296619,298648,298049,298049,298648,65
65,test,1,inc,1,z,Wed Apr 22 2026 15:07:50 GMT-0500 (Central Daylight Time),303295.09999999404,rock,900,I,z,z,None,629,429.0,200.0,46,2,2062.300000011921,301232.7999999821,8096,hate,AF,B,300281,300281,298652,299565,298652,300714,300081,300081,300714,66
66,test,1,inc,1,z,Wed Apr 22 2026 15:07:50 GMT-0500 (Central Daylight Time),305294.5,jacket,800,I,z,z,None,663,463.0,200.0,5,2,1995.4000000059605,303299.09999999404,8096,elated,AF,B,302247,302247,300718,301532,300718,302714,302047,302047,302714,67
67,test,1,con,1,m,Wed Apr 22 2026 15:07:50 GMT-0500 (Central Daylight Time),307377.6999999881,napkin,900,I,m,m,None,642,442.0,200.0,106,2,2079.5999999940395,305298.09999999404,8096,napkin,AF,B,304347,304347,302717,303630,302717,304797,304146,304146,304797,68
68,test,1,inc,1,m,Wed Apr 22 2026 15:07:50 GMT-0500 (Central Daylight Time),309376.5,elated,800,I,m,m,None,652,452.0,200.0,117,2,1995.0,307381.5,8096,remote,AF,B,306329,306329,304801,305613,304801,306796,306129,306129,306795,69
69,test,1,con,1,z,Wed Apr 22 2026 15:07:50 GMT-0500 (Central Daylight Time),311592.5,brutal,1000,I,z,z,None,668,469.0,199.0,35,2,2212.300000011921,309380.1999999881,8096,brutal,AF,B,308528,308528,306799,307812,306799,309012,308329,308329,309012,70
69,test,1,inc,0,m,Wed Apr 22 2026 15:07:50 GMT-0500 (Central Daylight Time),313858.59999999404,hate,1100,I,z,z,None,631,432.0,199.0,72,2,2262.5,311596.09999999404,8096,step,AF,B,310844,310845,309015,310128,309015,311278,310644,310645,311278,71
70,test,1,con,1,z,Wed Apr 22 2026 15:07:50 GMT-0500 (Central Daylight Time),316091.1999999881,hate,1000,I,z,z,None,683,484.0,199.0,43,2,2229.2999999821186,313861.90000000596,8096,hate,AF,B,313010,313010,311281,312294,311281,313510,312810,312811,313510,72
71,test,1,inc,1,m,Wed Apr 22 2026 15:07:50 GMT-0500 (Central Daylight Time),318273.59999999404,hate,1100,I,m,m,None,542,342.0,200.0,88,2,2178.699999988079,316094.90000000596,8096,bell,AF,B,315343,315343,313514,314626,313514,315693,315143,315143,315693,73
72,test,1,con,1,z,Wed Apr 22 2026 15:07:50 GMT-0500 (Central Daylight Time),320439.5,rage,1000,I,z,z,None,627,427.0,200.0,51,2,2162.300000011921,318277.1999999881,8096,rage,AF,B,317426,317426,315696,316709,315696,317859,317226,317226,317859,74
73,test,1,con,1,m,Wed Apr 22 2026 15:07:50 GMT-0500 (Central Daylight Time),322305.90000000596,napkin,800,I,m,m,None,526,326.0,200.0,105,2,1862.6000000238419,320443.2999999821,8096,napkin,AF,B,319392,319392,317862,318675,317863,319725,319192,319192,319725,75
74,test,1,inc,1,z,Wed Apr 22 2026 15:07:50 GMT-0500 (Central Daylight Time),324522.0,bell,1000,I,z,z,None,676,475.0,201.0,15,2,2212.5999999940395,322309.40000000596,8096,kind,AF,B,321459,321459,319728,320741,319729,321941,321258,321258,321941,76
75,test,1,inc,1,m,Wed Apr 22 2026 15:07:50 GMT-0500 (Central Daylight Time),326554.5,brutal,900,I,m,m,None,583,383.0,200.0,110,2,2028.5,324526.0,8096,napkin,AF,B,323574,323574,321945,322858,321945,323974,323374,323374,323973,77
76,test,1,con,1,m,Wed Apr 22 2026 15:07:50 GMT-0500 (Central Daylight Time),328688.09999999404,step,900,I,m,m,None,695,495.0,200.0,66,2,2129.9000000059605,326558.1999999881,8096,step,AF,B,325606,325606,323977,324890,323978,326107,325406,325406,326107,78
77,test,1,inc,1,m,Wed Apr 22 2026 15:07:50 GMT-0500 (Central Daylight Time),330604.0,rage,800,I,m,m,None,582,382.0,200.0,77,2,1911.9000000059605,328692.09999999404,8096,rock,AF,B,327639,327639,326111,326923,326111,328023,327439,327439,328023,79
78,test,1,inc,1,z,Wed Apr 22 2026 15:07:50 GMT-0500 (Central Daylight Time),332752.5,bell,1000,I,z,z,None,610,410.0,200.0,55,2,2144.7000000178814,330607.7999999821,8096,rage,AF,B,329755,329755,328027,329039,328027,330172,329555,329555,330172,80
79,test,1,inc,1,z,Wed Apr 22 2026 15:07:50 GMT-0500 (Central Daylight Time),334901.90000000596,remote,1000,I,z,z,None,628,413.0,215.0,39,2,2145.600000023842,332756.2999999821,8096,brutal,AF,B,331905,331905,330175,331188,330176,332321,331689,331689,332321,81
80,test,1,con,1,z,Wed Apr 22 2026 15:07:50 GMT-0500 (Central Daylight Time),336967.7999999821,elated,1000,I,z,z,None,527,327.0,200.0,3,2,2062.0999999940395,334905.6999999881,8096,elated,AF,B,334054,334054,332325,333338,332325,334387,333854,333854,334387,82
81,test,1,inc,1,z,Wed Apr 22 2026 15:07:50 GMT-0500 (Central Daylight Time),339101.2999999821,remote,1000,I,z,z,None,597,398.0,199.0,63,2,2129.899999976158,336971.40000000596,8096,temper,AF,B,336120,336120,334390,335403,334391,336520,335920,335920,336520,83
82,test,1,inc,1,m,Wed Apr 22 2026 15:07:50 GMT-0500 (Central Daylight Time),341333.09999999404,friend,1100,I,m,m,None,587,388.0,199.0,128,2,2228.199999988079,339104.90000000596,8096,window,AF,B,338353,338353,336524,337636,336524,338752,338153,338153,338752,84
83,test,1,inc,1,z,Wed Apr 22 2026 15:07:50 GMT-0500 (Central Daylight Time),343565.6999999881,film,1100,I,z,z,None,588,388.0,200.0,16,2,2228.5,341337.1999999881,8096,kind,AF,B,340585,340585,338756,339869,338756,340985,340385,340385,340985,85
84,test,1,inc,1,z,Wed Apr 22 2026 15:07:50 GMT-0500 (Central Daylight Time),345598.59999999404,rock,900,I,z,z,None,586,387.0,199.0,22,2,2029.300000011921,343569.2999999821,8096,love,AF,B,342618,342618,340988,341901,340989,343018,342419,342419,343018,86
85,test,1,inc,1,z,Wed Apr 22 2026 15:07:50 GMT-0500 (Central Daylight Time),347697.7999999821,jacket,800,I,z,z,None,749,550.0,199.0,61,2,2095.5,345602.2999999821,8096,temper,AF,B,344551,344551,343021,343834,343021,345117,344351,344351,345117,87
86,test,1,inc,1,m,Wed Apr 22 2026 15:07:50 GMT-0500 (Central Daylight Time),349763.7999999821,kind,900,I,m,m,None,623,423.0,200.0,78,2,2062.399999976158,347701.40000000596,8096,rock,AF,B,346750,346750,345120,346035,345121,347183,346549,346549,347183,88
87,test,1,inc,1,m,Wed Apr 22 2026 15:07:50 GMT-0500 (Central Daylight Time),351663.0,elated,800,I,m,m,None,561,361.0,200.0,109,2,1895.4000000059605,349767.59999999404,8096,napkin,AF,B,348716,348716,347187,348000,347187,349082,348516,348516,349082,89
88,test,1,con,1,m,Wed Apr 22 2026 15:07:50 GMT-0500 (Central Daylight Time),353796.90000000596,jacket,1100,I,m,m,None,513,314.0,199.0,100,2,2130.300000011921,351666.59999999404,8096,jacket,AF,B,350899,350899,349086,350199,349086,351216,350700,350700,351216,90
89,test,1,con,1,m,Wed Apr 22 2026 15:07:50 GMT-0500 (Central Daylight Time),355978.5,film,1100,I,m,m,None,540,325.0,215.0,92,2,2177.5,353801.0,8096,film,AF,B,353065,353065,351220,352332,351220,353398,352849,352849,353398,91
90,test,1,inc,1,m,Wed Apr 22 2026 15:07:50 GMT-0500 (Central Daylight Time),357961.1999999881,brutal,900,I,m,m,None,533,334.0,199.0,102,2,1978.9000000059605,355982.2999999821,8096,jacket,AF,B,355031,355031,353401,354314,353402,355380,354831,354831,355380,92
91,test,1,inc,1,m,Wed Apr 22 2026 15:07:50 GMT-0500 (Central Daylight Time),360110.40000000596,love,1000,I,m,m,None,604,404.0,200.0,95,2,2145.4000000059605,357965.0,8096,film,AF,B,357113,357113,355384,356397,355384,357529,356913,356913,357529,93
92,test,1,inc,1,m,Wed Apr 22 2026 15:07:50 GMT-0500 (Central Daylight Time),361976.40000000596,rage,800,I,m,m,None,525,326.0,199.0,85,2,1862.1000000238419,360114.2999999821,8096,bell,AF,B,359063,359063,357533,358346,357533,359395,358863,358863,359395,94
93,test,1,con,1,z,Wed Apr 22 2026 15:07:50 GMT-0500 (Central Daylight Time),364192.6999999881,temper,1100,I,z,z,None,575,376.0,199.0,60,2,2212.7999999821186,361979.90000000596,8096,temper,AF,B,361229,361229,359399,360512,359399,361612,361029,361029,361612,95
94,test,1,inc,1,z,Wed Apr 22 2026 15:07:50 GMT-0500 (Central Daylight Time),366192.0,napkin,900,I,z,z,None,551,352.0,199.0,6,2,1995.5999999940395,364196.40000000596,8096,elated,AF,B,363245,363245,361615,362528,361616,363611,363045,363045,363611,96
95,test,1,con,1,z,Wed Apr 22 2026 15:07:50 GMT-0500 (Central Daylight Time),368324.40000000596,kind,1000,I,z,z,None,590,390.0,200.0,11,2,2128.9000000059605,366195.5,8096,kind,AF,B,365344,365344,363615,364627,363615,365744,365144,365144,365743,97
96,test,1,inc,1,m,Wed Apr 22 2026 15:07:50 GMT-0500 (Central Daylight Time),370640.6999999881,friend,1100,I,m,m,None,675,476.0,199.0,120,2,2312.9000000059605,368327.7999999821,8096,remote,AF,B,367577,367577,365747,366860,365747,368060,367378,367378,368060,98
97,test,1,inc,1,z,Wed Apr 22 2026 15:07:50 GMT-0500 (Central Daylight Time),373040.0,jacket,800,I,z,z,None,1060,861.0,199.0,29,2,2395.9000000059605,370644.09999999404,8096,friend,AF,B,369593,369593,368063,368876,368063,370459,369393,369393,370459,99
98,test,1,con,1,m,Wed Apr 22 2026 15:07:50 GMT-0500 (Central Daylight Time),374972.6999999881,film,800,I,m,m,None,589,389.0,200.0,89,2,1928.699999988079,373044.0,8096,film,AF,B,371992,371992,370463,371276,370463,372392,371792,371792,372392,100
99,test,1,con,1,m,Wed Apr 22 2026 15:07:50 GMT-0500 (Central Daylight Time),377038.6999999881,rock,1000,I,m,m,None,528,329.0,199.0,75,2,2062.4000000059605,374976.2999999821,8096,rock,AF,B,374125,374125,372395,373408,372396,374458,373926,373926,374458,101
100,test,1,con,1,m,Wed Apr 22 2026 15:07:50 GMT-0500 (Central Daylight Time),378921.2999999821,jacket,800,I,m,m,None,533,334.0,199.0,97,2,1879.0,377042.2999999821,8096,jacket,AF,B,375991,375991,374461,375274,374462,376340,375791,375791,376340,102
101,test,1,con,1,z,Wed Apr 22 2026 15:07:50 GMT-0500 (Central Daylight Time),380937.1999999881,rage,800,I,z,z,None,677,477.0,200.0,49,2,2012.2999999821186,378924.90000000596,8096,rage,AF,B,377873,377873,376344,377157,376344,378356,377673,377673,378356,103
102,test,1,inc,1,z,Wed Apr 22 2026 15:07:50 GMT-0500 (Central Daylight Time),383120.09999999404,film,1100,I,z,z,None,544,345.0,199.0,24,2,2178.9000000059605,380941.1999999881,8096,love,AF,B,380189,380189,378360,379473,378361,380539,379990,379990,380539,104
103,test,1,con,1,z,Wed Apr 22 2026 15:07:50 GMT-0500 (Central Daylight Time),385085.90000000596,kind,800,I,z,z,None,621,421.0,200.0,9,2,1961.9000000059605,383124.0,8096,kind,AF,B,382072,382072,380543,381356,380543,382505,381872,381872,382505,105
104,test,1,inc,1,m,Wed Apr 22 2026 15:07:50 GMT-0500 (Central Daylight Time),387268.7999999821,temper,1000,I,m,m,None,648,448.0,200.0,103,2,2179.0999999940395,385089.6999999881,8096,jacket,AF,B,384238,384238,382509,383522,382509,384688,384038,384038,384688,106
105,test,1,con,1,m,Wed Apr 22 2026 15:07:50 GMT-0500 (Central Daylight Time),389318.09999999404,rock,900,I,m,m,None,604,404.0,200.0,74,2,2045.0,387273.09999999404,8096,rock,AF,B,386321,386321,384692,385604,384692,386737,386121,386121,386737,107
106,test,1,inc,1,m,Wed Apr 22 2026 15:07:50 GMT-0500 (Central Daylight Time),391250.90000000596,elated,800,I,m,m,None,592,392.0,200.0,101,2,1928.800000011921,389322.09999999404,8096,jacket,AF,B,388270,388270,386741,387554,386741,388670,388070,388070,388670,108
107,test,1,con,1,z,Wed Apr 22 2026 15:07:50 GMT-0500 (Central Daylight Time),393216.7999999821,friend,800,I,z,z,None,626,426.0,200.0,25,2,1961.8999999761581,391254.90000000596,8096,friend,AF,B,390203,390203,388674,389487,388674,390636,390003,390003,390636,109
108,test,1,con,1,m,Wed Apr 22 2026 15:07:50 GMT-0500 (Central Daylight Time),395499.1999999881,jacket,1000,I,m,m,None,740,540.0,200.0,99,2,2278.699999988079,393220.5,8096,jacket,AF,B,392369,392369,390640,391652,390640,392918,392169,392169,392918,110
109,test,1,con,1,z,Wed Apr 22 2026 15:07:50 GMT-0500 (Central Daylight Time),397632.0,hate,900,I,z,z,None,686,486.0,200.0,42,2,2128.7000000178814,395503.2999999821,8096,hate,AF,B,394551,394551,392922,393835,392923,395051,394351,394351,395051,111
110,test,1,inc,1,m,Wed Apr 22 2026 15:07:50 GMT-0500 (Central Daylight Time),399897.90000000596,friend,1100,I,m,m,None,617,417.0,200.0,104,2,2262.0,397635.90000000596,8096,jacket,AF,B,396884,396884,395055,396168,395055,397317,396684,396684,397317,112
110,test,1,con,0,m,Wed Apr 22 2026 15:07:50 GMT-0500 (Central Daylight Time),402114.1999999881,remote,1100,I,z,z,None,575,374.0,201.0,116,2,2212.9000000059605,399901.2999999821,8096,remote,AF,B,399151,399151,397320,398434,397321,399533,398950,398950,399533,113
111,test,1,con,1,m,Wed Apr 22 2026 15:07:50 GMT-0500 (Central Daylight Time),404229.90000000596,bell,1000,I,m,m,None,579,379.0,200.0,83,2,2112.2000000178814,402117.6999999881,8096,bell,AF,B,401266,401266,399537,400550,399537,401649,401066,401066,401649,114
112,test,1,inc,1,m,Wed Apr 22 2026 15:07:50 GMT-0500 (Central Daylight Time),406313.0,brutal,900,I,m,m,None,635,435.0,200.0,126,2,2079.4000000059605,404233.59999999404,8096,window,AF,B,403282,403282,401653,402566,401653,403732,403082,403082,403732,115
113,test,1,con,1,m,Wed Apr 22 2026 15:07:50 GMT-0500 (Central Daylight Time),408478.5,napkin,1000,I,m,m,None,627,428.0,199.0,107,2,2161.300000011921,406317.1999999881,8096,napkin,AF,B,405465,405465,403736,404748,403736,405898,405265,405265,405898,116
114,test,1,con,1,m,Wed Apr 22 2026 15:07:50 GMT-0500 (Central Daylight Time),410411.1999999881,bell,800,I,m,m,None,589,374.0,215.0,81,2,1928.7999999821186,408482.40000000596,8096,bell,AF,B,407447,407447,405901,406714,405902,407830,407232,407232,407830,117
115,test,1,inc,1,z,Wed Apr 22 2026 15:07:50 GMT-0500 (Central Daylight Time),412627.09999999404,remote,1000,I,z,z,None,681,482.0,199.0,7,2,2212.5999999940395,410414.5,8096,elated,AF,B,409563,409563,407834,408847,407834,410046,409364,409364,410046,118
116,test,1,inc,1,z,Wed Apr 22 2026 15:07:50 GMT-0500 (Central Daylight Time),414927.7999999821,window,1100,I,z,z,None,661,462.0,199.0,32,2,2297.199999988079,412630.59999999404,8096,friend,AF,B,411879,411879,410050,411163,410050,412347,411679,411680,412347,119
117,test,1,inc,1,m,Wed Apr 22 2026 15:07:50 GMT-0500 (Central Daylight Time),417175.90000000596,love,1000,I,m,m,None,710,510.0,200.0,71,2,2243.5,414932.40000000596,8096,step,AF,B,414079,414079,412351,413362,412352,414595,413879,413879,414595,120
118,test,1,con,1,z,Wed Apr 22 2026 15:07:50 GMT-0500 (Central Daylight Time),419675.6999999881,love,900,I,z,z,None,920,720.0,200.0,18,2,2496.0,417179.6999999881,8096,love,AF,B,416228,416228,414599,415512,414599,417095,416028,416028,417095,121
119,test,1,inc,1,m,Wed Apr 22 2026 15:07:50 GMT-0500 (Central Daylight Time),421807.6999999881,love,1000,I,m,m,None,594,395.0,199.0,79,2,2127.0,419680.6999999881,8096,rock,AF,B,418827,418827,417100,418111,417100,419227,418628,418628,419227,122
120,test,1,inc,1,m,Wed Apr 22 2026 15:07:50 GMT-0500 (Central Daylight Time),423873.6999999881,kind,900,I,m,m,None,617,417.0,200.0,86,2,2062.5999999940395,421811.09999999404,8096,bell,AF,B,420860,420860,419230,420143,419230,421293,420660,420660,421293,123
121,test,1,inc,1,z,Wed Apr 22 2026 15:07:50 GMT-0500 (Central Daylight Time),426223.0,film,1100,I,z,z,None,710,511.0,199.0,56,2,2345.9000000059605,423877.09999999404,8096,rage,AF,B,423126,423126,421296,422409,421296,423642,422926,422926,423642,124
122,test,1,con,1,z,Wed Apr 22 2026 15:07:50 GMT-0500 (Central Daylight Time),428172.40000000596,love,800,I,z,z,None,614,414.0,200.0,17,2,1945.7000000178814,426226.6999999881,8096,love,AF,B,425175,425175,423646,424459,423646,425592,424975,424975,425591,125
122,test,1,inc,0,z,Wed Apr 22 2026 15:07:50 GMT-0500 (Central Daylight Time),430421.6999999881,rock,900,I,m,m,None,812,612.0,200.0,14,2,2245.9000000059605,428175.7999999821,8096,kind,AF,B,427226,427226,425595,426508,425595,427841,427025,427025,427841,126
123,test,1,inc,1,m,Wed Apr 22 2026 15:07:50 GMT-0500 (Central Daylight Time),432471.09999999404,kind,900,I,m,m,None,602,403.0,199.0,94,2,2045.5999999940395,430425.5,8096,film,AF,B,429474,429474,427845,428757,427845,429890,429274,429274,429890,127
124,test,1,con,1,m,Wed Apr 22 2026 15:07:50 GMT-0500 (Central Daylight Time),434737.0,remote,1000,I,m,m,None,726,526.0,200.0,115,2,2262.0999999940395,432474.90000000596,8096,remote,AF,B,431623,431623,429894,430907,429894,432156,431423,431423,432156,128
