block_c,block_dur,condition,countdown,datetime,endtime,list,multichar_response,project,response,response_time,session_number,start_end,starttime,subject_id,task,task_vers,trial
,,,,Mon Sep 22 2025 16:17:53 GMT-0500 (Central Daylight Time),,,,O,space,322,1,,,7700,WL,A,
prac,,0,,Mon Sep 22 2025 16:17:53 GMT-0500 (Central Daylight Time),,NA,b,O,b,1390,1,,,7700,WL,A,1.0
prac,,0,,Mon Sep 22 2025 16:17:53 GMT-0500 (Central Daylight Time),,NA,bo,O,o,353,1,,,7700,WL,A,1.0
prac,,0,,Mon Sep 22 2025 16:17:53 GMT-0500 (Central Daylight Time),,NA,boo,O,o,175,1,,,7700,WL,A,1.0
prac,,0,,Mon Sep 22 2025 16:17:53 GMT-0500 (Central Daylight Time),,NA,boos,O,s,198,1,,,7700,WL,A,1.0
prac,,0,,Mon Sep 22 2025 16:17:53 GMT-0500 (Central Daylight Time),,NA,boost,O,t,212,1,,,7700,WL,A,1.0
prac,,0,,Mon Sep 22 2025 16:17:53 GMT-0500 (Central Daylight Time),,NA,boostenter,O,enter,426,1,,,7700,WL,A,1.0
1,2.2839999198913574,learn,57716.00008010864,Mon Sep 22 2025 16:17:53 GMT-0500 (Central Daylight Time),155411.09999990463,A,b,O,b,2270,1,2284.399999856949,153126.70000004768,7700,WL,A,1.0
1,2.632999897003174,learn,57367.000102996826,Mon Sep 22 2025 16:17:53 GMT-0500 (Central Daylight Time),155760.29999995232,A,bo,O,o,325,1,2633.5999999046326,153126.70000004768,7700,WL,A,1.0
1,2.799999952316284,learn,57200.000047683716,Mon Sep 22 2025 16:17:53 GMT-0500 (Central Daylight Time),155926.70000004768,A,boo,O,o,154,1,2800.0,153126.70000004768,7700,WL,A,1.0
1,3.0319998264312744,learn,56968.000173568726,Mon Sep 22 2025 16:17:53 GMT-0500 (Central Daylight Time),156159.29999995232,A,book,O,k,210,1,3032.5999999046326,153126.70000004768,7700,WL,A,1.0
1,4.416999816894531,learn,55583.00018310547,Mon Sep 22 2025 16:17:53 GMT-0500 (Central Daylight Time),157543.89999985695,A,bookenter,O,enter,1372,1,4417.199999809265,153126.70000004768,7700,WL,A,1.0
1,5.331999778747559,learn,54668.00022125244,Mon Sep 22 2025 16:17:53 GMT-0500 (Central Daylight Time),158459.20000004768,A,f,O,f,907,1,914.8000001907349,157544.39999985695,7700,WL,A,2.0
1,5.431999921798706,learn,54568.000078201294,Mon Sep 22 2025 16:17:53 GMT-0500 (Central Daylight Time),158558.29999995232,A,fl,O,l,77,1,1013.9000000953674,157544.39999985695,7700,WL,A,2.0
1,5.665999889373779,learn,54334.00011062622,Mon Sep 22 2025 16:17:53 GMT-0500 (Central Daylight Time),158792.89999985695,A,flo,O,o,210,1,1248.5,157544.39999985695,7700,WL,A,2.0
1,5.798999786376953,learn,54201.00021362305,Mon Sep 22 2025 16:17:53 GMT-0500 (Central Daylight Time),158925.89999985695,A,flow,O,w,113,1,1381.5,157544.39999985695,7700,WL,A,2.0
1,6.165999889373779,learn,53834.00011062622,Mon Sep 22 2025 16:17:53 GMT-0500 (Central Daylight Time),159293.0,A,flowe,O,e,342,1,1748.6000001430511,157544.39999985695,7700,WL,A,2.0
1,6.299999952316284,learn,53700.000047683716,Mon Sep 22 2025 16:17:53 GMT-0500 (Central Daylight Time),159426.59999990463,A,flower,O,r,125,1,1882.2000000476837,157544.39999985695,7700,WL,A,2.0
1,7.08299994468689,learn,52917.00005531311,Mon Sep 22 2025 16:17:53 GMT-0500 (Central Daylight Time),160209.5,A,flowerenter,O,enter,760,1,2665.100000143051,157544.39999985695,7700,WL,A,2.0
1,8.447999954223633,learn,51552.00004577637,Mon Sep 22 2025 16:17:53 GMT-0500 (Central Daylight Time),161575.0,A,r,O,r,1346,1,1365.1000001430511,160209.89999985695,7700,WL,A,3.0
1,8.6489999294281,learn,51351.0000705719,Mon Sep 22 2025 16:17:53 GMT-0500 (Central Daylight Time),161775.5,A,ru,O,u,181,1,1565.6000001430511,160209.89999985695,7700,WL,A,3.0
1,8.932999849319458,learn,51067.00015068054,Mon Sep 22 2025 16:17:53 GMT-0500 (Central Daylight Time),162059.5,A,rug,O,g,269,1,1849.6000001430511,160209.89999985695,7700,WL,A,3.0
1,9.379999876022339,learn,50620.00012397766,Mon Sep 22 2025 16:17:53 GMT-0500 (Central Daylight Time),162506.39999985695,A,rugenter,O,enter,438,1,2296.5,160209.89999985695,7700,WL,A,3.0
1,10.230999946594238,learn,49769.00005340576,Mon Sep 22 2025 16:17:53 GMT-0500 (Central Daylight Time),163357.39999985695,A,t,O,t,843,1,850.5999999046326,162506.79999995232,7700,WL,A,4.0
1,10.548999786376953,learn,49451.00021362305,Mon Sep 22 2025 16:17:53 GMT-0500 (Central Daylight Time),163675.89999985695,A,tr,O,r,301,1,1169.0999999046326,162506.79999995232,7700,WL,A,4.0
1,10.747999906539917,learn,49252.00009346008,Mon Sep 22 2025 16:17:53 GMT-0500 (Central Daylight Time),163875.20000004768,A,tra,O,a,193,1,1368.4000000953674,162506.79999995232,7700,WL,A,4.0
1,10.980999946594238,learn,49019.00005340576,Mon Sep 22 2025 16:17:53 GMT-0500 (Central Daylight Time),164107.89999985695,A,trai,O,i,223,1,1601.0999999046326,162506.79999995232,7700,WL,A,4.0
1,11.163999795913696,learn,48836.000204086304,Mon Sep 22 2025 16:17:53 GMT-0500 (Central Daylight Time),164291.29999995232,A,train,O,n,165,1,1784.5,162506.79999995232,7700,WL,A,4.0
1,11.747999906539917,learn,48252.00009346008,Mon Sep 22 2025 16:17:53 GMT-0500 (Central Daylight Time),164874.70000004768,A,trainenter,O,enter,576,1,2367.9000000953674,162506.79999995232,7700,WL,A,4.0
1,12.910999774932861,learn,47089.00022506714,Mon Sep 22 2025 16:17:53 GMT-0500 (Central Daylight Time),166038.39999985695,A,m,O,m,1144,1,1163.2999999523163,164875.09999990463,7700,WL,A,5.0
1,13.077999830245972,learn,46922.00016975403,Mon Sep 22 2025 16:17:53 GMT-0500 (Central Daylight Time),166205.0,A,me,O,e,150,1,1329.9000000953674,164875.09999990463,7700,WL,A,5.0
1,13.294999837875366,learn,46705.000162124634,Mon Sep 22 2025 16:17:53 GMT-0500 (Central Daylight Time),166422.09999990463,A,mea,O,a,207,1,1547.0,164875.09999990463,7700,WL,A,5.0
1,13.561999797821045,learn,46438.000202178955,Mon Sep 22 2025 16:17:53 GMT-0500 (Central Daylight Time),166688.79999995232,A,mead,O,d,263,1,1813.7000000476837,164875.09999990463,7700,WL,A,5.0
1,13.878999948501587,learn,46121.00005149841,Mon Sep 22 2025 16:17:53 GMT-0500 (Central Daylight Time),167006.20000004768,A,meado,O,o,307,1,2131.100000143051,164875.09999990463,7700,WL,A,5.0
1,14.033999919891357,learn,45966.00008010864,Mon Sep 22 2025 16:17:53 GMT-0500 (Central Daylight Time),167161.20000004768,A,meadow,O,w,137,1,2286.100000143051,164875.09999990463,7700,WL,A,5.0
1,14.645999908447266,learn,45354.000091552734,Mon Sep 22 2025 16:17:53 GMT-0500 (Central Daylight Time),167773.39999985695,A,meadowenter,O,enter,604,1,2898.2999999523163,164875.09999990463,7700,WL,A,5.0
1,16.27899980545044,learn,43721.00019454956,Mon Sep 22 2025 16:17:53 GMT-0500 (Central Daylight Time),169406.20000004768,A,s,O,s,1616,1,1632.5,167773.70000004768,7700,WL,A,6.0
1,16.478999853134155,learn,43521.000146865845,Mon Sep 22 2025 16:17:53 GMT-0500 (Central Daylight Time),169606.0,A,sa,O,a,189,1,1832.2999999523163,167773.70000004768,7700,WL,A,6.0
1,16.69599986076355,learn,43304.00013923645,Mon Sep 22 2025 16:17:53 GMT-0500 (Central Daylight Time),169823.39999985695,A,sal,O,l,205,1,2049.699999809265,167773.70000004768,7700,WL,A,6.0
1,17.02899980545044,learn,42971.00019454956,Mon Sep 22 2025 16:17:53 GMT-0500 (Central Daylight Time),170155.89999985695,A,salt,O,t,318,1,2382.199999809265,167773.70000004768,7700,WL,A,6.0
1,17.411999940872192,learn,42588.00005912781,Mon Sep 22 2025 16:17:53 GMT-0500 (Central Daylight Time),170538.79999995232,A,saltenter,O,enter,365,1,2765.0999999046326,167773.70000004768,7700,WL,A,6.0
1,17.8439998626709,learn,42156.0001373291,Mon Sep 22 2025 16:17:53 GMT-0500 (Central Daylight Time),170971.0,A,f,O,f,424,1,431.90000009536743,170539.09999990463,7700,WL,A,7.0
1,17.944999933242798,learn,42055.0000667572,Mon Sep 22 2025 16:17:53 GMT-0500 (Central Daylight Time),171072.29999995232,A,fi,O,i,88,1,533.2000000476837,170539.09999990463,7700,WL,A,7.0
1,18.09499979019165,learn,41905.00020980835,Mon Sep 22 2025 16:17:53 GMT-0500 (Central Daylight Time),171221.70000004768,A,fin,O,n,131,1,682.6000001430511,170539.09999990463,7700,WL,A,7.0
1,18.59599995613098,learn,41404.00004386902,Mon Sep 22 2025 16:17:53 GMT-0500 (Central Daylight Time),171722.89999985695,A,fing,O,g,486,1,1183.7999999523163,170539.09999990463,7700,WL,A,7.0
1,18.811999797821045,learn,41188.000202178955,Mon Sep 22 2025 16:17:53 GMT-0500 (Central Daylight Time),171939.29999995232,A,finge,O,e,200,1,1400.2000000476837,170539.09999990463,7700,WL,A,7.0
1,18.96399998664856,learn,41036.00001335144,Mon Sep 22 2025 16:17:53 GMT-0500 (Central Daylight Time),172091.0,A,finger,O,r,136,1,1551.9000000953674,170539.09999990463,7700,WL,A,7.0
1,18.992999792099,learn,41007.000207901,Mon Sep 22 2025 16:17:53 GMT-0500 (Central Daylight Time),172120.0,A,fingert,O,t,10,1,1580.9000000953674,170539.09999990463,7700,WL,A,7.0
1,19.860999822616577,learn,40139.00017738342,Mon Sep 22 2025 16:17:53 GMT-0500 (Central Daylight Time),172988.20000004768,A,finger,O,backspace,862,1,2449.100000143051,170539.09999990463,7700,WL,A,7.0
1,20.57799983024597,learn,39422.00016975403,Mon Sep 22 2025 16:17:53 GMT-0500 (Central Daylight Time),173704.59999990463,A,fingerenter,O,enter,694,1,3165.5,170539.09999990463,7700,WL,A,7.0
1,23.192999839782715,learn,36807.000160217285,Mon Sep 22 2025 16:17:53 GMT-0500 (Central Daylight Time),176320.39999985695,A,a,O,a,2596,1,2615.5,173704.89999985695,7700,WL,A,8.0
1,23.393999814987183,learn,36606.00018501282,Mon Sep 22 2025 16:17:53 GMT-0500 (Central Daylight Time),176520.79999995232,A,ap,O,p,186,1,2815.9000000953674,173704.89999985695,7700,WL,A,8.0
1,23.5939998626709,learn,36406.0001373291,Mon Sep 22 2025 16:17:53 GMT-0500 (Central Daylight Time),176721.0,A,app,O,p,177,1,3016.100000143051,173704.89999985695,7700,WL,A,8.0
1,23.793999910354614,learn,36206.000089645386,Mon Sep 22 2025 16:17:53 GMT-0500 (Central Daylight Time),176920.70000004768,A,appl,O,l,185,1,3215.800000190735,173704.89999985695,7700,WL,A,8.0
1,23.97699999809265,learn,36023.00000190735,Mon Sep 22 2025 16:17:53 GMT-0500 (Central Daylight Time),177103.59999990463,A,apple,O,e,170,1,3398.7000000476837,173704.89999985695,7700,WL,A,8.0
1,24.941999912261963,learn,35058.00008773804,Mon Sep 22 2025 16:17:53 GMT-0500 (Central Daylight Time),178068.79999995232,A,appleenter,O,enter,946,1,4363.900000095367,173704.89999985695,7700,WL,A,8.0
1,26.191999912261963,learn,33808.00008773804,Mon Sep 22 2025 16:17:53 GMT-0500 (Central Daylight Time),179318.89999985695,A,r,O,r,1239,1,1249.7999999523163,178069.09999990463,7700,WL,A,9.0
1,26.359999895095825,learn,33640.000104904175,Mon Sep 22 2025 16:17:53 GMT-0500 (Central Daylight Time),179486.70000004768,A,ra,O,a,148,1,1417.6000001430511,178069.09999990463,7700,WL,A,9.0
1,26.675999879837036,learn,33324.000120162964,Mon Sep 22 2025 16:17:53 GMT-0500 (Central Daylight Time),179803.09999990463,A,rat,O,t,297,1,1734.0,178069.09999990463,7700,WL,A,9.0
1,26.859999895095825,learn,33140.000104904175,Mon Sep 22 2025 16:17:53 GMT-0500 (Central Daylight Time),179986.89999985695,A,ratt,O,t,168,1,1917.7999999523163,178069.09999990463,7700,WL,A,9.0
1,27.025999784469604,learn,32974.000215530396,Mon Sep 22 2025 16:17:53 GMT-0500 (Central Daylight Time),180153.0,A,rattl,O,l,155,1,2083.9000000953674,178069.09999990463,7700,WL,A,9.0
1,27.14199995994568,learn,32858.00004005432,Mon Sep 22 2025 16:17:53 GMT-0500 (Central Daylight Time),180268.59999990463,A,rattle,O,e,95,1,2199.5,178069.09999990463,7700,WL,A,9.0
1,27.575999975204468,learn,32424.000024795532,Mon Sep 22 2025 16:17:53 GMT-0500 (Central Daylight Time),180703.39999985695,A,rattleenter,O,enter,423,1,2634.2999999523163,178069.09999990463,7700,WL,A,9.0
1,29.340999841690063,learn,30659.000158309937,Mon Sep 22 2025 16:17:53 GMT-0500 (Central Daylight Time),182468.39999985695,A,k,O,k,1748,1,1764.7999999523163,180703.59999990463,7700,WL,A,10.0
1,29.54099988937378,learn,30459.00011062622,Mon Sep 22 2025 16:17:53 GMT-0500 (Central Daylight Time),182668.39999985695,A,ke,O,e,191,1,1964.7999999523163,180703.59999990463,7700,WL,A,10.0
1,29.691999912261963,learn,30308.000087738037,Mon Sep 22 2025 16:17:53 GMT-0500 (Central Daylight Time),182818.5,A,key,O,y,143,1,2114.9000000953674,180703.59999990463,7700,WL,A,10.0
1,30.007999897003174,learn,29992.000102996826,Mon Sep 22 2025 16:17:53 GMT-0500 (Central Daylight Time),183135.39999985695,A,keyenter,O,enter,306,1,2431.7999999523163,180703.59999990463,7700,WL,A,10.0
1,43.42199993133545,learn,16578.00006866455,Mon Sep 22 2025 16:17:53 GMT-0500 (Central Daylight Time),196548.89999985695,A,l,O,l,13409,1,13413.299999952316,183135.59999990463,7700,WL,A,11.0
1,43.63799977302551,learn,16362.000226974487,Mon Sep 22 2025 16:17:53 GMT-0500 (Central Daylight Time),196765.29999995232,A,lo,O,o,200,1,13629.700000047684,183135.59999990463,7700,WL,A,11.0
1,43.88699984550476,learn,16113.00015449524,Mon Sep 22 2025 16:17:53 GMT-0500 (Central Daylight Time),197013.79999995232,A,log,O,g,241,1,13878.200000047684,183135.59999990463,7700,WL,A,11.0
1,44.1710000038147,learn,15828.999996185303,Mon Sep 22 2025 16:17:53 GMT-0500 (Central Daylight Time),197298.20000004768,A,logenter,O,enter,278,1,14162.600000143051,183135.59999990463,7700,WL,A,11.0
1,54.431999921798706,learn,5568.000078201294,Mon Sep 22 2025 16:17:53 GMT-0500 (Central Daylight Time),207559.39999985695,A,enter,O,enter,10250,1,10261.0,197298.39999985695,7700,WL,A,12.0
1,56.36699986457825,learn,3633.000135421753,Mon Sep 22 2025 16:17:53 GMT-0500 (Central Daylight Time),209493.89999985695,A,enter,O,enter,1925,1,1934.0999999046326,207559.79999995232,7700,WL,A,13.0
1,57.181999921798706,learn,2818.000078201294,Mon Sep 22 2025 16:17:53 GMT-0500 (Central Daylight Time),210308.79999995232,A,enter,O,enter,799,1,814.5999999046326,209494.20000004768,7700,WL,A,14.0
1,57.94799995422363,learn,2052.000045776367,Mon Sep 22 2025 16:17:53 GMT-0500 (Central Daylight Time),211075.29999995232,A,enter,O,enter,752,1,766.2000000476837,210309.09999990463,7700,WL,A,15.0
2,2.2660000324249268,learn,57733.99996757507,Mon Sep 22 2025 16:17:53 GMT-0500 (Central Daylight Time),285519.7000000477,A,b,O,b,2248,1,2266.300000190735,283253.39999985695,7700,WL,A,1.0
2,2.5329999923706055,learn,57467.000007629395,Mon Sep 22 2025 16:17:53 GMT-0500 (Central Daylight Time),285786.09999990463,A,bo,O,o,242,1,2532.7000000476837,283253.39999985695,7700,WL,A,1.0
2,2.6989998817443848,learn,57301.000118255615,Mon Sep 22 2025 16:17:53 GMT-0500 (Central Daylight Time),285952.09999990463,A,boo,O,o,149,1,2698.7000000476837,283253.39999985695,7700,WL,A,1.0
2,2.9159998893737793,learn,57084.00011062622,Mon Sep 22 2025 16:17:53 GMT-0500 (Central Daylight Time),286170.0,A,book,O,k,213,1,2916.600000143051,283253.39999985695,7700,WL,A,1.0
2,4.884000062942505,learn,55115.999937057495,Mon Sep 22 2025 16:17:53 GMT-0500 (Central Daylight Time),288137.09999990463,A,boo,O,backspace,1954,1,4883.700000047684,283253.39999985695,7700,WL,A,1.0
2,6.398000001907349,learn,53601.99999809265,Mon Sep 22 2025 16:17:53 GMT-0500 (Central Daylight Time),289651.7000000477,A,book,O,k,1499,1,6398.300000190735,283253.39999985695,7700,WL,A,1.0
2,6.898000001907349,learn,53101.99999809265,Mon Sep 22 2025 16:17:53 GMT-0500 (Central Daylight Time),290151.2999999523,A,bookenter,O,enter,480,1,6897.900000095367,283253.39999985695,7700,WL,A,1.0
2,7.948999881744385,learn,52051.000118255615,Mon Sep 22 2025 16:17:53 GMT-0500 (Central Daylight Time),291202.2000000477,A,f,O,f,1046,1,1050.7000000476837,290151.5,7700,WL,A,2.0
2,7.996000051498413,learn,52003.99994850159,Mon Sep 22 2025 16:17:53 GMT-0500 (Central Daylight Time),291249.2000000477,A,fl,O,l,32,1,1097.7000000476837,290151.5,7700,WL,A,2.0
2,8.27999997138977,learn,51720.00002861023,Mon Sep 22 2025 16:17:53 GMT-0500 (Central Daylight Time),291533.0,A,flo,O,o,274,1,1381.5,290151.5,7700,WL,A,2.0
2,8.414000034332275,learn,51585.999965667725,Mon Sep 22 2025 16:17:53 GMT-0500 (Central Daylight Time),291667.09999990463,A,flow,O,w,117,1,1515.5999999046326,290151.5,7700,WL,A,2.0
2,9.062000036239624,learn,50937.999963760376,Mon Sep 22 2025 16:17:53 GMT-0500 (Central Daylight Time),292315.39999985695,A,flowe,O,e,640,1,2163.899999856949,290151.5,7700,WL,A,2.0
2,9.246000051498413,learn,50753.99994850159,Mon Sep 22 2025 16:17:53 GMT-0500 (Central Daylight Time),292499.2999999523,A,flower,O,r,170,1,2347.7999999523163,290151.5,7700,WL,A,2.0
2,9.678999900817871,learn,50321.00009918213,Mon Sep 22 2025 16:17:53 GMT-0500 (Central Daylight Time),292932.7000000477,A,flowerenter,O,enter,417,1,2781.2000000476837,290151.5,7700,WL,A,2.0
2,10.062999963760376,learn,49937.000036239624,Mon Sep 22 2025 16:17:53 GMT-0500 (Central Daylight Time),293316.39999985695,A,t,O,t,368,1,383.39999985694885,292933.0,7700,WL,A,3.0
2,10.280999898910522,learn,49719.00010108948,Mon Sep 22 2025 16:17:53 GMT-0500 (Central Daylight Time),293534.2000000477,A,tr,O,r,193,1,601.2000000476837,292933.0,7700,WL,A,3.0
2,10.397000074386597,learn,49602.9999256134,Mon Sep 22 2025 16:17:53 GMT-0500 (Central Daylight Time),293650.2000000477,A,tra,O,a,108,1,717.2000000476837,292933.0,7700,WL,A,3.0
2,10.645999908447266,learn,49354.000091552734,Mon Sep 22 2025 16:17:53 GMT-0500 (Central Daylight Time),293899.59999990463,A,trai,O,i,234,1,966.5999999046326,292933.0,7700,WL,A,3.0
2,10.779000043869019,learn,49220.99995613098,Mon Sep 22 2025 16:17:53 GMT-0500 (Central Daylight Time),294032.7999999523,A,train,O,n,119,1,1099.7999999523163,292933.0,7700,WL,A,3.0
2,11.394999980926514,learn,48605.000019073486,Mon Sep 22 2025 16:17:53 GMT-0500 (Central Daylight Time),294648.7999999523,A,trainenter,O,enter,603,1,1715.7999999523163,292933.0,7700,WL,A,3.0
2,11.828999996185303,learn,48171.0000038147,Mon Sep 22 2025 16:17:53 GMT-0500 (Central Daylight Time),295082.09999990463,A,r,O,r,428,1,433.0,294649.09999990463,7700,WL,A,4.0
2,12.029000043869019,learn,47970.99995613098,Mon Sep 22 2025 16:17:53 GMT-0500 (Central Daylight Time),295282.5,A,ru,O,u,185,1,633.4000000953674,294649.09999990463,7700,WL,A,4.0
2,12.26199984550476,learn,47738.00015449524,Mon Sep 22 2025 16:17:53 GMT-0500 (Central Daylight Time),295515.7999999523,A,rug,O,g,229,1,866.7000000476837,294649.09999990463,7700,WL,A,4.0
2,12.878999948501587,learn,47121.00005149841,Mon Sep 22 2025 16:17:53 GMT-0500 (Central Daylight Time),296132.0,A,rugenter,O,enter,601,1,1482.9000000953674,294649.09999990463,7700,WL,A,4.0
2,17.878000020980835,learn,42121.999979019165,Mon Sep 22 2025 16:17:53 GMT-0500 (Central Daylight Time),301131.09999990463,A,b,O,b,4985,1,4998.700000047684,296132.39999985695,7700,WL,A,5.0
2,18.062999963760376,learn,41937.000036239624,Mon Sep 22 2025 16:17:53 GMT-0500 (Central Daylight Time),301316.2999999523,A,bu,O,u,179,1,5183.900000095367,296132.39999985695,7700,WL,A,5.0
2,18.24399995803833,learn,41756.00004196167,Mon Sep 22 2025 16:17:53 GMT-0500 (Central Daylight Time),301497.5,A,but,O,t,167,1,5365.100000143051,296132.39999985695,7700,WL,A,5.0
2,18.444000005722046,learn,41555.999994277954,Mon Sep 22 2025 16:17:53 GMT-0500 (Central Daylight Time),301697.09999990463,A,butt,O,t,188,1,5564.700000047684,296132.39999985695,7700,WL,A,5.0
2,18.67799997329712,learn,41322.00002670288,Mon Sep 22 2025 16:17:53 GMT-0500 (Central Daylight Time),301931.7000000477,A,butto,O,o,228,1,5799.300000190735,296132.39999985695,7700,WL,A,5.0
2,18.84500002861023,learn,41154.99997138977,Mon Sep 22 2025 16:17:53 GMT-0500 (Central Daylight Time),302098.0,A,button,O,n,144,1,5965.600000143051,296132.39999985695,7700,WL,A,5.0
2,19.592999935150146,learn,40407.00006484985,Mon Sep 22 2025 16:17:53 GMT-0500 (Central Daylight Time),302846.7000000477,A,buttonenter,O,enter,738,1,6714.300000190735,296132.39999985695,7700,WL,A,5.0
2,20.342999935150146,learn,39657.00006484985,Mon Sep 22 2025 16:17:53 GMT-0500 (Central Daylight Time),303596.39999985695,A,s,O,s,744,1,749.2999999523163,302847.09999990463,7700,WL,A,6.0
2,20.526000022888184,learn,39473.99997711182,Mon Sep 22 2025 16:17:53 GMT-0500 (Central Daylight Time),303779.89999985695,A,sa,O,a,168,1,932.7999999523163,302847.09999990463,7700,WL,A,6.0
2,20.759999990463257,learn,39240.00000953674,Mon Sep 22 2025 16:17:53 GMT-0500 (Central Daylight Time),304012.89999985695,A,sal,O,l,224,1,1165.7999999523163,302847.09999990463,7700,WL,A,6.0
2,21.193000078201294,learn,38806.999921798706,Mon Sep 22 2025 16:17:53 GMT-0500 (Central Daylight Time),304446.5,A,salt,O,t,427,1,1599.4000000953674,302847.09999990463,7700,WL,A,6.0
2,21.89299988746643,learn,38107.00011253357,Mon Sep 22 2025 16:17:53 GMT-0500 (Central Daylight Time),305146.7000000477,A,saltenter,O,enter,697,1,2299.600000143051,302847.09999990463,7700,WL,A,6.0
2,23.491999864578247,learn,36508.00013542175,Mon Sep 22 2025 16:17:53 GMT-0500 (Central Daylight Time),306745.89999985695,A,a,O,a,1594,1,1598.8999998569489,305147.0,7700,WL,A,7.0
2,23.842000007629395,learn,36157.999992370605,Mon Sep 22 2025 16:17:53 GMT-0500 (Central Daylight Time),307095.5,A,ap,O,p,337,1,1948.5,305147.0,7700,WL,A,7.0
2,24.04200005531311,learn,35957.99994468689,Mon Sep 22 2025 16:17:53 GMT-0500 (Central Daylight Time),307295.2999999523,A,app,O,p,189,1,2148.2999999523163,305147.0,7700,WL,A,7.0
2,24.241999864578247,learn,35758.00013542175,Mon Sep 22 2025 16:17:53 GMT-0500 (Central Daylight Time),307495.5,A,appl,O,l,188,1,2348.5,305147.0,7700,WL,A,7.0
2,24.407999992370605,learn,35592.000007629395,Mon Sep 22 2025 16:17:53 GMT-0500 (Central Daylight Time),307661.09999990463,A,apple,O,e,156,1,2514.0999999046326,305147.0,7700,WL,A,7.0
2,24.757999897003174,learn,35242.000102996826,Mon Sep 22 2025 16:17:53 GMT-0500 (Central Daylight Time),308011.7999999523,A,appleenter,O,enter,345,1,2864.7999999523163,305147.0,7700,WL,A,7.0
2,25.54699993133545,learn,34453.00006866455,Mon Sep 22 2025 16:17:53 GMT-0500 (Central Daylight Time),308800.09999990463,A,h,O,h,768,1,788.0,308012.09999990463,7700,WL,A,8.0
2,25.70899987220764,learn,34291.00012779236,Mon Sep 22 2025 16:17:53 GMT-0500 (Central Daylight Time),308962.7000000477,A,ha,O,a,142,1,950.6000001430511,308012.09999990463,7700,WL,A,8.0
2,25.90999984741211,learn,34090.00015258789,Mon Sep 22 2025 16:17:53 GMT-0500 (Central Daylight Time),309163.2000000477,A,har,O,r,183,1,1151.1000001430511,308012.09999990463,7700,WL,A,8.0
2,26.14299988746643,learn,33857.00011253357,Mon Sep 22 2025 16:17:53 GMT-0500 (Central Daylight Time),309396.2000000477,A,harp,O,p,217,1,1384.1000001430511,308012.09999990463,7700,WL,A,8.0
2,26.657000064849854,learn,33342.99993515015,Mon Sep 22 2025 16:17:53 GMT-0500 (Central Daylight Time),309910.7999999523,A,harpenter,O,enter,496,1,1898.7000000476837,308012.09999990463,7700,WL,A,8.0
2,27.223000049591064,learn,32776.999950408936,Mon Sep 22 2025 16:17:53 GMT-0500 (Central Daylight Time),310476.09999990463,A,g,O,g,556,1,565.0,309911.09999990463,7700,WL,A,9.0
2,27.391000032424927,learn,32608.999967575073,Mon Sep 22 2025 16:17:53 GMT-0500 (Central Daylight Time),310644.09999990463,A,go,O,o,162,1,733.0,309911.09999990463,7700,WL,A,9.0
2,27.675999879837036,learn,32324.000120162964,Mon Sep 22 2025 16:17:53 GMT-0500 (Central Daylight Time),310929.2000000477,A,gol,O,l,276,1,1018.1000001430511,309911.09999990463,7700,WL,A,9.0
2,28.04099988937378,learn,31959.00011062622,Mon Sep 22 2025 16:17:53 GMT-0500 (Central Daylight Time),311294.7999999523,A,gold,O,d,347,1,1383.7000000476837,309911.09999990463,7700,WL,A,9.0
2,28.60699987411499,learn,31393.00012588501,Mon Sep 22 2025 16:17:53 GMT-0500 (Central Daylight Time),311860.0,A,goldenter,O,enter,549,1,1948.9000000953674,309911.09999990463,7700,WL,A,9.0
2,29.506999969482422,learn,30493.000030517578,Mon Sep 22 2025 16:17:53 GMT-0500 (Central Daylight Time),312760.5,A,m,O,m,888,1,900.2999999523163,311860.2000000477,7700,WL,A,10.0
2,29.622999906539917,learn,30377.000093460083,Mon Sep 22 2025 16:17:53 GMT-0500 (Central Daylight Time),312876.7999999523,A,me,O,e,106,1,1016.5999999046326,311860.2000000477,7700,WL,A,10.0
2,31.0239999294281,learn,28976.0000705719,Mon Sep 22 2025 16:17:53 GMT-0500 (Central Daylight Time),314277.2999999523,A,mea,O,a,1389,1,2417.0999999046326,311860.2000000477,7700,WL,A,10.0
2,31.305999994277954,learn,28694.000005722046,Mon Sep 22 2025 16:17:53 GMT-0500 (Central Daylight Time),314559.39999985695,A,mead,O,d,270,1,2699.199999809265,311860.2000000477,7700,WL,A,10.0
2,31.522000074386597,learn,28477.999925613403,Mon Sep 22 2025 16:17:53 GMT-0500 (Central Daylight Time),314775.2000000477,A,meado,O,o,203,1,2915.0,311860.2000000477,7700,WL,A,10.0
2,31.6729998588562,learn,28327.0001411438,Mon Sep 22 2025 16:17:53 GMT-0500 (Central Daylight Time),314926.5,A,meadow,O,w,131,1,3066.2999999523163,311860.2000000477,7700,WL,A,10.0
2,32.95599985122681,learn,27044.000148773193,Mon Sep 22 2025 16:17:53 GMT-0500 (Central Daylight Time),316209.2999999523,A,meadowenter,O,enter,1270,1,4349.099999904633,311860.2000000477,7700,WL,A,10.0
2,33.77300000190735,learn,26226.99999809265,Mon Sep 22 2025 16:17:53 GMT-0500 (Central Daylight Time),317026.7999999523,A,k,O,k,813,1,817.2000000476837,316209.59999990463,7700,WL,A,11.0
2,33.94000005722046,learn,26059.99994277954,Mon Sep 22 2025 16:17:53 GMT-0500 (Central Daylight Time),317193.59999990463,A,ke,O,e,160,1,984.0,316209.59999990463,7700,WL,A,11.0
2,34.12299990653992,learn,25877.000093460083,Mon Sep 22 2025 16:17:53 GMT-0500 (Central Daylight Time),317376.59999990463,A,key,O,y,168,1,1167.0,316209.59999990463,7700,WL,A,11.0
2,34.88800001144409,learn,25111.99998855591,Mon Sep 22 2025 16:17:53 GMT-0500 (Central Daylight Time),318141.59999990463,A,keyenter,O,enter,754,1,1932.0,316209.59999990463,7700,WL,A,11.0
2,35.70700001716614,learn,24292.999982833862,Mon Sep 22 2025 16:17:53 GMT-0500 (Central Daylight Time),318960.0,A,l,O,l,808,1,818.1000001430511,318141.89999985695,7700,WL,A,12.0
2,35.973000049591064,learn,24026.999950408936,Mon Sep 22 2025 16:17:53 GMT-0500 (Central Daylight Time),319226.5,A,lo,O,o,243,1,1084.6000001430511,318141.89999985695,7700,WL,A,12.0
2,36.17199993133545,learn,23828.00006866455,Mon Sep 22 2025 16:17:53 GMT-0500 (Central Daylight Time),319425.0,A,log,O,g,177,1,1283.1000001430511,318141.89999985695,7700,WL,A,12.0
2,36.520999908447266,learn,23479.000091552734,Mon Sep 22 2025 16:17:53 GMT-0500 (Central Daylight Time),319774.7000000477,A,logenter,O,enter,337,1,1632.8000001907349,318141.89999985695,7700,WL,A,12.0
2,37.037999868392944,learn,22962.000131607056,Mon Sep 22 2025 16:17:53 GMT-0500 (Central Daylight Time),320291.5,A,r,O,r,501,1,516.5,319775.0,7700,WL,A,13.0
2,37.22199988365173,learn,22778.000116348267,Mon Sep 22 2025 16:17:53 GMT-0500 (Central Daylight Time),320475.2000000477,A,ra,O,a,167,1,700.2000000476837,319775.0,7700,WL,A,13.0
2,37.97199988365173,learn,22028.000116348267,Mon Sep 22 2025 16:17:53 GMT-0500 (Central Daylight Time),321225.7999999523,A,rat,O,t,744,1,1450.7999999523163,319775.0,7700,WL,A,13.0
2,38.15499997138977,learn,21845.00002861023,Mon Sep 22 2025 16:17:53 GMT-0500 (Central Daylight Time),321408.0,A,ratt,O,t,169,1,1633.0,319775.0,7700,WL,A,13.0
2,38.30399990081787,learn,21696.00009918213,Mon Sep 22 2025 16:17:53 GMT-0500 (Central Daylight Time),321557.7000000477,A,rattl,O,l,139,1,1782.7000000476837,319775.0,7700,WL,A,13.0
2,38.437000036239624,learn,21562.999963760376,Mon Sep 22 2025 16:17:53 GMT-0500 (Central Daylight Time),321690.7999999523,A,rattle,O,e,116,1,1915.7999999523163,319775.0,7700,WL,A,13.0
2,39.58800005912781,learn,20411.999940872192,Mon Sep 22 2025 16:17:53 GMT-0500 (Central Daylight Time),322841.89999985695,A,rattleenter,O,enter,1146,1,3066.899999856949,319775.0,7700,WL,A,13.0
2,41.37100005149841,learn,18628.999948501587,Mon Sep 22 2025 16:17:53 GMT-0500 (Central Daylight Time),324624.0,A,c,O,c,1762,1,1781.7999999523163,322842.2000000477,7700,WL,A,14.0
2,41.4539999961853,learn,18546.000003814697,Mon Sep 22 2025 16:17:53 GMT-0500 (Central Daylight Time),324707.0,A,ch,O,h,77,1,1864.7999999523163,322842.2000000477,7700,WL,A,14.0
2,41.78600001335144,learn,18213.99998664856,Mon Sep 22 2025 16:17:53 GMT-0500 (Central Daylight Time),325039.89999985695,A,chi,O,i,323,1,2197.699999809265,322842.2000000477,7700,WL,A,14.0
2,41.95300006866455,learn,18046.99993133545,Mon Sep 22 2025 16:17:53 GMT-0500 (Central Daylight Time),325206.09999990463,A,chim,O,m,158,1,2363.899999856949,322842.2000000477,7700,WL,A,14.0
2,42.687000036239624,learn,17312.999963760376,Mon Sep 22 2025 16:17:53 GMT-0500 (Central Daylight Time),325940.59999990463,A,chimn,O,n,729,1,3098.399999856949,322842.2000000477,7700,WL,A,14.0
2,42.920000076293945,learn,17079.999923706055,Mon Sep 22 2025 16:17:53 GMT-0500 (Central Daylight Time),326173.2999999523,A,chimne,O,e,215,1,3331.0999999046326,322842.2000000477,7700,WL,A,14.0
2,43.037999868392944,learn,16962.000131607056,Mon Sep 22 2025 16:17:53 GMT-0500 (Central Daylight Time),326291.59999990463,A,chimney,O,y,113,1,3449.399999856949,322842.2000000477,7700,WL,A,14.0
2,44.70199990272522,learn,15298.00009727478,Mon Sep 22 2025 16:17:53 GMT-0500 (Central Daylight Time),327955.59999990463,A,chimneyenter,O,enter,1648,1,5113.399999856949,322842.2000000477,7700,WL,A,14.0
2,48.21799993515015,learn,11782.000064849854,Mon Sep 22 2025 16:17:53 GMT-0500 (Central Daylight Time),331471.2999999523,A,enter,O,enter,3497,1,3515.4000000953674,327955.89999985695,7700,WL,A,15.0
3,1.6470000743865967,learn,58352.9999256134,Mon Sep 22 2025 16:17:53 GMT-0500 (Central Daylight Time),402214.89999985695,A,b,O,b,1637,1,1647.3999998569489,400567.5,7700,WL,A,1.0
3,1.9470000267028809,learn,58052.99997329712,Mon Sep 22 2025 16:17:53 GMT-0500 (Central Daylight Time),402514.7999999523,A,bo,O,o,286,1,1947.2999999523163,400567.5,7700,WL,A,1.0
3,2.13100004196167,learn,57868.99995803833,Mon Sep 22 2025 16:17:53 GMT-0500 (Central Daylight Time),402699.0,A,boo,O,o,179,1,2131.5,400567.5,7700,WL,A,1.0
3,2.3990001678466797,learn,57600.99983215332,Mon Sep 22 2025 16:17:53 GMT-0500 (Central Daylight Time),402967.09999990463,A,book,O,k,255,1,2399.5999999046326,400567.5,7700,WL,A,1.0
3,3.5299999713897705,learn,56470.00002861023,Mon Sep 22 2025 16:17:53 GMT-0500 (Central Daylight Time),404097.39999985695,A,bookenter,O,enter,1125,1,3529.899999856949,400567.5,7700,WL,A,1.0
3,4.364000082015991,learn,55635.99991798401,Mon Sep 22 2025 16:17:53 GMT-0500 (Central Daylight Time),404931.59999990463,A,f,O,f,820,1,833.8999998569489,404097.7000000477,7700,WL,A,2.0
3,4.446000099182129,learn,55553.99990081787,Mon Sep 22 2025 16:17:53 GMT-0500 (Central Daylight Time),405013.7000000477,A,fl,O,l,63,1,916.0,404097.7000000477,7700,WL,A,2.0
3,4.680000066757202,learn,55319.9999332428,Mon Sep 22 2025 16:17:53 GMT-0500 (Central Daylight Time),405248.0,A,flo,O,o,221,1,1150.2999999523163,404097.7000000477,7700,WL,A,2.0
3,4.812999963760376,learn,55187.000036239624,Mon Sep 22 2025 16:17:53 GMT-0500 (Central Daylight Time),405380.7000000477,A,flow,O,w,116,1,1283.0,404097.7000000477,7700,WL,A,2.0
3,5.078999996185303,learn,54921.0000038147,Mon Sep 22 2025 16:17:53 GMT-0500 (Central Daylight Time),405646.89999985695,A,flowe,O,e,247,1,1549.1999998092651,404097.7000000477,7700,WL,A,2.0
3,5.229000091552734,learn,54770.999908447266,Mon Sep 22 2025 16:17:53 GMT-0500 (Central Daylight Time),405796.59999990463,A,flower,O,r,135,1,1698.8999998569489,404097.7000000477,7700,WL,A,2.0
3,5.879000186920166,learn,54120.999813079834,Mon Sep 22 2025 16:17:53 GMT-0500 (Central Daylight Time),406447.2999999523,A,flowerenter,O,enter,632,1,2349.5999999046326,404097.7000000477,7700,WL,A,2.0
3,6.3470001220703125,learn,53652.99987792969,Mon Sep 22 2025 16:17:53 GMT-0500 (Central Daylight Time),406914.59999990463,A,t,O,t,462,1,467.09999990463257,406447.5,7700,WL,A,3.0
3,6.562999963760376,learn,53437.000036239624,Mon Sep 22 2025 16:17:53 GMT-0500 (Central Daylight Time),407130.89999985695,A,tr,O,r,202,1,683.3999998569489,406447.5,7700,WL,A,3.0
3,6.728000164031982,learn,53271.99983596802,Mon Sep 22 2025 16:17:53 GMT-0500 (Central Daylight Time),407296.0,A,tra,O,a,147,1,848.5,406447.5,7700,WL,A,3.0
3,6.963000059127808,learn,53036.99994087219,Mon Sep 22 2025 16:17:53 GMT-0500 (Central Daylight Time),407530.7000000477,A,trai,O,i,228,1,1083.2000000476837,406447.5,7700,WL,A,3.0
3,7.146000146865845,learn,52853.999853134155,Mon Sep 22 2025 16:17:53 GMT-0500 (Central Daylight Time),407713.89999985695,A,train,O,n,160,1,1266.3999998569489,406447.5,7700,WL,A,3.0
3,7.6620001792907715,learn,52337.99982070923,Mon Sep 22 2025 16:17:53 GMT-0500 (Central Daylight Time),408230.2999999523,A,trainenter,O,enter,506,1,1782.7999999523163,406447.5,7700,WL,A,3.0
3,8.16100001335144,learn,51838.99998664856,Mon Sep 22 2025 16:17:53 GMT-0500 (Central Daylight Time),408728.89999985695,A,r,O,r,478,1,498.39999985694885,408230.5,7700,WL,A,4.0
3,8.312000036239624,learn,51687.999963760376,Mon Sep 22 2025 16:17:53 GMT-0500 (Central Daylight Time),408879.7999999523,A,ru,O,u,138,1,649.2999999523163,408230.5,7700,WL,A,4.0
3,8.514000177383423,learn,51485.99982261658,Mon Sep 22 2025 16:17:53 GMT-0500 (Central Daylight Time),409081.7999999523,A,rug,O,g,196,1,851.2999999523163,408230.5,7700,WL,A,4.0
3,8.763000011444092,learn,51236.99998855591,Mon Sep 22 2025 16:17:53 GMT-0500 (Central Daylight Time),409330.5,A,rugenter,O,enter,243,1,1100.0,408230.5,7700,WL,A,4.0
3,13.694000005722046,learn,46305.999994277954,Mon Sep 22 2025 16:17:53 GMT-0500 (Central Daylight Time),414262.09999990463,A,h,O,h,4915,1,4931.299999952316,409330.7999999523,7700,WL,A,5.0
3,13.827000141143799,learn,46172.9998588562,Mon Sep 22 2025 16:17:53 GMT-0500 (Central Daylight Time),414394.39999985695,A,ha,O,a,118,1,5063.599999904633,409330.7999999523,7700,WL,A,5.0
3,14.042999982833862,learn,45957.00001716614,Mon Sep 22 2025 16:17:53 GMT-0500 (Central Daylight Time),414611.0,A,har,O,r,209,1,5280.200000047684,409330.7999999523,7700,WL,A,5.0
3,14.344000101089478,learn,45655.99989891052,Mon Sep 22 2025 16:17:53 GMT-0500 (Central Daylight Time),414911.39999985695,A,harp,O,p,280,1,5580.599999904633,409330.7999999523,7700,WL,A,5.0
3,15.074000120162964,learn,44925.999879837036,Mon Sep 22 2025 16:17:53 GMT-0500 (Central Daylight Time),415642.2000000477,A,harpenter,O,enter,723,1,6311.400000095367,409330.7999999523,7700,WL,A,5.0
3,16.82800006866455,learn,43171.99993133545,Mon Sep 22 2025 16:17:53 GMT-0500 (Central Daylight Time),417395.39999985695,A,m,O,m,1741,1,1753.0,415642.39999985695,7700,WL,A,6.0
3,17.108999967575073,learn,42891.00003242493,Mon Sep 22 2025 16:17:53 GMT-0500 (Central Daylight Time),417676.7000000477,A,me,O,e,263,1,2034.3000001907349,415642.39999985695,7700,WL,A,6.0
3,17.358999967575073,learn,42641.00003242493,Mon Sep 22 2025 16:17:53 GMT-0500 (Central Daylight Time),417927.2000000477,A,mea,O,a,230,1,2284.800000190735,415642.39999985695,7700,WL,A,6.0
3,17.608999967575073,learn,42391.00003242493,Mon Sep 22 2025 16:17:53 GMT-0500 (Central Daylight Time),418176.59999990463,A,mead,O,d,236,1,2534.2000000476837,415642.39999985695,7700,WL,A,6.0
3,17.80900001525879,learn,42190.99998474121,Mon Sep 22 2025 16:17:53 GMT-0500 (Central Daylight Time),418377.09999990463,A,meado,O,o,177,1,2734.7000000476837,415642.39999985695,7700,WL,A,6.0
3,17.95900011062622,learn,42040.99988937378,Mon Sep 22 2025 16:17:53 GMT-0500 (Central Daylight Time),418526.39999985695,A,meadow,O,w,137,1,2884.0,415642.39999985695,7700,WL,A,6.0
3,18.358999967575073,learn,41641.00003242493,Mon Sep 22 2025 16:17:53 GMT-0500 (Central Daylight Time),418926.7000000477,A,meadowenter,O,enter,389,1,3284.300000190735,415642.39999985695,7700,WL,A,6.0
3,18.992000102996826,learn,41007.999897003174,Mon Sep 22 2025 16:17:53 GMT-0500 (Central Daylight Time),419559.59999990463,A,b,O,b,623,1,632.5999999046326,418927.0,7700,WL,A,7.0
3,19.192000150680542,learn,40807.99984931946,Mon Sep 22 2025 16:17:53 GMT-0500 (Central Daylight Time),419759.7999999523,A,bu,O,u,180,1,832.7999999523163,418927.0,7700,WL,A,7.0
3,19.390000104904175,learn,40609.999895095825,Mon Sep 22 2025 16:17:53 GMT-0500 (Central Daylight Time),419958.2999999523,A,but,O,t,186,1,1031.2999999523163,418927.0,7700,WL,A,7.0
3,19.575000047683716,learn,40424.999952316284,Mon Sep 22 2025 16:17:53 GMT-0500 (Central Daylight Time),420143.2999999523,A,butt,O,t,166,1,1216.2999999523163,418927.0,7700,WL,A,7.0
3,19.77500009536743,learn,40224.99990463257,Mon Sep 22 2025 16:17:53 GMT-0500 (Central Daylight Time),420343.2000000477,A,butto,O,o,188,1,1416.2000000476837,418927.0,7700,WL,A,7.0
3,19.924999952316284,learn,40075.000047683716,Mon Sep 22 2025 16:17:53 GMT-0500 (Central Daylight Time),420492.7000000477,A,button,O,n,140,1,1565.7000000476837,418927.0,7700,WL,A,7.0
3,20.308000087738037,learn,39691.99991226196,Mon Sep 22 2025 16:17:53 GMT-0500 (Central Daylight Time),420876.09999990463,A,buttonenter,O,enter,368,1,1949.0999999046326,418927.0,7700,WL,A,7.0
3,20.741000175476074,learn,39258.999824523926,Mon Sep 22 2025 16:17:53 GMT-0500 (Central Daylight Time),421308.5,A,s,O,s,424,1,432.2000000476837,420876.2999999523,7700,WL,A,8.0
3,20.94099998474121,learn,39059.00001525879,Mon Sep 22 2025 16:17:53 GMT-0500 (Central Daylight Time),421508.89999985695,A,sa,O,a,184,1,632.5999999046326,420876.2999999523,7700,WL,A,8.0
3,21.092000007629395,learn,38907.999992370605,Mon Sep 22 2025 16:17:53 GMT-0500 (Central Daylight Time),421659.7000000477,A,sal,O,l,144,1,783.4000000953674,420876.2999999523,7700,WL,A,8.0
3,21.475000143051147,learn,38524.99985694885,Mon Sep 22 2025 16:17:53 GMT-0500 (Central Daylight Time),422042.39999985695,A,salt,O,t,368,1,1166.0999999046326,420876.2999999523,7700,WL,A,8.0
3,21.841000080108643,learn,38158.99991989136,Mon Sep 22 2025 16:17:53 GMT-0500 (Central Daylight Time),422409.2999999523,A,saltenter,O,enter,354,1,1533.0,420876.2999999523,7700,WL,A,8.0
3,22.19099998474121,learn,37809.00001525879,Mon Sep 22 2025 16:17:53 GMT-0500 (Central Daylight Time),422758.39999985695,A,f,O,f,331,1,348.89999985694885,422409.5,7700,WL,A,9.0
3,22.27500009536743,learn,37724.99990463257,Mon Sep 22 2025 16:17:53 GMT-0500 (Central Daylight Time),422842.7000000477,A,fi,O,i,79,1,433.2000000476837,422409.5,7700,WL,A,9.0
3,22.44000005722046,learn,37559.99994277954,Mon Sep 22 2025 16:17:53 GMT-0500 (Central Daylight Time),423008.09999990463,A,fin,O,n,151,1,598.5999999046326,422409.5,7700,WL,A,9.0
3,22.79100012779236,learn,37208.99987220764,Mon Sep 22 2025 16:17:53 GMT-0500 (Central Daylight Time),423358.59999990463,A,fing,O,g,338,1,949.0999999046326,422409.5,7700,WL,A,9.0
3,23.008000135421753,learn,36991.99986457825,Mon Sep 22 2025 16:17:53 GMT-0500 (Central Daylight Time),423576.2999999523,A,finge,O,e,197,1,1166.7999999523163,422409.5,7700,WL,A,9.0
3,23.140000104904175,learn,36859.999895095825,Mon Sep 22 2025 16:17:53 GMT-0500 (Central Daylight Time),423708.2000000477,A,finger,O,r,124,1,1298.7000000476837,422409.5,7700,WL,A,9.0
3,24.27300000190735,learn,35726.99999809265,Mon Sep 22 2025 16:17:53 GMT-0500 (Central Daylight Time),424841.0,A,fingerenter,O,enter,1120,1,2431.5,422409.5,7700,WL,A,9.0
3,24.889000177383423,learn,35110.99982261658,Mon Sep 22 2025 16:17:53 GMT-0500 (Central Daylight Time),425457.0,A,a,O,a,603,1,615.7000000476837,424841.2999999523,7700,WL,A,10.0
3,25.072999954223633,learn,34927.00004577637,Mon Sep 22 2025 16:17:53 GMT-0500 (Central Daylight Time),425640.89999985695,A,ap,O,p,172,1,799.5999999046326,424841.2999999523,7700,WL,A,10.0
3,25.272000074386597,learn,34727.9999256134,Mon Sep 22 2025 16:17:53 GMT-0500 (Central Daylight Time),425840.2999999523,A,app,O,p,188,1,999.0,424841.2999999523,7700,WL,A,10.0
3,25.505000114440918,learn,34494.99988555908,Mon Sep 22 2025 16:17:53 GMT-0500 (Central Daylight Time),426072.89999985695,A,appl,O,l,228,1,1231.5999999046326,424841.2999999523,7700,WL,A,10.0
3,25.689000129699707,learn,34310.99987030029,Mon Sep 22 2025 16:17:53 GMT-0500 (Central Daylight Time),426256.7999999523,A,apple,O,e,164,1,1415.5,424841.2999999523,7700,WL,A,10.0
3,26.02400016784668,learn,33975.99983215332,Mon Sep 22 2025 16:17:53 GMT-0500 (Central Daylight Time),426591.89999985695,A,appleenter,O,enter,316,1,1750.5999999046326,424841.2999999523,7700,WL,A,10.0
3,26.92300009727478,learn,33076.99990272522,Mon Sep 22 2025 16:17:53 GMT-0500 (Central Daylight Time),427491.0,A,g,O,g,887,1,898.9000000953674,426592.09999990463,7700,WL,A,11.0
3,27.022000074386597,learn,32977.9999256134,Mon Sep 22 2025 16:17:53 GMT-0500 (Central Daylight Time),427590.0,A,go,O,o,82,1,997.9000000953674,426592.09999990463,7700,WL,A,11.0
3,27.240000009536743,learn,32759.999990463257,Mon Sep 22 2025 16:17:53 GMT-0500 (Central Daylight Time),427807.7999999523,A,gol,O,l,199,1,1215.7000000476837,426592.09999990463,7700,WL,A,11.0
3,27.355000019073486,learn,32644.999980926514,Mon Sep 22 2025 16:17:53 GMT-0500 (Central Daylight Time),427923.0,A,gold,O,d,110,1,1330.9000000953674,426592.09999990463,7700,WL,A,11.0
3,27.640000104904175,learn,32359.999895095825,Mon Sep 22 2025 16:17:53 GMT-0500 (Central Daylight Time),428207.59999990463,A,goldenter,O,enter,274,1,1615.5,426592.09999990463,7700,WL,A,11.0
3,28.27300000190735,learn,31726.99999809265,Mon Sep 22 2025 16:17:53 GMT-0500 (Central Daylight Time),428840.59999990463,A,c,O,c,623,1,632.8999998569489,428207.7000000477,7700,WL,A,12.0
3,28.374000072479248,learn,31625.999927520752,Mon Sep 22 2025 16:17:53 GMT-0500 (Central Daylight Time),428941.5,A,ch,O,h,96,1,733.7999999523163,428207.7000000477,7700,WL,A,12.0
3,28.606000185012817,learn,31393.999814987183,Mon Sep 22 2025 16:17:53 GMT-0500 (Central Daylight Time),429173.7000000477,A,chi,O,i,209,1,966.0,428207.7000000477,7700,WL,A,12.0
3,28.82200002670288,learn,31177.99997329712,Mon Sep 22 2025 16:17:53 GMT-0500 (Central Daylight Time),429390.0,A,chim,O,m,196,1,1182.2999999523163,428207.7000000477,7700,WL,A,12.0
3,29.205000162124634,learn,30794.999837875366,Mon Sep 22 2025 16:17:53 GMT-0500 (Central Daylight Time),429773.2999999523,A,chimn,O,n,375,1,1565.5999999046326,428207.7000000477,7700,WL,A,12.0
3,29.539999961853027,learn,30460.000038146973,Mon Sep 22 2025 16:17:53 GMT-0500 (Central Daylight Time),430107.7999999523,A,chimne,O,e,315,1,1900.0999999046326,428207.7000000477,7700,WL,A,12.0
3,29.639000177383423,learn,30360.999822616577,Mon Sep 22 2025 16:17:53 GMT-0500 (Central Daylight Time),430206.39999985695,A,chimney,O,y,88,1,1998.6999998092651,428207.7000000477,7700,WL,A,12.0
3,29.937000036239624,learn,30062.999963760376,Mon Sep 22 2025 16:17:53 GMT-0500 (Central Daylight Time),430505.2000000477,A,chimneyenter,O,enter,283,1,2297.5,428207.7000000477,7700,WL,A,12.0
3,34.15400004386902,learn,25845.99995613098,Mon Sep 22 2025 16:17:53 GMT-0500 (Central Daylight Time),434722.09999990463,A,k,O,k,4196,1,4216.700000047684,430505.39999985695,7700,WL,A,13.0
3,34.32000017166138,learn,25679.999828338623,Mon Sep 22 2025 16:17:53 GMT-0500 (Central Daylight Time),434887.7999999523,A,ke,O,e,153,1,4382.400000095367,430505.39999985695,7700,WL,A,13.0
3,34.437999963760376,learn,25562.000036239624,Mon Sep 22 2025 16:17:53 GMT-0500 (Central Daylight Time),435005.2999999523,A,key,O,y,101,1,4499.900000095367,430505.39999985695,7700,WL,A,13.0
3,36.354000091552734,learn,23645.999908447266,Mon Sep 22 2025 16:17:53 GMT-0500 (Central Daylight Time),436921.7000000477,A,keyenter,O,enter,1902,1,6416.300000190735,430505.39999985695,7700,WL,A,13.0
3,36.91900014877319,learn,23080.999851226807,Mon Sep 22 2025 16:17:53 GMT-0500 (Central Daylight Time),437487.09999990463,A,r,O,r,555,1,565.2000000476837,436921.89999985695,7700,WL,A,14.0
3,37.085999965667725,learn,22914.000034332275,Mon Sep 22 2025 16:17:53 GMT-0500 (Central Daylight Time),437653.7999999523,A,ra,O,a,155,1,731.9000000953674,436921.89999985695,7700,WL,A,14.0
3,37.503000020980835,learn,22496.999979019165,Mon Sep 22 2025 16:17:53 GMT-0500 (Central Daylight Time),438070.89999985695,A,rat,O,t,397,1,1149.0,436921.89999985695,7700,WL,A,14.0
3,37.670000076293945,learn,22329.999923706055,Mon Sep 22 2025 16:17:53 GMT-0500 (Central Daylight Time),438238.0,A,ratt,O,t,149,1,1316.1000001430511,436921.89999985695,7700,WL,A,14.0
3,37.78700017929077,learn,22212.99982070923,Mon Sep 22 2025 16:17:53 GMT-0500 (Central Daylight Time),438354.7000000477,A,rattl,O,l,111,1,1432.8000001907349,436921.89999985695,7700,WL,A,14.0
3,37.93500018119812,learn,22064.99981880188,Mon Sep 22 2025 16:17:53 GMT-0500 (Central Daylight Time),438502.89999985695,A,rattle,O,e,136,1,1581.0,436921.89999985695,7700,WL,A,14.0
3,39.41700005531311,learn,20582.99994468689,Mon Sep 22 2025 16:17:53 GMT-0500 (Central Daylight Time),439984.89999985695,A,rattleenter,O,enter,1469,1,3063.0,436921.89999985695,7700,WL,A,14.0
3,42.61800003051758,learn,17381.999969482422,Mon Sep 22 2025 16:17:53 GMT-0500 (Central Daylight Time),443185.59999990463,A,g,O,g,3187,1,3200.399999856949,439985.2000000477,7700,WL,A,15.0
3,42.66600012779236,learn,17333.99987220764,Mon Sep 22 2025 16:17:53 GMT-0500 (Central Daylight Time),443233.7000000477,A,go,O,o,26,1,3248.5,439985.2000000477,7700,WL,A,15.0
3,43.01800012588501,learn,16981.99987411499,Mon Sep 22 2025 16:17:53 GMT-0500 (Central Daylight Time),443586.2000000477,A,gol,O,l,340,1,3601.0,439985.2000000477,7700,WL,A,15.0
3,43.26699995994568,learn,16733.00004005432,Mon Sep 22 2025 16:17:53 GMT-0500 (Central Daylight Time),443834.5,A,gold,O,d,243,1,3849.2999999523163,439985.2000000477,7700,WL,A,15.0
3,43.58400011062622,learn,16415.99988937378,Mon Sep 22 2025 16:17:53 GMT-0500 (Central Daylight Time),444151.7000000477,A,goldenter,O,enter,306,1,4166.5,439985.2000000477,7700,WL,A,15.0
4,1.2170000076293945,learn,58782.999992370605,Mon Sep 22 2025 16:17:53 GMT-0500 (Central Daylight Time),515013.2000000477,A,b,O,b,1199,1,1216.9000000953674,513796.2999999523,7700,WL,A,1.0
4,1.5349998474121094,learn,58465.00015258789,Mon Sep 22 2025 16:17:53 GMT-0500 (Central Daylight Time),515330.59999990463,A,bo,O,o,310,1,1534.2999999523163,513796.2999999523,7700,WL,A,1.0
4,1.7170000076293945,learn,58282.999992370605,Mon Sep 22 2025 16:17:53 GMT-0500 (Central Daylight Time),515513.09999990463,A,boo,O,o,167,1,1716.7999999523163,513796.2999999523,7700,WL,A,1.0
4,1.9509999752044678,learn,58049.00002479553,Mon Sep 22 2025 16:17:53 GMT-0500 (Central Daylight Time),515746.89999985695,A,book,O,k,212,1,1950.5999999046326,513796.2999999523,7700,WL,A,1.0
4,2.75,learn,57250.0,Mon Sep 22 2025 16:17:53 GMT-0500 (Central Daylight Time),516545.89999985695,A,bookenter,O,enter,784,1,2749.5999999046326,513796.2999999523,7700,WL,A,1.0
4,3.632999897003174,learn,56367.000102996826,Mon Sep 22 2025 16:17:53 GMT-0500 (Central Daylight Time),517429.39999985695,A,f,O,f,878,1,883.1999998092651,516546.2000000477,7700,WL,A,2.0
4,3.748999834060669,learn,56251.00016593933,Mon Sep 22 2025 16:17:53 GMT-0500 (Central Daylight Time),517545.09999990463,A,fl,O,l,93,1,998.8999998569489,516546.2000000477,7700,WL,A,2.0
4,3.9659998416900635,learn,56034.00015830994,Mon Sep 22 2025 16:17:53 GMT-0500 (Central Daylight Time),517761.59999990463,A,flo,O,o,209,1,1215.3999998569489,516546.2000000477,7700,WL,A,2.0
4,4.098999977111816,learn,55901.00002288818,Mon Sep 22 2025 16:17:53 GMT-0500 (Central Daylight Time),517894.7999999523,A,flow,O,w,123,1,1348.5999999046326,516546.2000000477,7700,WL,A,2.0
4,4.365999937057495,learn,55634.000062942505,Mon Sep 22 2025 16:17:53 GMT-0500 (Central Daylight Time),518161.89999985695,A,flowe,O,e,253,1,1615.6999998092651,516546.2000000477,7700,WL,A,2.0
4,4.548999786376953,learn,55451.00021362305,Mon Sep 22 2025 16:17:53 GMT-0500 (Central Daylight Time),518344.7999999523,A,flower,O,r,161,1,1798.5999999046326,516546.2000000477,7700,WL,A,2.0
4,5.23199987411499,learn,54768.00012588501,Mon Sep 22 2025 16:17:53 GMT-0500 (Central Daylight Time),519027.89999985695,A,flowerenter,O,enter,674,1,2481.699999809265,516546.2000000477,7700,WL,A,2.0
4,7.679999828338623,learn,52320.00017166138,Mon Sep 22 2025 16:17:53 GMT-0500 (Central Daylight Time),521476.39999985695,A,t,O,t,2440,1,2448.199999809265,519028.2000000477,7700,WL,A,3.0
4,7.896999835968018,learn,52103.00016403198,Mon Sep 22 2025 16:17:53 GMT-0500 (Central Daylight Time),521693.5,A,tr,O,r,205,1,2665.2999999523163,519028.2000000477,7700,WL,A,3.0
4,8.115000009536743,learn,51884.99999046326,Mon Sep 22 2025 16:17:53 GMT-0500 (Central Daylight Time),521910.89999985695,A,tra,O,a,198,1,2882.699999809265,519028.2000000477,7700,WL,A,3.0
4,8.330999851226807,learn,51669.00014877319,Mon Sep 22 2025 16:17:53 GMT-0500 (Central Daylight Time),522127.09999990463,A,trai,O,i,205,1,3098.899999856949,519028.2000000477,7700,WL,A,3.0
4,8.480999946594238,learn,51519.00005340576,Mon Sep 22 2025 16:17:53 GMT-0500 (Central Daylight Time),522277.39999985695,A,train,O,n,145,1,3249.199999809265,519028.2000000477,7700,WL,A,3.0
4,9.29699993133545,learn,50703.00006866455,Mon Sep 22 2025 16:17:53 GMT-0500 (Central Daylight Time),523092.7999999523,A,trainenter,O,enter,805,1,4064.5999999046326,519028.2000000477,7700,WL,A,3.0
4,10.563999891281128,learn,49436.00010871887,Mon Sep 22 2025 16:17:53 GMT-0500 (Central Daylight Time),524360.2999999523,A,r,O,r,1247,1,1267.2000000476837,523093.09999990463,7700,WL,A,4.0
4,10.645999908447266,learn,49354.000091552734,Mon Sep 22 2025 16:17:53 GMT-0500 (Central Daylight Time),524442.0,A,ru,O,u,75,1,1348.9000000953674,523093.09999990463,7700,WL,A,4.0
4,10.896999835968018,learn,49103.00016403198,Mon Sep 22 2025 16:17:53 GMT-0500 (Central Daylight Time),524692.7000000477,A,rug,O,g,241,1,1599.6000001430511,523093.09999990463,7700,WL,A,4.0
4,12.495999813079834,learn,47504.000186920166,Mon Sep 22 2025 16:17:53 GMT-0500 (Central Daylight Time),526291.899999857,A,rugenter,O,enter,1589,1,3198.7999999523163,523093.09999990463,7700,WL,A,4.0
4,21.394999980926514,learn,38605.000019073486,Mon Sep 22 2025 16:17:53 GMT-0500 (Central Daylight Time),535190.899999857,A,m,O,m,8882,1,8898.799999952316,526292.0999999046,7700,WL,A,5.0
4,21.592999935150146,learn,38407.00006484985,Mon Sep 22 2025 16:17:53 GMT-0500 (Central Daylight Time),535389.0999999046,A,me,O,e,189,1,9097.0,526292.0999999046,7700,WL,A,5.0
4,21.825999975204468,learn,38174.00002479553,Mon Sep 22 2025 16:17:53 GMT-0500 (Central Daylight Time),535622.0999999046,A,mea,O,a,213,1,9330.0,526292.0999999046,7700,WL,A,5.0
4,22.110999822616577,learn,37889.00017738342,Mon Sep 22 2025 16:17:53 GMT-0500 (Central Daylight Time),535907.0999999046,A,mead,O,d,278,1,9615.0,526292.0999999046,7700,WL,A,5.0
4,22.293999910354614,learn,37706.000089645386,Mon Sep 22 2025 16:17:53 GMT-0500 (Central Daylight Time),536090.7000000477,A,meado,O,o,177,1,9798.600000143051,526292.0999999046,7700,WL,A,5.0
4,22.425999879837036,learn,37574.000120162964,Mon Sep 22 2025 16:17:53 GMT-0500 (Central Daylight Time),536222.7999999523,A,meadow,O,w,113,1,9930.700000047684,526292.0999999046,7700,WL,A,5.0
4,22.757999897003174,learn,37242.000102996826,Mon Sep 22 2025 16:17:53 GMT-0500 (Central Daylight Time),536554.2999999523,A,meadowenter,O,enter,324,1,10262.200000047684,526292.0999999046,7700,WL,A,5.0
4,24.674999952316284,learn,35325.000047683716,Mon Sep 22 2025 16:17:53 GMT-0500 (Central Daylight Time),538471.0,A,h,O,h,1906,1,1916.5,536554.5,7700,WL,A,6.0
4,24.774999856948853,learn,35225.00014305115,Mon Sep 22 2025 16:17:53 GMT-0500 (Central Daylight Time),538571.5999999046,A,ha,O,a,93,1,2017.0999999046326,536554.5,7700,WL,A,6.0
4,24.97599983215332,learn,35024.00016784668,Mon Sep 22 2025 16:17:53 GMT-0500 (Central Daylight Time),538772.5,A,har,O,r,192,1,2218.0,536554.5,7700,WL,A,6.0
4,25.241999864578247,learn,34758.00013542175,Mon Sep 22 2025 16:17:53 GMT-0500 (Central Daylight Time),539038.399999857,A,harp,O,p,246,1,2483.899999856949,536554.5,7700,WL,A,6.0
4,25.959999799728394,learn,34040.00020027161,Mon Sep 22 2025 16:17:53 GMT-0500 (Central Daylight Time),539756.5999999046,A,harpenter,O,enter,701,1,3202.0999999046326,536554.5,7700,WL,A,6.0
4,26.842000007629395,learn,33157.999992370605,Mon Sep 22 2025 16:17:53 GMT-0500 (Central Daylight Time),540638.2000000477,A,c,O,c,872,1,881.4000000953674,539756.7999999523,7700,WL,A,7.0
4,26.941999912261963,learn,33058.00008773804,Mon Sep 22 2025 16:17:53 GMT-0500 (Central Daylight Time),540737.899999857,A,ch,O,h,84,1,981.0999999046326,539756.7999999523,7700,WL,A,7.0
4,27.174999952316284,learn,32825.000047683716,Mon Sep 22 2025 16:17:53 GMT-0500 (Central Daylight Time),540971.2999999523,A,chi,O,i,226,1,1214.5,539756.7999999523,7700,WL,A,7.0
4,27.393999814987183,learn,32606.000185012817,Mon Sep 22 2025 16:17:53 GMT-0500 (Central Daylight Time),541190.399999857,A,chim,O,m,214,1,1433.5999999046326,539756.7999999523,7700,WL,A,7.0
4,27.924999952316284,learn,32075.000047683716,Mon Sep 22 2025 16:17:53 GMT-0500 (Central Daylight Time),541721.2000000477,A,chimn,O,n,518,1,1964.4000000953674,539756.7999999523,7700,WL,A,7.0
4,28.256999969482422,learn,31743.000030517578,Mon Sep 22 2025 16:17:53 GMT-0500 (Central Daylight Time),542053.5,A,chimne,O,e,324,1,2296.7000000476837,539756.7999999523,7700,WL,A,7.0
4,28.407999992370605,learn,31592.000007629395,Mon Sep 22 2025 16:17:53 GMT-0500 (Central Daylight Time),542204.0,A,chimney,O,y,141,1,2447.2000000476837,539756.7999999523,7700,WL,A,7.0
4,29.090999841690063,learn,30909.000158309937,Mon Sep 22 2025 16:17:53 GMT-0500 (Central Daylight Time),542887.0999999046,A,chimneyenter,O,enter,665,1,3130.2999999523163,539756.7999999523,7700,WL,A,7.0
4,30.575999975204468,learn,29424.000024795532,Mon Sep 22 2025 16:17:53 GMT-0500 (Central Daylight Time),544372.399999857,A,b,O,b,1468,1,1485.0999999046326,542887.2999999523,7700,WL,A,8.0
4,30.80900001525879,learn,29190.99998474121,Mon Sep 22 2025 16:17:53 GMT-0500 (Central Daylight Time),544605.2999999523,A,bu,O,u,229,1,1718.0,542887.2999999523,7700,WL,A,8.0
4,31.0239999294281,learn,28976.0000705719,Mon Sep 22 2025 16:17:53 GMT-0500 (Central Daylight Time),544820.7000000477,A,but,O,t,201,1,1933.4000000953674,542887.2999999523,7700,WL,A,8.0
4,31.19099998474121,learn,28809.00001525879,Mon Sep 22 2025 16:17:53 GMT-0500 (Central Daylight Time),544986.899999857,A,butt,O,t,150,1,2099.5999999046326,542887.2999999523,7700,WL,A,8.0
4,31.389999866485596,learn,28610.000133514404,Mon Sep 22 2025 16:17:53 GMT-0500 (Central Daylight Time),545186.5999999046,A,butto,O,o,187,1,2299.2999999523163,542887.2999999523,7700,WL,A,8.0
4,31.490000009536743,learn,28509.999990463257,Mon Sep 22 2025 16:17:53 GMT-0500 (Central Daylight Time),545285.7000000477,A,button,O,n,90,1,2398.4000000953674,542887.2999999523,7700,WL,A,8.0
4,31.957000017166138,learn,28042.999982833862,Mon Sep 22 2025 16:17:53 GMT-0500 (Central Daylight Time),545753.399999857,A,buttonenter,O,enter,446,1,2866.0999999046326,542887.2999999523,7700,WL,A,8.0
4,32.44199991226196,learn,27558.000087738037,Mon Sep 22 2025 16:17:53 GMT-0500 (Central Daylight Time),546237.7999999523,A,f,O,f,467,1,484.09999990463257,545753.7000000477,7700,WL,A,9.0
4,32.740999937057495,learn,27259.000062942505,Mon Sep 22 2025 16:17:53 GMT-0500 (Central Daylight Time),546537.2999999523,A,fi,O,i,286,1,783.5999999046326,545753.7000000477,7700,WL,A,9.0
4,32.90599989891052,learn,27094.000101089478,Mon Sep 22 2025 16:17:53 GMT-0500 (Central Daylight Time),546702.0999999046,A,fin,O,n,154,1,948.3999998569489,545753.7000000477,7700,WL,A,9.0
4,33.12299990653992,learn,26877.000093460083,Mon Sep 22 2025 16:17:53 GMT-0500 (Central Daylight Time),546919.5,A,fing,O,g,204,1,1165.7999999523163,545753.7000000477,7700,WL,A,9.0
4,33.35699987411499,learn,26643.00012588501,Mon Sep 22 2025 16:17:53 GMT-0500 (Central Daylight Time),547153.0,A,finge,O,e,219,1,1399.2999999523163,545753.7000000477,7700,WL,A,9.0
4,33.48899984359741,learn,26511.000156402588,Mon Sep 22 2025 16:17:53 GMT-0500 (Central Daylight Time),547285.2999999523,A,finger,O,r,122,1,1531.5999999046326,545753.7000000477,7700,WL,A,9.0
4,33.906999826431274,learn,26093.000173568726,Mon Sep 22 2025 16:17:53 GMT-0500 (Central Daylight Time),547702.7999999523,A,fingerenter,O,enter,404,1,1949.0999999046326,545753.7000000477,7700,WL,A,9.0
4,34.27199983596802,learn,25728.000164031982,Mon Sep 22 2025 16:17:53 GMT-0500 (Central Daylight Time),548068.5999999046,A,a,O,a,349,1,365.59999990463257,547703.0,7700,WL,A,10.0
4,34.5239999294281,learn,25476.0000705719,Mon Sep 22 2025 16:17:53 GMT-0500 (Central Daylight Time),548319.899999857,A,ap,O,p,230,1,616.8999998569489,547703.0,7700,WL,A,10.0
4,34.72199988365173,learn,25278.000116348267,Mon Sep 22 2025 16:17:53 GMT-0500 (Central Daylight Time),548518.5,A,app,O,p,188,1,815.5,547703.0,7700,WL,A,10.0
4,35.05799984931946,learn,24942.000150680542,Mon Sep 22 2025 16:17:53 GMT-0500 (Central Daylight Time),548853.899999857,A,appl,O,l,310,1,1150.8999998569489,547703.0,7700,WL,A,10.0
4,35.222999811172485,learn,24777.000188827515,Mon Sep 22 2025 16:17:53 GMT-0500 (Central Daylight Time),549019.2999999523,A,apple,O,e,160,1,1316.2999999523163,547703.0,7700,WL,A,10.0
4,36.0719997882843,learn,23928.0002117157,Mon Sep 22 2025 16:17:53 GMT-0500 (Central Daylight Time),549868.0999999046,A,appleenter,O,enter,842,1,2165.0999999046326,547703.0,7700,WL,A,10.0
4,36.870999813079834,learn,23129.000186920166,Mon Sep 22 2025 16:17:53 GMT-0500 (Central Daylight Time),550667.7000000477,A,l,O,l,784,1,799.3000001907349,549868.399999857,7700,WL,A,11.0
4,37.15499997138977,learn,22845.00002861023,Mon Sep 22 2025 16:17:53 GMT-0500 (Central Daylight Time),550951.0,A,lo,O,o,271,1,1082.6000001430511,549868.399999857,7700,WL,A,11.0
4,37.389999866485596,learn,22610.000133514404,Mon Sep 22 2025 16:17:53 GMT-0500 (Central Daylight Time),551185.7999999523,A,log,O,g,214,1,1317.4000000953674,549868.399999857,7700,WL,A,11.0
4,38.287999868392944,learn,21712.000131607056,Mon Sep 22 2025 16:17:53 GMT-0500 (Central Daylight Time),552084.0999999046,A,logenter,O,enter,890,1,2215.7000000476837,549868.399999857,7700,WL,A,11.0
4,38.88800001144409,learn,21111.99998855591,Mon Sep 22 2025 16:17:53 GMT-0500 (Central Daylight Time),552683.7000000477,A,r,O,r,595,1,599.4000000953674,552084.2999999523,7700,WL,A,12.0
4,39.08899998664856,learn,20911.00001335144,Mon Sep 22 2025 16:17:53 GMT-0500 (Central Daylight Time),552884.7999999523,A,ra,O,a,194,1,800.5,552084.2999999523,7700,WL,A,12.0
4,39.33799982070923,learn,20662.00017929077,Mon Sep 22 2025 16:17:53 GMT-0500 (Central Daylight Time),553134.899999857,A,rat,O,t,231,1,1050.5999999046326,552084.2999999523,7700,WL,A,12.0
4,39.48799991607666,learn,20512.00008392334,Mon Sep 22 2025 16:17:53 GMT-0500 (Central Daylight Time),553284.5,A,ratt,O,t,143,1,1200.2000000476837,552084.2999999523,7700,WL,A,12.0
4,39.704999923706055,learn,20295.000076293945,Mon Sep 22 2025 16:17:53 GMT-0500 (Central Daylight Time),553501.2000000477,A,rattl,O,l,210,1,1416.9000000953674,552084.2999999523,7700,WL,A,12.0
4,39.80499982833862,learn,20195.000171661377,Mon Sep 22 2025 16:17:53 GMT-0500 (Central Daylight Time),553601.399999857,A,rattle,O,e,85,1,1517.0999999046326,552084.2999999523,7700,WL,A,12.0
4,41.36999988555908,learn,18630.000114440918,Mon Sep 22 2025 16:17:53 GMT-0500 (Central Daylight Time),555166.399999857,A,rattleenter,O,enter,1547,1,3082.0999999046326,552084.2999999523,7700,WL,A,12.0
4,42.15399980545044,learn,17846.00019454956,Mon Sep 22 2025 16:17:53 GMT-0500 (Central Daylight Time),555950.2999999523,A,k,O,k,767,1,783.5999999046326,555166.7000000477,7700,WL,A,13.0
4,42.36999988555908,learn,17630.000114440918,Mon Sep 22 2025 16:17:53 GMT-0500 (Central Daylight Time),556165.7999999523,A,ke,O,e,206,1,999.0999999046326,555166.7000000477,7700,WL,A,13.0
4,42.569000005722046,learn,17430.999994277954,Mon Sep 22 2025 16:17:53 GMT-0500 (Central Daylight Time),556365.7000000477,A,key,O,y,179,1,1199.0,555166.7000000477,7700,WL,A,13.0
4,42.98699998855591,learn,17013.00001144409,Mon Sep 22 2025 16:17:53 GMT-0500 (Central Daylight Time),556783.399999857,A,keyenter,O,enter,406,1,1616.6999998092651,555166.7000000477,7700,WL,A,13.0
4,43.55399990081787,learn,16446.00009918213,Mon Sep 22 2025 16:17:53 GMT-0500 (Central Daylight Time),557349.899999857,A,g,O,g,557,1,566.1999998092651,556783.7000000477,7700,WL,A,14.0
4,43.71999979019165,learn,16280.00020980835,Mon Sep 22 2025 16:17:53 GMT-0500 (Central Daylight Time),557515.7000000477,A,go,O,o,151,1,732.0,556783.7000000477,7700,WL,A,14.0
4,43.936999797821045,learn,16063.000202178955,Mon Sep 22 2025 16:17:53 GMT-0500 (Central Daylight Time),557733.0999999046,A,gol,O,l,202,1,949.3999998569489,556783.7000000477,7700,WL,A,14.0
4,44.13599991798401,learn,15864.000082015991,Mon Sep 22 2025 16:17:53 GMT-0500 (Central Daylight Time),557932.0,A,gold,O,d,182,1,1148.2999999523163,556783.7000000477,7700,WL,A,14.0
4,45.168999910354614,learn,14831.000089645386,Mon Sep 22 2025 16:17:53 GMT-0500 (Central Daylight Time),558964.899999857,A,goldenter,O,enter,1015,1,2181.199999809265,556783.7000000477,7700,WL,A,14.0
4,59.71299982070923,learn,287.0001792907715,Mon Sep 22 2025 16:17:53 GMT-0500 (Central Daylight Time),573509.5999999046,A,enter,O,enter,14535,1,14544.399999856949,558965.2000000477,7700,WL,A,15.0
5,1.1659998893737793,learn,60000.0,Mon Sep 22 2025 16:17:53 GMT-0500 (Central Daylight Time),643871.7999999523,A,b,O,b,1146,1,1165.7000000476837,642706.0999999046,7700,WL,A,1.0
5,1.8329999446868896,learn,60000.0,Mon Sep 22 2025 16:17:53 GMT-0500 (Central Daylight Time),644538.2000000477,A,bo,O,o,643,1,1832.1000001430511,642706.0999999046,7700,WL,A,1.0
5,1.997999906539917,learn,60000.0,Mon Sep 22 2025 16:17:53 GMT-0500 (Central Daylight Time),644703.7999999523,A,boo,O,o,150,1,1997.7000000476837,642706.0999999046,7700,WL,A,1.0
5,2.381999969482422,learn,60000.0,Mon Sep 22 2025 16:17:53 GMT-0500 (Central Daylight Time),645087.399999857,A,book,O,k,366,1,2381.2999999523163,642706.0999999046,7700,WL,A,1.0
5,3.065000057220459,learn,60000.0,Mon Sep 22 2025 16:17:53 GMT-0500 (Central Daylight Time),645770.2999999523,A,bookenter,O,enter,675,1,3064.2000000476837,642706.0999999046,7700,WL,A,1.0
5,4.148000001907349,learn,60000.0,Mon Sep 22 2025 16:17:53 GMT-0500 (Central Daylight Time),646853.899999857,A,f,O,f,1074,1,1083.2999999523163,645770.5999999046,7700,WL,A,2.0
5,4.264999866485596,learn,60000.0,Mon Sep 22 2025 16:17:53 GMT-0500 (Central Daylight Time),646970.5,A,fl,O,l,110,1,1199.9000000953674,645770.5999999046,7700,WL,A,2.0
5,4.5329999923706055,learn,60000.0,Mon Sep 22 2025 16:17:53 GMT-0500 (Central Daylight Time),647238.5,A,flo,O,o,250,1,1467.9000000953674,645770.5999999046,7700,WL,A,2.0
5,4.680999994277954,learn,60000.0,Mon Sep 22 2025 16:17:53 GMT-0500 (Central Daylight Time),647387.0,A,flow,O,w,134,1,1616.4000000953674,645770.5999999046,7700,WL,A,2.0
5,4.980999946594238,learn,60000.0,Mon Sep 22 2025 16:17:53 GMT-0500 (Central Daylight Time),647686.0999999046,A,flowe,O,e,288,1,1915.5,645770.5999999046,7700,WL,A,2.0
5,5.164999961853027,learn,60000.0,Mon Sep 22 2025 16:17:53 GMT-0500 (Central Daylight Time),647870.399999857,A,flower,O,r,165,1,2099.7999999523163,645770.5999999046,7700,WL,A,2.0
5,5.829999923706055,learn,60000.0,Mon Sep 22 2025 16:17:53 GMT-0500 (Central Daylight Time),648536.0,A,flowerenter,O,enter,651,1,2765.4000000953674,645770.5999999046,7700,WL,A,2.0
5,8.496999979019165,learn,60000.0,Mon Sep 22 2025 16:17:53 GMT-0500 (Central Daylight Time),651202.899999857,A,t,O,t,2654,1,2666.699999809265,648536.2000000477,7700,WL,A,3.0
5,8.766000032424927,learn,60000.0,Mon Sep 22 2025 16:17:53 GMT-0500 (Central Daylight Time),651471.5999999046,A,tr,O,r,258,1,2935.399999856949,648536.2000000477,7700,WL,A,3.0
5,8.96399998664856,learn,60000.0,Mon Sep 22 2025 16:17:53 GMT-0500 (Central Daylight Time),651669.399999857,A,tra,O,a,189,1,3133.199999809265,648536.2000000477,7700,WL,A,3.0
5,9.180000066757202,learn,60000.0,Mon Sep 22 2025 16:17:53 GMT-0500 (Central Daylight Time),651885.5999999046,A,trai,O,i,204,1,3349.399999856949,648536.2000000477,7700,WL,A,3.0
5,9.361999988555908,learn,60000.0,Mon Sep 22 2025 16:17:53 GMT-0500 (Central Daylight Time),652067.7999999523,A,train,O,n,174,1,3531.5999999046326,648536.2000000477,7700,WL,A,3.0
5,10.111999988555908,learn,60000.0,Mon Sep 22 2025 16:17:53 GMT-0500 (Central Daylight Time),652817.2999999523,A,trainenter,O,enter,734,1,4281.099999904633,648536.2000000477,7700,WL,A,3.0
5,10.71399998664856,learn,60000.0,Mon Sep 22 2025 16:17:53 GMT-0500 (Central Daylight Time),653420.0,A,r,O,r,598,1,602.4000000953674,652817.5999999046,7700,WL,A,4.0
5,10.895999908447266,learn,60000.0,Mon Sep 22 2025 16:17:53 GMT-0500 (Central Daylight Time),653601.399999857,A,ru,O,u,169,1,783.7999999523163,652817.5999999046,7700,WL,A,4.0
5,11.128999948501587,learn,60000.0,Mon Sep 22 2025 16:17:53 GMT-0500 (Central Daylight Time),653834.399999857,A,rug,O,g,218,1,1016.7999999523163,652817.5999999046,7700,WL,A,4.0
5,11.711999893188477,learn,60000.0,Mon Sep 22 2025 16:17:53 GMT-0500 (Central Daylight Time),654417.7000000477,A,rugenter,O,enter,569,1,1600.1000001430511,652817.5999999046,7700,WL,A,4.0
5,12.897000074386597,learn,60000.0,Mon Sep 22 2025 16:17:53 GMT-0500 (Central Daylight Time),655602.2999999523,A,m,O,m,1164,1,1184.2999999523163,654418.0,7700,WL,A,5.0
5,13.060999870300293,learn,60000.0,Mon Sep 22 2025 16:17:53 GMT-0500 (Central Daylight Time),655767.0999999046,A,me,O,e,146,1,1349.0999999046326,654418.0,7700,WL,A,5.0
5,13.662999868392944,learn,60000.0,Mon Sep 22 2025 16:17:53 GMT-0500 (Central Daylight Time),656369.0,A,med,O,d,590,1,1951.0,654418.0,7700,WL,A,5.0
5,14.178999900817871,learn,60000.0,Mon Sep 22 2025 16:17:53 GMT-0500 (Central Daylight Time),656884.7000000477,A,me,O,backspace,500,1,2466.7000000476837,654418.0,7700,WL,A,5.0
5,14.328999996185303,learn,60000.0,Mon Sep 22 2025 16:17:53 GMT-0500 (Central Daylight Time),657034.399999857,A,mea,O,a,144,1,2616.399999856949,654418.0,7700,WL,A,5.0
5,14.680999994277954,learn,60000.0,Mon Sep 22 2025 16:17:53 GMT-0500 (Central Daylight Time),657386.899999857,A,mead,O,d,329,1,2968.899999856949,654418.0,7700,WL,A,5.0
5,14.961999893188477,learn,60000.0,Mon Sep 22 2025 16:17:53 GMT-0500 (Central Daylight Time),657667.399999857,A,meado,O,o,274,1,3249.399999856949,654418.0,7700,WL,A,5.0
5,15.111000061035156,learn,60000.0,Mon Sep 22 2025 16:17:53 GMT-0500 (Central Daylight Time),657817.0999999046,A,meadow,O,w,133,1,3399.0999999046326,654418.0,7700,WL,A,5.0
5,16.795000076293945,learn,60000.0,Mon Sep 22 2025 16:17:53 GMT-0500 (Central Daylight Time),659500.2000000477,A,meadowenter,O,enter,1665,1,5082.200000047684,654418.0,7700,WL,A,5.0
5,18.427000045776367,learn,60000.0,Mon Sep 22 2025 16:17:53 GMT-0500 (Central Daylight Time),661132.5999999046,A,h,O,h,1627,1,1632.2000000476837,659500.399999857,7700,WL,A,6.0
5,18.66000008583069,learn,60000.0,Mon Sep 22 2025 16:17:53 GMT-0500 (Central Daylight Time),661365.5999999046,A,ha,O,a,216,1,1865.2000000476837,659500.399999857,7700,WL,A,6.0
5,18.861000061035156,learn,60000.0,Mon Sep 22 2025 16:17:53 GMT-0500 (Central Daylight Time),661566.399999857,A,har,O,r,180,1,2066.0,659500.399999857,7700,WL,A,6.0
5,19.157999992370605,learn,60000.0,Mon Sep 22 2025 16:17:53 GMT-0500 (Central Daylight Time),661864.0999999046,A,harp,O,p,284,1,2363.7000000476837,659500.399999857,7700,WL,A,6.0
5,19.74399995803833,learn,60000.0,Mon Sep 22 2025 16:17:53 GMT-0500 (Central Daylight Time),662449.7000000477,A,harpenter,O,enter,577,1,2949.300000190735,659500.399999857,7700,WL,A,6.0
5,20.292999982833862,learn,60000.0,Mon Sep 22 2025 16:17:53 GMT-0500 (Central Daylight Time),662998.5999999046,A,c,O,c,531,1,548.7000000476837,662449.899999857,7700,WL,A,7.0
5,20.39400005340576,learn,60000.0,Mon Sep 22 2025 16:17:53 GMT-0500 (Central Daylight Time),663099.899999857,A,ch,O,h,95,1,650.0,662449.899999857,7700,WL,A,7.0
5,20.609999895095825,learn,60000.0,Mon Sep 22 2025 16:17:53 GMT-0500 (Central Daylight Time),663315.2999999523,A,chi,O,i,198,1,865.4000000953674,662449.899999857,7700,WL,A,7.0
5,20.776000022888184,learn,60000.0,Mon Sep 22 2025 16:17:53 GMT-0500 (Central Daylight Time),663482.0,A,chim,O,m,153,1,1032.1000001430511,662449.899999857,7700,WL,A,7.0
5,21.127000093460083,learn,60000.0,Mon Sep 22 2025 16:17:53 GMT-0500 (Central Daylight Time),663833.0,A,chimn,O,n,329,1,1383.1000001430511,662449.899999857,7700,WL,A,7.0
5,21.526999950408936,learn,60000.0,Mon Sep 22 2025 16:17:53 GMT-0500 (Central Daylight Time),664232.7999999523,A,chimne,O,e,379,1,1782.9000000953674,662449.899999857,7700,WL,A,7.0
5,21.658999919891357,learn,60000.0,Mon Sep 22 2025 16:17:53 GMT-0500 (Central Daylight Time),664364.5999999046,A,chimney,O,y,113,1,1914.7000000476837,662449.899999857,7700,WL,A,7.0
5,22.026999950408936,learn,60000.0,Mon Sep 22 2025 16:17:53 GMT-0500 (Central Daylight Time),664732.5,A,chimneyenter,O,enter,351,1,2282.600000143051,662449.899999857,7700,WL,A,7.0
5,22.97699999809265,learn,60000.0,Mon Sep 22 2025 16:17:53 GMT-0500 (Central Daylight Time),665682.0999999046,A,b,O,b,929,1,949.2999999523163,664732.7999999523,7700,WL,A,8.0
5,23.174999952316284,learn,60000.0,Mon Sep 22 2025 16:17:53 GMT-0500 (Central Daylight Time),665880.899999857,A,bu,O,u,185,1,1148.0999999046326,664732.7999999523,7700,WL,A,8.0
5,23.47499990463257,learn,60000.0,Mon Sep 22 2025 16:17:53 GMT-0500 (Central Daylight Time),666180.7999999523,A,but,O,t,291,1,1448.0,664732.7999999523,7700,WL,A,8.0
5,23.66000008583069,learn,60000.0,Mon Sep 22 2025 16:17:53 GMT-0500 (Central Daylight Time),666365.5999999046,A,butt,O,t,179,1,1632.7999999523163,664732.7999999523,7700,WL,A,8.0
5,23.924999952316284,learn,60000.0,Mon Sep 22 2025 16:17:53 GMT-0500 (Central Daylight Time),666630.899999857,A,butto,O,o,253,1,1898.0999999046326,664732.7999999523,7700,WL,A,8.0
5,24.05900001525879,learn,60000.0,Mon Sep 22 2025 16:17:53 GMT-0500 (Central Daylight Time),666764.7000000477,A,button,O,n,110,1,2031.9000000953674,664732.7999999523,7700,WL,A,8.0
5,24.424999952316284,learn,60000.0,Mon Sep 22 2025 16:17:53 GMT-0500 (Central Daylight Time),667131.0999999046,A,buttonenter,O,enter,360,1,2398.2999999523163,664732.7999999523,7700,WL,A,8.0
5,24.993000030517578,learn,60000.0,Mon Sep 22 2025 16:17:53 GMT-0500 (Central Daylight Time),667698.399999857,A,f,O,f,554,1,567.0,667131.399999857,7700,WL,A,9.0
5,25.108999967575073,learn,60000.0,Mon Sep 22 2025 16:17:53 GMT-0500 (Central Daylight Time),667814.5999999046,A,fi,O,i,99,1,683.2000000476837,667131.399999857,7700,WL,A,9.0
5,25.257999897003174,learn,60000.0,Mon Sep 22 2025 16:17:53 GMT-0500 (Central Daylight Time),667963.899999857,A,fin,O,n,131,1,832.5,667131.399999857,7700,WL,A,9.0
5,25.60800004005432,learn,60000.0,Mon Sep 22 2025 16:17:53 GMT-0500 (Central Daylight Time),668314.0,A,fing,O,g,335,1,1182.6000001430511,667131.399999857,7700,WL,A,9.0
5,25.80900001525879,learn,60000.0,Mon Sep 22 2025 16:17:53 GMT-0500 (Central Daylight Time),668514.2000000477,A,finge,O,e,178,1,1382.8000001907349,667131.399999857,7700,WL,A,9.0
5,25.95799994468689,learn,60000.0,Mon Sep 22 2025 16:17:53 GMT-0500 (Central Daylight Time),668663.7999999523,A,finger,O,r,128,1,1532.4000000953674,667131.399999857,7700,WL,A,9.0
5,26.375,learn,60000.0,Mon Sep 22 2025 16:17:53 GMT-0500 (Central Daylight Time),669080.2000000477,A,fingerenter,O,enter,397,1,1948.8000001907349,667131.399999857,7700,WL,A,9.0
5,26.95799994468689,learn,60000.0,Mon Sep 22 2025 16:17:53 GMT-0500 (Central Daylight Time),669663.7999999523,A,s,O,s,572,1,583.4000000953674,669080.399999857,7700,WL,A,10.0
5,27.157999992370605,learn,60000.0,Mon Sep 22 2025 16:17:53 GMT-0500 (Central Daylight Time),669863.5,A,sa,O,a,179,1,783.1000001430511,669080.399999857,7700,WL,A,10.0
5,27.374000072479248,learn,60000.0,Mon Sep 22 2025 16:17:53 GMT-0500 (Central Daylight Time),670080.0,A,sal,O,l,204,1,999.6000001430511,669080.399999857,7700,WL,A,10.0
5,27.740999937057495,learn,60000.0,Mon Sep 22 2025 16:17:53 GMT-0500 (Central Daylight Time),670446.2000000477,A,salt,O,t,361,1,1365.8000001907349,669080.399999857,7700,WL,A,10.0
5,28.407999992370605,learn,60000.0,Mon Sep 22 2025 16:17:53 GMT-0500 (Central Daylight Time),671113.7000000477,A,saltenter,O,enter,663,1,2033.3000001907349,669080.399999857,7700,WL,A,10.0
5,28.7739999294281,learn,60000.0,Mon Sep 22 2025 16:17:53 GMT-0500 (Central Daylight Time),671479.399999857,A,a,O,a,354,1,365.2999999523163,671114.0999999046,7700,WL,A,11.0
5,29.02500009536743,learn,60000.0,Mon Sep 22 2025 16:17:53 GMT-0500 (Central Daylight Time),671730.7000000477,A,ap,O,p,244,1,616.6000001430511,671114.0999999046,7700,WL,A,11.0
5,29.22499990463257,learn,60000.0,Mon Sep 22 2025 16:17:53 GMT-0500 (Central Daylight Time),671930.7000000477,A,app,O,p,194,1,816.6000001430511,671114.0999999046,7700,WL,A,11.0
5,29.60699987411499,learn,60000.0,Mon Sep 22 2025 16:17:53 GMT-0500 (Central Daylight Time),672312.5,A,appl,O,l,370,1,1198.4000000953674,671114.0999999046,7700,WL,A,11.0
5,29.94099998474121,learn,60000.0,Mon Sep 22 2025 16:17:53 GMT-0500 (Central Daylight Time),672646.0999999046,A,apple,O,e,317,1,1532.0,671114.0999999046,7700,WL,A,11.0
5,30.90499997138977,learn,60000.0,Mon Sep 22 2025 16:17:53 GMT-0500 (Central Daylight Time),673610.899999857,A,appleenter,O,enter,959,1,2496.7999999523163,671114.0999999046,7700,WL,A,11.0
5,36.305999994277954,learn,60000.0,Mon Sep 22 2025 16:17:53 GMT-0500 (Central Daylight Time),679011.5,A,l,O,l,5395,1,5400.299999952316,673611.2000000477,7700,WL,A,12.0
5,36.55399990081787,learn,60000.0,Mon Sep 22 2025 16:17:53 GMT-0500 (Central Daylight Time),679259.899999857,A,lo,O,o,241,1,5648.699999809265,673611.2000000477,7700,WL,A,12.0
5,36.69000005722046,learn,60000.0,Mon Sep 22 2025 16:17:53 GMT-0500 (Central Daylight Time),679395.2000000477,A,log,O,g,130,1,5784.0,673611.2000000477,7700,WL,A,12.0
5,38.020999908447266,learn,60000.0,Mon Sep 22 2025 16:17:53 GMT-0500 (Central Daylight Time),680726.5999999046,A,logenter,O,enter,1311,1,7115.399999856949,673611.2000000477,7700,WL,A,12.0
5,38.38700008392334,learn,60000.0,Mon Sep 22 2025 16:17:53 GMT-0500 (Central Daylight Time),681093.0,A,k,O,k,351,1,366.10000014305115,680726.899999857,7700,WL,A,13.0
5,38.5220000743866,learn,60000.0,Mon Sep 22 2025 16:17:53 GMT-0500 (Central Daylight Time),681227.2000000477,A,ke,O,e,129,1,500.30000019073486,680726.899999857,7700,WL,A,13.0
5,38.670000076293945,learn,60000.0,Mon Sep 22 2025 16:17:53 GMT-0500 (Central Daylight Time),681375.7000000477,A,key,O,y,134,1,648.8000001907349,680726.899999857,7700,WL,A,13.0
5,38.9539999961853,learn,60000.0,Mon Sep 22 2025 16:17:53 GMT-0500 (Central Daylight Time),681659.5999999046,A,keyenter,O,enter,278,1,932.7000000476837,680726.899999857,7700,WL,A,13.0
5,42.01900005340576,learn,60000.0,Mon Sep 22 2025 16:17:53 GMT-0500 (Central Daylight Time),684724.7999999523,A,r,O,r,3049,1,3064.9000000953674,681659.899999857,7700,WL,A,14.0
5,42.21900010108948,learn,60000.0,Mon Sep 22 2025 16:17:53 GMT-0500 (Central Daylight Time),684925.0999999046,A,ra,O,a,184,1,3265.2000000476837,681659.899999857,7700,WL,A,14.0
5,42.46900010108948,learn,60000.0,Mon Sep 22 2025 16:17:53 GMT-0500 (Central Daylight Time),685174.5999999046,A,rat,O,t,231,1,3514.7000000476837,681659.899999857,7700,WL,A,14.0
5,42.63599991798401,learn,60000.0,Mon Sep 22 2025 16:17:53 GMT-0500 (Central Daylight Time),685342.0999999046,A,ratt,O,t,149,1,3682.2000000476837,681659.899999857,7700,WL,A,14.0
5,42.806999921798706,learn,60000.0,Mon Sep 22 2025 16:17:53 GMT-0500 (Central Daylight Time),685512.5999999046,A,rattl,O,l,150,1,3852.7000000476837,681659.899999857,7700,WL,A,14.0
5,42.94000005722046,learn,60000.0,Mon Sep 22 2025 16:17:53 GMT-0500 (Central Daylight Time),685645.899999857,A,rattle,O,e,130,1,3986.0,681659.899999857,7700,WL,A,14.0
5,43.25399994850159,learn,60000.0,Mon Sep 22 2025 16:17:53 GMT-0500 (Central Daylight Time),685959.899999857,A,rattleenter,O,enter,304,1,4300.0,681659.899999857,7700,WL,A,14.0
5,46.835999965667725,learn,60000.0,Mon Sep 22 2025 16:17:53 GMT-0500 (Central Daylight Time),689541.399999857,A,g,O,g,3576,1,3581.2999999523163,685960.0999999046,7700,WL,A,15.0
5,46.98399996757507,learn,60000.0,Mon Sep 22 2025 16:17:53 GMT-0500 (Central Daylight Time),689689.899999857,A,go,O,o,142,1,3729.7999999523163,685960.0999999046,7700,WL,A,15.0
5,47.83399987220764,learn,60000.0,Mon Sep 22 2025 16:17:53 GMT-0500 (Central Daylight Time),690539.899999857,A,gol,O,l,833,1,4579.799999952316,685960.0999999046,7700,WL,A,15.0
5,48.01799988746643,learn,60000.0,Mon Sep 22 2025 16:17:53 GMT-0500 (Central Daylight Time),690723.2999999523,A,gold,O,d,168,1,4763.200000047684,685960.0999999046,7700,WL,A,15.0
5,48.234999895095825,learn,60000.0,Mon Sep 22 2025 16:17:53 GMT-0500 (Central Daylight Time),690940.5999999046,A,goldenter,O,enter,201,1,4980.5,685960.0999999046,7700,WL,A,15.0
6,1.1500000953674316,distr,58849.99990463257,Mon Sep 22 2025 16:17:53 GMT-0500 (Central Daylight Time),780195.899999857,B,b,O,b,1147,1,1150.0999999046326,779045.7999999523,7700,WL,A,1.0
6,1.315000057220459,distr,58684.99994277954,Mon Sep 22 2025 16:17:53 GMT-0500 (Central Daylight Time),780361.5,B,bo,O,o,144,1,1315.7000000476837,779045.7999999523,7700,WL,A,1.0
6,1.499000072479248,distr,58500.99992752075,Mon Sep 22 2025 16:17:53 GMT-0500 (Central Daylight Time),780544.7000000477,B,bow,O,w,176,1,1498.9000000953674,779045.7999999523,7700,WL,A,1.0
6,1.7990000247955322,distr,58200.99997520447,Mon Sep 22 2025 16:17:53 GMT-0500 (Central Daylight Time),780844.7000000477,B,bowl,O,l,284,1,1798.9000000953674,779045.7999999523,7700,WL,A,1.0
6,2.6470000743865967,distr,57352.9999256134,Mon Sep 22 2025 16:17:53 GMT-0500 (Central Daylight Time),781692.899999857,B,bowlenter,O,enter,838,1,2647.0999999046326,779045.7999999523,7700,WL,A,1.0
6,6.664999961853027,distr,53335.00003814697,Mon Sep 22 2025 16:17:53 GMT-0500 (Central Daylight Time),785710.5,B,d,O,d,4000,1,4017.4000000953674,781693.0999999046,7700,WL,A,2.0
6,6.896000146865845,distr,53103.999853134155,Mon Sep 22 2025 16:17:53 GMT-0500 (Central Daylight Time),785941.7999999523,B,da,O,a,221,1,4248.700000047684,781693.0999999046,7700,WL,A,2.0
6,7.180000066757202,distr,52819.9999332428,Mon Sep 22 2025 16:17:53 GMT-0500 (Central Daylight Time),786226.2999999523,B,daw,O,w,269,1,4533.200000047684,781693.0999999046,7700,WL,A,2.0
6,7.514000177383423,distr,52485.99982261658,Mon Sep 22 2025 16:17:53 GMT-0500 (Central Daylight Time),786559.5,B,dawn,O,n,321,1,4866.400000095367,781693.0999999046,7700,WL,A,2.0
6,8.180000066757202,distr,51819.9999332428,Mon Sep 22 2025 16:17:53 GMT-0500 (Central Daylight Time),787226.2000000477,B,dawnenter,O,enter,662,1,5533.100000143051,781693.0999999046,7700,WL,A,2.0
6,9.347000122070312,distr,50652.99987792969,Mon Sep 22 2025 16:17:53 GMT-0500 (Central Daylight Time),788393.5,B,p,O,p,1146,1,1167.0,787226.5,7700,WL,A,3.0
6,9.879000186920166,distr,50120.999813079834,Mon Sep 22 2025 16:17:53 GMT-0500 (Central Daylight Time),788925.2000000477,B,pl,O,l,515,1,1698.7000000476837,787226.5,7700,WL,A,3.0
6,10.078999996185303,distr,49921.0000038147,Mon Sep 22 2025 16:17:53 GMT-0500 (Central Daylight Time),789124.5999999046,B,pla,O,a,193,1,1898.0999999046326,787226.5,7700,WL,A,3.0
6,10.296000003814697,distr,49703.9999961853,Mon Sep 22 2025 16:17:53 GMT-0500 (Central Daylight Time),789342.0,B,plan,O,n,199,1,2115.5,787226.5,7700,WL,A,3.0
6,10.495000123977661,distr,49504.99987602234,Mon Sep 22 2025 16:17:53 GMT-0500 (Central Daylight Time),789541.2999999523,B,plane,O,e,189,1,2314.7999999523163,787226.5,7700,WL,A,3.0
6,11.578999996185303,distr,48421.0000038147,Mon Sep 22 2025 16:17:53 GMT-0500 (Central Daylight Time),790624.5999999046,B,planeenter,O,enter,1061,1,3398.0999999046326,787226.5,7700,WL,A,3.0
6,12.144999980926514,distr,47855.000019073486,Mon Sep 22 2025 16:17:53 GMT-0500 (Central Daylight Time),791191.2999999523,B,s,O,s,556,1,566.5,790624.7999999523,7700,WL,A,4.0
6,12.328999996185303,distr,47671.0000038147,Mon Sep 22 2025 16:17:53 GMT-0500 (Central Daylight Time),791375.5,B,sh,O,h,167,1,750.7000000476837,790624.7999999523,7700,WL,A,4.0
6,12.51200008392334,distr,47487.99991607666,Mon Sep 22 2025 16:17:53 GMT-0500 (Central Daylight Time),791558.0,B,she,O,e,165,1,933.2000000476837,790624.7999999523,7700,WL,A,4.0
6,12.67799997329712,distr,47322.00002670288,Mon Sep 22 2025 16:17:53 GMT-0500 (Central Daylight Time),791724.399999857,B,shee,O,e,161,1,1099.5999999046326,790624.7999999523,7700,WL,A,4.0
6,12.861999988555908,distr,47138.00001144409,Mon Sep 22 2025 16:17:53 GMT-0500 (Central Daylight Time),791908.0,B,sheep,O,p,178,1,1283.2000000476837,790624.7999999523,7700,WL,A,4.0
6,13.595999956130981,distr,46404.00004386902,Mon Sep 22 2025 16:17:53 GMT-0500 (Central Daylight Time),792642.399999857,B,sheepenter,O,enter,728,1,2017.5999999046326,790624.7999999523,7700,WL,A,4.0
6,15.89300012588501,distr,44106.99987411499,Mon Sep 22 2025 16:17:53 GMT-0500 (Central Daylight Time),794939.399999857,B,j,O,j,2282,1,2296.7999999523163,792642.5999999046,7700,WL,A,5.0
6,16.295000076293945,distr,43704.999923706055,Mon Sep 22 2025 16:17:53 GMT-0500 (Central Daylight Time),795340.5999999046,B,ju,O,u,396,1,2698.0,792642.5999999046,7700,WL,A,5.0
6,16.544000148773193,distr,43455.99985122681,Mon Sep 22 2025 16:17:53 GMT-0500 (Central Daylight Time),795590.2999999523,B,jud,O,d,231,1,2947.7000000476837,792642.5999999046,7700,WL,A,5.0
6,16.878000020980835,distr,43121.999979019165,Mon Sep 22 2025 16:17:53 GMT-0500 (Central Daylight Time),795924.0,B,judg,O,g,319,1,3281.4000000953674,792642.5999999046,7700,WL,A,5.0
6,17.094000101089478,distr,42905.99989891052,Mon Sep 22 2025 16:17:53 GMT-0500 (Central Daylight Time),796140.0,B,judge,O,e,200,1,3497.4000000953674,792642.5999999046,7700,WL,A,5.0
6,17.41200017929077,distr,42587.99982070923,Mon Sep 22 2025 16:17:53 GMT-0500 (Central Daylight Time),796458.2000000477,B,judgeenter,O,enter,312,1,3815.600000143051,792642.5999999046,7700,WL,A,5.0
6,21.942000150680542,distr,38057.99984931946,Mon Sep 22 2025 16:17:53 GMT-0500 (Central Daylight Time),800988.2000000477,B,c,O,c,4525,1,4529.800000190735,796458.399999857,7700,WL,A,6.0
6,22.093000173568726,distr,37906.999826431274,Mon Sep 22 2025 16:17:53 GMT-0500 (Central Daylight Time),801139.5,B,co,O,o,146,1,4681.100000143051,796458.399999857,7700,WL,A,6.0
6,22.243000030517578,distr,37756.99996948242,Mon Sep 22 2025 16:17:53 GMT-0500 (Central Daylight Time),801288.7999999523,B,coa,O,a,129,1,4830.400000095367,796458.399999857,7700,WL,A,6.0
6,22.558000087738037,distr,37441.99991226196,Mon Sep 22 2025 16:17:53 GMT-0500 (Central Daylight Time),801604.0,B,coat,O,t,306,1,5145.600000143051,796458.399999857,7700,WL,A,6.0
6,24.02500009536743,distr,35974.99990463257,Mon Sep 22 2025 16:17:53 GMT-0500 (Central Daylight Time),803070.899999857,B,coatenter,O,enter,1455,1,6612.5,796458.399999857,7700,WL,A,6.0
6,27.092000007629395,distr,32907.999992370605,Mon Sep 22 2025 16:17:53 GMT-0500 (Central Daylight Time),806138.2000000477,B,w,O,w,3062,1,3067.0,803071.2000000477,7700,WL,A,7.0
6,27.356000185012817,distr,32643.999814987183,Mon Sep 22 2025 16:17:53 GMT-0500 (Central Daylight Time),806402.0,B,wa,O,a,247,1,3330.7999999523163,803071.2000000477,7700,WL,A,7.0
6,27.59000015258789,distr,32409.99984741211,Mon Sep 22 2025 16:17:53 GMT-0500 (Central Daylight Time),806636.0,B,wat,O,t,220,1,3564.7999999523163,803071.2000000477,7700,WL,A,7.0
6,27.84000015258789,distr,32159.99984741211,Mon Sep 22 2025 16:17:53 GMT-0500 (Central Daylight Time),806886.0,B,wate,O,e,240,1,3814.7999999523163,803071.2000000477,7700,WL,A,7.0
6,28.006999969482422,distr,31993.000030517578,Mon Sep 22 2025 16:17:53 GMT-0500 (Central Daylight Time),807052.7999999523,B,water,O,r,162,1,3981.5999999046326,803071.2000000477,7700,WL,A,7.0
6,29.206000089645386,distr,30793.999910354614,Mon Sep 22 2025 16:17:53 GMT-0500 (Central Daylight Time),808252.2999999523,B,waterenter,O,enter,1184,1,5181.099999904633,803071.2000000477,7700,WL,A,7.0
6,37.152000188827515,distr,22847.999811172485,Mon Sep 22 2025 16:17:53 GMT-0500 (Central Daylight Time),816198.2999999523,B,i,O,i,7937,1,7945.799999952316,808252.5,7700,WL,A,8.0
6,37.30299997329712,distr,22697.00002670288,Mon Sep 22 2025 16:17:53 GMT-0500 (Central Daylight Time),816349.0,B,in,O,n,134,1,8096.5,808252.5,7700,WL,A,8.0
6,37.62100005149841,distr,22378.999948501587,Mon Sep 22 2025 16:17:53 GMT-0500 (Central Daylight Time),816666.7999999523,B,ins,O,s,312,1,8414.299999952316,808252.5,7700,WL,A,8.0
6,37.90400004386902,distr,22095.99995613098,Mon Sep 22 2025 16:17:53 GMT-0500 (Central Daylight Time),816949.899999857,B,inse,O,e,266,1,8697.399999856949,808252.5,7700,WL,A,8.0
6,38.32000017166138,distr,21679.999828338623,Mon Sep 22 2025 16:17:53 GMT-0500 (Central Daylight Time),817366.0999999046,B,insec,O,c,396,1,9113.599999904633,808252.5,7700,WL,A,8.0
6,38.57000017166138,distr,21429.999828338623,Mon Sep 22 2025 16:17:53 GMT-0500 (Central Daylight Time),817616.2999999523,B,insect,O,t,229,1,9363.799999952316,808252.5,7700,WL,A,8.0
6,39.35300016403198,distr,20646.999835968018,Mon Sep 22 2025 16:17:53 GMT-0500 (Central Daylight Time),818399.0999999046,B,insectenter,O,enter,758,1,10146.599999904633,808252.5,7700,WL,A,8.0
6,47.200000047683716,distr,12799.999952316284,Mon Sep 22 2025 16:17:53 GMT-0500 (Central Daylight Time),826246.2000000477,B,enter,O,enter,7829,1,7846.800000190735,818399.399999857,7700,WL,A,9.0
6,47.700000047683716,distr,12299.999952316284,Mon Sep 22 2025 16:17:53 GMT-0500 (Central Daylight Time),826746.0999999046,B,enter,O,enter,487,1,499.59999990463257,826246.5,7700,WL,A,10.0
6,48.13199996948242,distr,11868.000030517578,Mon Sep 22 2025 16:17:53 GMT-0500 (Central Daylight Time),827178.2000000477,B,enter,O,enter,427,1,431.80000019073486,826746.399999857,7700,WL,A,11.0
6,48.56599998474121,distr,11434.000015258789,Mon Sep 22 2025 16:17:53 GMT-0500 (Central Daylight Time),827611.7999999523,B,enter,O,enter,419,1,433.40000009536743,827178.399999857,7700,WL,A,12.0
6,49.48399996757507,distr,10516.000032424927,Mon Sep 22 2025 16:17:53 GMT-0500 (Central Daylight Time),828530.2999999523,B,enter,O,enter,905,1,918.2000000476837,827612.0999999046,7700,WL,A,13.0
6,49.866000175476074,distr,10133.999824523926,Mon Sep 22 2025 16:17:53 GMT-0500 (Central Daylight Time),828912.0,B,enter,O,enter,362,1,381.40000009536743,828530.5999999046,7700,WL,A,14.0
6,50.432000160217285,distr,9567.999839782715,Mon Sep 22 2025 16:17:53 GMT-0500 (Central Daylight Time),829478.0,B,enter,O,enter,556,1,565.7000000476837,828912.2999999523,7700,WL,A,15.0
7,2.997999906539917,immed,57002.00009346008,Mon Sep 22 2025 16:17:53 GMT-0500 (Central Daylight Time),851571.2999999523,A,b,O,b,2982,1,2997.7000000476837,848573.5999999046,7700,WL,A,1.0
7,3.2649998664855957,immed,56735.000133514404,Mon Sep 22 2025 16:17:53 GMT-0500 (Central Daylight Time),851838.2000000477,A,bo,O,o,254,1,3264.600000143051,848573.5999999046,7700,WL,A,1.0
7,3.431999921798706,immed,56568.000078201294,Mon Sep 22 2025 16:17:53 GMT-0500 (Central Daylight Time),852004.7999999523,A,boo,O,o,148,1,3431.2000000476837,848573.5999999046,7700,WL,A,1.0
7,3.615999937057495,immed,56384.000062942505,Mon Sep 22 2025 16:17:53 GMT-0500 (Central Daylight Time),852189.0,A,book,O,k,168,1,3615.4000000953674,848573.5999999046,7700,WL,A,1.0
7,3.998999834060669,immed,56001.00016593933,Mon Sep 22 2025 16:17:53 GMT-0500 (Central Daylight Time),852572.5,A,bookenter,O,enter,364,1,3998.9000000953674,848573.5999999046,7700,WL,A,1.0
7,5.23199987411499,immed,54768.00012588501,Mon Sep 22 2025 16:17:53 GMT-0500 (Central Daylight Time),853805.399999857,A,f,O,f,1217,1,1232.5999999046326,852572.7999999523,7700,WL,A,2.0
7,5.347999811172485,immed,54652.000188827515,Mon Sep 22 2025 16:17:53 GMT-0500 (Central Daylight Time),853921.2999999523,A,fl,O,l,101,1,1348.5,852572.7999999523,7700,WL,A,2.0
7,5.58299994468689,immed,54417.00005531311,Mon Sep 22 2025 16:17:53 GMT-0500 (Central Daylight Time),854155.7000000477,A,flo,O,o,226,1,1582.9000000953674,852572.7999999523,7700,WL,A,2.0
7,5.764999866485596,immed,54235.000133514404,Mon Sep 22 2025 16:17:53 GMT-0500 (Central Daylight Time),854338.5,A,flow,O,w,159,1,1765.7000000476837,852572.7999999523,7700,WL,A,2.0
7,5.979999780654907,immed,54020.00021934509,Mon Sep 22 2025 16:17:53 GMT-0500 (Central Daylight Time),854553.5999999046,A,flowe,O,e,210,1,1980.7999999523163,852572.7999999523,7700,WL,A,2.0
7,6.130999803543091,immed,53869.00019645691,Mon Sep 22 2025 16:17:53 GMT-0500 (Central Daylight Time),854704.2999999523,A,flower,O,r,133,1,2131.5,852572.7999999523,7700,WL,A,2.0
7,6.5299999713897705,immed,53470.00002861023,Mon Sep 22 2025 16:17:53 GMT-0500 (Central Daylight Time),855103.2000000477,A,flowerenter,O,enter,379,1,2530.4000000953674,852572.7999999523,7700,WL,A,2.0
7,6.96399998664856,immed,53036.00001335144,Mon Sep 22 2025 16:17:53 GMT-0500 (Central Daylight Time),855536.899999857,A,t,O,t,413,1,433.39999985694885,855103.5,7700,WL,A,3.0
7,7.179999828338623,immed,52820.00017166138,Mon Sep 22 2025 16:17:53 GMT-0500 (Central Daylight Time),855753.399999857,A,tr,O,r,200,1,649.8999998569489,855103.5,7700,WL,A,3.0
7,7.346999883651733,immed,52653.00011634827,Mon Sep 22 2025 16:17:53 GMT-0500 (Central Daylight Time),855919.899999857,A,tra,O,a,153,1,816.3999998569489,855103.5,7700,WL,A,3.0
7,7.596999883651733,immed,52403.00011634827,Mon Sep 22 2025 16:17:53 GMT-0500 (Central Daylight Time),856170.5999999046,A,trai,O,i,235,1,1067.0999999046326,855103.5,7700,WL,A,3.0
7,7.7809998989105225,immed,52219.00010108948,Mon Sep 22 2025 16:17:53 GMT-0500 (Central Daylight Time),856354.5999999046,A,train,O,n,177,1,1251.0999999046326,855103.5,7700,WL,A,3.0
7,9.94599986076355,immed,50054.00013923645,Mon Sep 22 2025 16:17:53 GMT-0500 (Central Daylight Time),858519.2000000477,A,trainenter,O,enter,2150,1,3415.7000000476837,855103.5,7700,WL,A,3.0
7,10.628999948501587,immed,49371.00005149841,Mon Sep 22 2025 16:17:53 GMT-0500 (Central Daylight Time),859202.399999857,A,r,O,r,677,1,683.0,858519.399999857,7700,WL,A,4.0
7,10.77999997138977,immed,49220.00002861023,Mon Sep 22 2025 16:17:53 GMT-0500 (Central Daylight Time),859353.399999857,A,ru,O,u,138,1,834.0,858519.399999857,7700,WL,A,4.0
7,11.02999997138977,immed,48970.00002861023,Mon Sep 22 2025 16:17:53 GMT-0500 (Central Daylight Time),859603.0999999046,A,rug,O,g,241,1,1083.7000000476837,858519.399999857,7700,WL,A,4.0
7,11.346999883651733,immed,48653.00011634827,Mon Sep 22 2025 16:17:53 GMT-0500 (Central Daylight Time),859919.7999999523,A,rugenter,O,enter,294,1,1400.4000000953674,858519.399999857,7700,WL,A,4.0
7,12.012999773025513,immed,47987.00022697449,Mon Sep 22 2025 16:17:53 GMT-0500 (Central Daylight Time),860586.399999857,A,m,O,m,645,1,666.3999998569489,859920.0,7700,WL,A,5.0
7,12.128999948501587,immed,47871.00005149841,Mon Sep 22 2025 16:17:53 GMT-0500 (Central Daylight Time),860701.899999857,A,me,O,e,96,1,781.8999998569489,859920.0,7700,WL,A,5.0
7,12.711999893188477,immed,47288.00010681152,Mon Sep 22 2025 16:17:53 GMT-0500 (Central Daylight Time),861285.399999857,A,mea,O,a,562,1,1365.3999998569489,859920.0,7700,WL,A,5.0
7,13.01199984550476,immed,46988.00015449524,Mon Sep 22 2025 16:17:53 GMT-0500 (Central Daylight Time),861584.899999857,A,mead,O,d,277,1,1664.8999998569489,859920.0,7700,WL,A,5.0
7,13.162999868392944,immed,46837.000131607056,Mon Sep 22 2025 16:17:53 GMT-0500 (Central Daylight Time),861736.0,A,meado,O,o,128,1,1816.0,859920.0,7700,WL,A,5.0
7,13.260999917984009,immed,46739.00008201599,Mon Sep 22 2025 16:17:53 GMT-0500 (Central Daylight Time),861834.7999999523,A,meadow,O,w,81,1,1914.7999999523163,859920.0,7700,WL,A,5.0
7,13.910999774932861,immed,46089.00022506714,Mon Sep 22 2025 16:17:53 GMT-0500 (Central Daylight Time),862484.5999999046,A,meadowenter,O,enter,630,1,2564.5999999046326,859920.0,7700,WL,A,5.0
7,15.444999933242798,immed,44555.0000667572,Mon Sep 22 2025 16:17:53 GMT-0500 (Central Daylight Time),864018.0999999046,A,h,O,h,1528,1,1533.2000000476837,862484.899999857,7700,WL,A,6.0
7,15.812999963760376,immed,44187.000036239624,Mon Sep 22 2025 16:17:53 GMT-0500 (Central Daylight Time),864386.5,A,ha,O,a,343,1,1901.6000001430511,862484.899999857,7700,WL,A,6.0
7,16.07799983024597,immed,43922.00016975403,Mon Sep 22 2025 16:17:53 GMT-0500 (Central Daylight Time),864651.5999999046,A,har,O,r,242,1,2166.7000000476837,862484.899999857,7700,WL,A,6.0
7,16.293999910354614,immed,43706.000089645386,Mon Sep 22 2025 16:17:53 GMT-0500 (Central Daylight Time),864866.7000000477,A,harp,O,p,198,1,2381.800000190735,862484.899999857,7700,WL,A,6.0
7,17.09499979019165,immed,42905.00020980835,Mon Sep 22 2025 16:17:53 GMT-0500 (Central Daylight Time),865667.899999857,A,harpenter,O,enter,792,1,3183.0,862484.899999857,7700,WL,A,6.0
7,18.89299988746643,immed,41107.00011253357,Mon Sep 22 2025 16:17:53 GMT-0500 (Central Daylight Time),867466.0,A,b,O,b,1792,1,1797.7999999523163,865668.2000000477,7700,WL,A,7.0
7,19.05999994277954,immed,40940.00005722046,Mon Sep 22 2025 16:17:53 GMT-0500 (Central Daylight Time),867633.399999857,A,bu,O,u,158,1,1965.1999998092651,865668.2000000477,7700,WL,A,7.0
7,19.30999994277954,immed,40690.00005722046,Mon Sep 22 2025 16:17:53 GMT-0500 (Central Daylight Time),867883.5999999046,A,but,O,t,235,1,2215.399999856949,865668.2000000477,7700,WL,A,7.0
7,19.509999990463257,immed,40490.00000953674,Mon Sep 22 2025 16:17:53 GMT-0500 (Central Daylight Time),868083.0999999046,A,butt,O,t,180,1,2414.899999856949,865668.2000000477,7700,WL,A,7.0
7,19.675999879837036,immed,40324.000120162964,Mon Sep 22 2025 16:17:53 GMT-0500 (Central Daylight Time),868249.5,A,butto,O,o,153,1,2581.2999999523163,865668.2000000477,7700,WL,A,7.0
7,19.776999950408936,immed,40223.000049591064,Mon Sep 22 2025 16:17:53 GMT-0500 (Central Daylight Time),868350.0999999046,A,button,O,n,79,1,2681.899999856949,865668.2000000477,7700,WL,A,7.0
7,20.05899977684021,immed,39941.00022315979,Mon Sep 22 2025 16:17:53 GMT-0500 (Central Daylight Time),868631.899999857,A,buttonenter,O,enter,268,1,2963.699999809265,865668.2000000477,7700,WL,A,7.0
7,21.55999994277954,immed,38440.00005722046,Mon Sep 22 2025 16:17:53 GMT-0500 (Central Daylight Time),870132.899999857,A,s,O,s,1485,1,1500.1999998092651,868632.7000000477,7700,WL,A,8.0
7,21.72499990463257,immed,38275.00009536743,Mon Sep 22 2025 16:17:53 GMT-0500 (Central Daylight Time),870298.7000000477,A,sa,O,a,158,1,1666.0,868632.7000000477,7700,WL,A,8.0
7,21.90999984741211,immed,38090.00015258789,Mon Sep 22 2025 16:17:53 GMT-0500 (Central Daylight Time),870483.5999999046,A,sal,O,l,179,1,1850.8999998569489,868632.7000000477,7700,WL,A,8.0
7,22.29199981689453,immed,37708.00018310547,Mon Sep 22 2025 16:17:53 GMT-0500 (Central Daylight Time),870865.7000000477,A,salt,O,t,366,1,2233.0,868632.7000000477,7700,WL,A,8.0
7,22.591999769210815,immed,37408.000230789185,Mon Sep 22 2025 16:17:53 GMT-0500 (Central Daylight Time),871165.5,A,saltenter,O,enter,293,1,2532.7999999523163,868632.7000000477,7700,WL,A,8.0
7,23.658999919891357,immed,36341.00008010864,Mon Sep 22 2025 16:17:53 GMT-0500 (Central Daylight Time),872231.7999999523,A,f,O,f,1055,1,1066.0,871165.7999999523,7700,WL,A,9.0
7,23.774999856948853,immed,36225.00014305115,Mon Sep 22 2025 16:17:53 GMT-0500 (Central Daylight Time),872348.399999857,A,fi,O,i,107,1,1182.5999999046326,871165.7999999523,7700,WL,A,9.0
7,23.908999919891357,immed,36091.00008010864,Mon Sep 22 2025 16:17:53 GMT-0500 (Central Daylight Time),872482.0,A,fin,O,n,119,1,1316.2000000476837,871165.7999999523,7700,WL,A,9.0
7,24.157999992370605,immed,35842.000007629395,Mon Sep 22 2025 16:17:53 GMT-0500 (Central Daylight Time),872731.7000000477,A,fing,O,g,232,1,1565.9000000953674,871165.7999999523,7700,WL,A,9.0
7,24.39199995994568,immed,35608.00004005432,Mon Sep 22 2025 16:17:53 GMT-0500 (Central Daylight Time),872964.899999857,A,finge,O,e,224,1,1799.0999999046326,871165.7999999523,7700,WL,A,9.0
7,24.524999856948853,immed,35475.00014305115,Mon Sep 22 2025 16:17:53 GMT-0500 (Central Daylight Time),873097.7999999523,A,finger,O,r,117,1,1932.0,871165.7999999523,7700,WL,A,9.0
7,25.360999822616577,immed,34639.00017738342,Mon Sep 22 2025 16:17:53 GMT-0500 (Central Daylight Time),873934.0,A,fingerenter,O,enter,814,1,2768.2000000476837,871165.7999999523,7700,WL,A,9.0
7,25.823999881744385,immed,34176.000118255615,Mon Sep 22 2025 16:17:53 GMT-0500 (Central Daylight Time),874397.2000000477,A,a,O,a,456,1,463.0,873934.2000000477,7700,WL,A,10.0
7,25.990999937057495,immed,34009.000062942505,Mon Sep 22 2025 16:17:53 GMT-0500 (Central Daylight Time),874563.7000000477,A,ap,O,p,156,1,629.5,873934.2000000477,7700,WL,A,10.0
7,26.20899987220764,immed,33791.00012779236,Mon Sep 22 2025 16:17:53 GMT-0500 (Central Daylight Time),874782.5999999046,A,app,O,p,199,1,848.3999998569489,873934.2000000477,7700,WL,A,10.0
7,26.507999897003174,immed,33492.000102996826,Mon Sep 22 2025 16:17:53 GMT-0500 (Central Daylight Time),875081.2000000477,A,appl,O,l,277,1,1147.0,873934.2000000477,7700,WL,A,10.0
7,26.607999801635742,immed,33392.00019836426,Mon Sep 22 2025 16:17:53 GMT-0500 (Central Daylight Time),875181.5999999046,A,apple,O,e,80,1,1247.3999998569489,873934.2000000477,7700,WL,A,10.0
7,27.056999921798706,immed,32943.000078201294,Mon Sep 22 2025 16:17:53 GMT-0500 (Central Daylight Time),875630.0,A,appleenter,O,enter,431,1,1695.7999999523163,873934.2000000477,7700,WL,A,10.0
7,27.673999786376953,immed,32326.000213623047,Mon Sep 22 2025 16:17:53 GMT-0500 (Central Daylight Time),876246.899999857,A,c,O,c,607,1,616.6999998092651,875630.2000000477,7700,WL,A,11.0
7,27.7739999294281,immed,32226.0000705719,Mon Sep 22 2025 16:17:53 GMT-0500 (Central Daylight Time),876347.0999999046,A,ch,O,h,85,1,716.8999998569489,875630.2000000477,7700,WL,A,11.0
7,27.972999811172485,immed,32027.000188827515,Mon Sep 22 2025 16:17:53 GMT-0500 (Central Daylight Time),876546.5999999046,A,chi,O,i,195,1,916.3999998569489,875630.2000000477,7700,WL,A,11.0
7,28.191999912261963,immed,31808.000087738037,Mon Sep 22 2025 16:17:53 GMT-0500 (Central Daylight Time),876765.7000000477,A,chim,O,m,205,1,1135.5,875630.2000000477,7700,WL,A,11.0
7,28.525999784469604,immed,31474.000215530396,Mon Sep 22 2025 16:17:53 GMT-0500 (Central Daylight Time),877099.2000000477,A,chimn,O,n,312,1,1469.0,875630.2000000477,7700,WL,A,11.0
7,28.842999935150146,immed,31157.000064849854,Mon Sep 22 2025 16:17:53 GMT-0500 (Central Daylight Time),877416.0999999046,A,chimne,O,e,295,1,1785.8999998569489,875630.2000000477,7700,WL,A,11.0
7,28.95699977874756,immed,31043.00022125244,Mon Sep 22 2025 16:17:53 GMT-0500 (Central Daylight Time),877530.5,A,chimney,O,y,102,1,1900.2999999523163,875630.2000000477,7700,WL,A,11.0
7,29.955999851226807,immed,30044.000148773193,Mon Sep 22 2025 16:17:53 GMT-0500 (Central Daylight Time),878529.2000000477,A,chimneyenter,O,enter,985,1,2899.0,875630.2000000477,7700,WL,A,11.0
7,32.739999771118164,immed,27260.000228881836,Mon Sep 22 2025 16:17:53 GMT-0500 (Central Daylight Time),881313.399999857,A,l,O,l,2764,1,2783.899999856949,878529.5,7700,WL,A,12.0
7,32.954999923706055,immed,27045.000076293945,Mon Sep 22 2025 16:17:53 GMT-0500 (Central Daylight Time),881528.2999999523,A,lo,O,o,204,1,2998.7999999523163,878529.5,7700,WL,A,12.0
7,33.138999938964844,immed,26861.000061035156,Mon Sep 22 2025 16:17:53 GMT-0500 (Central Daylight Time),881712.399999857,A,log,O,g,162,1,3182.899999856949,878529.5,7700,WL,A,12.0
7,34.138999938964844,immed,25861.000061035156,Mon Sep 22 2025 16:17:53 GMT-0500 (Central Daylight Time),882711.7999999523,A,logenter,O,enter,982,1,4182.299999952316,878529.5,7700,WL,A,12.0
7,35.037999868392944,immed,24962.000131607056,Mon Sep 22 2025 16:17:53 GMT-0500 (Central Daylight Time),883611.5999999046,A,k,O,k,887,1,899.5,882712.0999999046,7700,WL,A,13.0
7,35.17199993133545,immed,24828.00006866455,Mon Sep 22 2025 16:17:53 GMT-0500 (Central Daylight Time),883745.5,A,ke,O,e,127,1,1033.4000000953674,882712.0999999046,7700,WL,A,13.0
7,35.33899998664856,immed,24661.00001335144,Mon Sep 22 2025 16:17:53 GMT-0500 (Central Daylight Time),883912.5,A,key,O,y,143,1,1200.4000000953674,882712.0999999046,7700,WL,A,13.0
7,35.73799991607666,immed,24262.00008392334,Mon Sep 22 2025 16:17:53 GMT-0500 (Central Daylight Time),884311.7000000477,A,keyenter,O,enter,387,1,1599.6000001430511,882712.0999999046,7700,WL,A,13.0
7,36.270999908447266,immed,23729.000091552734,Mon Sep 22 2025 16:17:53 GMT-0500 (Central Daylight Time),884844.5999999046,A,r,O,r,518,1,532.5999999046326,884312.0,7700,WL,A,14.0
7,36.42199993133545,immed,23578.00006866455,Mon Sep 22 2025 16:17:53 GMT-0500 (Central Daylight Time),884995.0,A,ra,O,a,133,1,683.0,884312.0,7700,WL,A,14.0
7,36.65499997138977,immed,23345.00002861023,Mon Sep 22 2025 16:17:53 GMT-0500 (Central Daylight Time),885227.7999999523,A,rat,O,t,211,1,915.7999999523163,884312.0,7700,WL,A,14.0
