Number,acc_sum,block,block_c,block_cond,con_img,correct,correct_response,datetime,endtime,jitter,project,response,response_time,row_sel,session_number,start_end,starttime,subject_id,task,task_vers,trial
4,1,prac,1,A,circle.png,1,z,Wed May 21 2025 11:26:53 GMT-0500 (Central Daylight Time),51449.299999952316,1400,I,z,573,4,3,2760.600000023842,48688.699999928474,8005,NTS,C,1
8,2,prac,1,A,circle.png,1,m,Wed May 21 2025 11:26:53 GMT-0500 (Central Daylight Time),54231.39999997616,1600,I,m,391,7,3,2775.0,51456.39999997616,8005,NTS,C,2
2,3,prac,1,A,circle.png,1,z,Wed May 21 2025 11:26:53 GMT-0500 (Central Daylight Time),57513.60000002384,2000,I,z,496,2,3,3276.8000000715256,54236.799999952316,8005,NTS,C,3
6,4,prac,1,A,circle.png,1,m,Wed May 21 2025 11:26:53 GMT-0500 (Central Daylight Time),60796.299999952316,1900,I,m,594,5,3,3277.1999999284744,57519.10000002384,8005,NTS,C,4
7,5,prac,1,A,circle.png,1,m,Wed May 21 2025 11:26:53 GMT-0500 (Central Daylight Time),63761.60000002384,1700,I,m,480,6,3,2959.600000023842,60802.0,8005,NTS,C,5
8,6,prac,1,A,circle.png,1,m,Wed May 21 2025 11:26:53 GMT-0500 (Central Daylight Time),66660.89999997616,1600,I,m,490,7,3,2894.2000000476837,63766.699999928474,8005,NTS,C,6
7,7,prac,1,A,circle.png,1,m,Wed May 21 2025 11:26:53 GMT-0500 (Central Daylight Time),69660.0,1700,I,m,503,6,3,2993.8000000715256,66666.19999992847,8005,NTS,C,7
1,8,prac,1,A,circle.png,1,z,Wed May 21 2025 11:26:53 GMT-0500 (Central Daylight Time),72009.19999992847,1000,I,z,564,1,3,2344.0,69665.19999992847,8005,NTS,C,8
3,9,prac,1,A,circle.png,1,z,Wed May 21 2025 11:26:53 GMT-0500 (Central Daylight Time),74591.5,1200,I,z,591,3,3,2576.899999976158,72014.60000002384,8005,NTS,C,9
2,10,prac,1,A,circle.png,1,z,Wed May 21 2025 11:26:53 GMT-0500 (Central Daylight Time),77774.0,2000,I,z,393,2,3,3177.2000000476837,74596.79999995232,8005,NTS,C,10
6,11,prac,1,A,circle.png,1,m,Wed May 21 2025 11:26:53 GMT-0500 (Central Daylight Time),81006.60000002384,1900,I,m,542,5,3,3227.2000000476837,77779.39999997616,8005,NTS,C,11
9,12,prac,1,A,circle.png,1,m,Wed May 21 2025 11:26:53 GMT-0500 (Central Daylight Time),83922.0,1500,I,m,622,8,3,2910.399999976158,81011.60000002384,8005,NTS,C,12
2,1,prac,1,B,triangle.png,1,m,Wed May 21 2025 11:26:53 GMT-0500 (Central Daylight Time),107548.0,1700,I,m,653,2,3,3144.600000023842,104403.39999997616,8005,NTS,C,1
1,2,prac,1,B,triangle.png,1,z,Wed May 21 2025 11:26:53 GMT-0500 (Central Daylight Time),110647.19999992847,1900,I,z,408,1,3,3093.6999999284744,107553.5,8005,NTS,C,2
3,3,prac,1,B,triangle.png,1,z,Wed May 21 2025 11:26:53 GMT-0500 (Central Daylight Time),113779.5,1600,I,z,642,3,3,3126.8000000715256,110652.69999992847,8005,NTS,C,3
4,4,prac,1,B,triangle.png,1,m,Wed May 21 2025 11:26:53 GMT-0500 (Central Daylight Time),116595.19999992847,1500,I,m,521,4,3,2810.6999999284744,113784.5,8005,NTS,C,4
3,5,prac,1,B,triangle.png,1,z,Wed May 21 2025 11:26:53 GMT-0500 (Central Daylight Time),119477.60000002384,1600,I,z,493,3,3,2877.2000000476837,116600.39999997616,8005,NTS,C,5
1,6,prac,1,B,triangle.png,1,z,Wed May 21 2025 11:26:53 GMT-0500 (Central Daylight Time),122660.19999992847,1900,I,z,495,1,3,3176.899999976158,119483.29999995232,8005,NTS,C,6
7,6,prac,1,B,triangle.png,0,z,Wed May 21 2025 11:26:53 GMT-0500 (Central Daylight Time),125975.89999997616,2000,I,m,524,6,3,3310.7999999523163,122665.10000002384,8005,NTS,C,7
8,7,prac,1,B,triangle.png,1,m,Wed May 21 2025 11:26:53 GMT-0500 (Central Daylight Time),128574.89999997616,1200,I,m,600,7,3,2594.2000000476837,125980.69999992847,8005,NTS,C,8
7,7,prac,1,B,triangle.png,0,z,Wed May 21 2025 11:26:53 GMT-0500 (Central Daylight Time),131857.10000002384,2000,I,m,489,6,3,3277.4000000953674,128579.69999992847,8005,NTS,C,9
4,8,prac,1,B,triangle.png,1,m,Wed May 21 2025 11:26:53 GMT-0500 (Central Daylight Time),134906.10000002384,1500,I,m,764,4,3,3044.0,131862.10000002384,8005,NTS,C,10
6,9,prac,1,B,triangle.png,1,m,Wed May 21 2025 11:26:53 GMT-0500 (Central Daylight Time),137272.10000002384,1000,I,m,577,5,3,2361.3000000715256,134910.79999995232,8005,NTS,C,11
9,10,prac,1,B,triangle.png,1,z,Wed May 21 2025 11:26:53 GMT-0500 (Central Daylight Time),140154.60000002384,1400,I,z,688,8,3,2877.8000000715256,137276.79999995232,8005,NTS,C,12
1,1,test,1,A,circle.png,1,z,Wed May 21 2025 11:26:53 GMT-0500 (Central Daylight Time),154350.5,1000,I,z,636,1,3,1661.8999999761581,152688.60000002384,8005,NTS,C,1
9,2,test,1,A,circle.png,1,m,Wed May 21 2025 11:26:53 GMT-0500 (Central Daylight Time),156366.19999992847,1500,I,m,494,8,3,2011.5999999046326,154354.60000002384,8005,NTS,C,2
1,3,test,1,A,circle.png,1,z,Wed May 21 2025 11:26:53 GMT-0500 (Central Daylight Time),157882.60000002384,1000,I,z,490,1,3,1513.0,156369.60000002384,8005,NTS,C,3
1,4,test,1,A,circle.png,1,z,Wed May 21 2025 11:26:53 GMT-0500 (Central Daylight Time),159315.29999995232,1000,I,z,405,1,3,1429.1999999284744,157886.10000002384,8005,NTS,C,4
8,5,test,1,A,circle.png,1,m,Wed May 21 2025 11:26:53 GMT-0500 (Central Daylight Time),161497.69999992847,1600,I,m,550,7,3,2178.6999999284744,159319.0,8005,NTS,C,5
2,6,test,1,A,circle.png,1,z,Wed May 21 2025 11:26:53 GMT-0500 (Central Daylight Time),163980.39999997616,2000,I,z,454,2,3,2479.399999976158,161501.0,8005,NTS,C,6
8,7,test,1,A,circle.png,1,m,Wed May 21 2025 11:26:53 GMT-0500 (Central Daylight Time),166012.89999997616,1600,I,m,412,7,3,2029.1000000238419,163983.79999995232,8005,NTS,C,7
2,8,test,1,A,circle.png,1,z,Wed May 21 2025 11:26:53 GMT-0500 (Central Daylight Time),168529.10000002384,2000,I,z,483,2,3,2512.4000000953674,166016.69999992847,8005,NTS,C,8
8,9,test,1,A,circle.png,1,m,Wed May 21 2025 11:26:53 GMT-0500 (Central Daylight Time),170695.0,1600,I,m,542,7,3,2162.399999976158,168532.60000002384,8005,NTS,C,9
7,10,test,1,A,circle.png,1,m,Wed May 21 2025 11:26:53 GMT-0500 (Central Daylight Time),172911.19999992847,1700,I,m,485,6,3,2212.5,170698.69999992847,8005,NTS,C,10
4,11,test,1,A,circle.png,1,z,Wed May 21 2025 11:26:53 GMT-0500 (Central Daylight Time),174810.10000002384,1400,I,z,481,4,3,1894.9000000953674,172915.19999992847,8005,NTS,C,11
4,12,test,1,A,circle.png,1,z,Wed May 21 2025 11:26:53 GMT-0500 (Central Daylight Time),176759.69999992847,1400,I,z,526,4,3,1946.0999999046326,174813.60000002384,8005,NTS,C,12
1,13,test,1,A,circle.png,1,z,Wed May 21 2025 11:26:53 GMT-0500 (Central Daylight Time),178342.29999995232,1000,I,z,552,1,3,1578.8999999761581,176763.39999997616,8005,NTS,C,13
9,14,test,1,A,circle.png,1,m,Wed May 21 2025 11:26:53 GMT-0500 (Central Daylight Time),180258.69999992847,1500,I,m,390,8,3,1912.5,178346.19999992847,8005,NTS,C,14
3,15,test,1,A,circle.png,1,z,Wed May 21 2025 11:26:53 GMT-0500 (Central Daylight Time),181957.89999997616,1200,I,z,477,3,3,1695.3999999761581,180262.5,8005,NTS,C,15
3,16,test,1,A,circle.png,1,z,Wed May 21 2025 11:26:53 GMT-0500 (Central Daylight Time),183557.29999995232,1200,I,z,378,3,3,1595.7999999523163,181961.5,8005,NTS,C,16
2,17,test,1,A,circle.png,1,z,Wed May 21 2025 11:26:53 GMT-0500 (Central Daylight Time),185973.5,2000,I,z,394,2,3,2412.600000023842,183560.89999997616,8005,NTS,C,17
6,18,test,1,A,circle.png,1,m,Wed May 21 2025 11:26:53 GMT-0500 (Central Daylight Time),188272.60000002384,1900,I,m,367,5,3,2295.8000000715256,185976.79999995232,8005,NTS,C,18
9,19,test,1,A,circle.png,1,m,Wed May 21 2025 11:26:53 GMT-0500 (Central Daylight Time),190155.60000002384,1500,I,m,364,8,3,1879.2000000476837,188276.39999997616,8005,NTS,C,19
6,20,test,1,A,circle.png,1,m,Wed May 21 2025 11:26:53 GMT-0500 (Central Daylight Time),192521.60000002384,1900,I,m,449,5,3,2362.2000000476837,190159.39999997616,8005,NTS,C,20
7,21,test,1,A,circle.png,1,m,Wed May 21 2025 11:26:53 GMT-0500 (Central Daylight Time),194637.5,1700,I,m,395,6,3,2112.399999976158,192525.10000002384,8005,NTS,C,21
9,22,test,1,A,circle.png,1,m,Wed May 21 2025 11:26:53 GMT-0500 (Central Daylight Time),196537.19999992847,1500,I,m,367,8,3,1896.0999999046326,194641.10000002384,8005,NTS,C,22
8,23,test,1,A,circle.png,1,m,Wed May 21 2025 11:26:53 GMT-0500 (Central Daylight Time),198587.29999995232,1600,I,m,432,7,3,2046.6999999284744,196540.60000002384,8005,NTS,C,23
7,24,test,1,A,circle.png,1,m,Wed May 21 2025 11:26:53 GMT-0500 (Central Daylight Time),200785.60000002384,1700,I,m,474,6,3,2194.600000023842,198591.0,8005,NTS,C,24
9,1,test,1,B,triangle.png,1,z,Wed May 21 2025 11:26:53 GMT-0500 (Central Daylight Time),213814.79999995232,1900,I,z,760,16,3,2679.2999999523163,211135.5,8005,NTS,C,1
1,2,test,1,B,triangle.png,1,z,Wed May 21 2025 11:26:53 GMT-0500 (Central Daylight Time),215713.89999997616,1400,I,z,481,9,3,1894.7999999523163,213819.10000002384,8005,NTS,C,2
8,3,test,1,B,triangle.png,1,m,Wed May 21 2025 11:26:53 GMT-0500 (Central Daylight Time),217796.79999995232,1700,I,m,362,15,3,2079.2999999523163,215717.5,8005,NTS,C,3
1,4,test,1,B,triangle.png,1,z,Wed May 21 2025 11:26:53 GMT-0500 (Central Daylight Time),220212.79999995232,1900,I,z,488,1,3,2412.100000023842,217800.69999992847,8005,NTS,C,4
7,5,test,1,B,triangle.png,1,z,Wed May 21 2025 11:26:53 GMT-0500 (Central Daylight Time),222745.10000002384,2000,I,z,508,6,3,2528.7000000476837,220216.39999997616,8005,NTS,C,5
7,6,test,1,B,triangle.png,1,z,Wed May 21 2025 11:26:53 GMT-0500 (Central Daylight Time),224894.89999997616,1600,I,z,527,14,3,2146.600000023842,222748.29999995232,8005,NTS,C,6
8,7,test,1,B,triangle.png,1,m,Wed May 21 2025 11:26:53 GMT-0500 (Central Daylight Time),226577.29999995232,1200,I,m,457,7,3,1678.2999999523163,224899.0,8005,NTS,C,7
2,8,test,1,B,triangle.png,1,m,Wed May 21 2025 11:26:53 GMT-0500 (Central Daylight Time),228477.0,1200,I,m,671,10,3,1896.3999999761581,226580.60000002384,8005,NTS,C,8
3,9,test,1,B,triangle.png,1,z,Wed May 21 2025 11:26:53 GMT-0500 (Central Daylight Time),231009.5,2000,I,z,515,11,3,2528.7000000476837,228480.79999995232,8005,NTS,C,9
1,10,test,1,B,triangle.png,1,z,Wed May 21 2025 11:26:53 GMT-0500 (Central Daylight Time),233075.69999992847,1400,I,z,640,9,3,2062.5999999046326,231013.10000002384,8005,NTS,C,10
6,11,test,1,B,triangle.png,1,m,Wed May 21 2025 11:26:53 GMT-0500 (Central Daylight Time),235057.89999997616,1500,I,m,465,13,3,1978.6000000238419,233079.29999995232,8005,NTS,C,11
7,12,test,1,B,triangle.png,1,z,Wed May 21 2025 11:26:53 GMT-0500 (Central Daylight Time),237307.39999997616,1600,I,z,622,14,3,2245.600000023842,235061.79999995232,8005,NTS,C,12
2,13,test,1,B,triangle.png,1,m,Wed May 21 2025 11:26:53 GMT-0500 (Central Daylight Time),238925.10000002384,1200,I,m,397,10,3,1614.2000000476837,237310.89999997616,8005,NTS,C,13
9,14,test,1,B,triangle.png,1,z,Wed May 21 2025 11:26:53 GMT-0500 (Central Daylight Time),241023.10000002384,1400,I,z,677,8,3,2094.100000023842,238929.0,8005,NTS,C,14
6,15,test,1,B,triangle.png,1,m,Wed May 21 2025 11:26:53 GMT-0500 (Central Daylight Time),242723.5,1000,I,m,681,5,3,1696.8000000715256,241026.69999992847,8005,NTS,C,15
9,16,test,1,B,triangle.png,1,z,Wed May 21 2025 11:26:53 GMT-0500 (Central Daylight Time),244855.10000002384,1400,I,z,711,8,3,2127.7000000476837,242727.39999997616,8005,NTS,C,16
2,17,test,1,B,triangle.png,1,m,Wed May 21 2025 11:26:53 GMT-0500 (Central Daylight Time),247154.5,1700,I,m,581,2,3,2295.8000000715256,244858.69999992847,8005,NTS,C,17
3,18,test,1,B,triangle.png,1,z,Wed May 21 2025 11:26:53 GMT-0500 (Central Daylight Time),249470.19999992847,1600,I,z,686,3,3,2312.0,247158.19999992847,8005,NTS,C,18
4,19,test,1,B,triangle.png,1,m,Wed May 21 2025 11:26:53 GMT-0500 (Central Daylight Time),251236.29999995232,1000,I,m,746,12,3,1762.3999999761581,249473.89999997616,8005,NTS,C,19
6,20,test,1,B,triangle.png,1,m,Wed May 21 2025 11:26:53 GMT-0500 (Central Daylight Time),252769.29999995232,1000,I,m,509,5,3,1529.5,251239.79999995232,8005,NTS,C,20
3,21,test,1,B,triangle.png,1,z,Wed May 21 2025 11:26:53 GMT-0500 (Central Daylight Time),255468.29999995232,2000,I,z,679,11,3,2695.1999999284744,252773.10000002384,8005,NTS,C,21
4,22,test,1,B,triangle.png,1,m,Wed May 21 2025 11:26:53 GMT-0500 (Central Daylight Time),257451.10000002384,1500,I,m,456,4,3,1979.3000000715256,255471.79999995232,8005,NTS,C,22
1,23,test,1,B,triangle.png,1,z,Wed May 21 2025 11:26:53 GMT-0500 (Central Daylight Time),259917.0,1900,I,z,545,1,3,2462.2000000476837,257454.79999995232,8005,NTS,C,23
6,24,test,1,B,triangle.png,1,m,Wed May 21 2025 11:26:53 GMT-0500 (Central Daylight Time),261999.60000002384,1500,I,m,551,13,3,2079.2000000476837,259920.39999997616,8005,NTS,C,24
9,1,prac,1,C,circle.png,1,m,Wed May 21 2025 11:26:53 GMT-0500 (Central Daylight Time),299487.89999997616,1900,I,m,1284,8,3,3978.0,295509.89999997616,8005,NTS,C,1
8,2,prac,1,C,triangle.png,1,m,Wed May 21 2025 11:26:53 GMT-0500 (Central Daylight Time),302303.6999999285,1400,I,m,590,7,3,2810.5999999046326,299493.10000002384,8005,NTS,C,2
2,3,prac,1,C,triangle.png,1,m,Wed May 21 2025 11:26:53 GMT-0500 (Central Daylight Time),305336.1999999285,1600,I,m,633,2,3,3027.899999976158,302308.2999999523,8005,NTS,C,3
6,4,prac,1,C,circle.png,1,m,Wed May 21 2025 11:26:53 GMT-0500 (Central Daylight Time),308651.7999999523,2000,I,m,528,5,3,3310.899999976158,305340.89999997616,8005,NTS,C,4
3,5,prac,1,C,triangle.png,1,z,Wed May 21 2025 11:26:53 GMT-0500 (Central Daylight Time),311600.6999999285,1500,I,z,664,3,3,2943.399999976158,308657.2999999523,8005,NTS,C,5
3,6,prac,1,C,triangle.png,1,z,Wed May 21 2025 11:26:53 GMT-0500 (Central Daylight Time),314816.5,1500,I,z,923,3,3,3210.899999976158,311605.60000002384,8005,NTS,C,6
4,7,prac,1,C,circle.png,1,z,Wed May 21 2025 11:26:53 GMT-0500 (Central Daylight Time),317765.1999999285,1000,I,z,1152,4,3,2943.7999999523163,314821.39999997616,8005,NTS,C,7
9,8,prac,1,C,circle.png,1,m,Wed May 21 2025 11:26:53 GMT-0500 (Central Daylight Time),321048.0,1900,I,m,599,8,3,3277.5,317770.5,8005,NTS,C,8
1,9,prac,1,C,circle.png,1,z,Wed May 21 2025 11:26:53 GMT-0500 (Central Daylight Time),324146.89999997616,1700,I,z,613,1,3,3094.399999976158,321052.5,8005,NTS,C,9
8,10,prac,1,C,triangle.png,1,m,Wed May 21 2025 11:26:53 GMT-0500 (Central Daylight Time),327079.2999999523,1400,I,m,733,7,3,2927.2999999523163,324152.0,8005,NTS,C,10
2,11,prac,1,C,triangle.png,1,m,Wed May 21 2025 11:26:53 GMT-0500 (Central Daylight Time),330145.1999999285,1600,I,m,673,2,3,3061.0,327084.1999999285,8005,NTS,C,11
7,12,prac,1,C,triangle.png,1,z,Wed May 21 2025 11:26:53 GMT-0500 (Central Daylight Time),332811.0,1200,I,z,679,6,3,2661.2000000476837,330149.7999999523,8005,NTS,C,12
7,1,test,1,C,circle.png,1,m,Wed May 21 2025 11:26:53 GMT-0500 (Central Daylight Time),344024.2999999523,2000,I,m,1068,14,3,3096.1999999284744,340928.10000002384,8005,NTS,C,1
4,2,test,1,C,triangle.png,1,m,Wed May 21 2025 11:26:53 GMT-0500 (Central Daylight Time),346356.60000002384,1500,I,m,804,12,3,2328.100000023842,344028.5,8005,NTS,C,2
1,3,test,1,C,circle.png,1,z,Wed May 21 2025 11:26:53 GMT-0500 (Central Daylight Time),348050.7999999523,1000,I,z,540,1,3,1690.6000000238419,346360.1999999285,8005,NTS,C,3
6,4,test,1,C,circle.png,1,m,Wed May 21 2025 11:26:53 GMT-0500 (Central Daylight Time),350721.89999997616,1900,I,m,741,21,3,2666.899999976158,348055.0,8005,NTS,C,4
2,5,test,1,C,circle.png,1,z,Wed May 21 2025 11:26:53 GMT-0500 (Central Daylight Time),353104.39999997616,1700,I,z,658,18,3,2378.600000023842,350725.7999999523,8005,NTS,C,5
4,6,test,1,C,triangle.png,1,m,Wed May 21 2025 11:26:53 GMT-0500 (Central Daylight Time),355187.10000002384,1500,I,m,556,20,3,2078.7000000476837,353108.39999997616,8005,NTS,C,6
6,7,test,1,C,triangle.png,1,m,Wed May 21 2025 11:26:53 GMT-0500 (Central Daylight Time),356720.0,1000,I,m,509,13,3,1529.1000000238419,355190.89999997616,8005,NTS,C,7
8,8,test,1,C,circle.png,1,m,Wed May 21 2025 11:26:53 GMT-0500 (Central Daylight Time),358986.0,1200,I,m,1040,15,3,2262.0,356724.0,8005,NTS,C,8
9,9,test,1,C,triangle.png,1,z,Wed May 21 2025 11:26:53 GMT-0500 (Central Daylight Time),361085.2999999523,1400,I,z,670,16,3,2095.1999999284744,358990.10000002384,8005,NTS,C,9
3,10,test,1,C,circle.png,1,z,Wed May 21 2025 11:26:53 GMT-0500 (Central Daylight Time),363318.0,1600,I,z,603,11,3,2229.3000000715256,361088.6999999285,8005,NTS,C,10
2,11,test,1,C,triangle.png,1,m,Wed May 21 2025 11:26:53 GMT-0500 (Central Daylight Time),366033.60000002384,2000,I,m,691,2,3,2711.9000000953674,363321.6999999285,8005,NTS,C,11
1,12,test,1,C,triangle.png,1,z,Wed May 21 2025 11:26:53 GMT-0500 (Central Daylight Time),368532.89999997616,1900,I,z,579,9,3,2495.7000000476837,366037.1999999285,8005,NTS,C,12
3,13,test,1,C,circle.png,1,z,Wed May 21 2025 11:26:53 GMT-0500 (Central Daylight Time),370932.2999999523,1600,I,z,770,19,3,2395.899999976158,368536.39999997616,8005,NTS,C,13
1,14,test,1,C,triangle.png,1,z,Wed May 21 2025 11:26:53 GMT-0500 (Central Daylight Time),373614.7999999523,1900,I,z,752,17,3,2679.0,370935.7999999523,8005,NTS,C,14
9,15,test,1,C,circle.png,1,m,Wed May 21 2025 11:26:53 GMT-0500 (Central Daylight Time),376180.5,1500,I,m,1038,24,3,2562.0,373618.5,8005,NTS,C,15
6,16,test,1,C,circle.png,1,m,Wed May 21 2025 11:26:53 GMT-0500 (Central Daylight Time),378879.5,1900,I,m,768,5,3,2695.100000023842,376184.39999997616,8005,NTS,C,16
3,17,test,1,C,triangle.png,1,z,Wed May 21 2025 11:26:53 GMT-0500 (Central Daylight Time),380845.6999999285,1200,I,z,737,3,3,1962.6999999284744,378883.0,8005,NTS,C,17
8,18,test,1,C,triangle.png,1,m,Wed May 21 2025 11:26:53 GMT-0500 (Central Daylight Time),382928.39999997616,1600,I,m,458,23,3,2079.2000000476837,380849.1999999285,8005,NTS,C,18
9,19,test,1,C,circle.png,1,m,Wed May 21 2025 11:26:53 GMT-0500 (Central Daylight Time),385144.1999999285,1500,I,m,684,8,3,2211.899999976158,382932.2999999523,8005,NTS,C,19
7,20,test,1,C,triangle.png,1,z,Wed May 21 2025 11:26:53 GMT-0500 (Central Daylight Time),387593.6999999285,1700,I,z,732,22,3,2446.0999999046326,385147.60000002384,8005,NTS,C,20
8,21,test,1,C,triangle.png,1,m,Wed May 21 2025 11:26:53 GMT-0500 (Central Daylight Time),389776.39999997616,1600,I,m,550,7,3,2179.100000023842,387597.2999999523,8005,NTS,C,21
4,22,test,1,C,circle.png,1,z,Wed May 21 2025 11:26:53 GMT-0500 (Central Daylight Time),391992.1999999285,1400,I,z,791,4,3,2212.2999999523163,389779.89999997616,8005,NTS,C,22
7,23,test,1,C,triangle.png,1,z,Wed May 21 2025 11:26:53 GMT-0500 (Central Daylight Time),394624.6999999285,1700,I,z,908,6,3,2628.899999976158,391995.7999999523,8005,NTS,C,23
2,24,test,1,C,circle.png,1,z,Wed May 21 2025 11:26:53 GMT-0500 (Central Daylight Time),397123.89999997616,1700,I,z,780,10,3,2495.5,394628.39999997616,8005,NTS,C,24
9,1,test,2,C,circle.png,1,m,Wed May 21 2025 11:26:53 GMT-0500 (Central Daylight Time),401289.5,1500,I,m,834,8,3,2362.0,398927.5,8005,NTS,C,1
8,2,test,2,C,triangle.png,1,m,Wed May 21 2025 11:26:53 GMT-0500 (Central Daylight Time),403505.39999997616,1600,I,m,591,7,3,2212.0,401293.39999997616,8005,NTS,C,2
3,3,test,2,C,triangle.png,1,z,Wed May 21 2025 11:26:53 GMT-0500 (Central Daylight Time),405321.5,1200,I,z,582,3,3,1812.6000000238419,403508.89999997616,8005,NTS,C,3
2,4,test,2,C,triangle.png,1,m,Wed May 21 2025 11:26:53 GMT-0500 (Central Daylight Time),408037.39999997616,2000,I,m,695,2,3,2712.5,405324.89999997616,8005,NTS,C,4
9,5,test,2,C,triangle.png,1,z,Wed May 21 2025 11:26:53 GMT-0500 (Central Daylight Time),410169.89999997616,1400,I,z,707,24,3,2129.2000000476837,408040.6999999285,8005,NTS,C,5
4,6,test,2,C,triangle.png,1,m,Wed May 21 2025 11:26:53 GMT-0500 (Central Daylight Time),412469.10000002384,1500,I,m,770,12,3,2295.600000023842,410173.5,8005,NTS,C,6
8,6,test,2,C,circle.png,0,m,Wed May 21 2025 11:26:53 GMT-0500 (Central Daylight Time),414401.7999999523,1200,I,z,715,23,3,1928.6000000238419,412473.1999999285,8005,NTS,C,7
7,7,test,2,C,triangle.png,1,z,Wed May 21 2025 11:26:53 GMT-0500 (Central Daylight Time),416884.2999999523,1700,I,z,762,6,3,2479.2999999523163,414405.0,8005,NTS,C,8
1,8,test,2,C,triangle.png,1,z,Wed May 21 2025 11:26:53 GMT-0500 (Central Daylight Time),419617.10000002384,1900,I,z,800,9,3,2729.3000000715256,416887.7999999523,8005,NTS,C,9
4,9,test,2,C,triangle.png,1,m,Wed May 21 2025 11:26:53 GMT-0500 (Central Daylight Time),421832.89999997616,1500,I,m,691,20,3,2211.899999976158,419621.0,8005,NTS,C,10
6,10,test,2,C,triangle.png,1,m,Wed May 21 2025 11:26:53 GMT-0500 (Central Daylight Time),423599.1999999285,1000,I,m,743,13,3,1762.5999999046326,421836.60000002384,8005,NTS,C,11
9,11,test,2,C,triangle.png,1,z,Wed May 21 2025 11:26:53 GMT-0500 (Central Daylight Time),425781.89999997616,1400,I,z,753,16,3,2178.899999976158,423603.0,8005,NTS,C,12
3,12,test,2,C,circle.png,1,z,Wed May 21 2025 11:26:53 GMT-0500 (Central Daylight Time),427947.6999999285,1600,I,z,539,11,3,2161.899999976158,425785.7999999523,8005,NTS,C,13
1,13,test,2,C,circle.png,1,z,Wed May 21 2025 11:26:53 GMT-0500 (Central Daylight Time),429547.1999999285,1000,I,z,572,1,3,1595.7999999523163,427951.39999997616,8005,NTS,C,14
8,14,test,2,C,circle.png,1,m,Wed May 21 2025 11:26:53 GMT-0500 (Central Daylight Time),431313.1999999285,1200,I,m,534,15,3,1762.3999999761581,429550.7999999523,8005,NTS,C,15
7,15,test,2,C,circle.png,1,m,Wed May 21 2025 11:26:53 GMT-0500 (Central Daylight Time),434145.6999999285,2000,I,m,800,22,3,2828.7999999523163,431316.89999997616,8005,NTS,C,16
7,16,test,2,C,circle.png,1,m,Wed May 21 2025 11:26:53 GMT-0500 (Central Daylight Time),436728.2999999523,2000,I,m,559,14,3,2578.7999999523163,434149.5,8005,NTS,C,17
4,17,test,2,C,circle.png,1,z,Wed May 21 2025 11:26:53 GMT-0500 (Central Daylight Time),438777.6999999285,1400,I,z,617,4,3,2045.7999999523163,436731.89999997616,8005,NTS,C,18
2,18,test,2,C,circle.png,1,z,Wed May 21 2025 11:26:53 GMT-0500 (Central Daylight Time),441060.1999999285,1700,I,z,563,10,3,2278.6999999284744,438781.5,8005,NTS,C,19
3,19,test,2,C,circle.png,1,z,Wed May 21 2025 11:26:53 GMT-0500 (Central Daylight Time),443359.60000002384,1600,I,z,676,19,3,2295.600000023842,441064.0,8005,NTS,C,20
1,20,test,2,C,triangle.png,1,z,Wed May 21 2025 11:26:53 GMT-0500 (Central Daylight Time),445858.89999997616,1900,I,z,581,17,3,2495.899999976158,443363.0,8005,NTS,C,21
6,21,test,2,C,circle.png,1,m,Wed May 21 2025 11:26:53 GMT-0500 (Central Daylight Time),448541.2999999523,1900,I,m,762,5,3,2678.899999976158,445862.39999997616,8005,NTS,C,22
2,22,test,2,C,circle.png,1,z,Wed May 21 2025 11:26:53 GMT-0500 (Central Daylight Time),451140.2999999523,1700,I,z,871,18,3,2595.1999999284744,448545.10000002384,8005,NTS,C,23
6,23,test,2,C,triangle.png,1,m,Wed May 21 2025 11:26:53 GMT-0500 (Central Daylight Time),452806.2999999523,1000,I,m,635,21,3,1662.1999999284744,451144.10000002384,8005,NTS,C,24
9,0,test,3,C,triangle.png,0,z,Wed May 21 2025 11:26:53 GMT-0500 (Central Daylight Time),457738.1999999285,1400,I,m,548,16,3,1963.0999999046326,455775.10000002384,8005,NTS,C,1
7,1,test,3,C,triangle.png,1,z,Wed May 21 2025 11:26:53 GMT-0500 (Central Daylight Time),460020.7999999523,1700,I,z,554,22,3,2279.2999999523163,457741.5,8005,NTS,C,2
3,2,test,3,C,triangle.png,1,z,Wed May 21 2025 11:26:53 GMT-0500 (Central Daylight Time),461753.6999999285,1200,I,z,515,3,3,1729.5,460024.1999999285,8005,NTS,C,3
8,3,test,3,C,triangle.png,1,m,Wed May 21 2025 11:26:53 GMT-0500 (Central Daylight Time),464019.39999997616,1600,I,m,647,7,3,2262.100000023842,461757.2999999523,8005,NTS,C,4
2,4,test,3,C,circle.png,1,z,Wed May 21 2025 11:26:53 GMT-0500 (Central Daylight Time),466485.5,1700,I,z,610,10,3,2462.7000000476837,464022.7999999523,8005,NTS,C,5
4,5,test,3,C,circle.png,1,z,Wed May 21 2025 11:26:53 GMT-0500 (Central Daylight Time),468435.0,1400,I,z,530,20,3,1945.8000000715256,466489.1999999285,8005,NTS,C,6
4,6,test,3,C,circle.png,1,z,Wed May 21 2025 11:26:53 GMT-0500 (Central Daylight Time),470334.2999999523,1400,I,z,469,4,3,1895.6000000238419,468438.6999999285,8005,NTS,C,7
7,7,test,3,C,circle.png,1,m,Wed May 21 2025 11:26:53 GMT-0500 (Central Daylight Time),473016.7999999523,2000,I,m,650,14,3,2678.899999976158,470337.89999997616,8005,NTS,C,8
6,8,test,3,C,circle.png,1,m,Wed May 21 2025 11:26:53 GMT-0500 (Central Daylight Time),475432.6999999285,1900,I,m,491,21,3,2412.2999999523163,473020.39999997616,8005,NTS,C,9
1,9,test,3,C,circle.png,1,z,Wed May 21 2025 11:26:53 GMT-0500 (Central Daylight Time),477182.1999999285,1000,I,z,727,17,3,1745.8999999761581,475436.2999999523,8005,NTS,C,10
3,10,test,3,C,circle.png,1,z,Wed May 21 2025 11:26:53 GMT-0500 (Central Daylight Time),479431.6999999285,1600,I,z,618,11,3,2245.7999999523163,477185.89999997616,8005,NTS,C,11
7,11,test,3,C,triangle.png,1,z,Wed May 21 2025 11:26:53 GMT-0500 (Central Daylight Time),481913.89999997616,1700,I,z,765,6,3,2478.100000023842,479435.7999999523,8005,NTS,C,12
2,12,test,3,C,triangle.png,1,m,Wed May 21 2025 11:26:53 GMT-0500 (Central Daylight Time),484629.89999997616,2000,I,m,687,18,3,2711.100000023842,481918.7999999523,8005,NTS,C,13
8,13,test,3,C,triangle.png,1,m,Wed May 21 2025 11:26:53 GMT-0500 (Central Daylight Time),486812.60000002384,1600,I,m,563,23,3,2179.0,484633.60000002384,8005,NTS,C,14
1,14,test,3,C,triangle.png,1,z,Wed May 21 2025 11:26:53 GMT-0500 (Central Daylight Time),489422.2999999523,1900,I,z,552,9,3,2606.2999999523163,486816.0,8005,NTS,C,15
6,15,test,3,C,triangle.png,1,m,Wed May 21 2025 11:26:53 GMT-0500 (Central Daylight Time),491077.89999997616,1000,I,m,636,13,3,1651.1000000238419,489426.7999999523,8005,NTS,C,16
4,16,test,3,C,triangle.png,1,m,Wed May 21 2025 11:26:53 GMT-0500 (Central Daylight Time),493361.60000002384,1500,I,m,750,12,3,2280.0,491081.60000002384,8005,NTS,C,17
6,17,test,3,C,circle.png,1,m,Wed May 21 2025 11:26:53 GMT-0500 (Central Daylight Time),495843.0,1900,I,m,556,5,3,2477.5,493365.5,8005,NTS,C,18
9,18,test,3,C,circle.png,1,m,Wed May 21 2025 11:26:53 GMT-0500 (Central Daylight Time),497909.10000002384,1500,I,m,545,24,3,2062.4000000953674,495846.6999999285,8005,NTS,C,19
8,19,test,3,C,circle.png,1,m,Wed May 21 2025 11:26:53 GMT-0500 (Central Daylight Time),499741.7999999523,1200,I,m,611,15,3,1829.0,497912.7999999523,8005,NTS,C,20
1,20,test,3,C,circle.png,1,z,Wed May 21 2025 11:26:53 GMT-0500 (Central Daylight Time),501274.89999997616,1000,I,z,507,1,3,1529.7000000476837,499745.1999999285,8005,NTS,C,21
3,21,test,3,C,triangle.png,1,z,Wed May 21 2025 11:26:53 GMT-0500 (Central Daylight Time),503240.89999997616,1200,I,z,733,19,3,1962.3999999761581,501278.5,8005,NTS,C,22
9,22,test,3,C,circle.png,1,m,Wed May 21 2025 11:26:53 GMT-0500 (Central Daylight Time),505373.5,1500,I,m,604,8,3,2129.0,503244.5,8005,NTS,C,23
2,23,test,3,C,triangle.png,1,m,Wed May 21 2025 11:26:53 GMT-0500 (Central Daylight Time),508189.39999997616,2000,I,m,787,2,3,2812.5,505376.89999997616,8005,NTS,C,24
2,1,test,4,C,circle.png,1,z,Wed May 21 2025 11:26:53 GMT-0500 (Central Daylight Time),512671.1999999285,1700,I,z,860,10,3,2579.0999999046326,510092.10000002384,8005,NTS,C,1
3,2,test,4,C,triangle.png,1,z,Wed May 21 2025 11:26:53 GMT-0500 (Central Daylight Time),514670.5,1200,I,z,769,3,3,1995.3999999761581,512675.10000002384,8005,NTS,C,2
1,3,test,4,C,circle.png,1,z,Wed May 21 2025 11:26:53 GMT-0500 (Central Daylight Time),516220.0,1000,I,z,522,1,3,1544.7000000476837,514675.2999999523,8005,NTS,C,3
6,4,test,4,C,circle.png,1,m,Wed May 21 2025 11:26:53 GMT-0500 (Central Daylight Time),518819.1999999285,1900,I,m,673,5,3,2595.5,516223.6999999285,8005,NTS,C,4
8,5,test,4,C,triangle.png,1,m,Wed May 21 2025 11:26:53 GMT-0500 (Central Daylight Time),521068.39999997616,1600,I,m,629,23,3,2245.7999999523163,518822.60000002384,8005,NTS,C,5
8,6,test,4,C,circle.png,1,m,Wed May 21 2025 11:26:53 GMT-0500 (Central Daylight Time),522834.5,1200,I,m,548,15,3,1762.7000000476837,521071.7999999523,8005,NTS,C,6
9,7,test,4,C,circle.png,1,m,Wed May 21 2025 11:26:53 GMT-0500 (Central Daylight Time),525567.0,1500,I,m,1202,8,3,2728.7000000476837,522838.2999999523,8005,NTS,C,7
2,8,test,4,C,triangle.png,1,m,Wed May 21 2025 11:26:53 GMT-0500 (Central Daylight Time),528399.3999999762,2000,I,m,810,18,3,2828.7000000476837,525570.6999999285,8005,NTS,C,8
6,9,test,4,C,circle.png,1,m,Wed May 21 2025 11:26:53 GMT-0500 (Central Daylight Time),530882.1000000238,1900,I,m,558,21,3,2479.3000000715256,528402.7999999523,8005,NTS,C,9
3,10,test,4,C,triangle.png,1,z,Wed May 21 2025 11:26:53 GMT-0500 (Central Daylight Time),532564.7999999523,1200,I,z,454,19,3,1679.1000000238419,530885.6999999285,8005,NTS,C,10
9,11,test,4,C,circle.png,1,m,Wed May 21 2025 11:26:53 GMT-0500 (Central Daylight Time),534714.1000000238,1500,I,m,623,24,3,2145.3000000715256,532568.7999999523,8005,NTS,C,11
4,12,test,4,C,triangle.png,1,m,Wed May 21 2025 11:26:53 GMT-0500 (Central Daylight Time),537013.3999999762,1500,I,m,778,12,3,2295.600000023842,534717.7999999523,8005,NTS,C,12
9,13,test,4,C,triangle.png,1,z,Wed May 21 2025 11:26:53 GMT-0500 (Central Daylight Time),539496.0,1400,I,z,1059,16,3,2477.5,537018.5,8005,NTS,C,13
2,14,test,4,C,triangle.png,1,m,Wed May 21 2025 11:26:53 GMT-0500 (Central Daylight Time),542211.8999999762,2000,I,m,687,2,3,2711.899999976158,539500.0,8005,NTS,C,14
4,15,test,4,C,circle.png,1,z,Wed May 21 2025 11:26:53 GMT-0500 (Central Daylight Time),544511.1999999285,1400,I,z,868,4,3,2295.2999999523163,542215.8999999762,8005,NTS,C,15
8,16,test,4,C,triangle.png,1,m,Wed May 21 2025 11:26:53 GMT-0500 (Central Daylight Time),546810.2999999523,1600,I,m,673,7,3,2295.100000023842,544515.1999999285,8005,NTS,C,16
1,17,test,4,C,circle.png,1,z,Wed May 21 2025 11:26:53 GMT-0500 (Central Daylight Time),548493.1999999285,1000,I,z,654,17,3,1678.8999999761581,546814.2999999523,8005,NTS,C,17
4,18,test,4,C,circle.png,1,z,Wed May 21 2025 11:26:53 GMT-0500 (Central Daylight Time),550459.3999999762,1400,I,z,539,20,3,1962.6000000238419,548496.7999999523,8005,NTS,C,18
7,19,test,4,C,triangle.png,1,z,Wed May 21 2025 11:26:53 GMT-0500 (Central Daylight Time),552875.0,1700,I,z,698,22,3,2412.100000023842,550462.8999999762,8005,NTS,C,19
7,20,test,4,C,triangle.png,1,z,Wed May 21 2025 11:26:53 GMT-0500 (Central Daylight Time),555241.1999999285,1700,I,z,641,6,3,2362.6999999284744,552878.5,8005,NTS,C,20
1,21,test,4,C,triangle.png,1,z,Wed May 21 2025 11:26:53 GMT-0500 (Central Daylight Time),557756.8999999762,1900,I,z,588,9,3,2512.2000000476837,555244.6999999285,8005,NTS,C,21
6,22,test,4,C,triangle.png,1,m,Wed May 21 2025 11:26:53 GMT-0500 (Central Daylight Time),559539.5,1000,I,m,763,13,3,1778.7000000476837,557760.7999999523,8005,NTS,C,22
7,23,test,4,C,circle.png,1,m,Wed May 21 2025 11:26:53 GMT-0500 (Central Daylight Time),562405.3999999762,2000,I,m,845,14,3,2861.600000023842,559543.7999999523,8005,NTS,C,23
3,24,test,4,C,circle.png,1,z,Wed May 21 2025 11:26:53 GMT-0500 (Central Daylight Time),564638.0,1600,I,z,603,11,3,2229.3000000715256,562408.6999999285,8005,NTS,C,24
