block_c,block_dur,condition,countdown,datetime,endtime,list,multichar_response,project,response,response_time,session_number,start_end,starttime,subject_id,task,task_vers,trial
,,,,Wed Mar 18 2026 11:19:51 GMT-0400 (Eastern Daylight Time),,,,I,space,599,2,,,9045,WL,C,
prac,,0,,Wed Mar 18 2026 11:19:51 GMT-0400 (Eastern Daylight Time),,NA,b,I,b,6382,2,,,9045,WL,C,1.0
prac,,0,,Wed Mar 18 2026 11:19:51 GMT-0400 (Eastern Daylight Time),,NA,bo,I,o,241,2,,,9045,WL,C,1.0
prac,,0,,Wed Mar 18 2026 11:19:51 GMT-0400 (Eastern Daylight Time),,NA,boo,I,o,152,2,,,9045,WL,C,1.0
prac,,0,,Wed Mar 18 2026 11:19:51 GMT-0400 (Eastern Daylight Time),,NA,boos,I,s,225,2,,,9045,WL,C,1.0
prac,,0,,Wed Mar 18 2026 11:19:51 GMT-0400 (Eastern Daylight Time),,NA,boost,I,t,279,2,,,9045,WL,C,1.0
prac,,0,,Wed Mar 18 2026 11:19:51 GMT-0400 (Eastern Daylight Time),,NA,boostenter,I,enter,1433,2,,,9045,WL,C,1.0
1,2.3499999046325684,learn,57650.00009536743,Wed Mar 18 2026 11:19:51 GMT-0400 (Eastern Daylight Time),109974.89999999106,A,t,I,t,2338,2,2349.0,107625.89999999106,9045,WL,C,1.0
1,2.549999952316284,learn,57450.000047683716,Wed Mar 18 2026 11:19:51 GMT-0400 (Eastern Daylight Time),110175.09999999404,A,to,I,o,181,2,2549.2000000029802,107625.89999999106,9045,WL,C,1.0
1,3.0840001106262207,learn,56915.99988937378,Wed Mar 18 2026 11:19:51 GMT-0400 (Eastern Daylight Time),110708.39999999106,A,tow,I,w,507,2,3082.5,107625.89999999106,9045,WL,C,1.0
1,3.2669999599456787,learn,56733.00004005432,Wed Mar 18 2026 11:19:51 GMT-0400 (Eastern Daylight Time),110891.5,A,towe,I,e,167,2,3265.6000000089407,107625.89999999106,9045,WL,C,1.0
1,3.5169999599456787,learn,56483.00004005432,Wed Mar 18 2026 11:19:51 GMT-0400 (Eastern Daylight Time),111141.69999998808,A,tower,I,r,213,2,3515.7999999970198,107625.89999999106,9045,WL,C,1.0
1,4.349999904632568,learn,55650.00009536743,Wed Mar 18 2026 11:19:51 GMT-0400 (Eastern Daylight Time),111974.39999999106,A,towerenter,I,enter,812,2,4348.5,107625.89999999106,9045,WL,C,1.0
1,6.334000110626221,learn,53665.99988937378,Wed Mar 18 2026 11:19:51 GMT-0400 (Eastern Daylight Time),113958.5,A,w,I,w,1976,2,1983.5,111975.0,9045,WL,C,2.0
1,6.516999959945679,learn,53483.00004005432,Wed Mar 18 2026 11:19:51 GMT-0400 (Eastern Daylight Time),114141.59999999404,A,wh,I,h,166,2,2166.5999999940395,111975.0,9045,WL,C,2.0
1,7.283999919891357,learn,52716.00008010864,Wed Mar 18 2026 11:19:51 GMT-0400 (Eastern Daylight Time),114908.29999999702,A,whe,I,e,750,2,2933.2999999970198,111975.0,9045,WL,C,2.0
1,8.150000095367432,learn,51849.99990463257,Wed Mar 18 2026 11:19:51 GMT-0400 (Eastern Daylight Time),115775.0,A,whea,I,a,847,2,3800.0,111975.0,9045,WL,C,2.0
1,8.467000007629395,learn,51532.999992370605,Wed Mar 18 2026 11:19:51 GMT-0400 (Eastern Daylight Time),116091.69999998808,A,wheat,I,t,298,2,4116.699999988079,111975.0,9045,WL,C,2.0
1,8.799999952316284,learn,51200.000047683716,Wed Mar 18 2026 11:19:51 GMT-0400 (Eastern Daylight Time),116424.5,A,wheatenter,I,enter,318,2,4449.5,111975.0,9045,WL,C,2.0
1,11.66700005531311,learn,48332.99994468689,Wed Mar 18 2026 11:19:51 GMT-0400 (Eastern Daylight Time),119291.59999999404,A,s,I,s,2854,2,2866.5999999940395,116425.0,9045,WL,C,3.0
1,11.83400011062622,learn,48165.99988937378,Wed Mar 18 2026 11:19:51 GMT-0400 (Eastern Daylight Time),119458.39999999106,A,su,I,u,143,2,3033.3999999910593,116425.0,9045,WL,C,3.0
1,12.384000062942505,learn,47615.999937057495,Wed Mar 18 2026 11:19:51 GMT-0400 (Eastern Daylight Time),120008.19999998808,A,sug,I,g,526,2,3583.199999988079,116425.0,9045,WL,C,3.0
1,13.099999904632568,learn,46900.00009536743,Wed Mar 18 2026 11:19:51 GMT-0400 (Eastern Daylight Time),120724.79999999702,A,suga,I,a,691,2,4299.79999999702,116425.0,9045,WL,C,3.0
1,13.41700005531311,learn,46582.99994468689,Wed Mar 18 2026 11:19:51 GMT-0400 (Eastern Daylight Time),121041.69999998808,A,sugar,I,r,294,2,4616.699999988079,116425.0,9045,WL,C,3.0
1,13.650000095367432,learn,46349.99990463257,Wed Mar 18 2026 11:19:51 GMT-0400 (Eastern Daylight Time),121274.5,A,sugarenter,I,enter,217,2,4849.5,116425.0,9045,WL,C,3.0
1,20.15000009536743,learn,39849.99990463257,Wed Mar 18 2026 11:19:51 GMT-0400 (Eastern Daylight Time),127774.89999999106,A,b,I,b,6485,2,6500.0,121274.89999999106,9045,WL,C,4.0
1,21.033999919891357,learn,38966.00008010864,Wed Mar 18 2026 11:19:51 GMT-0400 (Eastern Daylight Time),128658.19999998808,A,bo,I,o,861,2,7383.29999999702,121274.89999999106,9045,WL,C,4.0
1,21.933000087738037,learn,38066.99991226196,Wed Mar 18 2026 11:19:51 GMT-0400 (Eastern Daylight Time),129558.29999999702,A,boy,I,y,873,2,8283.40000000596,121274.89999999106,9045,WL,C,4.0
1,22.65000009536743,learn,37349.99990463257,Wed Mar 18 2026 11:19:51 GMT-0400 (Eastern Daylight Time),130274.5,A,boyenter,I,enter,690,2,8999.60000000894,121274.89999999106,9045,WL,C,4.0
1,24.34999990463257,learn,35650.00009536743,Wed Mar 18 2026 11:19:51 GMT-0400 (Eastern Daylight Time),131974.69999998808,A,f,I,f,1692,2,1699.7999999970198,130274.89999999106,9045,WL,C,5.0
1,24.483999967575073,learn,35516.00003242493,Wed Mar 18 2026 11:19:51 GMT-0400 (Eastern Daylight Time),132108.29999999702,A,fi,I,i,117,2,1833.4000000059605,130274.89999999106,9045,WL,C,5.0
1,24.733999967575073,learn,35266.00003242493,Wed Mar 18 2026 11:19:51 GMT-0400 (Eastern Daylight Time),132358.39999999106,A,fie,I,e,236,2,2083.5,130274.89999999106,9045,WL,C,5.0
1,25.033999919891357,learn,34966.00008010864,Wed Mar 18 2026 11:19:51 GMT-0400 (Eastern Daylight Time),132658.29999999702,A,fiel,I,l,276,2,2383.4000000059605,130274.89999999106,9045,WL,C,5.0
1,25.90000009536743,learn,34099.99990463257,Wed Mar 18 2026 11:19:51 GMT-0400 (Eastern Daylight Time),133525.09999999404,A,field,I,d,841,2,3250.2000000029802,130274.89999999106,9045,WL,C,5.0
1,26.115999937057495,learn,33884.000062942505,Wed Mar 18 2026 11:19:51 GMT-0400 (Eastern Daylight Time),133741.09999999404,A,fieldenter,I,enter,197,2,3466.2000000029802,130274.89999999106,9045,WL,C,5.0
1,31.51699995994568,learn,28483.00004005432,Wed Mar 18 2026 11:19:51 GMT-0400 (Eastern Daylight Time),139141.59999999404,A,h,I,h,5378,2,5399.9000000059605,133741.69999998808,9045,WL,C,6.0
1,31.816999912261963,learn,28183.000087738037,Wed Mar 18 2026 11:19:51 GMT-0400 (Eastern Daylight Time),139441.59999999404,A,ho,I,o,276,2,5699.9000000059605,133741.69999998808,9045,WL,C,6.0
1,36.049999952316284,learn,23950.000047683716,Wed Mar 18 2026 11:19:51 GMT-0400 (Eastern Daylight Time),143675.0,A,hom,I,m,4218,2,9933.300000011921,133741.69999998808,9045,WL,C,6.0
1,36.200000047683716,learn,23799.999952316284,Wed Mar 18 2026 11:19:51 GMT-0400 (Eastern Daylight Time),143824.79999999702,A,home,I,e,130,2,10083.10000000894,133741.69999998808,9045,WL,C,6.0
1,36.56599998474121,learn,23434.00001525879,Wed Mar 18 2026 11:19:51 GMT-0400 (Eastern Daylight Time),144191.19999998808,A,homeenter,I,enter,337,2,10449.5,133741.69999998808,9045,WL,C,6.0
1,37.73399996757507,learn,22266.000032424927,Wed Mar 18 2026 11:19:51 GMT-0400 (Eastern Daylight Time),145358.29999999702,A,c,I,c,1152,2,1166.7999999970198,144191.5,9045,WL,C,7.0
1,38.299999952316284,learn,21700.000047683716,Wed Mar 18 2026 11:19:51 GMT-0400 (Eastern Daylight Time),145925.0,A,ca,I,a,538,2,1733.5,144191.5,9045,WL,C,7.0
1,38.58400011062622,learn,21415.99988937378,Wed Mar 18 2026 11:19:51 GMT-0400 (Eastern Daylight Time),146208.29999999702,A,cas,I,s,262,2,2016.7999999970198,144191.5,9045,WL,C,7.0
1,40.18400001525879,learn,19815.99998474121,Wed Mar 18 2026 11:19:51 GMT-0400 (Eastern Daylight Time),147808.39999999106,A,casl,I,l,1577,2,3616.8999999910593,144191.5,9045,WL,C,7.0
1,40.93400001525879,learn,19065.99998474121,Wed Mar 18 2026 11:19:51 GMT-0400 (Eastern Daylight Time),148558.29999999702,A,cas,I,backspace,729,2,4366.79999999702,144191.5,9045,WL,C,7.0
1,41.18400001525879,learn,18815.99998474121,Wed Mar 18 2026 11:19:51 GMT-0400 (Eastern Daylight Time),148808.19999998808,A,cast,I,t,236,2,4616.699999988079,144191.5,9045,WL,C,7.0
1,41.48399996757507,learn,18516.000032424927,Wed Mar 18 2026 11:19:51 GMT-0400 (Eastern Daylight Time),149108.39999999106,A,castl,I,l,276,2,4916.899999991059,144191.5,9045,WL,C,7.0
1,41.73399996757507,learn,18266.000032424927,Wed Mar 18 2026 11:19:51 GMT-0400 (Eastern Daylight Time),149358.29999999702,A,castle,I,e,229,2,5166.79999999702,144191.5,9045,WL,C,7.0
1,42.032999992370605,learn,17967.000007629395,Wed Mar 18 2026 11:19:51 GMT-0400 (Eastern Daylight Time),149657.69999998808,A,castleenter,I,enter,285,2,5466.199999988079,144191.5,9045,WL,C,7.0
1,49.634000062942505,learn,10365.999937057495,Wed Mar 18 2026 11:19:51 GMT-0400 (Eastern Daylight Time),157258.29999999702,A,c,I,c,7589,2,7600.20000000298,149658.09999999404,9045,WL,C,8.0
1,49.799999952316284,learn,10200.000047683716,Wed Mar 18 2026 11:19:51 GMT-0400 (Eastern Daylight Time),157424.89999999106,A,co,I,o,144,2,7766.79999999702,149658.09999999404,9045,WL,C,8.0
1,50.049999952316284,learn,9950.000047683716,Wed Mar 18 2026 11:19:51 GMT-0400 (Eastern Daylight Time),157675.0,A,cor,I,r,233,2,8016.9000000059605,149658.09999999404,9045,WL,C,8.0
1,50.33299994468689,learn,9667.00005531311,Wed Mar 18 2026 11:19:51 GMT-0400 (Eastern Daylight Time),157958.19999998808,A,corn,I,n,256,2,8300.09999999404,149658.09999999404,9045,WL,C,8.0
1,51.06599998474121,learn,8934.000015258789,Wed Mar 18 2026 11:19:51 GMT-0400 (Eastern Daylight Time),158691.09999999404,A,cornenter,I,enter,709,2,9033.0,149658.09999999404,9045,WL,C,8.0
1,60.01699995994568,learn,-16.99995994567871,Wed Mar 18 2026 11:19:51 GMT-0400 (Eastern Daylight Time),167641.89999999106,A,None,I,None,8943,2,8950.29999999702,158691.59999999404,9045,WL,C,9.0
2,2.317000150680542,learn,57682.99984931946,Wed Mar 18 2026 11:19:51 GMT-0400 (Eastern Daylight Time),241241.59999999404,A,t,I,t,2305,2,2316.4000000059605,238925.19999998808,9045,WL,C,1.0
2,2.5829999446868896,learn,57417.00005531311,Wed Mar 18 2026 11:19:51 GMT-0400 (Eastern Daylight Time),241508.09999999404,A,to,I,o,242,2,2582.9000000059605,238925.19999998808,9045,WL,C,1.0
2,3.184000015258789,learn,56815.99998474121,Wed Mar 18 2026 11:19:51 GMT-0400 (Eastern Daylight Time),242108.39999999106,A,tow,I,w,579,2,3183.2000000029802,238925.19999998808,9045,WL,C,1.0
2,3.4000000953674316,learn,56599.99990463257,Wed Mar 18 2026 11:19:51 GMT-0400 (Eastern Daylight Time),242325.0,A,towe,I,e,189,2,3399.800000011921,238925.19999998808,9045,WL,C,1.0
2,3.6500000953674316,learn,56349.99990463257,Wed Mar 18 2026 11:19:51 GMT-0400 (Eastern Daylight Time),242575.09999999404,A,tower,I,r,231,2,3649.9000000059605,238925.19999998808,9045,WL,C,1.0
2,4.1000001430511475,learn,55899.99985694885,Wed Mar 18 2026 11:19:51 GMT-0400 (Eastern Daylight Time),243024.5,A,towerenter,I,enter,419,2,4099.300000011921,238925.19999998808,9045,WL,C,1.0
2,6.0,learn,54000.0,Wed Mar 18 2026 11:19:51 GMT-0400 (Eastern Daylight Time),244924.89999999106,A,q,I,q,1887,2,1900.0,243024.89999999106,9045,WL,C,2.0
2,6.950000047683716,learn,53049.999952316284,Wed Mar 18 2026 11:19:51 GMT-0400 (Eastern Daylight Time),245875.0,A,qu,I,u,927,2,2850.1000000089407,243024.89999999106,9045,WL,C,2.0
2,7.317000150680542,learn,52682.99984931946,Wed Mar 18 2026 11:19:51 GMT-0400 (Eastern Daylight Time),246241.69999998808,A,que,I,e,346,2,3216.7999999970198,243024.89999999106,9045,WL,C,2.0
2,7.549999952316284,learn,52450.000047683716,Wed Mar 18 2026 11:19:51 GMT-0400 (Eastern Daylight Time),246474.89999999106,A,quee,I,e,218,2,3450.0,243024.89999999106,9045,WL,C,2.0
2,7.900000095367432,learn,52099.99990463257,Wed Mar 18 2026 11:19:51 GMT-0400 (Eastern Daylight Time),246825.0,A,queen,I,n,337,2,3800.1000000089407,243024.89999999106,9045,WL,C,2.0
2,8.315999984741211,learn,51684.00001525879,Wed Mar 18 2026 11:19:51 GMT-0400 (Eastern Daylight Time),247241.19999998808,A,queenenter,I,enter,400,2,4216.29999999702,243024.89999999106,9045,WL,C,2.0
2,9.266999959945679,learn,50733.00004005432,Wed Mar 18 2026 11:19:51 GMT-0400 (Eastern Daylight Time),248191.69999998808,A,h,I,h,934,2,950.1999999880791,247241.5,9045,WL,C,3.0
2,9.634000062942505,learn,50365.999937057495,Wed Mar 18 2026 11:19:51 GMT-0400 (Eastern Daylight Time),248558.19999998808,A,ho,I,o,347,2,1316.699999988079,247241.5,9045,WL,C,3.0
2,10.0,learn,50000.0,Wed Mar 18 2026 11:19:51 GMT-0400 (Eastern Daylight Time),248924.89999999106,A,hom,I,m,350,2,1683.3999999910593,247241.5,9045,WL,C,3.0
2,10.58400011062622,learn,49415.99988937378,Wed Mar 18 2026 11:19:51 GMT-0400 (Eastern Daylight Time),249508.39999999106,A,home,I,e,559,2,2266.8999999910593,247241.5,9045,WL,C,3.0
2,10.850000143051147,learn,49149.99985694885,Wed Mar 18 2026 11:19:51 GMT-0400 (Eastern Daylight Time),249774.59999999404,A,homeenter,I,enter,246,2,2533.0999999940395,247241.5,9045,WL,C,3.0
2,14.766999959945679,learn,45233.00004005432,Wed Mar 18 2026 11:19:51 GMT-0400 (Eastern Daylight Time),253691.59999999404,A,b,I,b,3905,2,3916.7000000029802,249774.89999999106,9045,WL,C,4.0
2,15.384000062942505,learn,44615.999937057495,Wed Mar 18 2026 11:19:51 GMT-0400 (Eastern Daylight Time),254308.39999999106,A,bo,I,o,590,2,4533.5,249774.89999999106,9045,WL,C,4.0
2,16.01699995994568,learn,43983.00004005432,Wed Mar 18 2026 11:19:51 GMT-0400 (Eastern Daylight Time),254941.69999998808,A,boy,I,y,615,2,5166.79999999702,249774.89999999106,9045,WL,C,4.0
2,16.549999952316284,learn,43450.000047683716,Wed Mar 18 2026 11:19:51 GMT-0400 (Eastern Daylight Time),255474.5,A,boyenter,I,enter,510,2,5699.600000008941,249774.89999999106,9045,WL,C,4.0
2,18.08400011062622,learn,41915.99988937378,Wed Mar 18 2026 11:19:51 GMT-0400 (Eastern Daylight Time),257008.29999999702,A,c,I,c,1517,2,1533.4000000059605,255474.89999999106,9045,WL,C,5.0
2,19.600000143051147,learn,40399.99985694885,Wed Mar 18 2026 11:19:51 GMT-0400 (Eastern Daylight Time),258525.09999999404,A,ca,I,a,1498,2,3050.2000000029802,255474.89999999106,9045,WL,C,5.0
2,21.200000047683716,learn,38799.999952316284,Wed Mar 18 2026 11:19:51 GMT-0400 (Eastern Daylight Time),260124.89999999106,A,c,I,backspace,1583,2,4650.0,255474.89999999106,9045,WL,C,5.0
2,21.43400001525879,learn,38565.99998474121,Wed Mar 18 2026 11:19:51 GMT-0400 (Eastern Daylight Time),260358.39999999106,A,,I,backspace,224,2,4883.5,255474.89999999106,9045,WL,C,5.0
2,27.58400011062622,learn,32415.99988937378,Wed Mar 18 2026 11:19:51 GMT-0400 (Eastern Daylight Time),266508.299999997,A,w,I,w,6134,2,11033.40000000596,255474.89999999106,9045,WL,C,5.0
2,27.76699995994568,learn,32233.00004005432,Wed Mar 18 2026 11:19:51 GMT-0400 (Eastern Daylight Time),266691.799999997,A,wh,I,h,160,2,11216.90000000596,255474.89999999106,9045,WL,C,5.0
2,28.384000062942505,learn,31615.999937057495,Wed Mar 18 2026 11:19:51 GMT-0400 (Eastern Daylight Time),267308.799999997,A,whe,I,e,599,2,11833.90000000596,255474.89999999106,9045,WL,C,5.0
2,28.850000143051147,learn,31149.999856948853,Wed Mar 18 2026 11:19:51 GMT-0400 (Eastern Daylight Time),267774.89999999106,A,whea,I,a,452,2,12300.0,255474.89999999106,9045,WL,C,5.0
2,29.18400001525879,learn,30815.99998474121,Wed Mar 18 2026 11:19:51 GMT-0400 (Eastern Daylight Time),268108.299999997,A,wheat,I,t,317,2,12633.40000000596,255474.89999999106,9045,WL,C,5.0
2,29.48300004005432,learn,30516.99995994568,Wed Mar 18 2026 11:19:51 GMT-0400 (Eastern Daylight Time),268407.799999997,A,wheatenter,I,enter,286,2,12932.90000000596,255474.89999999106,9045,WL,C,5.0
2,30.534000158309937,learn,29465.999841690063,Wed Mar 18 2026 11:19:51 GMT-0400 (Eastern Daylight Time),269458.5,A,c,I,c,1032,2,1050.300000011921,268408.1999999881,9045,WL,C,6.0
2,30.784000158309937,learn,29215.999841690063,Wed Mar 18 2026 11:19:51 GMT-0400 (Eastern Daylight Time),269708.39999999106,A,co,I,o,233,2,1300.2000000029802,268408.1999999881,9045,WL,C,6.0
2,31.100000143051147,learn,28899.999856948853,Wed Mar 18 2026 11:19:51 GMT-0400 (Eastern Daylight Time),270025.0,A,cor,I,r,304,2,1616.800000011921,268408.1999999881,9045,WL,C,6.0
2,31.5,learn,28500.0,Wed Mar 18 2026 11:19:51 GMT-0400 (Eastern Daylight Time),270425.0,A,corn,I,n,388,2,2016.800000011921,268408.1999999881,9045,WL,C,6.0
2,31.98300004005432,learn,28016.99995994568,Wed Mar 18 2026 11:19:51 GMT-0400 (Eastern Daylight Time),270907.799999997,A,cornenter,I,enter,466,2,2499.6000000089407,268408.1999999881,9045,WL,C,6.0
2,35.799999952316284,learn,24200.000047683716,Wed Mar 18 2026 11:19:51 GMT-0400 (Eastern Daylight Time),274725.0,A,c,I,c,3795,2,3816.800000011921,270908.1999999881,9045,WL,C,7.0
2,36.18400001525879,learn,23815.99998474121,Wed Mar 18 2026 11:19:51 GMT-0400 (Eastern Daylight Time),275108.299999997,A,ca,I,a,360,2,4200.100000008941,270908.1999999881,9045,WL,C,7.0
2,36.700000047683716,learn,23299.999952316284,Wed Mar 18 2026 11:19:51 GMT-0400 (Eastern Daylight Time),275625.09999999404,A,cam,I,m,504,2,4716.9000000059605,270908.1999999881,9045,WL,C,7.0
2,37.467000007629395,learn,22532.999992370605,Wed Mar 18 2026 11:19:51 GMT-0400 (Eastern Daylight Time),276391.39999999106,A,camp,I,p,754,2,5483.20000000298,270908.1999999881,9045,WL,C,7.0
2,37.88300013542175,learn,22116.999864578247,Wed Mar 18 2026 11:19:51 GMT-0400 (Eastern Daylight Time),276807.799999997,A,campenter,I,enter,404,2,5899.600000008941,270908.1999999881,9045,WL,C,7.0
2,39.16700005531311,learn,20832.99994468689,Wed Mar 18 2026 11:19:51 GMT-0400 (Eastern Daylight Time),278091.59999999404,A,f,I,f,1272,2,1283.4000000059605,276808.1999999881,9045,WL,C,8.0
2,39.35000014305115,learn,20649.999856948853,Wed Mar 18 2026 11:19:51 GMT-0400 (Eastern Daylight Time),278275.0,A,fl,I,l,160,2,1466.800000011921,276808.1999999881,9045,WL,C,8.0
2,39.799999952316284,learn,20200.000047683716,Wed Mar 18 2026 11:19:51 GMT-0400 (Eastern Daylight Time),278725.09999999404,A,fla,I,a,417,2,1916.9000000059605,276808.1999999881,9045,WL,C,8.0
2,40.217000007629395,learn,19782.999992370605,Wed Mar 18 2026 11:19:51 GMT-0400 (Eastern Daylight Time),279141.6999999881,A,flaf,I,f,391,2,2333.5,276808.1999999881,9045,WL,C,8.0
2,40.90000009536743,learn,19099.99990463257,Wed Mar 18 2026 11:19:51 GMT-0400 (Eastern Daylight Time),279825.0,A,fla,I,backspace,663,2,3016.800000011921,276808.1999999881,9045,WL,C,8.0
2,41.117000102996826,learn,18882.999897003174,Wed Mar 18 2026 11:19:51 GMT-0400 (Eastern Daylight Time),280041.59999999404,A,flag,I,g,201,2,3233.4000000059605,276808.1999999881,9045,WL,C,8.0
2,41.51699995994568,learn,18483.00004005432,Wed Mar 18 2026 11:19:51 GMT-0400 (Eastern Daylight Time),280441.1999999881,A,flagenter,I,enter,386,2,3633.0,276808.1999999881,9045,WL,C,8.0
2,49.56700015068054,learn,10432.999849319458,Wed Mar 18 2026 11:19:51 GMT-0400 (Eastern Daylight Time),288491.59999999404,A,l,I,l,8039,2,8050.0,280441.59999999404,9045,WL,C,9.0
2,49.90000009536743,learn,10099.999904632568,Wed Mar 18 2026 11:19:51 GMT-0400 (Eastern Daylight Time),288825.09999999404,A,le,I,e,318,2,8383.5,280441.59999999404,9045,WL,C,9.0
2,50.28400015830994,learn,9715.999841690063,Wed Mar 18 2026 11:19:51 GMT-0400 (Eastern Daylight Time),289208.299999997,A,let,I,t,371,2,8766.70000000298,280441.59999999404,9045,WL,C,9.0
2,50.75,learn,9250.0,Wed Mar 18 2026 11:19:51 GMT-0400 (Eastern Daylight Time),289674.89999999106,A,lett,I,t,452,2,9233.29999999702,280441.59999999404,9045,WL,C,9.0
2,51.08400011062622,learn,8915.99988937378,Wed Mar 18 2026 11:19:51 GMT-0400 (Eastern Daylight Time),290008.299999997,A,lette,I,e,322,2,9566.70000000298,280441.59999999404,9045,WL,C,9.0
2,51.217000007629395,learn,8782.999992370605,Wed Mar 18 2026 11:19:51 GMT-0400 (Eastern Daylight Time),290141.59999999404,A,letter,I,r,117,2,9700.0,280441.59999999404,9045,WL,C,9.0
2,51.717000007629395,learn,8282.999992370605,Wed Mar 18 2026 11:19:51 GMT-0400 (Eastern Daylight Time),290641.1999999881,A,letterenter,I,enter,478,2,10199.59999999404,280441.59999999404,9045,WL,C,9.0
2,52.68400001525879,learn,7315.999984741211,Wed Mar 18 2026 11:19:51 GMT-0400 (Eastern Daylight Time),291608.1999999881,A,s,I,s,958,2,966.5999999940395,290641.59999999404,9045,WL,C,10.0
2,52.81700015068054,learn,7182.999849319458,Wed Mar 18 2026 11:19:51 GMT-0400 (Eastern Daylight Time),291741.6999999881,A,sh,I,h,116,2,1100.0999999940395,290641.59999999404,9045,WL,C,10.0
2,53.16700005531311,learn,6832.99994468689,Wed Mar 18 2026 11:19:51 GMT-0400 (Eastern Daylight Time),292091.59999999404,A,sho,I,o,332,2,1450.0,290641.59999999404,9045,WL,C,10.0
2,53.65000009536743,learn,6349.999904632568,Wed Mar 18 2026 11:19:51 GMT-0400 (Eastern Daylight Time),292575.09999999404,A,shor,I,r,464,2,1933.5,290641.59999999404,9045,WL,C,10.0
2,53.967000007629395,learn,6032.9999923706055,Wed Mar 18 2026 11:19:51 GMT-0400 (Eastern Daylight Time),292891.6999999881,A,shore,I,e,301,2,2250.0999999940395,290641.59999999404,9045,WL,C,10.0
2,54.31700015068054,learn,5682.999849319458,Wed Mar 18 2026 11:19:51 GMT-0400 (Eastern Daylight Time),293241.09999999404,A,shoreenter,I,enter,337,2,2599.5,290641.59999999404,9045,WL,C,10.0
2,56.10000014305115,learn,3899.9998569488525,Wed Mar 18 2026 11:19:51 GMT-0400 (Eastern Daylight Time),295025.09999999404,A,b,I,b,1766,2,1783.5,293241.59999999404,9045,WL,C,11.0
2,56.700000047683716,learn,3299.999952316284,Wed Mar 18 2026 11:19:51 GMT-0400 (Eastern Daylight Time),295625.0,A,bo,I,o,587,2,2383.4000000059605,293241.59999999404,9045,WL,C,11.0
2,57.16700005531311,learn,2832.9999446868896,Wed Mar 18 2026 11:19:51 GMT-0400 (Eastern Daylight Time),296091.6999999881,A,bod,I,d,452,2,2850.0999999940395,293241.59999999404,9045,WL,C,11.0
2,57.53400015830994,learn,2465.9998416900635,Wed Mar 18 2026 11:19:51 GMT-0400 (Eastern Daylight Time),296458.299999997,A,body,I,y,353,2,3216.7000000029802,293241.59999999404,9045,WL,C,11.0
2,58.032999992370605,learn,1967.0000076293945,Wed Mar 18 2026 11:19:51 GMT-0400 (Eastern Daylight Time),296957.89999999106,A,bodyenter,I,enter,480,2,3716.2999999970198,293241.59999999404,9045,WL,C,11.0
2,60.01699995994568,learn,-16.99995994567871,Wed Mar 18 2026 11:19:51 GMT-0400 (Eastern Daylight Time),298941.89999999106,A,None,I,None,1977,2,1983.7999999970198,296958.09999999404,9045,WL,C,12.0
3,1.6170001029968262,learn,58382.999897003174,Wed Mar 18 2026 11:19:51 GMT-0400 (Eastern Daylight Time),369808.39999999106,A,n,I,n,1598,2,1616.0999999940395,368192.299999997,9045,WL,C,1.0
3,2.067000150680542,learn,57932.99984931946,Wed Mar 18 2026 11:19:51 GMT-0400 (Eastern Daylight Time),370258.39999999106,A,na,I,a,429,2,2066.0999999940395,368192.299999997,9045,WL,C,1.0
3,2.2829999923706055,learn,57717.000007629395,Wed Mar 18 2026 11:19:51 GMT-0400 (Eastern Daylight Time),370475.0,A,nai,I,i,202,2,2282.7000000029802,368192.299999997,9045,WL,C,1.0
3,2.6000001430511475,learn,57399.99985694885,Wed Mar 18 2026 11:19:51 GMT-0400 (Eastern Daylight Time),370791.39999999106,A,nail,I,l,306,2,2599.0999999940395,368192.299999997,9045,WL,C,1.0
3,3.9830000400543213,learn,56016.99995994568,Wed Mar 18 2026 11:19:51 GMT-0400 (Eastern Daylight Time),372174.59999999404,A,nailenter,I,enter,1364,2,3982.2999999970198,368192.299999997,9045,WL,C,1.0
3,4.933000087738037,learn,55066.99991226196,Wed Mar 18 2026 11:19:51 GMT-0400 (Eastern Daylight Time),373125.09999999404,A,c,I,c,928,2,950.2000000029802,372174.89999999106,9045,WL,C,2.0
3,5.4670000076293945,learn,54532.999992370605,Wed Mar 18 2026 11:19:51 GMT-0400 (Eastern Daylight Time),373658.299999997,A,ca,I,a,520,2,1483.4000000059605,372174.89999999106,9045,WL,C,2.0
3,5.91700005531311,learn,54082.99994468689,Wed Mar 18 2026 11:19:51 GMT-0400 (Eastern Daylight Time),374108.39999999106,A,cat,I,t,434,2,1933.5,372174.89999999106,9045,WL,C,2.0
3,6.133000135421753,learn,53866.99986457825,Wed Mar 18 2026 11:19:51 GMT-0400 (Eastern Daylight Time),374325.09999999404,A,catt,I,t,190,2,2150.2000000029802,372174.89999999106,9045,WL,C,2.0
3,6.333000183105469,learn,53666.99981689453,Wed Mar 18 2026 11:19:51 GMT-0400 (Eastern Daylight Time),374525.09999999404,A,cattl,I,l,183,2,2350.2000000029802,372174.89999999106,9045,WL,C,2.0
3,6.6000001430511475,learn,53399.99985694885,Wed Mar 18 2026 11:19:51 GMT-0400 (Eastern Daylight Time),374791.39999999106,A,cattle,I,e,255,2,2616.5,372174.89999999106,9045,WL,C,2.0
3,6.883000135421753,learn,53116.99986457825,Wed Mar 18 2026 11:19:51 GMT-0400 (Eastern Daylight Time),375074.6999999881,A,cattleenter,I,enter,259,2,2899.7999999970198,372174.89999999106,9045,WL,C,2.0
3,7.800000190734863,learn,52199.99980926514,Wed Mar 18 2026 11:19:51 GMT-0400 (Eastern Daylight Time),375991.39999999106,A,s,I,s,909,2,916.3999999910593,375075.0,9045,WL,C,3.0
3,7.933000087738037,learn,52066.99991226196,Wed Mar 18 2026 11:19:51 GMT-0400 (Eastern Daylight Time),376125.0,A,sh,I,h,116,2,1050.0,375075.0,9045,WL,C,3.0
3,8.700000047683716,learn,51299.999952316284,Wed Mar 18 2026 11:19:51 GMT-0400 (Eastern Daylight Time),376891.6999999881,A,sho,I,o,751,2,1816.699999988079,375075.0,9045,WL,C,3.0
3,9.233000040054321,learn,50766.99995994568,Wed Mar 18 2026 11:19:51 GMT-0400 (Eastern Daylight Time),377424.89999999106,A,shor,I,r,512,2,2349.8999999910593,375075.0,9045,WL,C,3.0
3,9.350000143051147,learn,50649.99985694885,Wed Mar 18 2026 11:19:51 GMT-0400 (Eastern Daylight Time),377541.6999999881,A,shore,I,e,92,2,2466.699999988079,375075.0,9045,WL,C,3.0
3,9.75,learn,50250.0,Wed Mar 18 2026 11:19:51 GMT-0400 (Eastern Daylight Time),377941.5,A,shoreenter,I,enter,389,2,2866.5,375075.0,9045,WL,C,3.0
3,10.617000102996826,learn,49382.999897003174,Wed Mar 18 2026 11:19:51 GMT-0400 (Eastern Daylight Time),378808.299999997,A,b,I,b,858,2,866.6000000089407,377941.6999999881,9045,WL,C,4.0
3,11.16700005531311,learn,48832.99994468689,Wed Mar 18 2026 11:19:51 GMT-0400 (Eastern Daylight Time),379358.39999999106,A,bo,I,o,530,2,1416.7000000029802,377941.6999999881,9045,WL,C,4.0
3,11.850000143051147,learn,48149.99985694885,Wed Mar 18 2026 11:19:51 GMT-0400 (Eastern Daylight Time),380041.59999999404,A,bod,I,d,669,2,2099.9000000059605,377941.6999999881,9045,WL,C,4.0
3,12.333000183105469,learn,47666.99981689453,Wed Mar 18 2026 11:19:51 GMT-0400 (Eastern Daylight Time),380525.0,A,body,I,y,466,2,2583.300000011921,377941.6999999881,9045,WL,C,4.0
3,12.850000143051147,learn,47149.99985694885,Wed Mar 18 2026 11:19:51 GMT-0400 (Eastern Daylight Time),381041.299999997,A,bodyenter,I,enter,491,2,3099.6000000089407,377941.6999999881,9045,WL,C,4.0
3,13.450000047683716,learn,46549.999952316284,Wed Mar 18 2026 11:19:51 GMT-0400 (Eastern Daylight Time),381641.799999997,A,t,I,t,590,2,600.2000000029802,381041.59999999404,9045,WL,C,5.0
3,13.867000102996826,learn,46132.999897003174,Wed Mar 18 2026 11:19:51 GMT-0400 (Eastern Daylight Time),382058.39999999106,A,to,I,o,402,2,1016.7999999970198,381041.59999999404,9045,WL,C,5.0
3,14.66700005531311,learn,45332.99994468689,Wed Mar 18 2026 11:19:51 GMT-0400 (Eastern Daylight Time),382858.5,A,tow,I,w,780,2,1816.9000000059605,381041.59999999404,9045,WL,C,5.0
3,14.883000135421753,learn,45116.99986457825,Wed Mar 18 2026 11:19:51 GMT-0400 (Eastern Daylight Time),383075.0,A,towe,I,e,192,2,2033.4000000059605,381041.59999999404,9045,WL,C,5.0
3,15.200000047683716,learn,44799.999952316284,Wed Mar 18 2026 11:19:51 GMT-0400 (Eastern Daylight Time),383391.6999999881,A,tower,I,r,289,2,2350.0999999940395,381041.59999999404,9045,WL,C,5.0
3,15.532999992370605,learn,44467.000007629395,Wed Mar 18 2026 11:19:51 GMT-0400 (Eastern Daylight Time),383724.59999999404,A,towerenter,I,enter,315,2,2683.0,381041.59999999404,9045,WL,C,5.0
3,16.782999992370605,learn,43217.000007629395,Wed Mar 18 2026 11:19:51 GMT-0400 (Eastern Daylight Time),384974.89999999106,A,w,I,w,1235,2,1249.8999999910593,383725.0,9045,WL,C,6.0
3,16.98300004005432,learn,43016.99995994568,Wed Mar 18 2026 11:19:51 GMT-0400 (Eastern Daylight Time),385174.59999999404,A,wh,I,h,189,2,1449.5999999940395,383725.0,9045,WL,C,6.0
3,17.217000007629395,learn,42782.999992370605,Wed Mar 18 2026 11:19:51 GMT-0400 (Eastern Daylight Time),385408.39999999106,A,wha,I,a,214,2,1683.3999999910593,383725.0,9045,WL,C,6.0
3,17.550000190734863,learn,42449.99980926514,Wed Mar 18 2026 11:19:51 GMT-0400 (Eastern Daylight Time),385741.6999999881,A,whae,I,e,315,2,2016.699999988079,383725.0,9045,WL,C,6.0
3,18.933000087738037,learn,41066.99991226196,Wed Mar 18 2026 11:19:51 GMT-0400 (Eastern Daylight Time),387125.09999999404,A,wha,I,backspace,1359,2,3400.0999999940395,383725.0,9045,WL,C,6.0
3,19.133000135421753,learn,40866.99986457825,Wed Mar 18 2026 11:19:51 GMT-0400 (Eastern Daylight Time),387325.0,A,wh,I,backspace,183,2,3600.0,383725.0,9045,WL,C,6.0
3,20.08300018310547,learn,39916.99981689453,Wed Mar 18 2026 11:19:51 GMT-0400 (Eastern Daylight Time),388275.09999999404,A,whe,I,e,918,2,4550.0999999940395,383725.0,9045,WL,C,6.0
3,20.450000047683716,learn,39549.999952316284,Wed Mar 18 2026 11:19:51 GMT-0400 (Eastern Daylight Time),388641.59999999404,A,whea,I,a,345,2,4916.5999999940395,383725.0,9045,WL,C,6.0
3,20.800000190734863,learn,39199.99980926514,Wed Mar 18 2026 11:19:51 GMT-0400 (Eastern Daylight Time),388991.6999999881,A,wheat,I,t,328,2,5266.699999988079,383725.0,9045,WL,C,6.0
3,21.366000175476074,learn,38633.999824523926,Wed Mar 18 2026 11:19:51 GMT-0400 (Eastern Daylight Time),389557.799999997,A,wheatenter,I,enter,539,2,5832.79999999702,383725.0,9045,WL,C,6.0
3,22.200000047683716,learn,37799.999952316284,Wed Mar 18 2026 11:19:51 GMT-0400 (Eastern Daylight Time),390391.5,A,c,I,c,826,2,833.3000000119209,389558.1999999881,9045,WL,C,7.0
3,22.41700005531311,learn,37582.99994468689,Wed Mar 18 2026 11:19:51 GMT-0400 (Eastern Daylight Time),390608.39999999106,A,co,I,o,196,2,1050.2000000029802,389558.1999999881,9045,WL,C,7.0
3,22.90000009536743,learn,37099.99990463257,Wed Mar 18 2026 11:19:51 GMT-0400 (Eastern Daylight Time),391091.6999999881,A,cor,I,r,458,2,1533.5,389558.1999999881,9045,WL,C,7.0
3,23.133000135421753,learn,36866.99986457825,Wed Mar 18 2026 11:19:51 GMT-0400 (Eastern Daylight Time),391325.0,A,corn,I,n,215,2,1766.800000011921,389558.1999999881,9045,WL,C,7.0
3,23.683000087738037,learn,36316.99991226196,Wed Mar 18 2026 11:19:51 GMT-0400 (Eastern Daylight Time),391874.59999999404,A,cornenter,I,enter,526,2,2316.4000000059605,389558.1999999881,9045,WL,C,7.0
3,25.383000135421753,learn,34616.99986457825,Wed Mar 18 2026 11:19:51 GMT-0400 (Eastern Daylight Time),393574.89999999106,A,q,I,q,1692,2,1699.8999999910593,391875.0,9045,WL,C,8.0
3,25.66700005531311,learn,34332.99994468689,Wed Mar 18 2026 11:19:51 GMT-0400 (Eastern Daylight Time),393858.39999999106,A,qu,I,u,261,2,1983.3999999910593,391875.0,9045,WL,C,8.0
3,25.98300004005432,learn,34016.99995994568,Wed Mar 18 2026 11:19:51 GMT-0400 (Eastern Daylight Time),394175.0,A,que,I,e,297,2,2300.0,391875.0,9045,WL,C,8.0
3,26.200000047683716,learn,33799.999952316284,Wed Mar 18 2026 11:19:51 GMT-0400 (Eastern Daylight Time),394391.5,A,quee,I,e,204,2,2516.5,391875.0,9045,WL,C,8.0
3,26.967000007629395,learn,33032.999992370605,Wed Mar 18 2026 11:19:51 GMT-0400 (Eastern Daylight Time),395158.5,A,queen,I,n,749,2,3283.5,391875.0,9045,WL,C,8.0
3,27.450000047683716,learn,32549.999952316284,Wed Mar 18 2026 11:19:51 GMT-0400 (Eastern Daylight Time),395641.1999999881,A,queenenter,I,enter,470,2,3766.199999988079,391875.0,9045,WL,C,8.0
3,28.867000102996826,learn,31132.999897003174,Wed Mar 18 2026 11:19:51 GMT-0400 (Eastern Daylight Time),397058.39999999106,A,h,I,h,1398,2,1416.7999999970198,395641.59999999404,9045,WL,C,9.0
3,29.517000198364258,learn,30482.999801635742,Wed Mar 18 2026 11:19:51 GMT-0400 (Eastern Daylight Time),397708.39999999106,A,ho,I,o,633,2,2066.7999999970198,395641.59999999404,9045,WL,C,9.0
3,30.567000150680542,learn,29432.999849319458,Wed Mar 18 2026 11:19:51 GMT-0400 (Eastern Daylight Time),398758.59999999404,A,hom,I,m,1040,2,3117.0,395641.59999999404,9045,WL,C,9.0
3,30.867000102996826,learn,29132.999897003174,Wed Mar 18 2026 11:19:51 GMT-0400 (Eastern Daylight Time),399058.299999997,A,home,I,e,278,2,3416.7000000029802,395641.59999999404,9045,WL,C,9.0
3,31.16600012779236,learn,28833.99987220764,Wed Mar 18 2026 11:19:51 GMT-0400 (Eastern Daylight Time),399357.89999999106,A,homeenter,I,enter,280,2,3716.2999999970198,395641.59999999404,9045,WL,C,9.0
3,33.75,learn,26250.0,Wed Mar 18 2026 11:19:51 GMT-0400 (Eastern Daylight Time),401941.6999999881,A,b,I,b,2562,2,2583.3999999910593,399358.299999997,9045,WL,C,10.0
3,33.98300004005432,learn,26016.99995994568,Wed Mar 18 2026 11:19:51 GMT-0400 (Eastern Daylight Time),402175.0,A,bo,I,o,215,2,2816.7000000029802,399358.299999997,9045,WL,C,10.0
3,34.60000014305115,learn,25399.999856948853,Wed Mar 18 2026 11:19:51 GMT-0400 (Eastern Daylight Time),402791.5,A,boy,I,y,604,2,3433.2000000029802,399358.299999997,9045,WL,C,10.0
3,36.16600012779236,learn,23833.99987220764,Wed Mar 18 2026 11:19:51 GMT-0400 (Eastern Daylight Time),404357.799999997,A,boyenter,I,enter,1553,2,4999.5,399358.299999997,9045,WL,C,10.0
3,37.56700015068054,learn,22432.999849319458,Wed Mar 18 2026 11:19:51 GMT-0400 (Eastern Daylight Time),405758.39999999106,A,c,I,c,1385,2,1400.2999999970198,404358.09999999404,9045,WL,C,11.0
3,39.200000047683716,learn,20799.999952316284,Wed Mar 18 2026 11:19:51 GMT-0400 (Eastern Daylight Time),407391.59999999404,A,cm,I,m,1614,2,3033.5,404358.09999999404,9045,WL,C,11.0
3,39.48300004005432,learn,20516.99995994568,Wed Mar 18 2026 11:19:51 GMT-0400 (Eastern Daylight Time),407674.89999999106,A,cma,I,a,269,2,3316.7999999970198,404358.09999999404,9045,WL,C,11.0
3,39.80000019073486,learn,20199.999809265137,Wed Mar 18 2026 11:19:51 GMT-0400 (Eastern Daylight Time),407991.5,A,cmap,I,p,305,2,3633.4000000059605,404358.09999999404,9045,WL,C,11.0
3,40.282999992370605,learn,19717.000007629395,Wed Mar 18 2026 11:19:51 GMT-0400 (Eastern Daylight Time),408474.59999999404,A,cmapenter,I,enter,468,2,4116.5,404358.09999999404,9045,WL,C,11.0
3,41.41700005531311,learn,18582.99994468689,Wed Mar 18 2026 11:19:51 GMT-0400 (Eastern Daylight Time),409608.299999997,A,c,I,c,1125,2,1133.4000000059605,408474.89999999106,9045,WL,C,12.0
3,41.76700019836426,learn,18232.999801635742,Wed Mar 18 2026 11:19:51 GMT-0400 (Eastern Daylight Time),409958.39999999106,A,ca,I,a,323,2,1483.5,408474.89999999106,9045,WL,C,12.0
3,41.98300004005432,learn,18016.99995994568,Wed Mar 18 2026 11:19:51 GMT-0400 (Eastern Daylight Time),410175.09999999404,A,cam,I,m,197,2,1700.2000000029802,408474.89999999106,9045,WL,C,12.0
3,42.282999992370605,learn,17717.000007629395,Wed Mar 18 2026 11:19:51 GMT-0400 (Eastern Daylight Time),410475.09999999404,A,camp,I,p,285,2,2000.2000000029802,408474.89999999106,9045,WL,C,12.0
3,42.96600008010864,learn,17033.999919891357,Wed Mar 18 2026 11:19:51 GMT-0400 (Eastern Daylight Time),411157.59999999404,A,campenter,I,enter,672,2,2682.7000000029802,408474.89999999106,9045,WL,C,12.0
3,44.5,learn,15500.0,Wed Mar 18 2026 11:19:51 GMT-0400 (Eastern Daylight Time),412691.6999999881,A,d,I,d,1514,2,1533.8999999910593,411157.799999997,9045,WL,C,13.0
3,44.68300008773804,learn,15316.999912261963,Wed Mar 18 2026 11:19:51 GMT-0400 (Eastern Daylight Time),412875.0,A,do,I,o,169,2,1717.2000000029802,411157.799999997,9045,WL,C,13.0
3,44.950000047683716,learn,15049.999952316284,Wed Mar 18 2026 11:19:51 GMT-0400 (Eastern Daylight Time),413141.89999999106,A,dor,I,r,240,2,1984.0999999940395,411157.799999997,9045,WL,C,13.0
3,45.58300018310547,learn,14416.999816894531,Wed Mar 18 2026 11:19:51 GMT-0400 (Eastern Daylight Time),413775.09999999404,A,do,I,backspace,615,2,2617.2999999970198,411157.799999997,9045,WL,C,13.0
3,46.200000047683716,learn,13799.999952316284,Wed Mar 18 2026 11:19:51 GMT-0400 (Eastern Daylight Time),414391.5,A,doc,I,c,605,2,3233.7000000029802,411157.799999997,9045,WL,C,13.0
3,46.55000019073486,learn,13449.999809265137,Wed Mar 18 2026 11:19:51 GMT-0400 (Eastern Daylight Time),414741.59999999404,A,doct,I,t,321,2,3583.7999999970198,411157.799999997,9045,WL,C,13.0
3,46.81700015068054,learn,13182.999849319458,Wed Mar 18 2026 11:19:51 GMT-0400 (Eastern Daylight Time),415008.39999999106,A,docto,I,o,238,2,3850.5999999940395,411157.799999997,9045,WL,C,13.0
3,48.40000009536743,learn,11599.999904632568,Wed Mar 18 2026 11:19:51 GMT-0400 (Eastern Daylight Time),416591.59999999404,A,doctor,I,r,1564,2,5433.79999999702,411157.799999997,9045,WL,C,13.0
3,48.76600003242493,learn,11233.999967575073,Wed Mar 18 2026 11:19:51 GMT-0400 (Eastern Daylight Time),416957.89999999106,A,doctorenter,I,enter,348,2,5800.0999999940395,411157.799999997,9045,WL,C,13.0
3,56.18300008773804,learn,3816.999912261963,Wed Mar 18 2026 11:19:51 GMT-0400 (Eastern Daylight Time),424375.0,A,l,I,l,7394,2,7416.800000011921,416958.1999999881,9045,WL,C,14.0
3,56.43300008773804,learn,3566.999912261963,Wed Mar 18 2026 11:19:51 GMT-0400 (Eastern Daylight Time),424625.09999999404,A,le,I,e,230,2,7666.9000000059605,416958.1999999881,9045,WL,C,14.0
3,56.76700019836426,learn,3232.999801635742,Wed Mar 18 2026 11:19:51 GMT-0400 (Eastern Daylight Time),424958.299999997,A,let,I,t,306,2,8000.100000008941,416958.1999999881,9045,WL,C,14.0
3,57.200000047683716,learn,2799.999952316284,Wed Mar 18 2026 11:19:51 GMT-0400 (Eastern Daylight Time),425391.6999999881,A,lett,I,t,411,2,8433.5,416958.1999999881,9045,WL,C,14.0
3,57.5,learn,2500.0,Wed Mar 18 2026 11:19:51 GMT-0400 (Eastern Daylight Time),425691.89999999106,A,lette,I,e,285,2,8733.70000000298,416958.1999999881,9045,WL,C,14.0
3,57.60000014305115,learn,2399.9998569488525,Wed Mar 18 2026 11:19:51 GMT-0400 (Eastern Daylight Time),425791.6999999881,A,letter,I,r,79,2,8833.5,416958.1999999881,9045,WL,C,14.0
3,57.88300013542175,learn,2116.999864578247,Wed Mar 18 2026 11:19:51 GMT-0400 (Eastern Daylight Time),426074.5,A,letterenter,I,enter,268,2,9116.300000011921,416958.1999999881,9045,WL,C,14.0
3,58.75,learn,1250.0,Wed Mar 18 2026 11:19:51 GMT-0400 (Eastern Daylight Time),426941.59999999404,A,f,I,f,853,2,866.7000000029802,426074.89999999106,9045,WL,C,15.0
3,58.967000007629395,learn,1032.9999923706055,Wed Mar 18 2026 11:19:51 GMT-0400 (Eastern Daylight Time),427158.5,A,fl,I,l,206,2,1083.6000000089407,426074.89999999106,9045,WL,C,15.0
3,59.367000102996826,learn,632.9998970031738,Wed Mar 18 2026 11:19:51 GMT-0400 (Eastern Daylight Time),427558.59999999404,A,fla,I,a,389,2,1483.7000000029802,426074.89999999106,9045,WL,C,15.0
3,60.01700019836426,learn,-17.000198364257812,Wed Mar 18 2026 11:19:51 GMT-0400 (Eastern Daylight Time),428208.59999999404,A,flaNone,I,None,640,2,2133.7000000029802,426074.89999999106,9045,WL,C,15.0
4,2.0830001831054688,learn,57916.99981689453,Wed Mar 18 2026 11:19:51 GMT-0400 (Eastern Daylight Time),496991.799999997,A,n,I,n,2065,2,2082.9000000059605,494908.89999999106,9045,WL,C,1.0
4,2.383000135421753,learn,57616.99986457825,Wed Mar 18 2026 11:19:51 GMT-0400 (Eastern Daylight Time),497291.6999999881,A,na,I,a,284,2,2382.7999999970198,494908.89999999106,9045,WL,C,1.0
4,2.6500000953674316,learn,57349.99990463257,Wed Mar 18 2026 11:19:51 GMT-0400 (Eastern Daylight Time),497558.39999999106,A,nai,I,i,240,2,2649.5,494908.89999999106,9045,WL,C,1.0
4,2.9830000400543213,learn,57016.99995994568,Wed Mar 18 2026 11:19:51 GMT-0400 (Eastern Daylight Time),497891.6999999881,A,nail,I,l,310,2,2982.7999999970198,494908.89999999106,9045,WL,C,1.0
4,3.3990001678466797,learn,56600.99983215332,Wed Mar 18 2026 11:19:51 GMT-0400 (Eastern Daylight Time),498307.89999999106,A,nailenter,I,enter,391,2,3399.0,494908.89999999106,9045,WL,C,1.0
4,3.8500001430511475,learn,56149.99985694885,Wed Mar 18 2026 11:19:51 GMT-0400 (Eastern Daylight Time),498758.299999997,A,c,I,c,427,2,450.0,498308.299999997,9045,WL,C,2.0
4,4.25,learn,55750.0,Wed Mar 18 2026 11:19:51 GMT-0400 (Eastern Daylight Time),499158.299999997,A,ca,I,a,371,2,850.0,498308.299999997,9045,WL,C,2.0
4,4.616000175476074,learn,55383.999824523926,Wed Mar 18 2026 11:19:51 GMT-0400 (Eastern Daylight Time),499525.09999999404,A,cat,I,t,342,2,1216.7999999970198,498308.299999997,9045,WL,C,2.0
4,4.815999984741211,learn,55184.00001525879,Wed Mar 18 2026 11:19:51 GMT-0400 (Eastern Daylight Time),499725.09999999404,A,catt,I,t,183,2,1416.7999999970198,498308.299999997,9045,WL,C,2.0
4,5.0,learn,55000.0,Wed Mar 18 2026 11:19:51 GMT-0400 (Eastern Daylight Time),499908.299999997,A,cattl,I,l,155,2,1600.0,498308.299999997,9045,WL,C,2.0
4,5.200000047683716,learn,54799.999952316284,Wed Mar 18 2026 11:19:51 GMT-0400 (Eastern Daylight Time),500108.5,A,cattle,I,e,176,2,1800.2000000029802,498308.299999997,9045,WL,C,2.0
4,6.233000040054321,learn,53766.99995994568,Wed Mar 18 2026 11:19:51 GMT-0400 (Eastern Daylight Time),501141.299999997,A,cattleenter,I,enter,996,2,2833.0,498308.299999997,9045,WL,C,2.0
4,7.083000183105469,learn,52916.99981689453,Wed Mar 18 2026 11:19:51 GMT-0400 (Eastern Daylight Time),501991.5,A,s,I,s,842,2,849.9000000059605,501141.59999999404,9045,WL,C,3.0
4,7.266000032424927,learn,52733.99996757507,Wed Mar 18 2026 11:19:51 GMT-0400 (Eastern Daylight Time),502175.09999999404,A,sh,I,h,165,2,1033.5,501141.59999999404,9045,WL,C,3.0
4,7.766000032424927,learn,52233.99996757507,Wed Mar 18 2026 11:19:51 GMT-0400 (Eastern Daylight Time),502675.09999999404,A,sho,I,o,477,2,1533.5,501141.59999999404,9045,WL,C,3.0
4,8.133000135421753,learn,51866.99986457825,Wed Mar 18 2026 11:19:51 GMT-0400 (Eastern Daylight Time),503041.799999997,A,shor,I,r,344,2,1900.2000000029802,501141.59999999404,9045,WL,C,3.0
4,8.266000032424927,learn,51733.99996757507,Wed Mar 18 2026 11:19:51 GMT-0400 (Eastern Daylight Time),503174.89999999106,A,shore,I,e,108,2,2033.2999999970198,501141.59999999404,9045,WL,C,3.0
4,8.549000024795532,learn,51450.99997520447,Wed Mar 18 2026 11:19:51 GMT-0400 (Eastern Daylight Time),503457.89999999106,A,shoreenter,I,enter,260,2,2316.2999999970198,501141.59999999404,9045,WL,C,3.0
4,9.883000135421753,learn,50116.99986457825,Wed Mar 18 2026 11:19:51 GMT-0400 (Eastern Daylight Time),504791.39999999106,A,b,I,b,1326,2,1333.0,503458.39999999106,9045,WL,C,4.0
4,10.050000190734863,learn,49949.99980926514,Wed Mar 18 2026 11:19:51 GMT-0400 (Eastern Daylight Time),504958.39999999106,A,bo,I,o,147,2,1500.0,503458.39999999106,9045,WL,C,4.0
4,10.583000183105469,learn,49416.99981689453,Wed Mar 18 2026 11:19:51 GMT-0400 (Eastern Daylight Time),505491.799999997,A,bod,I,d,511,2,2033.4000000059605,503458.39999999106,9045,WL,C,4.0
4,10.866000175476074,learn,49133.999824523926,Wed Mar 18 2026 11:19:51 GMT-0400 (Eastern Daylight Time),505775.09999999404,A,body,I,y,264,2,2316.7000000029802,503458.39999999106,9045,WL,C,4.0
4,11.249000072479248,learn,48750.99992752075,Wed Mar 18 2026 11:19:51 GMT-0400 (Eastern Daylight Time),506157.89999999106,A,bodyenter,I,enter,365,2,2699.5,503458.39999999106,9045,WL,C,4.0
4,12.350000143051147,learn,47649.99985694885,Wed Mar 18 2026 11:19:51 GMT-0400 (Eastern Daylight Time),507258.5,A,t,I,t,1090,2,1100.1000000089407,506158.39999999106,9045,WL,C,5.0
4,12.800000190734863,learn,47199.99980926514,Wed Mar 18 2026 11:19:51 GMT-0400 (Eastern Daylight Time),507708.39999999106,A,to,I,o,431,2,1550.0,506158.39999999106,9045,WL,C,5.0
4,13.266000032424927,learn,46733.99996757507,Wed Mar 18 2026 11:19:51 GMT-0400 (Eastern Daylight Time),508175.09999999404,A,tow,I,w,447,2,2016.7000000029802,506158.39999999106,9045,WL,C,5.0
4,13.516000032424927,learn,46483.99996757507,Wed Mar 18 2026 11:19:51 GMT-0400 (Eastern Daylight Time),508425.09999999404,A,towe,I,e,237,2,2266.7000000029802,506158.39999999106,9045,WL,C,5.0
4,13.800000190734863,learn,46199.99980926514,Wed Mar 18 2026 11:19:51 GMT-0400 (Eastern Daylight Time),508708.5,A,tower,I,r,259,2,2550.1000000089407,506158.39999999106,9045,WL,C,5.0
4,14.815999984741211,learn,45184.00001525879,Wed Mar 18 2026 11:19:51 GMT-0400 (Eastern Daylight Time),509724.6999999881,A,towerenter,I,enter,999,2,3566.2999999970198,506158.39999999106,9045,WL,C,5.0
4,16.06599998474121,learn,43934.00001525879,Wed Mar 18 2026 11:19:51 GMT-0400 (Eastern Daylight Time),510975.09999999404,A,h,I,h,1235,2,1250.2000000029802,509724.89999999106,9045,WL,C,6.0
4,16.532999992370605,learn,43467.000007629395,Wed Mar 18 2026 11:19:51 GMT-0400 (Eastern Daylight Time),511441.799999997,A,ho,I,o,445,2,1716.9000000059605,509724.89999999106,9045,WL,C,6.0
4,16.800000190734863,learn,43199.99980926514,Wed Mar 18 2026 11:19:51 GMT-0400 (Eastern Daylight Time),511708.39999999106,A,hom,I,m,249,2,1983.5,509724.89999999106,9045,WL,C,6.0
4,17.183000087738037,learn,42816.99991226196,Wed Mar 18 2026 11:19:51 GMT-0400 (Eastern Daylight Time),512091.6999999881,A,home,I,e,367,2,2366.7999999970198,509724.89999999106,9045,WL,C,6.0
4,17.39900016784668,learn,42600.99983215332,Wed Mar 18 2026 11:19:51 GMT-0400 (Eastern Daylight Time),512307.89999999106,A,homeenter,I,enter,191,2,2583.0,509724.89999999106,9045,WL,C,6.0
4,20.450000047683716,learn,39549.999952316284,Wed Mar 18 2026 11:19:51 GMT-0400 (Eastern Daylight Time),515358.5,A,q,I,q,3035,2,3050.300000011921,512308.1999999881,9045,WL,C,7.0
4,20.866000175476074,learn,39133.999824523926,Wed Mar 18 2026 11:19:51 GMT-0400 (Eastern Daylight Time),515775.09999999404,A,qu,I,u,398,2,3466.9000000059605,512308.1999999881,9045,WL,C,7.0
4,21.532999992370605,learn,38467.000007629395,Wed Mar 18 2026 11:19:51 GMT-0400 (Eastern Daylight Time),516441.59999999404,A,que,I,e,653,2,4133.4000000059605,512308.1999999881,9045,WL,C,7.0
4,21.766000032424927,learn,38233.99996757507,Wed Mar 18 2026 11:19:51 GMT-0400 (Eastern Daylight Time),516675.09999999404,A,quee,I,e,208,2,4366.9000000059605,512308.1999999881,9045,WL,C,7.0
4,22.83300018310547,learn,37166.99981689453,Wed Mar 18 2026 11:19:51 GMT-0400 (Eastern Daylight Time),517741.799999997,A,queen,I,n,1041,2,5433.600000008941,512308.1999999881,9045,WL,C,7.0
4,23.23300004005432,learn,36766.99995994568,Wed Mar 18 2026 11:19:51 GMT-0400 (Eastern Daylight Time),518141.299999997,A,queenenter,I,enter,380,2,5833.100000008941,512308.1999999881,9045,WL,C,7.0
4,26.100000143051147,learn,33899.99985694885,Wed Mar 18 2026 11:19:51 GMT-0400 (Eastern Daylight Time),521008.5,A,b,I,b,2850,2,2866.9000000059605,518141.59999999404,9045,WL,C,8.0
4,26.600000143051147,learn,33399.99985694885,Wed Mar 18 2026 11:19:51 GMT-0400 (Eastern Daylight Time),521508.5,A,bo,I,o,476,2,3366.9000000059605,518141.59999999404,9045,WL,C,8.0
4,27.050000190734863,learn,32949.99980926514,Wed Mar 18 2026 11:19:51 GMT-0400 (Eastern Daylight Time),521958.299999997,A,boy,I,y,424,2,3816.7000000029802,518141.59999999404,9045,WL,C,8.0
4,27.66600012779236,learn,32333.99987220764,Wed Mar 18 2026 11:19:51 GMT-0400 (Eastern Daylight Time),522574.59999999404,A,boyenter,I,enter,597,2,4433.0,518141.59999999404,9045,WL,C,8.0
4,28.516000032424927,learn,31483.999967575073,Wed Mar 18 2026 11:19:51 GMT-0400 (Eastern Daylight Time),523425.0,A,d,I,d,833,2,850.1000000089407,522574.89999999106,9045,WL,C,9.0
4,28.716000080108643,learn,31283.999919891357,Wed Mar 18 2026 11:19:51 GMT-0400 (Eastern Daylight Time),523625.0,A,do,I,o,188,2,1050.1000000089407,522574.89999999106,9045,WL,C,9.0
4,29.25,learn,30750.0,Wed Mar 18 2026 11:19:51 GMT-0400 (Eastern Daylight Time),524158.5,A,doc,I,c,506,2,1583.6000000089407,522574.89999999106,9045,WL,C,9.0
4,29.616000175476074,learn,30383.999824523926,Wed Mar 18 2026 11:19:51 GMT-0400 (Eastern Daylight Time),524525.0,A,doct,I,t,348,2,1950.1000000089407,522574.89999999106,9045,WL,C,9.0
4,29.850000143051147,learn,30149.999856948853,Wed Mar 18 2026 11:19:51 GMT-0400 (Eastern Daylight Time),524758.599999994,A,docto,I,o,223,2,2183.7000000029802,522574.89999999106,9045,WL,C,9.0
4,30.15000009536743,learn,29849.99990463257,Wed Mar 18 2026 11:19:51 GMT-0400 (Eastern Daylight Time),525058.5,A,doctor,I,r,269,2,2483.6000000089407,522574.89999999106,9045,WL,C,9.0
4,30.466000080108643,learn,29533.999919891357,Wed Mar 18 2026 11:19:51 GMT-0400 (Eastern Daylight Time),525374.5,A,doctorenter,I,enter,298,2,2799.6000000089407,522574.89999999106,9045,WL,C,9.0
4,33.33300018310547,learn,26666.99981689453,Wed Mar 18 2026 11:19:51 GMT-0400 (Eastern Daylight Time),528241.799999997,A,s,I,s,2849,2,2866.9000000059605,525374.8999999911,9045,WL,C,10.0
4,33.63300013542175,learn,26366.999864578247,Wed Mar 18 2026 11:19:51 GMT-0400 (Eastern Daylight Time),528541.799999997,A,su,I,u,282,2,3166.9000000059605,525374.8999999911,9045,WL,C,10.0
4,34.85000014305115,learn,25149.999856948853,Wed Mar 18 2026 11:19:51 GMT-0400 (Eastern Daylight Time),529758.3999999911,A,sug,I,g,1198,2,4383.5,525374.8999999911,9045,WL,C,10.0
4,35.21600008010864,learn,24783.999919891357,Wed Mar 18 2026 11:19:51 GMT-0400 (Eastern Daylight Time),530125.0,A,suga,I,a,350,2,4750.100000008941,525374.8999999911,9045,WL,C,10.0
4,35.532999992370605,learn,24467.000007629395,Wed Mar 18 2026 11:19:51 GMT-0400 (Eastern Daylight Time),530441.6999999881,A,sugar,I,r,303,2,5066.79999999702,525374.8999999911,9045,WL,C,10.0
4,35.848999977111816,learn,24151.000022888184,Wed Mar 18 2026 11:19:51 GMT-0400 (Eastern Daylight Time),530757.8999999911,A,sugarenter,I,enter,290,2,5383.0,525374.8999999911,9045,WL,C,10.0
4,37.282999992370605,learn,22717.000007629395,Wed Mar 18 2026 11:19:51 GMT-0400 (Eastern Daylight Time),532191.799999997,A,w,I,w,1418,2,1433.6000000089407,530758.1999999881,9045,WL,C,11.0
4,38.10000014305115,learn,21899.999856948853,Wed Mar 18 2026 11:19:51 GMT-0400 (Eastern Daylight Time),533008.5,A,wg,I,g,795,2,2250.300000011921,530758.1999999881,9045,WL,C,11.0
4,38.63300013542175,learn,21366.999864578247,Wed Mar 18 2026 11:19:51 GMT-0400 (Eastern Daylight Time),533541.6999999881,A,w,I,backspace,505,2,2783.5,530758.1999999881,9045,WL,C,11.0
4,38.83300018310547,learn,21166.99981689453,Wed Mar 18 2026 11:19:51 GMT-0400 (Eastern Daylight Time),533741.6999999881,A,wh,I,h,182,2,2983.5,530758.1999999881,9045,WL,C,11.0
4,39.85000014305115,learn,20149.999856948853,Wed Mar 18 2026 11:19:51 GMT-0400 (Eastern Daylight Time),534758.5,A,whe,I,e,989,2,4000.300000011921,530758.1999999881,9045,WL,C,11.0
4,40.10000014305115,learn,19899.999856948853,Wed Mar 18 2026 11:19:51 GMT-0400 (Eastern Daylight Time),535008.3999999911,A,whea,I,a,230,2,4250.20000000298,530758.1999999881,9045,WL,C,11.0
4,40.41600012779236,learn,19583.99987220764,Wed Mar 18 2026 11:19:51 GMT-0400 (Eastern Daylight Time),535325.0,A,wheat,I,t,299,2,4566.800000011921,530758.1999999881,9045,WL,C,11.0
4,40.74900007247925,learn,19250.999927520752,Wed Mar 18 2026 11:19:51 GMT-0400 (Eastern Daylight Time),535657.8999999911,A,wheatenter,I,enter,319,2,4899.70000000298,530758.1999999881,9045,WL,C,11.0
4,41.48300004005432,learn,18516.99995994568,Wed Mar 18 2026 11:19:51 GMT-0400 (Eastern Daylight Time),536391.5,A,c,I,c,726,2,733.3000000119209,535658.1999999881,9045,WL,C,12.0
4,41.68300008773804,learn,18316.999912261963,Wed Mar 18 2026 11:19:51 GMT-0400 (Eastern Daylight Time),536591.799999997,A,co,I,o,181,2,933.6000000089407,535658.1999999881,9045,WL,C,12.0
4,41.98300004005432,learn,18016.99995994568,Wed Mar 18 2026 11:19:51 GMT-0400 (Eastern Daylight Time),536891.6999999881,A,cor,I,r,284,2,1233.5,535658.1999999881,9045,WL,C,12.0
4,42.40000009536743,learn,17599.99990463257,Wed Mar 18 2026 11:19:51 GMT-0400 (Eastern Daylight Time),537308.5,A,corn,I,n,401,2,1650.300000011921,535658.1999999881,9045,WL,C,12.0
4,42.76600003242493,learn,17233.999967575073,Wed Mar 18 2026 11:19:51 GMT-0400 (Eastern Daylight Time),537674.599999994,A,cornenter,I,enter,351,2,2016.4000000059605,535658.1999999881,9045,WL,C,12.0
4,44.282999992370605,learn,15717.000007629395,Wed Mar 18 2026 11:19:51 GMT-0400 (Eastern Daylight Time),539191.599999994,A,c,I,c,1508,2,1516.5999999940395,537675.0,9045,WL,C,13.0
4,44.68300008773804,learn,15316.999912261963,Wed Mar 18 2026 11:19:51 GMT-0400 (Eastern Daylight Time),539591.5,A,ca,I,a,386,2,1916.5,537675.0,9045,WL,C,13.0
4,44.91600012779236,learn,15083.999872207642,Wed Mar 18 2026 11:19:51 GMT-0400 (Eastern Daylight Time),539825.099999994,A,cam,I,m,212,2,2150.0999999940395,537675.0,9045,WL,C,13.0
4,45.450000047683716,learn,14549.999952316284,Wed Mar 18 2026 11:19:51 GMT-0400 (Eastern Daylight Time),540358.5,A,camp,I,p,522,2,2683.5,537675.0,9045,WL,C,13.0
4,45.782999992370605,learn,14217.000007629395,Wed Mar 18 2026 11:19:51 GMT-0400 (Eastern Daylight Time),540691.299999997,A,campenter,I,enter,309,2,3016.2999999970198,537675.0,9045,WL,C,13.0
4,46.63300013542175,learn,13366.999864578247,Wed Mar 18 2026 11:19:51 GMT-0400 (Eastern Daylight Time),541541.6999999881,A,f,I,f,829,2,850.0,540691.6999999881,9045,WL,C,14.0
4,46.76600003242493,learn,13233.999967575073,Wed Mar 18 2026 11:19:51 GMT-0400 (Eastern Daylight Time),541675.099999994,A,fl,I,l,117,2,983.4000000059605,540691.6999999881,9045,WL,C,14.0
4,47.116000175476074,learn,12883.999824523926,Wed Mar 18 2026 11:19:51 GMT-0400 (Eastern Daylight Time),542024.8999999911,A,fla,I,a,337,2,1333.2000000029802,540691.6999999881,9045,WL,C,14.0
4,47.75,learn,12250.0,Wed Mar 18 2026 11:19:51 GMT-0400 (Eastern Daylight Time),542658.3999999911,A,flag,I,g,611,2,1966.7000000029802,540691.6999999881,9045,WL,C,14.0
4,48.098999977111816,learn,11901.000022888184,Wed Mar 18 2026 11:19:51 GMT-0400 (Eastern Daylight Time),543007.8999999911,A,flagenter,I,enter,330,2,2316.2000000029802,540691.6999999881,9045,WL,C,14.0
4,49.66600012779236,learn,10333.999872207642,Wed Mar 18 2026 11:19:51 GMT-0400 (Eastern Daylight Time),544575.099999994,A,l,I,l,1552,2,1566.9000000059605,543008.1999999881,9045,WL,C,15.0
4,49.96600008010864,learn,10033.999919891357,Wed Mar 18 2026 11:19:51 GMT-0400 (Eastern Daylight Time),544875.0,A,le,I,e,285,2,1866.800000011921,543008.1999999881,9045,WL,C,15.0
4,50.31599998474121,learn,9684.000015258789,Wed Mar 18 2026 11:19:51 GMT-0400 (Eastern Daylight Time),545225.1999999881,A,let,I,t,336,2,2217.0,543008.1999999881,9045,WL,C,15.0
4,50.66600012779236,learn,9333.999872207642,Wed Mar 18 2026 11:19:51 GMT-0400 (Eastern Daylight Time),545575.0,A,lete,I,e,337,2,2566.800000011921,543008.1999999881,9045,WL,C,15.0
4,50.80000019073486,learn,9199.999809265137,Wed Mar 18 2026 11:19:51 GMT-0400 (Eastern Daylight Time),545708.299999997,A,leter,I,r,118,2,2700.1000000089407,543008.1999999881,9045,WL,C,15.0
4,51.29900002479553,learn,8700.999975204468,Wed Mar 18 2026 11:19:51 GMT-0400 (Eastern Daylight Time),546208.0,A,leterenter,I,enter,479,2,3199.800000011921,543008.1999999881,9045,WL,C,15.0
5,2.75,learn,60000.0,Wed Mar 18 2026 11:19:51 GMT-0400 (Eastern Daylight Time),615358.6999999881,A,n,I,n,2733,2,2749.699999988079,612609.0,9045,WL,C,1.0
5,2.9830000400543213,learn,60000.0,Wed Mar 18 2026 11:19:51 GMT-0400 (Eastern Daylight Time),615591.5,A,na,I,a,222,2,2982.5,612609.0,9045,WL,C,1.0
5,3.2660000324249268,learn,60000.0,Wed Mar 18 2026 11:19:51 GMT-0400 (Eastern Daylight Time),615875.099999994,A,nai,I,i,253,2,3266.0999999940395,612609.0,9045,WL,C,1.0
5,3.6660001277923584,learn,60000.0,Wed Mar 18 2026 11:19:51 GMT-0400 (Eastern Daylight Time),616275.099999994,A,nail,I,l,377,2,3666.0999999940395,612609.0,9045,WL,C,1.0
5,4.2829999923706055,learn,60000.0,Wed Mar 18 2026 11:19:51 GMT-0400 (Eastern Daylight Time),616891.299999997,A,nailenter,I,enter,601,2,4282.29999999702,612609.0,9045,WL,C,1.0
5,4.799999952316284,learn,60000.0,Wed Mar 18 2026 11:19:51 GMT-0400 (Eastern Daylight Time),617408.5,A,c,I,c,500,2,516.8000000119209,616891.6999999881,9045,WL,C,2.0
5,5.150000095367432,learn,60000.0,Wed Mar 18 2026 11:19:51 GMT-0400 (Eastern Daylight Time),617758.5,A,ca,I,a,331,2,866.8000000119209,616891.6999999881,9045,WL,C,2.0
5,5.516000032424927,learn,60000.0,Wed Mar 18 2026 11:19:51 GMT-0400 (Eastern Daylight Time),618125.099999994,A,cat,I,t,350,2,1233.4000000059605,616891.6999999881,9045,WL,C,2.0
5,5.8500001430511475,learn,60000.0,Wed Mar 18 2026 11:19:51 GMT-0400 (Eastern Daylight Time),618458.3999999911,A,catt,I,t,319,2,1566.7000000029802,616891.6999999881,9045,WL,C,2.0
5,6.183000087738037,learn,60000.0,Wed Mar 18 2026 11:19:51 GMT-0400 (Eastern Daylight Time),618791.599999994,A,cattl,I,l,321,2,1899.9000000059605,616891.6999999881,9045,WL,C,2.0
5,6.365999937057495,learn,60000.0,Wed Mar 18 2026 11:19:51 GMT-0400 (Eastern Daylight Time),618975.099999994,A,cattle,I,e,164,2,2083.4000000059605,616891.6999999881,9045,WL,C,2.0
5,6.699000120162964,learn,60000.0,Wed Mar 18 2026 11:19:51 GMT-0400 (Eastern Daylight Time),619307.8999999911,A,cattleenter,I,enter,318,2,2416.2000000029802,616891.6999999881,9045,WL,C,2.0
5,7.5,learn,60000.0,Wed Mar 18 2026 11:19:51 GMT-0400 (Eastern Daylight Time),620108.5,A,s,I,s,788,2,800.3000000119209,619308.1999999881,9045,WL,C,3.0
5,7.733000040054321,learn,60000.0,Wed Mar 18 2026 11:19:51 GMT-0400 (Eastern Daylight Time),620341.799999997,A,sh,I,h,207,2,1033.6000000089407,619308.1999999881,9045,WL,C,3.0
5,8.133000135421753,learn,60000.0,Wed Mar 18 2026 11:19:51 GMT-0400 (Eastern Daylight Time),620741.6999999881,A,sho,I,o,373,2,1433.5,619308.1999999881,9045,WL,C,3.0
5,8.716000080108643,learn,60000.0,Wed Mar 18 2026 11:19:51 GMT-0400 (Eastern Daylight Time),621325.099999994,A,shor,I,r,567,2,2016.9000000059605,619308.1999999881,9045,WL,C,3.0
5,8.850000143051147,learn,60000.0,Wed Mar 18 2026 11:19:51 GMT-0400 (Eastern Daylight Time),621458.5,A,shore,I,e,111,2,2150.300000011921,619308.1999999881,9045,WL,C,3.0
5,9.133000135421753,learn,60000.0,Wed Mar 18 2026 11:19:51 GMT-0400 (Eastern Daylight Time),621741.299999997,A,shoreenter,I,enter,266,2,2433.1000000089407,619308.1999999881,9045,WL,C,3.0
5,10.633000135421753,learn,60000.0,Wed Mar 18 2026 11:19:51 GMT-0400 (Eastern Daylight Time),623241.8999999911,A,b,I,b,1491,2,1500.2000000029802,621741.6999999881,9045,WL,C,4.0
5,10.865999937057495,learn,60000.0,Wed Mar 18 2026 11:19:51 GMT-0400 (Eastern Daylight Time),623475.0,A,bo,I,o,211,2,1733.300000011921,621741.6999999881,9045,WL,C,4.0
5,11.650000095367432,learn,60000.0,Wed Mar 18 2026 11:19:51 GMT-0400 (Eastern Daylight Time),624258.5,A,bod,I,d,761,2,2516.800000011921,621741.6999999881,9045,WL,C,4.0
5,11.916000127792358,learn,60000.0,Wed Mar 18 2026 11:19:51 GMT-0400 (Eastern Daylight Time),624525.099999994,A,body,I,y,250,2,2783.4000000059605,621741.6999999881,9045,WL,C,4.0
5,12.348999977111816,learn,60000.0,Wed Mar 18 2026 11:19:51 GMT-0400 (Eastern Daylight Time),624958.0,A,bodyenter,I,enter,415,2,3216.300000011921,621741.6999999881,9045,WL,C,4.0
5,13.08299994468689,learn,60000.0,Wed Mar 18 2026 11:19:51 GMT-0400 (Eastern Daylight Time),625691.599999994,A,b,I,b,721,2,733.2999999970198,624958.299999997,9045,WL,C,5.0
5,13.549000024795532,learn,60000.0,Wed Mar 18 2026 11:19:51 GMT-0400 (Eastern Daylight Time),626157.799999997,A,bo,I,o,447,2,1199.5,624958.299999997,9045,WL,C,5.0
5,14.032999992370605,learn,60000.0,Wed Mar 18 2026 11:19:51 GMT-0400 (Eastern Daylight Time),626641.799999997,A,boy,I,y,465,2,1683.5,624958.299999997,9045,WL,C,5.0
5,16.049000024795532,learn,60000.0,Wed Mar 18 2026 11:19:51 GMT-0400 (Eastern Daylight Time),628657.8999999911,A,boyenter,I,enter,1994,2,3699.5999999940395,624958.299999997,9045,WL,C,5.0
5,16.600000143051147,learn,60000.0,Wed Mar 18 2026 11:19:51 GMT-0400 (Eastern Daylight Time),629208.3999999911,A,d,I,d,542,2,550.0,628658.3999999911,9045,WL,C,6.0
5,16.81599998474121,learn,60000.0,Wed Mar 18 2026 11:19:51 GMT-0400 (Eastern Daylight Time),629425.0,A,do,I,o,196,2,766.6000000089407,628658.3999999911,9045,WL,C,6.0
5,17.216000080108643,learn,60000.0,Wed Mar 18 2026 11:19:51 GMT-0400 (Eastern Daylight Time),629825.099999994,A,doc,I,c,379,2,1166.7000000029802,628658.3999999911,9045,WL,C,6.0
5,17.58299994468689,learn,60000.0,Wed Mar 18 2026 11:19:51 GMT-0400 (Eastern Daylight Time),630191.799999997,A,doct,I,t,347,2,1533.4000000059605,628658.3999999911,9045,WL,C,6.0
5,17.933000087738037,learn,60000.0,Wed Mar 18 2026 11:19:51 GMT-0400 (Eastern Daylight Time),630541.799999997,A,docto,I,o,332,2,1883.4000000059605,628658.3999999911,9045,WL,C,6.0
5,18.16600012779236,learn,60000.0,Wed Mar 18 2026 11:19:51 GMT-0400 (Eastern Daylight Time),630775.0,A,doctor,I,r,222,2,2116.6000000089407,628658.3999999911,9045,WL,C,6.0
5,18.516000032424927,learn,60000.0,Wed Mar 18 2026 11:19:51 GMT-0400 (Eastern Daylight Time),631124.599999994,A,doctorenter,I,enter,317,2,2466.2000000029802,628658.3999999911,9045,WL,C,6.0
5,19.433000087738037,learn,60000.0,Wed Mar 18 2026 11:19:51 GMT-0400 (Eastern Daylight Time),632041.6999999881,A,q,I,q,907,2,916.6999999880791,631125.0,9045,WL,C,7.0
5,19.98300004005432,learn,60000.0,Wed Mar 18 2026 11:19:51 GMT-0400 (Eastern Daylight Time),632591.799999997,A,qu,I,u,530,2,1466.7999999970198,631125.0,9045,WL,C,7.0
5,20.5,learn,60000.0,Wed Mar 18 2026 11:19:51 GMT-0400 (Eastern Daylight Time),633108.5,A,que,I,e,492,2,1983.5,631125.0,9045,WL,C,7.0
5,20.75,learn,60000.0,Wed Mar 18 2026 11:19:51 GMT-0400 (Eastern Daylight Time),633358.5,A,quee,I,e,229,2,2233.5,631125.0,9045,WL,C,7.0
5,21.25,learn,60000.0,Wed Mar 18 2026 11:19:51 GMT-0400 (Eastern Daylight Time),633858.5,A,queen,I,n,470,2,2733.5,631125.0,9045,WL,C,7.0
5,21.716000080108643,learn,60000.0,Wed Mar 18 2026 11:19:51 GMT-0400 (Eastern Daylight Time),634324.6999999881,A,queenenter,I,enter,441,2,3199.699999988079,631125.0,9045,WL,C,7.0
5,23.499000072479248,learn,60000.0,Wed Mar 18 2026 11:19:51 GMT-0400 (Eastern Daylight Time),636108.0,A,s,I,s,1770,2,1783.0,634325.0,9045,WL,C,8.0
5,23.75,learn,60000.0,Wed Mar 18 2026 11:19:51 GMT-0400 (Eastern Daylight Time),636358.599999994,A,su,I,u,241,2,2033.5999999940395,634325.0,9045,WL,C,8.0
5,24.100000143051147,learn,60000.0,Wed Mar 18 2026 11:19:51 GMT-0400 (Eastern Daylight Time),636708.3999999911,A,sur,I,r,326,2,2383.3999999910593,634325.0,9045,WL,C,8.0
5,24.66600012779236,learn,60000.0,Wed Mar 18 2026 11:19:51 GMT-0400 (Eastern Daylight Time),637275.099999994,A,su,I,backspace,552,2,2950.0999999940395,634325.0,9045,WL,C,8.0
5,24.867000102996826,learn,60000.0,Wed Mar 18 2026 11:19:51 GMT-0400 (Eastern Daylight Time),637475.1999999881,A,sug,I,g,177,2,3150.199999988079,634325.0,9045,WL,C,8.0
5,25.216000080108643,learn,60000.0,Wed Mar 18 2026 11:19:51 GMT-0400 (Eastern Daylight Time),637825.1999999881,A,suge,I,e,321,2,3500.199999988079,634325.0,9045,WL,C,8.0
5,25.365999937057495,learn,60000.0,Wed Mar 18 2026 11:19:51 GMT-0400 (Eastern Daylight Time),637974.799999997,A,suger,I,r,139,2,3649.7999999970198,634325.0,9045,WL,C,8.0
5,26.299999952316284,learn,60000.0,Wed Mar 18 2026 11:19:51 GMT-0400 (Eastern Daylight Time),638908.5,A,suge,I,backspace,919,2,4583.5,634325.0,9045,WL,C,8.0
5,26.549999952316284,learn,60000.0,Wed Mar 18 2026 11:19:51 GMT-0400 (Eastern Daylight Time),639158.799999997,A,sug,I,backspace,240,2,4833.79999999702,634325.0,9045,WL,C,8.0
5,26.73300004005432,learn,60000.0,Wed Mar 18 2026 11:19:51 GMT-0400 (Eastern Daylight Time),639341.799999997,A,suga,I,a,156,2,5016.79999999702,634325.0,9045,WL,C,8.0
5,27.0,learn,60000.0,Wed Mar 18 2026 11:19:51 GMT-0400 (Eastern Daylight Time),639608.3999999911,A,sugar,I,r,255,2,5283.399999991059,634325.0,9045,WL,C,8.0
5,27.367000102996826,learn,60000.0,Wed Mar 18 2026 11:19:51 GMT-0400 (Eastern Daylight Time),639975.6999999881,A,sugarenter,I,enter,356,2,5650.699999988079,634325.0,9045,WL,C,8.0
5,28.65000009536743,learn,60000.0,Wed Mar 18 2026 11:19:51 GMT-0400 (Eastern Daylight Time),641258.3999999911,A,c,I,c,1272,2,1282.2999999970198,639976.099999994,9045,WL,C,9.0
5,28.782999992370605,learn,60000.0,Wed Mar 18 2026 11:19:51 GMT-0400 (Eastern Daylight Time),641391.799999997,A,co,I,o,111,2,1415.7000000029802,639976.099999994,9045,WL,C,9.0
5,29.032999992370605,learn,60000.0,Wed Mar 18 2026 11:19:51 GMT-0400 (Eastern Daylight Time),641641.799999997,A,cor,I,r,227,2,1665.7000000029802,639976.099999994,9045,WL,C,9.0
5,29.383000135421753,learn,60000.0,Wed Mar 18 2026 11:19:51 GMT-0400 (Eastern Daylight Time),641991.599999994,A,corn,I,n,338,2,2015.5,639976.099999994,9045,WL,C,9.0
5,29.749000072479248,learn,60000.0,Wed Mar 18 2026 11:19:51 GMT-0400 (Eastern Daylight Time),642357.8999999911,A,cornenter,I,enter,358,2,2381.7999999970198,639976.099999994,9045,WL,C,9.0
5,30.115999937057495,learn,60000.0,Wed Mar 18 2026 11:19:51 GMT-0400 (Eastern Daylight Time),642725.1999999881,A,w,I,w,346,2,367.0,642358.1999999881,9045,WL,C,10.0
5,30.683000087738037,learn,60000.0,Wed Mar 18 2026 11:19:51 GMT-0400 (Eastern Daylight Time),643291.799999997,A,wh,I,h,551,2,933.6000000089407,642358.1999999881,9045,WL,C,10.0
5,30.933000087738037,learn,60000.0,Wed Mar 18 2026 11:19:51 GMT-0400 (Eastern Daylight Time),643541.6999999881,A,whe,I,e,225,2,1183.5,642358.1999999881,9045,WL,C,10.0
5,31.282999992370605,learn,60000.0,Wed Mar 18 2026 11:19:51 GMT-0400 (Eastern Daylight Time),643891.8999999911,A,whea,I,a,326,2,1533.7000000029802,642358.1999999881,9045,WL,C,10.0
5,31.683000087738037,learn,60000.0,Wed Mar 18 2026 11:19:51 GMT-0400 (Eastern Daylight Time),644291.799999997,A,wheat,I,t,376,2,1933.6000000089407,642358.1999999881,9045,WL,C,10.0
5,32.13300013542175,learn,60000.0,Wed Mar 18 2026 11:19:51 GMT-0400 (Eastern Daylight Time),644741.299999997,A,wheatenter,I,enter,421,2,2383.1000000089407,642358.1999999881,9045,WL,C,10.0
5,35.282999992370605,learn,60000.0,Wed Mar 18 2026 11:19:51 GMT-0400 (Eastern Daylight Time),647891.799999997,A,l,I,l,3130,2,3150.2000000029802,644741.599999994,9045,WL,C,11.0
5,35.549999952316284,learn,60000.0,Wed Mar 18 2026 11:19:51 GMT-0400 (Eastern Daylight Time),648158.5,A,le,I,e,246,2,3416.9000000059605,644741.599999994,9045,WL,C,11.0
5,35.88300013542175,learn,60000.0,Wed Mar 18 2026 11:19:51 GMT-0400 (Eastern Daylight Time),648491.799999997,A,let,I,t,318,2,3750.2000000029802,644741.599999994,9045,WL,C,11.0
5,36.08299994468689,learn,60000.0,Wed Mar 18 2026 11:19:51 GMT-0400 (Eastern Daylight Time),648691.799999997,A,lett,I,t,176,2,3950.2000000029802,644741.599999994,9045,WL,C,11.0
5,36.83299994468689,learn,60000.0,Wed Mar 18 2026 11:19:51 GMT-0400 (Eastern Daylight Time),649441.6999999881,A,lette,I,e,729,2,4700.0999999940395,644741.599999994,9045,WL,C,11.0
5,37.01600003242493,learn,60000.0,Wed Mar 18 2026 11:19:51 GMT-0400 (Eastern Daylight Time),649625.099999994,A,letter,I,r,171,2,4883.5,644741.599999994,9045,WL,C,11.0
5,37.29900002479553,learn,60000.0,Wed Mar 18 2026 11:19:51 GMT-0400 (Eastern Daylight Time),649908.0,A,letterenter,I,enter,258,2,5166.4000000059605,644741.599999994,9045,WL,C,11.0
5,38.81599998474121,learn,60000.0,Wed Mar 18 2026 11:19:51 GMT-0400 (Eastern Daylight Time),651425.099999994,A,h,I,h,1500,2,1516.7999999970198,649908.299999997,9045,WL,C,12.0
5,39.200000047683716,learn,60000.0,Wed Mar 18 2026 11:19:51 GMT-0400 (Eastern Daylight Time),651808.5,A,ho,I,o,363,2,1900.2000000029802,649908.299999997,9045,WL,C,12.0
5,39.51600003242493,learn,60000.0,Wed Mar 18 2026 11:19:51 GMT-0400 (Eastern Daylight Time),652125.0,A,hom,I,m,297,2,2216.7000000029802,649908.299999997,9045,WL,C,12.0
5,39.96600008010864,learn,60000.0,Wed Mar 18 2026 11:19:51 GMT-0400 (Eastern Daylight Time),652575.099999994,A,home,I,e,432,2,2666.7999999970198,649908.299999997,9045,WL,C,12.0
5,40.199000120162964,learn,60000.0,Wed Mar 18 2026 11:19:51 GMT-0400 (Eastern Daylight Time),652807.8999999911,A,homeenter,I,enter,221,2,2899.5999999940395,649908.299999997,9045,WL,C,12.0
5,41.365999937057495,learn,60000.0,Wed Mar 18 2026 11:19:51 GMT-0400 (Eastern Daylight Time),653975.099999994,A,t,I,t,1159,2,1166.7999999970198,652808.299999997,9045,WL,C,13.0
5,41.90000009536743,learn,60000.0,Wed Mar 18 2026 11:19:51 GMT-0400 (Eastern Daylight Time),654508.5,A,to,I,o,517,2,1700.2000000029802,652808.299999997,9045,WL,C,13.0
5,42.21600008010864,learn,60000.0,Wed Mar 18 2026 11:19:51 GMT-0400 (Eastern Daylight Time),654825.099999994,A,tow,I,w,303,2,2016.7999999970198,652808.299999997,9045,WL,C,13.0
5,42.46600008010864,learn,60000.0,Wed Mar 18 2026 11:19:51 GMT-0400 (Eastern Daylight Time),655075.099999994,A,towe,I,e,227,2,2266.7999999970198,652808.299999997,9045,WL,C,13.0
5,42.71600008010864,learn,60000.0,Wed Mar 18 2026 11:19:51 GMT-0400 (Eastern Daylight Time),655325.1999999881,A,tower,I,r,234,2,2516.8999999910593,652808.299999997,9045,WL,C,13.0
5,43.01600003242493,learn,60000.0,Wed Mar 18 2026 11:19:51 GMT-0400 (Eastern Daylight Time),655624.6999999881,A,towerenter,I,enter,287,2,2816.3999999910593,652808.299999997,9045,WL,C,13.0
5,44.76600003242493,learn,60000.0,Wed Mar 18 2026 11:19:51 GMT-0400 (Eastern Daylight Time),657375.0,A,f,I,f,1735,2,1749.9000000059605,655625.099999994,9045,WL,C,14.0
5,44.91600012779236,learn,60000.0,Wed Mar 18 2026 11:19:51 GMT-0400 (Eastern Daylight Time),657525.099999994,A,fl,I,l,122,2,1900.0,655625.099999994,9045,WL,C,14.0
5,45.282999992370605,learn,60000.0,Wed Mar 18 2026 11:19:51 GMT-0400 (Eastern Daylight Time),657891.799999997,A,fla,I,a,344,2,2266.7000000029802,655625.099999994,9045,WL,C,14.0
5,45.867000102996826,learn,60000.0,Wed Mar 18 2026 11:19:51 GMT-0400 (Eastern Daylight Time),658475.299999997,A,flag,I,g,569,2,2850.2000000029802,655625.099999994,9045,WL,C,14.0
5,46.199000120162964,learn,60000.0,Wed Mar 18 2026 11:19:51 GMT-0400 (Eastern Daylight Time),658807.8999999911,A,flagenter,I,enter,318,2,3182.7999999970198,655625.099999994,9045,WL,C,14.0
5,48.01600003242493,learn,60000.0,Wed Mar 18 2026 11:19:51 GMT-0400 (Eastern Daylight Time),660625.099999994,A,c,I,c,1800,2,1816.9000000059605,658808.1999999881,9045,WL,C,15.0
5,48.40000009536743,learn,60000.0,Wed Mar 18 2026 11:19:51 GMT-0400 (Eastern Daylight Time),661008.5,A,ca,I,a,364,2,2200.300000011921,658808.1999999881,9045,WL,C,15.0
5,48.60000014305115,learn,60000.0,Wed Mar 18 2026 11:19:51 GMT-0400 (Eastern Daylight Time),661208.3999999911,A,cam,I,m,187,2,2400.2000000029802,658808.1999999881,9045,WL,C,15.0
5,49.115999937057495,learn,60000.0,Wed Mar 18 2026 11:19:51 GMT-0400 (Eastern Daylight Time),661725.1999999881,A,camp,I,p,500,2,2917.0,658808.1999999881,9045,WL,C,15.0
5,49.71600008010864,learn,60000.0,Wed Mar 18 2026 11:19:51 GMT-0400 (Eastern Daylight Time),662324.599999994,A,campenter,I,enter,574,2,3516.4000000059605,658808.1999999881,9045,WL,C,15.0
6,1.0340001583099365,distr,58965.99984169006,Wed Mar 18 2026 11:19:51 GMT-0400 (Eastern Daylight Time),738958.599999994,B,s,I,s,1016,2,1033.0,737925.599999994,9045,WL,C,1.0
6,1.2170000076293945,distr,58782.999992370605,Wed Mar 18 2026 11:19:51 GMT-0400 (Eastern Daylight Time),739141.8999999911,B,sk,I,k,155,2,1216.2999999970198,737925.599999994,9045,WL,C,1.0
6,1.5340001583099365,distr,58465.99984169006,Wed Mar 18 2026 11:19:51 GMT-0400 (Eastern Daylight Time),739458.5,B,sky,I,y,294,2,1532.9000000059605,737925.599999994,9045,WL,C,1.0
6,2.0329999923706055,distr,57967.000007629395,Wed Mar 18 2026 11:19:51 GMT-0400 (Eastern Daylight Time),739957.8999999911,B,skyenter,I,enter,490,2,2032.2999999970198,737925.599999994,9045,WL,C,1.0
6,4.9670000076293945,distr,55032.999992370605,Wed Mar 18 2026 11:19:51 GMT-0400 (Eastern Daylight Time),742891.799999997,B,d,I,d,2921,2,2933.6000000089407,739958.1999999881,9045,WL,C,2.0
6,5.150000095367432,distr,54849.99990463257,Wed Mar 18 2026 11:19:51 GMT-0400 (Eastern Daylight Time),743075.1999999881,B,do,I,o,160,2,3117.0,739958.1999999881,9045,WL,C,2.0
6,6.049999952316284,distr,53950.000047683716,Wed Mar 18 2026 11:19:51 GMT-0400 (Eastern Daylight Time),743974.799999997,B,dol,I,l,889,2,4016.6000000089407,739958.1999999881,9045,WL,C,2.0
6,6.25,distr,53750.0,Wed Mar 18 2026 11:19:51 GMT-0400 (Eastern Daylight Time),744175.1999999881,B,doll,I,l,181,2,4217.0,739958.1999999881,9045,WL,C,2.0
6,6.434000015258789,distr,53565.99998474121,Wed Mar 18 2026 11:19:51 GMT-0400 (Eastern Daylight Time),744358.5,B,dolla,I,a,157,2,4400.300000011921,739958.1999999881,9045,WL,C,2.0
6,6.733999967575073,distr,53266.00003242493,Wed Mar 18 2026 11:19:51 GMT-0400 (Eastern Daylight Time),744658.299999997,B,dollar,I,r,270,2,4700.100000008941,739958.1999999881,9045,WL,C,2.0
6,7.0,distr,53000.0,Wed Mar 18 2026 11:19:51 GMT-0400 (Eastern Daylight Time),744924.599999994,B,dollarenter,I,enter,248,2,4966.4000000059605,739958.1999999881,9045,WL,C,2.0
6,14.483999967575073,distr,45516.00003242493,Wed Mar 18 2026 11:19:51 GMT-0400 (Eastern Daylight Time),752408.3999999911,B,v,I,v,7475,2,7483.399999991059,744925.0,9045,WL,C,3.0
6,15.08400011062622,distr,44915.99988937378,Wed Mar 18 2026 11:19:51 GMT-0400 (Eastern Daylight Time),753008.3999999911,B,va,I,a,579,2,8083.399999991059,744925.0,9045,WL,C,3.0
6,15.41700005531311,distr,44582.99994468689,Wed Mar 18 2026 11:19:51 GMT-0400 (Eastern Daylight Time),753341.799999997,B,val,I,l,316,2,8416.79999999702,744925.0,9045,WL,C,3.0
6,15.634000062942505,distr,44365.999937057495,Wed Mar 18 2026 11:19:51 GMT-0400 (Eastern Daylight Time),753558.3999999911,B,vall,I,l,190,2,8633.39999999106,744925.0,9045,WL,C,3.0
6,15.867000102996826,distr,44132.999897003174,Wed Mar 18 2026 11:19:51 GMT-0400 (Eastern Daylight Time),753791.8999999911,B,valle,I,e,214,2,8866.89999999106,744925.0,9045,WL,C,3.0
6,16.40000009536743,distr,43599.99990463257,Wed Mar 18 2026 11:19:51 GMT-0400 (Eastern Daylight Time),754325.299999997,B,valley,I,y,509,2,9400.29999999702,744925.0,9045,WL,C,3.0
6,16.817000150680542,distr,43182.99984931946,Wed Mar 18 2026 11:19:51 GMT-0400 (Eastern Daylight Time),754741.299999997,B,valleyenter,I,enter,390,2,9816.29999999702,744925.0,9045,WL,C,3.0
6,17.483999967575073,distr,42516.00003242493,Wed Mar 18 2026 11:19:51 GMT-0400 (Eastern Daylight Time),755408.599999994,B,c,I,c,650,2,666.7999999970198,754741.799999997,9045,WL,C,4.0
6,17.700000047683716,distr,42299.999952316284,Wed Mar 18 2026 11:19:51 GMT-0400 (Eastern Daylight Time),755625.1999999881,B,ch,I,h,204,2,883.3999999910593,754741.799999997,9045,WL,C,4.0
6,18.284000158309937,distr,41715.99984169006,Wed Mar 18 2026 11:19:51 GMT-0400 (Eastern Daylight Time),756208.5,B,chr,I,r,563,2,1466.7000000029802,754741.799999997,9045,WL,C,4.0
6,19.41700005531311,distr,40582.99994468689,Wed Mar 18 2026 11:19:51 GMT-0400 (Eastern Daylight Time),757341.799999997,B,chrh,I,h,1116,2,2600.0,754741.799999997,9045,WL,C,4.0
6,19.617000102996826,distr,40382.999897003174,Wed Mar 18 2026 11:19:51 GMT-0400 (Eastern Daylight Time),757541.8999999911,B,chrhi,I,i,175,2,2800.0999999940395,754741.799999997,9045,WL,C,4.0
6,20.483999967575073,distr,39516.00003242493,Wed Mar 18 2026 11:19:51 GMT-0400 (Eastern Daylight Time),758408.299999997,B,chrh,I,backspace,845,2,3666.5,754741.799999997,9045,WL,C,4.0
6,20.717000007629395,distr,39282.999992370605,Wed Mar 18 2026 11:19:51 GMT-0400 (Eastern Daylight Time),758641.799999997,B,chr,I,backspace,213,2,3900.0,754741.799999997,9045,WL,C,4.0
6,21.784000158309937,distr,38215.99984169006,Wed Mar 18 2026 11:19:51 GMT-0400 (Eastern Daylight Time),759708.5,B,chri,I,i,1051,2,4966.70000000298,754741.799999997,9045,WL,C,4.0
6,22.26699995994568,distr,37733.00004005432,Wed Mar 18 2026 11:19:51 GMT-0400 (Eastern Daylight Time),760191.6999999881,B,chris,I,s,464,2,5449.899999991059,754741.799999997,9045,WL,C,4.0
6,22.567000150680542,distr,37432.99984931946,Wed Mar 18 2026 11:19:51 GMT-0400 (Eastern Daylight Time),760491.6999999881,B,christ,I,t,284,2,5749.899999991059,754741.799999997,9045,WL,C,4.0
6,22.93400001525879,distr,37065.99998474121,Wed Mar 18 2026 11:19:51 GMT-0400 (Eastern Daylight Time),760858.5,B,christm,I,m,352,2,6116.70000000298,754741.799999997,9045,WL,C,4.0
6,23.117000102996826,distr,36882.999897003174,Wed Mar 18 2026 11:19:51 GMT-0400 (Eastern Daylight Time),761041.8999999911,B,christma,I,a,159,2,6300.0999999940395,754741.799999997,9045,WL,C,4.0
6,23.717000007629395,distr,36282.999992370605,Wed Mar 18 2026 11:19:51 GMT-0400 (Eastern Daylight Time),761641.799999997,B,christmas,I,s,581,2,6900.0,754741.799999997,9045,WL,C,4.0
6,24.183000087738037,distr,35816.99991226196,Wed Mar 18 2026 11:19:51 GMT-0400 (Eastern Daylight Time),762108.0,B,christmasenter,I,enter,451,2,7366.20000000298,754741.799999997,9045,WL,C,4.0
6,26.450000047683716,distr,33549.999952316284,Wed Mar 18 2026 11:19:51 GMT-0400 (Eastern Daylight Time),764375.099999994,B,t,I,t,2245,2,2266.7999999970198,762108.299999997,9045,WL,C,5.0
6,26.700000047683716,distr,33299.999952316284,Wed Mar 18 2026 11:19:51 GMT-0400 (Eastern Daylight Time),764625.099999994,B,tr,I,r,228,2,2516.7999999970198,762108.299999997,9045,WL,C,5.0
6,27.049999952316284,distr,32950.000047683716,Wed Mar 18 2026 11:19:51 GMT-0400 (Eastern Daylight Time),764975.099999994,B,tre,I,e,331,2,2866.7999999970198,762108.299999997,9045,WL,C,5.0
6,27.233999967575073,distr,32766.000032424927,Wed Mar 18 2026 11:19:51 GMT-0400 (Eastern Daylight Time),765158.6999999881,B,tree,I,e,173,2,3050.3999999910593,762108.299999997,9045,WL,C,5.0
6,27.450000047683716,distr,32549.999952316284,Wed Mar 18 2026 11:19:51 GMT-0400 (Eastern Daylight Time),765374.599999994,B,treeenter,I,enter,189,2,3266.2999999970198,762108.299999997,9045,WL,C,5.0
6,28.90000009536743,distr,31099.99990463257,Wed Mar 18 2026 11:19:51 GMT-0400 (Eastern Daylight Time),766825.099999994,B,f,I,f,1441,2,1450.0999999940395,765375.0,9045,WL,C,6.0
6,29.067000150680542,distr,30932.999849319458,Wed Mar 18 2026 11:19:51 GMT-0400 (Eastern Daylight Time),766991.8999999911,B,fo,I,o,148,2,1616.8999999910593,765375.0,9045,WL,C,6.0
6,30.034000158309937,distr,29965.999841690063,Wed Mar 18 2026 11:19:51 GMT-0400 (Eastern Daylight Time),767958.6999999881,B,for,I,r,946,2,2583.699999988079,765375.0,9045,WL,C,6.0
6,30.367000102996826,distr,29632.999897003174,Wed Mar 18 2026 11:19:51 GMT-0400 (Eastern Daylight Time),768291.799999997,B,fore,I,e,308,2,2916.7999999970198,765375.0,9045,WL,C,6.0
6,31.01699995994568,distr,28983.00004005432,Wed Mar 18 2026 11:19:51 GMT-0400 (Eastern Daylight Time),768941.8999999911,B,fores,I,s,633,2,3566.8999999910593,765375.0,9045,WL,C,6.0
6,31.367000102996826,distr,28632.999897003174,Wed Mar 18 2026 11:19:51 GMT-0400 (Eastern Daylight Time),769291.799999997,B,forest,I,t,334,2,3916.7999999970198,765375.0,9045,WL,C,6.0
6,31.633000135421753,distr,28366.999864578247,Wed Mar 18 2026 11:19:51 GMT-0400 (Eastern Daylight Time),769558.0,B,forestenter,I,enter,257,2,4183.0,765375.0,9045,WL,C,6.0
6,37.31700015068054,distr,22682.999849319458,Wed Mar 18 2026 11:19:51 GMT-0400 (Eastern Daylight Time),775241.599999994,B,h,I,h,5675,2,5683.4000000059605,769558.1999999881,9045,WL,C,7.0
6,37.634000062942505,distr,22365.999937057495,Wed Mar 18 2026 11:19:51 GMT-0400 (Eastern Daylight Time),775558.5,B,ha,I,a,289,2,6000.300000011921,769558.1999999881,9045,WL,C,7.0
6,37.93400001525879,distr,22065.99998474121,Wed Mar 18 2026 11:19:51 GMT-0400 (Eastern Daylight Time),775858.599999994,B,hal,I,l,277,2,6300.4000000059605,769558.1999999881,9045,WL,C,7.0
6,38.15000009536743,distr,21849.99990463257,Wed Mar 18 2026 11:19:51 GMT-0400 (Eastern Daylight Time),776075.1999999881,B,hall,I,l,200,2,6517.0,769558.1999999881,9045,WL,C,7.0
6,38.43400001525879,distr,21565.99998474121,Wed Mar 18 2026 11:19:51 GMT-0400 (Eastern Daylight Time),776358.5,B,hallw,I,w,249,2,6800.300000011921,769558.1999999881,9045,WL,C,7.0
6,38.66700005531311,distr,21332.99994468689,Wed Mar 18 2026 11:19:51 GMT-0400 (Eastern Daylight Time),776591.799999997,B,hallwa,I,a,213,2,7033.600000008941,769558.1999999881,9045,WL,C,7.0
6,38.967000007629395,distr,21032.999992370605,Wed Mar 18 2026 11:19:51 GMT-0400 (Eastern Daylight Time),776891.8999999911,B,hallway,I,y,284,2,7333.70000000298,769558.1999999881,9045,WL,C,7.0
6,39.467000007629395,distr,20532.999992370605,Wed Mar 18 2026 11:19:51 GMT-0400 (Eastern Daylight Time),777391.3999999911,B,hallwayenter,I,enter,480,2,7833.20000000298,769558.1999999881,9045,WL,C,7.0
6,42.367000102996826,distr,17632.999897003174,Wed Mar 18 2026 11:19:51 GMT-0400 (Eastern Daylight Time),780291.8999999911,B,b,I,b,2880,2,2900.2000000029802,777391.6999999881,9045,WL,C,8.0
6,42.53400015830994,distr,17465.999841690063,Wed Mar 18 2026 11:19:51 GMT-0400 (Eastern Daylight Time),780458.5,B,bu,I,u,150,2,3066.800000011921,777391.6999999881,9045,WL,C,8.0
6,43.0,distr,17000.0,Wed Mar 18 2026 11:19:51 GMT-0400 (Eastern Daylight Time),780925.099999994,B,but,I,t,450,2,3533.4000000059605,777391.6999999881,9045,WL,C,8.0
6,43.23399996757507,distr,16766.000032424927,Wed Mar 18 2026 11:19:51 GMT-0400 (Eastern Daylight Time),781158.3999999911,B,butt,I,t,207,2,3766.7000000029802,777391.6999999881,9045,WL,C,8.0
6,43.40000009536743,distr,16599.99990463257,Wed Mar 18 2026 11:19:51 GMT-0400 (Eastern Daylight Time),781325.099999994,B,butto,I,o,147,2,3933.4000000059605,777391.6999999881,9045,WL,C,8.0
6,43.634000062942505,distr,16365.999937057495,Wed Mar 18 2026 11:19:51 GMT-0400 (Eastern Daylight Time),781558.799999997,B,buttoe,I,e,215,2,4167.100000008941,777391.6999999881,9045,WL,C,8.0
6,43.884000062942505,distr,16115.999937057495,Wed Mar 18 2026 11:19:51 GMT-0400 (Eastern Daylight Time),781808.6999999881,B,buttoer,I,r,230,2,4417.0,777391.6999999881,9045,WL,C,8.0
6,44.282999992370605,distr,15717.000007629395,Wed Mar 18 2026 11:19:51 GMT-0400 (Eastern Daylight Time),782208.0,B,buttoerenter,I,enter,369,2,4816.300000011921,777391.6999999881,9045,WL,C,8.0
6,46.08400011062622,distr,13915.99988937378,Wed Mar 18 2026 11:19:51 GMT-0400 (Eastern Daylight Time),784008.3999999911,B,b,I,b,1792,2,1800.0,782208.3999999911,9045,WL,C,9.0
6,46.28400015830994,distr,13715.999841690063,Wed Mar 18 2026 11:19:51 GMT-0400 (Eastern Daylight Time),784208.599999994,B,bu,I,u,178,2,2000.2000000029802,782208.3999999911,9045,WL,C,9.0
6,46.66700005531311,distr,13332.99994468689,Wed Mar 18 2026 11:19:51 GMT-0400 (Eastern Daylight Time),784591.8999999911,B,but,I,t,357,2,2383.5,782208.3999999911,9045,WL,C,9.0
6,46.85000014305115,distr,13149.999856948853,Wed Mar 18 2026 11:19:51 GMT-0400 (Eastern Daylight Time),784774.8999999911,B,butt,I,t,171,2,2566.5,782208.3999999911,9045,WL,C,9.0
6,47.83400011062622,distr,12165.99988937378,Wed Mar 18 2026 11:19:51 GMT-0400 (Eastern Daylight Time),785758.5,B,butte,I,e,957,2,3550.1000000089407,782208.3999999911,9045,WL,C,9.0
6,48.049999952316284,distr,11950.000047683716,Wed Mar 18 2026 11:19:51 GMT-0400 (Eastern Daylight Time),785974.8999999911,B,butter,I,r,206,2,3766.5,782208.3999999911,9045,WL,C,9.0
6,48.35000014305115,distr,11649.999856948853,Wed Mar 18 2026 11:19:51 GMT-0400 (Eastern Daylight Time),786274.6999999881,B,butterenter,I,enter,275,2,4066.2999999970198,782208.3999999911,9045,WL,C,9.0
6,53.717000007629395,distr,6282.9999923706055,Wed Mar 18 2026 11:19:51 GMT-0400 (Eastern Daylight Time),791641.8999999911,B,t,I,t,5357,2,5366.899999991059,786275.0,9045,WL,C,10.0
6,53.95099997520447,distr,6049.000024795532,Wed Mar 18 2026 11:19:51 GMT-0400 (Eastern Daylight Time),791875.1999999881,B,to,I,o,210,2,5600.199999988079,786275.0,9045,WL,C,10.0
6,54.367000102996826,distr,5632.999897003174,Wed Mar 18 2026 11:19:51 GMT-0400 (Eastern Daylight Time),792291.799999997,B,too,I,o,392,2,6016.79999999702,786275.0,9045,WL,C,10.0
6,54.617000102996826,distr,5382.999897003174,Wed Mar 18 2026 11:19:51 GMT-0400 (Eastern Daylight Time),792542.0,B,tool,I,l,232,2,6267.0,786275.0,9045,WL,C,10.0
6,54.950000047683716,distr,5049.999952316284,Wed Mar 18 2026 11:19:51 GMT-0400 (Eastern Daylight Time),792874.799999997,B,toolenter,I,enter,318,2,6599.79999999702,786275.0,9045,WL,C,10.0
6,60.01699995994568,distr,-16.99995994567871,Wed Mar 18 2026 11:19:51 GMT-0400 (Eastern Daylight Time),797942.099999994,B,None,I,None,5061,2,5067.0,792875.099999994,9045,WL,C,11.0
7,3.5840001106262207,immed,56415.99988937378,Wed Mar 18 2026 11:19:51 GMT-0400 (Eastern Daylight Time),822725.1999999881,A,n,I,n,3559,2,3582.8999999910593,819142.299999997,9045,WL,C,1.0
7,3.867000102996826,immed,56132.999897003174,Wed Mar 18 2026 11:19:51 GMT-0400 (Eastern Daylight Time),823008.599999994,A,na,I,a,263,2,3866.2999999970198,819142.299999997,9045,WL,C,1.0
7,4.16700005531311,immed,55832.99994468689,Wed Mar 18 2026 11:19:51 GMT-0400 (Eastern Daylight Time),823308.599999994,A,nai,I,i,284,2,4166.29999999702,819142.299999997,9045,WL,C,1.0
7,4.450000047683716,immed,55549.999952316284,Wed Mar 18 2026 11:19:51 GMT-0400 (Eastern Daylight Time),823591.599999994,A,nail,I,l,271,2,4449.29999999702,819142.299999997,9045,WL,C,1.0
7,5.733000040054321,immed,54266.99995994568,Wed Mar 18 2026 11:19:51 GMT-0400 (Eastern Daylight Time),824874.6999999881,A,nailenter,I,enter,1270,2,5732.399999991059,819142.299999997,9045,WL,C,1.0
7,6.817000150680542,immed,53182.99984931946,Wed Mar 18 2026 11:19:51 GMT-0400 (Eastern Daylight Time),825958.5,A,s,I,s,1061,2,1083.5,824875.0,9045,WL,C,2.0
7,6.950000047683716,immed,53049.999952316284,Wed Mar 18 2026 11:19:51 GMT-0400 (Eastern Daylight Time),826091.799999997,A,sh,I,h,117,2,1216.7999999970198,824875.0,9045,WL,C,2.0
7,7.25,immed,52750.0,Wed Mar 18 2026 11:19:51 GMT-0400 (Eastern Daylight Time),826391.6999999881,A,sho,I,o,279,2,1516.699999988079,824875.0,9045,WL,C,2.0
7,7.5329999923706055,immed,52467.000007629395,Wed Mar 18 2026 11:19:51 GMT-0400 (Eastern Daylight Time),826675.099999994,A,shor,I,r,261,2,1800.0999999940395,824875.0,9045,WL,C,2.0
7,7.650000095367432,immed,52349.99990463257,Wed Mar 18 2026 11:19:51 GMT-0400 (Eastern Daylight Time),826791.6999999881,A,shore,I,e,105,2,1916.699999988079,824875.0,9045,WL,C,2.0
7,7.966000080108643,immed,52033.99991989136,Wed Mar 18 2026 11:19:51 GMT-0400 (Eastern Daylight Time),827108.099999994,A,shoreenter,I,enter,291,2,2233.0999999940395,824875.0,9045,WL,C,2.0
7,9.717000007629395,immed,50282.999992370605,Wed Mar 18 2026 11:19:51 GMT-0400 (Eastern Daylight Time),828858.5,A,b,I,b,1740,2,1750.1000000089407,827108.3999999911,9045,WL,C,3.0
7,10.067000150680542,immed,49932.99984931946,Wed Mar 18 2026 11:19:51 GMT-0400 (Eastern Daylight Time),829208.5,A,bo,I,o,336,2,2100.1000000089407,827108.3999999911,9045,WL,C,3.0
7,10.549999952316284,immed,49450.000047683716,Wed Mar 18 2026 11:19:51 GMT-0400 (Eastern Daylight Time),829691.8999999911,A,bod,I,d,467,2,2583.5,827108.3999999911,9045,WL,C,3.0
7,11.467000007629395,immed,48532.999992370605,Wed Mar 18 2026 11:19:51 GMT-0400 (Eastern Daylight Time),830608.5,A,body,I,y,897,2,3500.1000000089407,827108.3999999911,9045,WL,C,3.0
7,11.850000143051147,immed,48149.99985694885,Wed Mar 18 2026 11:19:51 GMT-0400 (Eastern Daylight Time),830991.3999999911,A,bodyenter,I,enter,362,2,3883.0,827108.3999999911,9045,WL,C,3.0
7,12.717000007629395,immed,47282.999992370605,Wed Mar 18 2026 11:19:51 GMT-0400 (Eastern Daylight Time),831858.599999994,A,t,I,t,848,2,866.9000000059605,830991.6999999881,9045,WL,C,4.0
7,13.25,immed,46750.0,Wed Mar 18 2026 11:19:51 GMT-0400 (Eastern Daylight Time),832391.599999994,A,to,I,o,522,2,1399.9000000059605,830991.6999999881,9045,WL,C,4.0
7,13.66700005531311,immed,46332.99994468689,Wed Mar 18 2026 11:19:51 GMT-0400 (Eastern Daylight Time),832808.5,A,tow,I,w,406,2,1816.800000011921,830991.6999999881,9045,WL,C,4.0
7,13.900000095367432,immed,46099.99990463257,Wed Mar 18 2026 11:19:51 GMT-0400 (Eastern Daylight Time),833042.0,A,towe,I,e,211,2,2050.300000011921,830991.6999999881,9045,WL,C,4.0
7,14.117000102996826,immed,45882.999897003174,Wed Mar 18 2026 11:19:51 GMT-0400 (Eastern Daylight Time),833258.599999994,A,tower,I,r,193,2,2266.9000000059605,830991.6999999881,9045,WL,C,4.0
7,14.466000080108643,immed,45533.99991989136,Wed Mar 18 2026 11:19:51 GMT-0400 (Eastern Daylight Time),833608.0,A,towerenter,I,enter,336,2,2616.300000011921,830991.6999999881,9045,WL,C,4.0
7,15.217000007629395,immed,44782.999992370605,Wed Mar 18 2026 11:19:51 GMT-0400 (Eastern Daylight Time),834358.599999994,A,q,I,q,727,2,750.2999999970198,833608.299999997,9045,WL,C,5.0
7,15.700000047683716,immed,44299.999952316284,Wed Mar 18 2026 11:19:51 GMT-0400 (Eastern Daylight Time),834841.8999999911,A,qu,I,u,469,2,1233.5999999940395,833608.299999997,9045,WL,C,5.0
7,16.08299994468689,immed,43917.00005531311,Wed Mar 18 2026 11:19:51 GMT-0400 (Eastern Daylight Time),835225.099999994,A,que,I,e,371,2,1616.7999999970198,833608.299999997,9045,WL,C,5.0
7,16.33400011062622,immed,43665.99988937378,Wed Mar 18 2026 11:19:51 GMT-0400 (Eastern Daylight Time),835475.299999997,A,quee,I,e,227,2,1867.0,833608.299999997,9045,WL,C,5.0
7,16.617000102996826,immed,43382.999897003174,Wed Mar 18 2026 11:19:51 GMT-0400 (Eastern Daylight Time),835758.3999999911,A,queen,I,n,264,2,2150.0999999940395,833608.299999997,9045,WL,C,5.0
7,17.049999952316284,immed,42950.000047683716,Wed Mar 18 2026 11:19:51 GMT-0400 (Eastern Daylight Time),836191.3999999911,A,queenenter,I,enter,413,2,2583.0999999940395,833608.299999997,9045,WL,C,5.0
7,22.73300004005432,immed,37266.99995994568,Wed Mar 18 2026 11:19:51 GMT-0400 (Eastern Daylight Time),841875.1999999881,A,b,I,b,5665,2,5683.5,836191.6999999881,9045,WL,C,6.0
7,23.100000143051147,immed,36899.99985694885,Wed Mar 18 2026 11:19:51 GMT-0400 (Eastern Daylight Time),842241.8999999911,A,bo,I,o,344,2,6050.20000000298,836191.6999999881,9045,WL,C,6.0
7,23.600000143051147,immed,36399.99985694885,Wed Mar 18 2026 11:19:51 GMT-0400 (Eastern Daylight Time),842741.8999999911,A,boy,I,y,474,2,6550.20000000298,836191.6999999881,9045,WL,C,6.0
7,24.08299994468689,immed,35917.00005531311,Wed Mar 18 2026 11:19:51 GMT-0400 (Eastern Daylight Time),843224.799999997,A,boyenter,I,enter,469,2,7033.100000008941,836191.6999999881,9045,WL,C,6.0
7,24.48300004005432,immed,35516.99995994568,Wed Mar 18 2026 11:19:51 GMT-0400 (Eastern Daylight Time),843625.099999994,A,c,I,c,390,2,399.90000000596046,843225.1999999881,9045,WL,C,7.0
7,24.867000102996826,immed,35132.999897003174,Wed Mar 18 2026 11:19:51 GMT-0400 (Eastern Daylight Time),844008.3999999911,A,ca,I,a,368,2,783.2000000029802,843225.1999999881,9045,WL,C,7.0
7,25.367000102996826,immed,34632.999897003174,Wed Mar 18 2026 11:19:51 GMT-0400 (Eastern Daylight Time),844508.5,A,cam,I,m,484,2,1283.300000011921,843225.1999999881,9045,WL,C,7.0
7,26.15000009536743,immed,33849.99990463257,Wed Mar 18 2026 11:19:51 GMT-0400 (Eastern Daylight Time),845291.8999999911,A,camp,I,p,768,2,2066.7000000029802,843225.1999999881,9045,WL,C,7.0
7,26.5,immed,33500.0,Wed Mar 18 2026 11:19:51 GMT-0400 (Eastern Daylight Time),845641.5,A,campenter,I,enter,336,2,2416.300000011921,843225.1999999881,9045,WL,C,7.0
7,28.450000047683716,immed,31549.999952316284,Wed Mar 18 2026 11:19:51 GMT-0400 (Eastern Daylight Time),847591.5,A,d,I,d,1942,2,1949.7000000029802,845641.799999997,9045,WL,C,8.0
7,28.634000062942505,immed,31365.999937057495,Wed Mar 18 2026 11:19:51 GMT-0400 (Eastern Daylight Time),847775.299999997,A,do,I,o,164,2,2133.5,845641.799999997,9045,WL,C,8.0
7,29.450000047683716,immed,30549.999952316284,Wed Mar 18 2026 11:19:51 GMT-0400 (Eastern Daylight Time),848591.799999997,A,doc,I,c,796,2,2950.0,845641.799999997,9045,WL,C,8.0
7,29.83400011062622,immed,30165.99988937378,Wed Mar 18 2026 11:19:51 GMT-0400 (Eastern Daylight Time),848975.3999999911,A,doct,I,t,362,2,3333.5999999940395,845641.799999997,9045,WL,C,8.0
7,30.049999952316284,immed,29950.000047683716,Wed Mar 18 2026 11:19:51 GMT-0400 (Eastern Daylight Time),849191.599999994,A,docto,I,o,205,2,3549.7999999970198,845641.799999997,9045,WL,C,8.0
7,30.18400001525879,immed,29815.99998474121,Wed Mar 18 2026 11:19:51 GMT-0400 (Eastern Daylight Time),849325.299999997,A,doctor,I,r,116,2,3683.5,845641.799999997,9045,WL,C,8.0
7,30.466000080108643,immed,29533.999919891357,Wed Mar 18 2026 11:19:51 GMT-0400 (Eastern Daylight Time),849608.099999994,A,doctorenter,I,enter,263,2,3966.2999999970198,845641.799999997,9045,WL,C,8.0
7,31.217000007629395,immed,28782.999992370605,Wed Mar 18 2026 11:19:51 GMT-0400 (Eastern Daylight Time),850358.6999999881,A,c,I,c,744,2,750.2999999970198,849608.3999999911,9045,WL,C,9.0
7,31.51699995994568,immed,28483.00004005432,Wed Mar 18 2026 11:19:51 GMT-0400 (Eastern Daylight Time),850658.3999999911,A,co,I,o,278,2,1050.0,849608.3999999911,9045,WL,C,9.0
7,31.782999992370605,immed,28217.000007629395,Wed Mar 18 2026 11:19:51 GMT-0400 (Eastern Daylight Time),850925.099999994,A,cor,I,r,249,2,1316.7000000029802,849608.3999999911,9045,WL,C,9.0
7,32.35000014305115,immed,27649.999856948853,Wed Mar 18 2026 11:19:51 GMT-0400 (Eastern Daylight Time),851491.8999999911,A,corn,I,n,544,2,1883.5,849608.3999999911,9045,WL,C,9.0
7,32.71600008010864,immed,27283.999919891357,Wed Mar 18 2026 11:19:51 GMT-0400 (Eastern Daylight Time),851858.0,A,cornenter,I,enter,343,2,2249.6000000089407,849608.3999999911,9045,WL,C,9.0
7,33.134000062942505,immed,26865.999937057495,Wed Mar 18 2026 11:19:51 GMT-0400 (Eastern Daylight Time),852275.299999997,A,w,I,w,399,2,417.0,851858.299999997,9045,WL,C,10.0
7,33.41700005531311,immed,26582.99994468689,Wed Mar 18 2026 11:19:51 GMT-0400 (Eastern Daylight Time),852558.5,A,wh,I,h,265,2,700.2000000029802,851858.299999997,9045,WL,C,10.0
7,33.90000009536743,immed,26099.99990463257,Wed Mar 18 2026 11:19:51 GMT-0400 (Eastern Daylight Time),853041.799999997,A,whe,I,e,461,2,1183.5,851858.299999997,9045,WL,C,10.0
7,34.217000007629395,immed,25782.999992370605,Wed Mar 18 2026 11:19:51 GMT-0400 (Eastern Daylight Time),853358.599999994,A,whea,I,a,299,2,1500.2999999970198,851858.299999997,9045,WL,C,10.0
7,34.51699995994568,immed,25483.00004005432,Wed Mar 18 2026 11:19:51 GMT-0400 (Eastern Daylight Time),853658.5,A,wheat,I,t,284,2,1800.2000000029802,851858.299999997,9045,WL,C,10.0
7,34.76600003242493,immed,25233.999967575073,Wed Mar 18 2026 11:19:51 GMT-0400 (Eastern Daylight Time),853908.0,A,wheatenter,I,enter,226,2,2049.7000000029802,851858.299999997,9045,WL,C,10.0
7,35.549999952316284,immed,24450.000047683716,Wed Mar 18 2026 11:19:51 GMT-0400 (Eastern Daylight Time),854692.0,A,s,I,s,764,2,783.7000000029802,853908.299999997,9045,WL,C,11.0
7,35.782999992370605,immed,24217.000007629395,Wed Mar 18 2026 11:19:51 GMT-0400 (Eastern Daylight Time),854925.1999999881,A,su,I,u,215,2,1016.8999999910593,853908.299999997,9045,WL,C,11.0
7,36.384000062942505,immed,23615.999937057495,Wed Mar 18 2026 11:19:51 GMT-0400 (Eastern Daylight Time),855525.299999997,A,sug,I,g,576,2,1617.0,853908.299999997,9045,WL,C,11.0
7,36.782999992370605,immed,23217.000007629395,Wed Mar 18 2026 11:19:51 GMT-0400 (Eastern Daylight Time),855925.1999999881,A,suga,I,a,375,2,2016.8999999910593,853908.299999997,9045,WL,C,11.0
7,37.03400015830994,immed,22965.999841690063,Wed Mar 18 2026 11:19:51 GMT-0400 (Eastern Daylight Time),856175.299999997,A,sugar,I,r,231,2,2267.0,853908.299999997,9045,WL,C,11.0
7,37.35000014305115,immed,22649.999856948853,Wed Mar 18 2026 11:19:51 GMT-0400 (Eastern Daylight Time),856491.3999999911,A,sugarenter,I,enter,299,2,2583.0999999940395,853908.299999997,9045,WL,C,11.0
7,38.117000102996826,immed,21882.999897003174,Wed Mar 18 2026 11:19:51 GMT-0400 (Eastern Daylight Time),857258.5,A,l,I,l,757,2,766.8000000119209,856491.6999999881,9045,WL,C,12.0
7,38.617000102996826,immed,21382.999897003174,Wed Mar 18 2026 11:19:51 GMT-0400 (Eastern Daylight Time),857758.599999994,A,le,I,e,481,2,1266.9000000059605,856491.6999999881,9045,WL,C,12.0
7,38.93400001525879,immed,21065.99998474121,Wed Mar 18 2026 11:19:51 GMT-0400 (Eastern Daylight Time),858075.299999997,A,let,I,t,302,2,1583.6000000089407,856491.6999999881,9045,WL,C,12.0
7,39.13300013542175,immed,20866.999864578247,Wed Mar 18 2026 11:19:51 GMT-0400 (Eastern Daylight Time),858275.099999994,A,lett,I,t,178,2,1783.4000000059605,856491.6999999881,9045,WL,C,12.0
7,39.43400001525879,immed,20565.99998474121,Wed Mar 18 2026 11:19:51 GMT-0400 (Eastern Daylight Time),858575.299999997,A,lette,I,e,281,2,2083.6000000089407,856491.6999999881,9045,WL,C,12.0
7,39.549999952316284,immed,20450.000047683716,Wed Mar 18 2026 11:19:51 GMT-0400 (Eastern Daylight Time),858691.799999997,A,letter,I,r,94,2,2200.1000000089407,856491.6999999881,9045,WL,C,12.0
7,39.88300013542175,immed,20116.999864578247,Wed Mar 18 2026 11:19:51 GMT-0400 (Eastern Daylight Time),859024.799999997,A,letterenter,I,enter,312,2,2533.1000000089407,856491.6999999881,9045,WL,C,12.0
7,41.367000102996826,immed,18632.999897003174,Wed Mar 18 2026 11:19:51 GMT-0400 (Eastern Daylight Time),860508.5,A,f,I,f,1471,2,1483.4000000059605,859025.099999994,9045,WL,C,13.0
7,41.56700015068054,immed,18432.999849319458,Wed Mar 18 2026 11:19:51 GMT-0400 (Eastern Daylight Time),860708.5,A,fl,I,l,176,2,1683.4000000059605,859025.099999994,9045,WL,C,13.0
7,41.867000102996826,immed,18132.999897003174,Wed Mar 18 2026 11:19:51 GMT-0400 (Eastern Daylight Time),861008.3999999911,A,fla,I,a,278,2,1983.2999999970198,859025.099999994,9045,WL,C,13.0
7,42.63300013542175,immed,17366.999864578247,Wed Mar 18 2026 11:19:51 GMT-0400 (Eastern Daylight Time),861775.1999999881,A,flag,I,g,748,2,2750.0999999940395,859025.099999994,9045,WL,C,13.0
7,42.90000009536743,immed,17099.99990463257,Wed Mar 18 2026 11:19:51 GMT-0400 (Eastern Daylight Time),862041.3999999911,A,flagenter,I,enter,253,2,3016.2999999970198,859025.099999994,9045,WL,C,13.0
7,50.049999952316284,immed,9950.000047683716,Wed Mar 18 2026 11:19:51 GMT-0400 (Eastern Daylight Time),869191.6999999881,A,t,I,t,7143,2,7150.0,862041.6999999881,9045,WL,C,14.0
7,50.282999992370605,immed,9717.000007629395,Wed Mar 18 2026 11:19:51 GMT-0400 (Eastern Daylight Time),869425.1999999881,A,to,I,o,212,2,7383.5,862041.6999999881,9045,WL,C,14.0
7,50.73300004005432,immed,9266.999959945679,Wed Mar 18 2026 11:19:51 GMT-0400 (Eastern Daylight Time),869875.1999999881,A,tow,I,w,427,2,7833.5,862041.6999999881,9045,WL,C,14.0
7,50.950000047683716,immed,9049.999952316284,Wed Mar 18 2026 11:19:51 GMT-0400 (Eastern Daylight Time),870091.8999999911,A,towe,I,e,201,2,8050.20000000298,862041.6999999881,9045,WL,C,14.0
7,51.217000007629395,immed,8782.999992370605,Wed Mar 18 2026 11:19:51 GMT-0400 (Eastern Daylight Time),870358.3999999911,A,tower,I,r,240,2,8316.70000000298,862041.6999999881,9045,WL,C,14.0
7,51.68300008773804,immed,8316.999912261963,Wed Mar 18 2026 11:19:51 GMT-0400 (Eastern Daylight Time),870824.6999999881,A,towerenter,I,enter,455,2,8783.0,862041.6999999881,9045,WL,C,14.0
7,52.90000009536743,immed,7099.999904632568,Wed Mar 18 2026 11:19:51 GMT-0400 (Eastern Daylight Time),872042.099999994,A,h,I,h,1206,2,1217.0999999940395,870825.0,9045,WL,C,15.0
7,53.282999992370605,immed,6717.0000076293945,Wed Mar 18 2026 11:19:51 GMT-0400 (Eastern Daylight Time),872425.1999999881,A,ho,I,o,363,2,1600.199999988079,870825.0,9045,WL,C,15.0
7,53.651000022888184,immed,6348.999977111816,Wed Mar 18 2026 11:19:51 GMT-0400 (Eastern Daylight Time),872792.8999999911,A,hom,I,m,355,2,1967.8999999910593,870825.0,9045,WL,C,15.0
7,54.06700015068054,immed,5932.999849319458,Wed Mar 18 2026 11:19:51 GMT-0400 (Eastern Daylight Time),873208.5,A,home,I,e,404,2,2383.5,870825.0,9045,WL,C,15.0
7,54.63300013542175,immed,5366.999864578247,Wed Mar 18 2026 11:19:51 GMT-0400 (Eastern Daylight Time),873774.6999999881,A,homeenter,I,enter,549,2,2949.699999988079,870825.0,9045,WL,C,15.0
