block_c,block_dur,condition,countdown,datetime,endtime,list,multichar_response,project,response,response_time,session_number,start_end,starttime,subject_id,task,task_vers,trial
,,,,Tue Jun 30 2026 11:35:10 GMT-0400 (Eastern Daylight Time),,,,I,space,111,3,,,9045,WL,B,
prac,,0,,Tue Jun 30 2026 11:35:10 GMT-0400 (Eastern Daylight Time),,NA,b,I,b,2615,3,,,9045,WL,B,1.0
prac,,0,,Tue Jun 30 2026 11:35:10 GMT-0400 (Eastern Daylight Time),,NA,bo,I,o,320,3,,,9045,WL,B,1.0
prac,,0,,Tue Jun 30 2026 11:35:10 GMT-0400 (Eastern Daylight Time),,NA,boo,I,o,162,3,,,9045,WL,B,1.0
prac,,0,,Tue Jun 30 2026 11:35:10 GMT-0400 (Eastern Daylight Time),,NA,boos,I,s,209,3,,,9045,WL,B,1.0
prac,,0,,Tue Jun 30 2026 11:35:10 GMT-0400 (Eastern Daylight Time),,NA,boost,I,t,240,3,,,9045,WL,B,1.0
prac,,0,,Tue Jun 30 2026 11:35:10 GMT-0400 (Eastern Daylight Time),,NA,boostenter,I,enter,518,3,,,9045,WL,B,1.0
1,2.2669999599456787,learn,57733.00004005432,Tue Jun 30 2026 11:35:10 GMT-0400 (Eastern Daylight Time),124960.90000000037,A,s,I,s,2252,3,2266.0999999996275,122694.80000000075,9045,WL,B,1.0
1,2.6670000553131104,learn,57332.99994468689,Tue Jun 30 2026 11:35:10 GMT-0400 (Eastern Daylight Time),125360.5,A,st,I,t,383,3,2665.699999999255,122694.80000000075,9045,WL,B,1.0
1,3.000999927520752,learn,56999.00007247925,Tue Jun 30 2026 11:35:10 GMT-0400 (Eastern Daylight Time),125694.0,A,str,I,r,305,3,2999.199999999255,122694.80000000075,9045,WL,B,1.0
1,3.4179999828338623,learn,56582.00001716614,Tue Jun 30 2026 11:35:10 GMT-0400 (Eastern Daylight Time),126111.59999999963,A,stre,I,e,403,3,3416.7999999988824,122694.80000000075,9045,WL,B,1.0
1,3.634000062942505,learn,56365.999937057495,Tue Jun 30 2026 11:35:10 GMT-0400 (Eastern Daylight Time),126327.40000000037,A,stree,I,e,194,3,3632.5999999996275,122694.80000000075,9045,WL,B,1.0
1,3.8339998722076416,learn,56166.00012779236,Tue Jun 30 2026 11:35:10 GMT-0400 (Eastern Daylight Time),126527.30000000075,A,street,I,t,176,3,3832.5,122694.80000000075,9045,WL,B,1.0
1,7.516999959945679,learn,52483.00004005432,Tue Jun 30 2026 11:35:10 GMT-0400 (Eastern Daylight Time),130210.09999999963,A,streetenter,I,enter,3665,3,7515.299999998882,122694.80000000075,9045,WL,B,1.0
1,8.684000015258789,learn,51315.99998474121,Tue Jun 30 2026 11:35:10 GMT-0400 (Eastern Daylight Time),131377.30000000075,A,g,I,g,1154,3,1166.6000000014901,130210.69999999925,9045,WL,B,2.0
1,8.91700005531311,learn,51082.99994468689,Tue Jun 30 2026 11:35:10 GMT-0400 (Eastern Daylight Time),131610.59999999963,A,gr,I,r,207,3,1399.9000000003725,130210.69999999925,9045,WL,B,2.0
1,9.516999959945679,learn,50483.00004005432,Tue Jun 30 2026 11:35:10 GMT-0400 (Eastern Daylight Time),132210.69999999925,A,gra,I,a,584,3,2000.0,130210.69999999925,9045,WL,B,2.0
1,9.884000062942505,learn,50115.999937057495,Tue Jun 30 2026 11:35:10 GMT-0400 (Eastern Daylight Time),132577.30000000075,A,gras,I,s,351,3,2366.60000000149,130210.69999999925,9045,WL,B,2.0
1,10.516999959945679,learn,49483.00004005432,Tue Jun 30 2026 11:35:10 GMT-0400 (Eastern Daylight Time),133210.09999999963,A,grasenter,I,enter,609,3,2999.4000000003725,130210.69999999925,9045,WL,B,2.0
1,13.866999864578247,learn,46133.00013542175,Tue Jun 30 2026 11:35:10 GMT-0400 (Eastern Daylight Time),136560.59999999963,A,w,I,w,3339,3,3349.7999999988824,133210.80000000075,9045,WL,B,3.0
1,14.134000062942505,learn,45865.999937057495,Tue Jun 30 2026 11:35:10 GMT-0400 (Eastern Daylight Time),136827.30000000075,A,wi,I,i,240,3,3616.5,133210.80000000075,9045,WL,B,3.0
1,15.200999975204468,learn,44799.00002479553,Tue Jun 30 2026 11:35:10 GMT-0400 (Eastern Daylight Time),137893.90000000037,A,win,I,n,1045,3,4683.0999999996275,133210.80000000075,9045,WL,B,3.0
1,15.566999912261963,learn,44433.00008773804,Tue Jun 30 2026 11:35:10 GMT-0400 (Eastern Daylight Time),138260.59999999963,A,wind,I,d,348,3,5049.799999998882,133210.80000000075,9045,WL,B,3.0
1,16.401000022888184,learn,43598.99997711182,Tue Jun 30 2026 11:35:10 GMT-0400 (Eastern Daylight Time),139094.0,A,windo,I,o,814,3,5883.199999999255,133210.80000000075,9045,WL,B,3.0
1,16.58399987220764,learn,43416.00012779236,Tue Jun 30 2026 11:35:10 GMT-0400 (Eastern Daylight Time),139277.40000000037,A,window,I,w,156,3,6066.5999999996275,133210.80000000075,9045,WL,B,3.0
1,17.01699995994568,learn,42983.00004005432,Tue Jun 30 2026 11:35:10 GMT-0400 (Eastern Daylight Time),139710.0,A,windowenter,I,enter,411,3,6499.199999999255,133210.80000000075,9045,WL,B,3.0
1,20.500999927520752,learn,39499.00007247925,Tue Jun 30 2026 11:35:10 GMT-0400 (Eastern Daylight Time),143194.0,A,p,I,p,3463,3,3483.5999999996275,139710.40000000037,9045,WL,B,4.0
1,20.8510000705719,learn,39148.9999294281,Tue Jun 30 2026 11:35:10 GMT-0400 (Eastern Daylight Time),143544.0,A,pu,I,u,329,3,3833.5999999996275,139710.40000000037,9045,WL,B,4.0
1,21.316999912261963,learn,38683.00008773804,Tue Jun 30 2026 11:35:10 GMT-0400 (Eastern Daylight Time),144010.59999999963,A,pup,I,p,441,3,4300.199999999255,139710.40000000037,9045,WL,B,4.0
1,21.58399987220764,learn,38416.00012779236,Tue Jun 30 2026 11:35:10 GMT-0400 (Eastern Daylight Time),144277.19999999925,A,pupi,I,i,248,3,4566.799999998882,139710.40000000037,9045,WL,B,4.0
1,21.91700005531311,learn,38082.99994468689,Tue Jun 30 2026 11:35:10 GMT-0400 (Eastern Daylight Time),144610.5,A,pupil,I,l,315,3,4900.0999999996275,139710.40000000037,9045,WL,B,4.0
1,23.549999952316284,learn,36450.000047683716,Tue Jun 30 2026 11:35:10 GMT-0400 (Eastern Daylight Time),146243.5,A,pupilenter,I,enter,1615,3,6533.0999999996275,139710.40000000037,9045,WL,B,4.0
1,24.450999975204468,learn,35549.00002479553,Tue Jun 30 2026 11:35:10 GMT-0400 (Eastern Daylight Time),147143.90000000037,A,w,I,w,882,3,900.0,146243.90000000037,9045,WL,B,5.0
1,24.68400001525879,learn,35315.99998474121,Tue Jun 30 2026 11:35:10 GMT-0400 (Eastern Daylight Time),147377.30000000075,A,wi,I,i,216,3,1133.4000000003725,146243.90000000037,9045,WL,B,5.0
1,25.033999919891357,learn,34966.00008010864,Tue Jun 30 2026 11:35:10 GMT-0400 (Eastern Daylight Time),147727.09999999963,A,wif,I,f,336,3,1483.199999999255,146243.90000000037,9045,WL,B,5.0
1,25.283999919891357,learn,34716.00008010864,Tue Jun 30 2026 11:35:10 GMT-0400 (Eastern Daylight Time),147977.19999999925,A,wife,I,e,228,3,1733.2999999988824,146243.90000000037,9045,WL,B,5.0
1,25.66700005531311,learn,34332.99994468689,Tue Jun 30 2026 11:35:10 GMT-0400 (Eastern Daylight Time),148360.09999999963,A,wifeenter,I,enter,359,3,2116.199999999255,146243.90000000037,9045,WL,B,5.0
1,27.401000022888184,learn,32598.999977111816,Tue Jun 30 2026 11:35:10 GMT-0400 (Eastern Daylight Time),150094.09999999963,A,c,I,c,1725,3,1733.5999999996275,148360.5,9045,WL,B,6.0
1,27.616999864578247,learn,32383.000135421753,Tue Jun 30 2026 11:35:10 GMT-0400 (Eastern Daylight Time),150310.59999999963,A,ci,I,i,196,3,1950.0999999996275,148360.5,9045,WL,B,6.0
1,28.151000022888184,learn,31848.999977111816,Tue Jun 30 2026 11:35:10 GMT-0400 (Eastern Daylight Time),150843.90000000037,A,ciy,I,y,497,3,2483.4000000003725,148360.5,9045,WL,B,6.0
1,29.41700005531311,learn,30582.99994468689,Tue Jun 30 2026 11:35:10 GMT-0400 (Eastern Daylight Time),152110.0,A,ciyenter,I,enter,1253,3,3749.5,148360.5,9045,WL,B,6.0
1,35.800999879837036,learn,24199.000120162964,Tue Jun 30 2026 11:35:10 GMT-0400 (Eastern Daylight Time),158494.09999999963,A,s,I,s,6375,3,6383.799999998882,152110.30000000075,9045,WL,B,7.0
1,36.134000062942505,learn,23865.999937057495,Tue Jun 30 2026 11:35:10 GMT-0400 (Eastern Daylight Time),158827.19999999925,A,st,I,t,309,3,6716.89999999851,152110.30000000075,9045,WL,B,7.0
1,36.93400001525879,learn,23065.99998474121,Tue Jun 30 2026 11:35:10 GMT-0400 (Eastern Daylight Time),159627.19999999925,A,sta,I,a,773,3,7516.89999999851,152110.30000000075,9045,WL,B,7.0
1,37.28399991989136,learn,22716.000080108643,Tue Jun 30 2026 11:35:10 GMT-0400 (Eastern Daylight Time),159977.09999999963,A,star,I,r,326,3,7866.799999998882,152110.30000000075,9045,WL,B,7.0
1,37.632999897003174,learn,22367.000102996826,Tue Jun 30 2026 11:35:10 GMT-0400 (Eastern Daylight Time),160326.69999999925,A,starenter,I,enter,330,3,8216.39999999851,152110.30000000075,9045,WL,B,7.0
1,55.18400001525879,learn,4815.999984741211,Tue Jun 30 2026 11:35:10 GMT-0400 (Eastern Daylight Time),177877.30000000075,A,c,I,c,17536,3,17550.200000001118,160327.09999999963,9045,WL,B,8.0
1,55.66700005531311,learn,4332.99994468689,Tue Jun 30 2026 11:35:10 GMT-0400 (Eastern Daylight Time),178360.5,A,ca,I,a,461,3,18033.400000000373,160327.09999999963,9045,WL,B,8.0
1,56.33399987220764,learn,3666.0001277923584,Tue Jun 30 2026 11:35:10 GMT-0400 (Eastern Daylight Time),179027.19999999925,A,cab,I,b,650,3,18700.099999999627,160327.09999999963,9045,WL,B,8.0
1,56.68400001525879,learn,3315.999984741211,Tue Jun 30 2026 11:35:10 GMT-0400 (Eastern Daylight Time),179377.09999999963,A,cabi,I,i,335,3,19050.0,160327.09999999963,9045,WL,B,8.0
1,57.134000062942505,learn,2865.999937057495,Tue Jun 30 2026 11:35:10 GMT-0400 (Eastern Daylight Time),179827.09999999963,A,cabin,I,n,433,3,19500.0,160327.09999999963,9045,WL,B,8.0
1,57.61699986457825,learn,2383.000135421753,Tue Jun 30 2026 11:35:10 GMT-0400 (Eastern Daylight Time),180310.0,A,cabinenter,I,enter,461,3,19982.900000000373,160327.09999999963,9045,WL,B,8.0
1,60.01699995994568,learn,-16.99995994567871,Tue Jun 30 2026 11:35:10 GMT-0400 (Eastern Daylight Time),182710.5,A,None,I,None,2393,3,2400.0,180310.5,9045,WL,B,9.0
2,1.8670001029968262,learn,58132.999897003174,Tue Jun 30 2026 11:35:10 GMT-0400 (Eastern Daylight Time),252577.09999999963,A,s,I,s,1854,3,1866.4000000003725,250710.69999999925,9045,WL,B,1.0
2,2.2170000076293945,learn,57782.999992370605,Tue Jun 30 2026 11:35:10 GMT-0400 (Eastern Daylight Time),252926.90000000037,A,st,I,t,335,3,2216.2000000011176,250710.69999999925,9045,WL,B,1.0
2,2.4000000953674316,learn,57599.99990463257,Tue Jun 30 2026 11:35:10 GMT-0400 (Eastern Daylight Time),253110.30000000075,A,str,I,r,163,3,2399.60000000149,250710.69999999925,9045,WL,B,1.0
2,2.75,learn,57250.0,Tue Jun 30 2026 11:35:10 GMT-0400 (Eastern Daylight Time),253460.30000000075,A,stre,I,e,324,3,2749.60000000149,250710.69999999925,9045,WL,B,1.0
2,2.950000047683716,learn,57049.999952316284,Tue Jun 30 2026 11:35:10 GMT-0400 (Eastern Daylight Time),253660.30000000075,A,stree,I,e,173,3,2949.60000000149,250710.69999999925,9045,WL,B,1.0
2,3.1500000953674316,learn,56849.99990463257,Tue Jun 30 2026 11:35:10 GMT-0400 (Eastern Daylight Time),253860.30000000075,A,street,I,t,182,3,3149.60000000149,250710.69999999925,9045,WL,B,1.0
2,3.5160000324249268,learn,56483.99996757507,Tue Jun 30 2026 11:35:10 GMT-0400 (Eastern Daylight Time),254226.5,A,streetenter,I,enter,349,3,3515.800000000745,250710.69999999925,9045,WL,B,1.0
2,4.617000102996826,learn,55382.999897003174,Tue Jun 30 2026 11:35:10 GMT-0400 (Eastern Daylight Time),255326.90000000037,A,g,I,g,1092,3,1100.0,254226.90000000037,9045,WL,B,2.0
2,4.867000102996826,learn,55132.999897003174,Tue Jun 30 2026 11:35:10 GMT-0400 (Eastern Daylight Time),255576.90000000037,A,gr,I,r,225,3,1350.0,254226.90000000037,9045,WL,B,2.0
2,5.516999959945679,learn,54483.00004005432,Tue Jun 30 2026 11:35:10 GMT-0400 (Eastern Daylight Time),256227.09999999963,A,gra,I,a,634,3,2000.199999999255,254226.90000000037,9045,WL,B,2.0
2,5.799999952316284,learn,54200.000047683716,Tue Jun 30 2026 11:35:10 GMT-0400 (Eastern Daylight Time),256510.0,A,gras,I,s,270,3,2283.0999999996275,254226.90000000037,9045,WL,B,2.0
2,6.08299994468689,learn,53917.00005531311,Tue Jun 30 2026 11:35:10 GMT-0400 (Eastern Daylight Time),256793.80000000075,A,grass,I,s,259,3,2566.9000000003725,254226.90000000037,9045,WL,B,2.0
2,6.400000095367432,learn,53599.99990463257,Tue Jun 30 2026 11:35:10 GMT-0400 (Eastern Daylight Time),257109.90000000037,A,grassenter,I,enter,297,3,2883.0,254226.90000000037,9045,WL,B,2.0
2,7.7170000076293945,learn,52282.999992370605,Tue Jun 30 2026 11:35:10 GMT-0400 (Eastern Daylight Time),258427.0,A,p,I,p,1297,3,1316.800000000745,257110.19999999925,9045,WL,B,3.0
2,7.933000087738037,learn,52066.99991226196,Tue Jun 30 2026 11:35:10 GMT-0400 (Eastern Daylight Time),258643.69999999925,A,pi,I,i,200,3,1533.5,257110.19999999925,9045,WL,B,3.0
2,8.200999975204468,learn,51799.00002479553,Tue Jun 30 2026 11:35:10 GMT-0400 (Eastern Daylight Time),258911.30000000075,A,pip,I,p,254,3,1801.1000000014901,257110.19999999925,9045,WL,B,3.0
2,8.450000047683716,learn,51549.999952316284,Tue Jun 30 2026 11:35:10 GMT-0400 (Eastern Daylight Time),259160.30000000075,A,pipe,I,e,227,3,2050.10000000149,257110.19999999925,9045,WL,B,3.0
2,8.799999952316284,learn,51200.000047683716,Tue Jun 30 2026 11:35:10 GMT-0400 (Eastern Daylight Time),259509.80000000075,A,pipeenter,I,enter,328,3,2399.60000000149,257110.19999999925,9045,WL,B,3.0
2,9.433000087738037,learn,50566.99991226196,Tue Jun 30 2026 11:35:10 GMT-0400 (Eastern Daylight Time),260143.59999999963,A,w,I,w,623,3,633.4000000003725,259510.19999999925,9045,WL,B,4.0
2,9.700000047683716,learn,50299.999952316284,Tue Jun 30 2026 11:35:10 GMT-0400 (Eastern Daylight Time),260410.30000000075,A,wi,I,i,244,3,900.1000000014901,259510.19999999925,9045,WL,B,4.0
2,10.58299994468689,learn,49417.00005531311,Tue Jun 30 2026 11:35:10 GMT-0400 (Eastern Daylight Time),261293.59999999963,A,win,I,n,857,3,1783.4000000003725,259510.19999999925,9045,WL,B,4.0
2,11.066999912261963,learn,48933.00008773804,Tue Jun 30 2026 11:35:10 GMT-0400 (Eastern Daylight Time),261777.0,A,wind,I,d,469,3,2266.800000000745,259510.19999999925,9045,WL,B,4.0
2,11.282999992370605,learn,48717.000007629395,Tue Jun 30 2026 11:35:10 GMT-0400 (Eastern Daylight Time),261993.59999999963,A,windo,I,o,194,3,2483.4000000003725,259510.19999999925,9045,WL,B,4.0
2,11.83299994468689,learn,48167.00005531311,Tue Jun 30 2026 11:35:10 GMT-0400 (Eastern Daylight Time),262543.5999999996,A,window,I,w,536,3,3033.4000000003725,259510.19999999925,9045,WL,B,4.0
2,12.365999937057495,learn,47634.000062942505,Tue Jun 30 2026 11:35:10 GMT-0400 (Eastern Daylight Time),263076.5999999996,A,windowenter,I,enter,513,3,3566.4000000003725,259510.19999999925,9045,WL,B,4.0
2,14.700000047683716,learn,45299.999952316284,Tue Jun 30 2026 11:35:10 GMT-0400 (Eastern Daylight Time),265410.19999999925,A,f,I,f,2321,3,2333.0999999996275,263077.0999999996,9045,WL,B,5.0
2,14.900000095367432,learn,45099.99990463257,Tue Jun 30 2026 11:35:10 GMT-0400 (Eastern Daylight Time),265610.4000000004,A,fi,I,i,176,3,2533.300000000745,263077.0999999996,9045,WL,B,5.0
2,15.117000102996826,learn,44882.999897003174,Tue Jun 30 2026 11:35:10 GMT-0400 (Eastern Daylight Time),265826.9000000004,A,fir,I,r,201,3,2749.800000000745,263077.0999999996,9045,WL,B,5.0
2,15.299999952316284,learn,44700.000047683716,Tue Jun 30 2026 11:35:10 GMT-0400 (Eastern Daylight Time),266010.19999999925,A,fire,I,e,159,3,2933.0999999996275,263077.0999999996,9045,WL,B,5.0
2,15.599999904632568,learn,44400.00009536743,Tue Jun 30 2026 11:35:10 GMT-0400 (Eastern Daylight Time),266309.80000000075,A,fireenter,I,enter,279,3,3232.7000000011176,263077.0999999996,9045,WL,B,5.0
2,16.200000047683716,learn,43799.999952316284,Tue Jun 30 2026 11:35:10 GMT-0400 (Eastern Daylight Time),266910.0,A,s,I,s,593,3,599.9000000003725,266310.0999999996,9045,WL,B,6.0
2,16.549999952316284,learn,43450.000047683716,Tue Jun 30 2026 11:35:10 GMT-0400 (Eastern Daylight Time),267260.4000000004,A,st,I,t,325,3,950.3000000007451,266310.0999999996,9045,WL,B,6.0
2,18.032999992370605,learn,41967.000007629395,Tue Jun 30 2026 11:35:10 GMT-0400 (Eastern Daylight Time),268743.5,A,sta,I,a,1460,3,2433.4000000003725,266310.0999999996,9045,WL,B,6.0
2,19.032999992370605,learn,40967.000007629395,Tue Jun 30 2026 11:35:10 GMT-0400 (Eastern Daylight Time),269743.5999999996,A,star,I,r,986,3,3433.5,266310.0999999996,9045,WL,B,6.0
2,19.183000087738037,learn,40816.99991226196,Tue Jun 30 2026 11:35:10 GMT-0400 (Eastern Daylight Time),269893.19999999925,A,starenter,I,enter,131,3,3583.0999999996275,266310.0999999996,9045,WL,B,6.0
2,23.15000009536743,learn,36849.99990463257,Tue Jun 30 2026 11:35:10 GMT-0400 (Eastern Daylight Time),273860.30000000075,A,c,I,c,3953,3,3966.7000000011176,269893.5999999996,9045,WL,B,7.0
2,23.33299994468689,learn,36667.00005531311,Tue Jun 30 2026 11:35:10 GMT-0400 (Eastern Daylight Time),274043.5,A,ci,I,i,158,3,4149.9000000003725,269893.5999999996,9045,WL,B,7.0
2,23.617000102996826,learn,36382.999897003174,Tue Jun 30 2026 11:35:10 GMT-0400 (Eastern Daylight Time),274326.9000000004,A,cit,I,t,253,3,4433.300000000745,269893.5999999996,9045,WL,B,7.0
2,23.90000009536743,learn,36099.99990463257,Tue Jun 30 2026 11:35:10 GMT-0400 (Eastern Daylight Time),274610.30000000075,A,city,I,y,268,3,4716.700000001118,269893.5999999996,9045,WL,B,7.0
2,24.34999990463257,learn,35650.00009536743,Tue Jun 30 2026 11:35:10 GMT-0400 (Eastern Daylight Time),275059.80000000075,A,cityenter,I,enter,433,3,5166.200000001118,269893.5999999996,9045,WL,B,7.0
2,24.83299994468689,learn,35167.00005531311,Tue Jun 30 2026 11:35:10 GMT-0400 (Eastern Daylight Time),275543.5999999996,A,c,I,c,466,3,483.40000000037253,275060.19999999925,9045,WL,B,8.0
2,25.117000102996826,learn,34882.999897003174,Tue Jun 30 2026 11:35:10 GMT-0400 (Eastern Daylight Time),275826.9000000004,A,ca,I,a,265,3,766.7000000011176,275060.19999999925,9045,WL,B,8.0
2,25.566999912261963,learn,34433.00008773804,Tue Jun 30 2026 11:35:10 GMT-0400 (Eastern Daylight Time),276277.0,A,cab,I,b,432,3,1216.800000000745,275060.19999999925,9045,WL,B,8.0
2,25.84999990463257,learn,34150.00009536743,Tue Jun 30 2026 11:35:10 GMT-0400 (Eastern Daylight Time),276560.19999999925,A,cabi,I,i,270,3,1500.0,275060.19999999925,9045,WL,B,8.0
2,26.26699995994568,learn,33733.00004005432,Tue Jun 30 2026 11:35:10 GMT-0400 (Eastern Daylight Time),276976.9000000004,A,cabin,I,n,403,3,1916.7000000011176,275060.19999999925,9045,WL,B,8.0
2,26.68400001525879,learn,33315.99998474121,Tue Jun 30 2026 11:35:10 GMT-0400 (Eastern Daylight Time),277394.30000000075,A,cabinenter,I,enter,400,3,2334.10000000149,275060.19999999925,9045,WL,B,8.0
2,27.799999952316284,learn,32200.000047683716,Tue Jun 30 2026 11:35:10 GMT-0400 (Eastern Daylight Time),278509.9000000004,A,w,I,w,1108,3,1115.300000000745,277394.5999999996,9045,WL,B,9.0
2,28.0,learn,32000.0,Tue Jun 30 2026 11:35:10 GMT-0400 (Eastern Daylight Time),278710.30000000075,A,wi,I,i,181,3,1315.7000000011176,277394.5999999996,9045,WL,B,9.0
2,28.26699995994568,learn,31733.00004005432,Tue Jun 30 2026 11:35:10 GMT-0400 (Eastern Daylight Time),278976.9000000004,A,win,I,n,246,3,1582.300000000745,277394.5999999996,9045,WL,B,9.0
2,28.73300004005432,learn,31266.99995994568,Tue Jun 30 2026 11:35:10 GMT-0400 (Eastern Daylight Time),279443.5999999996,A,wind,I,d,448,3,2049.0,277394.5999999996,9045,WL,B,9.0
2,29.0,learn,31000.0,Tue Jun 30 2026 11:35:10 GMT-0400 (Eastern Daylight Time),279709.9000000004,A,windo,I,o,255,3,2315.300000000745,277394.5999999996,9045,WL,B,9.0
2,29.25,learn,30750.0,Tue Jun 30 2026 11:35:10 GMT-0400 (Eastern Daylight Time),279960.30000000075,A,window,I,w,228,3,2565.7000000011176,277394.5999999996,9045,WL,B,9.0
2,29.516000032424927,learn,30483.999967575073,Tue Jun 30 2026 11:35:10 GMT-0400 (Eastern Daylight Time),280226.4000000004,A,windowenter,I,enter,249,3,2831.800000000745,277394.5999999996,9045,WL,B,9.0
2,32.467000007629395,learn,27532.999992370605,Tue Jun 30 2026 11:35:10 GMT-0400 (Eastern Daylight Time),283177.0,A,c,I,c,2932,3,2950.300000000745,280226.69999999925,9045,WL,B,10.0
2,32.68300008773804,learn,27316.999912261963,Tue Jun 30 2026 11:35:10 GMT-0400 (Eastern Daylight Time),283393.4000000004,A,cl,I,l,200,3,3166.7000000011176,280226.69999999925,9045,WL,B,10.0
2,32.967000007629395,learn,27032.999992370605,Tue Jun 30 2026 11:35:10 GMT-0400 (Eastern Daylight Time),283676.9000000004,A,clo,I,o,256,3,3450.2000000011176,280226.69999999925,9045,WL,B,10.0
2,33.43300008773804,learn,26566.999912261963,Tue Jun 30 2026 11:35:10 GMT-0400 (Eastern Daylight Time),284143.5,A,cloc,I,c,452,3,3916.800000000745,280226.69999999925,9045,WL,B,10.0
2,33.63300013542175,learn,26366.999864578247,Tue Jun 30 2026 11:35:10 GMT-0400 (Eastern Daylight Time),284343.5999999996,A,clock,I,k,179,3,4116.9000000003725,280226.69999999925,9045,WL,B,10.0
2,34.032999992370605,learn,25967.000007629395,Tue Jun 30 2026 11:35:10 GMT-0400 (Eastern Daylight Time),284743.0999999996,A,clockenter,I,enter,377,3,4516.4000000003725,280226.69999999925,9045,WL,B,10.0
2,35.48300004005432,learn,24516.99995994568,Tue Jun 30 2026 11:35:10 GMT-0400 (Eastern Daylight Time),286193.5999999996,A,w,I,w,1438,3,1450.0,284743.5999999996,9045,WL,B,11.0
2,35.68300008773804,learn,24316.999912261963,Tue Jun 30 2026 11:35:10 GMT-0400 (Eastern Daylight Time),286393.5,A,wi,I,i,178,3,1649.9000000003725,284743.5999999996,9045,WL,B,11.0
2,36.06699991226196,learn,23933.000087738037,Tue Jun 30 2026 11:35:10 GMT-0400 (Eastern Daylight Time),286776.9000000004,A,wif,I,f,354,3,2033.300000000745,284743.5999999996,9045,WL,B,11.0
2,36.367000102996826,learn,23632.999897003174,Tue Jun 30 2026 11:35:10 GMT-0400 (Eastern Daylight Time),287077.0,A,wife,I,e,282,3,2333.4000000003725,284743.5999999996,9045,WL,B,11.0
2,36.68400001525879,learn,23315.99998474121,Tue Jun 30 2026 11:35:10 GMT-0400 (Eastern Daylight Time),287394.19999999925,A,wifeenter,I,enter,301,3,2650.5999999996275,284743.5999999996,9045,WL,B,11.0
2,37.450000047683716,learn,22549.999952316284,Tue Jun 30 2026 11:35:10 GMT-0400 (Eastern Daylight Time),288160.19999999925,A,p,I,p,755,3,765.5999999996275,287394.5999999996,9045,WL,B,12.0
2,38.25,learn,21750.0,Tue Jun 30 2026 11:35:10 GMT-0400 (Eastern Daylight Time),288960.19999999925,A,pu,I,u,787,3,1565.5999999996275,287394.5999999996,9045,WL,B,12.0
2,38.65000009536743,learn,21349.99990463257,Tue Jun 30 2026 11:35:10 GMT-0400 (Eastern Daylight Time),289360.19999999925,A,pup,I,p,385,3,1965.5999999996275,287394.5999999996,9045,WL,B,12.0
2,38.967000007629395,learn,21032.999992370605,Tue Jun 30 2026 11:35:10 GMT-0400 (Eastern Daylight Time),289676.9000000004,A,pupi,I,i,291,3,2282.300000000745,287394.5999999996,9045,WL,B,12.0
2,39.26699995994568,learn,20733.00004005432,Tue Jun 30 2026 11:35:10 GMT-0400 (Eastern Daylight Time),289976.9000000004,A,pupil,I,l,277,3,2582.300000000745,287394.5999999996,9045,WL,B,12.0
2,39.66600012779236,learn,20333.99987220764,Tue Jun 30 2026 11:35:10 GMT-0400 (Eastern Daylight Time),290376.5,A,pupilenter,I,enter,375,3,2981.9000000003725,287394.5999999996,9045,WL,B,12.0
2,41.51699995994568,learn,18483.00004005432,Tue Jun 30 2026 11:35:10 GMT-0400 (Eastern Daylight Time),292226.9000000004,A,s,I,s,1837,3,1850.0999999996275,290376.80000000075,9045,WL,B,13.0
2,41.76699995994568,learn,18233.00004005432,Tue Jun 30 2026 11:35:10 GMT-0400 (Eastern Daylight Time),292476.9000000004,A,sk,I,k,221,3,2100.0999999996275,290376.80000000075,9045,WL,B,13.0
2,42.0,learn,18000.0,Tue Jun 30 2026 11:35:10 GMT-0400 (Eastern Daylight Time),292710.19999999925,A,ski,I,i,204,3,2333.39999999851,290376.80000000075,9045,WL,B,13.0
2,42.59999990463257,learn,17400.00009536743,Tue Jun 30 2026 11:35:10 GMT-0400 (Eastern Daylight Time),293310.19999999925,A,skin,I,n,586,3,2933.39999999851,290376.80000000075,9045,WL,B,13.0
2,43.00099992752075,learn,16999.000072479248,Tue Jun 30 2026 11:35:10 GMT-0400 (Eastern Daylight Time),293710.80000000075,A,skinenter,I,enter,386,3,3334.0,290376.80000000075,9045,WL,B,13.0
2,45.467000007629395,learn,14532.999992370605,Tue Jun 30 2026 11:35:10 GMT-0400 (Eastern Daylight Time),296177.0,A,a,I,a,2456,3,2465.800000000745,293711.19999999925,9045,WL,B,14.0
2,45.81599998474121,learn,14184.000015258789,Tue Jun 30 2026 11:35:10 GMT-0400 (Eastern Daylight Time),296526.80000000075,A,ar,I,r,336,3,2815.60000000149,293711.19999999925,9045,WL,B,14.0
2,47.15000009536743,learn,12849.999904632568,Tue Jun 30 2026 11:35:10 GMT-0400 (Eastern Daylight Time),297860.19999999925,A,arm,I,m,1316,3,4149.0,293711.19999999925,9045,WL,B,14.0
2,48.06599998474121,learn,11934.000015258789,Tue Jun 30 2026 11:35:10 GMT-0400 (Eastern Daylight Time),298776.5,A,armenter,I,enter,893,3,5065.300000000745,293711.19999999925,9045,WL,B,14.0
2,51.68300008773804,learn,8316.999912261963,Tue Jun 30 2026 11:35:10 GMT-0400 (Eastern Daylight Time),302393.30000000075,A,c,I,c,3598,3,3616.5,298776.80000000075,9045,WL,B,15.0
2,52.41600012779236,learn,7583.999872207642,Tue Jun 30 2026 11:35:10 GMT-0400 (Eastern Daylight Time),303126.9000000004,A,ca,I,a,712,3,4350.0999999996275,298776.80000000075,9045,WL,B,15.0
2,52.84999990463257,learn,7150.000095367432,Tue Jun 30 2026 11:35:10 GMT-0400 (Eastern Daylight Time),303560.19999999925,A,cab,I,b,410,3,4783.39999999851,298776.80000000075,9045,WL,B,15.0
2,53.08299994468689,learn,6917.00005531311,Tue Jun 30 2026 11:35:10 GMT-0400 (Eastern Daylight Time),303793.5,A,cabi,I,i,219,3,5016.699999999255,298776.80000000075,9045,WL,B,15.0
2,53.33299994468689,learn,6667.00005531311,Tue Jun 30 2026 11:35:10 GMT-0400 (Eastern Daylight Time),304043.5,A,cabin,I,n,216,3,5266.699999999255,298776.80000000075,9045,WL,B,15.0
2,53.74900007247925,learn,6250.999927520752,Tue Jun 30 2026 11:35:10 GMT-0400 (Eastern Daylight Time),304459.80000000075,A,cabinenter,I,enter,390,3,5683.0,298776.80000000075,9045,WL,B,15.0
3,2.1510000228881836,learn,57848.99997711182,Tue Jun 30 2026 11:35:10 GMT-0400 (Eastern Daylight Time),374077.30000000075,A,s,I,s,2142,3,2150.4000000003725,371926.9000000004,9045,WL,B,1.0
3,2.5339999198913574,learn,57466.00008010864,Tue Jun 30 2026 11:35:10 GMT-0400 (Eastern Daylight Time),374460.0,A,st,I,t,358,3,2533.0999999996275,371926.9000000004,9045,WL,B,1.0
3,2.7669999599456787,learn,57233.00004005432,Tue Jun 30 2026 11:35:10 GMT-0400 (Eastern Daylight Time),374693.30000000075,A,str,I,r,213,3,2766.4000000003725,371926.9000000004,9045,WL,B,1.0
3,3.0839998722076416,learn,56916.00012779236,Tue Jun 30 2026 11:35:10 GMT-0400 (Eastern Daylight Time),375010.0,A,stre,I,e,302,3,3083.0999999996275,371926.9000000004,9045,WL,B,1.0
3,3.25,learn,56750.0,Tue Jun 30 2026 11:35:10 GMT-0400 (Eastern Daylight Time),375176.5999999996,A,stree,I,e,144,3,3249.699999999255,371926.9000000004,9045,WL,B,1.0
3,3.434000015258789,learn,56565.99998474121,Tue Jun 30 2026 11:35:10 GMT-0400 (Eastern Daylight Time),375360.0999999996,A,street,I,t,161,3,3433.199999999255,371926.9000000004,9045,WL,B,1.0
3,3.75,learn,56250.0,Tue Jun 30 2026 11:35:10 GMT-0400 (Eastern Daylight Time),375676.30000000075,A,streetenter,I,enter,288,3,3749.4000000003725,371926.9000000004,9045,WL,B,1.0
3,4.75,learn,55250.0,Tue Jun 30 2026 11:35:10 GMT-0400 (Eastern Daylight Time),376676.5999999996,A,g,I,g,986,3,1000.0,375676.5999999996,9045,WL,B,2.0
3,4.934000015258789,learn,55065.99998474121,Tue Jun 30 2026 11:35:10 GMT-0400 (Eastern Daylight Time),376860.0,A,gr,I,r,156,3,1183.4000000003725,375676.5999999996,9045,WL,B,2.0
3,5.516999959945679,learn,54483.00004005432,Tue Jun 30 2026 11:35:10 GMT-0400 (Eastern Daylight Time),377443.4000000004,A,gra,I,a,565,3,1766.800000000745,375676.5999999996,9045,WL,B,2.0
3,5.816999912261963,learn,54183.00008773804,Tue Jun 30 2026 11:35:10 GMT-0400 (Eastern Daylight Time),377743.30000000075,A,gras,I,s,286,3,2066.7000000011176,375676.5999999996,9045,WL,B,2.0
3,6.266999959945679,learn,53733.00004005432,Tue Jun 30 2026 11:35:10 GMT-0400 (Eastern Daylight Time),378192.9000000004,A,grasenter,I,enter,435,3,2516.300000000745,375676.5999999996,9045,WL,B,2.0
3,7.950000047683716,learn,52049.999952316284,Tue Jun 30 2026 11:35:10 GMT-0400 (Eastern Daylight Time),379876.5999999996,A,w,I,w,1669,3,1683.4000000003725,378193.19999999925,9045,WL,B,3.0
3,8.116999864578247,learn,51883.00013542175,Tue Jun 30 2026 11:35:10 GMT-0400 (Eastern Daylight Time),380043.4000000004,A,wi,I,i,141,3,1850.2000000011176,378193.19999999925,9045,WL,B,3.0
3,8.533999919891357,learn,51466.00008010864,Tue Jun 30 2026 11:35:10 GMT-0400 (Eastern Daylight Time),380460.0,A,win,I,n,381,3,2266.800000000745,378193.19999999925,9045,WL,B,3.0
3,9.349999904632568,learn,50650.00009536743,Tue Jun 30 2026 11:35:10 GMT-0400 (Eastern Daylight Time),381276.69999999925,A,wind,I,d,790,3,3083.5,378193.19999999925,9045,WL,B,3.0
3,9.516999959945679,learn,50483.00004005432,Tue Jun 30 2026 11:35:10 GMT-0400 (Eastern Daylight Time),381443.4000000004,A,windo,I,o,149,3,3250.2000000011176,378193.19999999925,9045,WL,B,3.0
3,10.133999824523926,learn,49866.000175476074,Tue Jun 30 2026 11:35:10 GMT-0400 (Eastern Daylight Time),382060.0,A,window,I,w,581,3,3866.800000000745,378193.19999999925,9045,WL,B,3.0
3,10.33299994468689,learn,49667.00005531311,Tue Jun 30 2026 11:35:10 GMT-0400 (Eastern Daylight Time),382259.5999999996,A,windowenter,I,enter,181,3,4066.4000000003725,378193.19999999925,9045,WL,B,3.0
3,11.049999952316284,learn,48950.000047683716,Tue Jun 30 2026 11:35:10 GMT-0400 (Eastern Daylight Time),382976.69999999925,A,d,I,d,707,3,716.7999999988824,382259.9000000004,9045,WL,B,4.0
3,11.316999912261963,learn,48683.00008773804,Tue Jun 30 2026 11:35:10 GMT-0400 (Eastern Daylight Time),383243.30000000075,A,do,I,o,243,3,983.4000000003725,382259.9000000004,9045,WL,B,4.0
3,11.566999912261963,learn,48433.00008773804,Tue Jun 30 2026 11:35:10 GMT-0400 (Eastern Daylight Time),383493.4000000004,A,doo,I,o,232,3,1233.5,382259.9000000004,9045,WL,B,4.0
3,11.883999824523926,learn,48116.000175476074,Tue Jun 30 2026 11:35:10 GMT-0400 (Eastern Daylight Time),383810.0999999996,A,door,I,r,301,3,1550.199999999255,382259.9000000004,9045,WL,B,4.0
3,12.099999904632568,learn,47900.00009536743,Tue Jun 30 2026 11:35:10 GMT-0400 (Eastern Daylight Time),384026.19999999925,A,doorenter,I,enter,192,3,1766.2999999988824,382259.9000000004,9045,WL,B,4.0
3,12.599999904632568,learn,47400.00009536743,Tue Jun 30 2026 11:35:10 GMT-0400 (Eastern Daylight Time),384526.5,A,s,I,s,492,3,500.0,384026.5,9045,WL,B,5.0
3,12.866999864578247,learn,47133.00013542175,Tue Jun 30 2026 11:35:10 GMT-0400 (Eastern Daylight Time),384793.30000000075,A,st,I,t,243,3,766.8000000007451,384026.5,9045,WL,B,5.0
3,13.217000007629395,learn,46782.999992370605,Tue Jun 30 2026 11:35:10 GMT-0400 (Eastern Daylight Time),385143.30000000075,A,sta,I,a,329,3,1116.800000000745,384026.5,9045,WL,B,5.0
3,13.783999919891357,learn,46216.00008010864,Tue Jun 30 2026 11:35:10 GMT-0400 (Eastern Daylight Time),385709.80000000075,A,star,I,r,556,3,1683.300000000745,384026.5,9045,WL,B,5.0
3,13.983000040054321,learn,46016.99995994568,Tue Jun 30 2026 11:35:10 GMT-0400 (Eastern Daylight Time),385909.5,A,starenter,I,enter,178,3,1883.0,384026.5,9045,WL,B,5.0
3,16.783999919891357,learn,43216.00008010864,Tue Jun 30 2026 11:35:10 GMT-0400 (Eastern Daylight Time),388710.0,A,p,I,p,2784,3,2800.0999999996275,385909.9000000004,9045,WL,B,6.0
3,17.08399987220764,learn,42916.00012779236,Tue Jun 30 2026 11:35:10 GMT-0400 (Eastern Daylight Time),389010.0,A,pu,I,u,285,3,3100.0999999996275,385909.9000000004,9045,WL,B,6.0
3,17.399999856948853,learn,42600.00014305115,Tue Jun 30 2026 11:35:10 GMT-0400 (Eastern Daylight Time),389326.5,A,pup,I,p,303,3,3416.5999999996275,385909.9000000004,9045,WL,B,6.0
3,17.733999967575073,learn,42266.00003242493,Tue Jun 30 2026 11:35:10 GMT-0400 (Eastern Daylight Time),389659.9000000004,A,pupi,I,i,308,3,3750.0,385909.9000000004,9045,WL,B,6.0
3,18.16700005531311,learn,41832.99994468689,Tue Jun 30 2026 11:35:10 GMT-0400 (Eastern Daylight Time),390093.4000000004,A,pupil,I,l,407,3,4183.5,385909.9000000004,9045,WL,B,6.0
3,18.48300004005432,learn,41516.99995994568,Tue Jun 30 2026 11:35:10 GMT-0400 (Eastern Daylight Time),390409.5,A,pupilenter,I,enter,292,3,4499.5999999996275,385909.9000000004,9045,WL,B,6.0
3,19.41700005531311,learn,40582.99994468689,Tue Jun 30 2026 11:35:10 GMT-0400 (Eastern Daylight Time),391343.30000000075,A,c,I,c,924,3,933.5,390409.80000000075,9045,WL,B,7.0
3,19.649999856948853,learn,40350.00014305115,Tue Jun 30 2026 11:35:10 GMT-0400 (Eastern Daylight Time),391576.69999999925,A,cl,I,l,209,3,1166.8999999985099,390409.80000000075,9045,WL,B,7.0
3,19.950000047683716,learn,40049.999952316284,Tue Jun 30 2026 11:35:10 GMT-0400 (Eastern Daylight Time),391876.5999999996,A,clo,I,o,282,3,1466.7999999988824,390409.80000000075,9045,WL,B,7.0
3,20.33399987220764,learn,39666.00012779236,Tue Jun 30 2026 11:35:10 GMT-0400 (Eastern Daylight Time),392260.0999999996,A,cloc,I,c,365,3,1850.2999999988824,390409.80000000075,9045,WL,B,7.0
3,20.59999990463257,learn,39400.00009536743,Tue Jun 30 2026 11:35:10 GMT-0400 (Eastern Daylight Time),392526.5,A,clock,I,k,253,3,2116.699999999255,390409.80000000075,9045,WL,B,7.0
3,20.967999935150146,learn,39032.00006484985,Tue Jun 30 2026 11:35:10 GMT-0400 (Eastern Daylight Time),392894.0999999996,A,clockenter,I,enter,356,3,2484.2999999988824,390409.80000000075,9045,WL,B,7.0
3,21.616999864578247,learn,38383.00013542175,Tue Jun 30 2026 11:35:10 GMT-0400 (Eastern Daylight Time),393543.4000000004,A,w,I,w,632,3,649.0,392894.4000000004,9045,WL,B,8.0
3,21.84999990463257,learn,38150.00009536743,Tue Jun 30 2026 11:35:10 GMT-0400 (Eastern Daylight Time),393776.5999999996,A,wi,I,i,218,3,882.1999999992549,392894.4000000004,9045,WL,B,8.0
3,22.283999919891357,learn,37716.00008010864,Tue Jun 30 2026 11:35:10 GMT-0400 (Eastern Daylight Time),394210.0,A,wif,I,f,418,3,1315.5999999996275,392894.4000000004,9045,WL,B,8.0
3,22.566999912261963,learn,37433.00008773804,Tue Jun 30 2026 11:35:10 GMT-0400 (Eastern Daylight Time),394493.30000000075,A,wife,I,e,256,3,1598.9000000003725,392894.4000000004,9045,WL,B,8.0
3,22.865999937057495,learn,37134.000062942505,Tue Jun 30 2026 11:35:10 GMT-0400 (Eastern Daylight Time),394792.80000000075,A,wifeenter,I,enter,276,3,1898.4000000003725,392894.4000000004,9045,WL,B,8.0
3,23.41700005531311,learn,36582.99994468689,Tue Jun 30 2026 11:35:10 GMT-0400 (Eastern Daylight Time),395343.19999999925,A,a,I,a,541,3,550.0999999996275,394793.0999999996,9045,WL,B,9.0
3,23.75,learn,36250.0,Tue Jun 30 2026 11:35:10 GMT-0400 (Eastern Daylight Time),395676.69999999925,A,ar,I,r,306,3,883.5999999996275,394793.0999999996,9045,WL,B,9.0
3,24.283999919891357,learn,35716.00008010864,Tue Jun 30 2026 11:35:10 GMT-0400 (Eastern Daylight Time),396209.9000000004,A,arn,I,n,516,3,1416.800000000745,394793.0999999996,9045,WL,B,9.0
3,25.83399987220764,learn,34166.00012779236,Tue Jun 30 2026 11:35:10 GMT-0400 (Eastern Daylight Time),397760.0,A,ar,I,backspace,1538,3,2966.9000000003725,394793.0999999996,9045,WL,B,9.0
3,26.950000047683716,learn,33049.999952316284,Tue Jun 30 2026 11:35:10 GMT-0400 (Eastern Daylight Time),398876.5999999996,A,arm,I,m,1092,3,4083.5,394793.0999999996,9045,WL,B,9.0
3,27.632999897003174,learn,32367.000102996826,Tue Jun 30 2026 11:35:10 GMT-0400 (Eastern Daylight Time),399559.5,A,armenter,I,enter,662,3,4766.4000000003725,394793.0999999996,9045,WL,B,9.0
3,28.68400001525879,learn,31315.99998474121,Tue Jun 30 2026 11:35:10 GMT-0400 (Eastern Daylight Time),400609.9000000004,A,s,I,s,1038,3,1050.0999999996275,399559.80000000075,9045,WL,B,10.0
3,29.033999919891357,learn,30966.000080108643,Tue Jun 30 2026 11:35:10 GMT-0400 (Eastern Daylight Time),400959.9000000004,A,sk,I,k,336,3,1400.0999999996275,399559.80000000075,9045,WL,B,10.0
3,29.283999919891357,learn,30716.000080108643,Tue Jun 30 2026 11:35:10 GMT-0400 (Eastern Daylight Time),401210.0,A,ski,I,i,225,3,1650.199999999255,399559.80000000075,9045,WL,B,10.0
3,29.566999912261963,learn,30433.000087738037,Tue Jun 30 2026 11:35:10 GMT-0400 (Eastern Daylight Time),401493.30000000075,A,skin,I,n,265,3,1933.5,399559.80000000075,9045,WL,B,10.0
3,29.967000007629395,learn,30032.999992370605,Tue Jun 30 2026 11:35:10 GMT-0400 (Eastern Daylight Time),401892.80000000075,A,skinenter,I,enter,382,3,2333.0,399559.80000000075,9045,WL,B,10.0
3,32.01699995994568,learn,27983.00004005432,Tue Jun 30 2026 11:35:10 GMT-0400 (Eastern Daylight Time),403943.19999999925,A,w,I,w,2033,3,2050.0,401893.19999999925,9045,WL,B,11.0
3,32.18299984931946,learn,27817.000150680542,Tue Jun 30 2026 11:35:10 GMT-0400 (Eastern Daylight Time),404109.80000000075,A,wi,I,i,153,3,2216.60000000149,401893.19999999925,9045,WL,B,11.0
3,32.450000047683716,learn,27549.999952316284,Tue Jun 30 2026 11:35:10 GMT-0400 (Eastern Daylight Time),404376.5999999996,A,win,I,n,244,3,2483.4000000003725,401893.19999999925,9045,WL,B,11.0
3,32.83399987220764,learn,27166.00012779236,Tue Jun 30 2026 11:35:10 GMT-0400 (Eastern Daylight Time),404760.0,A,wind,I,d,362,3,2866.800000000745,401893.19999999925,9045,WL,B,11.0
3,33.41700005531311,learn,26582.99994468689,Tue Jun 30 2026 11:35:10 GMT-0400 (Eastern Daylight Time),405343.19999999925,A,windw,I,w,569,3,3450.0,401893.19999999925,9045,WL,B,11.0
3,33.66700005531311,learn,26332.99994468689,Tue Jun 30 2026 11:35:10 GMT-0400 (Eastern Daylight Time),405592.9000000004,A,windwenter,I,enter,227,3,3699.7000000011176,401893.19999999925,9045,WL,B,11.0
3,35.18400001525879,learn,24815.99998474121,Tue Jun 30 2026 11:35:10 GMT-0400 (Eastern Daylight Time),407110.0,A,f,I,f,1502,3,1516.800000000745,405593.19999999925,9045,WL,B,12.0
3,35.36699986457825,learn,24633.000135421753,Tue Jun 30 2026 11:35:10 GMT-0400 (Eastern Daylight Time),407293.4000000004,A,fi,I,i,170,3,1700.2000000011176,405593.19999999925,9045,WL,B,12.0
3,35.59999990463257,learn,24400.00009536743,Tue Jun 30 2026 11:35:10 GMT-0400 (Eastern Daylight Time),407526.5,A,fir,I,r,207,3,1933.300000000745,405593.19999999925,9045,WL,B,12.0
3,35.76699995994568,learn,24233.00004005432,Tue Jun 30 2026 11:35:10 GMT-0400 (Eastern Daylight Time),407693.4000000004,A,fire,I,e,156,3,2100.2000000011176,405593.19999999925,9045,WL,B,12.0
3,36.08299994468689,learn,23917.00005531311,Tue Jun 30 2026 11:35:10 GMT-0400 (Eastern Daylight Time),408009.4000000004,A,fireenter,I,enter,284,3,2416.2000000011176,405593.19999999925,9045,WL,B,12.0
3,37.049999952316284,learn,22950.000047683716,Tue Jun 30 2026 11:35:10 GMT-0400 (Eastern Daylight Time),408976.5999999996,A,l,I,l,956,3,966.7999999988824,408009.80000000075,9045,WL,B,13.0
3,37.31699991226196,learn,22683.000087738037,Tue Jun 30 2026 11:35:10 GMT-0400 (Eastern Daylight Time),409243.19999999925,A,la,I,a,240,3,1233.3999999985099,408009.80000000075,9045,WL,B,13.0
3,37.549999952316284,learn,22450.000047683716,Tue Jun 30 2026 11:35:10 GMT-0400 (Eastern Daylight Time),409476.5,A,lak,I,k,216,3,1466.699999999255,408009.80000000075,9045,WL,B,13.0
3,37.76699995994568,learn,22233.00004005432,Tue Jun 30 2026 11:35:10 GMT-0400 (Eastern Daylight Time),409693.4000000004,A,lake,I,e,189,3,1683.5999999996275,408009.80000000075,9045,WL,B,13.0
3,38.049999952316284,learn,21950.000047683716,Tue Jun 30 2026 11:35:10 GMT-0400 (Eastern Daylight Time),409976.0999999996,A,lakeenter,I,enter,250,3,1966.2999999988824,408009.80000000075,9045,WL,B,13.0
3,39.81699991226196,learn,20183.000087738037,Tue Jun 30 2026 11:35:10 GMT-0400 (Eastern Daylight Time),411743.19999999925,A,p,I,p,1758,3,1766.699999999255,409976.5,9045,WL,B,14.0
3,40.01699995994568,learn,19983.00004005432,Tue Jun 30 2026 11:35:10 GMT-0400 (Eastern Daylight Time),411943.19999999925,A,pi,I,i,178,3,1966.699999999255,409976.5,9045,WL,B,14.0
3,40.25,learn,19750.0,Tue Jun 30 2026 11:35:10 GMT-0400 (Eastern Daylight Time),412176.5,A,pip,I,p,219,3,2200.0,409976.5,9045,WL,B,14.0
3,40.549999952316284,learn,19450.000047683716,Tue Jun 30 2026 11:35:10 GMT-0400 (Eastern Daylight Time),412476.5999999996,A,pipe,I,e,275,3,2500.0999999996275,409976.5,9045,WL,B,14.0
3,40.950000047683716,learn,19049.999952316284,Tue Jun 30 2026 11:35:10 GMT-0400 (Eastern Daylight Time),412876.19999999925,A,pipeenter,I,enter,372,3,2899.699999999255,409976.5,9045,WL,B,14.0
3,45.53399991989136,learn,14466.000080108643,Tue Jun 30 2026 11:35:10 GMT-0400 (Eastern Daylight Time),417459.9000000004,A,d,I,d,4570,3,4583.4000000003725,412876.5,9045,WL,B,15.0
3,45.782999992370605,learn,14217.000007629395,Tue Jun 30 2026 11:35:10 GMT-0400 (Eastern Daylight Time),417709.5999999996,A,do,I,o,238,3,4833.0999999996275,412876.5,9045,WL,B,15.0
3,46.01699995994568,learn,13983.000040054321,Tue Jun 30 2026 11:35:10 GMT-0400 (Eastern Daylight Time),417943.30000000075,A,doo,I,o,211,3,5066.800000000745,412876.5,9045,WL,B,15.0
3,46.26699995994568,learn,13733.000040054321,Tue Jun 30 2026 11:35:10 GMT-0400 (Eastern Daylight Time),418193.19999999925,A,door,I,r,234,3,5316.699999999255,412876.5,9045,WL,B,15.0
3,46.56599998474121,learn,13434.000015258789,Tue Jun 30 2026 11:35:10 GMT-0400 (Eastern Daylight Time),418492.80000000075,A,doorenter,I,enter,273,3,5616.300000000745,412876.5,9045,WL,B,15.0
4,1.7000000476837158,learn,58299.999952316284,Tue Jun 30 2026 11:35:10 GMT-0400 (Eastern Daylight Time),486559.80000000075,A,c,I,c,1688,3,1699.4000000003725,484860.4000000004,9045,WL,B,1.0
4,1.9670000076293945,learn,58032.999992370605,Tue Jun 30 2026 11:35:10 GMT-0400 (Eastern Daylight Time),486826.4000000004,A,ci,I,i,241,3,1966.0,484860.4000000004,9045,WL,B,1.0
4,2.4670000076293945,learn,57532.999992370605,Tue Jun 30 2026 11:35:10 GMT-0400 (Eastern Daylight Time),487326.19999999925,A,cit,I,t,486,3,2465.7999999988824,484860.4000000004,9045,WL,B,1.0
4,2.6670000553131104,learn,57332.99994468689,Tue Jun 30 2026 11:35:10 GMT-0400 (Eastern Daylight Time),487526.4000000004,A,city,I,y,181,3,2666.0,484860.4000000004,9045,WL,B,1.0
4,3.1000001430511475,learn,56899.99985694885,Tue Jun 30 2026 11:35:10 GMT-0400 (Eastern Daylight Time),487959.4000000004,A,cityenter,I,enter,402,3,3099.0,484860.4000000004,9045,WL,B,1.0
4,4.5,learn,55500.0,Tue Jun 30 2026 11:35:10 GMT-0400 (Eastern Daylight Time),489359.69999999925,A,c,I,c,1390,3,1400.0,487959.69999999925,9045,WL,B,2.0
4,4.9670000076293945,learn,55032.999992370605,Tue Jun 30 2026 11:35:10 GMT-0400 (Eastern Daylight Time),489826.4000000004,A,ca,I,a,449,3,1866.7000000011176,487959.69999999925,9045,WL,B,2.0
4,5.384000062942505,learn,54615.999937057495,Tue Jun 30 2026 11:35:10 GMT-0400 (Eastern Daylight Time),490243.0999999996,A,cab,I,b,400,3,2283.4000000003725,487959.69999999925,9045,WL,B,2.0
4,5.584000110626221,learn,54415.99988937378,Tue Jun 30 2026 11:35:10 GMT-0400 (Eastern Daylight Time),490443.0999999996,A,cabi,I,i,176,3,2483.4000000003725,487959.69999999925,9045,WL,B,2.0
4,5.934000015258789,learn,54065.99998474121,Tue Jun 30 2026 11:35:10 GMT-0400 (Eastern Daylight Time),490793.0999999996,A,cabin,I,n,327,3,2833.4000000003725,487959.69999999925,9045,WL,B,2.0
4,6.267000198364258,learn,53732.99980163574,Tue Jun 30 2026 11:35:10 GMT-0400 (Eastern Daylight Time),491126.0,A,cabinenter,I,enter,313,3,3166.300000000745,487959.69999999925,9045,WL,B,2.0
4,7.234000205993652,learn,52765.99979400635,Tue Jun 30 2026 11:35:10 GMT-0400 (Eastern Daylight Time),492093.0999999996,A,l,I,l,944,3,966.7999999988824,491126.30000000075,9045,WL,B,3.0
4,7.434000015258789,learn,52565.99998474121,Tue Jun 30 2026 11:35:10 GMT-0400 (Eastern Daylight Time),492293.0999999996,A,la,I,a,179,3,1166.7999999988824,491126.30000000075,9045,WL,B,3.0
4,7.700000047683716,learn,52299.999952316284,Tue Jun 30 2026 11:35:10 GMT-0400 (Eastern Daylight Time),492559.5999999996,A,lak,I,k,252,3,1433.2999999988824,491126.30000000075,9045,WL,B,3.0
4,8.034000158309937,learn,51965.99984169006,Tue Jun 30 2026 11:35:10 GMT-0400 (Eastern Daylight Time),492893.0999999996,A,lake,I,e,307,3,1766.7999999988824,491126.30000000075,9045,WL,B,3.0
4,8.350000143051147,learn,51649.99985694885,Tue Jun 30 2026 11:35:10 GMT-0400 (Eastern Daylight Time),493209.4000000004,A,lakeenter,I,enter,291,3,2083.0999999996275,491126.30000000075,9045,WL,B,3.0
4,8.950000047683716,learn,51049.999952316284,Tue Jun 30 2026 11:35:10 GMT-0400 (Eastern Daylight Time),493809.69999999925,A,w,I,w,589,3,600.0,493209.69999999925,9045,WL,B,4.0
4,9.16700005531311,learn,50832.99994468689,Tue Jun 30 2026 11:35:10 GMT-0400 (Eastern Daylight Time),494026.4000000004,A,wi,I,i,192,3,816.7000000011176,493209.69999999925,9045,WL,B,4.0
4,9.650000095367432,learn,50349.99990463257,Tue Jun 30 2026 11:35:10 GMT-0400 (Eastern Daylight Time),494509.4000000004,A,wif,I,f,473,3,1299.7000000011176,493209.69999999925,9045,WL,B,4.0
4,10.267000198364258,learn,49732.99980163574,Tue Jun 30 2026 11:35:10 GMT-0400 (Eastern Daylight Time),495126.4000000004,A,wife,I,e,597,3,1916.7000000011176,493209.69999999925,9045,WL,B,4.0
4,10.450000047683716,learn,49549.999952316284,Tue Jun 30 2026 11:35:10 GMT-0400 (Eastern Daylight Time),495309.19999999925,A,wifeenter,I,enter,171,3,2099.5,493209.69999999925,9045,WL,B,4.0
4,11.41700005531311,learn,48582.99994468689,Tue Jun 30 2026 11:35:10 GMT-0400 (Eastern Daylight Time),496276.4000000004,A,s,I,s,952,3,966.9000000003725,495309.5,9045,WL,B,5.0
4,12.217000007629395,learn,47782.999992370605,Tue Jun 30 2026 11:35:10 GMT-0400 (Eastern Daylight Time),497076.4000000004,A,sk,I,k,780,3,1766.9000000003725,495309.5,9045,WL,B,5.0
4,12.41700005531311,learn,47582.99994468689,Tue Jun 30 2026 11:35:10 GMT-0400 (Eastern Daylight Time),497276.4000000004,A,ski,I,i,172,3,1966.9000000003725,495309.5,9045,WL,B,5.0
4,13.034000158309937,learn,46965.99984169006,Tue Jun 30 2026 11:35:10 GMT-0400 (Eastern Daylight Time),497893.0999999996,A,skin,I,n,598,3,2583.5999999996275,495309.5,9045,WL,B,5.0
4,13.383000135421753,learn,46616.99986457825,Tue Jun 30 2026 11:35:10 GMT-0400 (Eastern Daylight Time),498242.69999999925,A,skinenter,I,enter,332,3,2933.199999999255,495309.5,9045,WL,B,5.0
4,13.700000047683716,learn,46299.999952316284,Tue Jun 30 2026 11:35:10 GMT-0400 (Eastern Daylight Time),498559.80000000075,A,a,I,a,308,3,316.7000000011176,498243.0999999996,9045,WL,B,6.0
4,14.034000158309937,learn,45965.99984169006,Tue Jun 30 2026 11:35:10 GMT-0400 (Eastern Daylight Time),498893.0,A,ar,I,r,305,3,649.9000000003725,498243.0999999996,9045,WL,B,6.0
4,15.217000007629395,learn,44782.999992370605,Tue Jun 30 2026 11:35:10 GMT-0400 (Eastern Daylight Time),500076.4000000004,A,arm,I,m,1157,3,1833.300000000745,498243.0999999996,9045,WL,B,6.0
4,15.567000150680542,learn,44432.99984931946,Tue Jun 30 2026 11:35:10 GMT-0400 (Eastern Daylight Time),500426.0999999996,A,armenter,I,enter,325,3,2183.0,498243.0999999996,9045,WL,B,6.0
4,17.384000062942505,learn,42615.999937057495,Tue Jun 30 2026 11:35:10 GMT-0400 (Eastern Daylight Time),502243.0,A,s,I,s,1804,3,1816.5,500426.5,9045,WL,B,7.0
4,17.734000205993652,learn,42265.99979400635,Tue Jun 30 2026 11:35:10 GMT-0400 (Eastern Daylight Time),502593.0999999996,A,st,I,t,336,3,2166.5999999996275,500426.5,9045,WL,B,7.0
4,18.16700005531311,learn,41832.99994468689,Tue Jun 30 2026 11:35:10 GMT-0400 (Eastern Daylight Time),503026.4000000004,A,sta,I,a,418,3,2599.9000000003725,500426.5,9045,WL,B,7.0
4,18.43400001525879,learn,41565.99998474121,Tue Jun 30 2026 11:35:10 GMT-0400 (Eastern Daylight Time),503293.19999999925,A,star,I,r,257,3,2866.699999999255,500426.5,9045,WL,B,7.0
4,18.767000198364258,learn,41232.99980163574,Tue Jun 30 2026 11:35:10 GMT-0400 (Eastern Daylight Time),503626.0,A,starenter,I,enter,309,3,3199.5,500426.5,9045,WL,B,7.0
4,21.33400011062622,learn,38665.99988937378,Tue Jun 30 2026 11:35:10 GMT-0400 (Eastern Daylight Time),506193.0,A,f,I,f,2555,3,2566.699999999255,503626.30000000075,9045,WL,B,8.0
4,21.634000062942505,learn,38365.999937057495,Tue Jun 30 2026 11:35:10 GMT-0400 (Eastern Daylight Time),506493.0999999996,A,fi,I,i,275,3,2866.7999999988824,503626.30000000075,9045,WL,B,8.0
4,22.034000158309937,learn,37965.99984169006,Tue Jun 30 2026 11:35:10 GMT-0400 (Eastern Daylight Time),506893.0999999996,A,fie,I,e,373,3,3266.7999999988824,503626.30000000075,9045,WL,B,8.0
4,22.300000190734863,learn,37699.99980926514,Tue Jun 30 2026 11:35:10 GMT-0400 (Eastern Daylight Time),507159.30000000075,A,fieenter,I,enter,243,3,3533.0,503626.30000000075,9045,WL,B,8.0
4,23.784000158309937,learn,36215.99984169006,Tue Jun 30 2026 11:35:10 GMT-0400 (Eastern Daylight Time),508643.0,A,p,I,p,1471,3,1483.4000000003725,507159.5999999996,9045,WL,B,9.0
4,24.16700005531311,learn,35832.99994468689,Tue Jun 30 2026 11:35:10 GMT-0400 (Eastern Daylight Time),509026.4000000004,A,pi,I,i,367,3,1866.800000000745,507159.5999999996,9045,WL,B,9.0
4,24.717000007629395,learn,35282.999992370605,Tue Jun 30 2026 11:35:10 GMT-0400 (Eastern Daylight Time),509576.4000000004,A,pie,I,e,528,3,2416.800000000745,507159.5999999996,9045,WL,B,9.0
4,24.950000047683716,learn,35049.999952316284,Tue Jun 30 2026 11:35:10 GMT-0400 (Eastern Daylight Time),509809.30000000075,A,pieenter,I,enter,217,3,2649.7000000011176,507159.5999999996,9045,WL,B,9.0
4,27.984000205993652,learn,32015.999794006348,Tue Jun 30 2026 11:35:10 GMT-0400 (Eastern Daylight Time),512843.0,A,s,I,s,3013,3,3033.4000000003725,509809.5999999996,9045,WL,B,10.0
4,28.467000007629395,learn,31532.999992370605,Tue Jun 30 2026 11:35:10 GMT-0400 (Eastern Daylight Time),513326.30000000075,A,st,I,t,470,3,3516.7000000011176,509809.5999999996,9045,WL,B,10.0
4,28.66700005531311,learn,31332.99994468689,Tue Jun 30 2026 11:35:10 GMT-0400 (Eastern Daylight Time),513526.4000000004,A,str,I,r,181,3,3716.800000000745,509809.5999999996,9045,WL,B,10.0
4,28.950000047683716,learn,31049.999952316284,Tue Jun 30 2026 11:35:10 GMT-0400 (Eastern Daylight Time),513809.69999999925,A,stre,I,e,261,3,4000.0999999996275,509809.5999999996,9045,WL,B,10.0
4,29.15000009536743,learn,30849.99990463257,Tue Jun 30 2026 11:35:10 GMT-0400 (Eastern Daylight Time),514009.69999999925,A,stree,I,e,177,3,4200.0999999996275,509809.5999999996,9045,WL,B,10.0
4,29.41700005531311,learn,30582.99994468689,Tue Jun 30 2026 11:35:10 GMT-0400 (Eastern Daylight Time),514276.4000000004,A,street,I,t,240,3,4466.800000000745,509809.5999999996,9045,WL,B,10.0
4,29.883000135421753,learn,30116.999864578247,Tue Jun 30 2026 11:35:10 GMT-0400 (Eastern Daylight Time),514742.5999999996,A,streetenter,I,enter,445,3,4933.0,509809.5999999996,9045,WL,B,10.0
4,31.017000198364258,learn,28982.999801635742,Tue Jun 30 2026 11:35:10 GMT-0400 (Eastern Daylight Time),515876.30000000075,A,g,I,g,1120,3,1133.4000000003725,514742.9000000004,9045,WL,B,11.0
4,31.517000198364258,learn,28482.999801635742,Tue Jun 30 2026 11:35:10 GMT-0400 (Eastern Daylight Time),516376.30000000075,A,ga,I,a,477,3,1633.4000000003725,514742.9000000004,9045,WL,B,11.0
4,31.817000150680542,learn,28182.999849319458,Tue Jun 30 2026 11:35:10 GMT-0400 (Eastern Daylight Time),516676.30000000075,A,gas,I,s,282,3,1933.4000000003725,514742.9000000004,9045,WL,B,11.0
4,32.28400015830994,learn,27715.999841690063,Tue Jun 30 2026 11:35:10 GMT-0400 (Eastern Daylight Time),517143.0999999996,A,gass,I,s,447,3,2400.199999999255,514742.9000000004,9045,WL,B,11.0
4,32.85000014305115,learn,27149.999856948853,Tue Jun 30 2026 11:35:10 GMT-0400 (Eastern Daylight Time),517709.19999999925,A,gassenter,I,enter,553,3,2966.2999999988824,514742.9000000004,9045,WL,B,11.0
4,33.967000007629395,learn,26032.999992370605,Tue Jun 30 2026 11:35:10 GMT-0400 (Eastern Daylight Time),518826.30000000075,A,c,I,c,1097,3,1116.9000000003725,517709.4000000004,9045,WL,B,12.0
4,34.217000007629395,learn,25782.999992370605,Tue Jun 30 2026 11:35:10 GMT-0400 (Eastern Daylight Time),519076.4000000004,A,ci,I,i,233,3,1367.0,517709.4000000004,9045,WL,B,12.0
4,34.48400020599365,learn,25515.999794006348,Tue Jun 30 2026 11:35:10 GMT-0400 (Eastern Daylight Time),519342.9000000004,A,cit,I,t,244,3,1633.5,517709.4000000004,9045,WL,B,12.0
4,34.78400015830994,learn,25215.999841690063,Tue Jun 30 2026 11:35:10 GMT-0400 (Eastern Daylight Time),519643.0,A,city,I,y,274,3,1933.5999999996275,517709.4000000004,9045,WL,B,12.0
4,35.33300018310547,learn,24666.99981689453,Tue Jun 30 2026 11:35:10 GMT-0400 (Eastern Daylight Time),520192.69999999925,A,cityenter,I,enter,533,3,2483.2999999988824,517709.4000000004,9045,WL,B,12.0
4,38.134000062942505,learn,21865.999937057495,Tue Jun 30 2026 11:35:10 GMT-0400 (Eastern Daylight Time),522993.0,A,w,I,w,2790,3,2800.0,520193.0,9045,WL,B,13.0
4,38.31700015068054,learn,21682.999849319458,Tue Jun 30 2026 11:35:10 GMT-0400 (Eastern Daylight Time),523176.30000000075,A,wi,I,i,161,3,2983.300000000745,520193.0,9045,WL,B,13.0
4,39.05000019073486,learn,20949.999809265137,Tue Jun 30 2026 11:35:10 GMT-0400 (Eastern Daylight Time),523909.69999999925,A,win,I,n,714,3,3716.699999999255,520193.0,9045,WL,B,13.0
4,39.450000047683716,learn,20549.999952316284,Tue Jun 30 2026 11:35:10 GMT-0400 (Eastern Daylight Time),524309.5999999996,A,wind,I,d,381,3,4116.5999999996275,520193.0,9045,WL,B,13.0
4,39.65000009536743,learn,20349.99990463257,Tue Jun 30 2026 11:35:10 GMT-0400 (Eastern Daylight Time),524509.3000000007,A,windo,I,o,186,3,4316.300000000745,520193.0,9045,WL,B,13.0
4,40.01700019836426,learn,19982.999801635742,Tue Jun 30 2026 11:35:10 GMT-0400 (Eastern Daylight Time),524876.3000000007,A,window,I,w,334,3,4683.300000000745,520193.0,9045,WL,B,13.0
4,40.31700015068054,learn,19682.999849319458,Tue Jun 30 2026 11:35:10 GMT-0400 (Eastern Daylight Time),525175.9000000004,A,windowenter,I,enter,276,3,4982.9000000003725,520193.0,9045,WL,B,13.0
4,40.80000019073486,learn,19199.999809265137,Tue Jun 30 2026 11:35:10 GMT-0400 (Eastern Daylight Time),525659.5999999996,A,d,I,d,462,3,483.40000000037253,525176.1999999993,9045,WL,B,14.0
4,41.15000009536743,learn,18849.99990463257,Tue Jun 30 2026 11:35:10 GMT-0400 (Eastern Daylight Time),526009.6999999993,A,do,I,o,324,3,833.5,525176.1999999993,9045,WL,B,14.0
4,41.40000009536743,learn,18599.99990463257,Tue Jun 30 2026 11:35:10 GMT-0400 (Eastern Daylight Time),526259.5999999996,A,doo,I,o,231,3,1083.4000000003725,525176.1999999993,9045,WL,B,14.0
4,41.717000007629395,learn,18282.999992370605,Tue Jun 30 2026 11:35:10 GMT-0400 (Eastern Daylight Time),526576.4000000004,A,door,I,r,302,3,1400.2000000011176,525176.1999999993,9045,WL,B,14.0
4,42.032999992370605,learn,17967.000007629395,Tue Jun 30 2026 11:35:10 GMT-0400 (Eastern Daylight Time),526892.3000000007,A,doorenter,I,enter,306,3,1716.1000000014901,525176.1999999993,9045,WL,B,14.0
4,54.134000062942505,learn,5865.999937057495,Tue Jun 30 2026 11:35:10 GMT-0400 (Eastern Daylight Time),538992.9000000004,A,s,I,s,12090,3,12100.300000000745,526892.5999999996,9045,WL,B,15.0
4,54.5,learn,5500.0,Tue Jun 30 2026 11:35:10 GMT-0400 (Eastern Daylight Time),539359.5999999996,A,st,I,t,355,3,12467.0,526892.5999999996,9045,WL,B,15.0
4,54.717000007629395,learn,5282.9999923706055,Tue Jun 30 2026 11:35:10 GMT-0400 (Eastern Daylight Time),539576.4000000004,A,str,I,r,196,3,12683.800000000745,526892.5999999996,9045,WL,B,15.0
4,55.06700015068054,learn,4932.999849319458,Tue Jun 30 2026 11:35:10 GMT-0400 (Eastern Daylight Time),539926.3000000007,A,stre,I,e,320,3,13033.700000001118,526892.5999999996,9045,WL,B,15.0
4,55.23300004005432,learn,4766.999959945679,Tue Jun 30 2026 11:35:10 GMT-0400 (Eastern Daylight Time),540092.6999999993,A,stree,I,e,156,3,13200.099999999627,526892.5999999996,9045,WL,B,15.0
4,55.467000007629395,learn,4532.9999923706055,Tue Jun 30 2026 11:35:10 GMT-0400 (Eastern Daylight Time),540326.4000000004,A,street,I,t,206,3,13433.800000000745,526892.5999999996,9045,WL,B,15.0
4,55.867000102996826,learn,4132.999897003174,Tue Jun 30 2026 11:35:10 GMT-0400 (Eastern Daylight Time),540725.9000000004,A,streetenter,I,enter,378,3,13833.300000000745,526892.5999999996,9045,WL,B,15.0
5,1.5510001182556152,learn,60000.0,Tue Jun 30 2026 11:35:10 GMT-0400 (Eastern Daylight Time),609893.0999999996,A,s,I,s,1533,3,1549.9000000003725,608343.1999999993,9045,WL,B,1.0
5,1.817000150680542,learn,60000.0,Tue Jun 30 2026 11:35:10 GMT-0400 (Eastern Daylight Time),610159.3000000007,A,st,I,t,251,3,1816.1000000014901,608343.1999999993,9045,WL,B,1.0
5,1.934000015258789,learn,60000.0,Tue Jun 30 2026 11:35:10 GMT-0400 (Eastern Daylight Time),610276.0999999996,A,str,I,r,99,3,1932.9000000003725,608343.1999999993,9045,WL,B,1.0
5,2.3500001430511475,learn,60000.0,Tue Jun 30 2026 11:35:10 GMT-0400 (Eastern Daylight Time),610692.6999999993,A,stre,I,e,396,3,2349.5,608343.1999999993,9045,WL,B,1.0
5,2.567000150680542,learn,60000.0,Tue Jun 30 2026 11:35:10 GMT-0400 (Eastern Daylight Time),610909.0999999996,A,stree,I,e,205,3,2565.9000000003725,608343.1999999993,9045,WL,B,1.0
5,2.75,learn,60000.0,Tue Jun 30 2026 11:35:10 GMT-0400 (Eastern Daylight Time),611092.8000000007,A,street,I,t,156,3,2749.60000000149,608343.1999999993,9045,WL,B,1.0
5,3.0329999923706055,learn,60000.0,Tue Jun 30 2026 11:35:10 GMT-0400 (Eastern Daylight Time),611375.8000000007,A,streetenter,I,enter,268,3,3032.60000000149,608343.1999999993,9045,WL,B,1.0
5,4.983999967575073,learn,60000.0,Tue Jun 30 2026 11:35:10 GMT-0400 (Eastern Daylight Time),613326.0,A,g,I,g,1941,3,1949.800000000745,611376.1999999993,9045,WL,B,2.0
5,5.184000015258789,learn,60000.0,Tue Jun 30 2026 11:35:10 GMT-0400 (Eastern Daylight Time),613526.0999999996,A,gr,I,r,177,3,2149.9000000003725,611376.1999999993,9045,WL,B,2.0
5,5.434000015258789,learn,60000.0,Tue Jun 30 2026 11:35:10 GMT-0400 (Eastern Daylight Time),613776.1999999993,A,gre,I,e,234,3,2400.0,611376.1999999993,9045,WL,B,2.0
5,6.016999959945679,learn,60000.0,Tue Jun 30 2026 11:35:10 GMT-0400 (Eastern Daylight Time),614359.3000000007,A,gr,I,backspace,561,3,2983.10000000149,611376.1999999993,9045,WL,B,2.0
5,6.184000015258789,learn,60000.0,Tue Jun 30 2026 11:35:10 GMT-0400 (Eastern Daylight Time),614526.0999999996,A,gra,I,a,153,3,3149.9000000003725,611376.1999999993,9045,WL,B,2.0
5,7.084000110626221,learn,60000.0,Tue Jun 30 2026 11:35:10 GMT-0400 (Eastern Daylight Time),615426.0999999996,A,gras,I,s,882,3,4049.9000000003725,611376.1999999993,9045,WL,B,2.0
5,7.299999952316284,learn,60000.0,Tue Jun 30 2026 11:35:10 GMT-0400 (Eastern Daylight Time),615642.8000000007,A,grass,I,s,192,3,4266.60000000149,611376.1999999993,9045,WL,B,2.0
5,7.483000040054321,learn,60000.0,Tue Jun 30 2026 11:35:10 GMT-0400 (Eastern Daylight Time),615825.6999999993,A,grassenter,I,enter,168,3,4449.5,611376.1999999993,9045,WL,B,2.0
5,8.467000007629395,learn,60000.0,Tue Jun 30 2026 11:35:10 GMT-0400 (Eastern Daylight Time),616809.5,A,c,I,c,963,3,983.4000000003725,615826.0999999996,9045,WL,B,3.0
5,9.233999967575073,learn,60000.0,Tue Jun 30 2026 11:35:10 GMT-0400 (Eastern Daylight Time),617576.0,A,cb,I,b,743,3,1749.9000000003725,615826.0999999996,9045,WL,B,3.0
5,9.483999967575073,learn,60000.0,Tue Jun 30 2026 11:35:10 GMT-0400 (Eastern Daylight Time),617826.3000000007,A,cbi,I,i,232,3,2000.2000000011176,615826.0999999996,9045,WL,B,3.0
5,9.717000007629395,learn,60000.0,Tue Jun 30 2026 11:35:10 GMT-0400 (Eastern Daylight Time),618059.4000000004,A,cbin,I,n,196,3,2233.300000000745,615826.0999999996,9045,WL,B,3.0
5,10.067000150680542,learn,60000.0,Tue Jun 30 2026 11:35:10 GMT-0400 (Eastern Daylight Time),618409.0,A,cbinenter,I,enter,321,3,2582.9000000003725,615826.0999999996,9045,WL,B,3.0
5,10.784000158309937,learn,60000.0,Tue Jun 30 2026 11:35:10 GMT-0400 (Eastern Daylight Time),619126.0999999996,A,l,I,l,700,3,716.7999999988824,618409.3000000007,9045,WL,B,4.0
5,10.967000007629395,learn,60000.0,Tue Jun 30 2026 11:35:10 GMT-0400 (Eastern Daylight Time),619309.3000000007,A,la,I,a,171,3,900.0,618409.3000000007,9045,WL,B,4.0
5,11.367000102996826,learn,60000.0,Tue Jun 30 2026 11:35:10 GMT-0400 (Eastern Daylight Time),619709.3000000007,A,lak,I,k,379,3,1300.0,618409.3000000007,9045,WL,B,4.0
5,11.549999952316284,learn,60000.0,Tue Jun 30 2026 11:35:10 GMT-0400 (Eastern Daylight Time),619892.8000000007,A,lake,I,e,164,3,1483.5,618409.3000000007,9045,WL,B,4.0
5,11.900000095367432,learn,60000.0,Tue Jun 30 2026 11:35:10 GMT-0400 (Eastern Daylight Time),620242.3000000007,A,lakeenter,I,enter,326,3,1833.0,618409.3000000007,9045,WL,B,4.0
5,13.150000095367432,learn,60000.0,Tue Jun 30 2026 11:35:10 GMT-0400 (Eastern Daylight Time),621492.8000000007,A,w,I,w,1234,3,1250.1000000014901,620242.6999999993,9045,WL,B,5.0
5,13.350000143051147,learn,60000.0,Tue Jun 30 2026 11:35:10 GMT-0400 (Eastern Daylight Time),621692.8000000007,A,wi,I,i,189,3,1450.1000000014901,620242.6999999993,9045,WL,B,5.0
5,13.617000102996826,learn,60000.0,Tue Jun 30 2026 11:35:10 GMT-0400 (Eastern Daylight Time),621959.5,A,win,I,n,244,3,1716.800000000745,620242.6999999993,9045,WL,B,5.0
5,14.266999959945679,learn,60000.0,Tue Jun 30 2026 11:35:10 GMT-0400 (Eastern Daylight Time),622609.6999999993,A,wind,I,d,635,3,2367.0,620242.6999999993,9045,WL,B,5.0
5,14.467000007629395,learn,60000.0,Tue Jun 30 2026 11:35:10 GMT-0400 (Eastern Daylight Time),622809.5,A,windo,I,o,175,3,2566.800000000745,620242.6999999993,9045,WL,B,5.0
5,14.799999952316284,learn,60000.0,Tue Jun 30 2026 11:35:10 GMT-0400 (Eastern Daylight Time),623142.6999999993,A,window,I,w,312,3,2900.0,620242.6999999993,9045,WL,B,5.0
5,15.150000095367432,learn,60000.0,Tue Jun 30 2026 11:35:10 GMT-0400 (Eastern Daylight Time),623492.1999999993,A,windowenter,I,enter,331,3,3249.5,620242.6999999993,9045,WL,B,5.0
5,15.967000007629395,learn,60000.0,Tue Jun 30 2026 11:35:10 GMT-0400 (Eastern Daylight Time),624309.4000000004,A,d,I,d,801,3,816.8000000007451,623492.5999999996,9045,WL,B,6.0
5,16.284000158309937,learn,60000.0,Tue Jun 30 2026 11:35:10 GMT-0400 (Eastern Daylight Time),624626.0999999996,A,do,I,o,299,3,1133.5,623492.5999999996,9045,WL,B,6.0
5,16.51699995994568,learn,60000.0,Tue Jun 30 2026 11:35:10 GMT-0400 (Eastern Daylight Time),624859.5,A,doo,I,o,205,3,1366.9000000003725,623492.5999999996,9045,WL,B,6.0
5,16.884000062942505,learn,60000.0,Tue Jun 30 2026 11:35:10 GMT-0400 (Eastern Daylight Time),625226.0999999996,A,door,I,r,342,3,1733.5,623492.5999999996,9045,WL,B,6.0
5,17.317000150680542,learn,60000.0,Tue Jun 30 2026 11:35:10 GMT-0400 (Eastern Daylight Time),625658.9000000004,A,doorenter,I,enter,408,3,2166.300000000745,623492.5999999996,9045,WL,B,6.0
5,18.617000102996826,learn,60000.0,Tue Jun 30 2026 11:35:10 GMT-0400 (Eastern Daylight Time),626959.4000000004,A,a,I,a,1290,3,1300.0999999996275,625659.3000000007,9045,WL,B,7.0
5,18.950000047683716,learn,60000.0,Tue Jun 30 2026 11:35:10 GMT-0400 (Eastern Daylight Time),627292.6999999993,A,ar,I,r,304,3,1633.3999999985099,625659.3000000007,9045,WL,B,7.0
5,19.784000158309937,learn,60000.0,Tue Jun 30 2026 11:35:10 GMT-0400 (Eastern Daylight Time),628126.0999999996,A,arm,I,m,821,3,2466.7999999988824,625659.3000000007,9045,WL,B,7.0
5,20.133000135421753,learn,60000.0,Tue Jun 30 2026 11:35:10 GMT-0400 (Eastern Daylight Time),628475.6999999993,A,armenter,I,enter,321,3,2816.39999999851,625659.3000000007,9045,WL,B,7.0
5,21.317000150680542,learn,60000.0,Tue Jun 30 2026 11:35:10 GMT-0400 (Eastern Daylight Time),629659.5,A,s,I,s,1161,3,1183.5,628476.0,9045,WL,B,8.0
5,21.600000143051147,learn,60000.0,Tue Jun 30 2026 11:35:10 GMT-0400 (Eastern Daylight Time),629942.5999999996,A,sk,I,k,262,3,1466.5999999996275,628476.0,9045,WL,B,8.0
5,21.817000150680542,learn,60000.0,Tue Jun 30 2026 11:35:10 GMT-0400 (Eastern Daylight Time),630159.4000000004,A,ski,I,i,204,3,1683.4000000003725,628476.0,9045,WL,B,8.0
5,22.40000009536743,learn,60000.0,Tue Jun 30 2026 11:35:10 GMT-0400 (Eastern Daylight Time),630742.8000000007,A,skin,I,n,552,3,2266.800000000745,628476.0,9045,WL,B,8.0
5,22.83299994468689,learn,60000.0,Tue Jun 30 2026 11:35:10 GMT-0400 (Eastern Daylight Time),631175.5999999996,A,skinenter,I,enter,409,3,2699.5999999996275,628476.0,9045,WL,B,8.0
5,23.784000158309937,learn,60000.0,Tue Jun 30 2026 11:35:10 GMT-0400 (Eastern Daylight Time),632126.0,A,p,I,p,942,3,950.0999999996275,631175.9000000004,9045,WL,B,9.0
5,24.049999952316284,learn,60000.0,Tue Jun 30 2026 11:35:10 GMT-0400 (Eastern Daylight Time),632392.6999999993,A,pi,I,i,244,3,1216.7999999988824,631175.9000000004,9045,WL,B,9.0
5,24.284000158309937,learn,60000.0,Tue Jun 30 2026 11:35:10 GMT-0400 (Eastern Daylight Time),632626.0999999996,A,pip,I,p,215,3,1450.199999999255,631175.9000000004,9045,WL,B,9.0
5,24.534000158309937,learn,60000.0,Tue Jun 30 2026 11:35:10 GMT-0400 (Eastern Daylight Time),632876.0,A,pipe,I,e,222,3,1700.0999999996275,631175.9000000004,9045,WL,B,9.0
5,24.867000102996826,learn,60000.0,Tue Jun 30 2026 11:35:10 GMT-0400 (Eastern Daylight Time),633209.0,A,pipeenter,I,enter,311,3,2033.0999999996275,631175.9000000004,9045,WL,B,9.0
5,26.76699995994568,learn,60000.0,Tue Jun 30 2026 11:35:10 GMT-0400 (Eastern Daylight Time),635109.4000000004,A,p,I,p,1884,3,1900.0,633209.4000000004,9045,WL,B,10.0
5,27.117000102996826,learn,60000.0,Tue Jun 30 2026 11:35:10 GMT-0400 (Eastern Daylight Time),635459.4000000004,A,pu,I,u,331,3,2250.0,633209.4000000004,9045,WL,B,10.0
5,27.600000143051147,learn,60000.0,Tue Jun 30 2026 11:35:10 GMT-0400 (Eastern Daylight Time),635942.6999999993,A,pup,I,p,463,3,2733.2999999988824,633209.4000000004,9045,WL,B,10.0
5,27.83400011062622,learn,60000.0,Tue Jun 30 2026 11:35:10 GMT-0400 (Eastern Daylight Time),636176.0999999996,A,pupi,I,i,219,3,2966.699999999255,633209.4000000004,9045,WL,B,10.0
5,28.16700005531311,learn,60000.0,Tue Jun 30 2026 11:35:10 GMT-0400 (Eastern Daylight Time),636509.0999999996,A,pupil,I,l,320,3,3299.699999999255,633209.4000000004,9045,WL,B,10.0
5,28.5,learn,60000.0,Tue Jun 30 2026 11:35:10 GMT-0400 (Eastern Daylight Time),636842.1999999993,A,pupilenter,I,enter,309,3,3632.7999999988824,633209.4000000004,9045,WL,B,10.0
5,33.81700015068054,learn,60000.0,Tue Jun 30 2026 11:35:10 GMT-0400 (Eastern Daylight Time),642159.3000000007,A,c,I,c,5308,3,5316.800000000745,636842.5,9045,WL,B,11.0
5,34.10000014305115,learn,60000.0,Tue Jun 30 2026 11:35:10 GMT-0400 (Eastern Daylight Time),642442.8000000007,A,ci,I,i,258,3,5600.300000000745,636842.5,9045,WL,B,11.0
5,34.41700005531311,learn,60000.0,Tue Jun 30 2026 11:35:10 GMT-0400 (Eastern Daylight Time),642759.4000000004,A,cit,I,t,294,3,5916.9000000003725,636842.5,9045,WL,B,11.0
5,34.717000007629395,learn,60000.0,Tue Jun 30 2026 11:35:10 GMT-0400 (Eastern Daylight Time),643059.3000000007,A,city,I,y,283,3,6216.800000000745,636842.5,9045,WL,B,11.0
5,35.15000009536743,learn,60000.0,Tue Jun 30 2026 11:35:10 GMT-0400 (Eastern Daylight Time),643492.4000000004,A,cityenter,I,enter,414,3,6649.9000000003725,636842.5,9045,WL,B,11.0
5,36.41700005531311,learn,60000.0,Tue Jun 30 2026 11:35:10 GMT-0400 (Eastern Daylight Time),644759.3000000007,A,l,I,l,1249,3,1266.5,643492.8000000007,9045,WL,B,12.0
5,36.56700015068054,learn,60000.0,Tue Jun 30 2026 11:35:10 GMT-0400 (Eastern Daylight Time),644909.3000000007,A,la,I,a,138,3,1416.5,643492.8000000007,9045,WL,B,12.0
5,36.867000102996826,learn,60000.0,Tue Jun 30 2026 11:35:10 GMT-0400 (Eastern Daylight Time),645209.3000000007,A,lak,I,k,267,3,1716.5,643492.8000000007,9045,WL,B,12.0
5,37.049999952316284,learn,60000.0,Tue Jun 30 2026 11:35:10 GMT-0400 (Eastern Daylight Time),645392.6999999993,A,lake,I,e,168,3,1899.8999999985099,643492.8000000007,9045,WL,B,12.0
5,38.93300008773804,learn,60000.0,Tue Jun 30 2026 11:35:10 GMT-0400 (Eastern Daylight Time),647275.5999999996,A,lakeenter,I,enter,1848,3,3782.7999999988824,643492.8000000007,9045,WL,B,12.0
5,39.31700015068054,learn,60000.0,Tue Jun 30 2026 11:35:10 GMT-0400 (Eastern Daylight Time),647659.4000000004,A,c,I,c,361,3,383.5,647275.9000000004,9045,WL,B,13.0
5,39.60000014305115,learn,60000.0,Tue Jun 30 2026 11:35:10 GMT-0400 (Eastern Daylight Time),647942.6999999993,A,ca,I,a,262,3,666.7999999988824,647275.9000000004,9045,WL,B,13.0
5,40.200000047683716,learn,60000.0,Tue Jun 30 2026 11:35:10 GMT-0400 (Eastern Daylight Time),648542.6999999993,A,cab,I,b,579,3,1266.7999999988824,647275.9000000004,9045,WL,B,13.0
5,40.5,learn,60000.0,Tue Jun 30 2026 11:35:10 GMT-0400 (Eastern Daylight Time),648842.6999999993,A,cabi,I,i,274,3,1566.7999999988824,647275.9000000004,9045,WL,B,13.0
5,40.75,learn,60000.0,Tue Jun 30 2026 11:35:10 GMT-0400 (Eastern Daylight Time),649092.5999999996,A,cabin,I,n,230,3,1816.699999999255,647275.9000000004,9045,WL,B,13.0
5,41.16799998283386,learn,60000.0,Tue Jun 30 2026 11:35:10 GMT-0400 (Eastern Daylight Time),649510.0,A,cabinenter,I,enter,395,3,2234.0999999996275,647275.9000000004,9045,WL,B,13.0
5,41.884000062942505,learn,60000.0,Tue Jun 30 2026 11:35:10 GMT-0400 (Eastern Daylight Time),650226.0999999996,A,w,I,w,703,3,715.6999999992549,649510.4000000004,9045,WL,B,14.0
5,42.08400011062622,learn,60000.0,Tue Jun 30 2026 11:35:10 GMT-0400 (Eastern Daylight Time),650426.0,A,wi,I,i,175,3,915.5999999996275,649510.4000000004,9045,WL,B,14.0
5,42.43400001525879,learn,60000.0,Tue Jun 30 2026 11:35:10 GMT-0400 (Eastern Daylight Time),650776.0,A,wif,I,f,328,3,1265.5999999996275,649510.4000000004,9045,WL,B,14.0
5,42.617000102996826,learn,60000.0,Tue Jun 30 2026 11:35:10 GMT-0400 (Eastern Daylight Time),650959.4000000004,A,wife,I,e,171,3,1449.0,649510.4000000004,9045,WL,B,14.0
5,42.950000047683716,learn,60000.0,Tue Jun 30 2026 11:35:10 GMT-0400 (Eastern Daylight Time),651292.3000000007,A,wifeenter,I,enter,314,3,1781.9000000003725,649510.4000000004,9045,WL,B,14.0
5,43.68300008773804,learn,60000.0,Tue Jun 30 2026 11:35:10 GMT-0400 (Eastern Daylight Time),652025.6999999993,A,f,I,f,713,3,733.1999999992549,651292.5,9045,WL,B,15.0
5,43.867000102996826,learn,60000.0,Tue Jun 30 2026 11:35:10 GMT-0400 (Eastern Daylight Time),652209.0999999996,A,fi,I,i,170,3,916.5999999996275,651292.5,9045,WL,B,15.0
5,44.134000062942505,learn,60000.0,Tue Jun 30 2026 11:35:10 GMT-0400 (Eastern Daylight Time),652476.0999999996,A,fir,I,r,242,3,1183.5999999996275,651292.5,9045,WL,B,15.0
5,44.217000007629395,learn,60000.0,Tue Jun 30 2026 11:35:10 GMT-0400 (Eastern Daylight Time),652559.3000000007,A,fire,I,e,69,3,1266.800000000745,651292.5,9045,WL,B,15.0
5,44.549999952316284,learn,60000.0,Tue Jun 30 2026 11:35:10 GMT-0400 (Eastern Daylight Time),652892.0999999996,A,fireenter,I,enter,321,3,1599.5999999996275,651292.5,9045,WL,B,15.0
6,2.549999952316284,distr,57450.000047683716,Tue Jun 30 2026 11:35:10 GMT-0400 (Eastern Daylight Time),725209.3000000007,B,b,I,b,2530,3,2550.10000000149,722659.1999999993,9045,WL,B,1.0
6,2.7170000076293945,distr,57282.999992370605,Tue Jun 30 2026 11:35:10 GMT-0400 (Eastern Daylight Time),725375.8000000007,B,ba,I,a,152,3,2716.60000000149,722659.1999999993,9045,WL,B,1.0
6,3.065999984741211,distr,56934.00001525879,Tue Jun 30 2026 11:35:10 GMT-0400 (Eastern Daylight Time),725725.6999999993,B,bab,I,b,337,3,3066.5,722659.1999999993,9045,WL,B,1.0
6,3.382999897003174,distr,56617.000102996826,Tue Jun 30 2026 11:35:10 GMT-0400 (Eastern Daylight Time),726042.5,B,baby,I,y,290,3,3383.300000000745,722659.1999999993,9045,WL,B,1.0
6,3.9159998893737793,distr,56084.00011062622,Tue Jun 30 2026 11:35:10 GMT-0400 (Eastern Daylight Time),726575.4000000004,B,babyenter,I,enter,517,3,3916.2000000011176,722659.1999999993,9045,WL,B,1.0
6,5.182999849319458,distr,54817.00015068054,Tue Jun 30 2026 11:35:10 GMT-0400 (Eastern Daylight Time),727842.5999999996,B,s,I,s,1254,3,1266.699999999255,726575.9000000004,9045,WL,B,2.0
6,5.566999912261963,distr,54433.00008773804,Tue Jun 30 2026 11:35:10 GMT-0400 (Eastern Daylight Time),728225.9000000004,B,st,I,t,366,3,1650.0,726575.9000000004,9045,WL,B,2.0
6,5.915999889373779,distr,54084.00011062622,Tue Jun 30 2026 11:35:10 GMT-0400 (Eastern Daylight Time),728575.9000000004,B,sto,I,o,335,3,2000.0,726575.9000000004,9045,WL,B,2.0
6,6.2829999923706055,distr,53717.000007629395,Tue Jun 30 2026 11:35:10 GMT-0400 (Eastern Daylight Time),728942.4000000004,B,stor,I,r,353,3,2366.5,726575.9000000004,9045,WL,B,2.0
6,6.599999904632568,distr,53400.00009536743,Tue Jun 30 2026 11:35:10 GMT-0400 (Eastern Daylight Time),729259.1999999993,B,storm,I,m,290,3,2683.2999999988824,726575.9000000004,9045,WL,B,2.0
6,6.982999801635742,distr,53017.00019836426,Tue Jun 30 2026 11:35:10 GMT-0400 (Eastern Daylight Time),729642.0999999996,B,stormenter,I,enter,357,3,3066.199999999255,726575.9000000004,9045,WL,B,2.0
6,46.34999990463257,distr,13650.000095367432,Tue Jun 30 2026 11:35:10 GMT-0400 (Eastern Daylight Time),769009.0999999996,B,s,I,s,39355,3,39366.699999999255,729642.4000000004,9045,WL,B,3.0
6,46.68299984931946,distr,13317.000150680542,Tue Jun 30 2026 11:35:10 GMT-0400 (Eastern Daylight Time),769342.0999999996,B,st,I,t,319,3,39699.699999999255,729642.4000000004,9045,WL,B,3.0
6,47.04899978637695,distr,12951.000213623047,Tue Jun 30 2026 11:35:10 GMT-0400 (Eastern Daylight Time),769708.8000000007,B,sto,I,o,359,3,40066.40000000037,729642.4000000004,9045,WL,B,3.0
6,47.615999937057495,distr,12384.000062942505,Tue Jun 30 2026 11:35:10 GMT-0400 (Eastern Daylight Time),770275.8000000007,B,stor,I,r,549,3,40633.40000000037,729642.4000000004,9045,WL,B,3.0
6,48.66599988937378,distr,11334.00011062622,Tue Jun 30 2026 11:35:10 GMT-0400 (Eastern Daylight Time),771325.3000000007,B,storenter,I,enter,1036,3,41682.90000000037,729642.4000000004,9045,WL,B,3.0
6,50.5,distr,9500.0,Tue Jun 30 2026 11:35:10 GMT-0400 (Eastern Daylight Time),773159.0,B,s,I,s,1816,3,1833.4000000003725,771325.5999999996,9045,WL,B,4.0
6,51.89999985694885,distr,8100.0001430511475,Tue Jun 30 2026 11:35:10 GMT-0400 (Eastern Daylight Time),774559.0999999996,B,st,I,t,1387,3,3233.5,771325.5999999996,9045,WL,B,4.0
6,52.08299994468689,distr,7917.00005531311,Tue Jun 30 2026 11:35:10 GMT-0400 (Eastern Daylight Time),774742.5,B,sto,I,o,163,3,3416.9000000003725,771325.5999999996,9045,WL,B,4.0
6,52.299999952316284,distr,7700.000047683716,Tue Jun 30 2026 11:35:10 GMT-0400 (Eastern Daylight Time),774959.0999999996,B,stor,I,r,204,3,3633.5,771325.5999999996,9045,WL,B,4.0
6,52.56599998474121,distr,7434.000015258789,Tue Jun 30 2026 11:35:10 GMT-0400 (Eastern Daylight Time),775225.8000000007,B,storm,I,m,242,3,3900.2000000011176,771325.5999999996,9045,WL,B,4.0
6,53.01599979400635,distr,6984.000205993652,Tue Jun 30 2026 11:35:10 GMT-0400 (Eastern Daylight Time),775675.3000000007,B,stormenter,I,enter,417,3,4349.700000001118,771325.5999999996,9045,WL,B,4.0
6,60.01699995994568,distr,-16.99995994567871,Tue Jun 30 2026 11:35:10 GMT-0400 (Eastern Daylight Time),782676.0,B,None,I,None,6994,3,7000.300000000745,775675.6999999993,9045,WL,B,5.0
7,3.0999999046325684,immed,56900.00009536743,Tue Jun 30 2026 11:35:10 GMT-0400 (Eastern Daylight Time),791559.0999999996,A,g,I,g,3081,3,3099.5999999996275,788459.5,9045,WL,B,1.0
7,3.2330000400543213,immed,56766.99995994568,Tue Jun 30 2026 11:35:10 GMT-0400 (Eastern Daylight Time),791692.3000000007,A,gr,I,r,104,3,3232.800000000745,788459.5,9045,WL,B,1.0
7,3.815999984741211,immed,56184.00001525879,Tue Jun 30 2026 11:35:10 GMT-0400 (Eastern Daylight Time),792275.8000000007,A,gra,I,a,556,3,3816.300000000745,788459.5,9045,WL,B,1.0
7,4.0329999923706055,immed,55967.000007629395,Tue Jun 30 2026 11:35:10 GMT-0400 (Eastern Daylight Time),792492.4000000004,A,gras,I,s,189,3,4032.9000000003725,788459.5,9045,WL,B,1.0
7,4.432999849319458,immed,55567.00015068054,Tue Jun 30 2026 11:35:10 GMT-0400 (Eastern Daylight Time),792892.5,A,grass,I,s,389,3,4433.0,788459.5,9045,WL,B,1.0
7,4.7159998416900635,immed,55284.00015830994,Tue Jun 30 2026 11:35:10 GMT-0400 (Eastern Daylight Time),793175.4000000004,A,grassenter,I,enter,261,3,4715.9000000003725,788459.5,9045,WL,B,1.0
7,8.899999856948853,immed,51100.00014305115,Tue Jun 30 2026 11:35:10 GMT-0400 (Eastern Daylight Time),797359.0999999996,A,s,I,s,4174,3,4183.4000000003725,793175.6999999993,9045,WL,B,2.0
7,9.215999841690063,immed,50784.00015830994,Tue Jun 30 2026 11:35:10 GMT-0400 (Eastern Daylight Time),797675.5999999996,A,st,I,t,291,3,4499.9000000003725,793175.6999999993,9045,WL,B,2.0
7,9.349999904632568,immed,50650.00009536743,Tue Jun 30 2026 11:35:10 GMT-0400 (Eastern Daylight Time),797809.0999999996,A,str,I,r,117,3,4633.4000000003725,793175.6999999993,9045,WL,B,2.0
7,9.682999849319458,immed,50317.00015068054,Tue Jun 30 2026 11:35:10 GMT-0400 (Eastern Daylight Time),798142.3000000007,A,stre,I,e,311,3,4966.60000000149,793175.6999999993,9045,WL,B,2.0
7,9.865999937057495,immed,50134.000062942505,Tue Jun 30 2026 11:35:10 GMT-0400 (Eastern Daylight Time),798325.8000000007,A,stree,I,e,162,3,5150.10000000149,793175.6999999993,9045,WL,B,2.0
7,10.75,immed,49250.0,Tue Jun 30 2026 11:35:10 GMT-0400 (Eastern Daylight Time),799209.1999999993,A,street,I,t,858,3,6033.5,793175.6999999993,9045,WL,B,2.0
7,10.998999834060669,immed,49001.00016593933,Tue Jun 30 2026 11:35:10 GMT-0400 (Eastern Daylight Time),799458.5999999996,A,streetenter,I,enter,230,3,6282.9000000003725,793175.6999999993,9045,WL,B,2.0
7,13.516000032424927,immed,46483.99996757507,Tue Jun 30 2026 11:35:10 GMT-0400 (Eastern Daylight Time),801975.6999999993,A,w,I,w,2499,3,2516.7999999988824,799458.9000000004,9045,WL,B,3.0
7,13.766000032424927,immed,46233.99996757507,Tue Jun 30 2026 11:35:10 GMT-0400 (Eastern Daylight Time),802225.5999999996,A,wi,I,i,235,3,2766.699999999255,799458.9000000004,9045,WL,B,3.0
7,14.065999984741211,immed,45934.00001525879,Tue Jun 30 2026 11:35:10 GMT-0400 (Eastern Daylight Time),802525.5,A,win,I,n,284,3,3066.5999999996275,799458.9000000004,9045,WL,B,3.0
7,14.565999984741211,immed,45434.00001525879,Tue Jun 30 2026 11:35:10 GMT-0400 (Eastern Daylight Time),803025.6999999993,A,wind,I,d,485,3,3566.7999999988824,799458.9000000004,9045,WL,B,3.0
7,14.782999992370605,immed,45217.000007629395,Tue Jun 30 2026 11:35:10 GMT-0400 (Eastern Daylight Time),803242.5,A,windo,I,o,193,3,3783.5999999996275,799458.9000000004,9045,WL,B,3.0
7,15.115999937057495,immed,44884.000062942505,Tue Jun 30 2026 11:35:10 GMT-0400 (Eastern Daylight Time),803575.6999999993,A,window,I,w,303,3,4116.799999998882,799458.9000000004,9045,WL,B,3.0
7,15.382999897003174,immed,44617.000102996826,Tue Jun 30 2026 11:35:10 GMT-0400 (Eastern Daylight Time),803842.0,A,windowenter,I,enter,250,3,4383.0999999996275,799458.9000000004,9045,WL,B,3.0
7,18.83299994468689,immed,41167.00005531311,Tue Jun 30 2026 11:35:10 GMT-0400 (Eastern Daylight Time),807292.4000000004,A,l,I,l,3428,3,3450.2000000011176,803842.1999999993,9045,WL,B,4.0
7,19.049999952316284,immed,40950.000047683716,Tue Jun 30 2026 11:35:10 GMT-0400 (Eastern Daylight Time),807509.0,A,la,I,a,196,3,3666.800000000745,803842.1999999993,9045,WL,B,4.0
7,19.365999937057495,immed,40634.000062942505,Tue Jun 30 2026 11:35:10 GMT-0400 (Eastern Daylight Time),807825.8000000007,A,lak,I,k,301,3,3983.60000000149,803842.1999999993,9045,WL,B,4.0
7,19.615999937057495,immed,40384.000062942505,Tue Jun 30 2026 11:35:10 GMT-0400 (Eastern Daylight Time),808075.8000000007,A,lake,I,e,222,3,4233.60000000149,803842.1999999993,9045,WL,B,4.0
7,19.848999977111816,immed,40151.00002288818,Tue Jun 30 2026 11:35:10 GMT-0400 (Eastern Daylight Time),808308.6999999993,A,lakeenter,I,enter,211,3,4466.5,803842.1999999993,9045,WL,B,4.0
7,20.532999992370605,immed,39467.000007629395,Tue Jun 30 2026 11:35:10 GMT-0400 (Eastern Daylight Time),808992.3000000007,A,c,I,c,673,3,683.3000000007451,808309.0,9045,WL,B,5.0
7,20.84999990463257,immed,39150.00009536743,Tue Jun 30 2026 11:35:10 GMT-0400 (Eastern Daylight Time),809308.9000000004,A,ca,I,a,304,3,999.9000000003725,808309.0,9045,WL,B,5.0
7,21.266000032424927,immed,38733.99996757507,Tue Jun 30 2026 11:35:10 GMT-0400 (Eastern Daylight Time),809725.5999999996,A,cab,I,b,406,3,1416.5999999996275,808309.0,9045,WL,B,5.0
7,21.632999897003174,immed,38367.000102996826,Tue Jun 30 2026 11:35:10 GMT-0400 (Eastern Daylight Time),810092.4000000004,A,cabi,I,i,338,3,1783.4000000003725,808309.0,9045,WL,B,5.0
7,21.965999841690063,immed,38034.00015830994,Tue Jun 30 2026 11:35:10 GMT-0400 (Eastern Daylight Time),810425.5999999996,A,cabin,I,n,309,3,2116.5999999996275,808309.0,9045,WL,B,5.0
7,22.33299994468689,immed,37667.00005531311,Tue Jun 30 2026 11:35:10 GMT-0400 (Eastern Daylight Time),810792.0,A,cabinenter,I,enter,342,3,2483.0,808309.0,9045,WL,B,5.0
7,22.682999849319458,immed,37317.00015068054,Tue Jun 30 2026 11:35:10 GMT-0400 (Eastern Daylight Time),811142.3000000007,A,s,I,s,333,3,350.1000000014901,810792.1999999993,9045,WL,B,6.0
7,23.032999992370605,immed,36967.000007629395,Tue Jun 30 2026 11:35:10 GMT-0400 (Eastern Daylight Time),811492.3000000007,A,st,I,t,332,3,700.1000000014901,810792.1999999993,9045,WL,B,6.0
7,23.5,immed,36500.0,Tue Jun 30 2026 11:35:10 GMT-0400 (Eastern Daylight Time),811959.0999999996,A,sta,I,a,444,3,1166.9000000003725,810792.1999999993,9045,WL,B,6.0
7,23.799999952316284,immed,36200.000047683716,Tue Jun 30 2026 11:35:10 GMT-0400 (Eastern Daylight Time),812259.0,A,star,I,r,282,3,1466.800000000745,810792.1999999993,9045,WL,B,6.0
7,24.182999849319458,immed,35817.00015068054,Tue Jun 30 2026 11:35:10 GMT-0400 (Eastern Daylight Time),812641.9000000004,A,starenter,I,enter,364,3,1849.7000000011176,810792.1999999993,9045,WL,B,6.0
7,26.382999897003174,immed,33617.000102996826,Tue Jun 30 2026 11:35:10 GMT-0400 (Eastern Daylight Time),814842.4000000004,A,d,I,d,2179,3,2200.2000000011176,812642.1999999993,9045,WL,B,7.0
7,26.83299994468689,immed,33167.00005531311,Tue Jun 30 2026 11:35:10 GMT-0400 (Eastern Daylight Time),815292.4000000004,A,do,I,o,438,3,2650.2000000011176,812642.1999999993,9045,WL,B,7.0
7,27.08299994468689,immed,32917.00005531311,Tue Jun 30 2026 11:35:10 GMT-0400 (Eastern Daylight Time),815542.3000000007,A,doo,I,o,230,3,2900.10000000149,812642.1999999993,9045,WL,B,7.0
7,27.632999897003174,immed,32367.000102996826,Tue Jun 30 2026 11:35:10 GMT-0400 (Eastern Daylight Time),816092.3000000007,A,door,I,r,524,3,3450.10000000149,812642.1999999993,9045,WL,B,7.0
7,27.865999937057495,immed,32134.000062942505,Tue Jun 30 2026 11:35:10 GMT-0400 (Eastern Daylight Time),816325.1999999993,A,doorenter,I,enter,211,3,3683.0,812642.1999999993,9045,WL,B,7.0
7,28.31599998474121,immed,31684.00001525879,Tue Jun 30 2026 11:35:10 GMT-0400 (Eastern Daylight Time),816775.6999999993,A,w,I,w,432,3,450.19999999925494,816325.5,9045,WL,B,8.0
7,28.66599988937378,immed,31334.00011062622,Tue Jun 30 2026 11:35:10 GMT-0400 (Eastern Daylight Time),817125.6999999993,A,wi,I,i,330,3,800.1999999992549,816325.5,9045,WL,B,8.0
7,29.182999849319458,immed,30817.000150680542,Tue Jun 30 2026 11:35:10 GMT-0400 (Eastern Daylight Time),817642.0999999996,A,win,I,n,490,3,1316.5999999996275,816325.5,9045,WL,B,8.0
7,29.615999937057495,immed,30384.000062942505,Tue Jun 30 2026 11:35:10 GMT-0400 (Eastern Daylight Time),818075.6999999993,A,wind,I,d,409,3,1750.199999999255,816325.5,9045,WL,B,8.0
7,29.782999992370605,immed,30217.000007629395,Tue Jun 30 2026 11:35:10 GMT-0400 (Eastern Daylight Time),818242.3000000007,A,windo,I,o,151,3,1916.800000000745,816325.5,9045,WL,B,8.0
7,30.09999990463257,immed,29900.00009536743,Tue Jun 30 2026 11:35:10 GMT-0400 (Eastern Daylight Time),818558.9000000004,A,window,I,w,295,3,2233.4000000003725,816325.5,9045,WL,B,8.0
7,30.348999977111816,immed,29651.000022888184,Tue Jun 30 2026 11:35:10 GMT-0400 (Eastern Daylight Time),818808.5999999996,A,windowenter,I,enter,225,3,2483.0999999996275,816325.5,9045,WL,B,8.0
7,30.782999992370605,immed,29217.000007629395,Tue Jun 30 2026 11:35:10 GMT-0400 (Eastern Daylight Time),819242.4000000004,A,w,I,w,413,3,433.5,818808.9000000004,9045,WL,B,9.0
7,31.016000032424927,immed,28983.999967575073,Tue Jun 30 2026 11:35:10 GMT-0400 (Eastern Daylight Time),819475.5999999996,A,wi,I,i,214,3,666.6999999992549,818808.9000000004,9045,WL,B,9.0
7,31.382999897003174,immed,28617.000102996826,Tue Jun 30 2026 11:35:10 GMT-0400 (Eastern Daylight Time),819842.4000000004,A,wif,I,f,348,3,1033.5,818808.9000000004,9045,WL,B,9.0
7,31.632999897003174,immed,28367.000102996826,Tue Jun 30 2026 11:35:10 GMT-0400 (Eastern Daylight Time),820092.5,A,wife,I,e,239,3,1283.5999999996275,818808.9000000004,9045,WL,B,9.0
7,31.948999881744385,immed,28051.000118255615,Tue Jun 30 2026 11:35:10 GMT-0400 (Eastern Daylight Time),820408.5999999996,A,wifeenter,I,enter,292,3,1599.699999999255,818808.9000000004,9045,WL,B,9.0
7,32.448999881744385,immed,27551.000118255615,Tue Jun 30 2026 11:35:10 GMT-0400 (Eastern Daylight Time),820908.5999999996,A,p,I,p,493,3,499.69999999925494,820408.9000000004,9045,WL,B,10.0
7,32.782999992370605,immed,27217.000007629395,Tue Jun 30 2026 11:35:10 GMT-0400 (Eastern Daylight Time),821242.3000000007,A,pu,I,u,310,3,833.4000000003725,820408.9000000004,9045,WL,B,10.0
7,33.049999952316284,immed,26950.000047683716,Tue Jun 30 2026 11:35:10 GMT-0400 (Eastern Daylight Time),821509.0,A,pup,I,p,248,3,1100.0999999996275,820408.9000000004,9045,WL,B,10.0
7,33.21599984169006,immed,26784.000158309937,Tue Jun 30 2026 11:35:10 GMT-0400 (Eastern Daylight Time),821675.5999999996,A,pupi,I,i,140,3,1266.699999999255,820408.9000000004,9045,WL,B,10.0
7,33.56599998474121,immed,26434.00001525879,Tue Jun 30 2026 11:35:10 GMT-0400 (Eastern Daylight Time),822025.5,A,pupil,I,l,326,3,1616.5999999996275,820408.9000000004,9045,WL,B,10.0
7,34.01600003242493,immed,25983.999967575073,Tue Jun 30 2026 11:35:10 GMT-0400 (Eastern Daylight Time),822475.1999999993,A,pupilenter,I,enter,424,3,2066.2999999988824,820408.9000000004,9045,WL,B,10.0
7,38.549999952316284,immed,21450.000047683716,Tue Jun 30 2026 11:35:10 GMT-0400 (Eastern Daylight Time),827008.9000000004,A,c,I,c,4522,3,4533.4000000003725,822475.5,9045,WL,B,11.0
7,38.799999952316284,immed,21200.000047683716,Tue Jun 30 2026 11:35:10 GMT-0400 (Eastern Daylight Time),827259.0,A,ci,I,i,224,3,4783.5,822475.5,9045,WL,B,11.0
7,39.21599984169006,immed,20784.000158309937,Tue Jun 30 2026 11:35:10 GMT-0400 (Eastern Daylight Time),827675.5999999996,A,cit,I,t,387,3,5200.0999999996275,822475.5,9045,WL,B,11.0
7,39.48300004005432,immed,20516.99995994568,Tue Jun 30 2026 11:35:10 GMT-0400 (Eastern Daylight Time),827942.3000000007,A,city,I,y,246,3,5466.800000000745,822475.5,9045,WL,B,11.0
7,39.98300004005432,immed,20016.99995994568,Tue Jun 30 2026 11:35:10 GMT-0400 (Eastern Daylight Time),828441.9000000004,A,cityenter,I,enter,472,3,5966.4000000003725,822475.5,9045,WL,B,11.0
7,44.75,immed,15250.0,Tue Jun 30 2026 11:35:10 GMT-0400 (Eastern Daylight Time),833208.9000000004,A,f,I,f,4747,3,4766.700000001118,828442.1999999993,9045,WL,B,12.0
7,45.049999952316284,immed,14950.000047683716,Tue Jun 30 2026 11:35:10 GMT-0400 (Eastern Daylight Time),833509.1999999993,A,fi,I,i,272,3,5067.0,828442.1999999993,9045,WL,B,12.0
7,45.39999985694885,immed,14600.000143051147,Tue Jun 30 2026 11:35:10 GMT-0400 (Eastern Daylight Time),833859.0999999996,A,fir,I,r,332,3,5416.9000000003725,828442.1999999993,9045,WL,B,12.0
7,45.51600003242493,immed,14483.999967575073,Tue Jun 30 2026 11:35:10 GMT-0400 (Eastern Daylight Time),833975.6999999993,A,fire,I,e,95,3,5533.5,828442.1999999993,9045,WL,B,12.0
7,45.782999992370605,immed,14217.000007629395,Tue Jun 30 2026 11:35:10 GMT-0400 (Eastern Daylight Time),834241.8000000007,A,fireenter,I,enter,249,3,5799.60000000149,828442.1999999993,9045,WL,B,12.0
7,46.532999992370605,immed,13467.000007629395,Tue Jun 30 2026 11:35:10 GMT-0400 (Eastern Daylight Time),834992.4000000004,A,p,I,p,739,3,750.2000000011176,834242.1999999993,9045,WL,B,13.0
7,47.115999937057495,immed,12884.000062942505,Tue Jun 30 2026 11:35:10 GMT-0400 (Eastern Daylight Time),835575.5999999996,A,pi,I,i,559,3,1333.4000000003725,834242.1999999993,9045,WL,B,13.0
7,47.282999992370605,immed,12717.000007629395,Tue Jun 30 2026 11:35:10 GMT-0400 (Eastern Daylight Time),835742.0,A,pip,I,p,148,3,1499.800000000745,834242.1999999993,9045,WL,B,13.0
7,47.615999937057495,immed,12384.000062942505,Tue Jun 30 2026 11:35:10 GMT-0400 (Eastern Daylight Time),836075.6999999993,A,pipe,I,e,308,3,1833.5,834242.1999999993,9045,WL,B,13.0
7,47.98300004005432,immed,12016.999959945679,Tue Jun 30 2026 11:35:10 GMT-0400 (Eastern Daylight Time),836441.9000000004,A,pipeenter,I,enter,341,3,2199.7000000011176,834242.1999999993,9045,WL,B,13.0
7,52.382999897003174,immed,7617.000102996826,Tue Jun 30 2026 11:35:10 GMT-0400 (Eastern Daylight Time),840842.1999999993,A,d,I,d,4379,3,4400.0,836442.1999999993,9045,WL,B,14.0
7,52.64999985694885,immed,7350.0001430511475,Tue Jun 30 2026 11:35:10 GMT-0400 (Eastern Daylight Time),841109.0,A,do,I,o,248,3,4666.800000000745,836442.1999999993,9045,WL,B,14.0
7,52.865999937057495,immed,7134.000062942505,Tue Jun 30 2026 11:35:10 GMT-0400 (Eastern Daylight Time),841325.5,A,doo,I,o,203,3,4883.300000000745,836442.1999999993,9045,WL,B,14.0
7,53.18299984931946,immed,6817.000150680542,Tue Jun 30 2026 11:35:10 GMT-0400 (Eastern Daylight Time),841642.3000000007,A,door,I,r,282,3,5200.10000000149,836442.1999999993,9045,WL,B,14.0
7,53.431999921798706,immed,6568.000078201294,Tue Jun 30 2026 11:35:10 GMT-0400 (Eastern Daylight Time),841891.8000000007,A,doorenter,I,enter,230,3,5449.60000000149,836442.1999999993,9045,WL,B,14.0
7,60.01600003242493,immed,-16.000032424926758,Tue Jun 30 2026 11:35:10 GMT-0400 (Eastern Daylight Time),848475.8000000007,A,None,I,None,6577,3,6583.700000001118,841892.0999999996,9045,WL,B,15.0
