block_c,block_dur,condition,countdown,datetime,endtime,list,multichar_response,project,response,response_time,session_number,start_end,starttime,subject_id,task,task_vers,trial
,,,,Tue Dec 09 2025 10:32:37 GMT-0500 (Eastern Standard Time),,,,I,space,3620,1,,,9045,WL,A,
prac,,0,,Tue Dec 09 2025 10:32:37 GMT-0500 (Eastern Standard Time),,NA,b,I,b,5235,1,,,9045,WL,A,1.0
prac,,0,,Tue Dec 09 2025 10:32:37 GMT-0500 (Eastern Standard Time),,NA,bo,I,o,322,1,,,9045,WL,A,1.0
prac,,0,,Tue Dec 09 2025 10:32:37 GMT-0500 (Eastern Standard Time),,NA,boo,I,o,149,1,,,9045,WL,A,1.0
prac,,0,,Tue Dec 09 2025 10:32:37 GMT-0500 (Eastern Standard Time),,NA,boos,I,s,224,1,,,9045,WL,A,1.0
prac,,0,,Tue Dec 09 2025 10:32:37 GMT-0500 (Eastern Standard Time),,NA,boost,I,t,248,1,,,9045,WL,A,1.0
prac,,0,,Tue Dec 09 2025 10:32:37 GMT-0500 (Eastern Standard Time),,NA,boostenter,I,enter,1195,1,,,9045,WL,A,1.0
1,4.9670000076293945,learn,55032.999992370605,Tue Dec 09 2025 10:32:37 GMT-0500 (Eastern Standard Time),164243.10000038147,A,b,I,b,4950,1,4966.0,159277.10000038147,9045,WL,A,1.0
1,5.900000095367432,learn,54099.99990463257,Tue Dec 09 2025 10:32:37 GMT-0500 (Eastern Standard Time),165176.2000002861,A,bo,I,o,909,1,5899.099999904633,159277.10000038147,9045,WL,A,1.0
1,6.099999904632568,learn,53900.00009536743,Tue Dec 09 2025 10:32:37 GMT-0500 (Eastern Standard Time),165376.2000002861,A,boo,I,o,185,1,6099.099999904633,159277.10000038147,9045,WL,A,1.0
1,6.316999912261963,learn,53683.00008773804,Tue Dec 09 2025 10:32:37 GMT-0500 (Eastern Standard Time),165592.90000009537,A,book,I,k,183,1,6315.799999713898,159277.10000038147,9045,WL,A,1.0
1,7.882999897003174,learn,52117.000102996826,Tue Dec 09 2025 10:32:37 GMT-0500 (Eastern Standard Time),167159.0,A,bookenter,I,enter,1544,1,7881.89999961853,159277.10000038147,9045,WL,A,1.0
1,11.450000047683716,learn,48549.999952316284,Tue Dec 09 2025 10:32:37 GMT-0500 (Eastern Standard Time),170726.2000002861,A,r,I,r,3550,1,3566.5999999046326,167159.60000038147,9045,WL,A,2.0
1,11.617000102996826,learn,48382.999897003174,Tue Dec 09 2025 10:32:37 GMT-0500 (Eastern Standard Time),170892.80000019073,A,ru,I,u,140,1,3733.199999809265,167159.60000038147,9045,WL,A,2.0
1,13.25,learn,46750.0,Tue Dec 09 2025 10:32:37 GMT-0500 (Eastern Standard Time),172525.80000019073,A,rug,I,g,1612,1,5366.199999809265,167159.60000038147,9045,WL,A,2.0
1,13.683000087738037,learn,46316.99991226196,Tue Dec 09 2025 10:32:37 GMT-0500 (Eastern Standard Time),172959.0,A,rugenter,I,enter,420,1,5799.39999961853,167159.60000038147,9045,WL,A,2.0
1,17.33299994468689,learn,42667.00005531311,Tue Dec 09 2025 10:32:37 GMT-0500 (Eastern Standard Time),176609.40000009537,A,f,I,f,3639,1,3650.0,172959.40000009537,9045,WL,A,3.0
1,17.65000009536743,learn,42349.99990463257,Tue Dec 09 2025 10:32:37 GMT-0500 (Eastern Standard Time),176926.0,A,fl,I,l,303,1,3966.5999999046326,172959.40000009537,9045,WL,A,3.0
1,17.90000009536743,learn,42099.99990463257,Tue Dec 09 2025 10:32:37 GMT-0500 (Eastern Standard Time),177176.30000019073,A,flo,I,o,227,1,4216.900000095367,172959.40000009537,9045,WL,A,3.0
1,18.41700005531311,learn,41582.99994468689,Tue Dec 09 2025 10:32:37 GMT-0500 (Eastern Standard Time),177692.80000019073,A,flow,I,w,489,1,4733.400000095367,172959.40000009537,9045,WL,A,3.0
1,18.632999897003174,learn,41367.000102996826,Tue Dec 09 2025 10:32:37 GMT-0500 (Eastern Standard Time),177909.40000009537,A,flowe,I,e,199,1,4950.0,172959.40000009537,9045,WL,A,3.0
1,18.865999937057495,learn,41134.000062942505,Tue Dec 09 2025 10:32:37 GMT-0500 (Eastern Standard Time),178142.40000009537,A,flower,I,r,221,1,5183.0,172959.40000009537,9045,WL,A,3.0
1,19.40000009536743,learn,40599.99990463257,Tue Dec 09 2025 10:32:37 GMT-0500 (Eastern Standard Time),178675.7000002861,A,flowerenter,I,enter,514,1,5716.300000190735,172959.40000009537,9045,WL,A,3.0
1,35.967000007629395,learn,24032.999992370605,Tue Dec 09 2025 10:32:37 GMT-0500 (Eastern Standard Time),195242.7000002861,A,f,I,f,16546,1,16566.700000286102,178676.0,9045,WL,A,4.0
1,36.28399991989136,learn,23716.000080108643,Tue Dec 09 2025 10:32:37 GMT-0500 (Eastern Standard Time),195559.60000038147,A,fi,I,i,293,1,16883.60000038147,178676.0,9045,WL,A,4.0
1,37.634000062942505,learn,22365.999937057495,Tue Dec 09 2025 10:32:37 GMT-0500 (Eastern Standard Time),196909.80000019073,A,fin,I,n,1340,1,18233.800000190735,178676.0,9045,WL,A,4.0
1,38.26699995994568,learn,21733.00004005432,Tue Dec 09 2025 10:32:37 GMT-0500 (Eastern Standard Time),197542.90000009537,A,fing,I,g,613,1,18866.900000095367,178676.0,9045,WL,A,4.0
1,38.5,learn,21500.0,Tue Dec 09 2025 10:32:37 GMT-0500 (Eastern Standard Time),197776.0,A,finge,I,e,220,1,19100.0,178676.0,9045,WL,A,4.0
1,38.632999897003174,learn,21367.000102996826,Tue Dec 09 2025 10:32:37 GMT-0500 (Eastern Standard Time),197909.30000019073,A,fingee,I,e,115,1,19233.300000190735,178676.0,9045,WL,A,4.0
1,41.032999992370605,learn,18967.000007629395,Tue Dec 09 2025 10:32:37 GMT-0500 (Eastern Standard Time),200309.30000019073,A,finge,I,backspace,2380,1,21633.300000190735,178676.0,9045,WL,A,4.0
1,41.48300004005432,learn,18516.99995994568,Tue Dec 09 2025 10:32:37 GMT-0500 (Eastern Standard Time),200759.40000009537,A,finger,I,r,430,1,22083.400000095367,178676.0,9045,WL,A,4.0
1,42.34999990463257,learn,17650.00009536743,Tue Dec 09 2025 10:32:37 GMT-0500 (Eastern Standard Time),201625.60000038147,A,fingerenter,I,enter,842,1,22949.60000038147,178676.0,9045,WL,A,4.0
1,48.01600003242493,learn,11983.999967575073,Tue Dec 09 2025 10:32:37 GMT-0500 (Eastern Standard Time),207292.30000019073,A,j,I,j,5643,1,5666.300000190735,201626.0,9045,WL,A,5.0
1,49.049999952316284,learn,10950.000047683716,Tue Dec 09 2025 10:32:37 GMT-0500 (Eastern Standard Time),208326.10000038147,A,ju,I,u,1018,1,6700.10000038147,201626.0,9045,WL,A,5.0
1,49.26600003242493,learn,10733.999967575073,Tue Dec 09 2025 10:32:37 GMT-0500 (Eastern Standard Time),208542.5,A,jug,I,g,205,1,6916.5,201626.0,9045,WL,A,5.0
1,50.65000009536743,learn,9349.999904632568,Tue Dec 09 2025 10:32:37 GMT-0500 (Eastern Standard Time),209925.7000002861,A,jugenter,I,enter,1363,1,8299.700000286102,201626.0,9045,WL,A,5.0
1,56.23300004005432,learn,3766.9999599456787,Tue Dec 09 2025 10:32:37 GMT-0500 (Eastern Standard Time),215509.40000009537,A,b,I,b,5568,1,5583.299999713898,209926.10000038147,9045,WL,A,6.0
1,56.48300004005432,learn,3516.9999599456787,Tue Dec 09 2025 10:32:37 GMT-0500 (Eastern Standard Time),215759.30000019073,A,bu,I,u,236,1,5833.199999809265,209926.10000038147,9045,WL,A,6.0
1,56.882999897003174,learn,3117.000102996826,Tue Dec 09 2025 10:32:37 GMT-0500 (Eastern Standard Time),216159.30000019073,A,but,I,t,388,1,6233.199999809265,209926.10000038147,9045,WL,A,6.0
1,57.132999897003174,learn,2867.000102996826,Tue Dec 09 2025 10:32:37 GMT-0500 (Eastern Standard Time),216409.40000009537,A,butt,I,t,227,1,6483.299999713898,209926.10000038147,9045,WL,A,6.0
1,57.717000007629395,learn,2282.9999923706055,Tue Dec 09 2025 10:32:37 GMT-0500 (Eastern Standard Time),216992.80000019073,A,butto,I,o,569,1,7066.699999809265,209926.10000038147,9045,WL,A,6.0
1,58.91700005531311,learn,1082.9999446868896,Tue Dec 09 2025 10:32:37 GMT-0500 (Eastern Standard Time),218192.7000002861,A,button,I,n,1183,1,8266.599999904633,209926.10000038147,9045,WL,A,6.0
1,59.532999992370605,learn,467.00000762939453,Tue Dec 09 2025 10:32:37 GMT-0500 (Eastern Standard Time),218808.90000009537,A,buttonenter,I,enter,593,1,8882.799999713898,209926.10000038147,9045,WL,A,6.0
1,60.01699995994568,learn,-16.99995994567871,Tue Dec 09 2025 10:32:37 GMT-0500 (Eastern Standard Time),219292.80000019073,A,None,I,None,476,1,483.40000009536743,218809.40000009537,9045,WL,A,7.0
2,2.683000087738037,learn,57316.99991226196,Tue Dec 09 2025 10:32:37 GMT-0500 (Eastern Standard Time),303209.30000019073,A,b,I,b,2662,1,2683.0,300526.30000019073,9045,WL,A,1.0
2,2.9830000400543213,learn,57016.99995994568,Tue Dec 09 2025 10:32:37 GMT-0500 (Eastern Standard Time),303509.30000019073,A,bo,I,o,282,1,2983.0,300526.30000019073,9045,WL,A,1.0
2,3.199000120162964,learn,56800.999879837036,Tue Dec 09 2025 10:32:37 GMT-0500 (Eastern Standard Time),303725.40000009537,A,boo,I,o,204,1,3199.0999999046326,300526.30000019073,9045,WL,A,1.0
2,3.566999912261963,learn,56433.00008773804,Tue Dec 09 2025 10:32:37 GMT-0500 (Eastern Standard Time),304092.60000038147,A,book,I,k,345,1,3566.300000190735,300526.30000019073,9045,WL,A,1.0
2,6.615999937057495,learn,53384.000062942505,Tue Dec 09 2025 10:32:37 GMT-0500 (Eastern Standard Time),307142.10000038147,A,bookenter,I,enter,3030,1,6615.800000190735,300526.30000019073,9045,WL,A,1.0
2,7.58299994468689,learn,52417.00005531311,Tue Dec 09 2025 10:32:37 GMT-0500 (Eastern Standard Time),308109.2000002861,A,f,I,f,944,1,966.7000002861023,307142.5,9045,WL,A,2.0
2,7.733000040054321,learn,52266.99995994568,Tue Dec 09 2025 10:32:37 GMT-0500 (Eastern Standard Time),308259.30000019073,A,fl,I,l,135,1,1116.8000001907349,307142.5,9045,WL,A,2.0
2,8.049999952316284,learn,51950.000047683716,Tue Dec 09 2025 10:32:37 GMT-0500 (Eastern Standard Time),308575.90000009537,A,flo,I,o,293,1,1433.4000000953674,307142.5,9045,WL,A,2.0
2,8.566999912261963,learn,51433.00008773804,Tue Dec 09 2025 10:32:37 GMT-0500 (Eastern Standard Time),309092.60000038147,A,flow,I,w,499,1,1950.1000003814697,307142.5,9045,WL,A,2.0
2,8.733000040054321,learn,51266.99995994568,Tue Dec 09 2025 10:32:37 GMT-0500 (Eastern Standard Time),309259.2000002861,A,flowe,I,e,142,1,2116.7000002861023,307142.5,9045,WL,A,2.0
2,9.066999912261963,learn,50933.00008773804,Tue Dec 09 2025 10:32:37 GMT-0500 (Eastern Standard Time),309592.5,A,flower,I,r,313,1,2450.0,307142.5,9045,WL,A,2.0
2,9.549999952316284,learn,50450.000047683716,Tue Dec 09 2025 10:32:37 GMT-0500 (Eastern Standard Time),310075.40000009537,A,flowerenter,I,enter,457,1,2932.9000000953674,307142.5,9045,WL,A,2.0
2,11.83299994468689,learn,48167.00005531311,Tue Dec 09 2025 10:32:37 GMT-0500 (Eastern Standard Time),312359.2000002861,A,t,I,t,2267,1,2283.300000190735,310075.90000009537,9045,WL,A,3.0
2,11.983000040054321,learn,48016.99995994568,Tue Dec 09 2025 10:32:37 GMT-0500 (Eastern Standard Time),312509.40000009537,A,tr,I,r,125,1,2433.5,310075.90000009537,9045,WL,A,3.0
2,12.700000047683716,learn,47299.999952316284,Tue Dec 09 2025 10:32:37 GMT-0500 (Eastern Standard Time),313225.90000009537,A,tra,I,a,685,1,3150.0,310075.90000009537,9045,WL,A,3.0
2,12.882999897003174,learn,47117.000102996826,Tue Dec 09 2025 10:32:37 GMT-0500 (Eastern Standard Time),313409.2000002861,A,trai,I,i,169,1,3333.300000190735,310075.90000009537,9045,WL,A,3.0
2,13.16700005531311,learn,46832.99994468689,Tue Dec 09 2025 10:32:37 GMT-0500 (Eastern Standard Time),313692.5,A,train,I,n,257,1,3616.5999999046326,310075.90000009537,9045,WL,A,3.0
2,14.016000032424927,learn,45983.99996757507,Tue Dec 09 2025 10:32:37 GMT-0500 (Eastern Standard Time),314542.0,A,trainenter,I,enter,838,1,4466.099999904633,310075.90000009537,9045,WL,A,3.0
2,19.316999912261963,learn,40683.00008773804,Tue Dec 09 2025 10:32:37 GMT-0500 (Eastern Standard Time),319842.60000038147,A,l,I,l,5288,1,5300.200000286102,314542.40000009537,9045,WL,A,4.0
2,19.632999897003174,learn,40367.000102996826,Tue Dec 09 2025 10:32:37 GMT-0500 (Eastern Standard Time),320159.2000002861,A,lo,I,o,305,1,5616.800000190735,314542.40000009537,9045,WL,A,4.0
2,20.282999992370605,learn,39717.000007629395,Tue Dec 09 2025 10:32:37 GMT-0500 (Eastern Standard Time),320809.30000019073,A,log,I,g,629,1,6266.900000095367,314542.40000009537,9045,WL,A,4.0
2,20.56599998474121,learn,39434.00001525879,Tue Dec 09 2025 10:32:37 GMT-0500 (Eastern Standard Time),321092.10000038147,A,logenter,I,enter,264,1,6549.700000286102,314542.40000009537,9045,WL,A,4.0
2,24.16700005531311,learn,35832.99994468689,Tue Dec 09 2025 10:32:37 GMT-0500 (Eastern Standard Time),324692.60000038147,A,b,I,b,3586,1,3600.2000002861023,321092.40000009537,9045,WL,A,5.0
2,24.41600012779236,learn,35583.99987220764,Tue Dec 09 2025 10:32:37 GMT-0500 (Eastern Standard Time),324942.30000019073,A,bu,I,u,237,1,3849.9000000953674,321092.40000009537,9045,WL,A,5.0
2,24.782999992370605,learn,35217.000007629395,Tue Dec 09 2025 10:32:37 GMT-0500 (Eastern Standard Time),325309.40000009537,A,but,I,t,357,1,4217.0,321092.40000009537,9045,WL,A,5.0
2,25.066999912261963,learn,34933.00008773804,Tue Dec 09 2025 10:32:37 GMT-0500 (Eastern Standard Time),325592.60000038147,A,butt,I,t,263,1,4500.200000286102,321092.40000009537,9045,WL,A,5.0
2,25.59999990463257,learn,34400.00009536743,Tue Dec 09 2025 10:32:37 GMT-0500 (Eastern Standard Time),326125.80000019073,A,butto,I,o,523,1,5033.400000095367,321092.40000009537,9045,WL,A,5.0
2,26.117000102996826,learn,33882.999897003174,Tue Dec 09 2025 10:32:37 GMT-0500 (Eastern Standard Time),326642.60000038147,A,button,I,n,501,1,5550.200000286102,321092.40000009537,9045,WL,A,5.0
2,26.699000120162964,learn,33300.999879837036,Tue Dec 09 2025 10:32:37 GMT-0500 (Eastern Standard Time),327225.2000002861,A,buttonenter,I,enter,559,1,6132.800000190735,321092.40000009537,9045,WL,A,5.0
2,33.132999897003174,learn,26867.000102996826,Tue Dec 09 2025 10:32:37 GMT-0500 (Eastern Standard Time),333659.30000019073,A,m,I,m,6414,1,6433.800000190735,327225.5,9045,WL,A,6.0
2,33.51699995994568,learn,26483.00004005432,Tue Dec 09 2025 10:32:37 GMT-0500 (Eastern Standard Time),334042.60000038147,A,me,I,e,360,1,6817.10000038147,327225.5,9045,WL,A,6.0
2,33.93300008773804,learn,26066.999912261963,Tue Dec 09 2025 10:32:37 GMT-0500 (Eastern Standard Time),334459.30000019073,A,med,I,d,393,1,7233.800000190735,327225.5,9045,WL,A,6.0
2,34.132999897003174,learn,25867.000102996826,Tue Dec 09 2025 10:32:37 GMT-0500 (Eastern Standard Time),334659.2000002861,A,medd,I,d,184,1,7433.700000286102,327225.5,9045,WL,A,6.0
2,34.5,learn,25500.0,Tue Dec 09 2025 10:32:37 GMT-0500 (Eastern Standard Time),335026.10000038147,A,meddo,I,o,352,1,7800.60000038147,327225.5,9045,WL,A,6.0
2,34.91700005531311,learn,25082.99994468689,Tue Dec 09 2025 10:32:37 GMT-0500 (Eastern Standard Time),335442.5,A,meddow,I,w,402,1,8217.0,327225.5,9045,WL,A,6.0
2,35.43300008773804,learn,24566.999912261963,Tue Dec 09 2025 10:32:37 GMT-0500 (Eastern Standard Time),335958.80000019073,A,meddowenter,I,enter,496,1,8733.300000190735,327225.5,9045,WL,A,6.0
2,43.867000102996826,learn,16132.999897003174,Tue Dec 09 2025 10:32:37 GMT-0500 (Eastern Standard Time),344392.60000038147,A,f,I,f,8416,1,8433.5,335959.10000038147,9045,WL,A,7.0
2,44.132999897003174,learn,15867.000102996826,Tue Dec 09 2025 10:32:37 GMT-0500 (Eastern Standard Time),344659.2000002861,A,fi,I,i,249,1,8700.099999904633,335959.10000038147,9045,WL,A,7.0
2,44.867000102996826,learn,15132.999897003174,Tue Dec 09 2025 10:32:37 GMT-0500 (Eastern Standard Time),345392.5,A,fin,I,n,719,1,9433.39999961853,335959.10000038147,9045,WL,A,7.0
2,45.450000047683716,learn,14549.999952316284,Tue Dec 09 2025 10:32:37 GMT-0500 (Eastern Standard Time),345975.80000019073,A,fing,I,g,563,1,10016.699999809265,335959.10000038147,9045,WL,A,7.0
2,45.717000007629395,learn,14282.999992370605,Tue Dec 09 2025 10:32:37 GMT-0500 (Eastern Standard Time),346242.7000002861,A,finge,I,e,250,1,10283.599999904633,335959.10000038147,9045,WL,A,7.0
2,45.90000009536743,learn,14099.999904632568,Tue Dec 09 2025 10:32:37 GMT-0500 (Eastern Standard Time),346425.90000009537,A,finger,I,r,161,1,10466.799999713898,335959.10000038147,9045,WL,A,7.0
2,46.16600012779236,learn,13833.999872207642,Tue Dec 09 2025 10:32:37 GMT-0500 (Eastern Standard Time),346691.90000009537,A,fingerenter,I,enter,248,1,10732.799999713898,335959.10000038147,9045,WL,A,7.0
2,47.59999990463257,learn,12400.000095367432,Tue Dec 09 2025 10:32:37 GMT-0500 (Eastern Standard Time),348125.60000038147,A,g,I,g,1426,1,1433.3000001907349,346692.30000019073,9045,WL,A,8.0
2,47.867000102996826,learn,12132.999897003174,Tue Dec 09 2025 10:32:37 GMT-0500 (Eastern Standard Time),348392.60000038147,A,go,I,o,247,1,1700.3000001907349,346692.30000019073,9045,WL,A,8.0
2,48.132999897003174,learn,11867.000102996826,Tue Dec 09 2025 10:32:37 GMT-0500 (Eastern Standard Time),348659.2000002861,A,gol,I,l,250,1,1966.9000000953674,346692.30000019073,9045,WL,A,8.0
2,48.632999897003174,learn,11367.000102996826,Tue Dec 09 2025 10:32:37 GMT-0500 (Eastern Standard Time),349159.2000002861,A,gold,I,d,480,1,2466.9000000953674,346692.30000019073,9045,WL,A,8.0
2,48.91600012779236,learn,11083.999872207642,Tue Dec 09 2025 10:32:37 GMT-0500 (Eastern Standard Time),349442.10000038147,A,goldenter,I,enter,267,1,2749.800000190735,346692.30000019073,9045,WL,A,8.0
2,51.799999952316284,learn,8200.000047683716,Tue Dec 09 2025 10:32:37 GMT-0500 (Eastern Standard Time),352325.80000019073,A,c,I,c,2869,1,2883.4000000953674,349442.40000009537,9045,WL,A,9.0
2,51.967000007629395,learn,8032.9999923706055,Tue Dec 09 2025 10:32:37 GMT-0500 (Eastern Standard Time),352492.60000038147,A,ch,I,h,142,1,3050.2000002861023,349442.40000009537,9045,WL,A,9.0
2,52.23300004005432,learn,7766.999959945679,Tue Dec 09 2025 10:32:37 GMT-0500 (Eastern Standard Time),352759.2000002861,A,chi,I,i,246,1,3316.800000190735,349442.40000009537,9045,WL,A,9.0
2,53.21600008010864,learn,6783.999919891357,Tue Dec 09 2025 10:32:37 GMT-0500 (Eastern Standard Time),353742.2000002861,A,chim,I,m,972,1,4299.800000190735,349442.40000009537,9045,WL,A,9.0
2,53.5,learn,6500.0,Tue Dec 09 2025 10:32:37 GMT-0500 (Eastern Standard Time),354026.0,A,chimn,I,n,261,1,4583.599999904633,349442.40000009537,9045,WL,A,9.0
2,54.16700005531311,learn,5832.99994468689,Tue Dec 09 2025 10:32:37 GMT-0500 (Eastern Standard Time),354692.5,A,chimne,I,e,649,1,5250.099999904633,349442.40000009537,9045,WL,A,9.0
2,54.532999992370605,learn,5467.0000076293945,Tue Dec 09 2025 10:32:37 GMT-0500 (Eastern Standard Time),355059.2000002861,A,chimney,I,y,350,1,5616.800000190735,349442.40000009537,9045,WL,A,9.0
2,55.09999990463257,learn,4900.000095367432,Tue Dec 09 2025 10:32:37 GMT-0500 (Eastern Standard Time),355625.5,A,chimneyenter,I,enter,543,1,6183.099999904633,349442.40000009537,9045,WL,A,9.0
2,60.01699995994568,learn,-16.99995994567871,Tue Dec 09 2025 10:32:37 GMT-0500 (Eastern Standard Time),360542.7000002861,A,None,I,None,4910,1,4916.900000095367,355625.80000019073,9045,WL,A,10.0
3,1.3329999446868896,learn,58667.00005531311,Tue Dec 09 2025 10:32:37 GMT-0500 (Eastern Standard Time),433359.30000019073,A,l,I,l,1323,1,1333.0999999046326,432026.2000002861,9045,WL,A,1.0
3,1.5499999523162842,learn,58450.000047683716,Tue Dec 09 2025 10:32:37 GMT-0500 (Eastern Standard Time),433575.80000019073,A,lo,I,o,196,1,1549.5999999046326,432026.2000002861,9045,WL,A,1.0
3,2.049999952316284,learn,57950.000047683716,Tue Dec 09 2025 10:32:37 GMT-0500 (Eastern Standard Time),434075.80000019073,A,log,I,g,467,1,2049.5999999046326,432026.2000002861,9045,WL,A,1.0
3,2.3489999771118164,learn,57651.00002288818,Tue Dec 09 2025 10:32:37 GMT-0500 (Eastern Standard Time),434375.30000019073,A,logenter,I,enter,278,1,2349.0999999046326,432026.2000002861,9045,WL,A,1.0
3,3.065999984741211,learn,56934.00001525879,Tue Dec 09 2025 10:32:37 GMT-0500 (Eastern Standard Time),435092.5,A,g,I,g,704,1,716.7999997138977,434375.7000002861,9045,WL,A,2.0
3,3.5999999046325684,learn,56400.00009536743,Tue Dec 09 2025 10:32:37 GMT-0500 (Eastern Standard Time),435625.7000002861,A,go,I,o,511,1,1250.0,434375.7000002861,9045,WL,A,2.0
3,3.8499999046325684,learn,56150.00009536743,Tue Dec 09 2025 10:32:37 GMT-0500 (Eastern Standard Time),435875.7000002861,A,gol,I,l,234,1,1500.0,434375.7000002861,9045,WL,A,2.0
3,5.132999897003174,learn,54867.000102996826,Tue Dec 09 2025 10:32:37 GMT-0500 (Eastern Standard Time),437159.2000002861,A,gold,I,d,1263,1,2783.5,434375.7000002861,9045,WL,A,2.0
3,5.483000040054321,learn,54516.99995994568,Tue Dec 09 2025 10:32:37 GMT-0500 (Eastern Standard Time),437508.60000038147,A,goldenter,I,enter,331,1,3132.9000000953674,434375.7000002861,9045,WL,A,2.0
3,9.416000127792358,learn,50583.99987220764,Tue Dec 09 2025 10:32:37 GMT-0500 (Eastern Standard Time),441442.40000009537,A,f,I,f,3922,1,3933.4000000953674,437509.0,9045,WL,A,3.0
3,9.700000047683716,learn,50299.999952316284,Tue Dec 09 2025 10:32:37 GMT-0500 (Eastern Standard Time),441725.7000002861,A,fl,I,l,272,1,4216.700000286102,437509.0,9045,WL,A,3.0
3,9.950000047683716,learn,50049.999952316284,Tue Dec 09 2025 10:32:37 GMT-0500 (Eastern Standard Time),441975.80000019073,A,flo,I,o,231,1,4466.800000190735,437509.0,9045,WL,A,3.0
3,10.299999952316284,learn,49700.000047683716,Tue Dec 09 2025 10:32:37 GMT-0500 (Eastern Standard Time),442325.90000009537,A,flow,I,w,331,1,4816.900000095367,437509.0,9045,WL,A,3.0
3,10.516000032424927,learn,49483.99996757507,Tue Dec 09 2025 10:32:37 GMT-0500 (Eastern Standard Time),442542.2000002861,A,flowe,I,e,205,1,5033.200000286102,437509.0,9045,WL,A,3.0
3,10.766000032424927,learn,49233.99996757507,Tue Dec 09 2025 10:32:37 GMT-0500 (Eastern Standard Time),442792.40000009537,A,flower,I,r,229,1,5283.400000095367,437509.0,9045,WL,A,3.0
3,11.032999992370605,learn,48967.000007629395,Tue Dec 09 2025 10:32:37 GMT-0500 (Eastern Standard Time),443058.60000038147,A,flowerenter,I,enter,242,1,5549.60000038147,437509.0,9045,WL,A,3.0
3,12.115999937057495,learn,47884.000062942505,Tue Dec 09 2025 10:32:37 GMT-0500 (Eastern Standard Time),444142.2000002861,A,t,I,t,1076,1,1083.2000002861023,443059.0,9045,WL,A,4.0
3,12.316999912261963,learn,47683.00008773804,Tue Dec 09 2025 10:32:37 GMT-0500 (Eastern Standard Time),444342.60000038147,A,tr,I,r,179,1,1283.6000003814697,443059.0,9045,WL,A,4.0
3,12.799999952316284,learn,47200.000047683716,Tue Dec 09 2025 10:32:37 GMT-0500 (Eastern Standard Time),444825.80000019073,A,tra,I,a,460,1,1766.8000001907349,443059.0,9045,WL,A,4.0
3,13.099999904632568,learn,46900.00009536743,Tue Dec 09 2025 10:32:37 GMT-0500 (Eastern Standard Time),445125.80000019073,A,trai,I,i,281,1,2066.800000190735,443059.0,9045,WL,A,4.0
3,13.716000080108643,learn,46283.99991989136,Tue Dec 09 2025 10:32:37 GMT-0500 (Eastern Standard Time),445742.10000038147,A,train,I,n,605,1,2683.1000003814697,443059.0,9045,WL,A,4.0
3,14.233000040054321,learn,45766.99995994568,Tue Dec 09 2025 10:32:37 GMT-0500 (Eastern Standard Time),446258.60000038147,A,trainenter,I,enter,499,1,3199.6000003814697,443059.0,9045,WL,A,4.0
3,16.950000047683716,learn,43049.999952316284,Tue Dec 09 2025 10:32:37 GMT-0500 (Eastern Standard Time),448975.60000038147,A,b,I,b,2708,1,2716.7000002861023,446258.90000009537,9045,WL,A,5.0
3,17.382999897003174,learn,42617.000102996826,Tue Dec 09 2025 10:32:37 GMT-0500 (Eastern Standard Time),449409.0,A,bo,I,o,417,1,3150.0999999046326,446258.90000009537,9045,WL,A,5.0
3,17.632999897003174,learn,42367.000102996826,Tue Dec 09 2025 10:32:37 GMT-0500 (Eastern Standard Time),449659.2000002861,A,boo,I,o,226,1,3400.300000190735,446258.90000009537,9045,WL,A,5.0
3,17.865999937057495,learn,42134.000062942505,Tue Dec 09 2025 10:32:37 GMT-0500 (Eastern Standard Time),449892.5,A,book,I,k,217,1,3633.5999999046326,446258.90000009537,9045,WL,A,5.0
3,18.23300004005432,learn,41766.99995994568,Tue Dec 09 2025 10:32:37 GMT-0500 (Eastern Standard Time),450258.5,A,bookenter,I,enter,350,1,3999.5999999046326,446258.90000009537,9045,WL,A,5.0
3,19.115999937057495,learn,40884.000062942505,Tue Dec 09 2025 10:32:37 GMT-0500 (Eastern Standard Time),451142.40000009537,A,m,I,m,868,1,883.5,450258.90000009537,9045,WL,A,6.0
3,19.382999897003174,learn,40617.000102996826,Tue Dec 09 2025 10:32:37 GMT-0500 (Eastern Standard Time),451409.10000038147,A,me,I,e,252,1,1150.2000002861023,450258.90000009537,9045,WL,A,6.0
3,20.382999897003174,learn,39617.000102996826,Tue Dec 09 2025 10:32:37 GMT-0500 (Eastern Standard Time),452409.10000038147,A,med,I,d,978,1,2150.2000002861023,450258.90000009537,9045,WL,A,6.0
3,20.615999937057495,learn,39384.000062942505,Tue Dec 09 2025 10:32:37 GMT-0500 (Eastern Standard Time),452642.40000009537,A,medd,I,d,218,1,2383.5,450258.90000009537,9045,WL,A,6.0
3,21.466000080108643,learn,38533.99991989136,Tue Dec 09 2025 10:32:37 GMT-0500 (Eastern Standard Time),453492.40000009537,A,meddo,I,o,832,1,3233.5,450258.90000009537,9045,WL,A,6.0
3,21.73300004005432,learn,38266.99995994568,Tue Dec 09 2025 10:32:37 GMT-0500 (Eastern Standard Time),453759.10000038147,A,meddow,I,w,254,1,3500.2000002861023,450258.90000009537,9045,WL,A,6.0
3,22.032999992370605,learn,37967.000007629395,Tue Dec 09 2025 10:32:37 GMT-0500 (Eastern Standard Time),454058.60000038147,A,meddowenter,I,enter,275,1,3799.7000002861023,450258.90000009537,9045,WL,A,6.0
3,22.766000032424927,learn,37233.99996757507,Tue Dec 09 2025 10:32:37 GMT-0500 (Eastern Standard Time),454792.40000009537,A,c,I,c,716,1,733.5,454058.90000009537,9045,WL,A,7.0
3,23.09999990463257,learn,36900.00009536743,Tue Dec 09 2025 10:32:37 GMT-0500 (Eastern Standard Time),455125.7000002861,A,ca,I,a,313,1,1066.8000001907349,454058.90000009537,9045,WL,A,7.0
3,23.41600012779236,learn,36583.99987220764,Tue Dec 09 2025 10:32:37 GMT-0500 (Eastern Standard Time),455442.5,A,car,I,r,300,1,1383.5999999046326,454058.90000009537,9045,WL,A,7.0
3,23.799999952316284,learn,36200.000047683716,Tue Dec 09 2025 10:32:37 GMT-0500 (Eastern Standard Time),455825.7000002861,A,carp,I,p,366,1,1766.8000001907349,454058.90000009537,9045,WL,A,7.0
3,24.15000009536743,learn,35849.99990463257,Tue Dec 09 2025 10:32:37 GMT-0500 (Eastern Standard Time),456175.7000002861,A,carpe,I,e,337,1,2116.800000190735,454058.90000009537,9045,WL,A,7.0
3,24.365999937057495,learn,35634.000062942505,Tue Dec 09 2025 10:32:37 GMT-0500 (Eastern Standard Time),456392.5,A,carpet,I,t,195,1,2333.5999999046326,454058.90000009537,9045,WL,A,7.0
3,25.382999897003174,learn,34617.000102996826,Tue Dec 09 2025 10:32:37 GMT-0500 (Eastern Standard Time),457408.7000002861,A,carpetenter,I,enter,1002,1,3349.800000190735,454058.90000009537,9045,WL,A,7.0
3,31.282999992370605,learn,28717.000007629395,Tue Dec 09 2025 10:32:37 GMT-0500 (Eastern Standard Time),463309.0,A,r,I,r,5878,1,5900.0,457409.0,9045,WL,A,8.0
3,31.41600012779236,learn,28583.99987220764,Tue Dec 09 2025 10:32:37 GMT-0500 (Eastern Standard Time),463442.40000009537,A,ru,I,u,118,1,6033.400000095367,457409.0,9045,WL,A,8.0
3,32.66600012779236,learn,27333.99987220764,Tue Dec 09 2025 10:32:37 GMT-0500 (Eastern Standard Time),464692.5,A,rug,I,g,1233,1,7283.5,457409.0,9045,WL,A,8.0
3,32.865999937057495,learn,27134.000062942505,Tue Dec 09 2025 10:32:37 GMT-0500 (Eastern Standard Time),464892.0,A,rugenter,I,enter,173,1,7483.0,457409.0,9045,WL,A,8.0
3,41.91600012779236,learn,18083.99987220764,Tue Dec 09 2025 10:32:37 GMT-0500 (Eastern Standard Time),473942.5,A,t,I,t,9035,1,9050.199999809265,464892.30000019073,9045,WL,A,9.0
3,42.06599998474121,learn,17934.00001525879,Tue Dec 09 2025 10:32:37 GMT-0500 (Eastern Standard Time),474092.40000009537,A,tr,I,r,123,1,9200.099999904633,464892.30000019073,9045,WL,A,9.0
3,42.76600003242493,learn,17233.999967575073,Tue Dec 09 2025 10:32:37 GMT-0500 (Eastern Standard Time),474792.5,A,tra,I,a,680,1,9900.199999809265,464892.30000019073,9045,WL,A,9.0
3,43.0,learn,17000.0,Tue Dec 09 2025 10:32:37 GMT-0500 (Eastern Standard Time),475025.7000002861,A,trai,I,i,219,1,10133.400000095367,464892.30000019073,9045,WL,A,9.0
3,43.799999952316284,learn,16200.000047683716,Tue Dec 09 2025 10:32:37 GMT-0500 (Eastern Standard Time),475825.7000002861,A,train,I,n,777,1,10933.400000095367,464892.30000019073,9045,WL,A,9.0
3,44.532999992370605,learn,15467.000007629395,Tue Dec 09 2025 10:32:37 GMT-0500 (Eastern Standard Time),476558.60000038147,A,trainenter,I,enter,721,1,11666.300000190735,464892.30000019073,9045,WL,A,9.0
3,49.382999897003174,learn,10617.000102996826,Tue Dec 09 2025 10:32:37 GMT-0500 (Eastern Standard Time),481409.0,A,c,I,c,4840,1,4850.099999904633,476558.90000009537,9045,WL,A,10.0
3,49.66600012779236,learn,10333.999872207642,Tue Dec 09 2025 10:32:37 GMT-0500 (Eastern Standard Time),481692.30000019073,A,ch,I,h,256,1,5133.400000095367,476558.90000009537,9045,WL,A,10.0
3,50.032999992370605,learn,9967.000007629395,Tue Dec 09 2025 10:32:37 GMT-0500 (Eastern Standard Time),482059.10000038147,A,chi,I,i,340,1,5500.200000286102,476558.90000009537,9045,WL,A,10.0
3,50.71600008010864,learn,9283.999919891357,Tue Dec 09 2025 10:32:37 GMT-0500 (Eastern Standard Time),482742.40000009537,A,chin,I,n,664,1,6183.5,476558.90000009537,9045,WL,A,10.0
3,52.08299994468689,learn,7917.00005531311,Tue Dec 09 2025 10:32:37 GMT-0500 (Eastern Standard Time),484109.0,A,chi,I,backspace,1341,1,7550.099999904633,476558.90000009537,9045,WL,A,10.0
3,52.5,learn,7500.0,Tue Dec 09 2025 10:32:37 GMT-0500 (Eastern Standard Time),484525.7000002861,A,chim,I,m,390,1,7966.800000190735,476558.90000009537,9045,WL,A,10.0
3,52.76600003242493,learn,7233.999967575073,Tue Dec 09 2025 10:32:37 GMT-0500 (Eastern Standard Time),484792.40000009537,A,chimn,I,n,245,1,8233.5,476558.90000009537,9045,WL,A,10.0
3,53.282999992370605,learn,6717.0000076293945,Tue Dec 09 2025 10:32:37 GMT-0500 (Eastern Standard Time),485309.10000038147,A,chimne,I,e,491,1,8750.200000286102,476558.90000009537,9045,WL,A,10.0
3,53.5,learn,6500.0,Tue Dec 09 2025 10:32:37 GMT-0500 (Eastern Standard Time),485525.90000009537,A,chimney,I,y,196,1,8967.0,476558.90000009537,9045,WL,A,10.0
3,54.29900002479553,learn,5700.999975204468,Tue Dec 09 2025 10:32:37 GMT-0500 (Eastern Standard Time),486325.2000002861,A,chimneyenter,I,enter,771,1,9766.300000190735,476558.90000009537,9045,WL,A,10.0
3,57.98300004005432,learn,2016.9999599456787,Tue Dec 09 2025 10:32:37 GMT-0500 (Eastern Standard Time),490009.0,A,k,I,k,3666,1,3683.3999996185303,486325.60000038147,9045,WL,A,11.0
3,58.21600008010864,learn,1783.9999198913574,Tue Dec 09 2025 10:32:37 GMT-0500 (Eastern Standard Time),490242.40000009537,A,ke,I,e,218,1,3916.7999997138977,486325.60000038147,9045,WL,A,11.0
3,58.58299994468689,learn,1417.0000553131104,Tue Dec 09 2025 10:32:37 GMT-0500 (Eastern Standard Time),490609.0,A,key,I,y,351,1,4283.39999961853,486325.60000038147,9045,WL,A,11.0
3,59.08299994468689,learn,917.0000553131104,Tue Dec 09 2025 10:32:37 GMT-0500 (Eastern Standard Time),491108.5,A,keyenter,I,enter,481,1,4782.89999961853,486325.60000038147,9045,WL,A,11.0
3,60.01699995994568,learn,-16.99995994567871,Tue Dec 09 2025 10:32:37 GMT-0500 (Eastern Standard Time),492042.5,A,None,I,None,927,1,933.5999999046326,491108.90000009537,9045,WL,A,12.0
4,0.999000072479248,learn,59000.99992752075,Tue Dec 09 2025 10:32:37 GMT-0500 (Eastern Standard Time),569325.5,A,r,I,r,991,1,999.3999996185303,568326.1000003815,9045,WL,A,1.0
4,1.3500001430511475,learn,58649.99985694885,Tue Dec 09 2025 10:32:37 GMT-0500 (Eastern Standard Time),569675.6000003815,A,ru,I,u,326,1,1349.5,568326.1000003815,9045,WL,A,1.0
4,1.6160001754760742,learn,58383.999824523926,Tue Dec 09 2025 10:32:37 GMT-0500 (Eastern Standard Time),569942.4000000954,A,rug,I,g,249,1,1616.2999997138977,568326.1000003815,9045,WL,A,1.0
4,2.3329999446868896,learn,57667.00005531311,Tue Dec 09 2025 10:32:37 GMT-0500 (Eastern Standard Time),570658.4000000954,A,rugenter,I,enter,692,1,2332.2999997138977,568326.1000003815,9045,WL,A,1.0
4,5.416000127792358,learn,54583.99987220764,Tue Dec 09 2025 10:32:37 GMT-0500 (Eastern Standard Time),573742.0,A,g,I,g,3076,1,3083.0999999046326,570658.9000000954,9045,WL,A,2.0
4,5.733000040054321,learn,54266.99995994568,Tue Dec 09 2025 10:32:37 GMT-0500 (Eastern Standard Time),574058.8000001907,A,go,I,o,293,1,3399.9000000953674,570658.9000000954,9045,WL,A,2.0
4,6.0329999923706055,learn,53967.000007629395,Tue Dec 09 2025 10:32:37 GMT-0500 (Eastern Standard Time),574359.0,A,gol,I,l,273,1,3700.0999999046326,570658.9000000954,9045,WL,A,2.0
4,6.799999952316284,learn,53200.000047683716,Tue Dec 09 2025 10:32:37 GMT-0500 (Eastern Standard Time),575125.6000003815,A,gold,I,d,749,1,4466.700000286102,570658.9000000954,9045,WL,A,2.0
4,7.049000024795532,learn,52950.99997520447,Tue Dec 09 2025 10:32:37 GMT-0500 (Eastern Standard Time),575375.1000003815,A,goldenter,I,enter,237,1,4716.200000286102,570658.9000000954,9045,WL,A,2.0
4,7.815999984741211,learn,52184.00001525879,Tue Dec 09 2025 10:32:37 GMT-0500 (Eastern Standard Time),576142.0,A,s,I,s,759,1,766.5,575375.5,9045,WL,A,3.0
4,7.933000087738037,learn,52066.99991226196,Tue Dec 09 2025 10:32:37 GMT-0500 (Eastern Standard Time),576259.0,A,sa,I,a,101,1,883.5,575375.5,9045,WL,A,3.0
4,8.282999992370605,learn,51717.000007629395,Tue Dec 09 2025 10:32:37 GMT-0500 (Eastern Standard Time),576608.9000000954,A,sal,I,l,327,1,1233.4000000953674,575375.5,9045,WL,A,3.0
4,8.683000087738037,learn,51316.99991226196,Tue Dec 09 2025 10:32:37 GMT-0500 (Eastern Standard Time),577008.9000000954,A,salt,I,t,385,1,1633.4000000953674,575375.5,9045,WL,A,3.0
4,9.315999984741211,learn,50684.00001525879,Tue Dec 09 2025 10:32:37 GMT-0500 (Eastern Standard Time),577641.7000002861,A,saltenter,I,enter,610,1,2266.2000002861023,575375.5,9045,WL,A,3.0
4,10.766000032424927,learn,49233.99996757507,Tue Dec 09 2025 10:32:37 GMT-0500 (Eastern Standard Time),579092.2000002861,A,k,I,k,1437,1,1450.0999999046326,577642.1000003815,9045,WL,A,4.0
4,11.016000032424927,learn,48983.99996757507,Tue Dec 09 2025 10:32:37 GMT-0500 (Eastern Standard Time),579341.9000000954,A,ke,I,e,239,1,1699.7999997138977,577642.1000003815,9045,WL,A,4.0
4,11.350000143051147,learn,48649.99985694885,Tue Dec 09 2025 10:32:37 GMT-0500 (Eastern Standard Time),579675.6000003815,A,key,I,y,301,1,2033.5,577642.1000003815,9045,WL,A,4.0
4,12.049000024795532,learn,47950.99997520447,Tue Dec 09 2025 10:32:37 GMT-0500 (Eastern Standard Time),580375.1000003815,A,keyenter,I,enter,679,1,2733.0,577642.1000003815,9045,WL,A,4.0
4,12.683000087738037,learn,47316.99991226196,Tue Dec 09 2025 10:32:37 GMT-0500 (Eastern Standard Time),581009.0,A,l,I,l,623,1,633.5999999046326,580375.4000000954,9045,WL,A,5.0
4,12.966000080108643,learn,47033.99991989136,Tue Dec 09 2025 10:32:37 GMT-0500 (Eastern Standard Time),581292.3000001907,A,lo,I,o,255,1,916.9000000953674,580375.4000000954,9045,WL,A,5.0
4,13.815999984741211,learn,46184.00001525879,Tue Dec 09 2025 10:32:37 GMT-0500 (Eastern Standard Time),582141.9000000954,A,log,I,g,839,1,1766.5,580375.4000000954,9045,WL,A,5.0
4,14.032999992370605,learn,45967.000007629395,Tue Dec 09 2025 10:32:37 GMT-0500 (Eastern Standard Time),582358.5,A,logenter,I,enter,196,1,1983.0999999046326,580375.4000000954,9045,WL,A,5.0
4,17.366000175476074,learn,42633.999824523926,Tue Dec 09 2025 10:32:37 GMT-0500 (Eastern Standard Time),585692.4000000954,A,t,I,t,3312,1,3333.5,582358.9000000954,9045,WL,A,6.0
4,17.532999992370605,learn,42467.000007629395,Tue Dec 09 2025 10:32:37 GMT-0500 (Eastern Standard Time),585858.9000000954,A,tr,I,r,150,1,3500.0,582358.9000000954,9045,WL,A,6.0
4,17.966000080108643,learn,42033.99991989136,Tue Dec 09 2025 10:32:37 GMT-0500 (Eastern Standard Time),586291.8000001907,A,tra,I,a,415,1,3932.9000000953674,582358.9000000954,9045,WL,A,6.0
4,18.266000032424927,learn,41733.99996757507,Tue Dec 09 2025 10:32:37 GMT-0500 (Eastern Standard Time),586592.3000001907,A,trai,I,i,290,1,4233.400000095367,582358.9000000954,9045,WL,A,6.0
4,19.282999992370605,learn,40717.000007629395,Tue Dec 09 2025 10:32:37 GMT-0500 (Eastern Standard Time),587609.0,A,train,I,n,995,1,5250.099999904633,582358.9000000954,9045,WL,A,6.0
4,19.64900016784668,learn,40350.99983215332,Tue Dec 09 2025 10:32:37 GMT-0500 (Eastern Standard Time),587975.1000003815,A,trainenter,I,enter,345,1,5616.200000286102,582358.9000000954,9045,WL,A,6.0
4,20.700000047683716,learn,39299.999952316284,Tue Dec 09 2025 10:32:37 GMT-0500 (Eastern Standard Time),589025.5,A,b,I,b,1039,1,1050.0,587975.5,9045,WL,A,7.0
4,21.0,learn,39000.0,Tue Dec 09 2025 10:32:37 GMT-0500 (Eastern Standard Time),589325.6000003815,A,bo,I,o,274,1,1350.1000003814697,587975.5,9045,WL,A,7.0
4,21.200000047683716,learn,38799.999952316284,Tue Dec 09 2025 10:32:37 GMT-0500 (Eastern Standard Time),589525.5,A,boo,I,o,182,1,1550.0,587975.5,9045,WL,A,7.0
4,21.39900016784668,learn,38600.99983215332,Tue Dec 09 2025 10:32:37 GMT-0500 (Eastern Standard Time),589725.5,A,book,I,k,187,1,1750.0,587975.5,9045,WL,A,7.0
4,22.131999969482422,learn,37868.00003051758,Tue Dec 09 2025 10:32:37 GMT-0500 (Eastern Standard Time),590458.5,A,bookenter,I,enter,710,1,2483.0,587975.5,9045,WL,A,7.0
4,23.383000135421753,learn,36616.99986457825,Tue Dec 09 2025 10:32:37 GMT-0500 (Eastern Standard Time),591708.9000000954,A,f,I,f,1228,1,1250.0999999046326,590458.8000001907,9045,WL,A,8.0
4,23.600000143051147,learn,36399.99985694885,Tue Dec 09 2025 10:32:37 GMT-0500 (Eastern Standard Time),591925.6000003815,A,fl,I,l,199,1,1466.8000001907349,590458.8000001907,9045,WL,A,8.0
4,23.850000143051147,learn,36149.99985694885,Tue Dec 09 2025 10:32:37 GMT-0500 (Eastern Standard Time),592175.5,A,flo,I,o,229,1,1716.6999998092651,590458.8000001907,9045,WL,A,8.0
4,24.266000032424927,learn,35733.99996757507,Tue Dec 09 2025 10:32:37 GMT-0500 (Eastern Standard Time),592592.3000001907,A,flow,I,w,400,1,2133.5,590458.8000001907,9045,WL,A,8.0
4,24.466000080108643,learn,35533.99991989136,Tue Dec 09 2025 10:32:37 GMT-0500 (Eastern Standard Time),592792.2000002861,A,flowe,I,e,178,1,2333.4000000953674,590458.8000001907,9045,WL,A,8.0
4,24.700000047683716,learn,35299.999952316284,Tue Dec 09 2025 10:32:37 GMT-0500 (Eastern Standard Time),593025.6000003815,A,flower,I,r,220,1,2566.800000190735,590458.8000001907,9045,WL,A,8.0
4,25.098999977111816,learn,34901.00002288818,Tue Dec 09 2025 10:32:37 GMT-0500 (Eastern Standard Time),593425.0,A,flowerenter,I,enter,384,1,2966.199999809265,590458.8000001907,9045,WL,A,8.0
4,26.98300004005432,learn,33016.99995994568,Tue Dec 09 2025 10:32:37 GMT-0500 (Eastern Standard Time),595309.1000003815,A,f,I,f,1877,1,1883.7000002861023,593425.4000000954,9045,WL,A,9.0
4,27.299999952316284,learn,32700.000047683716,Tue Dec 09 2025 10:32:37 GMT-0500 (Eastern Standard Time),595625.6000003815,A,fi,I,i,294,1,2200.2000002861023,593425.4000000954,9045,WL,A,9.0
4,27.549999952316284,learn,32450.000047683716,Tue Dec 09 2025 10:32:37 GMT-0500 (Eastern Standard Time),595875.6000003815,A,fin,I,n,235,1,2450.2000002861023,593425.4000000954,9045,WL,A,9.0
4,28.216000080108643,learn,31783.999919891357,Tue Dec 09 2025 10:32:37 GMT-0500 (Eastern Standard Time),596542.0,A,fing,I,g,655,1,3116.5999999046326,593425.4000000954,9045,WL,A,9.0
4,28.433000087738037,learn,31566.999912261963,Tue Dec 09 2025 10:32:37 GMT-0500 (Eastern Standard Time),596758.9000000954,A,finge,I,e,198,1,3333.5,593425.4000000954,9045,WL,A,9.0
4,28.73300004005432,learn,31266.99995994568,Tue Dec 09 2025 10:32:37 GMT-0500 (Eastern Standard Time),597058.9000000954,A,finger,I,r,275,1,3633.5,593425.4000000954,9045,WL,A,9.0
4,29.348999977111816,learn,30651.000022888184,Tue Dec 09 2025 10:32:37 GMT-0500 (Eastern Standard Time),597675.2000002861,A,fingerenter,I,enter,591,1,4249.800000190735,593425.4000000954,9045,WL,A,9.0
4,31.65000009536743,learn,28349.99990463257,Tue Dec 09 2025 10:32:37 GMT-0500 (Eastern Standard Time),599975.6000003815,A,m,I,m,2283,1,2300.1000003814697,597675.5,9045,WL,A,10.0
4,32.10000014305115,learn,27899.999856948853,Tue Dec 09 2025 10:32:37 GMT-0500 (Eastern Standard Time),600425.6000003815,A,me,I,e,428,1,2750.1000003814697,597675.5,9045,WL,A,10.0
4,32.450000047683716,learn,27549.999952316284,Tue Dec 09 2025 10:32:37 GMT-0500 (Eastern Standard Time),600775.6000003815,A,med,I,d,329,1,3100.1000003814697,597675.5,9045,WL,A,10.0
4,32.63300013542175,learn,27366.999864578247,Tue Dec 09 2025 10:32:37 GMT-0500 (Eastern Standard Time),600958.8000001907,A,medd,I,d,171,1,3283.300000190735,597675.5,9045,WL,A,10.0
4,32.85000014305115,learn,27149.999856948853,Tue Dec 09 2025 10:32:37 GMT-0500 (Eastern Standard Time),601175.6000003815,A,meddo,I,o,196,1,3500.1000003814697,597675.5,9045,WL,A,10.0
4,33.08299994468689,learn,26917.00005531311,Tue Dec 09 2025 10:32:37 GMT-0500 (Eastern Standard Time),601408.9000000954,A,meddow,I,w,219,1,3733.4000000953674,597675.5,9045,WL,A,10.0
4,33.33200001716614,learn,26667.999982833862,Tue Dec 09 2025 10:32:37 GMT-0500 (Eastern Standard Time),601658.4000000954,A,meddowenter,I,enter,224,1,3982.9000000953674,597675.5,9045,WL,A,10.0
4,34.85000014305115,learn,25149.999856948853,Tue Dec 09 2025 10:32:37 GMT-0500 (Eastern Standard Time),603175.5,A,c,I,c,1500,1,1516.7999997138977,601658.7000002861,9045,WL,A,11.0
4,35.032999992370605,learn,24967.000007629395,Tue Dec 09 2025 10:32:37 GMT-0500 (Eastern Standard Time),603358.9000000954,A,ch,I,h,169,1,1700.1999998092651,601658.7000002861,9045,WL,A,11.0
4,35.26600003242493,learn,24733.999967575073,Tue Dec 09 2025 10:32:37 GMT-0500 (Eastern Standard Time),603592.2000002861,A,chi,I,i,212,1,1933.5,601658.7000002861,9045,WL,A,11.0
4,35.63300013542175,learn,24366.999864578247,Tue Dec 09 2025 10:32:37 GMT-0500 (Eastern Standard Time),603958.9000000954,A,chim,I,m,338,1,2300.199999809265,601658.7000002861,9045,WL,A,11.0
4,35.85000014305115,learn,24149.999856948853,Tue Dec 09 2025 10:32:37 GMT-0500 (Eastern Standard Time),604175.6000003815,A,chimn,I,n,205,1,2516.9000000953674,601658.7000002861,9045,WL,A,11.0
4,36.51600003242493,learn,23483.999967575073,Tue Dec 09 2025 10:32:37 GMT-0500 (Eastern Standard Time),604842.3000001907,A,chimne,I,e,634,1,3183.5999999046326,601658.7000002861,9045,WL,A,11.0
4,36.700000047683716,learn,23299.999952316284,Tue Dec 09 2025 10:32:37 GMT-0500 (Eastern Standard Time),605025.5,A,chimney,I,y,169,1,3366.7999997138977,601658.7000002861,9045,WL,A,11.0
4,37.098999977111816,learn,22901.000022888184,Tue Dec 09 2025 10:32:37 GMT-0500 (Eastern Standard Time),605425.1000003815,A,chimneyenter,I,enter,385,1,3766.4000000953674,601658.7000002861,9045,WL,A,11.0
4,45.18300008773804,learn,14816.999912261963,Tue Dec 09 2025 10:32:37 GMT-0500 (Eastern Standard Time),613508.9000000954,A,a,I,a,8069,1,8083.400000095367,605425.5,9045,WL,A,12.0
4,45.60000014305115,learn,14399.999856948853,Tue Dec 09 2025 10:32:37 GMT-0500 (Eastern Standard Time),613925.6000003815,A,ap,I,p,398,1,8500.10000038147,605425.5,9045,WL,A,12.0
4,45.81599998474121,learn,14184.000015258789,Tue Dec 09 2025 10:32:37 GMT-0500 (Eastern Standard Time),614141.9000000954,A,app,I,p,198,1,8716.400000095367,605425.5,9045,WL,A,12.0
4,46.032999992370605,learn,13967.000007629395,Tue Dec 09 2025 10:32:37 GMT-0500 (Eastern Standard Time),614359.0,A,appl,I,l,197,1,8933.5,605425.5,9045,WL,A,12.0
4,46.40000009536743,learn,13599.999904632568,Tue Dec 09 2025 10:32:37 GMT-0500 (Eastern Standard Time),614725.5,A,apple,I,e,348,1,9300.0,605425.5,9045,WL,A,12.0
4,46.60000014305115,learn,13399.999856948853,Tue Dec 09 2025 10:32:37 GMT-0500 (Eastern Standard Time),614926.1000003815,A,appleenter,I,enter,189,1,9500.60000038147,605425.5,9045,WL,A,12.0
4,60.01600003242493,learn,-16.000032424926758,Tue Dec 09 2025 10:32:37 GMT-0500 (Eastern Standard Time),628342.4000000954,A,None,I,None,13410,1,13415.900000095367,614926.5,9045,WL,A,13.0
5,1.4500000476837158,learn,60000.0,Tue Dec 09 2025 10:32:37 GMT-0500 (Eastern Standard Time),698225.8000001907,A,b,I,b,1436,1,1449.6999998092651,696776.1000003815,9045,WL,A,1.0
5,2.1660001277923584,learn,60000.0,Tue Dec 09 2025 10:32:37 GMT-0500 (Eastern Standard Time),698941.8000001907,A,bo,I,o,705,1,2165.699999809265,696776.1000003815,9045,WL,A,1.0
5,2.382999897003174,learn,60000.0,Tue Dec 09 2025 10:32:37 GMT-0500 (Eastern Standard Time),699158.8000001907,A,boo,I,o,197,1,2382.699999809265,696776.1000003815,9045,WL,A,1.0
5,2.5829999446868896,learn,60000.0,Tue Dec 09 2025 10:32:37 GMT-0500 (Eastern Standard Time),699358.7000002861,A,book,I,k,180,1,2582.5999999046326,696776.1000003815,9045,WL,A,1.0
5,2.9820001125335693,learn,60000.0,Tue Dec 09 2025 10:32:37 GMT-0500 (Eastern Standard Time),699758.3000001907,A,bookenter,I,enter,387,1,2982.199999809265,696776.1000003815,9045,WL,A,1.0
5,3.7660000324249268,learn,60000.0,Tue Dec 09 2025 10:32:37 GMT-0500 (Eastern Standard Time),700541.9000000954,A,f,I,f,776,1,783.1999998092651,699758.7000002861,9045,WL,A,2.0
5,3.949000120162964,learn,60000.0,Tue Dec 09 2025 10:32:37 GMT-0500 (Eastern Standard Time),700725.4000000954,A,fl,I,l,165,1,966.6999998092651,699758.7000002861,9045,WL,A,2.0
5,4.249000072479248,learn,60000.0,Tue Dec 09 2025 10:32:37 GMT-0500 (Eastern Standard Time),701025.4000000954,A,flo,I,o,284,1,1266.6999998092651,699758.7000002861,9045,WL,A,2.0
5,4.516000032424927,learn,60000.0,Tue Dec 09 2025 10:32:37 GMT-0500 (Eastern Standard Time),701292.1000003815,A,flow,I,w,241,1,1533.4000000953674,699758.7000002861,9045,WL,A,2.0
5,4.683000087738037,learn,60000.0,Tue Dec 09 2025 10:32:37 GMT-0500 (Eastern Standard Time),701458.9000000954,A,flowe,I,e,150,1,1700.1999998092651,699758.7000002861,9045,WL,A,2.0
5,4.882999897003174,learn,60000.0,Tue Dec 09 2025 10:32:37 GMT-0500 (Eastern Standard Time),701658.8000001907,A,flower,I,r,166,1,1900.0999999046326,699758.7000002861,9045,WL,A,2.0
5,5.681999921798706,learn,60000.0,Tue Dec 09 2025 10:32:37 GMT-0500 (Eastern Standard Time),702458.3000001907,A,flowerenter,I,enter,775,1,2699.5999999046326,699758.7000002861,9045,WL,A,2.0
5,6.499000072479248,learn,60000.0,Tue Dec 09 2025 10:32:37 GMT-0500 (Eastern Standard Time),703275.4000000954,A,t,I,t,795,1,816.7999997138977,702458.6000003815,9045,WL,A,3.0
5,6.615999937057495,learn,60000.0,Tue Dec 09 2025 10:32:37 GMT-0500 (Eastern Standard Time),703392.1000003815,A,tr,I,r,104,1,933.5,702458.6000003815,9045,WL,A,3.0
5,7.233000040054321,learn,60000.0,Tue Dec 09 2025 10:32:37 GMT-0500 (Eastern Standard Time),704008.8000001907,A,tra,I,a,594,1,1550.1999998092651,702458.6000003815,9045,WL,A,3.0
5,7.483000040054321,learn,60000.0,Tue Dec 09 2025 10:32:37 GMT-0500 (Eastern Standard Time),704258.7000002861,A,trai,I,i,235,1,1800.0999999046326,702458.6000003815,9045,WL,A,3.0
5,8.032999992370605,learn,60000.0,Tue Dec 09 2025 10:32:37 GMT-0500 (Eastern Standard Time),704808.8000001907,A,train,I,n,527,1,2350.199999809265,702458.6000003815,9045,WL,A,3.0
5,8.666000127792358,learn,60000.0,Tue Dec 09 2025 10:32:37 GMT-0500 (Eastern Standard Time),705441.7000002861,A,trainenter,I,enter,616,1,2983.0999999046326,702458.6000003815,9045,WL,A,3.0
5,10.566999912261963,learn,60000.0,Tue Dec 09 2025 10:32:37 GMT-0500 (Eastern Standard Time),707343.0,A,r,I,r,1893,1,1900.8999996185303,705442.1000003815,9045,WL,A,4.0
5,10.782999992370605,learn,60000.0,Tue Dec 09 2025 10:32:37 GMT-0500 (Eastern Standard Time),707558.6000003815,A,ru,I,u,194,1,2116.5,705442.1000003815,9045,WL,A,4.0
5,11.865999937057495,learn,60000.0,Tue Dec 09 2025 10:32:37 GMT-0500 (Eastern Standard Time),708642.1000003815,A,rug,I,g,1069,1,3200.0,705442.1000003815,9045,WL,A,4.0
5,12.065999984741211,learn,60000.0,Tue Dec 09 2025 10:32:37 GMT-0500 (Eastern Standard Time),708841.8000001907,A,rugenter,I,enter,176,1,3399.699999809265,705442.1000003815,9045,WL,A,4.0
5,13.766000032424927,learn,60000.0,Tue Dec 09 2025 10:32:37 GMT-0500 (Eastern Standard Time),710541.8000001907,A,m,I,m,1693,1,1699.8000001907349,708842.0,9045,WL,A,5.0
5,14.466000080108643,learn,60000.0,Tue Dec 09 2025 10:32:37 GMT-0500 (Eastern Standard Time),711242.1000003815,A,me,I,e,678,1,2400.1000003814697,708842.0,9045,WL,A,5.0
5,14.83299994468689,learn,60000.0,Tue Dec 09 2025 10:32:37 GMT-0500 (Eastern Standard Time),711608.8000001907,A,med,I,d,345,1,2766.800000190735,708842.0,9045,WL,A,5.0
5,14.999000072479248,learn,60000.0,Tue Dec 09 2025 10:32:37 GMT-0500 (Eastern Standard Time),711775.4000000954,A,medd,I,d,155,1,2933.4000000953674,708842.0,9045,WL,A,5.0
5,15.3989999294281,learn,60000.0,Tue Dec 09 2025 10:32:37 GMT-0500 (Eastern Standard Time),712175.3000001907,A,meddo,I,o,388,1,3333.300000190735,708842.0,9045,WL,A,5.0
5,15.700000047683716,learn,60000.0,Tue Dec 09 2025 10:32:37 GMT-0500 (Eastern Standard Time),712475.6000003815,A,meddow,I,w,276,1,3633.6000003814697,708842.0,9045,WL,A,5.0
5,15.98200011253357,learn,60000.0,Tue Dec 09 2025 10:32:37 GMT-0500 (Eastern Standard Time),712758.3000001907,A,meddowenter,I,enter,262,1,3916.300000190735,708842.0,9045,WL,A,5.0
5,20.41600012779236,learn,60000.0,Tue Dec 09 2025 10:32:37 GMT-0500 (Eastern Standard Time),717192.3000001907,A,k,I,k,4416,1,4433.599999904633,712758.7000002861,9045,WL,A,6.0
5,20.632999897003174,learn,60000.0,Tue Dec 09 2025 10:32:37 GMT-0500 (Eastern Standard Time),717408.7000002861,A,ke,I,e,203,1,4650.0,712758.7000002861,9045,WL,A,6.0
5,20.949000120162964,learn,60000.0,Tue Dec 09 2025 10:32:37 GMT-0500 (Eastern Standard Time),717725.3000001907,A,key,I,y,307,1,4966.599999904633,712758.7000002861,9045,WL,A,6.0
5,21.3989999294281,learn,60000.0,Tue Dec 09 2025 10:32:37 GMT-0500 (Eastern Standard Time),718175.1000003815,A,keyenter,I,enter,437,1,5416.400000095367,712758.7000002861,9045,WL,A,6.0
5,24.683000087738037,learn,60000.0,Tue Dec 09 2025 10:32:37 GMT-0500 (Eastern Standard Time),721458.8000001907,A,g,I,g,3271,1,3283.5,718175.3000001907,9045,WL,A,7.0
5,24.949000120162964,learn,60000.0,Tue Dec 09 2025 10:32:37 GMT-0500 (Eastern Standard Time),721725.2000002861,A,go,I,o,257,1,3549.9000000953674,718175.3000001907,9045,WL,A,7.0
5,25.23300004005432,learn,60000.0,Tue Dec 09 2025 10:32:37 GMT-0500 (Eastern Standard Time),722008.8000001907,A,gol,I,l,254,1,3833.5,718175.3000001907,9045,WL,A,7.0
5,25.615999937057495,learn,60000.0,Tue Dec 09 2025 10:32:37 GMT-0500 (Eastern Standard Time),722392.1000003815,A,gold,I,d,362,1,4216.800000190735,718175.3000001907,9045,WL,A,7.0
5,25.848999977111816,learn,60000.0,Tue Dec 09 2025 10:32:37 GMT-0500 (Eastern Standard Time),722625.0,A,goldenter,I,enter,218,1,4449.699999809265,718175.3000001907,9045,WL,A,7.0
5,27.865999937057495,learn,60000.0,Tue Dec 09 2025 10:32:37 GMT-0500 (Eastern Standard Time),724642.1000003815,A,r,I,r,2005,1,2016.9000000953674,722625.2000002861,9045,WL,A,8.0
5,28.348999977111816,learn,60000.0,Tue Dec 09 2025 10:32:37 GMT-0500 (Eastern Standard Time),725125.4000000954,A,ra,I,a,465,1,2500.199999809265,722625.2000002861,9045,WL,A,8.0
5,28.749000072479248,learn,60000.0,Tue Dec 09 2025 10:32:37 GMT-0500 (Eastern Standard Time),725525.4000000954,A,rat,I,t,382,1,2900.199999809265,722625.2000002861,9045,WL,A,8.0
5,28.949000120162964,learn,60000.0,Tue Dec 09 2025 10:32:37 GMT-0500 (Eastern Standard Time),725725.5,A,ratt,I,t,173,1,3100.2999997138977,722625.2000002861,9045,WL,A,8.0
5,29.16600012779236,learn,60000.0,Tue Dec 09 2025 10:32:37 GMT-0500 (Eastern Standard Time),725942.1000003815,A,rattl,I,l,189,1,3316.9000000953674,722625.2000002861,9045,WL,A,8.0
5,29.348999977111816,learn,60000.0,Tue Dec 09 2025 10:32:37 GMT-0500 (Eastern Standard Time),726125.4000000954,A,rattle,I,e,157,1,3500.199999809265,722625.2000002861,9045,WL,A,8.0
5,29.6489999294281,learn,60000.0,Tue Dec 09 2025 10:32:37 GMT-0500 (Eastern Standard Time),726425.0,A,rattleenter,I,enter,277,1,3799.7999997138977,722625.2000002861,9045,WL,A,8.0
5,30.348999977111816,learn,60000.0,Tue Dec 09 2025 10:32:37 GMT-0500 (Eastern Standard Time),727125.4000000954,A,a,I,a,686,1,700.0999999046326,726425.3000001907,9045,WL,A,9.0
5,30.83299994468689,learn,60000.0,Tue Dec 09 2025 10:32:37 GMT-0500 (Eastern Standard Time),727608.7000002861,A,ap,I,p,461,1,1183.4000000953674,726425.3000001907,9045,WL,A,9.0
5,31.049000024795532,learn,60000.0,Tue Dec 09 2025 10:32:37 GMT-0500 (Eastern Standard Time),727825.2000002861,A,app,I,p,201,1,1399.9000000953674,726425.3000001907,9045,WL,A,9.0
5,31.282999992370605,learn,60000.0,Tue Dec 09 2025 10:32:37 GMT-0500 (Eastern Standard Time),728058.7000002861,A,appl,I,l,212,1,1633.4000000953674,726425.3000001907,9045,WL,A,9.0
5,31.632999897003174,learn,60000.0,Tue Dec 09 2025 10:32:37 GMT-0500 (Eastern Standard Time),728408.7000002861,A,apple,I,e,327,1,1983.4000000953674,726425.3000001907,9045,WL,A,9.0
5,32.115999937057495,learn,60000.0,Tue Dec 09 2025 10:32:37 GMT-0500 (Eastern Standard Time),728891.6000003815,A,appleenter,I,enter,457,1,2466.300000190735,726425.3000001907,9045,WL,A,9.0
5,33.76600003242493,learn,60000.0,Tue Dec 09 2025 10:32:37 GMT-0500 (Eastern Standard Time),730541.8000001907,A,c,I,c,1642,1,1649.9000000953674,728891.9000000954,9045,WL,A,10.0
5,34.01600003242493,learn,60000.0,Tue Dec 09 2025 10:32:37 GMT-0500 (Eastern Standard Time),730792.1000003815,A,ch,I,h,228,1,1900.2000002861023,728891.9000000954,9045,WL,A,10.0
5,34.5,learn,60000.0,Tue Dec 09 2025 10:32:37 GMT-0500 (Eastern Standard Time),731275.6000003815,A,chi,I,i,459,1,2383.7000002861023,728891.9000000954,9045,WL,A,10.0
5,35.032999992370605,learn,60000.0,Tue Dec 09 2025 10:32:37 GMT-0500 (Eastern Standard Time),731808.7000002861,A,chim,I,m,518,1,2916.800000190735,728891.9000000954,9045,WL,A,10.0
5,35.48300004005432,learn,60000.0,Tue Dec 09 2025 10:32:37 GMT-0500 (Eastern Standard Time),732258.8000001907,A,chimn,I,n,433,1,3366.9000000953674,728891.9000000954,9045,WL,A,10.0
5,35.882999897003174,learn,60000.0,Tue Dec 09 2025 10:32:37 GMT-0500 (Eastern Standard Time),732658.8000001907,A,chimne,I,e,385,1,3766.9000000953674,728891.9000000954,9045,WL,A,10.0
5,36.16600012779236,learn,60000.0,Tue Dec 09 2025 10:32:37 GMT-0500 (Eastern Standard Time),732941.8000001907,A,chimney,I,y,272,1,4049.9000000953674,728891.9000000954,9045,WL,A,10.0
5,36.66600012779236,learn,60000.0,Tue Dec 09 2025 10:32:37 GMT-0500 (Eastern Standard Time),733441.6000003815,A,chimneyenter,I,enter,484,1,4549.700000286102,728891.9000000954,9045,WL,A,10.0
5,39.382999897003174,learn,60000.0,Tue Dec 09 2025 10:32:37 GMT-0500 (Eastern Standard Time),736158.7000002861,A,l,I,l,2709,1,2716.7000002861023,733442.0,9045,WL,A,11.0
5,39.66600012779236,learn,60000.0,Tue Dec 09 2025 10:32:37 GMT-0500 (Eastern Standard Time),736442.1000003815,A,lo,I,o,260,1,3000.1000003814697,733442.0,9045,WL,A,11.0
5,40.01600003242493,learn,60000.0,Tue Dec 09 2025 10:32:37 GMT-0500 (Eastern Standard Time),736792.2000002861,A,log,I,g,328,1,3350.2000002861023,733442.0,9045,WL,A,11.0
5,40.29900002479553,learn,60000.0,Tue Dec 09 2025 10:32:37 GMT-0500 (Eastern Standard Time),737075.0,A,logenter,I,enter,266,1,3633.0,733442.0,9045,WL,A,11.0
5,49.01600003242493,learn,60000.0,Tue Dec 09 2025 10:32:37 GMT-0500 (Eastern Standard Time),745792.1000003815,A,f,I,f,8708,1,8716.800000190735,737075.3000001907,9045,WL,A,12.0
5,49.23300004005432,learn,60000.0,Tue Dec 09 2025 10:32:37 GMT-0500 (Eastern Standard Time),746008.8000001907,A,fi,I,i,195,1,8933.5,737075.3000001907,9045,WL,A,12.0
5,49.49900007247925,learn,60000.0,Tue Dec 09 2025 10:32:37 GMT-0500 (Eastern Standard Time),746275.4000000954,A,fin,I,n,240,1,9200.099999904633,737075.3000001907,9045,WL,A,12.0
5,50.23300004005432,learn,60000.0,Tue Dec 09 2025 10:32:37 GMT-0500 (Eastern Standard Time),747008.6000003815,A,fing,I,g,720,1,9933.300000190735,737075.3000001907,9045,WL,A,12.0
5,50.431999921798706,learn,60000.0,Tue Dec 09 2025 10:32:37 GMT-0500 (Eastern Standard Time),747207.9000000954,A,finge,I,e,178,1,10132.599999904633,737075.3000001907,9045,WL,A,12.0
5,50.632999897003174,learn,60000.0,Tue Dec 09 2025 10:32:37 GMT-0500 (Eastern Standard Time),747408.7000002861,A,finger,I,r,191,1,10333.400000095367,737075.3000001907,9045,WL,A,12.0
5,50.949000120162964,learn,60000.0,Tue Dec 09 2025 10:32:37 GMT-0500 (Eastern Standard Time),747724.8000001907,A,fingerenter,I,enter,305,1,10649.5,737075.3000001907,9045,WL,A,12.0
5,59.91600012779236,learn,60000.0,Tue Dec 09 2025 10:32:37 GMT-0500 (Eastern Standard Time),756692.1000003815,A,b,I,b,8954,1,8966.900000095367,747725.2000002861,9045,WL,A,13.0
5,60.199000120162964,learn,60000.0,Tue Dec 09 2025 10:32:37 GMT-0500 (Eastern Standard Time),756975.3000001907,A,bu,I,u,271,1,9250.099999904633,747725.2000002861,9045,WL,A,13.0
6,1.3840000629425049,distr,58615.999937057495,Tue Dec 09 2025 10:32:37 GMT-0500 (Eastern Standard Time),834808.7000002861,B,s,I,s,1362,1,1382.9000000953674,833425.8000001907,9045,WL,A,1.0
6,1.7170000076293945,distr,58282.999992370605,Tue Dec 09 2025 10:32:37 GMT-0500 (Eastern Standard Time),835142.0,B,se,I,e,313,1,1716.1999998092651,833425.8000001907,9045,WL,A,1.0
6,1.9170000553131104,distr,58082.99994468689,Tue Dec 09 2025 10:32:37 GMT-0500 (Eastern Standard Time),835341.7000002861,B,see,I,e,188,1,1915.9000000953674,833425.8000001907,9045,WL,A,1.0
6,2.200000047683716,distr,57799.999952316284,Tue Dec 09 2025 10:32:37 GMT-0500 (Eastern Standard Time),835625.3000001907,B,seed,I,d,252,1,2199.5,833425.8000001907,9045,WL,A,1.0
6,2.4830000400543213,distr,57516.99995994568,Tue Dec 09 2025 10:32:37 GMT-0500 (Eastern Standard Time),835908.2000002861,B,seedenter,I,enter,265,1,2482.4000000953674,833425.8000001907,9045,WL,A,1.0
6,4.66700005531311,distr,55332.99994468689,Tue Dec 09 2025 10:32:37 GMT-0500 (Eastern Standard Time),838092.1000003815,B,b,I,b,2162,1,2183.6000003814697,835908.5,9045,WL,A,2.0
6,5.017000198364258,distr,54982.99980163574,Tue Dec 09 2025 10:32:37 GMT-0500 (Eastern Standard Time),838442.0,B,bo,I,o,325,1,2533.5,835908.5,9045,WL,A,2.0
6,5.317000150680542,distr,54682.99984931946,Tue Dec 09 2025 10:32:37 GMT-0500 (Eastern Standard Time),838742.0,B,bot,I,t,280,1,2833.5,835908.5,9045,WL,A,2.0
6,5.517000198364258,distr,54482.99980163574,Tue Dec 09 2025 10:32:37 GMT-0500 (Eastern Standard Time),838941.8000001907,B,bott,I,t,188,1,3033.300000190735,835908.5,9045,WL,A,2.0
6,5.767000198364258,distr,54232.99980163574,Tue Dec 09 2025 10:32:37 GMT-0500 (Eastern Standard Time),839192.0,B,bottl,I,l,221,1,3283.5,835908.5,9045,WL,A,2.0
6,6.0340001583099365,distr,53965.99984169006,Tue Dec 09 2025 10:32:37 GMT-0500 (Eastern Standard Time),839458.6000003815,B,bottle,I,e,251,1,3550.1000003814697,835908.5,9045,WL,A,2.0
6,6.315999984741211,distr,53684.00001525879,Tue Dec 09 2025 10:32:37 GMT-0500 (Eastern Standard Time),839741.5,B,bottleenter,I,enter,271,1,3833.0,835908.5,9045,WL,A,2.0
6,7.567000150680542,distr,52432.99984931946,Tue Dec 09 2025 10:32:37 GMT-0500 (Eastern Standard Time),840991.9000000954,B,s,I,s,1241,1,1250.0999999046326,839741.8000001907,9045,WL,A,3.0
6,7.733999967575073,distr,52266.00003242493,Tue Dec 09 2025 10:32:37 GMT-0500 (Eastern Standard Time),841158.6000003815,B,sh,I,h,146,1,1416.8000001907349,839741.8000001907,9045,WL,A,3.0
6,8.183000087738037,distr,51816.99991226196,Tue Dec 09 2025 10:32:37 GMT-0500 (Eastern Standard Time),841608.3000001907,B,she,I,e,429,1,1866.5,839741.8000001907,9045,WL,A,3.0
6,8.400000095367432,distr,51599.99990463257,Tue Dec 09 2025 10:32:37 GMT-0500 (Eastern Standard Time),841825.3000001907,B,shee,I,e,194,1,2083.5,839741.8000001907,9045,WL,A,3.0
6,8.733999967575073,distr,51266.00003242493,Tue Dec 09 2025 10:32:37 GMT-0500 (Eastern Standard Time),842158.6000003815,B,sheep,I,p,320,1,2416.800000190735,839741.8000001907,9045,WL,A,3.0
6,9.282999992370605,distr,50717.000007629395,Tue Dec 09 2025 10:32:37 GMT-0500 (Eastern Standard Time),842708.1000003815,B,sheepenter,I,enter,531,1,2966.300000190735,839741.8000001907,9045,WL,A,3.0
6,14.217000007629395,distr,45782.999992370605,Tue Dec 09 2025 10:32:37 GMT-0500 (Eastern Standard Time),847642.0,B,b,I,b,4915,1,4933.5,842708.5,9045,WL,A,4.0
6,14.58400011062622,distr,45415.99988937378,Tue Dec 09 2025 10:32:37 GMT-0500 (Eastern Standard Time),848008.7000002861,B,bo,I,o,342,1,5300.200000286102,842708.5,9045,WL,A,4.0
6,15.267000198364258,distr,44732.99980163574,Tue Dec 09 2025 10:32:37 GMT-0500 (Eastern Standard Time),848692.1000003815,B,bow,I,w,665,1,5983.60000038147,842708.5,9045,WL,A,4.0
6,15.550000190734863,distr,44449.99980926514,Tue Dec 09 2025 10:32:37 GMT-0500 (Eastern Standard Time),848975.3000001907,B,bowl,I,l,271,1,6266.800000190735,842708.5,9045,WL,A,4.0
6,16.017000198364258,distr,43982.99980163574,Tue Dec 09 2025 10:32:37 GMT-0500 (Eastern Standard Time),849441.5,B,bowlenter,I,enter,450,1,6733.0,842708.5,9045,WL,A,4.0
6,21.5,distr,38500.0,Tue Dec 09 2025 10:32:37 GMT-0500 (Eastern Standard Time),854925.2000002861,B,p,I,p,5461,1,5483.300000190735,849441.9000000954,9045,WL,A,5.0
6,21.75,distr,38250.0,Tue Dec 09 2025 10:32:37 GMT-0500 (Eastern Standard Time),855175.3000001907,B,pe,I,e,228,1,5733.400000095367,849441.9000000954,9045,WL,A,5.0
6,22.067000150680542,distr,37932.99984931946,Tue Dec 09 2025 10:32:37 GMT-0500 (Eastern Standard Time),855492.0,B,pea,I,a,292,1,6050.099999904633,849441.9000000954,9045,WL,A,5.0
6,22.483999967575073,distr,37516.00003242493,Tue Dec 09 2025 10:32:37 GMT-0500 (Eastern Standard Time),855908.6000003815,B,peac,I,c,399,1,6466.700000286102,849441.9000000954,9045,WL,A,5.0
6,22.717000007629395,distr,37282.999992370605,Tue Dec 09 2025 10:32:37 GMT-0500 (Eastern Standard Time),856141.7000002861,B,peach,I,h,215,1,6699.800000190735,849441.9000000954,9045,WL,A,5.0
6,23.16700005531311,distr,36832.99994468689,Tue Dec 09 2025 10:32:37 GMT-0500 (Eastern Standard Time),856591.5,B,peachenter,I,enter,437,1,7149.599999904633,849441.9000000954,9045,WL,A,5.0
6,35.93300008773804,distr,24066.999912261963,Tue Dec 09 2025 10:32:37 GMT-0500 (Eastern Standard Time),869358.4000000954,B,d,I,d,12759,1,12766.599999904633,856591.8000001907,9045,WL,A,6.0
6,36.58400011062622,distr,23415.99988937378,Tue Dec 09 2025 10:32:37 GMT-0500 (Eastern Standard Time),870008.6000003815,B,da,I,a,628,1,13416.800000190735,856591.8000001907,9045,WL,A,6.0
6,36.91700005531311,distr,23082.99994468689,Tue Dec 09 2025 10:32:37 GMT-0500 (Eastern Standard Time),870342.0,B,daw,I,w,313,1,13750.199999809265,856591.8000001907,9045,WL,A,6.0
6,37.91700005531311,distr,22082.99994468689,Tue Dec 09 2025 10:32:37 GMT-0500 (Eastern Standard Time),871341.6000003815,B,dawn,I,n,989,1,14749.800000190735,856591.8000001907,9045,WL,A,6.0
6,38.367000102996826,distr,21632.999897003174,Tue Dec 09 2025 10:32:37 GMT-0500 (Eastern Standard Time),871791.4000000954,B,dawnenter,I,enter,437,1,15199.599999904633,856591.8000001907,9045,WL,A,6.0
6,60.01700019836426,distr,-17.000198364257812,Tue Dec 09 2025 10:32:37 GMT-0500 (Eastern Standard Time),893442.2000002861,B,None,I,None,21644,1,21650.300000190735,871791.9000000954,9045,WL,A,7.0
7,5.099999904632568,immed,54900.00009536743,Tue Dec 09 2025 10:32:37 GMT-0500 (Eastern Standard Time),913392.0,A,f,I,f,5087,1,5099.599999904633,908292.4000000954,9045,WL,A,1.0
7,5.2829999923706055,immed,54717.000007629395,Tue Dec 09 2025 10:32:37 GMT-0500 (Eastern Standard Time),913575.2000002861,A,fl,I,l,162,1,5282.800000190735,908292.4000000954,9045,WL,A,1.0
7,5.516999959945679,immed,54483.00004005432,Tue Dec 09 2025 10:32:37 GMT-0500 (Eastern Standard Time),913808.5,A,flo,I,o,219,1,5516.099999904633,908292.4000000954,9045,WL,A,1.0
7,6.016999959945679,immed,53983.00004005432,Tue Dec 09 2025 10:32:37 GMT-0500 (Eastern Standard Time),914308.5,A,flow,I,w,474,1,6016.099999904633,908292.4000000954,9045,WL,A,1.0
7,6.25,immed,53750.0,Tue Dec 09 2025 10:32:37 GMT-0500 (Eastern Standard Time),914541.6000003815,A,flowe,I,e,221,1,6249.200000286102,908292.4000000954,9045,WL,A,1.0
7,6.5,immed,53500.0,Tue Dec 09 2025 10:32:37 GMT-0500 (Eastern Standard Time),914791.5,A,flower,I,r,229,1,6499.099999904633,908292.4000000954,9045,WL,A,1.0
7,6.733000040054321,immed,53266.99995994568,Tue Dec 09 2025 10:32:37 GMT-0500 (Eastern Standard Time),915024.8000001907,A,flowerenter,I,enter,219,1,6732.400000095367,908292.4000000954,9045,WL,A,1.0
7,8.032999992370605,immed,51967.000007629395,Tue Dec 09 2025 10:32:37 GMT-0500 (Eastern Standard Time),916325.1000003815,A,t,I,t,1285,1,1300.0,915025.1000003815,9045,WL,A,2.0
7,8.183000087738037,immed,51816.99991226196,Tue Dec 09 2025 10:32:37 GMT-0500 (Eastern Standard Time),916475.2000002861,A,tr,I,r,126,1,1450.0999999046326,915025.1000003815,9045,WL,A,2.0
7,8.849999904632568,immed,51150.00009536743,Tue Dec 09 2025 10:32:37 GMT-0500 (Eastern Standard Time),917142.0,A,tra,I,a,647,1,2116.8999996185303,915025.1000003815,9045,WL,A,2.0
7,9.33299994468689,immed,50667.00005531311,Tue Dec 09 2025 10:32:37 GMT-0500 (Eastern Standard Time),917625.1000003815,A,trai,I,i,461,1,2600.0,915025.1000003815,9045,WL,A,2.0
7,10.116999864578247,immed,49883.00013542175,Tue Dec 09 2025 10:32:37 GMT-0500 (Eastern Standard Time),918408.5,A,train,I,n,755,1,3383.3999996185303,915025.1000003815,9045,WL,A,2.0
7,10.683000087738037,immed,49316.99991226196,Tue Dec 09 2025 10:32:37 GMT-0500 (Eastern Standard Time),918974.7000002861,A,trainenter,I,enter,554,1,3949.5999999046326,915025.1000003815,9045,WL,A,2.0
7,11.566999912261963,immed,48433.00008773804,Tue Dec 09 2025 10:32:37 GMT-0500 (Eastern Standard Time),919858.5,A,b,I,b,872,1,883.5,918975.0,9045,WL,A,3.0
7,11.91700005531311,immed,48082.99994468689,Tue Dec 09 2025 10:32:37 GMT-0500 (Eastern Standard Time),920208.5,A,bo,I,o,335,1,1233.5,918975.0,9045,WL,A,3.0
7,12.16700005531311,immed,47832.99994468689,Tue Dec 09 2025 10:32:37 GMT-0500 (Eastern Standard Time),920458.6000003815,A,boo,I,o,225,1,1483.6000003814697,918975.0,9045,WL,A,3.0
7,12.450000047683716,immed,47549.999952316284,Tue Dec 09 2025 10:32:37 GMT-0500 (Eastern Standard Time),920741.9000000954,A,book,I,k,263,1,1766.9000000953674,918975.0,9045,WL,A,3.0
7,12.882999897003174,immed,47117.000102996826,Tue Dec 09 2025 10:32:37 GMT-0500 (Eastern Standard Time),921174.8000001907,A,bookenter,I,enter,412,1,2199.800000190735,918975.0,9045,WL,A,3.0
7,14.25,immed,45750.0,Tue Dec 09 2025 10:32:37 GMT-0500 (Eastern Standard Time),922541.6000003815,A,g,I,g,1359,1,1366.4000000953674,921175.2000002861,9045,WL,A,4.0
7,14.5,immed,45500.0,Tue Dec 09 2025 10:32:37 GMT-0500 (Eastern Standard Time),922791.8000001907,A,go,I,o,228,1,1616.5999999046326,921175.2000002861,9045,WL,A,4.0
7,14.75,immed,45250.0,Tue Dec 09 2025 10:32:37 GMT-0500 (Eastern Standard Time),923041.9000000954,A,gol,I,l,235,1,1866.6999998092651,921175.2000002861,9045,WL,A,4.0
7,15.049999952316284,immed,44950.000047683716,Tue Dec 09 2025 10:32:37 GMT-0500 (Eastern Standard Time),923341.6000003815,A,gold,I,d,288,1,2166.4000000953674,921175.2000002861,9045,WL,A,4.0
7,15.299000024795532,immed,44700.99997520447,Tue Dec 09 2025 10:32:37 GMT-0500 (Eastern Standard Time),923591.3000001907,A,goldenter,I,enter,228,1,2416.0999999046326,921175.2000002861,9045,WL,A,4.0
7,17.25,immed,42750.0,Tue Dec 09 2025 10:32:37 GMT-0500 (Eastern Standard Time),925541.8000001907,A,k,I,k,1934,1,1950.1999998092651,923591.6000003815,9045,WL,A,5.0
7,17.532999992370605,immed,42467.000007629395,Tue Dec 09 2025 10:32:37 GMT-0500 (Eastern Standard Time),925825.2000002861,A,ke,I,e,269,1,2233.5999999046326,923591.6000003815,9045,WL,A,5.0
7,17.816999912261963,immed,42183.00008773804,Tue Dec 09 2025 10:32:37 GMT-0500 (Eastern Standard Time),926108.5,A,key,I,y,259,1,2516.8999996185303,923591.6000003815,9045,WL,A,5.0
7,18.299000024795532,immed,41700.99997520447,Tue Dec 09 2025 10:32:37 GMT-0500 (Eastern Standard Time),926591.4000000954,A,keyenter,I,enter,470,1,2999.7999997138977,923591.6000003815,9045,WL,A,5.0
7,19.615999937057495,immed,40384.000062942505,Tue Dec 09 2025 10:32:37 GMT-0500 (Eastern Standard Time),927908.5,A,r,I,r,1303,1,1316.7999997138977,926591.7000002861,9045,WL,A,6.0
7,19.782999992370605,immed,40217.000007629395,Tue Dec 09 2025 10:32:37 GMT-0500 (Eastern Standard Time),928075.3000001907,A,ru,I,u,142,1,1483.5999999046326,926591.7000002861,9045,WL,A,6.0
7,20.366999864578247,immed,39633.00013542175,Tue Dec 09 2025 10:32:37 GMT-0500 (Eastern Standard Time),928658.7000002861,A,rug,I,g,567,1,2067.0,926591.7000002861,9045,WL,A,6.0
7,20.698999881744385,immed,39301.000118255615,Tue Dec 09 2025 10:32:37 GMT-0500 (Eastern Standard Time),928991.4000000954,A,rugenter,I,enter,320,1,2399.699999809265,926591.7000002861,9045,WL,A,6.0
7,25.51699995994568,immed,34483.00004005432,Tue Dec 09 2025 10:32:37 GMT-0500 (Eastern Standard Time),933808.5,A,t,I,t,4806,1,4816.799999713898,928991.7000002861,9045,WL,A,7.0
7,28.23300004005432,immed,31766.99995994568,Tue Dec 09 2025 10:32:37 GMT-0500 (Eastern Standard Time),936525.2000002861,A,,I,backspace,2691,1,7533.5,928991.7000002861,9045,WL,A,7.0
7,30.566999912261963,immed,29433.000087738037,Tue Dec 09 2025 10:32:37 GMT-0500 (Eastern Standard Time),938858.6000003815,A,m,I,m,2310,1,9866.900000095367,928991.7000002861,9045,WL,A,7.0
7,31.448999881744385,immed,28551.000118255615,Tue Dec 09 2025 10:32:37 GMT-0500 (Eastern Standard Time),939741.4000000954,A,me,I,e,868,1,10749.699999809265,928991.7000002861,9045,WL,A,7.0
7,31.816999912261963,immed,28183.000087738037,Tue Dec 09 2025 10:32:37 GMT-0500 (Eastern Standard Time),940108.5,A,med,I,d,341,1,11116.799999713898,928991.7000002861,9045,WL,A,7.0
7,31.98300004005432,immed,28016.99995994568,Tue Dec 09 2025 10:32:37 GMT-0500 (Eastern Standard Time),940275.2000002861,A,medd,I,d,150,1,11283.5,928991.7000002861,9045,WL,A,7.0
7,32.83299994468689,immed,27167.00005531311,Tue Dec 09 2025 10:32:37 GMT-0500 (Eastern Standard Time),941125.2000002861,A,meddo,I,o,831,1,12133.5,928991.7000002861,9045,WL,A,7.0
7,33.08299994468689,immed,26917.00005531311,Tue Dec 09 2025 10:32:37 GMT-0500 (Eastern Standard Time),941375.2000002861,A,meddow,I,w,237,1,12383.5,928991.7000002861,9045,WL,A,7.0
7,33.58299994468689,immed,26417.00005531311,Tue Dec 09 2025 10:32:37 GMT-0500 (Eastern Standard Time),941874.7000002861,A,meddowenter,I,enter,483,1,12883.0,928991.7000002861,9045,WL,A,7.0
7,39.950000047683716,immed,20049.999952316284,Tue Dec 09 2025 10:32:37 GMT-0500 (Eastern Standard Time),948241.9000000954,A,r,I,r,6355,1,6366.900000095367,941875.0,9045,WL,A,8.0
7,40.51699995994568,immed,19483.00004005432,Tue Dec 09 2025 10:32:37 GMT-0500 (Eastern Standard Time),948808.5,A,ra,I,a,541,1,6933.5,941875.0,9045,WL,A,8.0
7,40.882999897003174,immed,19117.000102996826,Tue Dec 09 2025 10:32:37 GMT-0500 (Eastern Standard Time),949175.2000002861,A,rat,I,t,347,1,7300.200000286102,941875.0,9045,WL,A,8.0
7,41.08299994468689,immed,18917.00005531311,Tue Dec 09 2025 10:32:37 GMT-0500 (Eastern Standard Time),949375.1000003815,A,ratt,I,t,186,1,7500.10000038147,941875.0,9045,WL,A,8.0
7,41.93300008773804,immed,18066.999912261963,Tue Dec 09 2025 10:32:37 GMT-0500 (Eastern Standard Time),950225.2000002861,A,rattl,I,l,835,1,8350.200000286102,941875.0,9045,WL,A,8.0
7,42.11699986457825,immed,17883.000135421753,Tue Dec 09 2025 10:32:37 GMT-0500 (Eastern Standard Time),950408.6000003815,A,rattle,I,e,160,1,8533.60000038147,941875.0,9045,WL,A,8.0
7,42.43300008773804,immed,17566.999912261963,Tue Dec 09 2025 10:32:37 GMT-0500 (Eastern Standard Time),950724.7000002861,A,rattleenter,I,enter,298,1,8849.700000286102,941875.0,9045,WL,A,8.0
7,43.46600008010864,immed,16533.999919891357,Tue Dec 09 2025 10:32:37 GMT-0500 (Eastern Standard Time),951758.4000000954,A,f,I,f,1025,1,1033.4000000953674,950725.0,9045,WL,A,9.0
7,43.75,immed,16250.0,Tue Dec 09 2025 10:32:37 GMT-0500 (Eastern Standard Time),952041.9000000954,A,fi,I,i,259,1,1316.9000000953674,950725.0,9045,WL,A,9.0
7,43.98300004005432,immed,16016.999959945679,Tue Dec 09 2025 10:32:37 GMT-0500 (Eastern Standard Time),952275.1000003815,A,fin,I,n,216,1,1550.1000003814697,950725.0,9045,WL,A,9.0
7,45.33299994468689,immed,14667.00005531311,Tue Dec 09 2025 10:32:37 GMT-0500 (Eastern Standard Time),953625.2000002861,A,fing,I,g,1326,1,2900.2000002861023,950725.0,9045,WL,A,9.0
7,45.58299994468689,immed,14417.00005531311,Tue Dec 09 2025 10:32:37 GMT-0500 (Eastern Standard Time),953875.2000002861,A,finge,I,e,231,1,3150.2000002861023,950725.0,9045,WL,A,9.0
7,45.799999952316284,immed,14200.000047683716,Tue Dec 09 2025 10:32:37 GMT-0500 (Eastern Standard Time),954092.0,A,finger,I,r,191,1,3367.0,950725.0,9045,WL,A,9.0
7,46.26600003242493,immed,13733.999967575073,Tue Dec 09 2025 10:32:37 GMT-0500 (Eastern Standard Time),954558.0,A,fingerenter,I,enter,445,1,3833.0,950725.0,9045,WL,A,9.0
7,49.632999897003174,immed,10367.000102996826,Tue Dec 09 2025 10:32:37 GMT-0500 (Eastern Standard Time),957925.2000002861,A,l,I,l,3352,1,3366.9000000953674,954558.3000001907,9045,WL,A,10.0
7,49.865999937057495,immed,10134.000062942505,Tue Dec 09 2025 10:32:37 GMT-0500 (Eastern Standard Time),958158.4000000954,A,lo,I,o,212,1,3600.0999999046326,954558.3000001907,9045,WL,A,10.0
7,50.31599998474121,immed,9684.000015258789,Tue Dec 09 2025 10:32:37 GMT-0500 (Eastern Standard Time),958608.5,A,log,I,g,436,1,4050.199999809265,954558.3000001907,9045,WL,A,10.0
7,50.615999937057495,immed,9384.000062942505,Tue Dec 09 2025 10:32:37 GMT-0500 (Eastern Standard Time),958908.0,A,logenter,I,enter,271,1,4349.699999809265,954558.3000001907,9045,WL,A,10.0
7,52.282999992370605,immed,7717.0000076293945,Tue Dec 09 2025 10:32:37 GMT-0500 (Eastern Standard Time),960575.1000003815,A,g,I,g,1659,1,1666.8000001907349,958908.3000001907,9045,WL,A,11.0
7,52.532999992370605,immed,7467.0000076293945,Tue Dec 09 2025 10:32:37 GMT-0500 (Eastern Standard Time),960825.1000003815,A,go,I,o,227,1,1916.8000001907349,958908.3000001907,9045,WL,A,11.0
7,52.782999992370605,immed,7217.0000076293945,Tue Dec 09 2025 10:32:37 GMT-0500 (Eastern Standard Time),961075.0,A,gol,I,l,233,1,2166.699999809265,958908.3000001907,9045,WL,A,11.0
7,53.132999897003174,immed,6867.000102996826,Tue Dec 09 2025 10:32:37 GMT-0500 (Eastern Standard Time),961425.2000002861,A,gold,I,d,335,1,2516.9000000953674,958908.3000001907,9045,WL,A,11.0
7,53.365999937057495,immed,6634.000062942505,Tue Dec 09 2025 10:32:37 GMT-0500 (Eastern Standard Time),961658.1000003815,A,goldenter,I,enter,207,1,2749.800000190735,958908.3000001907,9045,WL,A,11.0
7,60.01699995994568,immed,-16.99995994567871,Tue Dec 09 2025 10:32:37 GMT-0500 (Eastern Standard Time),968308.5,A,None,I,None,6644,1,6650.099999904633,961658.4000000954,9045,WL,A,12.0
