acc_sum,block,block_c,block_cond,con_img,correct,correct_response,datetime,endtime,face,jitter,line,project,response,response_time,row_sel,session_number,start_end,starttime,subject_id,task,task_vers,trial
0,prac,1,A,haborder.png,0,m,Thu Dec 04 2025 09:38:56 GMT-0600 (Central Standard Time),73932.39999997616,CFD-BM-015-017-HC.jpg,1700,solid,O,None,1516,1,1,3998.199999988079,69934.19999998808,7706,ATS,B,1
1,prac,1,A,haborder.png,1,z,Thu Dec 04 2025 09:38:56 GMT-0600 (Central Standard Time),77047.5,CFD-WF-013-015-A.jpg,1000,solid,O,z,1308,12,1,7113.300000011921,69934.19999998808,7706,ATS,B,2
1,prac,1,A,haborder.png,0,m,Thu Dec 04 2025 09:38:56 GMT-0600 (Central Standard Time),80613.5,CFD-WM-012-007-HC.jpg,1700,solid,O,z,1078,9,1,10679.300000011921,69934.19999998808,7706,ATS,B,3
2,prac,1,A,haborder.png,1,z,Thu Dec 04 2025 09:38:56 GMT-0600 (Central Standard Time),84095.5,CFD-BM-037-041-A.jpg,1600,solid,O,z,1084,2,1,14161.300000011921,69934.19999998808,7706,ATS,B,4
3,prac,1,A,haborder.png,1,m,Thu Dec 04 2025 09:38:56 GMT-0600 (Central Standard Time),87744.19999998808,CFD-BF-035-007-HC.jpg,2000,solid,O,m,859,5,1,17810.0,69934.19999998808,7706,ATS,B,5
4,prac,1,A,haborder.png,1,z,Thu Dec 04 2025 09:38:56 GMT-0600 (Central Standard Time),90559.80000001192,CFD-BF-050-012-A.jpg,1200,solid,O,z,824,6,1,20625.600000023842,69934.19999998808,7706,ATS,B,6
4,prac,1,A,haborder.png,0,m,Thu Dec 04 2025 09:38:56 GMT-0600 (Central Standard Time),93627.0,CFD-BM-020-024-HC.jpg,1500,solid,O,z,771,3,1,23692.80000001192,69934.19999998808,7706,ATS,B,7
5,prac,1,A,haborder.png,1,z,Thu Dec 04 2025 09:38:56 GMT-0600 (Central Standard Time),96176.30000001192,CFD-BF-051-043-A.jpg,1000,solid,O,z,758,4,1,26242.100000023842,69934.19999998808,7706,ATS,B,8
6,prac,1,A,haborder.png,1,m,Thu Dec 04 2025 09:38:56 GMT-0600 (Central Standard Time),99557.80000001192,CFD-WF-011-006-HC.jpg,1500,solid,O,m,1087,11,1,29623.600000023842,69934.19999998808,7706,ATS,B,9
7,prac,1,A,haborder.png,1,z,Thu Dec 04 2025 09:38:56 GMT-0600 (Central Standard Time),103205.89999997616,CFD-WM-009-009-A.jpg,1900,solid,O,z,950,8,1,33271.69999998808,69934.19999998808,7706,ATS,B,10
8,prac,1,A,haborder.png,1,z,Thu Dec 04 2025 09:38:56 GMT-0600 (Central Standard Time),106272.89999997616,CFD-WF-026-008-A.jpg,1600,solid,O,z,675,10,1,36338.69999998808,69934.19999998808,7706,ATS,B,11
9,prac,1,A,haborder.png,1,m,Thu Dec 04 2025 09:38:56 GMT-0600 (Central Standard Time),109022.30000001192,CFD-WM-011-006-HC.jpg,1400,solid,O,m,560,7,1,39088.10000002384,69934.19999998808,7706,ATS,B,12
1,prac,1,B,mfborder.png,1,z,Thu Dec 04 2025 09:38:56 GMT-0600 (Central Standard Time),133413.69999998808,CFD-BF-051-043-A.jpg,1000,dash,O,z,1009,4,1,2799.800000011921,130613.89999997616,7706,ATS,B,1
2,prac,1,B,mfborder.png,1,z,Thu Dec 04 2025 09:38:56 GMT-0600 (Central Standard Time),137531.0,CFD-WF-027-007-HC.jpg,1900,dash,O,z,1398,8,1,6917.100000023842,130613.89999997616,7706,ATS,B,2
3,prac,1,B,mfborder.png,1,z,Thu Dec 04 2025 09:38:56 GMT-0600 (Central Standard Time),140726.5,CFD-WF-026-008-A.jpg,1500,dash,O,z,908,11,1,10112.600000023842,130613.89999997616,7706,ATS,B,3
4,prac,1,B,mfborder.png,1,m,Thu Dec 04 2025 09:38:56 GMT-0600 (Central Standard Time),144142.89999997616,CFD-WM-012-007-HC.jpg,1600,dash,O,m,1001,10,1,13529.0,130613.89999997616,7706,ATS,B,4
5,prac,1,B,mfborder.png,1,m,Thu Dec 04 2025 09:38:56 GMT-0600 (Central Standard Time),147744.30000001192,CFD-BM-037-041-A.jpg,2000,dash,O,m,825,5,1,17130.400000035763,130613.89999997616,7706,ATS,B,5
5,prac,1,B,mfborder.png,0,z,Thu Dec 04 2025 09:38:56 GMT-0600 (Central Standard Time),151041.0,CFD-BF-027-013-HC.jpg,1500,dash,O,m,1004,3,1,20427.100000023842,130613.89999997616,7706,ATS,B,6
6,prac,1,B,mfborder.png,1,m,Thu Dec 04 2025 09:38:56 GMT-0600 (Central Standard Time),153874.5,CFD-WM-037-060-A.jpg,1200,dash,O,m,815,6,1,23260.600000023842,130613.89999997616,7706,ATS,B,7
7,prac,1,B,mfborder.png,1,m,Thu Dec 04 2025 09:38:56 GMT-0600 (Central Standard Time),157223.39999997616,CFD-BM-041-048-A.jpg,1600,dash,O,m,951,2,1,26609.5,130613.89999997616,7706,ATS,B,8
8,prac,1,B,mfborder.png,1,z,Thu Dec 04 2025 09:38:56 GMT-0600 (Central Standard Time),160271.60000002384,CFD-BF-035-007-HC.jpg,1400,dash,O,z,857,7,1,29657.700000047684,130613.89999997616,7706,ATS,B,9
9,prac,1,B,mfborder.png,1,m,Thu Dec 04 2025 09:38:56 GMT-0600 (Central Standard Time),163488.19999998808,CFD-WM-009-009-A.jpg,1700,dash,O,m,741,9,1,32874.30000001192,130613.89999997616,7706,ATS,B,10
10,prac,1,B,mfborder.png,1,z,Thu Dec 04 2025 09:38:56 GMT-0600 (Central Standard Time),166169.10000002384,CFD-WF-011-006-HC.jpg,1000,dash,O,z,889,12,1,35555.200000047684,130613.89999997616,7706,ATS,B,11
11,prac,1,B,mfborder.png,1,m,Thu Dec 04 2025 09:38:56 GMT-0600 (Central Standard Time),169335.0,CFD-BM-020-024-HC.jpg,1700,dash,O,m,666,1,1,38721.10000002384,130613.89999997616,7706,ATS,B,12
1,test,1,A,haborder.png,1,z,Thu Dec 04 2025 09:38:56 GMT-0600 (Central Standard Time),189395.89999997616,CFD-WF-026-008-A.jpg,1600,solid,O,z,950,10,1,2583.699999988079,186812.19999998808,7706,ATS,B,1
2,test,1,A,haborder.png,1,z,Thu Dec 04 2025 09:38:56 GMT-0600 (Central Standard Time),191095.0,CFD-BF-051-043-A.jpg,1000,solid,O,z,677,4,1,4282.800000011921,186812.19999998808,7706,ATS,B,2
3,test,1,A,haborder.png,1,z,Thu Dec 04 2025 09:38:56 GMT-0600 (Central Standard Time),193094.39999997616,CFD-BF-050-012-A.jpg,1200,solid,O,z,769,6,1,6282.199999988079,186812.19999998808,7706,ATS,B,3
4,test,1,A,haborder.png,1,m,Thu Dec 04 2025 09:38:56 GMT-0600 (Central Standard Time),195043.60000002384,CFD-WM-011-006-HC.jpg,1400,solid,O,m,521,7,1,8231.400000035763,186812.19999998808,7706,ATS,B,4
5,test,1,A,haborder.png,1,m,Thu Dec 04 2025 09:38:56 GMT-0600 (Central Standard Time),197509.69999998808,CFD-WF-011-006-HC.jpg,1500,solid,O,m,945,11,1,10697.5,186812.19999998808,7706,ATS,B,5
6,test,1,A,haborder.png,1,z,Thu Dec 04 2025 09:38:56 GMT-0600 (Central Standard Time),199775.10000002384,CFD-WF-026-008-A.jpg,1600,solid,O,z,633,10,1,12962.900000035763,186812.19999998808,7706,ATS,B,6
7,test,1,A,haborder.png,1,m,Thu Dec 04 2025 09:38:56 GMT-0600 (Central Standard Time),202857.69999998808,CFD-BM-015-017-HC.jpg,1700,solid,O,m,1341,1,1,16045.5,186812.19999998808,7706,ATS,B,7
7,test,1,A,haborder.png,0,z,Thu Dec 04 2025 09:38:56 GMT-0600 (Central Standard Time),205856.60000002384,CFD-BM-037-041-A.jpg,1600,solid,O,m,1383,2,1,19044.400000035763,186812.19999998808,7706,ATS,B,8
8,test,1,A,haborder.png,1,m,Thu Dec 04 2025 09:38:56 GMT-0600 (Central Standard Time),208406.89999997616,CFD-WM-012-007-HC.jpg,1700,solid,O,m,819,9,1,21594.69999998808,186812.19999998808,7706,ATS,B,9
9,test,1,A,haborder.png,1,m,Thu Dec 04 2025 09:38:56 GMT-0600 (Central Standard Time),211123.80000001192,CFD-BF-035-007-HC.jpg,2000,solid,O,m,683,5,1,24311.600000023842,186812.19999998808,7706,ATS,B,10
10,test,1,A,haborder.png,1,m,Thu Dec 04 2025 09:38:56 GMT-0600 (Central Standard Time),213121.60000002384,CFD-WM-011-006-HC.jpg,1400,solid,O,m,566,7,1,26309.400000035763,186812.19999998808,7706,ATS,B,11
11,test,1,A,haborder.png,1,m,Thu Dec 04 2025 09:38:56 GMT-0600 (Central Standard Time),215238.10000002384,CFD-BM-020-024-HC.jpg,1500,solid,O,m,593,3,1,28425.900000035763,186812.19999998808,7706,ATS,B,12
12,test,1,A,haborder.png,1,z,Thu Dec 04 2025 09:38:56 GMT-0600 (Central Standard Time),216936.39999997616,CFD-BF-051-043-A.jpg,1000,solid,O,z,675,4,1,30124.19999998808,186812.19999998808,7706,ATS,B,13
13,test,1,A,haborder.png,1,m,Thu Dec 04 2025 09:38:56 GMT-0600 (Central Standard Time),219137.0,CFD-BM-020-024-HC.jpg,1500,solid,O,m,675,3,1,32324.80000001192,186812.19999998808,7706,ATS,B,14
14,test,1,A,haborder.png,1,z,Thu Dec 04 2025 09:38:56 GMT-0600 (Central Standard Time),221203.10000002384,CFD-WF-013-015-A.jpg,1000,solid,O,z,1041,12,1,34390.90000003576,186812.19999998808,7706,ATS,B,15
15,test,1,A,haborder.png,1,z,Thu Dec 04 2025 09:38:56 GMT-0600 (Central Standard Time),223951.5,CFD-BM-037-041-A.jpg,1600,solid,O,z,1126,2,1,37139.30000001192,186812.19999998808,7706,ATS,B,16
16,test,1,A,haborder.png,1,m,Thu Dec 04 2025 09:38:56 GMT-0600 (Central Standard Time),226350.30000001192,CFD-WM-012-007-HC.jpg,1700,solid,O,m,669,9,1,39538.10000002384,186812.19999998808,7706,ATS,B,17
17,test,1,A,haborder.png,1,m,Thu Dec 04 2025 09:38:56 GMT-0600 (Central Standard Time),229749.69999998808,CFD-BF-035-007-HC.jpg,2000,solid,O,m,1370,5,1,42937.5,186812.19999998808,7706,ATS,B,18
18,test,1,A,haborder.png,1,z,Thu Dec 04 2025 09:38:56 GMT-0600 (Central Standard Time),231449.30000001192,CFD-WF-013-015-A.jpg,1000,solid,O,z,669,12,1,44637.10000002384,186812.19999998808,7706,ATS,B,19
19,test,1,A,haborder.png,1,m,Thu Dec 04 2025 09:38:56 GMT-0600 (Central Standard Time),234019.10000002384,CFD-WF-011-006-HC.jpg,1500,solid,O,m,1043,11,1,47206.90000003576,186812.19999998808,7706,ATS,B,20
20,test,1,A,haborder.png,1,z,Thu Dec 04 2025 09:38:56 GMT-0600 (Central Standard Time),235880.39999997616,CFD-BF-050-012-A.jpg,1200,solid,O,z,642,6,1,49068.19999998808,186812.19999998808,7706,ATS,B,21
21,test,1,A,haborder.png,1,z,Thu Dec 04 2025 09:38:56 GMT-0600 (Central Standard Time),238829.89999997616,CFD-WM-009-009-A.jpg,1900,solid,O,z,1027,8,1,52017.69999998808,186812.19999998808,7706,ATS,B,22
21,test,1,A,haborder.png,0,m,Thu Dec 04 2025 09:38:56 GMT-0600 (Central Standard Time),242069.69999998808,CFD-BM-015-017-HC.jpg,1700,solid,O,None,1515,1,1,55257.5,186812.19999998808,7706,ATS,B,23
22,test,1,A,haborder.png,1,z,Thu Dec 04 2025 09:38:56 GMT-0600 (Central Standard Time),244960.89999997616,CFD-WM-009-009-A.jpg,1900,solid,O,z,975,8,1,58148.69999998808,186812.19999998808,7706,ATS,B,24
1,test,1,B,mfborder.png,1,z,Thu Dec 04 2025 09:38:56 GMT-0600 (Central Standard Time),260972.0,CFD-WF-011-006-HC.jpg,1000,dash,O,z,605,12,1,1631.8999999761581,259340.10000002384,7706,ATS,B,1
2,test,1,B,mfborder.png,1,z,Thu Dec 04 2025 09:38:56 GMT-0600 (Central Standard Time),263254.10000002384,CFD-BF-027-013-HC.jpg,1500,dash,O,z,752,3,1,3914.0,259340.10000002384,7706,ATS,B,2
3,test,1,B,mfborder.png,1,m,Thu Dec 04 2025 09:38:56 GMT-0600 (Central Standard Time),265904.10000002384,CFD-BM-037-041-A.jpg,2000,dash,O,m,627,5,1,6564.0,259340.10000002384,7706,ATS,B,3
4,test,1,B,mfborder.png,1,m,Thu Dec 04 2025 09:38:56 GMT-0600 (Central Standard Time),267903.5,CFD-WM-037-060-A.jpg,1200,dash,O,m,777,6,1,8563.399999976158,259340.10000002384,7706,ATS,B,4
5,test,1,B,mfborder.png,1,z,Thu Dec 04 2025 09:38:56 GMT-0600 (Central Standard Time),270002.6999999881,CFD-BF-027-013-HC.jpg,1500,dash,O,z,581,3,1,10662.599999964237,259340.10000002384,7706,ATS,B,5
6,test,1,B,mfborder.png,1,z,Thu Dec 04 2025 09:38:56 GMT-0600 (Central Standard Time),271651.89999997616,CFD-WF-011-006-HC.jpg,1000,dash,O,z,623,12,1,12311.799999952316,259340.10000002384,7706,ATS,B,6
7,test,1,B,mfborder.png,1,z,Thu Dec 04 2025 09:38:56 GMT-0600 (Central Standard Time),274183.39999997616,CFD-WF-027-007-HC.jpg,1900,dash,O,z,609,8,1,14843.299999952316,259340.10000002384,7706,ATS,B,7
8,test,1,B,mfborder.png,1,m,Thu Dec 04 2025 09:38:56 GMT-0600 (Central Standard Time),276849.8000000119,CFD-BM-037-041-A.jpg,2000,dash,O,m,640,5,1,17509.69999998808,259340.10000002384,7706,ATS,B,8
9,test,1,B,mfborder.png,1,m,Thu Dec 04 2025 09:38:56 GMT-0600 (Central Standard Time),279200.10000002384,CFD-BM-020-024-HC.jpg,1700,dash,O,m,626,1,1,19860.0,259340.10000002384,7706,ATS,B,9
10,test,1,B,mfborder.png,1,m,Thu Dec 04 2025 09:38:56 GMT-0600 (Central Standard Time),281615.6999999881,CFD-WM-009-009-A.jpg,1700,dash,O,m,693,9,1,22275.599999964237,259340.10000002384,7706,ATS,B,10
11,test,1,B,mfborder.png,1,z,Thu Dec 04 2025 09:38:56 GMT-0600 (Central Standard Time),283832.10000002384,CFD-BF-035-007-HC.jpg,1400,dash,O,z,792,7,1,24492.0,259340.10000002384,7706,ATS,B,11
12,test,1,B,mfborder.png,1,m,Thu Dec 04 2025 09:38:56 GMT-0600 (Central Standard Time),286098.0,CFD-BM-041-048-A.jpg,1600,dash,O,m,640,2,1,26757.899999976158,259340.10000002384,7706,ATS,B,12
13,test,1,B,mfborder.png,1,z,Thu Dec 04 2025 09:38:56 GMT-0600 (Central Standard Time),287847.89999997616,CFD-BF-051-043-A.jpg,1000,dash,O,z,726,4,1,28507.799999952316,259340.10000002384,7706,ATS,B,13
14,test,1,B,mfborder.png,1,m,Thu Dec 04 2025 09:38:56 GMT-0600 (Central Standard Time),290196.10000002384,CFD-BM-020-024-HC.jpg,1700,dash,O,m,622,1,1,30856.0,259340.10000002384,7706,ATS,B,14
15,test,1,B,mfborder.png,1,m,Thu Dec 04 2025 09:38:56 GMT-0600 (Central Standard Time),292612.10000002384,CFD-WM-009-009-A.jpg,1700,dash,O,m,696,9,1,33272.0,259340.10000002384,7706,ATS,B,15
16,test,1,B,mfborder.png,1,m,Thu Dec 04 2025 09:38:56 GMT-0600 (Central Standard Time),294796.89999997616,CFD-WM-012-007-HC.jpg,1600,dash,O,m,551,10,1,35456.799999952316,259340.10000002384,7706,ATS,B,16
17,test,1,B,mfborder.png,1,z,Thu Dec 04 2025 09:38:56 GMT-0600 (Central Standard Time),296844.60000002384,CFD-WF-026-008-A.jpg,1500,dash,O,z,530,11,1,37504.5,259340.10000002384,7706,ATS,B,17
18,test,1,B,mfborder.png,1,m,Thu Dec 04 2025 09:38:56 GMT-0600 (Central Standard Time),299111.0,CFD-BM-041-048-A.jpg,1600,dash,O,m,637,2,1,39770.89999997616,259340.10000002384,7706,ATS,B,18
19,test,1,B,mfborder.png,1,z,Thu Dec 04 2025 09:38:56 GMT-0600 (Central Standard Time),301209.89999997616,CFD-WF-026-008-A.jpg,1500,dash,O,z,575,11,1,41869.799999952316,259340.10000002384,7706,ATS,B,19
20,test,1,B,mfborder.png,1,m,Thu Dec 04 2025 09:38:56 GMT-0600 (Central Standard Time),303375.5,CFD-WM-012-007-HC.jpg,1600,dash,O,m,544,10,1,44035.39999997616,259340.10000002384,7706,ATS,B,20
21,test,1,B,mfborder.png,1,z,Thu Dec 04 2025 09:38:56 GMT-0600 (Central Standard Time),305924.10000002384,CFD-WF-027-007-HC.jpg,1900,dash,O,z,620,8,1,46584.0,259340.10000002384,7706,ATS,B,21
22,test,1,B,mfborder.png,1,m,Thu Dec 04 2025 09:38:56 GMT-0600 (Central Standard Time),307907.1999999881,CFD-WM-037-060-A.jpg,1200,dash,O,m,755,6,1,48567.09999996424,259340.10000002384,7706,ATS,B,22
23,test,1,B,mfborder.png,1,z,Thu Dec 04 2025 09:38:56 GMT-0600 (Central Standard Time),309598.89999997616,CFD-BF-051-043-A.jpg,1000,dash,O,z,653,4,1,50258.799999952316,259340.10000002384,7706,ATS,B,23
24,test,1,B,mfborder.png,1,z,Thu Dec 04 2025 09:38:56 GMT-0600 (Central Standard Time),311642.3000000119,CFD-BF-035-007-HC.jpg,1400,dash,O,z,625,7,1,52302.19999998808,259340.10000002384,7706,ATS,B,24
1,7,1,C,haborder.png,1,z,Thu Dec 04 2025 09:38:56 GMT-0600 (Central Standard Time),363290.6999999881,CFD-BF-051-043-A.jpg,1900,dash,O,z,939,prac,1,3630.599999964237,359660.10000002384,7706,ATS,B,1
2,5,1,C,mfborder.png,1,m,Thu Dec 04 2025 09:38:56 GMT-0600 (Central Standard Time),366557.10000002384,CFD-BM-037-041-A.jpg,1200,dash,O,m,1254,prac,1,6897.0,359660.10000002384,7706,ATS,B,2
2,10,1,C,haborder.png,0,m,Thu Dec 04 2025 09:38:56 GMT-0600 (Central Standard Time),370354.3000000119,CFD-BM-020-024-HC.jpg,1500,solid,O,None,1516,prac,1,10694.199999988079,359660.10000002384,7706,ATS,B,3
3,9,1,C,haborder.png,1,z,Thu Dec 04 2025 09:38:56 GMT-0600 (Central Standard Time),373536.8000000119,CFD-WF-026-008-A.jpg,1600,dash,O,z,790,prac,1,13876.699999988079,359660.10000002384,7706,ATS,B,4
4,3,1,C,mfborder.png,1,z,Thu Dec 04 2025 09:38:56 GMT-0600 (Central Standard Time),376585.8000000119,CFD-BF-035-007-HC.jpg,1000,dash,O,z,1257,prac,1,16925.69999998808,359660.10000002384,7706,ATS,B,5
5,11,1,C,haborder.png,1,m,Thu Dec 04 2025 09:38:56 GMT-0600 (Central Standard Time),379101.5,CFD-WM-011-006-HC.jpg,1000,dash,O,m,727,prac,1,19441.399999976158,359660.10000002384,7706,ATS,B,6
5,4,1,C,mfborder.png,0,m,Thu Dec 04 2025 09:38:56 GMT-0600 (Central Standard Time),383233.1999999881,CFD-BM-015-017-HC.jpg,2000,solid,O,z,1333,prac,1,23573.099999964237,359660.10000002384,7706,ATS,B,7
6,8,1,C,haborder.png,1,z,Thu Dec 04 2025 09:38:56 GMT-0600 (Central Standard Time),386516.0,CFD-BF-050-012-A.jpg,1700,solid,O,z,795,prac,1,26855.899999976158,359660.10000002384,7706,ATS,B,8
7,2,1,C,mfborder.png,1,z,Thu Dec 04 2025 09:38:56 GMT-0600 (Central Standard Time),389715.89999997616,CFD-WF-013-015-A.jpg,1500,solid,O,z,929,prac,1,30055.799999952316,359660.10000002384,7706,ATS,B,9
8,1,1,C,mfborder.png,1,z,Thu Dec 04 2025 09:38:56 GMT-0600 (Central Standard Time),393231.60000002384,CFD-WF-011-006-HC.jpg,1600,dash,O,z,1101,prac,1,33571.5,359660.10000002384,7706,ATS,B,10
9,12,1,C,haborder.png,1,m,Thu Dec 04 2025 09:38:56 GMT-0600 (Central Standard Time),396348.3000000119,CFD-WM-011-006-HC.jpg,1400,solid,O,m,921,prac,1,36688.19999998808,359660.10000002384,7706,ATS,B,11
9,6,1,C,mfborder.png,0,m,Thu Dec 04 2025 09:38:56 GMT-0600 (Central Standard Time),400345.0,CFD-WM-009-009-A.jpg,1700,solid,O,None,1517,prac,1,40684.89999997616,359660.10000002384,7706,ATS,B,12
0,5,2,C,mfborder.png,0,m,Thu Dec 04 2025 09:38:56 GMT-0600 (Central Standard Time),411025.89999997616,CFD-BM-037-041-A.jpg,1200,dash,O,None,1514,prac,1,51365.799999952316,359660.10000002384,7706,ATS,B,1
1,9,2,C,haborder.png,1,z,Thu Dec 04 2025 09:38:56 GMT-0600 (Central Standard Time),414292.39999997616,CFD-WF-026-008-A.jpg,1600,dash,O,z,879,prac,1,54632.299999952316,359660.10000002384,7706,ATS,B,2
2,2,2,C,mfborder.png,1,z,Thu Dec 04 2025 09:38:56 GMT-0600 (Central Standard Time),417574.10000002384,CFD-WF-013-015-A.jpg,1500,solid,O,z,987,prac,1,57914.0,359660.10000002384,7706,ATS,B,3
3,10,2,C,haborder.png,1,m,Thu Dec 04 2025 09:38:56 GMT-0600 (Central Standard Time),420654.6999999881,CFD-BM-020-024-HC.jpg,1500,solid,O,m,784,prac,1,60994.59999996424,359660.10000002384,7706,ATS,B,4
4,6,2,C,mfborder.png,1,m,Thu Dec 04 2025 09:38:56 GMT-0600 (Central Standard Time),424372.89999997616,CFD-WM-009-009-A.jpg,1700,solid,O,m,1245,prac,1,64712.799999952316,359660.10000002384,7706,ATS,B,5
5,12,2,C,haborder.png,1,m,Thu Dec 04 2025 09:38:56 GMT-0600 (Central Standard Time),427636.60000002384,CFD-WM-011-006-HC.jpg,1400,solid,O,m,1076,prac,1,67976.5,359660.10000002384,7706,ATS,B,6
6,3,2,C,mfborder.png,1,z,Thu Dec 04 2025 09:38:56 GMT-0600 (Central Standard Time),430634.89999997616,CFD-BF-035-007-HC.jpg,1000,dash,O,z,1204,prac,1,70974.79999995232,359660.10000002384,7706,ATS,B,7
7,11,2,C,haborder.png,1,m,Thu Dec 04 2025 09:38:56 GMT-0600 (Central Standard Time),433169.0,CFD-WM-011-006-HC.jpg,1000,dash,O,m,737,prac,1,73508.89999997616,359660.10000002384,7706,ATS,B,8
8,1,2,C,mfborder.png,1,z,Thu Dec 04 2025 09:38:56 GMT-0600 (Central Standard Time),436751.39999997616,CFD-WF-011-006-HC.jpg,1600,dash,O,z,1182,prac,1,77091.29999995232,359660.10000002384,7706,ATS,B,9
9,8,2,C,haborder.png,1,z,Thu Dec 04 2025 09:38:56 GMT-0600 (Central Standard Time),439982.89999997616,CFD-BF-050-012-A.jpg,1700,solid,O,z,734,prac,1,80322.79999995232,359660.10000002384,7706,ATS,B,10
10,4,2,C,mfborder.png,1,m,Thu Dec 04 2025 09:38:56 GMT-0600 (Central Standard Time),444148.10000002384,CFD-BM-015-017-HC.jpg,2000,solid,O,m,1386,prac,1,84488.0,359660.10000002384,7706,ATS,B,11
11,7,2,C,haborder.png,1,z,Thu Dec 04 2025 09:38:56 GMT-0600 (Central Standard Time),447932.89999997616,CFD-BF-051-043-A.jpg,1900,dash,O,z,1112,prac,1,88272.79999995232,359660.10000002384,7706,ATS,B,12
1,test,1,C,haborder.png,1,m,Thu Dec 04 2025 09:38:56 GMT-0600 (Central Standard Time),468106.39999997616,CFD-BF-035-007-HC.jpg,1600,solid,O,m,1383,10,1,3016.0,465090.39999997616,7706,ATS,B,1
1,test,1,C,mfborder.png,0,m,Thu Dec 04 2025 09:38:56 GMT-0600 (Central Standard Time),470841.10000002384,CFD-BM-020-024-HC.jpg,1200,dash,O,None,1518,6,1,5750.700000047684,465090.39999997616,7706,ATS,B,2
1,test,1,C,haborder.png,0,m,Thu Dec 04 2025 09:38:56 GMT-0600 (Central Standard Time),473688.0,CFD-WF-027-007-HC.jpg,1500,solid,O,z,1310,11,1,8597.600000023842,465090.39999997616,7706,ATS,B,3
2,test,1,C,haborder.png,1,z,Thu Dec 04 2025 09:38:56 GMT-0600 (Central Standard Time),476570.8000000119,CFD-BM-041-048-A.jpg,1700,solid,O,z,1159,9,1,11480.400000035763,465090.39999997616,7706,ATS,B,4
3,test,1,C,haborder.png,1,z,Thu Dec 04 2025 09:38:56 GMT-0600 (Central Standard Time),478786.0,CFD-WM-009-009-A.jpg,1400,solid,O,z,786,7,1,13695.600000023842,465090.39999997616,7706,ATS,B,5
4,test,1,C,mfborder.png,1,m,Thu Dec 04 2025 09:38:56 GMT-0600 (Central Standard Time),481053.60000002384,CFD-WM-012-007-HC.jpg,1000,dash,O,m,1245,4,1,15963.200000047684,465090.39999997616,7706,ATS,B,6
4,test,1,C,haborder.png,0,m,Thu Dec 04 2025 09:38:56 GMT-0600 (Central Standard Time),482969.8000000119,CFD-WF-011-006-HC.jpg,1000,solid,O,z,886,12,1,17879.400000035763,465090.39999997616,7706,ATS,B,7
4,test,1,C,haborder.png,0,z,Thu Dec 04 2025 09:38:56 GMT-0600 (Central Standard Time),486100.3000000119,CFD-BM-037-041-A.jpg,1900,solid,O,m,1212,8,1,21009.900000035763,465090.39999997616,7706,ATS,B,8
5,test,1,C,mfborder.png,1,m,Thu Dec 04 2025 09:38:56 GMT-0600 (Central Standard Time),488051.60000002384,CFD-WM-012-007-HC.jpg,1000,dash,O,m,924,4,1,22961.200000047684,465090.39999997616,7706,ATS,B,9
6,test,1,C,haborder.png,1,m,Thu Dec 04 2025 09:38:56 GMT-0600 (Central Standard Time),490982.1999999881,CFD-BF-035-007-HC.jpg,1600,solid,O,m,1301,10,1,25891.80000001192,465090.39999997616,7706,ATS,B,10
7,test,1,C,mfborder.png,1,z,Thu Dec 04 2025 09:38:56 GMT-0600 (Central Standard Time),493932.1999999881,CFD-WF-026-008-A.jpg,1500,dash,O,z,1433,3,1,28841.80000001192,465090.39999997616,7706,ATS,B,11
7,test,1,C,haborder.png,0,z,Thu Dec 04 2025 09:38:56 GMT-0600 (Central Standard Time),496863.8000000119,CFD-BM-041-048-A.jpg,1700,solid,O,m,1199,9,1,31773.400000035763,465090.39999997616,7706,ATS,B,12
8,test,1,C,mfborder.png,1,z,Thu Dec 04 2025 09:38:56 GMT-0600 (Central Standard Time),499498.0,CFD-WF-026-008-A.jpg,1500,dash,O,z,1109,3,1,34407.60000002384,465090.39999997616,7706,ATS,B,13
9,test,1,C,mfborder.png,1,z,Thu Dec 04 2025 09:38:56 GMT-0600 (Central Standard Time),502096.3000000119,CFD-BF-027-013-HC.jpg,1700,dash,O,z,874,1,1,37005.90000003576,465090.39999997616,7706,ATS,B,14
9,test,1,C,haborder.png,0,z,Thu Dec 04 2025 09:38:56 GMT-0600 (Central Standard Time),505028.1999999881,CFD-BM-037-041-A.jpg,1900,solid,O,m,1001,8,1,39937.80000001192,465090.39999997616,7706,ATS,B,15
9,test,1,C,haborder.png,0,m,Thu Dec 04 2025 09:38:56 GMT-0600 (Central Standard Time),507195.39999997616,CFD-WF-011-006-HC.jpg,1000,solid,O,z,1140,12,1,42105.0,465090.39999997616,7706,ATS,B,16
9,test,1,C,haborder.png,0,z,Thu Dec 04 2025 09:38:56 GMT-0600 (Central Standard Time),510113.89999997616,CFD-WM-009-009-A.jpg,1400,solid,O,None,1501,7,1,45023.5,465090.39999997616,7706,ATS,B,17
9,test,1,C,mfborder.png,0,m,Thu Dec 04 2025 09:38:56 GMT-0600 (Central Standard Time),513226.6999999881,CFD-WM-037-060-A.jpg,2000,dash,O,z,1085,5,1,48136.30000001192,465090.39999997616,7706,ATS,B,18
10,test,1,C,mfborder.png,1,z,Thu Dec 04 2025 09:38:56 GMT-0600 (Central Standard Time),515558.6999999881,CFD-BF-051-043-A.jpg,1600,dash,O,z,693,2,1,50468.30000001192,465090.39999997616,7706,ATS,B,19
11,test,1,C,mfborder.png,1,z,Thu Dec 04 2025 09:38:56 GMT-0600 (Central Standard Time),518039.1999999881,CFD-BF-027-013-HC.jpg,1700,dash,O,z,758,1,1,52948.80000001192,465090.39999997616,7706,ATS,B,20
12,test,1,C,mfborder.png,1,z,Thu Dec 04 2025 09:38:56 GMT-0600 (Central Standard Time),520340.39999997616,CFD-BF-051-043-A.jpg,1600,dash,O,z,671,2,1,55250.0,465090.39999997616,7706,ATS,B,21
13,test,1,C,haborder.png,1,m,Thu Dec 04 2025 09:38:56 GMT-0600 (Central Standard Time),522872.8000000119,CFD-WF-027-007-HC.jpg,1500,solid,O,m,1001,11,1,57782.40000003576,465090.39999997616,7706,ATS,B,22
13,test,1,C,mfborder.png,0,m,Thu Dec 04 2025 09:38:56 GMT-0600 (Central Standard Time),525989.0,CFD-WM-037-060-A.jpg,2000,dash,O,z,1096,5,1,60898.60000002384,465090.39999997616,7706,ATS,B,23
14,test,1,C,mfborder.png,1,m,Thu Dec 04 2025 09:38:56 GMT-0600 (Central Standard Time),528503.5,CFD-BM-020-024-HC.jpg,1200,dash,O,m,1284,6,1,63413.10000002384,465090.39999997616,7706,ATS,B,24
1,test,2,C,haborder.png,1,m,Thu Dec 04 2025 09:38:56 GMT-0600 (Central Standard Time),547547.3999999762,CFD-WM-011-006-HC.jpg,1000,solid,O,m,1319,12,1,2348.0,545199.3999999762,7706,ATS,B,1
2,test,2,C,mfborder.png,1,z,Thu Dec 04 2025 09:38:56 GMT-0600 (Central Standard Time),550114.0,CFD-WF-011-006-HC.jpg,1700,dash,O,z,834,1,1,4914.600000023842,545199.3999999762,7706,ATS,B,2
3,test,2,C,haborder.png,1,m,Thu Dec 04 2025 09:38:56 GMT-0600 (Central Standard Time),552346.1999999881,CFD-WM-011-006-HC.jpg,1500,solid,O,m,706,11,1,7146.800000011921,545199.3999999762,7706,ATS,B,3
3,test,2,C,mfborder.png,0,m,Thu Dec 04 2025 09:38:56 GMT-0600 (Central Standard Time),554462.6000000238,CFD-WM-009-009-A.jpg,1200,dash,O,z,893,6,1,9263.200000047684,545199.3999999762,7706,ATS,B,4
4,test,2,C,haborder.png,1,z,Thu Dec 04 2025 09:38:56 GMT-0600 (Central Standard Time),557327.8999999762,CFD-BF-050-012-A.jpg,1900,solid,O,z,941,8,1,12128.5,545199.3999999762,7706,ATS,B,5
4,test,2,C,mfborder.png,0,z,Thu Dec 04 2025 09:38:56 GMT-0600 (Central Standard Time),560352.3999999762,CFD-BF-035-007-HC.jpg,1500,dash,O,None,1501,3,1,15153.0,545199.3999999762,7706,ATS,B,6
5,test,2,C,mfborder.png,1,m,Thu Dec 04 2025 09:38:56 GMT-0600 (Central Standard Time),562693.3999999762,CFD-BM-015-017-HC.jpg,1000,dash,O,m,1320,4,1,17494.0,545199.3999999762,7706,ATS,B,7
6,test,2,C,haborder.png,1,m,Thu Dec 04 2025 09:38:56 GMT-0600 (Central Standard Time),564992.6000000238,CFD-WM-011-006-HC.jpg,1500,solid,O,m,765,11,1,19793.200000047684,545199.3999999762,7706,ATS,B,8
7,test,2,C,mfborder.png,1,z,Thu Dec 04 2025 09:38:56 GMT-0600 (Central Standard Time),567658.3000000119,CFD-WF-013-015-A.jpg,1600,dash,O,z,1038,2,1,22458.900000035763,545199.3999999762,7706,ATS,B,9
8,test,2,C,haborder.png,1,z,Thu Dec 04 2025 09:38:56 GMT-0600 (Central Standard Time),570157.0,CFD-BF-051-043-A.jpg,1400,solid,O,z,1077,7,1,24957.600000023842,545199.3999999762,7706,ATS,B,10
9,test,2,C,haborder.png,1,z,Thu Dec 04 2025 09:38:56 GMT-0600 (Central Standard Time),572690.3000000119,CFD-WF-026-008-A.jpg,1700,solid,O,z,806,9,1,27490.900000035763,545199.3999999762,7706,ATS,B,11
10,test,2,C,haborder.png,1,z,Thu Dec 04 2025 09:38:56 GMT-0600 (Central Standard Time),575305.6999999881,CFD-BF-050-012-A.jpg,1900,solid,O,z,683,8,1,30106.30000001192,545199.3999999762,7706,ATS,B,12
11,test,2,C,haborder.png,1,m,Thu Dec 04 2025 09:38:56 GMT-0600 (Central Standard Time),577638.5,CFD-BM-020-024-HC.jpg,1600,solid,O,m,710,10,1,32439.100000023842,545199.3999999762,7706,ATS,B,13
11,test,2,C,mfborder.png,0,z,Thu Dec 04 2025 09:38:56 GMT-0600 (Central Standard Time),579904.6000000238,CFD-BF-035-007-HC.jpg,1500,dash,O,m,740,3,1,34705.200000047684,545199.3999999762,7706,ATS,B,14
11,test,2,C,mfborder.png,0,m,Thu Dec 04 2025 09:38:56 GMT-0600 (Central Standard Time),583436.6000000238,CFD-BM-037-041-A.jpg,2000,dash,O,None,1516,5,1,38237.200000047684,545199.3999999762,7706,ATS,B,15
11,test,2,C,mfborder.png,0,m,Thu Dec 04 2025 09:38:56 GMT-0600 (Central Standard Time),585069.6000000238,CFD-BM-015-017-HC.jpg,1000,dash,O,z,604,4,1,39870.200000047684,545199.3999999762,7706,ATS,B,16
12,test,2,C,haborder.png,1,m,Thu Dec 04 2025 09:38:56 GMT-0600 (Central Standard Time),587818.5,CFD-BM-020-024-HC.jpg,1600,solid,O,m,1123,10,1,42619.10000002384,545199.3999999762,7706,ATS,B,17
12,test,2,C,mfborder.png,0,m,Thu Dec 04 2025 09:38:56 GMT-0600 (Central Standard Time),590701.0,CFD-BM-037-041-A.jpg,2000,dash,O,z,861,5,1,45501.60000002384,545199.3999999762,7706,ATS,B,18
13,test,2,C,haborder.png,1,z,Thu Dec 04 2025 09:38:56 GMT-0600 (Central Standard Time),592783.1000000238,CFD-BF-051-043-A.jpg,1400,solid,O,z,651,7,1,47583.700000047684,545199.3999999762,7706,ATS,B,19
14,test,2,C,mfborder.png,1,z,Thu Dec 04 2025 09:38:56 GMT-0600 (Central Standard Time),595315.6000000238,CFD-WF-013-015-A.jpg,1600,dash,O,z,903,2,1,50116.200000047684,545199.3999999762,7706,ATS,B,20
15,test,2,C,haborder.png,1,z,Thu Dec 04 2025 09:38:56 GMT-0600 (Central Standard Time),597781.6999999881,CFD-WF-026-008-A.jpg,1700,solid,O,z,736,9,1,52582.30000001192,545199.3999999762,7706,ATS,B,21
15,test,2,C,mfborder.png,0,m,Thu Dec 04 2025 09:38:56 GMT-0600 (Central Standard Time),599932.3000000119,CFD-WM-009-009-A.jpg,1200,dash,O,z,919,6,1,54732.90000003576,545199.3999999762,7706,ATS,B,22
16,test,2,C,haborder.png,1,m,Thu Dec 04 2025 09:38:56 GMT-0600 (Central Standard Time),601713.8999999762,CFD-WM-011-006-HC.jpg,1000,solid,O,m,752,12,1,56514.5,545199.3999999762,7706,ATS,B,23
17,test,2,C,mfborder.png,1,z,Thu Dec 04 2025 09:38:56 GMT-0600 (Central Standard Time),604279.8000000119,CFD-WF-011-006-HC.jpg,1700,dash,O,z,835,1,1,59080.40000003576,545199.3999999762,7706,ATS,B,24
0,test,3,C,haborder.png,0,m,Thu Dec 04 2025 09:38:56 GMT-0600 (Central Standard Time),609903.1999999881,CFD-WF-011-006-HC.jpg,1000,solid,O,None,1515,12,1,2541.199999988079,607362.0,7706,ATS,B,1
0,test,3,C,mfborder.png,0,z,Thu Dec 04 2025 09:38:56 GMT-0600 (Central Standard Time),613126.8000000119,CFD-BF-027-013-HC.jpg,1700,dash,O,None,1515,1,1,5764.800000011921,607362.0,7706,ATS,B,2
1,test,3,C,mfborder.png,1,m,Thu Dec 04 2025 09:38:56 GMT-0600 (Central Standard Time),615192.8000000119,CFD-WM-012-007-HC.jpg,1000,dash,O,m,1034,4,1,7830.800000011921,607362.0,7706,ATS,B,3
1,test,3,C,haborder.png,0,z,Thu Dec 04 2025 09:38:56 GMT-0600 (Central Standard Time),618042.0,CFD-WM-009-009-A.jpg,1400,solid,O,m,1418,7,1,10680.0,607362.0,7706,ATS,B,4
1,test,3,C,haborder.png,0,m,Thu Dec 04 2025 09:38:56 GMT-0600 (Central Standard Time),620357.8999999762,CFD-WF-027-007-HC.jpg,1500,solid,O,z,787,11,1,12995.899999976158,607362.0,7706,ATS,B,5
1,test,3,C,mfborder.png,0,m,Thu Dec 04 2025 09:38:56 GMT-0600 (Central Standard Time),623007.0,CFD-BM-020-024-HC.jpg,1200,dash,O,z,1419,6,1,15645.0,607362.0,7706,ATS,B,6
2,test,3,C,mfborder.png,1,z,Thu Dec 04 2025 09:38:56 GMT-0600 (Central Standard Time),625307.1999999881,CFD-WF-026-008-A.jpg,1500,dash,O,z,783,3,1,17945.19999998808,607362.0,7706,ATS,B,7
3,test,3,C,mfborder.png,1,m,Thu Dec 04 2025 09:38:56 GMT-0600 (Central Standard Time),627155.8000000119,CFD-WM-012-007-HC.jpg,1000,dash,O,m,829,4,1,19793.80000001192,607362.0,7706,ATS,B,8
4,test,3,C,mfborder.png,1,z,Thu Dec 04 2025 09:38:56 GMT-0600 (Central Standard Time),629355.0,CFD-WF-026-008-A.jpg,1500,dash,O,z,672,3,1,21993.0,607362.0,7706,ATS,B,9
4,test,3,C,haborder.png,0,z,Thu Dec 04 2025 09:38:56 GMT-0600 (Central Standard Time),631487.5,CFD-WM-009-009-A.jpg,1400,solid,O,m,701,7,1,24125.5,607362.0,7706,ATS,B,10
4,test,3,C,haborder.png,0,m,Thu Dec 04 2025 09:38:56 GMT-0600 (Central Standard Time),634203.5,CFD-WF-027-007-HC.jpg,1500,solid,O,z,1189,11,1,26841.5,607362.0,7706,ATS,B,11
4,test,3,C,haborder.png,0,z,Thu Dec 04 2025 09:38:56 GMT-0600 (Central Standard Time),637352.3000000119,CFD-BM-041-048-A.jpg,1700,solid,O,m,1415,9,1,29990.30000001192,607362.0,7706,ATS,B,12
5,test,3,C,haborder.png,1,z,Thu Dec 04 2025 09:38:56 GMT-0600 (Central Standard Time),640418.6000000238,CFD-BM-037-041-A.jpg,1900,solid,O,z,1117,8,1,33056.60000002384,607362.0,7706,ATS,B,13
5,test,3,C,mfborder.png,0,z,Thu Dec 04 2025 09:38:56 GMT-0600 (Central Standard Time),643652.0,CFD-BF-027-013-HC.jpg,1700,dash,O,None,1516,1,1,36290.0,607362.0,7706,ATS,B,14
5,test,3,C,haborder.png,0,m,Thu Dec 04 2025 09:38:56 GMT-0600 (Central Standard Time),646783.6000000238,CFD-BF-035-007-HC.jpg,1600,solid,O,None,1515,10,1,39421.60000002384,607362.0,7706,ATS,B,15
6,test,3,C,mfborder.png,1,z,Thu Dec 04 2025 09:38:56 GMT-0600 (Central Standard Time),649150.6000000238,CFD-BF-051-043-A.jpg,1600,dash,O,z,746,2,1,41788.60000002384,607362.0,7706,ATS,B,16
6,test,3,C,haborder.png,0,z,Thu Dec 04 2025 09:38:56 GMT-0600 (Central Standard Time),651764.6999999881,CFD-BM-037-041-A.jpg,1900,solid,O,m,688,8,1,44402.69999998808,607362.0,7706,ATS,B,17
6,test,3,C,haborder.png,0,m,Thu Dec 04 2025 09:38:56 GMT-0600 (Central Standard Time),654297.1000000238,CFD-WF-011-006-HC.jpg,1000,solid,O,None,1515,12,1,46935.10000002384,607362.0,7706,ATS,B,18
6,test,3,C,mfborder.png,0,m,Thu Dec 04 2025 09:38:56 GMT-0600 (Central Standard Time),657029.6999999881,CFD-BM-020-024-HC.jpg,1200,dash,O,None,1515,6,1,49667.69999998808,607362.0,7706,ATS,B,19
6,test,3,C,mfborder.png,0,m,Thu Dec 04 2025 09:38:56 GMT-0600 (Central Standard Time),659961.8999999762,CFD-WM-037-060-A.jpg,2000,dash,O,z,881,5,1,52599.89999997616,607362.0,7706,ATS,B,20
6,test,3,C,haborder.png,0,z,Thu Dec 04 2025 09:38:56 GMT-0600 (Central Standard Time),663194.8999999762,CFD-BM-041-048-A.jpg,1700,solid,O,None,1515,9,1,55832.89999997616,607362.0,7706,ATS,B,21
6,test,3,C,mfborder.png,0,m,Thu Dec 04 2025 09:38:56 GMT-0600 (Central Standard Time),666027.3999999762,CFD-WM-037-060-A.jpg,2000,dash,O,z,805,5,1,58665.39999997616,607362.0,7706,ATS,B,22
6,test,3,C,haborder.png,0,m,Thu Dec 04 2025 09:38:56 GMT-0600 (Central Standard Time),669159.8999999762,CFD-BF-035-007-HC.jpg,1600,solid,O,None,1516,10,1,61797.89999997616,607362.0,7706,ATS,B,23
7,test,3,C,mfborder.png,1,z,Thu Dec 04 2025 09:38:56 GMT-0600 (Central Standard Time),671610.0,CFD-BF-051-043-A.jpg,1600,dash,O,z,832,2,1,64248.0,607362.0,7706,ATS,B,24
1,test,4,C,mfborder.png,1,z,Thu Dec 04 2025 09:38:56 GMT-0600 (Central Standard Time),707716.0,CFD-WF-013-015-A.jpg,1600,dash,O,z,1256,2,1,2885.699999988079,704830.3000000119,7706,ATS,B,1
2,test,4,C,haborder.png,1,z,Thu Dec 04 2025 09:38:56 GMT-0600 (Central Standard Time),710030.6000000238,CFD-BF-051-043-A.jpg,1400,solid,O,z,896,7,1,5200.300000011921,704830.3000000119,7706,ATS,B,2
3,test,4,C,mfborder.png,1,m,Thu Dec 04 2025 09:38:56 GMT-0600 (Central Standard Time),712360.8000000119,CFD-WM-009-009-A.jpg,1200,dash,O,m,1104,6,1,7530.5,704830.3000000119,7706,ATS,B,3
4,test,4,C,haborder.png,1,z,Thu Dec 04 2025 09:38:56 GMT-0600 (Central Standard Time),714878.5,CFD-WF-026-008-A.jpg,1700,solid,O,z,796,9,1,10048.199999988079,704830.3000000119,7706,ATS,B,4
5,test,4,C,haborder.png,1,m,Thu Dec 04 2025 09:38:56 GMT-0600 (Central Standard Time),717545.6999999881,CFD-BM-020-024-HC.jpg,1600,solid,O,m,1041,10,1,12715.399999976158,704830.3000000119,7706,ATS,B,5
5,test,4,C,haborder.png,0,z,Thu Dec 04 2025 09:38:56 GMT-0600 (Central Standard Time),720984.8999999762,CFD-BF-050-012-A.jpg,1900,solid,O,None,1517,8,1,16154.599999964237,704830.3000000119,7706,ATS,B,6
5,test,4,C,mfborder.png,0,m,Thu Dec 04 2025 09:38:56 GMT-0600 (Central Standard Time),723191.6999999881,CFD-WM-009-009-A.jpg,1200,dash,O,z,992,6,1,18361.399999976158,704830.3000000119,7706,ATS,B,7
6,test,4,C,haborder.png,1,m,Thu Dec 04 2025 09:38:56 GMT-0600 (Central Standard Time),725674.3000000119,CFD-WM-011-006-HC.jpg,1500,solid,O,m,952,11,1,20844.0,704830.3000000119,7706,ATS,B,8
7,test,4,C,mfborder.png,1,z,Thu Dec 04 2025 09:38:56 GMT-0600 (Central Standard Time),728439.3000000119,CFD-WF-013-015-A.jpg,1600,dash,O,z,1142,2,1,23609.0,704830.3000000119,7706,ATS,B,9
8,test,4,C,haborder.png,1,m,Thu Dec 04 2025 09:38:56 GMT-0600 (Central Standard Time),731239.1999999881,CFD-WM-011-006-HC.jpg,1500,solid,O,m,1268,11,1,26408.899999976158,704830.3000000119,7706,ATS,B,10
8,test,4,C,mfborder.png,0,m,Thu Dec 04 2025 09:38:56 GMT-0600 (Central Standard Time),734472.1000000238,CFD-BM-037-041-A.jpg,2000,dash,O,z,1209,5,1,29641.80000001192,704830.3000000119,7706,ATS,B,11
9,test,4,C,haborder.png,1,z,Thu Dec 04 2025 09:38:56 GMT-0600 (Central Standard Time),737270.6000000238,CFD-BF-051-043-A.jpg,1400,solid,O,z,1377,7,1,32440.30000001192,704830.3000000119,7706,ATS,B,12
10,test,4,C,haborder.png,1,m,Thu Dec 04 2025 09:38:56 GMT-0600 (Central Standard Time),739953.3000000119,CFD-BM-020-024-HC.jpg,1600,solid,O,m,1043,10,1,35123.0,704830.3000000119,7706,ATS,B,13
10,test,4,C,mfborder.png,0,m,Thu Dec 04 2025 09:38:56 GMT-0600 (Central Standard Time),742286.5,CFD-BM-015-017-HC.jpg,1000,dash,O,z,1304,4,1,37456.19999998808,704830.3000000119,7706,ATS,B,14
11,test,4,C,mfborder.png,1,m,Thu Dec 04 2025 09:38:56 GMT-0600 (Central Standard Time),745651.1999999881,CFD-BM-037-041-A.jpg,2000,dash,O,m,1347,5,1,40820.89999997616,704830.3000000119,7706,ATS,B,15
12,test,4,C,mfborder.png,1,z,Thu Dec 04 2025 09:38:56 GMT-0600 (Central Standard Time),748366.8000000119,CFD-BF-035-007-HC.jpg,1500,dash,O,z,1193,3,1,43536.5,704830.3000000119,7706,ATS,B,16
13,test,4,C,mfborder.png,1,m,Thu Dec 04 2025 09:38:56 GMT-0600 (Central Standard Time),750249.1999999881,CFD-BM-015-017-HC.jpg,1000,dash,O,m,856,4,1,45418.89999997616,704830.3000000119,7706,ATS,B,17
14,test,4,C,mfborder.png,1,z,Thu Dec 04 2025 09:38:56 GMT-0600 (Central Standard Time),752515.8999999762,CFD-BF-035-007-HC.jpg,1500,dash,O,z,738,3,1,47685.59999996424,704830.3000000119,7706,ATS,B,18
15,test,4,C,haborder.png,1,m,Thu Dec 04 2025 09:38:56 GMT-0600 (Central Standard Time),754814.6999999881,CFD-WM-011-006-HC.jpg,1000,solid,O,m,1276,12,1,49984.39999997616,704830.3000000119,7706,ATS,B,19
16,test,4,C,haborder.png,1,z,Thu Dec 04 2025 09:38:56 GMT-0600 (Central Standard Time),757914.6000000238,CFD-WF-026-008-A.jpg,1700,solid,O,z,1353,9,1,53084.30000001192,704830.3000000119,7706,ATS,B,20
17,test,4,C,haborder.png,1,m,Thu Dec 04 2025 09:38:56 GMT-0600 (Central Standard Time),759830.5,CFD-WM-011-006-HC.jpg,1000,solid,O,m,895,12,1,55000.19999998808,704830.3000000119,7706,ATS,B,21
17,test,4,C,mfborder.png,0,z,Thu Dec 04 2025 09:38:56 GMT-0600 (Central Standard Time),763062.1000000238,CFD-WF-011-006-HC.jpg,1700,dash,O,None,1515,1,1,58231.80000001192,704830.3000000119,7706,ATS,B,22
17,test,4,C,haborder.png,0,z,Thu Dec 04 2025 09:38:56 GMT-0600 (Central Standard Time),766494.6999999881,CFD-BF-050-012-A.jpg,1900,solid,O,None,1516,8,1,61664.39999997616,704830.3000000119,7706,ATS,B,23
18,test,4,C,mfborder.png,1,z,Thu Dec 04 2025 09:38:56 GMT-0600 (Central Standard Time),769595.1000000238,CFD-WF-011-006-HC.jpg,1700,dash,O,z,1374,1,1,64764.80000001192,704830.3000000119,7706,ATS,B,24
