block_c,block_dur,condition,countdown,datetime,endtime,list,multichar_response,project,response,response_time,session_number,start_end,starttime,subject_id,task,task_vers,trial
,,,,Thu Aug 21 2025 09:39:32 GMT-0500 (Central Daylight Time),,,,O,space,866,1,,,7204,WL,C,
prac,,0,,Thu Aug 21 2025 09:39:32 GMT-0500 (Central Daylight Time),,NA,b,O,b,2038,1,,,7204,WL,C,1.0
prac,,0,,Thu Aug 21 2025 09:39:32 GMT-0500 (Central Daylight Time),,NA,bo,O,o,166,1,,,7204,WL,C,1.0
prac,,0,,Thu Aug 21 2025 09:39:32 GMT-0500 (Central Daylight Time),,NA,boo,O,o,142,1,,,7204,WL,C,1.0
prac,,0,,Thu Aug 21 2025 09:39:32 GMT-0500 (Central Daylight Time),,NA,boos,O,s,132,1,,,7204,WL,C,1.0
prac,,0,,Thu Aug 21 2025 09:39:32 GMT-0500 (Central Daylight Time),,NA,boost,O,t,114,1,,,7204,WL,C,1.0
prac,,0,,Thu Aug 21 2025 09:39:32 GMT-0500 (Central Daylight Time),,NA,boostenter,O,enter,775,1,,,7204,WL,C,1.0
1,1.063999891281128,learn,58936.00010871887,Thu Aug 21 2025 09:39:32 GMT-0500 (Central Daylight Time),164618.30000007153,A,t,O,t,1056,1,1064.3000000715256,163554.0,7204,WL,C,1.0
1,1.2309999465942383,learn,58769.00005340576,Thu Aug 21 2025 09:39:32 GMT-0500 (Central Daylight Time),164784.5,A,to,O,o,157,1,1230.5,163554.0,7204,WL,C,1.0
1,1.3819999694824219,learn,58618.00003051758,Thu Aug 21 2025 09:39:32 GMT-0500 (Central Daylight Time),164935.60000002384,A,tow,O,w,140,1,1381.6000000238419,163554.0,7204,WL,C,1.0
1,1.4819998741149902,learn,58518.00012588501,Thu Aug 21 2025 09:39:32 GMT-0500 (Central Daylight Time),165035.30000007153,A,towe,O,e,77,1,1481.3000000715256,163554.0,7204,WL,C,1.0
1,1.5809998512268066,learn,58419.00014877319,Thu Aug 21 2025 09:39:32 GMT-0500 (Central Daylight Time),165135.0,A,tower,O,r,76,1,1581.0,163554.0,7204,WL,C,1.0
1,3.2639999389648438,learn,56736.000061035156,Thu Aug 21 2025 09:39:32 GMT-0500 (Central Daylight Time),166817.40000009537,A,towerenter,O,enter,1674,1,3263.4000000953674,163554.0,7204,WL,C,1.0
1,5.646999835968018,learn,54353.00016403198,Thu Aug 21 2025 09:39:32 GMT-0500 (Central Daylight Time),169200.90000009537,A,q,O,q,2369,1,2383.100000023842,166817.80000007153,7204,WL,C,2.0
1,5.763999938964844,learn,54236.000061035156,Thu Aug 21 2025 09:39:32 GMT-0500 (Central Daylight Time),169317.40000009537,A,qu,O,u,105,1,2499.600000023842,166817.80000007153,7204,WL,C,2.0
1,6.246999979019165,learn,53753.000020980835,Thu Aug 21 2025 09:39:32 GMT-0500 (Central Daylight Time),169800.60000002384,A,que,O,e,461,1,2982.7999999523163,166817.80000007153,7204,WL,C,2.0
1,6.396999835968018,learn,53603.00016403198,Thu Aug 21 2025 09:39:32 GMT-0500 (Central Daylight Time),169950.5,A,quee,O,e,136,1,3132.6999999284744,166817.80000007153,7204,WL,C,2.0
1,6.511999845504761,learn,53488.00015449524,Thu Aug 21 2025 09:39:32 GMT-0500 (Central Daylight Time),170065.80000007153,A,queen,O,n,106,1,3248.0,166817.80000007153,7204,WL,C,2.0
1,6.929999828338623,learn,53070.00017166138,Thu Aug 21 2025 09:39:32 GMT-0500 (Central Daylight Time),170484.20000004768,A,queenenter,O,enter,397,1,3666.399999976158,166817.80000007153,7204,WL,C,2.0
1,8.013000011444092,learn,51986.99998855591,Thu Aug 21 2025 09:39:32 GMT-0500 (Central Daylight Time),171566.5,A,s,O,s,1072,1,1082.0999999046326,170484.40000009537,7204,WL,C,3.0
1,8.111999988555908,learn,51888.00001144409,Thu Aug 21 2025 09:39:32 GMT-0500 (Central Daylight Time),171666.20000004768,A,su,O,u,83,1,1181.7999999523163,170484.40000009537,7204,WL,C,3.0
1,8.263000011444092,learn,51736.99998855591,Thu Aug 21 2025 09:39:32 GMT-0500 (Central Daylight Time),171816.30000007153,A,sug,O,g,142,1,1331.8999999761581,170484.40000009537,7204,WL,C,3.0
1,8.411999940872192,learn,51588.00005912781,Thu Aug 21 2025 09:39:32 GMT-0500 (Central Daylight Time),171965.30000007153,A,suga,O,a,131,1,1480.8999999761581,170484.40000009537,7204,WL,C,3.0
1,8.513000011444092,learn,51486.99998855591,Thu Aug 21 2025 09:39:32 GMT-0500 (Central Daylight Time),172067.30000007153,A,sugar,O,r,95,1,1582.8999999761581,170484.40000009537,7204,WL,C,3.0
1,8.745999813079834,learn,51254.000186920166,Thu Aug 21 2025 09:39:32 GMT-0500 (Central Daylight Time),172299.90000009537,A,sugarenter,O,enter,223,1,1815.5,170484.40000009537,7204,WL,C,3.0
1,8.99399995803833,learn,51006.00004196167,Thu Aug 21 2025 09:39:32 GMT-0500 (Central Daylight Time),172547.70000004768,A,w,O,w,237,1,247.60000002384186,172300.10000002384,7204,WL,C,4.0
1,9.145999908447266,learn,50854.000091552734,Thu Aug 21 2025 09:39:32 GMT-0500 (Central Daylight Time),172699.40000009537,A,wh,O,h,136,1,399.3000000715256,172300.10000002384,7204,WL,C,4.0
1,9.194000005722046,learn,50805.999994277954,Thu Aug 21 2025 09:39:32 GMT-0500 (Central Daylight Time),172747.40000009537,A,whe,O,e,38,1,447.3000000715256,172300.10000002384,7204,WL,C,4.0
1,9.312999963760376,learn,50687.000036239624,Thu Aug 21 2025 09:39:32 GMT-0500 (Central Daylight Time),172866.30000007153,A,whea,O,a,113,1,566.2000000476837,172300.10000002384,7204,WL,C,4.0
1,9.411999940872192,learn,50588.00005912781,Thu Aug 21 2025 09:39:32 GMT-0500 (Central Daylight Time),172965.80000007153,A,wheat,O,t,88,1,665.7000000476837,172300.10000002384,7204,WL,C,4.0
1,9.611999988555908,learn,50388.00001144409,Thu Aug 21 2025 09:39:32 GMT-0500 (Central Daylight Time),173165.70000004768,A,wheatenter,O,enter,180,1,865.6000000238419,172300.10000002384,7204,WL,C,4.0
1,10.960999965667725,learn,49039.000034332275,Thu Aug 21 2025 09:39:32 GMT-0500 (Central Daylight Time),174515.20000004768,A,c,O,c,1334,1,1349.2000000476837,173166.0,7204,WL,C,5.0
1,11.042999982833862,learn,48957.00001716614,Thu Aug 21 2025 09:39:32 GMT-0500 (Central Daylight Time),174597.20000004768,A,co,O,o,71,1,1431.2000000476837,173166.0,7204,WL,C,5.0
1,11.145999908447266,learn,48854.000091552734,Thu Aug 21 2025 09:39:32 GMT-0500 (Central Daylight Time),174699.80000007153,A,cor,O,r,95,1,1533.8000000715256,173166.0,7204,WL,C,5.0
1,11.258999824523926,learn,48741.000175476074,Thu Aug 21 2025 09:39:32 GMT-0500 (Central Daylight Time),174813.40000009537,A,corn,O,n,99,1,1647.4000000953674,173166.0,7204,WL,C,5.0
1,11.460999965667725,learn,48539.000034332275,Thu Aug 21 2025 09:39:32 GMT-0500 (Central Daylight Time),175014.80000007153,A,cornenter,O,enter,190,1,1848.8000000715256,173166.0,7204,WL,C,5.0
1,11.976999998092651,learn,48023.00000190735,Thu Aug 21 2025 09:39:32 GMT-0500 (Central Daylight Time),175530.80000007153,A,d,O,d,499,1,515.7000000476837,175015.10000002384,7204,WL,C,6.0
1,12.077999830245972,learn,47922.00016975403,Thu Aug 21 2025 09:39:32 GMT-0500 (Central Daylight Time),175632.10000002384,A,do,O,o,79,1,617.0,175015.10000002384,7204,WL,C,6.0
1,12.176999807357788,learn,47823.00019264221,Thu Aug 21 2025 09:39:32 GMT-0500 (Central Daylight Time),175731.10000002384,A,doc,O,c,89,1,716.0,175015.10000002384,7204,WL,C,6.0
1,12.293999910354614,learn,47706.000089645386,Thu Aug 21 2025 09:39:32 GMT-0500 (Central Daylight Time),175847.80000007153,A,doct,O,t,102,1,832.7000000476837,175015.10000002384,7204,WL,C,6.0
1,12.375999927520752,learn,47624.00007247925,Thu Aug 21 2025 09:39:32 GMT-0500 (Central Daylight Time),175930.60000002384,A,docto,O,o,73,1,915.5,175015.10000002384,7204,WL,C,6.0
1,12.494999885559082,learn,47505.00011444092,Thu Aug 21 2025 09:39:32 GMT-0500 (Central Daylight Time),176049.70000004768,A,doctor,O,r,112,1,1034.6000000238419,175015.10000002384,7204,WL,C,6.0
1,13.793999910354614,learn,46206.000089645386,Thu Aug 21 2025 09:39:32 GMT-0500 (Central Daylight Time),177348.5,A,doctorenter,O,enter,1274,1,2333.399999976158,175015.10000002384,7204,WL,C,6.0
1,14.095999956130981,learn,45904.00004386902,Thu Aug 21 2025 09:39:32 GMT-0500 (Central Daylight Time),177649.80000007153,A,n,O,n,279,1,301.10000002384186,177348.70000004768,7204,WL,C,7.0
1,14.15999984741211,learn,45840.00015258789,Thu Aug 21 2025 09:39:32 GMT-0500 (Central Daylight Time),177714.70000004768,A,na,O,a,47,1,366.0,177348.70000004768,7204,WL,C,7.0
1,14.292999982833862,learn,45707.00001716614,Thu Aug 21 2025 09:39:32 GMT-0500 (Central Daylight Time),177847.20000004768,A,nai,O,i,122,1,498.5,177348.70000004768,7204,WL,C,7.0
1,14.394999980926514,learn,45605.000019073486,Thu Aug 21 2025 09:39:32 GMT-0500 (Central Daylight Time),177948.90000009537,A,nail,O,l,84,1,600.2000000476837,177348.70000004768,7204,WL,C,7.0
1,14.775999784469604,learn,45224.000215530396,Thu Aug 21 2025 09:39:32 GMT-0500 (Central Daylight Time),178330.60000002384,A,nailenter,O,enter,359,1,981.8999999761581,177348.70000004768,7204,WL,C,7.0
1,15.025999784469604,learn,44974.000215530396,Thu Aug 21 2025 09:39:32 GMT-0500 (Central Daylight Time),178580.70000004768,A,c,O,c,232,1,249.70000004768372,178331.0,7204,WL,C,8.0
1,15.14299988746643,learn,44857.00011253357,Thu Aug 21 2025 09:39:32 GMT-0500 (Central Daylight Time),178697.10000002384,A,ca,O,a,101,1,366.10000002384186,178331.0,7204,WL,C,8.0
1,15.242999792098999,learn,44757.000207901,Thu Aug 21 2025 09:39:32 GMT-0500 (Central Daylight Time),178796.80000007153,A,cam,O,m,89,1,465.8000000715256,178331.0,7204,WL,C,8.0
1,15.39299988746643,learn,44607.00011253357,Thu Aug 21 2025 09:39:32 GMT-0500 (Central Daylight Time),178947.30000007153,A,camp,O,p,141,1,616.3000000715256,178331.0,7204,WL,C,8.0
1,16.45899987220764,learn,43541.00012779236,Thu Aug 21 2025 09:39:32 GMT-0500 (Central Daylight Time),180013.5,A,campenter,O,enter,1055,1,1682.5,178331.0,7204,WL,C,8.0
1,17.008999824523926,learn,42991.000175476074,Thu Aug 21 2025 09:39:32 GMT-0500 (Central Daylight Time),180562.70000004768,A,b,O,b,534,1,548.8999999761581,180013.80000007153,7204,WL,C,9.0
1,17.107999801635742,learn,42892.00019836426,Thu Aug 21 2025 09:39:32 GMT-0500 (Central Daylight Time),180661.70000004768,A,bo,O,o,88,1,647.8999999761581,180013.80000007153,7204,WL,C,9.0
1,17.22599983215332,learn,42774.00016784668,Thu Aug 21 2025 09:39:32 GMT-0500 (Central Daylight Time),180779.90000009537,A,boy,O,y,110,1,766.1000000238419,180013.80000007153,7204,WL,C,9.0
1,17.625,learn,42375.0,Thu Aug 21 2025 09:39:32 GMT-0500 (Central Daylight Time),181178.60000002384,A,boyenter,O,enter,381,1,1164.7999999523163,180013.80000007153,7204,WL,C,9.0
1,18.525999784469604,learn,41474.000215530396,Thu Aug 21 2025 09:39:32 GMT-0500 (Central Daylight Time),182080.20000004768,A,h,O,h,890,1,901.2000000476837,181179.0,7204,WL,C,10.0
1,18.608999967575073,learn,41391.00003242493,Thu Aug 21 2025 09:39:32 GMT-0500 (Central Daylight Time),182162.70000004768,A,ho,O,o,61,1,983.7000000476837,181179.0,7204,WL,C,10.0
1,18.72599983215332,learn,41274.00016784668,Thu Aug 21 2025 09:39:32 GMT-0500 (Central Daylight Time),182280.20000004768,A,hom,O,m,100,1,1101.2000000476837,181179.0,7204,WL,C,10.0
1,18.858999967575073,learn,41141.00003242493,Thu Aug 21 2025 09:39:32 GMT-0500 (Central Daylight Time),182412.80000007153,A,home,O,e,112,1,1233.8000000715256,181179.0,7204,WL,C,10.0
1,19.89299988746643,learn,40107.00011253357,Thu Aug 21 2025 09:39:32 GMT-0500 (Central Daylight Time),183447.40000009537,A,homeenter,O,enter,1028,1,2268.4000000953674,181179.0,7204,WL,C,10.0
1,29.822999954223633,learn,30177.000045776367,Thu Aug 21 2025 09:39:32 GMT-0500 (Central Daylight Time),193377.10000002384,A,b,O,b,9908,1,9929.399999976158,183447.70000004768,7204,WL,C,11.0
1,30.388999938964844,learn,29611.000061035156,Thu Aug 21 2025 09:39:32 GMT-0500 (Central Daylight Time),193943.60000002384,A,bo,O,o,544,1,10495.899999976158,183447.70000004768,7204,WL,C,11.0
1,30.50499987602234,learn,29495.00012397766,Thu Aug 21 2025 09:39:32 GMT-0500 (Central Daylight Time),194058.80000007153,A,bod,O,d,107,1,10611.100000023842,183447.70000004768,7204,WL,C,11.0
1,30.58799982070923,learn,29412.00017929077,Thu Aug 21 2025 09:39:32 GMT-0500 (Central Daylight Time),194142.10000002384,A,body,O,y,73,1,10694.399999976158,183447.70000004768,7204,WL,C,11.0
1,30.88699984550476,learn,29113.00015449524,Thu Aug 21 2025 09:39:32 GMT-0500 (Central Daylight Time),194441.10000002384,A,bodyenter,O,enter,283,1,10993.399999976158,183447.70000004768,7204,WL,C,11.0
1,34.30499982833862,learn,25695.000171661377,Thu Aug 21 2025 09:39:32 GMT-0500 (Central Daylight Time),197858.70000004768,A,d,O,d,3402,1,3417.2000000476837,194441.5,7204,WL,C,12.0
1,34.436999797821045,learn,25563.000202178955,Thu Aug 21 2025 09:39:32 GMT-0500 (Central Daylight Time),197991.10000002384,A,do,O,o,119,1,3549.600000023842,194441.5,7204,WL,C,12.0
1,34.53600001335144,learn,25463.99998664856,Thu Aug 21 2025 09:39:32 GMT-0500 (Central Daylight Time),198090.5,A,doc,O,c,83,1,3649.0,194441.5,7204,WL,C,12.0
1,34.65399980545044,learn,25346.00019454956,Thu Aug 21 2025 09:39:32 GMT-0500 (Central Daylight Time),198208.0,A,doct,O,t,102,1,3766.5,194441.5,7204,WL,C,12.0
1,34.78600001335144,learn,25213.99998664856,Thu Aug 21 2025 09:39:32 GMT-0500 (Central Daylight Time),198340.30000007153,A,docto,O,o,122,1,3898.8000000715256,194441.5,7204,WL,C,12.0
1,34.8529999256134,learn,25147.000074386597,Thu Aug 21 2025 09:39:32 GMT-0500 (Central Daylight Time),198407.20000004768,A,doctor,O,r,49,1,3965.7000000476837,194441.5,7204,WL,C,12.0
1,35.353999853134155,learn,24646.000146865845,Thu Aug 21 2025 09:39:32 GMT-0500 (Central Daylight Time),198908.30000007153,A,doctorenter,O,enter,483,1,4466.800000071526,194441.5,7204,WL,C,12.0
1,41.084999799728394,learn,18915.000200271606,Thu Aug 21 2025 09:39:32 GMT-0500 (Central Daylight Time),204639.60000002384,A,s,O,s,5711,1,5731.0,198908.60000002384,7204,WL,C,13.0
1,41.132999897003174,learn,18867.000102996826,Thu Aug 21 2025 09:39:32 GMT-0500 (Central Daylight Time),204687.20000004768,A,sh,O,h,34,1,5778.600000023842,198908.60000002384,7204,WL,C,13.0
1,41.23399996757507,learn,18766.000032424927,Thu Aug 21 2025 09:39:32 GMT-0500 (Central Daylight Time),204788.0,A,sho,O,o,82,1,5879.399999976158,198908.60000002384,7204,WL,C,13.0
1,41.319000005722046,learn,18680.999994277954,Thu Aug 21 2025 09:39:32 GMT-0500 (Central Daylight Time),204873.0,A,shor,O,r,69,1,5964.399999976158,198908.60000002384,7204,WL,C,13.0
1,41.71799993515015,learn,18282.000064849854,Thu Aug 21 2025 09:39:32 GMT-0500 (Central Daylight Time),205272.60000002384,A,shore,O,e,386,1,6364.0,198908.60000002384,7204,WL,C,13.0
1,41.867999792099,learn,18132.000207901,Thu Aug 21 2025 09:39:32 GMT-0500 (Central Daylight Time),205421.70000004768,A,shoreenter,O,enter,129,1,6513.100000023842,198908.60000002384,7204,WL,C,13.0
1,52.31399989128113,learn,7686.000108718872,Thu Aug 21 2025 09:39:32 GMT-0500 (Central Daylight Time),215868.20000004768,A,h,O,h,10429,1,10446.200000047684,205422.0,7204,WL,C,14.0
1,52.42999982833862,learn,7570.000171661377,Thu Aug 21 2025 09:39:32 GMT-0500 (Central Daylight Time),215984.40000009537,A,ho,O,o,92,1,10562.400000095367,205422.0,7204,WL,C,14.0
1,52.56499981880188,learn,7435.00018119812,Thu Aug 21 2025 09:39:32 GMT-0500 (Central Daylight Time),216119.0,A,hom,O,m,119,1,10697.0,205422.0,7204,WL,C,14.0
1,52.71299982070923,learn,7287.0001792907715,Thu Aug 21 2025 09:39:32 GMT-0500 (Central Daylight Time),216267.10000002384,A,home,O,e,137,1,10845.100000023842,205422.0,7204,WL,C,14.0
1,52.913999795913696,learn,7086.000204086304,Thu Aug 21 2025 09:39:32 GMT-0500 (Central Daylight Time),216467.90000009537,A,homeenter,O,enter,184,1,11045.900000095367,205422.0,7204,WL,C,14.0
1,57.0460000038147,learn,2953.9999961853027,Thu Aug 21 2025 09:39:32 GMT-0500 (Central Daylight Time),220600.10000002384,A,enter,O,enter,4112,1,4131.899999976158,216468.20000004768,7204,WL,C,15.0
2,1.2320001125335693,learn,58767.99988746643,Thu Aug 21 2025 09:39:32 GMT-0500 (Central Daylight Time),292127.8000000715,A,c,O,c,1220,1,1231.8000000715256,290896.0,7204,WL,C,1.0
2,1.6160001754760742,learn,58383.999824523926,Thu Aug 21 2025 09:39:32 GMT-0500 (Central Daylight Time),292511.8000000715,A,ca,O,a,362,1,1615.8000000715256,290896.0,7204,WL,C,1.0
2,1.814000129699707,learn,58185.99987030029,Thu Aug 21 2025 09:39:32 GMT-0500 (Central Daylight Time),292709.7000000477,A,cat,O,t,178,1,1813.7000000476837,290896.0,7204,WL,C,1.0
2,1.9820001125335693,learn,58017.99988746643,Thu Aug 21 2025 09:39:32 GMT-0500 (Central Daylight Time),292877.40000009537,A,catt,O,t,149,1,1981.4000000953674,290896.0,7204,WL,C,1.0
2,2.315000057220459,learn,57684.99994277954,Thu Aug 21 2025 09:39:32 GMT-0500 (Central Daylight Time),293210.90000009537,A,cattl,O,l,314,1,2314.9000000953674,290896.0,7204,WL,C,1.0
2,2.4820001125335693,learn,57517.99988746643,Thu Aug 21 2025 09:39:32 GMT-0500 (Central Daylight Time),293378.10000002384,A,cattle,O,e,161,1,2482.100000023842,290896.0,7204,WL,C,1.0
2,3.430999994277954,learn,56569.000005722046,Thu Aug 21 2025 09:39:32 GMT-0500 (Central Daylight Time),294326.90000009537,A,cattleenter,O,enter,936,1,3430.9000000953674,290896.0,7204,WL,C,1.0
2,3.7309999465942383,learn,56269.00005340576,Thu Aug 21 2025 09:39:32 GMT-0500 (Central Daylight Time),294626.7000000477,A,s,O,s,283,1,299.5,294327.2000000477,7204,WL,C,2.0
2,3.830000162124634,learn,56169.999837875366,Thu Aug 21 2025 09:39:32 GMT-0500 (Central Daylight Time),294726.40000009537,A,sh,O,h,87,1,399.2000000476837,294327.2000000477,7204,WL,C,2.0
2,3.947999954223633,learn,56052.00004577637,Thu Aug 21 2025 09:39:32 GMT-0500 (Central Daylight Time),294844.3000000715,A,sho,O,o,97,1,517.1000000238419,294327.2000000477,7204,WL,C,2.0
2,4.031000137329102,learn,55968.9998626709,Thu Aug 21 2025 09:39:32 GMT-0500 (Central Daylight Time),294927.3000000715,A,shor,O,r,67,1,600.1000000238419,294327.2000000477,7204,WL,C,2.0
2,4.113000154495239,learn,55886.99984550476,Thu Aug 21 2025 09:39:32 GMT-0500 (Central Daylight Time),295009.40000009537,A,shore,O,e,75,1,682.2000000476837,294327.2000000477,7204,WL,C,2.0
2,4.363000154495239,learn,55636.99984550476,Thu Aug 21 2025 09:39:32 GMT-0500 (Central Daylight Time),295258.60000002384,A,shoreenter,O,enter,231,1,931.3999999761581,294327.2000000477,7204,WL,C,2.0
2,4.580000162124634,learn,55419.999837875366,Thu Aug 21 2025 09:39:32 GMT-0500 (Central Daylight Time),295476.60000002384,A,b,O,b,208,1,217.69999992847443,295258.90000009537,7204,WL,C,3.0
2,4.680999994277954,learn,55319.000005722046,Thu Aug 21 2025 09:39:32 GMT-0500 (Central Daylight Time),295577.2000000477,A,bo,O,o,93,1,318.2999999523163,295258.90000009537,7204,WL,C,3.0
2,4.831000089645386,learn,55168.999910354614,Thu Aug 21 2025 09:39:32 GMT-0500 (Central Daylight Time),295726.7000000477,A,bod,O,d,127,1,467.7999999523163,295258.90000009537,7204,WL,C,3.0
2,4.945000171661377,learn,55054.99982833862,Thu Aug 21 2025 09:39:32 GMT-0500 (Central Daylight Time),295841.10000002384,A,body,O,y,96,1,582.1999999284744,295258.90000009537,7204,WL,C,3.0
2,5.13100004196167,learn,54868.99995803833,Thu Aug 21 2025 09:39:32 GMT-0500 (Central Daylight Time),296026.60000002384,A,bodyenter,O,enter,170,1,767.6999999284744,295258.90000009537,7204,WL,C,3.0
2,5.397000074386597,learn,54602.9999256134,Thu Aug 21 2025 09:39:32 GMT-0500 (Central Daylight Time),296293.40000009537,A,n,O,n,256,1,266.5,296026.90000009537,7204,WL,C,4.0
2,5.496000051498413,learn,54503.99994850159,Thu Aug 21 2025 09:39:32 GMT-0500 (Central Daylight Time),296392.40000009537,A,na,O,a,92,1,365.5,296026.90000009537,7204,WL,C,4.0
2,5.613000154495239,learn,54386.99984550476,Thu Aug 21 2025 09:39:32 GMT-0500 (Central Daylight Time),296509.5,A,nai,O,i,98,1,482.59999990463257,296026.90000009537,7204,WL,C,4.0
2,5.713000059127808,learn,54286.99994087219,Thu Aug 21 2025 09:39:32 GMT-0500 (Central Daylight Time),296609.10000002384,A,nail,O,l,81,1,582.1999999284744,296026.90000009537,7204,WL,C,4.0
2,5.947999954223633,learn,54052.00004577637,Thu Aug 21 2025 09:39:32 GMT-0500 (Central Daylight Time),296843.8000000715,A,nailenter,O,enter,227,1,816.8999999761581,296026.90000009537,7204,WL,C,4.0
2,6.196000099182129,learn,53803.99990081787,Thu Aug 21 2025 09:39:32 GMT-0500 (Central Daylight Time),297092.5,A,c,O,c,239,1,248.5,296844.0,7204,WL,C,5.0
2,6.29800009727478,learn,53701.99990272522,Thu Aug 21 2025 09:39:32 GMT-0500 (Central Daylight Time),297193.7000000477,A,ca,O,a,94,1,349.7000000476837,296844.0,7204,WL,C,5.0
2,6.380000114440918,learn,53619.99988555908,Thu Aug 21 2025 09:39:32 GMT-0500 (Central Daylight Time),297276.0,A,cam,O,m,70,1,432.0,296844.0,7204,WL,C,5.0
2,6.514000177383423,learn,53485.99982261658,Thu Aug 21 2025 09:39:32 GMT-0500 (Central Daylight Time),297409.8000000715,A,camp,O,p,126,1,565.8000000715256,296844.0,7204,WL,C,5.0
2,6.898000001907349,learn,53101.99999809265,Thu Aug 21 2025 09:39:32 GMT-0500 (Central Daylight Time),297794.3000000715,A,campenter,O,enter,367,1,950.3000000715256,296844.0,7204,WL,C,5.0
2,7.578999996185303,learn,52421.0000038147,Thu Aug 21 2025 09:39:32 GMT-0500 (Central Daylight Time),298475.0,A,f,O,f,674,1,680.3999999761581,297794.60000002384,7204,WL,C,6.0
2,7.746000051498413,learn,52253.99994850159,Thu Aug 21 2025 09:39:32 GMT-0500 (Central Daylight Time),298642.10000002384,A,fl,O,l,151,1,847.5,297794.60000002384,7204,WL,C,6.0
2,7.880000114440918,learn,52119.99988555908,Thu Aug 21 2025 09:39:32 GMT-0500 (Central Daylight Time),298775.7000000477,A,fla,O,a,121,1,981.1000000238419,297794.60000002384,7204,WL,C,6.0
2,8.162000179290771,learn,51837.99982070923,Thu Aug 21 2025 09:39:32 GMT-0500 (Central Daylight Time),299058.0,A,flag,O,g,265,1,1263.3999999761581,297794.60000002384,7204,WL,C,6.0
2,8.76200008392334,learn,51237.99991607666,Thu Aug 21 2025 09:39:32 GMT-0500 (Central Daylight Time),299657.8000000715,A,flagenter,O,enter,594,1,1863.2000000476837,297794.60000002384,7204,WL,C,6.0
2,9.229000091552734,learn,50770.999908447266,Thu Aug 21 2025 09:39:32 GMT-0500 (Central Daylight Time),300124.7000000477,A,d,O,d,458,1,466.7000000476837,299658.0,7204,WL,C,7.0
2,9.331000089645386,learn,50668.999910354614,Thu Aug 21 2025 09:39:32 GMT-0500 (Central Daylight Time),300227.10000002384,A,do,O,o,98,1,569.1000000238419,299658.0,7204,WL,C,7.0
2,9.446000099182129,learn,50553.99990081787,Thu Aug 21 2025 09:39:32 GMT-0500 (Central Daylight Time),300341.8000000715,A,doc,O,c,97,1,683.8000000715256,299658.0,7204,WL,C,7.0
2,9.562000036239624,learn,50437.999963760376,Thu Aug 21 2025 09:39:32 GMT-0500 (Central Daylight Time),300458.3000000715,A,doct,O,t,97,1,800.3000000715256,299658.0,7204,WL,C,7.0
2,9.646000146865845,learn,50353.999853134155,Thu Aug 21 2025 09:39:32 GMT-0500 (Central Daylight Time),300542.3000000715,A,docto,O,o,65,1,884.3000000715256,299658.0,7204,WL,C,7.0
2,9.745000123977661,learn,50254.99987602234,Thu Aug 21 2025 09:39:32 GMT-0500 (Central Daylight Time),300640.60000002384,A,doctor,O,r,82,1,982.6000000238419,299658.0,7204,WL,C,7.0
2,9.945000171661377,learn,50054.99982833862,Thu Aug 21 2025 09:39:32 GMT-0500 (Central Daylight Time),300841.3000000715,A,doctorenter,O,enter,182,1,1183.3000000715256,299658.0,7204,WL,C,7.0
2,10.396000146865845,learn,49603.999853134155,Thu Aug 21 2025 09:39:32 GMT-0500 (Central Daylight Time),301291.7000000477,A,b,O,b,436,1,450.2999999523163,300841.40000009537,7204,WL,C,8.0
2,10.513000011444092,learn,49486.99998855591,Thu Aug 21 2025 09:39:32 GMT-0500 (Central Daylight Time),301409.0,A,bo,O,o,102,1,567.5999999046326,300841.40000009537,7204,WL,C,8.0
2,10.644999980926514,learn,49355.000019073486,Thu Aug 21 2025 09:39:32 GMT-0500 (Central Daylight Time),301541.0,A,boy,O,y,119,1,699.5999999046326,300841.40000009537,7204,WL,C,8.0
2,12.34500002861023,learn,47654.99997138977,Thu Aug 21 2025 09:39:32 GMT-0500 (Central Daylight Time),303241.3000000715,A,boyenter,O,enter,1677,1,2399.899999976158,300841.40000009537,7204,WL,C,8.0
2,13.360000133514404,learn,46639.999866485596,Thu Aug 21 2025 09:39:32 GMT-0500 (Central Daylight Time),304256.3000000715,A,c,O,c,1003,1,1014.8000000715256,303241.5,7204,WL,C,9.0
2,13.410000085830688,learn,46589.99991416931,Thu Aug 21 2025 09:39:32 GMT-0500 (Central Daylight Time),304305.7000000477,A,co,O,o,43,1,1064.2000000476837,303241.5,7204,WL,C,9.0
2,13.57800006866455,learn,46421.99993133545,Thu Aug 21 2025 09:39:32 GMT-0500 (Central Daylight Time),304474.40000009537,A,cor,O,r,149,1,1232.9000000953674,303241.5,7204,WL,C,9.0
2,13.66100001335144,learn,46338.99998664856,Thu Aug 21 2025 09:39:32 GMT-0500 (Central Daylight Time),304556.8000000715,A,corn,O,n,71,1,1315.3000000715256,303241.5,7204,WL,C,9.0
2,13.894000053405762,learn,46105.99994659424,Thu Aug 21 2025 09:39:32 GMT-0500 (Central Daylight Time),304789.5,A,cornenter,O,enter,211,1,1548.0,303241.5,7204,WL,C,9.0
2,13.995000123977661,learn,46004.99987602234,Thu Aug 21 2025 09:39:32 GMT-0500 (Central Daylight Time),304890.7000000477,A,s,O,s,97,1,100.89999997615814,304789.8000000715,7204,WL,C,10.0
2,14.093000173568726,learn,45906.999826431274,Thu Aug 21 2025 09:39:32 GMT-0500 (Central Daylight Time),304989.5,A,su,O,u,79,1,199.69999992847443,304789.8000000715,7204,WL,C,10.0
2,14.212000131607056,learn,45787.999868392944,Thu Aug 21 2025 09:39:32 GMT-0500 (Central Daylight Time),305107.7000000477,A,sug,O,g,108,1,317.89999997615814,304789.8000000715,7204,WL,C,10.0
2,14.34500002861023,learn,45654.99997138977,Thu Aug 21 2025 09:39:32 GMT-0500 (Central Daylight Time),305240.90000009537,A,suga,O,a,110,1,451.10000002384186,304789.8000000715,7204,WL,C,10.0
2,14.444000005722046,learn,45555.999994277954,Thu Aug 21 2025 09:39:32 GMT-0500 (Central Daylight Time),305340.40000009537,A,sugar,O,r,80,1,550.6000000238419,304789.8000000715,7204,WL,C,10.0
2,14.611999988555908,learn,45388.00001144409,Thu Aug 21 2025 09:39:32 GMT-0500 (Central Daylight Time),305508.0,A,sugarenter,O,enter,149,1,718.1999999284744,304789.8000000715,7204,WL,C,10.0
2,14.794000148773193,learn,45205.99985122681,Thu Aug 21 2025 09:39:32 GMT-0500 (Central Daylight Time),305690.10000002384,A,s,O,s,177,1,181.89999997615814,305508.2000000477,7204,WL,C,11.0
2,15.210999965667725,learn,44789.000034332275,Thu Aug 21 2025 09:39:32 GMT-0500 (Central Daylight Time),306107.2000000477,A,,O,backspace,411,1,599.0,305508.2000000477,7204,WL,C,11.0
2,15.361000061035156,learn,44638.999938964844,Thu Aug 21 2025 09:39:32 GMT-0500 (Central Daylight Time),306257.3000000715,A,w,O,w,129,1,749.1000000238419,305508.2000000477,7204,WL,C,11.0
2,15.49399995803833,learn,44506.00004196167,Thu Aug 21 2025 09:39:32 GMT-0500 (Central Daylight Time),306390.40000009537,A,wh,O,h,111,1,882.2000000476837,305508.2000000477,7204,WL,C,11.0
2,15.894000053405762,learn,44105.99994659424,Thu Aug 21 2025 09:39:32 GMT-0500 (Central Daylight Time),306790.0,A,whe,O,e,382,1,1281.7999999523163,305508.2000000477,7204,WL,C,11.0
2,16.013000011444092,learn,43986.99998855591,Thu Aug 21 2025 09:39:32 GMT-0500 (Central Daylight Time),306908.60000002384,A,whea,O,a,103,1,1400.3999999761581,305508.2000000477,7204,WL,C,11.0
2,16.093000173568726,learn,43906.999826431274,Thu Aug 21 2025 09:39:32 GMT-0500 (Central Daylight Time),306989.2000000477,A,wheat,O,t,60,1,1481.0,305508.2000000477,7204,WL,C,11.0
2,16.526999950408936,learn,43473.000049591064,Thu Aug 21 2025 09:39:32 GMT-0500 (Central Daylight Time),307422.7000000477,A,wheatenter,O,enter,422,1,1914.5,305508.2000000477,7204,WL,C,11.0
2,17.511000156402588,learn,42488.99984359741,Thu Aug 21 2025 09:39:32 GMT-0500 (Central Daylight Time),308406.5,A,q,O,q,963,1,983.5999999046326,307422.90000009537,7204,WL,C,12.0
2,17.575000047683716,learn,42424.999952316284,Thu Aug 21 2025 09:39:32 GMT-0500 (Central Daylight Time),308471.3000000715,A,qu,O,u,50,1,1048.3999999761581,307422.90000009537,7204,WL,C,12.0
2,17.693000078201294,learn,42306.999921798706,Thu Aug 21 2025 09:39:32 GMT-0500 (Central Daylight Time),308588.8000000715,A,que,O,e,98,1,1165.8999999761581,307422.90000009537,7204,WL,C,12.0
2,17.97699999809265,learn,42023.00000190735,Thu Aug 21 2025 09:39:32 GMT-0500 (Central Daylight Time),308872.90000009537,A,quen,O,n,268,1,1450.0,307422.90000009537,7204,WL,C,12.0
2,18.344000101089478,learn,41655.99989891052,Thu Aug 21 2025 09:39:32 GMT-0500 (Central Daylight Time),309240.3000000715,A,que,O,backspace,355,1,1817.3999999761581,307422.90000009537,7204,WL,C,12.0
2,18.45900011062622,learn,41540.99988937378,Thu Aug 21 2025 09:39:32 GMT-0500 (Central Daylight Time),309355.5,A,quee,O,e,106,1,1932.5999999046326,307422.90000009537,7204,WL,C,12.0
2,18.575999975204468,learn,41424.00002479553,Thu Aug 21 2025 09:39:32 GMT-0500 (Central Daylight Time),309472.40000009537,A,queen,O,n,103,1,2049.5,307422.90000009537,7204,WL,C,12.0
2,18.89199995994568,learn,41108.00004005432,Thu Aug 21 2025 09:39:32 GMT-0500 (Central Daylight Time),309788.0,A,queenenter,O,enter,300,1,2365.0999999046326,307422.90000009537,7204,WL,C,12.0
2,19.475000143051147,learn,40524.99985694885,Thu Aug 21 2025 09:39:32 GMT-0500 (Central Daylight Time),310371.2000000477,A,t,O,t,577,1,583.1000000238419,309788.10000002384,7204,WL,C,13.0
2,19.87600016593933,learn,40123.99983406067,Thu Aug 21 2025 09:39:32 GMT-0500 (Central Daylight Time),310772.3000000715,A,to,O,o,395,1,984.2000000476837,309788.10000002384,7204,WL,C,13.0
2,20.058000087738037,learn,39941.99991226196,Thu Aug 21 2025 09:39:32 GMT-0500 (Central Daylight Time),310954.5,A,tow,O,w,167,1,1166.3999999761581,309788.10000002384,7204,WL,C,13.0
2,20.176000118255615,learn,39823.999881744385,Thu Aug 21 2025 09:39:32 GMT-0500 (Central Daylight Time),311072.3000000715,A,towe,O,e,95,1,1284.2000000476837,309788.10000002384,7204,WL,C,13.0
2,20.292999982833862,learn,39707.00001716614,Thu Aug 21 2025 09:39:32 GMT-0500 (Central Daylight Time),311188.60000002384,A,tower,O,r,98,1,1400.5,309788.10000002384,7204,WL,C,13.0
2,21.009999990463257,learn,38990.00000953674,Thu Aug 21 2025 09:39:32 GMT-0500 (Central Daylight Time),311906.5,A,towerenter,O,enter,695,1,2118.399999976158,309788.10000002384,7204,WL,C,13.0
2,21.241000175476074,learn,38758.999824523926,Thu Aug 21 2025 09:39:32 GMT-0500 (Central Daylight Time),312137.3000000715,A,h,O,h,217,1,230.5,311906.8000000715,7204,WL,C,14.0
2,21.308000087738037,learn,38691.99991226196,Thu Aug 21 2025 09:39:32 GMT-0500 (Central Daylight Time),312203.7000000477,A,ho,O,o,56,1,296.89999997615814,311906.8000000715,7204,WL,C,14.0
2,21.45799994468689,learn,38542.00005531311,Thu Aug 21 2025 09:39:32 GMT-0500 (Central Daylight Time),312354.40000009537,A,hom,O,m,143,1,447.60000002384186,311906.8000000715,7204,WL,C,14.0
2,21.62600016593933,learn,38373.99983406067,Thu Aug 21 2025 09:39:32 GMT-0500 (Central Daylight Time),312522.0,A,home,O,e,153,1,615.1999999284744,311906.8000000715,7204,WL,C,14.0
2,22.12600016593933,learn,37873.99983406067,Thu Aug 21 2025 09:39:32 GMT-0500 (Central Daylight Time),313021.8000000715,A,homeenter,O,enter,488,1,1115.0,311906.8000000715,7204,WL,C,14.0
2,23.141000032424927,learn,36858.99996757507,Thu Aug 21 2025 09:39:32 GMT-0500 (Central Daylight Time),314037.40000009537,A,b,O,b,996,1,1015.4000000953674,313022.0,7204,WL,C,15.0
2,23.223999977111816,learn,36776.00002288818,Thu Aug 21 2025 09:39:32 GMT-0500 (Central Daylight Time),314120.2000000477,A,bo,O,o,60,1,1098.2000000476837,313022.0,7204,WL,C,15.0
2,23.35800004005432,learn,36641.99995994568,Thu Aug 21 2025 09:39:32 GMT-0500 (Central Daylight Time),314254.3000000715,A,boy,O,y,114,1,1232.3000000715256,313022.0,7204,WL,C,15.0
2,23.77300000190735,learn,36226.99999809265,Thu Aug 21 2025 09:39:32 GMT-0500 (Central Daylight Time),314668.8000000715,A,boyenter,O,enter,396,1,1646.8000000715256,313022.0,7204,WL,C,15.0
3,5.447999954223633,learn,54552.00004577637,Thu Aug 21 2025 09:39:32 GMT-0500 (Central Daylight Time),391730.5,A,c,O,c,5442,1,5447.799999952316,386282.7000000477,7204,WL,C,1.0
3,5.613999843597412,learn,54386.00015640259,Thu Aug 21 2025 09:39:32 GMT-0500 (Central Daylight Time),391896.7000000477,A,ca,O,a,142,1,5614.0,386282.7000000477,7204,WL,C,1.0
3,6.246999979019165,learn,53753.000020980835,Thu Aug 21 2025 09:39:32 GMT-0500 (Central Daylight Time),392529.8000000715,A,cam,O,m,627,1,6247.100000023842,386282.7000000477,7204,WL,C,1.0
3,6.498999834060669,learn,53501.00016593933,Thu Aug 21 2025 09:39:32 GMT-0500 (Central Daylight Time),392781.0,A,camp,O,p,242,1,6498.299999952316,386282.7000000477,7204,WL,C,1.0
3,6.914999961853027,learn,53085.00003814697,Thu Aug 21 2025 09:39:32 GMT-0500 (Central Daylight Time),393197.10000002384,A,campenter,O,enter,396,1,6914.399999976158,386282.7000000477,7204,WL,C,1.0
3,7.329999923706055,learn,52670.000076293945,Thu Aug 21 2025 09:39:32 GMT-0500 (Central Daylight Time),393612.90000009537,A,b,O,b,398,1,415.40000009536743,393197.5,7204,WL,C,2.0
3,7.44599986076355,learn,52554.00013923645,Thu Aug 21 2025 09:39:32 GMT-0500 (Central Daylight Time),393728.8000000715,A,bo,O,o,101,1,531.3000000715256,393197.5,7204,WL,C,2.0
3,7.563999891281128,learn,52436.00010871887,Thu Aug 21 2025 09:39:32 GMT-0500 (Central Daylight Time),393846.3000000715,A,boy,O,y,104,1,648.8000000715256,393197.5,7204,WL,C,2.0
3,8.013000011444092,learn,51986.99998855591,Thu Aug 21 2025 09:39:32 GMT-0500 (Central Daylight Time),394295.90000009537,A,boyenter,O,enter,436,1,1098.4000000953674,393197.5,7204,WL,C,2.0
3,8.361999988555908,learn,51638.00001144409,Thu Aug 21 2025 09:39:32 GMT-0500 (Central Daylight Time),394644.7000000477,A,n,O,n,330,1,348.60000002384186,394296.10000002384,7204,WL,C,3.0
3,8.494999885559082,learn,51505.00011444092,Thu Aug 21 2025 09:39:32 GMT-0500 (Central Daylight Time),394777.40000009537,A,na,O,a,120,1,481.3000000715256,394296.10000002384,7204,WL,C,3.0
3,8.61299991607666,learn,51387.00008392334,Thu Aug 21 2025 09:39:32 GMT-0500 (Central Daylight Time),394894.90000009537,A,nai,O,i,94,1,598.8000000715256,394296.10000002384,7204,WL,C,3.0
3,8.712999820709229,learn,51287.00017929077,Thu Aug 21 2025 09:39:32 GMT-0500 (Central Daylight Time),394995.2000000477,A,nail,O,l,82,1,699.1000000238419,394296.10000002384,7204,WL,C,3.0
3,8.978999853134155,learn,51021.000146865845,Thu Aug 21 2025 09:39:32 GMT-0500 (Central Daylight Time),395261.10000002384,A,nailenter,O,enter,246,1,965.0,394296.10000002384,7204,WL,C,3.0
3,9.179999828338623,learn,50820.00017166138,Thu Aug 21 2025 09:39:32 GMT-0500 (Central Daylight Time),395462.3000000715,A,l,O,l,190,1,201.0,395261.3000000715,7204,WL,C,4.0
3,9.277999877929688,learn,50722.00012207031,Thu Aug 21 2025 09:39:32 GMT-0500 (Central Daylight Time),395560.10000002384,A,le,O,e,83,1,298.7999999523163,395261.3000000715,7204,WL,C,4.0
3,9.379999876022339,learn,50620.00012397766,Thu Aug 21 2025 09:39:32 GMT-0500 (Central Daylight Time),395661.90000009537,A,let,O,t,81,1,400.60000002384186,395261.3000000715,7204,WL,C,4.0
3,9.544999837875366,learn,50455.000162124634,Thu Aug 21 2025 09:39:32 GMT-0500 (Central Daylight Time),395827.7000000477,A,lett,O,t,146,1,566.3999999761581,395261.3000000715,7204,WL,C,4.0
3,9.661999940872192,learn,50338.00005912781,Thu Aug 21 2025 09:39:32 GMT-0500 (Central Daylight Time),395944.7000000477,A,lette,O,e,103,1,683.3999999761581,395261.3000000715,7204,WL,C,4.0
3,9.76199984550476,learn,50238.00015449524,Thu Aug 21 2025 09:39:32 GMT-0500 (Central Daylight Time),396044.3000000715,A,letter,O,r,89,1,783.0,395261.3000000715,7204,WL,C,4.0
3,9.995999813079834,learn,50004.000186920166,Thu Aug 21 2025 09:39:32 GMT-0500 (Central Daylight Time),396278.40000009537,A,letterenter,O,enter,222,1,1017.1000000238419,395261.3000000715,7204,WL,C,4.0
3,10.144999980926514,learn,49855.000019073486,Thu Aug 21 2025 09:39:32 GMT-0500 (Central Daylight Time),396427.40000009537,A,s,O,s,131,1,148.70000004768372,396278.7000000477,7204,WL,C,5.0
3,10.263000011444092,learn,49736.99998855591,Thu Aug 21 2025 09:39:32 GMT-0500 (Central Daylight Time),396544.90000009537,A,sh,O,h,101,1,266.2000000476837,396278.7000000477,7204,WL,C,5.0
3,10.32699990272522,learn,49673.00009727478,Thu Aug 21 2025 09:39:32 GMT-0500 (Central Daylight Time),396609.40000009537,A,sho,O,o,59,1,330.7000000476837,396278.7000000477,7204,WL,C,5.0
3,10.461999893188477,learn,49538.00010681152,Thu Aug 21 2025 09:39:32 GMT-0500 (Central Daylight Time),396744.10000002384,A,shor,O,r,112,1,465.39999997615814,396278.7000000477,7204,WL,C,5.0
3,10.527999877929688,learn,49472.00012207031,Thu Aug 21 2025 09:39:32 GMT-0500 (Central Daylight Time),396810.60000002384,A,shore,O,e,51,1,531.8999999761581,396278.7000000477,7204,WL,C,5.0
3,10.961999893188477,learn,49038.00010681152,Thu Aug 21 2025 09:39:32 GMT-0500 (Central Daylight Time),397244.5,A,shoreenter,O,enter,427,1,965.7999999523163,396278.7000000477,7204,WL,C,5.0
3,11.212999820709229,learn,48787.00017929077,Thu Aug 21 2025 09:39:32 GMT-0500 (Central Daylight Time),397494.90000009537,A,b,O,b,230,1,250.10000002384186,397244.8000000715,7204,WL,C,6.0
3,11.32699990272522,learn,48673.00009727478,Thu Aug 21 2025 09:39:32 GMT-0500 (Central Daylight Time),397609.90000009537,A,bo,O,o,100,1,365.10000002384186,397244.8000000715,7204,WL,C,6.0
3,11.461999893188477,learn,48538.00010681152,Thu Aug 21 2025 09:39:32 GMT-0500 (Central Daylight Time),397744.7000000477,A,bod,O,d,111,1,499.89999997615814,397244.8000000715,7204,WL,C,6.0
3,11.577999830245972,learn,48422.00016975403,Thu Aug 21 2025 09:39:32 GMT-0500 (Central Daylight Time),397860.8000000715,A,body,O,y,97,1,616.0,397244.8000000715,7204,WL,C,6.0
3,11.845999956130981,learn,48154.00004386902,Thu Aug 21 2025 09:39:32 GMT-0500 (Central Daylight Time),398128.7000000477,A,bodyenter,O,enter,261,1,883.8999999761581,397244.8000000715,7204,WL,C,6.0
3,12.044999837875366,learn,47955.000162124634,Thu Aug 21 2025 09:39:32 GMT-0500 (Central Daylight Time),398327.3000000715,A,d,O,d,179,1,198.39999997615814,398128.90000009537,7204,WL,C,7.0
3,12.19599986076355,learn,47804.00013923645,Thu Aug 21 2025 09:39:32 GMT-0500 (Central Daylight Time),398478.40000009537,A,do,O,o,129,1,349.5,398128.90000009537,7204,WL,C,7.0
3,12.309999942779541,learn,47690.00005722046,Thu Aug 21 2025 09:39:32 GMT-0500 (Central Daylight Time),398592.60000002384,A,doc,O,c,100,1,463.6999999284744,398128.90000009537,7204,WL,C,7.0
3,12.394999980926514,learn,47605.000019073486,Thu Aug 21 2025 09:39:32 GMT-0500 (Central Daylight Time),398677.0,A,doct,O,t,76,1,548.0999999046326,398128.90000009537,7204,WL,C,7.0
3,12.527999877929688,learn,47472.00012207031,Thu Aug 21 2025 09:39:32 GMT-0500 (Central Daylight Time),398809.90000009537,A,docto,O,o,124,1,681.0,398128.90000009537,7204,WL,C,7.0
3,12.628000020980835,learn,47371.999979019165,Thu Aug 21 2025 09:39:32 GMT-0500 (Central Daylight Time),398910.8000000715,A,doctor,O,r,77,1,781.8999999761581,398128.90000009537,7204,WL,C,7.0
3,13.077999830245972,learn,46922.00016975403,Thu Aug 21 2025 09:39:32 GMT-0500 (Central Daylight Time),399360.2000000477,A,doctorenter,O,enter,427,1,1231.2999999523163,398128.90000009537,7204,WL,C,7.0
3,13.461999893188477,learn,46538.00010681152,Thu Aug 21 2025 09:39:32 GMT-0500 (Central Daylight Time),399744.2000000477,A,q,O,q,372,1,383.7000000476837,399360.5,7204,WL,C,8.0
3,13.543999910354614,learn,46456.000089645386,Thu Aug 21 2025 09:39:32 GMT-0500 (Central Daylight Time),399826.2000000477,A,qu,O,u,75,1,465.7000000476837,399360.5,7204,WL,C,8.0
3,13.679999828338623,learn,46320.00017166138,Thu Aug 21 2025 09:39:32 GMT-0500 (Central Daylight Time),399962.0,A,que,O,e,130,1,601.5,399360.5,7204,WL,C,8.0
3,13.84499979019165,learn,46155.00020980835,Thu Aug 21 2025 09:39:32 GMT-0500 (Central Daylight Time),400127.0,A,quee,O,e,144,1,766.5,399360.5,7204,WL,C,8.0
3,13.944999933242798,learn,46055.0000667572,Thu Aug 21 2025 09:39:32 GMT-0500 (Central Daylight Time),400227.3000000715,A,queen,O,n,82,1,866.8000000715256,399360.5,7204,WL,C,8.0
3,14.276000022888184,learn,45723.99997711182,Thu Aug 21 2025 09:39:32 GMT-0500 (Central Daylight Time),400558.5,A,queenenter,O,enter,317,1,1198.0,399360.5,7204,WL,C,8.0
3,14.744999885559082,learn,45255.00011444092,Thu Aug 21 2025 09:39:32 GMT-0500 (Central Daylight Time),401026.90000009537,A,h,O,h,454,1,468.10000002384186,400558.8000000715,7204,WL,C,9.0
3,14.82699990272522,learn,45173.00009727478,Thu Aug 21 2025 09:39:32 GMT-0500 (Central Daylight Time),401109.40000009537,A,ho,O,o,72,1,550.6000000238419,400558.8000000715,7204,WL,C,9.0
3,14.977999925613403,learn,45022.0000743866,Thu Aug 21 2025 09:39:32 GMT-0500 (Central Daylight Time),401259.90000009537,A,hom,O,m,143,1,701.1000000238419,400558.8000000715,7204,WL,C,9.0
3,15.093999862670898,learn,44906.0001373291,Thu Aug 21 2025 09:39:32 GMT-0500 (Central Daylight Time),401376.60000002384,A,home,O,e,104,1,817.7999999523163,400558.8000000715,7204,WL,C,9.0
3,15.39299988746643,learn,44607.00011253357,Thu Aug 21 2025 09:39:32 GMT-0500 (Central Daylight Time),401675.8000000715,A,homeenter,O,enter,280,1,1117.0,400558.8000000715,7204,WL,C,9.0
3,16.57699990272522,learn,43423.00009727478,Thu Aug 21 2025 09:39:32 GMT-0500 (Central Daylight Time),402859.60000002384,A,t,O,t,1175,1,1183.6000000238419,401676.0,7204,WL,C,10.0
3,16.67799997329712,learn,43322.00002670288,Thu Aug 21 2025 09:39:32 GMT-0500 (Central Daylight Time),402960.5,A,to,O,o,95,1,1284.5,401676.0,7204,WL,C,10.0
3,16.82799983024597,learn,43172.00016975403,Thu Aug 21 2025 09:39:32 GMT-0500 (Central Daylight Time),403110.3000000715,A,tow,O,w,139,1,1434.3000000715256,401676.0,7204,WL,C,10.0
3,16.944000005722046,learn,43055.999994277954,Thu Aug 21 2025 09:39:32 GMT-0500 (Central Daylight Time),403226.8000000715,A,towe,O,e,95,1,1550.8000000715256,401676.0,7204,WL,C,10.0
3,17.008999824523926,learn,42991.000175476074,Thu Aug 21 2025 09:39:32 GMT-0500 (Central Daylight Time),403291.60000002384,A,tower,O,r,52,1,1615.6000000238419,401676.0,7204,WL,C,10.0
3,17.30999994277954,learn,42690.00005722046,Thu Aug 21 2025 09:39:32 GMT-0500 (Central Daylight Time),403591.90000009537,A,towerenter,O,enter,287,1,1915.9000000953674,401676.0,7204,WL,C,10.0
3,17.90999984741211,learn,42090.00015258789,Thu Aug 21 2025 09:39:32 GMT-0500 (Central Daylight Time),404193.0,A,c,O,c,580,1,600.7999999523163,403592.2000000477,7204,WL,C,11.0
3,18.042999982833862,learn,41957.00001716614,Thu Aug 21 2025 09:39:32 GMT-0500 (Central Daylight Time),404325.3000000715,A,ca,O,a,111,1,733.1000000238419,403592.2000000477,7204,WL,C,11.0
3,18.126999855041504,learn,41873.000144958496,Thu Aug 21 2025 09:39:32 GMT-0500 (Central Daylight Time),404409.5,A,cat,O,t,79,1,817.2999999523163,403592.2000000477,7204,WL,C,11.0
3,18.258999824523926,learn,41741.000175476074,Thu Aug 21 2025 09:39:32 GMT-0500 (Central Daylight Time),404541.60000002384,A,catt,O,t,121,1,949.3999999761581,403592.2000000477,7204,WL,C,11.0
3,18.424999952316284,learn,41575.000047683716,Thu Aug 21 2025 09:39:32 GMT-0500 (Central Daylight Time),404707.10000002384,A,cattl,O,l,145,1,1114.8999999761581,403592.2000000477,7204,WL,C,11.0
3,18.926999807357788,learn,41073.00019264221,Thu Aug 21 2025 09:39:32 GMT-0500 (Central Daylight Time),405209.3000000715,A,cattle,O,e,497,1,1617.1000000238419,403592.2000000477,7204,WL,C,11.0
3,19.143999814987183,learn,40856.00018501282,Thu Aug 21 2025 09:39:32 GMT-0500 (Central Daylight Time),405426.0,A,cattleenter,O,enter,201,1,1833.7999999523163,403592.2000000477,7204,WL,C,11.0
3,19.45799994468689,learn,40542.00005531311,Thu Aug 21 2025 09:39:32 GMT-0500 (Central Daylight Time),405740.5,A,c,O,c,296,1,314.1999999284744,405426.3000000715,7204,WL,C,12.0
3,19.573999881744385,learn,40426.000118255615,Thu Aug 21 2025 09:39:32 GMT-0500 (Central Daylight Time),405855.90000009537,A,co,O,o,110,1,429.60000002384186,405426.3000000715,7204,WL,C,12.0
3,19.673999786376953,learn,40326.00021362305,Thu Aug 21 2025 09:39:32 GMT-0500 (Central Daylight Time),405956.3000000715,A,cor,O,r,92,1,530.0,405426.3000000715,7204,WL,C,12.0
3,19.80900001525879,learn,40190.99998474121,Thu Aug 21 2025 09:39:32 GMT-0500 (Central Daylight Time),406091.10000002384,A,corn,O,n,127,1,664.7999999523163,405426.3000000715,7204,WL,C,12.0
3,20.2739999294281,learn,39726.0000705719,Thu Aug 21 2025 09:39:32 GMT-0500 (Central Daylight Time),406556.5,A,cornenter,O,enter,456,1,1130.1999999284744,405426.3000000715,7204,WL,C,12.0
3,20.655999898910522,learn,39344.00010108948,Thu Aug 21 2025 09:39:32 GMT-0500 (Central Daylight Time),406938.8000000715,A,w,O,w,367,1,382.10000002384186,406556.7000000477,7204,WL,C,13.0
3,20.83999991416931,learn,39160.00008583069,Thu Aug 21 2025 09:39:32 GMT-0500 (Central Daylight Time),407122.40000009537,A,wh,O,h,169,1,565.7000000476837,406556.7000000477,7204,WL,C,13.0
3,20.957000017166138,learn,39042.99998283386,Thu Aug 21 2025 09:39:32 GMT-0500 (Central Daylight Time),407239.60000002384,A,whe,O,e,105,1,682.8999999761581,406556.7000000477,7204,WL,C,13.0
3,21.073999881744385,learn,38926.000118255615,Thu Aug 21 2025 09:39:32 GMT-0500 (Central Daylight Time),407356.2000000477,A,whea,O,a,100,1,799.5,406556.7000000477,7204,WL,C,13.0
3,21.173999786376953,learn,38826.00021362305,Thu Aug 21 2025 09:39:32 GMT-0500 (Central Daylight Time),407456.5,A,wheat,O,t,96,1,899.7999999523163,406556.7000000477,7204,WL,C,13.0
3,21.473999977111816,learn,38526.00002288818,Thu Aug 21 2025 09:39:32 GMT-0500 (Central Daylight Time),407756.40000009537,A,wheatenter,O,enter,283,1,1199.7000000476837,406556.7000000477,7204,WL,C,13.0
3,21.789999961853027,learn,38210.00003814697,Thu Aug 21 2025 09:39:32 GMT-0500 (Central Daylight Time),408072.8000000715,A,s,O,s,311,1,316.2000000476837,407756.60000002384,7204,WL,C,14.0
3,21.906999826431274,learn,38093.000173568726,Thu Aug 21 2025 09:39:32 GMT-0500 (Central Daylight Time),408189.3000000715,A,su,O,u,107,1,432.7000000476837,407756.60000002384,7204,WL,C,14.0
3,22.0239999294281,learn,37976.0000705719,Thu Aug 21 2025 09:39:32 GMT-0500 (Central Daylight Time),408306.10000002384,A,sug,O,g,110,1,549.5,407756.60000002384,7204,WL,C,14.0
3,22.207000017166138,learn,37792.99998283386,Thu Aug 21 2025 09:39:32 GMT-0500 (Central Daylight Time),408489.3000000715,A,suga,O,a,170,1,732.7000000476837,407756.60000002384,7204,WL,C,14.0
3,22.33999991416931,learn,37660.00008583069,Thu Aug 21 2025 09:39:32 GMT-0500 (Central Daylight Time),408622.60000002384,A,sugar,O,r,114,1,866.0,407756.60000002384,7204,WL,C,14.0
3,22.6729998588562,learn,37327.0001411438,Thu Aug 21 2025 09:39:32 GMT-0500 (Central Daylight Time),408955.7000000477,A,sugarenter,O,enter,325,1,1199.1000000238419,407756.60000002384,7204,WL,C,14.0
3,26.205999851226807,learn,33794.00014877319,Thu Aug 21 2025 09:39:32 GMT-0500 (Central Daylight Time),412488.0,A,n,O,n,3520,1,3532.0,408956.0,7204,WL,C,15.0
3,26.288999795913696,learn,33711.000204086304,Thu Aug 21 2025 09:39:32 GMT-0500 (Central Daylight Time),412571.40000009537,A,na,O,a,67,1,3615.4000000953674,408956.0,7204,WL,C,15.0
3,26.405999898910522,learn,33594.00010108948,Thu Aug 21 2025 09:39:32 GMT-0500 (Central Daylight Time),412688.10000002384,A,nai,O,i,97,1,3732.100000023842,408956.0,7204,WL,C,15.0
3,26.506999969482422,learn,33493.00003051758,Thu Aug 21 2025 09:39:32 GMT-0500 (Central Daylight Time),412789.3000000715,A,nail,O,l,92,1,3833.3000000715256,408956.0,7204,WL,C,15.0
3,27.721999883651733,learn,32278.000116348267,Thu Aug 21 2025 09:39:32 GMT-0500 (Central Daylight Time),414004.10000002384,A,nailenter,O,enter,1207,1,5048.100000023842,408956.0,7204,WL,C,15.0
4,1.3659999370574951,learn,58634.000062942505,Thu Aug 21 2025 09:39:32 GMT-0500 (Central Daylight Time),485183.10000002384,A,d,O,d,1354,1,1366.2999999523163,483816.8000000715,7204,WL,C,1.0
4,1.5320000648498535,learn,58467.99993515015,Thu Aug 21 2025 09:39:32 GMT-0500 (Central Daylight Time),485349.3000000715,A,do,O,o,156,1,1532.5,483816.8000000715,7204,WL,C,1.0
4,1.6480000019073486,learn,58351.99999809265,Thu Aug 21 2025 09:39:32 GMT-0500 (Central Daylight Time),485465.2000000477,A,dor,O,r,96,1,1648.3999999761581,483816.8000000715,7204,WL,C,1.0
4,2.13100004196167,learn,57868.99995803833,Thu Aug 21 2025 09:39:32 GMT-0500 (Central Daylight Time),485948.3000000715,A,do,O,backspace,464,1,2131.5,483816.8000000715,7204,WL,C,1.0
4,2.632999897003174,learn,57367.000102996826,Thu Aug 21 2025 09:39:32 GMT-0500 (Central Daylight Time),486450.2000000477,A,doc,O,c,489,1,2633.399999976158,483816.8000000715,7204,WL,C,1.0
4,2.7990000247955322,learn,57200.99997520447,Thu Aug 21 2025 09:39:32 GMT-0500 (Central Daylight Time),486615.5,A,doct,O,t,153,1,2798.6999999284744,483816.8000000715,7204,WL,C,1.0
4,2.9159998893737793,learn,57084.00011062622,Thu Aug 21 2025 09:39:32 GMT-0500 (Central Daylight Time),486732.5,A,docto,O,o,108,1,2915.6999999284744,483816.8000000715,7204,WL,C,1.0
4,3.0320000648498535,learn,56967.99993515015,Thu Aug 21 2025 09:39:32 GMT-0500 (Central Daylight Time),486848.90000009537,A,doctor,O,r,104,1,3032.100000023842,483816.8000000715,7204,WL,C,1.0
4,3.9489998817443848,learn,56051.000118255615,Thu Aug 21 2025 09:39:32 GMT-0500 (Central Daylight Time),487765.60000002384,A,doctorenter,O,enter,897,1,3948.7999999523163,483816.8000000715,7204,WL,C,1.0
4,4.648000001907349,learn,55351.99999809265,Thu Aug 21 2025 09:39:32 GMT-0500 (Central Daylight Time),488465.10000002384,A,b,O,b,686,1,699.2999999523163,487765.8000000715,7204,WL,C,2.0
4,4.747999906539917,learn,55252.00009346008,Thu Aug 21 2025 09:39:32 GMT-0500 (Central Daylight Time),488565.2000000477,A,bo,O,o,82,1,799.3999999761581,487765.8000000715,7204,WL,C,2.0
4,4.864000082015991,learn,55135.99991798401,Thu Aug 21 2025 09:39:32 GMT-0500 (Central Daylight Time),488681.0,A,bod,O,d,100,1,915.1999999284744,487765.8000000715,7204,WL,C,2.0
4,4.96399998664856,learn,55036.00001335144,Thu Aug 21 2025 09:39:32 GMT-0500 (Central Daylight Time),488780.7000000477,A,body,O,y,87,1,1014.8999999761581,487765.8000000715,7204,WL,C,2.0
4,5.180999994277954,learn,54819.000005722046,Thu Aug 21 2025 09:39:32 GMT-0500 (Central Daylight Time),488997.7000000477,A,bodyenter,O,enter,196,1,1231.8999999761581,487765.8000000715,7204,WL,C,2.0
4,5.698999881744385,learn,54301.000118255615,Thu Aug 21 2025 09:39:32 GMT-0500 (Central Daylight Time),489515.5,A,n,O,n,497,1,517.5,488998.0,7204,WL,C,3.0
4,5.79800009727478,learn,54201.99990272522,Thu Aug 21 2025 09:39:32 GMT-0500 (Central Daylight Time),489614.8000000715,A,na,O,a,78,1,616.8000000715256,488998.0,7204,WL,C,3.0
4,5.915999889373779,learn,54084.00011062622,Thu Aug 21 2025 09:39:32 GMT-0500 (Central Daylight Time),489732.40000009537,A,nai,O,i,98,1,734.4000000953674,488998.0,7204,WL,C,3.0
4,6.0309998989105225,learn,53969.00010108948,Thu Aug 21 2025 09:39:32 GMT-0500 (Central Daylight Time),489848.0,A,nail,O,l,110,1,850.0,488998.0,7204,WL,C,3.0
4,6.315000057220459,learn,53684.99994277954,Thu Aug 21 2025 09:39:32 GMT-0500 (Central Daylight Time),490131.5,A,nailenter,O,enter,273,1,1133.5,488998.0,7204,WL,C,3.0
4,6.832000017166138,learn,53167.99998283386,Thu Aug 21 2025 09:39:32 GMT-0500 (Central Daylight Time),490648.8000000715,A,s,O,s,497,1,516.8999999761581,490131.90000009537,7204,WL,C,4.0
4,6.930000066757202,learn,53069.9999332428,Thu Aug 21 2025 09:39:32 GMT-0500 (Central Daylight Time),490746.7000000477,A,sh,O,h,89,1,614.7999999523163,490131.90000009537,7204,WL,C,4.0
4,7.0299999713897705,learn,52970.00002861023,Thu Aug 21 2025 09:39:32 GMT-0500 (Central Daylight Time),490847.0,A,sho,O,o,78,1,715.0999999046326,490131.90000009537,7204,WL,C,4.0
4,7.162999868392944,learn,52837.000131607056,Thu Aug 21 2025 09:39:32 GMT-0500 (Central Daylight Time),490979.7000000477,A,shor,O,r,121,1,847.7999999523163,490131.90000009537,7204,WL,C,4.0
4,7.29800009727478,learn,52701.99990272522,Thu Aug 21 2025 09:39:32 GMT-0500 (Central Daylight Time),491114.40000009537,A,shore,O,e,129,1,982.5,490131.90000009537,7204,WL,C,4.0
4,7.730000019073486,learn,52269.999980926514,Thu Aug 21 2025 09:39:32 GMT-0500 (Central Daylight Time),491547.3000000715,A,shoreenter,O,enter,425,1,1415.3999999761581,490131.90000009537,7204,WL,C,4.0
4,8.29699993133545,learn,51703.00006866455,Thu Aug 21 2025 09:39:32 GMT-0500 (Central Daylight Time),492114.3000000715,A,c,O,c,547,1,566.8000000715256,491547.5,7204,WL,C,5.0
4,8.379999876022339,learn,51620.00012397766,Thu Aug 21 2025 09:39:32 GMT-0500 (Central Daylight Time),492197.2000000477,A,ca,O,a,62,1,649.7000000476837,491547.5,7204,WL,C,5.0
4,8.44700002670288,learn,51552.99997329712,Thu Aug 21 2025 09:39:32 GMT-0500 (Central Daylight Time),492263.7000000477,A,cam,O,m,53,1,716.2000000476837,491547.5,7204,WL,C,5.0
4,8.596999883651733,learn,51403.00011634827,Thu Aug 21 2025 09:39:32 GMT-0500 (Central Daylight Time),492413.60000002384,A,camp,O,p,139,1,866.1000000238419,491547.5,7204,WL,C,5.0
4,8.88100004196167,learn,51118.99995803833,Thu Aug 21 2025 09:39:32 GMT-0500 (Central Daylight Time),492697.8000000715,A,campenter,O,enter,263,1,1150.3000000715256,491547.5,7204,WL,C,5.0
4,9.129999876022339,learn,50870.00012397766,Thu Aug 21 2025 09:39:32 GMT-0500 (Central Daylight Time),492946.90000009537,A,b,O,b,234,1,248.90000009536743,492698.0,7204,WL,C,6.0
4,9.213000059127808,learn,50786.99994087219,Thu Aug 21 2025 09:39:32 GMT-0500 (Central Daylight Time),493029.40000009537,A,bo,O,o,62,1,331.40000009536743,492698.0,7204,WL,C,6.0
4,9.463000059127808,learn,50536.99994087219,Thu Aug 21 2025 09:39:32 GMT-0500 (Central Daylight Time),493280.3000000715,A,boy,O,y,229,1,582.3000000715256,492698.0,7204,WL,C,6.0
4,9.812999963760376,learn,50187.000036239624,Thu Aug 21 2025 09:39:32 GMT-0500 (Central Daylight Time),493629.60000002384,A,boyenter,O,enter,328,1,931.6000000238419,492698.0,7204,WL,C,6.0
4,10.180000066757202,learn,49819.9999332428,Thu Aug 21 2025 09:39:32 GMT-0500 (Central Daylight Time),493996.5,A,f,O,f,350,1,366.6999999284744,493629.8000000715,7204,WL,C,7.0
4,10.29699993133545,learn,49703.00006866455,Thu Aug 21 2025 09:39:32 GMT-0500 (Central Daylight Time),494113.40000009537,A,fl,O,l,97,1,483.60000002384186,493629.8000000715,7204,WL,C,7.0
4,10.412999868392944,learn,49587.000131607056,Thu Aug 21 2025 09:39:32 GMT-0500 (Central Daylight Time),494229.7000000477,A,fla,O,a,94,1,599.8999999761581,493629.8000000715,7204,WL,C,7.0
4,10.562999963760376,learn,49437.000036239624,Thu Aug 21 2025 09:39:32 GMT-0500 (Central Daylight Time),494380.10000002384,A,flag,O,g,144,1,750.2999999523163,493629.8000000715,7204,WL,C,7.0
4,11.145999908447266,learn,48854.000091552734,Thu Aug 21 2025 09:39:32 GMT-0500 (Central Daylight Time),494962.8000000715,A,flagenter,O,enter,578,1,1333.0,493629.8000000715,7204,WL,C,7.0
4,12.812000036239624,learn,47187.999963760376,Thu Aug 21 2025 09:39:32 GMT-0500 (Central Daylight Time),496629.3000000715,A,s,O,s,1648,1,1666.2000000476837,494963.10000002384,7204,WL,C,8.0
4,12.878000020980835,learn,47121.999979019165,Thu Aug 21 2025 09:39:32 GMT-0500 (Central Daylight Time),496695.10000002384,A,sh,O,h,52,1,1732.0,494963.10000002384,7204,WL,C,8.0
4,12.994999885559082,learn,47005.00011444092,Thu Aug 21 2025 09:39:32 GMT-0500 (Central Daylight Time),496811.8000000715,A,sho,O,o,99,1,1848.7000000476837,494963.10000002384,7204,WL,C,8.0
4,13.111000061035156,learn,46888.999938964844,Thu Aug 21 2025 09:39:32 GMT-0500 (Central Daylight Time),496928.2000000477,A,shor,O,r,94,1,1965.1000000238419,494963.10000002384,7204,WL,C,8.0
4,13.16100001335144,learn,46838.99998664856,Thu Aug 21 2025 09:39:32 GMT-0500 (Central Daylight Time),496977.40000009537,A,shore,O,e,44,1,2014.3000000715256,494963.10000002384,7204,WL,C,8.0
4,13.477999925613403,learn,46522.0000743866,Thu Aug 21 2025 09:39:32 GMT-0500 (Central Daylight Time),497294.8000000715,A,shoreenter,O,enter,306,1,2331.7000000476837,494963.10000002384,7204,WL,C,8.0
4,15.644999980926514,learn,44355.000019073486,Thu Aug 21 2025 09:39:32 GMT-0500 (Central Daylight Time),499462.0,A,c,O,c,2150,1,2166.899999976158,497295.10000002384,7204,WL,C,9.0
4,15.795000076293945,learn,44204.999923706055,Thu Aug 21 2025 09:39:32 GMT-0500 (Central Daylight Time),499611.5,A,ca,O,a,140,1,2316.399999976158,497295.10000002384,7204,WL,C,9.0
4,15.894999980926514,learn,44105.000019073486,Thu Aug 21 2025 09:39:32 GMT-0500 (Central Daylight Time),499711.90000009537,A,cat,O,t,87,1,2416.8000000715256,497295.10000002384,7204,WL,C,9.0
4,16.045000076293945,learn,43954.999923706055,Thu Aug 21 2025 09:39:32 GMT-0500 (Central Daylight Time),499861.7000000477,A,catt,O,t,139,1,2566.600000023842,497295.10000002384,7204,WL,C,9.0
4,16.144999980926514,learn,43855.000019073486,Thu Aug 21 2025 09:39:32 GMT-0500 (Central Daylight Time),499961.8000000715,A,cattl,O,l,86,1,2666.7000000476837,497295.10000002384,7204,WL,C,9.0
4,16.26099991798401,learn,43739.00008201599,Thu Aug 21 2025 09:39:32 GMT-0500 (Central Daylight Time),500077.90000009537,A,cattle,O,e,105,1,2782.8000000715256,497295.10000002384,7204,WL,C,9.0
4,16.42799997329712,learn,43572.00002670288,Thu Aug 21 2025 09:39:32 GMT-0500 (Central Daylight Time),500244.7000000477,A,cattleenter,O,enter,147,1,2949.600000023842,497295.10000002384,7204,WL,C,9.0
4,16.810999870300293,learn,43189.00012969971,Thu Aug 21 2025 09:39:32 GMT-0500 (Central Daylight Time),500628.3000000715,A,w,O,w,374,1,383.3000000715256,500245.0,7204,WL,C,10.0
4,17.026999950408936,learn,42973.000049591064,Thu Aug 21 2025 09:39:32 GMT-0500 (Central Daylight Time),500844.2000000477,A,wh,O,h,199,1,599.2000000476837,500245.0,7204,WL,C,10.0
4,17.128000020980835,learn,42871.999979019165,Thu Aug 21 2025 09:39:32 GMT-0500 (Central Daylight Time),500945.3000000715,A,whe,O,e,87,1,700.3000000715256,500245.0,7204,WL,C,10.0
4,17.26099991798401,learn,42739.00008201599,Thu Aug 21 2025 09:39:32 GMT-0500 (Central Daylight Time),501077.90000009537,A,whea,O,a,111,1,832.9000000953674,500245.0,7204,WL,C,10.0
4,17.344000101089478,learn,42655.99989891052,Thu Aug 21 2025 09:39:32 GMT-0500 (Central Daylight Time),501160.7000000477,A,wheat,O,t,69,1,915.7000000476837,500245.0,7204,WL,C,10.0
4,17.55999994277954,learn,42440.00005722046,Thu Aug 21 2025 09:39:32 GMT-0500 (Central Daylight Time),501377.0,A,wheatenter,O,enter,210,1,1132.0,500245.0,7204,WL,C,10.0
4,18.194000005722046,learn,41805.999994277954,Thu Aug 21 2025 09:39:32 GMT-0500 (Central Daylight Time),502011.10000002384,A,c,O,c,617,1,633.7999999523163,501377.3000000715,7204,WL,C,11.0
4,18.276999950408936,learn,41723.000049591064,Thu Aug 21 2025 09:39:32 GMT-0500 (Central Daylight Time),502094.3000000715,A,co,O,o,73,1,717.0,501377.3000000715,7204,WL,C,11.0
4,18.39400005340576,learn,41605.99994659424,Thu Aug 21 2025 09:39:32 GMT-0500 (Central Daylight Time),502210.40000009537,A,cor,O,r,108,1,833.1000000238419,501377.3000000715,7204,WL,C,11.0
4,18.51099991798401,learn,41489.00008201599,Thu Aug 21 2025 09:39:32 GMT-0500 (Central Daylight Time),502327.40000009537,A,corn,O,n,96,1,950.1000000238419,501377.3000000715,7204,WL,C,11.0
4,18.693000078201294,learn,41306.999921798706,Thu Aug 21 2025 09:39:32 GMT-0500 (Central Daylight Time),502510.2000000477,A,cornenter,O,enter,161,1,1132.8999999761581,501377.3000000715,7204,WL,C,11.0
4,18.844000101089478,learn,41155.99989891052,Thu Aug 21 2025 09:39:32 GMT-0500 (Central Daylight Time),502660.8000000715,A,s,O,s,141,1,150.30000007152557,502510.5,7204,WL,C,12.0
4,18.944999933242798,learn,41055.0000667572,Thu Aug 21 2025 09:39:32 GMT-0500 (Central Daylight Time),502761.40000009537,A,su,O,u,79,1,250.90000009536743,502510.5,7204,WL,C,12.0
4,19.075999975204468,learn,40924.00002479553,Thu Aug 21 2025 09:39:32 GMT-0500 (Central Daylight Time),502892.8000000715,A,sug,O,g,111,1,382.3000000715256,502510.5,7204,WL,C,12.0
4,19.210999965667725,learn,40789.000034332275,Thu Aug 21 2025 09:39:32 GMT-0500 (Central Daylight Time),503027.3000000715,A,suga,O,a,112,1,516.8000000715256,502510.5,7204,WL,C,12.0
4,19.30999994277954,learn,40690.00005722046,Thu Aug 21 2025 09:39:32 GMT-0500 (Central Daylight Time),503127.2000000477,A,sugar,O,r,81,1,616.7000000476837,502510.5,7204,WL,C,12.0
4,19.526999950408936,learn,40473.000049591064,Thu Aug 21 2025 09:39:32 GMT-0500 (Central Daylight Time),503343.60000002384,A,sugarenter,O,enter,203,1,833.1000000238419,502510.5,7204,WL,C,12.0
4,20.259999990463257,learn,39740.00000953674,Thu Aug 21 2025 09:39:32 GMT-0500 (Central Daylight Time),504076.5,A,h,O,h,716,1,732.5999999046326,503343.90000009537,7204,WL,C,13.0
4,20.358999967575073,learn,39641.00003242493,Thu Aug 21 2025 09:39:32 GMT-0500 (Central Daylight Time),504175.7000000477,A,ho,O,o,84,1,831.7999999523163,503343.90000009537,7204,WL,C,13.0
4,20.493000030517578,learn,39506.99996948242,Thu Aug 21 2025 09:39:32 GMT-0500 (Central Daylight Time),504309.7000000477,A,hom,O,m,113,1,965.7999999523163,503343.90000009537,7204,WL,C,13.0
4,20.575999975204468,learn,39424.00002479553,Thu Aug 21 2025 09:39:32 GMT-0500 (Central Daylight Time),504392.7000000477,A,home,O,e,60,1,1048.7999999523163,503343.90000009537,7204,WL,C,13.0
4,20.70899987220764,learn,39291.00012779236,Thu Aug 21 2025 09:39:32 GMT-0500 (Central Daylight Time),504525.90000009537,A,homeenter,O,enter,117,1,1182.0,503343.90000009537,7204,WL,C,13.0
4,21.042999982833862,learn,38957.00001716614,Thu Aug 21 2025 09:39:32 GMT-0500 (Central Daylight Time),504859.60000002384,A,t,O,t,317,1,333.39999997615814,504526.2000000477,7204,WL,C,14.0
4,21.14299988746643,learn,38857.00011253357,Thu Aug 21 2025 09:39:32 GMT-0500 (Central Daylight Time),504959.5,A,to,O,o,85,1,433.2999999523163,504526.2000000477,7204,WL,C,14.0
4,21.243000030517578,learn,38756.99996948242,Thu Aug 21 2025 09:39:32 GMT-0500 (Central Daylight Time),505059.7000000477,A,tow,O,w,80,1,533.5,504526.2000000477,7204,WL,C,14.0
4,21.30900001525879,learn,38690.99998474121,Thu Aug 21 2025 09:39:32 GMT-0500 (Central Daylight Time),505125.5,A,towe,O,e,56,1,599.2999999523163,504526.2000000477,7204,WL,C,14.0
4,21.408999919891357,learn,38591.00008010864,Thu Aug 21 2025 09:39:32 GMT-0500 (Central Daylight Time),505226.10000002384,A,tower,O,r,83,1,699.8999999761581,504526.2000000477,7204,WL,C,14.0
4,21.691999912261963,learn,38308.00008773804,Thu Aug 21 2025 09:39:32 GMT-0500 (Central Daylight Time),505509.2000000477,A,towerenter,O,enter,262,1,983.0,504526.2000000477,7204,WL,C,14.0
4,22.45899987220764,learn,37541.00012779236,Thu Aug 21 2025 09:39:32 GMT-0500 (Central Daylight Time),506276.3000000715,A,q,O,q,751,1,766.8999999761581,505509.40000009537,7204,WL,C,15.0
4,22.52500009536743,learn,37474.99990463257,Thu Aug 21 2025 09:39:32 GMT-0500 (Central Daylight Time),506341.5,A,qu,O,u,45,1,832.0999999046326,505509.40000009537,7204,WL,C,15.0
4,22.625999927520752,learn,37374.00007247925,Thu Aug 21 2025 09:39:32 GMT-0500 (Central Daylight Time),506442.60000002384,A,que,O,e,92,1,933.1999999284744,505509.40000009537,7204,WL,C,15.0
4,22.792999982833862,learn,37207.00001716614,Thu Aug 21 2025 09:39:32 GMT-0500 (Central Daylight Time),506609.60000002384,A,quee,O,e,155,1,1100.1999999284744,505509.40000009537,7204,WL,C,15.0
4,22.89199995994568,learn,37108.00004005432,Thu Aug 21 2025 09:39:32 GMT-0500 (Central Daylight Time),506709.40000009537,A,queen,O,n,81,1,1200.0,505509.40000009537,7204,WL,C,15.0
4,23.174999952316284,learn,36825.000047683716,Thu Aug 21 2025 09:39:32 GMT-0500 (Central Daylight Time),506992.2000000477,A,queenenter,O,enter,267,1,1482.7999999523163,505509.40000009537,7204,WL,C,15.0
5,2.115000009536743,learn,60000.0,Thu Aug 21 2025 09:39:32 GMT-0500 (Central Daylight Time),576652.4000000954,A,d,O,d,2095,1,2115.100000023842,574537.3000000715,7204,WL,C,1.0
5,2.315999984741211,learn,60000.0,Thu Aug 21 2025 09:39:32 GMT-0500 (Central Daylight Time),576853.2000000477,A,do,O,o,190,1,2315.899999976158,574537.3000000715,7204,WL,C,1.0
5,2.4159998893737793,learn,60000.0,Thu Aug 21 2025 09:39:32 GMT-0500 (Central Daylight Time),576953.0,A,doc,O,c,84,1,2415.6999999284744,574537.3000000715,7204,WL,C,1.0
5,2.5999999046325684,learn,60000.0,Thu Aug 21 2025 09:39:32 GMT-0500 (Central Daylight Time),577137.2000000477,A,doct,O,t,161,1,2599.899999976158,574537.3000000715,7204,WL,C,1.0
5,2.6989998817443848,learn,60000.0,Thu Aug 21 2025 09:39:32 GMT-0500 (Central Daylight Time),577235.9000000954,A,docto,O,o,79,1,2698.600000023842,574537.3000000715,7204,WL,C,1.0
5,2.7990000247955322,learn,60000.0,Thu Aug 21 2025 09:39:32 GMT-0500 (Central Daylight Time),577336.4000000954,A,doctor,O,r,84,1,2799.100000023842,574537.3000000715,7204,WL,C,1.0
5,3.565999984741211,learn,60000.0,Thu Aug 21 2025 09:39:32 GMT-0500 (Central Daylight Time),578102.5,A,doctorenter,O,enter,744,1,3565.1999999284744,574537.3000000715,7204,WL,C,1.0
5,3.9489998817443848,learn,60000.0,Thu Aug 21 2025 09:39:32 GMT-0500 (Central Daylight Time),578486.4000000954,A,b,O,b,374,1,383.60000002384186,578102.8000000715,7204,WL,C,2.0
5,4.014999866485596,learn,60000.0,Thu Aug 21 2025 09:39:32 GMT-0500 (Central Daylight Time),578552.2000000477,A,bo,O,o,48,1,449.39999997615814,578102.8000000715,7204,WL,C,2.0
5,4.148999929428101,learn,60000.0,Thu Aug 21 2025 09:39:32 GMT-0500 (Central Daylight Time),578685.8000000715,A,bod,O,d,113,1,583.0,578102.8000000715,7204,WL,C,2.0
5,4.264999866485596,learn,60000.0,Thu Aug 21 2025 09:39:32 GMT-0500 (Central Daylight Time),578802.0,A,body,O,y,101,1,699.1999999284744,578102.8000000715,7204,WL,C,2.0
5,4.46399998664856,learn,60000.0,Thu Aug 21 2025 09:39:32 GMT-0500 (Central Daylight Time),579001.4000000954,A,bodyenter,O,enter,190,1,898.6000000238419,578102.8000000715,7204,WL,C,2.0
5,4.73199987411499,learn,60000.0,Thu Aug 21 2025 09:39:32 GMT-0500 (Central Daylight Time),579269.0,A,n,O,n,258,1,267.2999999523163,579001.7000000477,7204,WL,C,3.0
5,4.815000057220459,learn,60000.0,Thu Aug 21 2025 09:39:32 GMT-0500 (Central Daylight Time),579352.2000000477,A,na,O,a,59,1,350.5,579001.7000000477,7204,WL,C,3.0
5,4.948999881744385,learn,60000.0,Thu Aug 21 2025 09:39:32 GMT-0500 (Central Daylight Time),579486.4000000954,A,nai,O,i,113,1,484.7000000476837,579001.7000000477,7204,WL,C,3.0
5,5.049000024795532,learn,60000.0,Thu Aug 21 2025 09:39:32 GMT-0500 (Central Daylight Time),579586.0,A,nail,O,l,82,1,584.2999999523163,579001.7000000477,7204,WL,C,3.0
5,5.2820000648498535,learn,60000.0,Thu Aug 21 2025 09:39:32 GMT-0500 (Central Daylight Time),579818.8000000715,A,nailenter,O,enter,215,1,817.1000000238419,579001.7000000477,7204,WL,C,3.0
5,6.230999946594238,learn,60000.0,Thu Aug 21 2025 09:39:32 GMT-0500 (Central Daylight Time),580768.1000000238,A,c,O,c,929,1,949.1000000238419,579819.0,7204,WL,C,4.0
5,6.348999977111816,learn,60000.0,Thu Aug 21 2025 09:39:32 GMT-0500 (Central Daylight Time),580885.9000000954,A,ca,O,a,104,1,1066.9000000953674,579819.0,7204,WL,C,4.0
5,6.430999994277954,learn,60000.0,Thu Aug 21 2025 09:39:32 GMT-0500 (Central Daylight Time),580968.0,A,cam,O,m,58,1,1149.0,579819.0,7204,WL,C,4.0
5,6.580999851226807,learn,60000.0,Thu Aug 21 2025 09:39:32 GMT-0500 (Central Daylight Time),581118.4000000954,A,camp,O,p,129,1,1299.4000000953674,579819.0,7204,WL,C,4.0
5,8.080999851226807,learn,60000.0,Thu Aug 21 2025 09:39:32 GMT-0500 (Central Daylight Time),582618.0,A,campenter,O,enter,1489,1,2799.0,579819.0,7204,WL,C,4.0
5,10.346999883651733,learn,60000.0,Thu Aug 21 2025 09:39:32 GMT-0500 (Central Daylight Time),584884.0,A,s,O,s,2249,1,2265.7999999523163,582618.2000000477,7204,WL,C,5.0
5,10.430000066757202,learn,60000.0,Thu Aug 21 2025 09:39:32 GMT-0500 (Central Daylight Time),584966.6000000238,A,sh,O,h,63,1,2348.399999976158,582618.2000000477,7204,WL,C,5.0
5,10.52999997138977,learn,60000.0,Thu Aug 21 2025 09:39:32 GMT-0500 (Central Daylight Time),585067.0,A,sho,O,o,81,1,2448.7999999523163,582618.2000000477,7204,WL,C,5.0
5,10.629999876022339,learn,60000.0,Thu Aug 21 2025 09:39:32 GMT-0500 (Central Daylight Time),585166.9000000954,A,shor,O,r,85,1,2548.7000000476837,582618.2000000477,7204,WL,C,5.0
5,10.71399998664856,learn,60000.0,Thu Aug 21 2025 09:39:32 GMT-0500 (Central Daylight Time),585251.4000000954,A,shore,O,e,73,1,2633.2000000476837,582618.2000000477,7204,WL,C,5.0
5,10.897000074386597,learn,60000.0,Thu Aug 21 2025 09:39:32 GMT-0500 (Central Daylight Time),585433.9000000954,A,shoreenter,O,enter,165,1,2815.7000000476837,582618.2000000477,7204,WL,C,5.0
5,11.21399998664856,learn,60000.0,Thu Aug 21 2025 09:39:32 GMT-0500 (Central Daylight Time),585751.1000000238,A,f,O,f,305,1,316.7999999523163,585434.3000000715,7204,WL,C,6.0
5,11.412999868392944,learn,60000.0,Thu Aug 21 2025 09:39:32 GMT-0500 (Central Daylight Time),585949.9000000954,A,fl,O,l,186,1,515.6000000238419,585434.3000000715,7204,WL,C,6.0
5,11.54699993133545,learn,60000.0,Thu Aug 21 2025 09:39:32 GMT-0500 (Central Daylight Time),586083.6000000238,A,fla,O,a,122,1,649.2999999523163,585434.3000000715,7204,WL,C,6.0
5,11.664000034332275,learn,60000.0,Thu Aug 21 2025 09:39:32 GMT-0500 (Central Daylight Time),586201.1000000238,A,flag,O,g,95,1,766.7999999523163,585434.3000000715,7204,WL,C,6.0
5,11.895999908447266,learn,60000.0,Thu Aug 21 2025 09:39:32 GMT-0500 (Central Daylight Time),586433.4000000954,A,flagenter,O,enter,209,1,999.1000000238419,585434.3000000715,7204,WL,C,6.0
5,12.296000003814697,learn,60000.0,Thu Aug 21 2025 09:39:32 GMT-0500 (Central Daylight Time),586832.8000000715,A,b,O,b,379,1,399.10000002384186,586433.7000000477,7204,WL,C,7.0
5,12.34500002861023,learn,60000.0,Thu Aug 21 2025 09:39:32 GMT-0500 (Central Daylight Time),586882.0,A,bo,O,o,43,1,448.2999999523163,586433.7000000477,7204,WL,C,7.0
5,12.513000011444092,learn,60000.0,Thu Aug 21 2025 09:39:32 GMT-0500 (Central Daylight Time),587049.6000000238,A,boy,O,y,153,1,615.8999999761581,586433.7000000477,7204,WL,C,7.0
5,13.162999868392944,learn,60000.0,Thu Aug 21 2025 09:39:32 GMT-0500 (Central Daylight Time),587699.7000000477,A,boyenter,O,enter,630,1,1266.0,586433.7000000477,7204,WL,C,7.0
5,14.680000066757202,learn,60000.0,Thu Aug 21 2025 09:39:32 GMT-0500 (Central Daylight Time),589217.0,A,t,O,t,1497,1,1517.0999999046326,587699.9000000954,7204,WL,C,8.0
5,14.779000043869019,learn,60000.0,Thu Aug 21 2025 09:39:32 GMT-0500 (Central Daylight Time),589316.2000000477,A,to,O,o,89,1,1616.2999999523163,587699.9000000954,7204,WL,C,8.0
5,14.878000020980835,learn,60000.0,Thu Aug 21 2025 09:39:32 GMT-0500 (Central Daylight Time),589415.2000000477,A,tow,O,w,77,1,1715.2999999523163,587699.9000000954,7204,WL,C,8.0
5,14.944999933242798,learn,60000.0,Thu Aug 21 2025 09:39:32 GMT-0500 (Central Daylight Time),589481.8000000715,A,towe,O,e,57,1,1781.8999999761581,587699.9000000954,7204,WL,C,8.0
5,15.027999877929688,learn,60000.0,Thu Aug 21 2025 09:39:32 GMT-0500 (Central Daylight Time),589565.5,A,tower,O,r,63,1,1865.5999999046326,587699.9000000954,7204,WL,C,8.0
5,15.210999965667725,learn,60000.0,Thu Aug 21 2025 09:39:32 GMT-0500 (Central Daylight Time),589747.9000000954,A,towerenter,O,enter,171,1,2048.0,587699.9000000954,7204,WL,C,8.0
5,15.478999853134155,learn,60000.0,Thu Aug 21 2025 09:39:32 GMT-0500 (Central Daylight Time),590016.3000000715,A,h,O,h,248,1,268.2000000476837,589748.1000000238,7204,WL,C,9.0
5,15.544999837875366,learn,60000.0,Thu Aug 21 2025 09:39:32 GMT-0500 (Central Daylight Time),590082.4000000954,A,ho,O,o,47,1,334.3000000715256,589748.1000000238,7204,WL,C,9.0
5,15.69599986076355,learn,60000.0,Thu Aug 21 2025 09:39:32 GMT-0500 (Central Daylight Time),590232.7000000477,A,hom,O,m,135,1,484.60000002384186,589748.1000000238,7204,WL,C,9.0
5,15.828999996185303,learn,60000.0,Thu Aug 21 2025 09:39:32 GMT-0500 (Central Daylight Time),590366.2000000477,A,home,O,e,112,1,618.1000000238419,589748.1000000238,7204,WL,C,9.0
5,15.960999965667725,learn,60000.0,Thu Aug 21 2025 09:39:32 GMT-0500 (Central Daylight Time),590497.6000000238,A,homeenter,O,enter,114,1,749.5,589748.1000000238,7204,WL,C,9.0
5,16.41100001335144,learn,60000.0,Thu Aug 21 2025 09:39:32 GMT-0500 (Central Daylight Time),590948.3000000715,A,q,O,q,434,1,450.5,590497.8000000715,7204,WL,C,10.0
5,16.562000036239624,learn,60000.0,Thu Aug 21 2025 09:39:32 GMT-0500 (Central Daylight Time),591099.1000000238,A,qu,O,u,129,1,601.2999999523163,590497.8000000715,7204,WL,C,10.0
5,16.694999933242798,learn,60000.0,Thu Aug 21 2025 09:39:32 GMT-0500 (Central Daylight Time),591231.8000000715,A,que,O,e,110,1,734.0,590497.8000000715,7204,WL,C,10.0
5,16.8439998626709,learn,60000.0,Thu Aug 21 2025 09:39:32 GMT-0500 (Central Daylight Time),591381.1000000238,A,quee,O,e,127,1,883.2999999523163,590497.8000000715,7204,WL,C,10.0
5,16.944999933242798,learn,60000.0,Thu Aug 21 2025 09:39:32 GMT-0500 (Central Daylight Time),591481.6000000238,A,queen,O,n,83,1,983.7999999523163,590497.8000000715,7204,WL,C,10.0
5,17.161999940872192,learn,60000.0,Thu Aug 21 2025 09:39:32 GMT-0500 (Central Daylight Time),591699.3000000715,A,queenenter,O,enter,211,1,1201.5,590497.8000000715,7204,WL,C,10.0
5,17.793999910354614,learn,60000.0,Thu Aug 21 2025 09:39:32 GMT-0500 (Central Daylight Time),592330.9000000954,A,c,O,c,616,1,631.3000000715256,591699.6000000238,7204,WL,C,11.0
5,17.944999933242798,learn,60000.0,Thu Aug 21 2025 09:39:32 GMT-0500 (Central Daylight Time),592482.4000000954,A,ca,O,a,127,1,782.8000000715256,591699.6000000238,7204,WL,C,11.0
5,17.993000030517578,learn,60000.0,Thu Aug 21 2025 09:39:32 GMT-0500 (Central Daylight Time),592530.1000000238,A,cat,O,t,37,1,830.5,591699.6000000238,7204,WL,C,11.0
5,18.144999980926514,learn,60000.0,Thu Aug 21 2025 09:39:32 GMT-0500 (Central Daylight Time),592682.0,A,catt,O,t,138,1,982.3999999761581,591699.6000000238,7204,WL,C,11.0
5,18.22699999809265,learn,60000.0,Thu Aug 21 2025 09:39:32 GMT-0500 (Central Daylight Time),592763.5,A,cattl,O,l,70,1,1063.8999999761581,591699.6000000238,7204,WL,C,11.0
5,18.793999910354614,learn,60000.0,Thu Aug 21 2025 09:39:32 GMT-0500 (Central Daylight Time),593330.7000000477,A,cattle,O,e,559,1,1631.1000000238419,591699.6000000238,7204,WL,C,11.0
5,18.97699999809265,learn,60000.0,Thu Aug 21 2025 09:39:32 GMT-0500 (Central Daylight Time),593514.4000000954,A,cattleenter,O,enter,172,1,1814.8000000715256,591699.6000000238,7204,WL,C,11.0
5,19.24399995803833,learn,60000.0,Thu Aug 21 2025 09:39:32 GMT-0500 (Central Daylight Time),593780.7000000477,A,s,O,s,248,1,266.10000002384186,593514.6000000238,7204,WL,C,12.0
5,19.342999935150146,learn,60000.0,Thu Aug 21 2025 09:39:32 GMT-0500 (Central Daylight Time),593880.5,A,su,O,u,86,1,365.89999997615814,593514.6000000238,7204,WL,C,12.0
5,19.842999935150146,learn,60000.0,Thu Aug 21 2025 09:39:32 GMT-0500 (Central Daylight Time),594380.4000000954,A,sug,O,g,480,1,865.8000000715256,593514.6000000238,7204,WL,C,12.0
5,19.97699999809265,learn,60000.0,Thu Aug 21 2025 09:39:32 GMT-0500 (Central Daylight Time),594514.6000000238,A,suga,O,a,115,1,1000.0,593514.6000000238,7204,WL,C,12.0
5,20.109999895095825,learn,60000.0,Thu Aug 21 2025 09:39:32 GMT-0500 (Central Daylight Time),594647.4000000954,A,sugar,O,r,112,1,1132.8000000715256,593514.6000000238,7204,WL,C,12.0
5,20.32699990272522,learn,60000.0,Thu Aug 21 2025 09:39:32 GMT-0500 (Central Daylight Time),594864.1000000238,A,sugarenter,O,enter,202,1,1349.5,593514.6000000238,7204,WL,C,12.0
5,20.45799994468689,learn,60000.0,Thu Aug 21 2025 09:39:32 GMT-0500 (Central Daylight Time),594995.5,A,c,O,c,114,1,131.19999992847443,594864.3000000715,7204,WL,C,13.0
5,20.57699990272522,learn,60000.0,Thu Aug 21 2025 09:39:32 GMT-0500 (Central Daylight Time),595114.4000000954,A,co,O,o,105,1,250.10000002384186,594864.3000000715,7204,WL,C,13.0
5,20.65999984741211,learn,60000.0,Thu Aug 21 2025 09:39:32 GMT-0500 (Central Daylight Time),595197.3000000715,A,cor,O,r,63,1,333.0,594864.3000000715,7204,WL,C,13.0
5,20.76099991798401,learn,60000.0,Thu Aug 21 2025 09:39:32 GMT-0500 (Central Daylight Time),595298.3000000715,A,corn,O,n,77,1,434.0,594864.3000000715,7204,WL,C,13.0
5,21.126999855041504,learn,60000.0,Thu Aug 21 2025 09:39:32 GMT-0500 (Central Daylight Time),595664.4000000954,A,cornw,O,w,350,1,800.1000000238419,594864.3000000715,7204,WL,C,13.0
5,22.39400005340576,learn,60000.0,Thu Aug 21 2025 09:39:32 GMT-0500 (Central Daylight Time),596930.7000000477,A,corn,O,backspace,1256,1,2066.399999976158,594864.3000000715,7204,WL,C,13.0
5,22.89199995994568,learn,60000.0,Thu Aug 21 2025 09:39:32 GMT-0500 (Central Daylight Time),597429.7000000477,A,cornenter,O,enter,485,1,2565.399999976158,594864.3000000715,7204,WL,C,13.0
5,23.30900001525879,learn,60000.0,Thu Aug 21 2025 09:39:32 GMT-0500 (Central Daylight Time),597846.6000000238,A,s,O,s,406,1,416.60000002384186,597430.0,7204,WL,C,14.0
5,23.8439998626709,learn,60000.0,Thu Aug 21 2025 09:39:32 GMT-0500 (Central Daylight Time),598381.0,A,,O,backspace,528,1,951.0,597430.0,7204,WL,C,14.0
5,23.95899987220764,learn,60000.0,Thu Aug 21 2025 09:39:32 GMT-0500 (Central Daylight Time),598496.4000000954,A,w,O,w,94,1,1066.4000000953674,597430.0,7204,WL,C,14.0
5,24.092000007629395,learn,60000.0,Thu Aug 21 2025 09:39:32 GMT-0500 (Central Daylight Time),598629.9000000954,A,wh,O,h,121,1,1199.9000000953674,597430.0,7204,WL,C,14.0
5,24.175999879837036,learn,60000.0,Thu Aug 21 2025 09:39:32 GMT-0500 (Central Daylight Time),598713.5,A,whe,O,e,61,1,1283.5,597430.0,7204,WL,C,14.0
5,24.29200005531311,learn,60000.0,Thu Aug 21 2025 09:39:32 GMT-0500 (Central Daylight Time),598829.4000000954,A,whea,O,a,94,1,1399.4000000953674,597430.0,7204,WL,C,14.0
5,24.39299988746643,learn,60000.0,Thu Aug 21 2025 09:39:32 GMT-0500 (Central Daylight Time),598930.0,A,wheat,O,t,80,1,1500.0,597430.0,7204,WL,C,14.0
5,24.743000030517578,learn,60000.0,Thu Aug 21 2025 09:39:32 GMT-0500 (Central Daylight Time),599280.1000000238,A,wheatenter,O,enter,327,1,1850.1000000238419,597430.0,7204,WL,C,14.0
5,48.26900005340576,learn,60000.0,Thu Aug 21 2025 09:39:32 GMT-0500 (Central Daylight Time),622806.5,A,l,O,l,23515,1,23526.199999928474,599280.3000000715,7204,WL,C,15.0
5,48.41799998283386,learn,60000.0,Thu Aug 21 2025 09:39:32 GMT-0500 (Central Daylight Time),622955.5,A,le,O,e,132,1,23675.199999928474,599280.3000000715,7204,WL,C,15.0
5,48.53499984741211,learn,60000.0,Thu Aug 21 2025 09:39:32 GMT-0500 (Central Daylight Time),623072.1000000238,A,let,O,t,101,1,23791.799999952316,599280.3000000715,7204,WL,C,15.0
5,48.70300006866455,learn,60000.0,Thu Aug 21 2025 09:39:32 GMT-0500 (Central Daylight Time),623240.1000000238,A,lett,O,t,145,1,23959.799999952316,599280.3000000715,7204,WL,C,15.0
5,48.800999879837036,learn,60000.0,Thu Aug 21 2025 09:39:32 GMT-0500 (Central Daylight Time),623338.0,A,lette,O,e,75,1,24057.699999928474,599280.3000000715,7204,WL,C,15.0
5,48.88499999046326,learn,60000.0,Thu Aug 21 2025 09:39:32 GMT-0500 (Central Daylight Time),623421.8000000715,A,letter,O,r,71,1,24141.5,599280.3000000715,7204,WL,C,15.0
5,49.0,learn,60000.0,Thu Aug 21 2025 09:39:32 GMT-0500 (Central Daylight Time),623537.3000000715,A,letterenter,O,enter,107,1,24257.0,599280.3000000715,7204,WL,C,15.0
6,1.5490000247955322,distr,58450.99997520447,Thu Aug 21 2025 09:39:32 GMT-0500 (Central Daylight Time),710427.4000000954,B,m,O,m,1541,1,1548.3000000715256,708879.1000000238,7204,WL,C,1.0
6,1.6670000553131104,distr,58332.99994468689,Thu Aug 21 2025 09:39:32 GMT-0500 (Central Daylight Time),710545.1000000238,B,mo,O,o,103,1,1666.0,708879.1000000238,7204,WL,C,1.0
6,1.8010001182556152,distr,58198.999881744385,Thu Aug 21 2025 09:39:32 GMT-0500 (Central Daylight Time),710679.8000000715,B,mon,O,n,109,1,1800.7000000476837,708879.1000000238,7204,WL,C,1.0
6,1.88100004196167,distr,58118.99995803833,Thu Aug 21 2025 09:39:32 GMT-0500 (Central Daylight Time),710759.8000000715,B,mone,O,e,59,1,1880.7000000476837,708879.1000000238,7204,WL,C,1.0
6,2.0160000324249268,distr,57983.99996757507,Thu Aug 21 2025 09:39:32 GMT-0500 (Central Daylight Time),710894.1000000238,B,money,O,y,120,1,2015.0,708879.1000000238,7204,WL,C,1.0
6,2.5820000171661377,distr,57417.99998283386,Thu Aug 21 2025 09:39:32 GMT-0500 (Central Daylight Time),711460.3000000715,B,moneyenter,O,enter,555,1,2581.2000000476837,708879.1000000238,7204,WL,C,1.0
6,2.8480000495910645,distr,57151.999950408936,Thu Aug 21 2025 09:39:32 GMT-0500 (Central Daylight Time),711726.4000000954,B,d,O,d,255,1,265.8000000715256,711460.6000000238,7204,WL,C,2.0
6,2.930000066757202,distr,57069.9999332428,Thu Aug 21 2025 09:39:32 GMT-0500 (Central Daylight Time),711808.8000000715,B,do,O,o,65,1,348.2000000476837,711460.6000000238,7204,WL,C,2.0
6,3.1640000343322754,distr,56835.999965667725,Thu Aug 21 2025 09:39:32 GMT-0500 (Central Daylight Time),712042.5,B,dol,O,l,219,1,581.8999999761581,711460.6000000238,7204,WL,C,2.0
6,3.3310000896453857,distr,56668.999910354614,Thu Aug 21 2025 09:39:32 GMT-0500 (Central Daylight Time),712209.9000000954,B,doll,O,l,153,1,749.3000000715256,711460.6000000238,7204,WL,C,2.0
6,3.614000082015991,distr,56385.99991798401,Thu Aug 21 2025 09:39:32 GMT-0500 (Central Daylight Time),712492.8000000715,B,dolla,O,a,263,1,1032.2000000476837,711460.6000000238,7204,WL,C,2.0
6,3.765000104904175,distr,56234.999895095825,Thu Aug 21 2025 09:39:32 GMT-0500 (Central Daylight Time),712643.8000000715,B,dollar,O,r,140,1,1183.2000000476837,711460.6000000238,7204,WL,C,2.0
6,4.333000183105469,distr,55666.99981689453,Thu Aug 21 2025 09:39:32 GMT-0500 (Central Daylight Time),713211.7000000477,B,dollarenter,O,enter,547,1,1751.1000000238419,711460.6000000238,7204,WL,C,2.0
6,5.615000009536743,distr,54384.99999046326,Thu Aug 21 2025 09:39:32 GMT-0500 (Central Daylight Time),714493.2000000477,B,c,O,c,1271,1,1281.2000000476837,713212.0,7204,WL,C,3.0
6,5.697000026702881,distr,54302.99997329712,Thu Aug 21 2025 09:39:32 GMT-0500 (Central Daylight Time),714576.1000000238,B,ch,O,h,68,1,1364.1000000238419,713212.0,7204,WL,C,3.0
6,5.831000089645386,distr,54168.999910354614,Thu Aug 21 2025 09:39:32 GMT-0500 (Central Daylight Time),714709.8000000715,B,chr,O,r,123,1,1497.8000000715256,713212.0,7204,WL,C,3.0
6,6.147000074386597,distr,53852.9999256134,Thu Aug 21 2025 09:39:32 GMT-0500 (Central Daylight Time),715025.3000000715,B,chri,O,i,300,1,1813.3000000715256,713212.0,7204,WL,C,3.0
6,6.2820000648498535,distr,53717.99993515015,Thu Aug 21 2025 09:39:32 GMT-0500 (Central Daylight Time),715160.2000000477,B,chris,O,s,120,1,1948.2000000476837,713212.0,7204,WL,C,3.0
6,6.383000135421753,distr,53616.99986457825,Thu Aug 21 2025 09:39:32 GMT-0500 (Central Daylight Time),715261.5,B,christ,O,t,81,1,2049.5,713212.0,7204,WL,C,3.0
6,6.497000217437744,distr,53502.999782562256,Thu Aug 21 2025 09:39:32 GMT-0500 (Central Daylight Time),715375.5,B,christm,O,m,102,1,2163.5,713212.0,7204,WL,C,3.0
6,6.63100004196167,distr,53368.99995803833,Thu Aug 21 2025 09:39:32 GMT-0500 (Central Daylight Time),715509.1000000238,B,christma,O,a,113,1,2297.100000023842,713212.0,7204,WL,C,3.0
6,7.04800009727478,distr,52951.99990272522,Thu Aug 21 2025 09:39:32 GMT-0500 (Central Daylight Time),715926.6000000238,B,christmas,O,s,408,1,2714.600000023842,713212.0,7204,WL,C,3.0
6,7.547000169754028,distr,52452.99983024597,Thu Aug 21 2025 09:39:32 GMT-0500 (Central Daylight Time),716425.2000000477,B,christmasenter,O,enter,491,1,3213.2000000476837,713212.0,7204,WL,C,3.0
6,8.063000202178955,distr,51936.999797821045,Thu Aug 21 2025 09:39:32 GMT-0500 (Central Daylight Time),716941.4000000954,B,m,O,m,497,1,516.0,716425.4000000954,7204,WL,C,4.0
6,8.147000074386597,distr,51852.9999256134,Thu Aug 21 2025 09:39:32 GMT-0500 (Central Daylight Time),717025.4000000954,B,mo,O,o,60,1,600.0,716425.4000000954,7204,WL,C,4.0
6,8.26200008392334,distr,51737.99991607666,Thu Aug 21 2025 09:39:32 GMT-0500 (Central Daylight Time),717140.8000000715,B,mot,O,t,94,1,715.3999999761581,716425.4000000954,7204,WL,C,4.0
6,8.349000215530396,distr,51650.999784469604,Thu Aug 21 2025 09:39:32 GMT-0500 (Central Daylight Time),717227.3000000715,B,moth,O,h,70,1,801.8999999761581,716425.4000000954,7204,WL,C,4.0
6,8.396000146865845,distr,51603.999853134155,Thu Aug 21 2025 09:39:32 GMT-0500 (Central Daylight Time),717274.8000000715,B,mothe,O,e,39,1,849.3999999761581,716425.4000000954,7204,WL,C,4.0
6,8.481000185012817,distr,51518.99981498718,Thu Aug 21 2025 09:39:32 GMT-0500 (Central Daylight Time),717359.5,B,mother,O,r,71,1,934.0999999046326,716425.4000000954,7204,WL,C,4.0
6,8.78000020980835,distr,51219.99979019165,Thu Aug 21 2025 09:39:32 GMT-0500 (Central Daylight Time),717658.3000000715,B,motherenter,O,enter,293,1,1232.8999999761581,716425.4000000954,7204,WL,C,4.0
6,9.146000146865845,distr,50853.999853134155,Thu Aug 21 2025 09:39:32 GMT-0500 (Central Daylight Time),718024.6000000238,B,v,O,v,347,1,365.89999997615814,717658.7000000477,7204,WL,C,5.0
6,9.247000217437744,distr,50752.999782562256,Thu Aug 21 2025 09:39:32 GMT-0500 (Central Daylight Time),718125.4000000954,B,va,O,a,81,1,466.7000000476837,717658.7000000477,7204,WL,C,5.0
6,9.295000076293945,distr,50704.999923706055,Thu Aug 21 2025 09:39:32 GMT-0500 (Central Daylight Time),718173.5,B,val,O,l,35,1,514.7999999523163,717658.7000000477,7204,WL,C,5.0
6,9.463000059127808,distr,50536.99994087219,Thu Aug 21 2025 09:39:32 GMT-0500 (Central Daylight Time),718341.8000000715,B,vall,O,l,149,1,683.1000000238419,717658.7000000477,7204,WL,C,5.0
6,9.564000129699707,distr,50435.99987030029,Thu Aug 21 2025 09:39:32 GMT-0500 (Central Daylight Time),718442.9000000954,B,valle,O,e,94,1,784.2000000476837,717658.7000000477,7204,WL,C,5.0
6,9.662000179290771,distr,50337.99982070923,Thu Aug 21 2025 09:39:32 GMT-0500 (Central Daylight Time),718540.8000000715,B,valley,O,y,77,1,882.1000000238419,717658.7000000477,7204,WL,C,5.0
6,10.362000226974487,distr,49637.99977302551,Thu Aug 21 2025 09:39:32 GMT-0500 (Central Daylight Time),719240.9000000954,B,valleyenter,O,enter,678,1,1582.2000000476837,717658.7000000477,7204,WL,C,5.0
6,12.862000226974487,distr,47137.99977302551,Thu Aug 21 2025 09:39:32 GMT-0500 (Central Daylight Time),721740.6000000238,B,s,O,s,2490,1,2499.5,719241.1000000238,7204,WL,C,6.0
6,12.944000005722046,distr,47055.999994277954,Thu Aug 21 2025 09:39:32 GMT-0500 (Central Daylight Time),721822.1000000238,B,sk,O,k,61,1,2581.0,719241.1000000238,7204,WL,C,6.0
6,13.09500002861023,distr,46904.99997138977,Thu Aug 21 2025 09:39:32 GMT-0500 (Central Daylight Time),721973.4000000954,B,sky,O,y,143,1,2732.3000000715256,719241.1000000238,7204,WL,C,6.0
6,13.377000093460083,distr,46622.99990653992,Thu Aug 21 2025 09:39:32 GMT-0500 (Central Daylight Time),722255.5,B,skyenter,O,enter,268,1,3014.399999976158,719241.1000000238,7204,WL,C,6.0
6,24.29100012779236,distr,35708.99987220764,Thu Aug 21 2025 09:39:32 GMT-0500 (Central Daylight Time),733170.0,B,enter,O,enter,10901,1,10914.299999952316,722255.7000000477,7204,WL,C,7.0
6,26.52500009536743,distr,33474.99990463257,Thu Aug 21 2025 09:39:32 GMT-0500 (Central Daylight Time),735403.2000000477,B,enter,O,enter,2217,1,2233.0,733170.2000000477,7204,WL,C,8.0
6,27.10800004005432,distr,32891.99995994568,Thu Aug 21 2025 09:39:32 GMT-0500 (Central Daylight Time),735986.7000000477,B,enter,O,enter,562,1,583.2000000476837,735403.5,7204,WL,C,9.0
6,27.490000009536743,distr,32509.999990463257,Thu Aug 21 2025 09:39:32 GMT-0500 (Central Daylight Time),736368.8000000715,B,enter,O,enter,363,1,381.8000000715256,735987.0,7204,WL,C,10.0
6,27.69000005722046,distr,32309.99994277954,Thu Aug 21 2025 09:39:32 GMT-0500 (Central Daylight Time),736568.9000000954,B,enter,O,enter,185,1,199.80000007152557,736369.1000000238,7204,WL,C,11.0
6,27.891000032424927,distr,32108.999967575073,Thu Aug 21 2025 09:39:32 GMT-0500 (Central Daylight Time),736769.9000000954,B,enter,O,enter,180,1,200.70000004768372,736569.2000000477,7204,WL,C,12.0
6,28.073000192642212,distr,31926.999807357788,Thu Aug 21 2025 09:39:32 GMT-0500 (Central Daylight Time),736951.9000000954,B,enter,O,enter,162,1,181.70000004768372,736770.2000000477,7204,WL,C,13.0
6,28.23900008201599,distr,31760.99991798401,Thu Aug 21 2025 09:39:32 GMT-0500 (Central Daylight Time),737117.5,B,enter,O,enter,146,1,165.29999995231628,736952.2000000477,7204,WL,C,14.0
6,28.724000215530396,distr,31275.999784469604,Thu Aug 21 2025 09:39:32 GMT-0500 (Central Daylight Time),737602.0,B,enter,O,enter,470,1,484.1999999284744,737117.8000000715,7204,WL,C,15.0
7,1.0840001106262207,immed,58915.99988937378,Thu Aug 21 2025 09:39:32 GMT-0500 (Central Daylight Time),759813.1000000238,A,d,O,d,1074,1,1083.5,758729.6000000238,7204,WL,C,1.0
7,1.2150001525878906,immed,58784.99984741211,Thu Aug 21 2025 09:39:32 GMT-0500 (Central Daylight Time),759944.8000000715,A,do,O,o,123,1,1215.2000000476837,758729.6000000238,7204,WL,C,1.0
7,1.498000144958496,immed,58501.999855041504,Thu Aug 21 2025 09:39:32 GMT-0500 (Central Daylight Time),760227.6000000238,A,doc,O,c,267,1,1498.0,758729.6000000238,7204,WL,C,1.0
7,1.6489999294281006,immed,58351.0000705719,Thu Aug 21 2025 09:39:32 GMT-0500 (Central Daylight Time),760378.4000000954,A,doct,O,t,136,1,1648.8000000715256,758729.6000000238,7204,WL,C,1.0
7,1.75,immed,58250.0,Thu Aug 21 2025 09:39:32 GMT-0500 (Central Daylight Time),760479.5,A,docto,O,o,95,1,1749.8999999761581,758729.6000000238,7204,WL,C,1.0
7,1.8650000095367432,immed,58134.99999046326,Thu Aug 21 2025 09:39:32 GMT-0500 (Central Daylight Time),760594.7000000477,A,doctor,O,r,100,1,1865.1000000238419,758729.6000000238,7204,WL,C,1.0
7,2.2639999389648438,immed,57736.000061035156,Thu Aug 21 2025 09:39:32 GMT-0500 (Central Daylight Time),760993.5,A,doctorenter,O,enter,391,1,2263.899999976158,758729.6000000238,7204,WL,C,1.0
7,2.9000000953674316,immed,57099.99990463257,Thu Aug 21 2025 09:39:32 GMT-0500 (Central Daylight Time),761629.6000000238,A,b,O,b,616,1,635.7999999523163,760993.8000000715,7204,WL,C,2.0
7,2.9820001125335693,immed,57017.99988746643,Thu Aug 21 2025 09:39:32 GMT-0500 (Central Daylight Time),761711.8000000715,A,bo,O,o,77,1,718.0,760993.8000000715,7204,WL,C,2.0
7,3.1480000019073486,immed,56851.99999809265,Thu Aug 21 2025 09:39:32 GMT-0500 (Central Daylight Time),761877.9000000954,A,bod,O,d,145,1,884.1000000238419,760993.8000000715,7204,WL,C,2.0
7,3.248000144958496,immed,56751.999855041504,Thu Aug 21 2025 09:39:32 GMT-0500 (Central Daylight Time),761977.9000000954,A,body,O,y,90,1,984.1000000238419,760993.8000000715,7204,WL,C,2.0
7,3.5139999389648438,immed,56486.000061035156,Thu Aug 21 2025 09:39:32 GMT-0500 (Central Daylight Time),762243.2000000477,A,bodyenter,O,enter,250,1,1249.3999999761581,760993.8000000715,7204,WL,C,2.0
7,3.7660000324249268,immed,56233.99996757507,Thu Aug 21 2025 09:39:32 GMT-0500 (Central Daylight Time),762496.0,A,n,O,n,241,1,252.59999990463257,762243.4000000954,7204,WL,C,3.0
7,3.8980000019073486,immed,56101.99999809265,Thu Aug 21 2025 09:39:32 GMT-0500 (Central Daylight Time),762627.2000000477,A,na,O,a,110,1,383.7999999523163,762243.4000000954,7204,WL,C,3.0
7,3.9809999465942383,immed,56019.00005340576,Thu Aug 21 2025 09:39:32 GMT-0500 (Central Daylight Time),762710.8000000715,A,nai,O,i,71,1,467.39999997615814,762243.4000000954,7204,WL,C,3.0
7,4.081000089645386,immed,55918.999910354614,Thu Aug 21 2025 09:39:32 GMT-0500 (Central Daylight Time),762810.9000000954,A,nail,O,l,90,1,567.5,762243.4000000954,7204,WL,C,3.0
7,4.414000034332275,immed,55585.999965667725,Thu Aug 21 2025 09:39:32 GMT-0500 (Central Daylight Time),763143.0,A,nailenter,O,enter,320,1,899.5999999046326,762243.4000000954,7204,WL,C,3.0
7,4.947999954223633,immed,55052.00004577637,Thu Aug 21 2025 09:39:32 GMT-0500 (Central Daylight Time),763677.5,A,s,O,s,524,1,534.2999999523163,763143.2000000477,7204,WL,C,4.0
7,5.031000137329102,immed,54968.9998626709,Thu Aug 21 2025 09:39:32 GMT-0500 (Central Daylight Time),763760.8000000715,A,sh,O,h,70,1,617.6000000238419,763143.2000000477,7204,WL,C,4.0
7,5.114000082015991,immed,54885.99991798401,Thu Aug 21 2025 09:39:32 GMT-0500 (Central Daylight Time),763843.8000000715,A,sho,O,o,64,1,700.6000000238419,763143.2000000477,7204,WL,C,4.0
7,5.248000144958496,immed,54751.999855041504,Thu Aug 21 2025 09:39:32 GMT-0500 (Central Daylight Time),763977.2000000477,A,shor,O,r,118,1,834.0,763143.2000000477,7204,WL,C,4.0
7,5.331000089645386,immed,54668.999910354614,Thu Aug 21 2025 09:39:32 GMT-0500 (Central Daylight Time),764060.5,A,shore,O,e,64,1,917.2999999523163,763143.2000000477,7204,WL,C,4.0
7,5.513999938964844,immed,54486.000061035156,Thu Aug 21 2025 09:39:32 GMT-0500 (Central Daylight Time),764243.1000000238,A,shoreenter,O,enter,166,1,1099.8999999761581,763143.2000000477,7204,WL,C,4.0
7,6.147000074386597,immed,53852.9999256134,Thu Aug 21 2025 09:39:32 GMT-0500 (Central Daylight Time),764876.8000000715,A,b,O,b,616,1,633.3999999761581,764243.4000000954,7204,WL,C,5.0
7,6.266000032424927,immed,53733.99996757507,Thu Aug 21 2025 09:39:32 GMT-0500 (Central Daylight Time),764995.1000000238,A,bo,O,o,102,1,751.6999999284744,764243.4000000954,7204,WL,C,5.0
7,6.397000074386597,immed,53602.9999256134,Thu Aug 21 2025 09:39:32 GMT-0500 (Central Daylight Time),765126.8000000715,A,boy,O,y,121,1,883.3999999761581,764243.4000000954,7204,WL,C,5.0
7,7.013000011444092,immed,52986.99998855591,Thu Aug 21 2025 09:39:32 GMT-0500 (Central Daylight Time),765742.1000000238,A,boyenter,O,enter,605,1,1498.6999999284744,764243.4000000954,7204,WL,C,5.0
7,7.265000104904175,immed,52734.999895095825,Thu Aug 21 2025 09:39:32 GMT-0500 (Central Daylight Time),765994.2000000477,A,c,O,c,238,1,251.89999997615814,765742.3000000715,7204,WL,C,6.0
7,7.383000135421753,immed,52616.99986457825,Thu Aug 21 2025 09:39:32 GMT-0500 (Central Daylight Time),766112.0,A,ca,O,a,104,1,369.6999999284744,765742.3000000715,7204,WL,C,6.0
7,7.465000152587891,immed,52534.99984741211,Thu Aug 21 2025 09:39:32 GMT-0500 (Central Daylight Time),766194.2000000477,A,cam,O,m,77,1,451.89999997615814,765742.3000000715,7204,WL,C,6.0
7,7.5959999561309814,immed,52404.00004386902,Thu Aug 21 2025 09:39:32 GMT-0500 (Central Daylight Time),766325.9000000954,A,camp,O,p,120,1,583.6000000238419,765742.3000000715,7204,WL,C,6.0
7,8.078999996185303,immed,51921.0000038147,Thu Aug 21 2025 09:39:32 GMT-0500 (Central Daylight Time),766808.8000000715,A,campenter,O,enter,468,1,1066.5,765742.3000000715,7204,WL,C,6.0
7,9.447999954223633,immed,50552.00004577637,Thu Aug 21 2025 09:39:32 GMT-0500 (Central Daylight Time),768178.0,A,l,O,l,1365,1,1369.0,766809.0,7204,WL,C,7.0
7,9.614000082015991,immed,50385.99991798401,Thu Aug 21 2025 09:39:32 GMT-0500 (Central Daylight Time),768343.2000000477,A,le,O,e,144,1,1534.2000000476837,766809.0,7204,WL,C,7.0
7,9.746000051498413,immed,50253.99994850159,Thu Aug 21 2025 09:39:32 GMT-0500 (Central Daylight Time),768475.8000000715,A,let,O,t,123,1,1666.8000000715256,766809.0,7204,WL,C,7.0
7,9.92900013923645,immed,50070.99986076355,Thu Aug 21 2025 09:39:32 GMT-0500 (Central Daylight Time),768658.8000000715,A,lett,O,t,168,1,1849.8000000715256,766809.0,7204,WL,C,7.0
7,10.02999997138977,immed,49970.00002861023,Thu Aug 21 2025 09:39:32 GMT-0500 (Central Daylight Time),768759.5,A,lette,O,e,79,1,1950.5,766809.0,7204,WL,C,7.0
7,10.111999988555908,immed,49888.00001144409,Thu Aug 21 2025 09:39:32 GMT-0500 (Central Daylight Time),768841.8000000715,A,letter,O,r,76,1,2032.8000000715256,766809.0,7204,WL,C,7.0
7,10.413000106811523,immed,49586.99989318848,Thu Aug 21 2025 09:39:32 GMT-0500 (Central Daylight Time),769142.0,A,letterenter,O,enter,279,1,2333.0,766809.0,7204,WL,C,7.0
7,10.630000114440918,immed,49369.99988555908,Thu Aug 21 2025 09:39:32 GMT-0500 (Central Daylight Time),769359.8000000715,A,f,O,f,197,1,217.5,769142.3000000715,7204,WL,C,8.0
7,10.746000051498413,immed,49253.99994850159,Thu Aug 21 2025 09:39:32 GMT-0500 (Central Daylight Time),769475.0,A,fl,O,l,98,1,332.6999999284744,769142.3000000715,7204,WL,C,8.0
7,10.864000082015991,immed,49135.99991798401,Thu Aug 21 2025 09:39:32 GMT-0500 (Central Daylight Time),769593.6000000238,A,fla,O,a,104,1,451.2999999523163,769142.3000000715,7204,WL,C,8.0
7,10.963000059127808,immed,49036.99994087219,Thu Aug 21 2025 09:39:32 GMT-0500 (Central Daylight Time),769692.4000000954,A,flag,O,g,80,1,550.1000000238419,769142.3000000715,7204,WL,C,8.0
7,11.246000051498413,immed,48753.99994850159,Thu Aug 21 2025 09:39:32 GMT-0500 (Central Daylight Time),769975.0,A,flagenter,O,enter,268,1,832.6999999284744,769142.3000000715,7204,WL,C,8.0
7,11.664000034332275,immed,48335.999965667725,Thu Aug 21 2025 09:39:32 GMT-0500 (Central Daylight Time),770393.2000000477,A,t,O,t,413,1,417.89999997615814,769975.3000000715,7204,WL,C,9.0
7,11.778000116348267,immed,48221.99988365173,Thu Aug 21 2025 09:39:32 GMT-0500 (Central Daylight Time),770507.9000000954,A,to,O,o,107,1,532.6000000238419,769975.3000000715,7204,WL,C,9.0
7,11.897000074386597,immed,48102.9999256134,Thu Aug 21 2025 09:39:32 GMT-0500 (Central Daylight Time),770626.1000000238,A,tow,O,w,103,1,650.7999999523163,769975.3000000715,7204,WL,C,9.0
7,11.979000091552734,immed,48020.999908447266,Thu Aug 21 2025 09:39:32 GMT-0500 (Central Daylight Time),770708.6000000238,A,towe,O,e,64,1,733.2999999523163,769975.3000000715,7204,WL,C,9.0
7,12.062000036239624,immed,47937.999963760376,Thu Aug 21 2025 09:39:32 GMT-0500 (Central Daylight Time),770791.7000000477,A,tower,O,r,67,1,816.3999999761581,769975.3000000715,7204,WL,C,9.0
7,12.295000076293945,immed,47704.999923706055,Thu Aug 21 2025 09:39:32 GMT-0500 (Central Daylight Time),771024.2000000477,A,towerenter,O,enter,220,1,1048.8999999761581,769975.3000000715,7204,WL,C,9.0
7,12.712000131607056,immed,47287.999868392944,Thu Aug 21 2025 09:39:32 GMT-0500 (Central Daylight Time),771441.8000000715,A,q,O,q,412,1,417.3000000715256,771024.5,7204,WL,C,10.0
7,12.830000162124634,immed,47169.999837875366,Thu Aug 21 2025 09:39:32 GMT-0500 (Central Daylight Time),771559.6000000238,A,qu,O,u,111,1,535.1000000238419,771024.5,7204,WL,C,10.0
7,12.979000091552734,immed,47020.999908447266,Thu Aug 21 2025 09:39:32 GMT-0500 (Central Daylight Time),771708.8000000715,A,que,O,e,131,1,684.3000000715256,771024.5,7204,WL,C,10.0
7,13.130000114440918,immed,46869.99988555908,Thu Aug 21 2025 09:39:32 GMT-0500 (Central Daylight Time),771859.4000000954,A,quee,O,e,134,1,834.9000000953674,771024.5,7204,WL,C,10.0
7,13.27999997138977,immed,46720.00002861023,Thu Aug 21 2025 09:39:32 GMT-0500 (Central Daylight Time),772009.5,A,queen,O,n,143,1,985.0,771024.5,7204,WL,C,10.0
7,13.894000053405762,immed,46105.99994659424,Thu Aug 21 2025 09:39:32 GMT-0500 (Central Daylight Time),772623.9000000954,A,queenenter,O,enter,602,1,1599.4000000953674,771024.5,7204,WL,C,10.0
7,14.27999997138977,immed,45720.00002861023,Thu Aug 21 2025 09:39:32 GMT-0500 (Central Daylight Time),773009.1000000238,A,h,O,h,373,1,385.0,772624.1000000238,7204,WL,C,11.0
7,14.378000020980835,immed,45621.999979019165,Thu Aug 21 2025 09:39:32 GMT-0500 (Central Daylight Time),773107.4000000954,A,ho,O,o,82,1,483.3000000715256,772624.1000000238,7204,WL,C,11.0
7,14.49399995803833,immed,45506.00004196167,Thu Aug 21 2025 09:39:32 GMT-0500 (Central Daylight Time),773223.9000000954,A,hom,O,m,101,1,599.8000000715256,772624.1000000238,7204,WL,C,11.0
7,14.647000074386597,immed,45352.9999256134,Thu Aug 21 2025 09:39:32 GMT-0500 (Central Daylight Time),773376.0,A,home,O,e,130,1,751.8999999761581,772624.1000000238,7204,WL,C,11.0
7,14.976999998092651,immed,45023.00000190735,Thu Aug 21 2025 09:39:32 GMT-0500 (Central Daylight Time),773706.2000000477,A,homeenter,O,enter,314,1,1082.1000000238419,772624.1000000238,7204,WL,C,11.0
7,15.644000053405762,immed,44355.99994659424,Thu Aug 21 2025 09:39:32 GMT-0500 (Central Daylight Time),774373.9000000954,A,c,O,c,658,1,667.5,773706.4000000954,7204,WL,C,12.0
7,15.746999979019165,immed,44253.000020980835,Thu Aug 21 2025 09:39:32 GMT-0500 (Central Daylight Time),774476.6000000238,A,co,O,o,97,1,770.1999999284744,773706.4000000954,7204,WL,C,12.0
7,15.845999956130981,immed,44154.00004386902,Thu Aug 21 2025 09:39:32 GMT-0500 (Central Daylight Time),774575.6000000238,A,cor,O,r,87,1,869.1999999284744,773706.4000000954,7204,WL,C,12.0
7,15.91100001335144,immed,44088.99998664856,Thu Aug 21 2025 09:39:32 GMT-0500 (Central Daylight Time),774641.3000000715,A,corn,O,n,51,1,934.8999999761581,773706.4000000954,7204,WL,C,12.0
7,16.14400005340576,immed,43855.99994659424,Thu Aug 21 2025 09:39:32 GMT-0500 (Central Daylight Time),774874.1000000238,A,cornenter,O,enter,228,1,1167.6999999284744,773706.4000000954,7204,WL,C,12.0
7,16.360000133514404,immed,43639.999866485596,Thu Aug 21 2025 09:39:32 GMT-0500 (Central Daylight Time),775090.2000000477,A,w,O,w,202,1,215.89999997615814,774874.3000000715,7204,WL,C,13.0
7,16.511000156402588,immed,43488.99984359741,Thu Aug 21 2025 09:39:32 GMT-0500 (Central Daylight Time),775240.9000000954,A,wh,O,h,127,1,366.60000002384186,774874.3000000715,7204,WL,C,13.0
7,16.66000008583069,immed,43339.99991416931,Thu Aug 21 2025 09:39:32 GMT-0500 (Central Daylight Time),775390.0,A,whe,O,e,129,1,515.6999999284744,774874.3000000715,7204,WL,C,13.0
7,16.792999982833862,immed,43207.00001716614,Thu Aug 21 2025 09:39:32 GMT-0500 (Central Daylight Time),775523.4000000954,A,whea,O,a,116,1,649.1000000238419,774874.3000000715,7204,WL,C,13.0
