acc_sum,block,block_c,condition,correct,correct_response,datetime,endtime,flanker,jitter,project,response,response_test_buffer_response,response_test_target_response,response_time,response_time_test_buffer_response,response_time_test_target_response,row_sel,session_number,start_end,starttime,subject_id,target,task,task_vers,time_test_buffer,time_test_buffer_response,time_test_constants,time_test_flanker,time_test_jitter,time_test_logger,time_test_target,time_test_target_response,time_test_variables,trial
1,prac,1,inc,1,m,Thu May 29 2025 11:14:51 GMT-0500 (Central Daylight Time),119023.60000002384,pear,900,I,m,,,750,,,14,2,2961.4000000059605,116062.20000001788,8024,iron,NF,C,,,,,,,,,,1
2,prac,1,con,1,m,Thu May 29 2025 11:14:51 GMT-0500 (Central Daylight Time),121756.5,zinc,1000,I,m,,,420,,,15,2,2727.7999999821186,119028.70000001788,8024,zinc,NF,C,,,,,,,,,,2
3,prac,1,inc,1,z,Thu May 29 2025 11:14:51 GMT-0500 (Central Daylight Time),124371.90000000596,copper,900,I,z,,,411,,,2,2,2611.199999988079,121760.70000001788,8024,cherry,NF,C,,,,,,,,,,3
4,prac,1,con,1,m,Thu May 29 2025 11:14:51 GMT-0500 (Central Daylight Time),126987.80000001192,bronze,800,I,m,,,504,,,9,2,2611.0999999940395,124376.70000001788,8024,bronze,NF,C,,,,,,,,,,4
5,prac,1,con,1,z,Thu May 29 2025 11:14:51 GMT-0500 (Central Daylight Time),129653.80000001192,lime,800,I,z,,,444,,,5,2,2661.699999988079,126992.10000002384,8024,lime,NF,C,,,,,,,,,,5
5,prac,1,inc,0,m,Thu May 29 2025 11:14:51 GMT-0500 (Central Daylight Time),132502.80000001192,plum,1100,I,z,,,434,,,16,2,2844.0999999940395,129658.70000001788,8024,lead,NF,C,,,,,,,,,,6
6,prac,1,con,1,z,Thu May 29 2025 11:14:51 GMT-0500 (Central Daylight Time),135301.90000000596,orange,1000,I,z,,,493,,,3,2,2794.699999988079,132507.20000001788,8024,orange,NF,C,,,,,,,,,,7
7,prac,1,inc,1,z,Thu May 29 2025 11:14:51 GMT-0500 (Central Daylight Time),138001.10000002384,iron,900,I,z,,,491,,,6,2,2695.4000000059605,135305.70000001788,8024,pear,NF,C,,,,,,,,,,8
8,prac,1,con,1,m,Thu May 29 2025 11:14:51 GMT-0500 (Central Daylight Time),140467.20000001788,gold,800,I,m,,,355,,,13,2,2461.9000000059605,138005.30000001192,8024,gold,NF,C,,,,,,,,,,9
9,prac,1,inc,1,z,Thu May 29 2025 11:14:51 GMT-0500 (Central Daylight Time),143282.90000000596,lead,1100,I,z,,,414,,,8,2,2811.0,140471.90000000596,8024,plum,NF,C,,,,,,,,,,10
9,prac,1,con,0,z,Thu May 29 2025 11:14:51 GMT-0500 (Central Daylight Time),145982.20000001788,kiwi,1000,I,m,,,394,,,7,2,2694.7000000178814,143287.5,8024,kiwi,NF,C,,,,,,,,,,11
10,prac,1,con,1,m,Thu May 29 2025 11:14:51 GMT-0500 (Central Daylight Time),148631.20000001788,silver,1000,I,m,,,335,,,11,2,2644.800000011921,145986.40000000596,8024,silver,NF,C,,,,,,,,,,12
11,prac,1,inc,1,z,Thu May 29 2025 11:14:51 GMT-0500 (Central Daylight Time),151347.0,cobalt,1100,I,z,,,314,,,4,2,2711.899999976158,148635.10000002384,8024,raisin,NF,C,,,,,,,,,,13
12,prac,1,inc,1,m,Thu May 29 2025 11:14:51 GMT-0500 (Central Daylight Time),153929.0,cherry,900,I,m,,,382,,,10,2,2578.0,151351.0,8024,copper,NF,C,,,,,,,,,,14
12,prac,1,inc,0,m,Thu May 29 2025 11:14:51 GMT-0500 (Central Daylight Time),156745.20000001788,raisin,1100,I,z,,,422,,,12,2,2811.800000011921,153933.40000000596,8024,cobalt,NF,C,,,,,,,,,,15
13,prac,1,con,1,z,Thu May 29 2025 11:14:51 GMT-0500 (Central Daylight Time),159227.90000000596,banana,800,I,z,,,371,,,1,2,2478.5,156749.40000000596,8024,banana,NF,C,,,,,,,,,,16
1,test,1,inc,1,m,Thu May 29 2025 11:14:51 GMT-0500 (Central Daylight Time),175389.30000001192,plum,1100,I,m,m,None,470,177.0,293.0,104,2,2112.5999999940395,173276.70000001788,8024,gold,NF,C,171230,171230,169306,170419,169306,171418,170936,170936,171418,1
1,test,1,inc,0,m,Thu May 29 2025 11:14:51 GMT-0500 (Central Daylight Time),177372.30000001192,orange,1000,I,z,z,None,439,239.0,200.0,87,2,1978.4000000059605,175393.90000000596,8024,silver,NF,C,173152,173152,171423,172435,171423,173401,172951,172951,173401,2
1,test,1,con,0,z,Thu May 29 2025 11:14:51 GMT-0500 (Central Daylight Time),179304.90000000596,plum,1000,I,m,m,None,385,185.0,200.0,59,2,1928.4000000059605,177376.5,8024,plum,NF,C,175134,175134,173406,174418,173406,175334,174934,174934,175334,3
2,test,1,con,1,m,Thu May 29 2025 11:14:51 GMT-0500 (Central Daylight Time),181487.60000002384,silver,1000,I,m,m,None,644,444.0,200.0,83,2,2178.600000023842,179309.0,8024,silver,NF,C,177067,177067,175338,176351,175338,177517,176867,176867,177517,4
3,test,1,con,1,m,Thu May 29 2025 11:14:51 GMT-0500 (Central Daylight Time),183653.40000000596,silver,1100,I,m,m,None,529,330.0,199.0,84,2,2161.7999999821186,181491.60000002384,8024,silver,NF,C,179349,179349,177521,178633,177521,179682,179150,179150,179682,5
4,test,1,con,1,z,Thu May 29 2025 11:14:51 GMT-0500 (Central Daylight Time),185352.90000000596,lime,800,I,z,z,None,358,159.0,199.0,33,2,1695.2999999821186,183657.60000002384,8024,lime,NF,C,181216,181216,179687,180499,179687,181382,181016,181016,181382,6
5,test,1,con,1,z,Thu May 29 2025 11:14:51 GMT-0500 (Central Daylight Time),187152.40000000596,kiwi,800,I,z,z,None,460,260.0,200.0,49,2,1795.5999999940395,185356.80000001192,8024,kiwi,NF,C,182915,182915,181386,182199,181386,183181,182715,182715,183181,7
5,test,1,inc,0,z,Thu May 29 2025 11:14:51 GMT-0500 (Central Daylight Time),189168.30000001192,lead,1100,I,m,m,None,368,169.0,199.0,48,2,2012.0,187156.30000001192,8024,pear,NF,C,185014,185014,183185,184298,183186,185197,184815,184815,185197,8
6,test,1,con,1,z,Thu May 29 2025 11:14:51 GMT-0500 (Central Daylight Time),191001.30000001192,pear,900,I,z,z,None,392,193.0,199.0,42,2,1829.199999988079,189172.10000002384,8024,pear,NF,C,186830,186830,185201,186114,185201,187030,186631,186631,187030,9
6,test,1,con,0,z,Thu May 29 2025 11:14:51 GMT-0500 (Central Daylight Time),192933.80000001192,kiwi,1000,I,m,m,None,396,196.0,200.0,51,2,1928.300000011921,191005.5,8024,kiwi,NF,C,188763,188763,187035,188047,187035,188963,188563,188563,188963,10
7,test,1,con,1,m,Thu May 29 2025 11:14:51 GMT-0500 (Central Daylight Time),195100.0,cobalt,1100,I,m,m,None,523,323.0,200.0,92,2,2162.2999999821186,192937.70000001788,8024,cobalt,NF,C,190796,190796,188967,190080,188967,191129,190596,190596,191129,11
7,test,1,con,0,z,Thu May 29 2025 11:14:51 GMT-0500 (Central Daylight Time),197165.80000001192,raisin,1100,I,m,m,None,428,229.0,199.0,28,2,2062.0,195103.80000001192,8024,raisin,NF,C,192962,192962,191133,192246,191133,193195,192762,192762,193195,12
7,test,1,con,0,m,Thu May 29 2025 11:14:51 GMT-0500 (Central Daylight Time),199165.30000001192,lead,1000,I,z,z,None,376,171.0,205.0,123,2,1995.5999999940395,197169.70000001788,8024,lead,NF,C,195011,195012,193199,194212,193199,195194,194806,194806,195194,13
7,test,1,inc,0,z,Thu May 29 2025 11:14:51 GMT-0500 (Central Daylight Time),201264.60000002384,zinc,1000,I,m,m,None,551,352.0,199.0,55,2,2095.5,199169.10000002384,8024,kiwi,NF,C,196927,196927,195198,196211,195199,197294,196728,196728,197294,14
8,test,1,con,1,m,Thu May 29 2025 11:14:51 GMT-0500 (Central Daylight Time),203030.80000001192,copper,900,I,m,m,None,319,120.0,199.0,74,2,1761.9000000059605,201268.90000000596,8024,copper,NF,C,198927,198927,197298,198210,197298,199060,198727,198727,199060,15
8,test,1,inc,0,z,Thu May 29 2025 11:14:51 GMT-0500 (Central Daylight Time),204830.10000002384,copper,900,I,m,m,None,353,153.0,200.0,14,2,1795.5,203034.60000002384,8024,cherry,NF,C,200693,200693,199064,199976,199064,200859,200493,200493,200859,16
9,test,1,con,1,z,Thu May 29 2025 11:14:51 GMT-0500 (Central Daylight Time),206862.80000001192,cherry,1000,I,z,z,None,487,287.0,200.0,11,2,2028.9000000059605,204833.90000000596,8024,cherry,NF,C,202592,202592,200863,201876,200863,202892,202392,202392,202892,17
10,test,1,inc,1,z,Thu May 29 2025 11:14:51 GMT-0500 (Central Daylight Time),208678.70000001788,bronze,800,I,z,z,None,470,270.0,200.0,5,2,1811.9000000059605,206866.80000001192,8024,banana,NF,C,204425,204425,202896,203709,202896,204708,204225,204225,204708,18
11,test,1,con,1,m,Thu May 29 2025 11:14:51 GMT-0500 (Central Daylight Time),210711.60000002384,bronze,1100,I,m,m,None,394,194.0,200.0,68,2,2028.800000011921,208682.80000001192,8024,bronze,NF,C,206541,206541,204712,205824,204712,206741,206341,206341,206741,19
12,test,1,inc,1,z,Thu May 29 2025 11:14:51 GMT-0500 (Central Daylight Time),212661.0,silver,1000,I,z,z,None,404,205.0,199.0,15,2,1945.5,210715.5,8024,cherry,NF,C,208474,208474,206745,207757,206745,208690,208274,208274,208690,20
12,test,1,con,0,m,Thu May 29 2025 11:14:51 GMT-0500 (Central Daylight Time),214593.90000000596,bronze,1000,I,z,z,None,400,200.0,200.0,67,2,1927.7999999821186,212666.10000002384,8024,bronze,NF,C,210423,210423,208695,209707,208696,210623,210223,210223,210623,21
12,test,1,inc,0,z,Thu May 29 2025 11:14:51 GMT-0500 (Central Daylight Time),216543.0,zinc,1000,I,m,m,None,410,211.0,199.0,63,2,1945.0,214598.0,8024,plum,NF,C,212356,212356,210627,211640,210627,212572,212156,212156,212572,22
13,test,1,con,1,z,Thu May 29 2025 11:14:51 GMT-0500 (Central Daylight Time),218559.10000002384,lime,1000,I,z,z,None,469,270.0,199.0,35,2,2012.0,216547.10000002384,8024,lime,NF,C,214305,214305,212576,213589,212576,214588,214106,214106,214588,23
14,test,1,inc,1,m,Thu May 29 2025 11:14:51 GMT-0500 (Central Daylight Time),220558.60000002384,orange,1000,I,m,m,None,461,262.0,199.0,79,2,1995.4000000059605,218563.20000001788,8024,copper,NF,C,216321,216321,214592,215605,214592,216588,216122,216122,216588,24
14,test,1,inc,0,m,Thu May 29 2025 11:14:51 GMT-0500 (Central Daylight Time),222658.0,raisin,1100,I,z,z,None,341,132.0,209.0,88,2,2095.5999999940395,220562.40000000596,8024,silver,NF,C,218555,218555,216591,217704,216592,218687,218346,218346,218687,25
14,test,1,con,0,z,Thu May 29 2025 11:14:51 GMT-0500 (Central Daylight Time),224540.70000001788,plum,800,I,m,m,None,539,339.0,200.0,57,2,1878.800000011921,222661.90000000596,8024,plum,NF,C,220220,220220,218691,219503,218691,220570,220020,220020,220570,26
15,test,1,con,1,z,Thu May 29 2025 11:14:51 GMT-0500 (Central Daylight Time),226390.0,cherry,800,I,z,z,None,512,313.0,199.0,9,2,1845.3999999761581,224544.60000002384,8024,cherry,NF,C,222102,222102,220574,221387,220574,222419,221903,221903,222419,27
16,test,1,inc,1,z,Thu May 29 2025 11:14:51 GMT-0500 (Central Daylight Time),228272.60000002384,gold,800,I,z,z,None,542,342.0,200.0,61,2,1878.5,226394.10000002384,8024,plum,NF,C,223952,223952,222423,223236,222423,224302,223752,223752,224302,28
17,test,1,con,1,z,Thu May 29 2025 11:14:51 GMT-0500 (Central Daylight Time),230155.60000002384,raisin,900,I,z,z,None,440,240.0,200.0,26,2,1879.6000000238419,228276.0,8024,raisin,NF,C,225935,225935,224305,225218,224305,226185,225735,225735,226185,29
18,test,1,con,1,z,Thu May 29 2025 11:14:51 GMT-0500 (Central Daylight Time),232171.70000001788,raisin,1000,I,z,z,None,473,274.0,199.0,27,2,2012.300000011921,230159.40000000596,8024,raisin,NF,C,227917,227917,226188,227201,226189,228201,227718,227718,228201,30
19,test,1,inc,1,m,Thu May 29 2025 11:14:51 GMT-0500 (Central Daylight Time),233921.0,pear,900,I,m,m,None,299,100.0,199.0,102,2,1745.3999999761581,232175.60000002384,8024,gold,NF,C,229834,229834,228205,229117,228205,229950,229634,229634,229950,31
20,test,1,inc,1,z,Thu May 29 2025 11:14:51 GMT-0500 (Central Daylight Time),235803.90000000596,copper,900,I,z,z,None,440,240.0,200.0,22,2,1879.199999988079,233924.70000001788,8024,orange,NF,C,231583,231583,229954,230867,229954,231833,231383,231383,231833,32
20,test,1,inc,0,m,Thu May 29 2025 11:14:51 GMT-0500 (Central Daylight Time),237569.80000001192,banana,800,I,z,z,None,424,225.0,199.0,77,2,1760.699999988079,235809.10000002384,8024,copper,NF,C,233366,233366,231838,232649,231839,233599,233166,233166,233599,33
21,test,1,inc,1,z,Thu May 29 2025 11:14:51 GMT-0500 (Central Daylight Time),239685.80000001192,zinc,1000,I,z,z,None,571,371.0,200.0,39,2,2112.4000000059605,237573.40000000596,8024,lime,NF,C,235332,235332,233602,234615,233603,235715,235132,235132,235715,34
22,test,1,con,1,m,Thu May 29 2025 11:14:51 GMT-0500 (Central Daylight Time),241685.10000002384,lead,1100,I,m,m,None,362,163.0,199.0,124,2,1995.5,239689.60000002384,8024,lead,NF,C,237548,237548,235719,236832,235719,237714,237348,237348,237714,35
23,test,1,inc,1,z,Thu May 29 2025 11:14:51 GMT-0500 (Central Daylight Time),243717.80000001192,silver,1000,I,z,z,None,487,287.0,200.0,23,2,2029.0,241688.80000001192,8024,orange,NF,C,239447,239448,237718,238731,237718,239747,239247,239247,239747,36
24,test,1,inc,1,m,Thu May 29 2025 11:14:51 GMT-0500 (Central Daylight Time),245844.80000001192,plum,1100,I,m,m,None,494,294.0,200.0,120,2,2123.0999999940395,243721.70000001788,8024,zinc,NF,C,241580,241580,239751,240863,239751,241874,241380,241380,241874,37
25,test,1,con,1,m,Thu May 29 2025 11:14:51 GMT-0500 (Central Daylight Time),247933.20000001788,iron,1000,I,m,m,None,555,355.0,200.0,107,2,2084.5,245848.70000001788,8024,iron,NF,C,243596,243596,241878,242880,241878,243962,243396,243396,243962,38
25,test,1,con,0,z,Thu May 29 2025 11:14:51 GMT-0500 (Central Daylight Time),249849.40000000596,plum,900,I,m,m,None,466,267.0,199.0,58,2,1912.0999999940395,247937.30000001192,8024,plum,NF,C,245595,245595,243966,244879,243967,245878,245396,245396,245878,39
26,test,1,con,1,z,Thu May 29 2025 11:14:51 GMT-0500 (Central Daylight Time),251965.20000001788,pear,1100,I,z,z,None,472,272.0,200.0,44,2,2111.9000000059605,249853.30000001192,8024,pear,NF,C,247711,247711,245882,246995,245883,247994,247511,247511,247994,40
27,test,1,con,1,m,Thu May 29 2025 11:14:51 GMT-0500 (Central Daylight Time),253698.10000002384,silver,800,I,m,m,None,399,200.0,199.0,81,2,1729.1000000238419,251969.0,8024,silver,NF,C,249527,249527,247998,248811,247998,249727,249328,249328,249727,41
28,test,1,con,1,m,Thu May 29 2025 11:14:51 GMT-0500 (Central Daylight Time),255397.80000001192,bronze,800,I,m,m,None,363,163.0,200.0,65,2,1695.4000000059605,253702.40000000596,8024,bronze,NF,C,251260,251260,249731,250544,249732,251427,251060,251060,251427,42
28,test,1,inc,0,m,Thu May 29 2025 11:14:51 GMT-0500 (Central Daylight Time),257163.80000001192,lime,800,I,z,z,None,430,231.0,199.0,109,2,1762.300000011921,255401.5,8024,iron,NF,C,252960,252960,251431,252244,251431,253193,252760,252760,253193,43
29,test,1,inc,1,z,Thu May 29 2025 11:14:51 GMT-0500 (Central Daylight Time),259196.5,iron,900,I,z,z,None,588,389.0,199.0,38,2,2029.0999999940395,257167.40000000596,8024,lime,NF,C,254826,254826,253196,254109,253197,255226,254626,254626,255225,44
30,test,1,con,1,z,Thu May 29 2025 11:14:51 GMT-0500 (Central Daylight Time),260996.0,orange,800,I,z,z,None,463,264.0,199.0,17,2,1795.699999988079,259200.30000001192,8024,orange,NF,C,256759,256759,255229,256042,255230,257025,256559,256559,257025,45
31,test,1,con,1,m,Thu May 29 2025 11:14:51 GMT-0500 (Central Daylight Time),262778.8000000119,silver,900,I,m,m,None,341,141.0,200.0,82,2,1779.199999988079,260999.60000002384,8024,silver,NF,C,258658,258658,257029,257941,257029,258808,258458,258458,258808,46
32,test,1,inc,1,m,Thu May 29 2025 11:14:51 GMT-0500 (Central Daylight Time),264811.3000000119,kiwi,1000,I,m,m,None,489,290.0,199.0,103,2,2028.699999988079,262782.60000002384,8024,gold,NF,C,260541,260541,258812,259824,258812,260840,260341,260341,260840,47
33,test,1,con,1,m,Thu May 29 2025 11:14:51 GMT-0500 (Central Daylight Time),266727.60000002384,lead,900,I,m,m,None,469,269.0,200.0,122,2,1912.6000000238419,264815.0,8024,lead,NF,C,262473,262474,260844,261757,260844,262757,262273,262273,262757,48
34,test,1,con,1,z,Thu May 29 2025 11:14:51 GMT-0500 (Central Daylight Time),268743.3000000119,lime,900,I,z,z,None,577,378.0,199.0,34,2,2011.9000000059605,266731.40000000596,8024,lime,NF,C,264389,264389,262760,263673,262761,264772,264190,264190,264772,49
35,test,1,inc,1,m,Thu May 29 2025 11:14:51 GMT-0500 (Central Daylight Time),270642.7000000179,lime,800,I,m,m,None,557,358.0,199.0,117,2,1895.5999999940395,268747.10000002384,8024,zinc,NF,C,266305,266305,264776,265589,264776,266672,266106,266106,266672,50
35,test,1,con,0,z,Thu May 29 2025 11:14:51 GMT-0500 (Central Daylight Time),272675.5,banana,1100,I,m,m,None,398,198.0,200.0,4,2,2029.0,270646.5,8024,banana,NF,C,268505,268505,266676,267789,266676,268705,268305,268305,268704,51
35,test,1,con,0,m,Thu May 29 2025 11:14:51 GMT-0500 (Central Daylight Time),274724.8000000119,iron,1100,I,z,z,None,406,206.0,200.0,108,2,2045.699999988079,272679.10000002384,8024,iron,NF,C,270537,270537,268708,269821,268708,270754,270337,270337,270754,52
36,test,1,con,1,m,Thu May 29 2025 11:14:51 GMT-0500 (Central Daylight Time),276674.3000000119,iron,900,I,m,m,None,507,308.0,199.0,106,2,1945.9000000059605,274728.40000000596,8024,iron,NF,C,272387,272387,270757,271671,270758,272703,272187,272187,272703,53
36,test,1,con,0,z,Thu May 29 2025 11:14:51 GMT-0500 (Central Daylight Time),278790.10000002384,kiwi,1100,I,m,m,None,479,279.0,200.0,52,2,2112.2000000178814,276677.90000000596,8024,kiwi,NF,C,274536,274536,272707,273820,272707,274819,274336,274336,274819,54
37,test,1,inc,1,m,Thu May 29 2025 11:14:51 GMT-0500 (Central Daylight Time),281056.2000000179,plum,1100,I,m,m,None,626,426.0,200.0,112,2,2262.0,278794.2000000179,8024,iron,NF,C,276652,276653,274823,275936,274824,277085,276452,276452,277085,55
38,test,1,con,1,m,Thu May 29 2025 11:14:51 GMT-0500 (Central Daylight Time),283289.0,copper,1100,I,m,m,None,592,392.0,200.0,76,2,2229.0999999940395,281059.90000000596,8024,copper,NF,C,278918,278918,277089,278202,277089,279318,278718,278718,279318,56
39,test,1,con,1,z,Thu May 29 2025 11:14:51 GMT-0500 (Central Daylight Time),285221.10000002384,cherry,900,I,z,z,None,495,296.0,199.0,10,2,1928.5,283292.60000002384,8024,cherry,NF,C,280950,280950,279322,280234,279322,281250,280751,280751,281250,57
40,test,1,con,1,m,Thu May 29 2025 11:14:51 GMT-0500 (Central Daylight Time),287154.2000000179,zinc,1000,I,m,m,None,398,199.0,199.0,115,2,1929.5,285224.7000000179,8024,zinc,NF,C,282984,282984,281254,282267,281254,283183,282784,282784,283183,58
41,test,1,inc,1,z,Thu May 29 2025 11:14:51 GMT-0500 (Central Daylight Time),289253.8000000119,silver,1000,I,z,z,None,554,355.0,199.0,31,2,2096.199999988079,287157.60000002384,8024,raisin,NF,C,284916,284916,283187,284200,283187,285283,284717,284717,285283,59
42,test,1,inc,1,m,Thu May 29 2025 11:14:51 GMT-0500 (Central Daylight Time),291319.60000002384,kiwi,1000,I,m,m,None,518,319.0,199.0,111,2,2062.100000023842,289257.5,8024,iron,NF,C,287016,287016,285287,286299,285287,287349,286816,286816,287349,60
43,test,1,inc,1,m,Thu May 29 2025 11:14:51 GMT-0500 (Central Daylight Time),293186.90000000596,banana,800,I,m,m,None,517,224.0,293.0,69,2,1863.4000000059605,291323.5,8024,bronze,NF,C,288975,288975,287353,288165,287353,289216,288682,288682,289216,61
44,test,1,inc,1,z,Thu May 29 2025 11:14:51 GMT-0500 (Central Daylight Time),295285.0,silver,1000,I,z,z,None,562,363.0,199.0,7,2,2094.199999988079,293190.8000000119,8024,banana,NF,C,290948,290948,289220,290232,289220,291314,290748,290748,291314,62
45,test,1,inc,1,z,Thu May 29 2025 11:14:51 GMT-0500 (Central Daylight Time),297201.2000000179,gold,800,I,z,z,None,567,367.0,200.0,45,2,1912.5999999940395,295288.60000002384,8024,pear,NF,C,292847,292847,291318,292131,291318,293230,292647,292647,293230,63
46,test,1,con,1,z,Thu May 29 2025 11:14:51 GMT-0500 (Central Daylight Time),299250.5,banana,900,I,z,z,None,608,408.0,200.0,2,2,2045.5999999940395,297204.90000000596,8024,banana,NF,C,294863,294863,293234,294147,293234,295280,294663,294663,295279,64
47,test,1,con,1,z,Thu May 29 2025 11:14:51 GMT-0500 (Central Daylight Time),301482.90000000596,kiwi,900,I,z,z,None,797,598.0,199.0,50,2,2228.4000000059605,299254.5,8024,kiwi,NF,C,296913,296913,295284,296196,295284,297512,296713,296713,297512,65
48,test,1,con,1,z,Thu May 29 2025 11:14:51 GMT-0500 (Central Daylight Time),303599.10000002384,pear,1000,I,z,z,None,578,377.0,201.0,43,2,2112.600000023842,301486.5,8024,pear,NF,C,299246,299246,297516,298529,297516,299628,299045,299045,299628,66
48,test,1,inc,0,z,Thu May 29 2025 11:14:51 GMT-0500 (Central Daylight Time),305615.2000000179,lead,1100,I,m,m,None,378,178.0,200.0,40,2,2012.5,303602.7000000179,8024,lime,NF,C,301461,301461,299632,300744,299632,301644,301261,301261,301644,67
49,test,1,con,1,m,Thu May 29 2025 11:14:51 GMT-0500 (Central Daylight Time),307947.90000000596,cobalt,1000,I,m,m,None,798,598.0,200.0,91,2,2328.9000000059605,305619.0,8024,cobalt,NF,C,303377,303377,301648,302661,301648,303977,303177,303177,303977,68
50,test,1,inc,1,m,Thu May 29 2025 11:14:51 GMT-0500 (Central Daylight Time),310147.0,orange,1000,I,m,m,None,663,464.0,199.0,95,2,2195.5,307951.5,8024,cobalt,NF,C,305710,305710,303981,304994,303981,306176,305510,305510,306176,69
51,test,1,inc,1,z,Thu May 29 2025 11:14:51 GMT-0500 (Central Daylight Time),311896.40000000596,bronze,800,I,z,z,None,409,210.0,199.0,29,2,1745.7999999821186,310150.60000002384,8024,raisin,NF,C,307709,307709,306180,306993,306180,307925,307510,307510,307925,70
51,test,1,inc,0,m,Thu May 29 2025 11:14:51 GMT-0500 (Central Daylight Time),313695.8000000119,lime,800,I,z,z,None,450,251.0,199.0,125,2,1795.4000000059605,311900.40000000596,8024,lead,NF,C,309459,309459,307929,308742,307930,309725,309259,309259,309725,71
51,test,1,inc,0,z,Thu May 29 2025 11:14:51 GMT-0500 (Central Daylight Time),315845.10000002384,lead,1100,I,m,m,None,513,313.0,200.0,64,2,2145.800000011921,313699.3000000119,8024,plum,NF,C,311558,311558,309728,310841,309729,311874,311358,311358,311874,72
52,test,1,con,1,z,Thu May 29 2025 11:14:51 GMT-0500 (Central Daylight Time),317911.3000000119,orange,900,I,z,z,None,620,420.0,200.0,18,2,2062.5999999940395,315848.7000000179,8024,orange,NF,C,313507,313507,311878,312791,311878,313940,313307,313307,313940,73
53,test,1,inc,1,m,Thu May 29 2025 11:14:51 GMT-0500 (Central Daylight Time),319960.7000000179,cherry,900,I,m,m,None,609,409.0,200.0,94,2,2045.7000000178814,317915.0,8024,cobalt,NF,C,315573,315573,313944,314857,313944,315990,315373,315373,315990,74
54,test,1,inc,1,z,Thu May 29 2025 11:14:51 GMT-0500 (Central Daylight Time),322210.2000000179,cobalt,1100,I,z,z,None,599,400.0,199.0,32,2,2246.0,319964.2000000179,8024,raisin,NF,C,317823,317823,315993,317106,315994,318239,317623,317623,318239,75
55,test,1,inc,1,m,Thu May 29 2025 11:14:51 GMT-0500 (Central Daylight Time),324192.7000000179,cherry,900,I,m,m,None,542,343.0,199.0,78,2,1978.9000000059605,322213.8000000119,8024,copper,NF,C,319872,319872,318243,319156,318243,320222,319672,319673,320222,76
56,test,1,inc,1,m,Thu May 29 2025 11:14:51 GMT-0500 (Central Daylight Time),326242.10000002384,cherry,900,I,m,m,None,607,408.0,199.0,70,2,2045.7000000178814,324196.40000000596,8024,bronze,NF,C,321855,321855,320225,321138,320226,322271,321655,321655,322271,77
57,test,1,con,1,m,Thu May 29 2025 11:14:51 GMT-0500 (Central Daylight Time),328141.40000000596,cobalt,800,I,m,m,None,563,363.0,200.0,89,2,1895.5,326245.90000000596,8024,cobalt,NF,C,323804,323804,322275,323088,322275,324170,323604,323604,324170,78
58,test,1,con,1,z,Thu May 29 2025 11:14:51 GMT-0500 (Central Daylight Time),330273.90000000596,orange,1000,I,z,z,None,599,400.0,199.0,19,2,2129.199999988079,328144.7000000179,8024,orange,NF,C,325903,325903,324174,325187,324174,326303,325703,325704,326303,79
59,test,1,con,1,m,Thu May 29 2025 11:14:51 GMT-0500 (Central Daylight Time),332306.90000000596,cobalt,900,I,m,m,None,590,390.0,200.0,90,2,2029.5,330277.40000000596,8024,cobalt,NF,C,327936,327936,326306,327220,326307,328336,327736,327736,328336,80
60,test,1,con,1,m,Thu May 29 2025 11:14:51 GMT-0500 (Central Daylight Time),334189.7000000179,gold,800,I,m,m,None,546,346.0,200.0,97,2,1878.9000000059605,332310.8000000119,8024,gold,NF,C,329869,329869,328340,329154,328340,330219,329669,329669,330219,81
61,test,1,con,1,m,Thu May 29 2025 11:14:51 GMT-0500 (Central Daylight Time),336188.8000000119,zinc,900,I,m,m,None,555,356.0,199.0,114,2,1995.5,334193.3000000119,8024,zinc,NF,C,331851,331851,330222,331135,330223,332218,331652,331652,332218,82
62,test,1,inc,1,z,Thu May 29 2025 11:14:51 GMT-0500 (Central Daylight Time),338171.60000002384,copper,900,I,z,z,None,548,348.0,200.0,6,2,1979.2000000178814,336192.40000000596,8024,banana,NF,C,333851,333851,332221,333135,332222,334201,333651,333651,334201,83
63,test,1,inc,1,m,Thu May 29 2025 11:14:51 GMT-0500 (Central Daylight Time),340137.3000000119,cherry,900,I,m,m,None,518,191.0,327.0,86,2,1961.800000011921,338175.5,8024,silver,NF,C,335962,335962,334205,335117,334205,336166,335634,335634,336166,84
64,test,1,inc,1,m,Thu May 29 2025 11:14:51 GMT-0500 (Central Daylight Time),342070.3000000119,banana,800,I,m,m,None,586,387.0,199.0,93,2,1926.199999988079,340144.10000002384,8024,cobalt,NF,C,337700,337700,336173,336985,336173,338099,337500,337500,338099,85
65,test,1,con,1,m,Thu May 29 2025 11:14:51 GMT-0500 (Central Daylight Time),343919.8000000119,copper,800,I,m,m,None,510,310.0,200.0,73,2,1845.699999988079,342074.10000002384,8024,copper,NF,C,339633,339633,338103,338916,338103,339949,339432,339432,339949,86
66,test,1,inc,1,z,Thu May 29 2025 11:14:51 GMT-0500 (Central Daylight Time),346035.7000000179,zinc,1000,I,z,z,None,580,381.0,199.0,47,2,2112.0999999940395,343923.60000002384,8024,pear,NF,C,341682,341682,339953,340966,339953,342065,341482,341482,342065,87
67,test,1,inc,1,z,Thu May 29 2025 11:14:51 GMT-0500 (Central Daylight Time),348051.8000000119,iron,900,I,z,z,None,581,381.0,200.0,54,2,2012.4000000059605,346039.40000000596,8024,kiwi,NF,C,343698,343698,342068,342981,342069,344081,343498,343498,344081,88
68,test,1,con,1,m,Thu May 29 2025 11:14:51 GMT-0500 (Central Daylight Time),349984.7000000179,iron,800,I,m,m,None,593,393.0,200.0,105,2,1929.2000000178814,348055.5,8024,iron,NF,C,345614,345614,344085,344898,344085,346014,345414,345414,346014,89
69,test,1,inc,1,m,Thu May 29 2025 11:14:51 GMT-0500 (Central Daylight Time),352200.5,plum,1100,I,m,m,None,566,367.0,199.0,128,2,2212.199999988079,349988.3000000119,8024,lead,NF,C,347846,347847,346017,347130,346018,348230,347647,347647,348230,90
69,test,1,con,0,m,Thu May 29 2025 11:14:51 GMT-0500 (Central Daylight Time),354233.0,gold,1000,I,z,z,None,482,283.0,199.0,99,2,2028.8999999761581,352204.10000002384,8024,gold,NF,C,349963,349963,348233,349246,348233,350262,349763,349763,350262,91
70,test,1,con,1,z,Thu May 29 2025 11:14:51 GMT-0500 (Central Daylight Time),356765.90000000596,orange,1100,I,z,z,None,896,696.0,200.0,20,2,2529.0,354236.90000000596,8024,orange,NF,C,352095,352095,350266,351379,350266,352795,351895,351895,352795,92
71,test,1,con,1,m,Thu May 29 2025 11:14:51 GMT-0500 (Central Daylight Time),358848.3000000119,gold,1100,I,m,m,None,443,244.0,199.0,100,2,2078.699999988079,356769.60000002384,8024,gold,NF,C,354627,354627,352799,353911,352799,354877,354428,354428,354877,93
72,test,1,inc,1,z,Thu May 29 2025 11:14:51 GMT-0500 (Central Daylight Time),361080.90000000596,cobalt,1100,I,z,z,None,583,384.0,199.0,16,2,2228.9000000059605,358852.0,8024,cherry,NF,C,356710,356710,354881,355994,354881,357110,356511,356511,357110,94
72,test,1,inc,0,z,Thu May 29 2025 11:14:51 GMT-0500 (Central Daylight Time),363097.10000002384,cobalt,1100,I,m,m,None,368,168.0,200.0,8,2,2012.7000000178814,361084.40000000596,8024,banana,NF,C,358943,358943,357113,358227,357114,359126,358743,358743,359126,95
73,test,1,con,1,z,Thu May 29 2025 11:14:51 GMT-0500 (Central Daylight Time),365546.0,plum,1100,I,z,z,None,815,615.0,200.0,60,2,2445.199999988079,363100.8000000119,8024,plum,NF,C,360959,360959,359130,360243,359130,361575,360759,360759,361575,96
74,test,1,con,1,m,Thu May 29 2025 11:14:51 GMT-0500 (Central Daylight Time),367545.90000000596,copper,1000,I,m,m,None,467,267.0,200.0,75,2,1996.199999988079,365549.7000000179,8024,copper,NF,C,363308,363308,361579,362592,361579,363575,363108,363108,363575,97
75,test,1,inc,1,m,Thu May 29 2025 11:14:51 GMT-0500 (Central Daylight Time),369611.8000000119,kiwi,1000,I,m,m,None,522,322.0,200.0,119,2,2062.5,367549.3000000119,8024,zinc,NF,C,365308,365308,363578,364591,363579,365641,365108,365108,365641,98
76,test,1,inc,1,m,Thu May 29 2025 11:14:51 GMT-0500 (Central Daylight Time),371710.90000000596,raisin,1100,I,m,m,None,453,253.0,200.0,72,2,2095.2999999821186,369615.60000002384,8024,bronze,NF,C,367474,367474,365645,366758,365645,367740,367274,367274,367740,99
77,test,1,con,1,m,Thu May 29 2025 11:14:51 GMT-0500 (Central Daylight Time),373643.8000000119,bronze,900,I,m,m,None,490,290.0,200.0,66,2,1929.0,371714.8000000119,8024,bronze,NF,C,369373,369373,367744,368657,367744,369673,369173,369173,369673,100
78,test,1,inc,1,m,Thu May 29 2025 11:14:51 GMT-0500 (Central Daylight Time),375776.3000000119,raisin,1100,I,m,m,None,492,293.0,199.0,80,2,2129.0999999940395,373647.2000000179,8024,copper,NF,C,371506,371506,369676,370790,369677,371805,371306,371306,371805,101
79,test,1,inc,1,m,Thu May 29 2025 11:14:51 GMT-0500 (Central Daylight Time),377759.10000002384,kiwi,1000,I,m,m,None,442,243.0,199.0,127,2,1978.9000000059605,375780.2000000179,8024,lead,NF,C,373538,373539,371809,372822,371809,373788,373339,373339,373788,102
80,test,1,inc,1,m,Thu May 29 2025 11:14:51 GMT-0500 (Central Daylight Time),379691.8000000119,pear,900,I,m,m,None,498,298.0,200.0,118,2,1929.0,377762.8000000119,8024,zinc,NF,C,375421,375421,373792,374705,373792,375721,375221,375221,375721,103
81,test,1,con,1,z,Thu May 29 2025 11:14:51 GMT-0500 (Central Daylight Time),381507.90000000596,raisin,800,I,z,z,None,473,273.0,200.0,25,2,1812.5999999940395,379695.3000000119,8024,raisin,NF,C,377254,377254,375724,376538,375725,377537,377054,377054,377537,104
82,test,1,inc,1,z,Thu May 29 2025 11:14:51 GMT-0500 (Central Daylight Time),383540.7000000179,copper,900,I,z,z,None,589,389.0,200.0,30,2,2029.2000000178814,381511.5,8024,raisin,NF,C,379170,379170,377541,378454,377541,379570,378970,378970,379570,105
83,test,1,inc,1,m,Thu May 29 2025 11:14:51 GMT-0500 (Central Daylight Time),385440.0,pear,900,I,m,m,None,460,260.0,200.0,110,2,1895.5,383544.5,8024,iron,NF,C,381203,381203,379574,380488,379574,381469,381003,381003,381469,106
84,test,1,inc,1,z,Thu May 29 2025 11:14:51 GMT-0500 (Central Daylight Time),387656.2000000179,lead,1100,I,z,z,None,573,368.0,205.0,56,2,2212.0999999940395,385444.10000002384,8024,kiwi,NF,C,383302,383302,381473,382586,381473,383685,383097,383097,383685,107
85,test,1,inc,1,z,Thu May 29 2025 11:14:51 GMT-0500 (Central Daylight Time),389639.0,bronze,800,I,z,z,None,645,445.0,200.0,13,2,1978.5,387660.5,8024,cherry,NF,C,385218,385218,383690,384502,383690,385668,385018,385018,385668,108
86,test,1,inc,1,m,Thu May 29 2025 11:14:51 GMT-0500 (Central Daylight Time),391704.7000000179,orange,1000,I,m,m,None,517,317.0,200.0,71,2,2062.0,389642.7000000179,8024,bronze,NF,C,387401,387401,385672,386684,385672,387734,387201,387201,387734,109
86,test,1,inc,0,m,Thu May 29 2025 11:14:51 GMT-0500 (Central Daylight Time),393570.60000002384,banana,800,I,z,z,None,524,324.0,200.0,85,2,1862.1000000238419,391708.5,8024,silver,NF,C,389267,389267,387738,388550,387738,389600,389067,389067,389600,110
87,test,1,inc,1,z,Thu May 29 2025 11:14:51 GMT-0500 (Central Daylight Time),395553.5,bronze,800,I,z,z,None,642,442.0,200.0,21,2,1979.0999999940395,393574.40000000596,8024,orange,NF,C,391133,391133,389603,390417,389604,391583,390933,390933,391583,111
88,test,1,con,1,z,Thu May 29 2025 11:14:51 GMT-0500 (Central Daylight Time),397836.5,cherry,1100,I,z,z,None,640,439.0,201.0,12,2,2279.2999999821186,395557.2000000179,8024,cherry,NF,C,393416,393416,391586,392699,391586,393866,393215,393215,393866,112
89,test,1,con,1,z,Thu May 29 2025 11:14:51 GMT-0500 (Central Daylight Time),399952.0,banana,1000,I,z,z,None,577,377.0,200.0,3,2,2111.199999988079,397840.8000000119,8024,banana,NF,C,395598,395598,393870,394882,393870,395981,395398,395398,395981,113
90,test,1,inc,1,m,Thu May 29 2025 11:14:51 GMT-0500 (Central Daylight Time),402118.0,raisin,1100,I,m,m,None,521,321.0,200.0,96,2,2162.399999976158,399955.60000002384,8024,cobalt,NF,C,397814,397814,395985,397098,395985,398147,397614,397614,398147,114
91,test,1,con,1,m,Thu May 29 2025 11:14:51 GMT-0500 (Central Daylight Time),403984.2000000179,lead,800,I,m,m,None,527,327.0,200.0,121,2,1862.5999999940395,402121.60000002384,8024,lead,NF,C,399680,399680,398151,398964,398151,400013,399480,399480,400013,115
92,test,1,inc,1,m,Thu May 29 2025 11:14:51 GMT-0500 (Central Daylight Time),406033.3000000119,pear,900,I,m,m,None,600,400.0,200.0,126,2,2045.5,403987.8000000119,8024,lead,NF,C,401646,401646,400017,400930,400017,402062,401446,401446,402062,116
93,test,1,con,1,z,Thu May 29 2025 11:14:51 GMT-0500 (Central Daylight Time),407949.60000002384,pear,800,I,z,z,None,571,371.0,200.0,41,2,1912.2000000178814,406037.40000000596,8024,pear,NF,C,403596,403596,402066,402879,402067,403979,403396,403396,403979,117
94,test,1,con,1,z,Thu May 29 2025 11:14:51 GMT-0500 (Central Daylight Time),410182.40000000596,lime,1100,I,z,z,None,594,395.0,199.0,36,2,2229.199999988079,407953.2000000179,8024,lime,NF,C,405812,405812,403982,405096,403983,406211,405612,405612,406211,118
95,test,1,con,1,m,Thu May 29 2025 11:14:51 GMT-0500 (Central Daylight Time),412081.90000000596,zinc,800,I,m,m,None,558,359.0,199.0,113,2,1895.5999999940395,410186.3000000119,8024,zinc,NF,C,407744,407744,406215,407028,406216,408111,407545,407545,408111,119
96,test,1,inc,1,z,Thu May 29 2025 11:14:51 GMT-0500 (Central Daylight Time),414097.60000002384,iron,900,I,z,z,None,574,375.0,199.0,62,2,2012.0,412085.60000002384,8024,plum,NF,C,409744,409744,408115,409027,408115,410127,409544,409544,410127,120
97,test,1,inc,1,m,Thu May 29 2025 11:14:51 GMT-0500 (Central Daylight Time),415947.2000000179,lime,800,I,m,m,None,506,306.0,200.0,101,2,1846.0,414101.2000000179,8024,gold,NF,C,411660,411660,410130,410944,410130,411976,411460,411460,411976,121
98,test,1,inc,1,z,Thu May 29 2025 11:14:51 GMT-0500 (Central Daylight Time),417863.3000000119,gold,800,I,z,z,None,569,369.0,200.0,37,2,1912.5,415950.8000000119,8024,lime,NF,C,413509,413509,411980,412793,411980,413892,413309,413309,413892,122
98,test,1,inc,0,z,Thu May 29 2025 11:14:51 GMT-0500 (Central Daylight Time),419795.8000000119,iron,900,I,m,m,None,489,290.0,199.0,46,2,1928.699999988079,417867.10000002384,8024,pear,NF,C,415525,415525,413896,414809,413896,415825,415326,415326,415825,123
99,test,1,con,1,z,Thu May 29 2025 11:14:51 GMT-0500 (Central Daylight Time),421795.2000000179,banana,800,I,z,z,None,657,457.0,200.0,1,2,1995.5999999940395,419799.60000002384,8024,banana,NF,C,417358,417358,415829,416641,415829,417824,417158,417158,417824,124
100,test,1,con,1,m,Thu May 29 2025 11:14:51 GMT-0500 (Central Daylight Time),424011.3000000119,zinc,1100,I,m,m,None,573,374.0,199.0,116,2,2212.5,421798.8000000119,8024,zinc,NF,C,419657,419657,417828,418941,417828,420040,419458,419458,420040,125
101,test,1,inc,1,z,Thu May 29 2025 11:14:51 GMT-0500 (Central Daylight Time),425977.40000000596,gold,800,I,z,z,None,618,418.0,200.0,53,2,1962.4000000059605,424015.0,8024,kiwi,NF,C,421573,421573,420044,420857,420044,422007,421373,421373,422006,126
102,test,1,con,1,m,Thu May 29 2025 11:14:51 GMT-0500 (Central Daylight Time),427959.90000000596,gold,900,I,m,m,None,544,344.0,200.0,98,2,1978.7999999821186,425981.10000002384,8024,gold,NF,C,423639,423639,422010,422923,422010,423989,423439,423439,423989,127
103,test,1,inc,1,z,Thu May 29 2025 11:14:51 GMT-0500 (Central Daylight Time),430209.2000000179,cobalt,1100,I,z,z,None,608,408.0,200.0,24,2,2245.5,427963.7000000179,8024,orange,NF,C,425822,425822,423993,425106,423993,426238,425622,425622,426238,128
