acc_sum,block,block_c,change,condition,correct,correct_response,datetime,endtime,face,project,response,response_time,row_sel,session_number,start_end,starttime,subject_id,task,task_vers,trial
0,prac,1,,1-Back,,,Wed Mar 25 2026 09:29:58 GMT-0500 (Central Daylight Time),,050_m_f_n_a.png,I,space,11111,1,1,,,8099,NNB,A,0
1,prac,1,0.0,1-Back,1.0,m,Wed Mar 25 2026 09:29:58 GMT-0500 (Central Daylight Time),171379.60000014305,063_y_f_n_a.png,I,m,807,2,1,1609.2000000476837,169770.40000009537,8099,NNB,A,1
1,prac,1,1.0,1-Back,0.0,z,Wed Mar 25 2026 09:29:58 GMT-0500 (Central Daylight Time),174195.20000004768,063_y_f_n_a.png,I,None,2054,3,1,2808.4000000953674,171386.79999995232,8099,NNB,A,2
2,prac,1,0.0,1-Back,1.0,m,Wed Mar 25 2026 09:29:58 GMT-0500 (Central Daylight Time),176677.79999995232,053_o_m_n_a.png,I,m,1678,4,1,2476.0,174201.79999995232,8099,NNB,A,3
3,prac,1,0.0,1-Back,1.0,m,Wed Mar 25 2026 09:29:58 GMT-0500 (Central Daylight Time),178827.10000014305,058_m_m_n_a.png,I,m,1346,5,1,2142.7000000476837,176684.40000009537,8099,NNB,A,4
4,prac,1,1.0,1-Back,1.0,z,Wed Mar 25 2026 09:29:58 GMT-0500 (Central Daylight Time),180843.10000014305,058_m_m_n_a.png,I,z,1239,6,1,2009.3000001907349,178833.79999995232,8099,NNB,A,5
5,prac,1,0.0,1-Back,1.0,m,Wed Mar 25 2026 09:29:58 GMT-0500 (Central Daylight Time),182642.70000004768,047_o_f_n_a.png,I,m,956,7,1,1791.5,180851.20000004768,8099,NNB,A,6
6,prac,1,0.0,1-Back,1.0,m,Wed Mar 25 2026 09:29:58 GMT-0500 (Central Daylight Time),184741.90000009537,045_m_m_n_a.png,I,m,1287,8,1,2092.2000000476837,182649.70000004768,8099,NNB,A,7
7,prac,1,0.0,1-Back,1.0,m,Wed Mar 25 2026 09:29:58 GMT-0500 (Central Daylight Time),186741.20000004768,050_m_f_n_a.png,I,m,1212,9,1,1992.0999999046326,184749.10000014305,8099,NNB,A,8
8,prac,1,1.0,1-Back,1.0,z,Wed Mar 25 2026 09:29:58 GMT-0500 (Central Daylight Time),188191.0,050_m_f_n_a.png,I,z,669,10,1,1443.0999999046326,186747.90000009537,8099,NNB,A,9
9,prac,1,0.0,1-Back,1.0,m,Wed Mar 25 2026 09:29:58 GMT-0500 (Central Daylight Time),189823.70000004768,053_o_m_n_a.png,I,m,843,11,1,1626.2000000476837,188197.5,8099,NNB,A,10
10,prac,1,0.0,1-Back,1.0,m,Wed Mar 25 2026 09:29:58 GMT-0500 (Central Daylight Time),191489.90000009537,010_y_f_n_a.png,I,m,839,12,1,1659.5,189830.40000009537,8099,NNB,A,11
0,test,1,0.0,1-Back,,,Wed Mar 25 2026 09:29:58 GMT-0500 (Central Daylight Time),191489.90000009537,063_y_f_n_a.png,I,space,14355,1,1,1659.5,189830.40000009537,8099,NNB,A,0
1,test,1,0.0,1-Back,1.0,m,Wed Mar 25 2026 09:29:58 GMT-0500 (Central Daylight Time),217831.40000009537,043_m_f_n_a.png,I,m,552,2,1,1577.5,216253.90000009537,8099,NNB,A,1
2,test,1,0.0,1-Back,1.0,m,Wed Mar 25 2026 09:29:58 GMT-0500 (Central Daylight Time),219980.90000009537,010_y_f_n_a.png,I,m,1128,3,1,2144.9000000953674,217836.0,8099,NNB,A,2
3,test,1,1.0,1-Back,1.0,z,Wed Mar 25 2026 09:29:58 GMT-0500 (Central Daylight Time),221680.10000014305,010_y_f_n_a.png,I,z,676,4,1,1695.2000000476837,219984.90000009537,8099,NNB,A,3
4,test,1,0.0,1-Back,1.0,m,Wed Mar 25 2026 09:29:58 GMT-0500 (Central Daylight Time),223429.79999995232,043_m_f_n_a.png,I,m,720,5,1,1746.1999998092651,221683.60000014305,8099,NNB,A,4
5,test,1,0.0,1-Back,1.0,m,Wed Mar 25 2026 09:29:58 GMT-0500 (Central Daylight Time),225245.79999995232,053_o_m_n_a.png,I,m,795,6,1,1811.1999998092651,223434.60000014305,8099,NNB,A,5
6,test,1,1.0,1-Back,1.0,z,Wed Mar 25 2026 09:29:58 GMT-0500 (Central Daylight Time),226828.70000004768,053_o_m_n_a.png,I,z,562,7,1,1578.7000000476837,225250.0,8099,NNB,A,6
7,test,1,0.0,1-Back,1.0,m,Wed Mar 25 2026 09:29:58 GMT-0500 (Central Daylight Time),228578.0,058_m_m_n_a.png,I,m,725,8,1,1743.5999999046326,226834.40000009537,8099,NNB,A,7
8,test,1,0.0,1-Back,1.0,m,Wed Mar 25 2026 09:29:58 GMT-0500 (Central Daylight Time),230344.10000014305,047_o_f_n_a.png,I,m,742,9,1,1761.8000001907349,228582.29999995232,8099,NNB,A,8
9,test,1,0.0,1-Back,1.0,m,Wed Mar 25 2026 09:29:58 GMT-0500 (Central Daylight Time),232343.60000014305,058_m_m_n_a.png,I,m,977,10,1,1995.0,230348.60000014305,8099,NNB,A,9
10,test,1,0.0,1-Back,1.0,m,Wed Mar 25 2026 09:29:58 GMT-0500 (Central Daylight Time),234226.10000014305,041_y_m_n_a.png,I,m,865,11,1,1878.3000001907349,232347.79999995232,8099,NNB,A,10
11,test,1,1.0,1-Back,1.0,z,Wed Mar 25 2026 09:29:58 GMT-0500 (Central Daylight Time),235692.60000014305,041_y_m_n_a.png,I,z,446,12,1,1462.5,234230.10000014305,8099,NNB,A,11
12,test,1,0.0,1-Back,1.0,m,Wed Mar 25 2026 09:29:58 GMT-0500 (Central Daylight Time),237425.29999995232,044_o_f_n_a.png,I,m,709,13,1,1729.0999999046326,235696.20000004768,8099,NNB,A,12
13,test,1,1.0,1-Back,1.0,z,Wed Mar 25 2026 09:29:58 GMT-0500 (Central Daylight Time),239124.79999995232,044_o_f_n_a.png,I,z,679,14,1,1695.5999999046326,237429.20000004768,8099,NNB,A,13
14,test,1,0.0,1-Back,1.0,m,Wed Mar 25 2026 09:29:58 GMT-0500 (Central Daylight Time),241391.0,008_y_m_n_a.png,I,m,1235,15,1,2262.5999999046326,239128.40000009537,8099,NNB,A,14
15,test,1,0.0,1-Back,1.0,m,Wed Mar 25 2026 09:29:58 GMT-0500 (Central Daylight Time),243174.0,050_m_f_n_a.png,I,m,762,16,1,1777.8999998569489,241396.10000014305,8099,NNB,A,15
16,test,1,0.0,1-Back,1.0,m,Wed Mar 25 2026 09:29:58 GMT-0500 (Central Daylight Time),244856.5,046_o_m_n_a.png,I,m,647,17,1,1678.7999999523163,243177.70000004768,8099,NNB,A,16
17,test,1,0.0,1-Back,1.0,m,Wed Mar 25 2026 09:29:58 GMT-0500 (Central Daylight Time),246622.60000014305,050_m_f_n_a.png,I,m,735,18,1,1762.5,244860.10000014305,8099,NNB,A,17
0,test,2,0.0,1-Back,,,Wed Mar 25 2026 09:29:58 GMT-0500 (Central Daylight Time),246622.60000014305,058_m_m_n_a.png,I,space,4354,1,1,1762.5,244860.10000014305,8099,NNB,A,0
1,test,2,0.0,1-Back,1.0,m,Wed Mar 25 2026 09:29:58 GMT-0500 (Central Daylight Time),254702.90000009537,043_m_f_n_a.png,I,m,677,2,1,1693.7000000476837,253009.20000004768,8099,NNB,A,1
2,test,2,1.0,1-Back,1.0,z,Wed Mar 25 2026 09:29:58 GMT-0500 (Central Daylight Time),256437.0,043_m_f_n_a.png,I,z,714,3,1,1730.0,254707.0,8099,NNB,A,2
3,test,2,0.0,1-Back,1.0,m,Wed Mar 25 2026 09:29:58 GMT-0500 (Central Daylight Time),258035.79999995232,058_m_m_n_a.png,I,m,573,4,1,1594.5,256441.29999995232,8099,NNB,A,3
4,test,2,0.0,1-Back,1.0,m,Wed Mar 25 2026 09:29:58 GMT-0500 (Central Daylight Time),259635.0,041_y_m_n_a.png,I,m,574,5,1,1594.3999998569489,258040.60000014305,8099,NNB,A,4
5,test,2,0.0,1-Back,1.0,m,Wed Mar 25 2026 09:29:58 GMT-0500 (Central Daylight Time),261234.60000014305,063_y_f_n_a.png,I,m,573,6,1,1595.2000000476837,259639.40000009537,8099,NNB,A,5
6,test,2,1.0,1-Back,1.0,z,Wed Mar 25 2026 09:29:58 GMT-0500 (Central Daylight Time),262700.7999999523,063_y_f_n_a.png,I,z,438,7,1,1462.5,261238.29999995232,8099,NNB,A,6
7,test,2,0.0,1-Back,1.0,m,Wed Mar 25 2026 09:29:58 GMT-0500 (Central Daylight Time),264400.2000000477,041_y_m_n_a.png,I,m,668,8,1,1695.0999999046326,262705.10000014305,8099,NNB,A,7
8,test,2,0.0,1-Back,1.0,m,Wed Mar 25 2026 09:29:58 GMT-0500 (Central Daylight Time),266266.2000000477,044_o_f_n_a.png,I,m,848,9,1,1862.2999999523163,264403.90000009537,8099,NNB,A,8
9,test,2,0.0,1-Back,1.0,m,Wed Mar 25 2026 09:29:58 GMT-0500 (Central Daylight Time),267932.2999999523,045_m_m_n_a.png,I,m,638,10,1,1662.7999999523163,266269.5,8099,NNB,A,9
10,test,2,1.0,1-Back,1.0,z,Wed Mar 25 2026 09:29:58 GMT-0500 (Central Daylight Time),269348.7000000477,045_m_m_n_a.png,I,z,396,11,1,1412.4000000953674,267936.2999999523,8099,NNB,A,10
11,test,2,0.0,1-Back,1.0,m,Wed Mar 25 2026 09:29:58 GMT-0500 (Central Daylight Time),270998.2000000477,044_o_f_n_a.png,I,m,628,12,1,1645.0,269353.2000000477,8099,NNB,A,11
12,test,2,0.0,1-Back,1.0,m,Wed Mar 25 2026 09:29:58 GMT-0500 (Central Daylight Time),272631.0,047_o_f_n_a.png,I,m,611,13,1,1628.7000000476837,271002.2999999523,8099,NNB,A,12
13,test,2,0.0,1-Back,1.0,m,Wed Mar 25 2026 09:29:58 GMT-0500 (Central Daylight Time),274197.2000000477,053_o_m_n_a.png,I,m,537,14,1,1562.0999999046326,272635.10000014305,8099,NNB,A,13
14,test,2,0.0,1-Back,1.0,m,Wed Mar 25 2026 09:29:58 GMT-0500 (Central Daylight Time),275696.5,046_o_m_n_a.png,I,m,475,15,1,1494.5999999046326,274201.90000009537,8099,NNB,A,14
15,test,2,1.0,1-Back,1.0,z,Wed Mar 25 2026 09:29:58 GMT-0500 (Central Daylight Time),277429.2999999523,046_o_m_n_a.png,I,z,712,16,1,1728.0999999046326,275701.2000000477,8099,NNB,A,15
16,test,2,0.0,1-Back,1.0,m,Wed Mar 25 2026 09:29:58 GMT-0500 (Central Daylight Time),279178.7999999523,008_y_m_n_a.png,I,m,722,17,1,1744.5999999046326,277434.2000000477,8099,NNB,A,16
17,test,2,1.0,1-Back,1.0,z,Wed Mar 25 2026 09:29:58 GMT-0500 (Central Daylight Time),280778.2000000477,008_y_m_n_a.png,I,z,583,18,1,1595.2999999523163,279182.90000009537,8099,NNB,A,17
0,test,3,1.0,1-Back,,,Wed Mar 25 2026 09:29:58 GMT-0500 (Central Daylight Time),280778.2000000477,010_y_f_n_a.png,I,space,1199,1,1,1595.2999999523163,279182.90000009537,8099,NNB,A,0
1,test,3,0.0,1-Back,1.0,m,Wed Mar 25 2026 09:29:58 GMT-0500 (Central Daylight Time),285576.7999999523,046_o_m_n_a.png,I,m,500,2,1,1529.2999999523163,284047.5,8099,NNB,A,1
2,test,3,1.0,1-Back,1.0,z,Wed Mar 25 2026 09:29:58 GMT-0500 (Central Daylight Time),287176.5,046_o_m_n_a.png,I,z,567,3,1,1595.3999998569489,285581.10000014305,8099,NNB,A,2
3,test,3,0.0,1-Back,1.0,m,Wed Mar 25 2026 09:29:58 GMT-0500 (Central Daylight Time),288975.90000009537,050_m_f_n_a.png,I,m,768,4,1,1794.9000000953674,287181.0,8099,NNB,A,3
4,test,3,1.0,1-Back,1.0,z,Wed Mar 25 2026 09:29:58 GMT-0500 (Central Daylight Time),290575.2000000477,050_m_f_n_a.png,I,z,568,5,1,1594.7999999523163,288980.40000009537,8099,NNB,A,4
5,test,3,0.0,1-Back,1.0,m,Wed Mar 25 2026 09:29:58 GMT-0500 (Central Daylight Time),292141.7000000477,044_o_f_n_a.png,I,m,544,6,1,1562.4000000953674,290579.2999999523,8099,NNB,A,5
6,test,3,0.0,1-Back,1.0,m,Wed Mar 25 2026 09:29:58 GMT-0500 (Central Daylight Time),293774.5,041_y_m_n_a.png,I,m,603,7,1,1628.2999999523163,292146.2000000477,8099,NNB,A,6
6,test,3,0.0,1-Back,0.0,m,Wed Mar 25 2026 09:29:58 GMT-0500 (Central Daylight Time),295457.40000009537,044_o_f_n_a.png,I,z,650,8,1,1677.7999999523163,293779.60000014305,8099,NNB,A,7
7,test,3,0.0,1-Back,1.0,m,Wed Mar 25 2026 09:29:58 GMT-0500 (Central Daylight Time),297239.90000009537,008_y_m_n_a.png,I,m,759,9,1,1778.7999999523163,295461.10000014305,8099,NNB,A,8
7,test,3,1.0,1-Back,0.0,z,Wed Mar 25 2026 09:29:58 GMT-0500 (Central Daylight Time),298606.10000014305,008_y_m_n_a.png,I,m,337,10,1,1362.4000000953674,297243.7000000477,8099,NNB,A,9
8,test,3,0.0,1-Back,1.0,m,Wed Mar 25 2026 09:29:58 GMT-0500 (Central Daylight Time),300572.10000014305,043_m_f_n_a.png,I,m,945,11,1,1962.1000001430511,298610.0,8099,NNB,A,10
9,test,3,0.0,1-Back,1.0,m,Wed Mar 25 2026 09:29:58 GMT-0500 (Central Daylight Time),302105.2000000477,063_y_f_n_a.png,I,m,515,12,1,1527.7999999523163,300577.40000009537,8099,NNB,A,11
10,test,3,1.0,1-Back,1.0,z,Wed Mar 25 2026 09:29:58 GMT-0500 (Central Daylight Time),303604.5,063_y_f_n_a.png,I,z,480,13,1,1494.7999999523163,302109.7000000477,8099,NNB,A,12
11,test,3,0.0,1-Back,1.0,m,Wed Mar 25 2026 09:29:58 GMT-0500 (Central Daylight Time),305237.60000014305,043_m_f_n_a.png,I,m,612,14,1,1629.2000000476837,303608.40000009537,8099,NNB,A,13
12,test,3,0.0,1-Back,1.0,m,Wed Mar 25 2026 09:29:58 GMT-0500 (Central Daylight Time),306753.60000014305,058_m_m_n_a.png,I,m,491,15,1,1511.8000001907349,305241.7999999523,8099,NNB,A,14
13,test,3,1.0,1-Back,1.0,z,Wed Mar 25 2026 09:29:58 GMT-0500 (Central Daylight Time),308170.0,058_m_m_n_a.png,I,z,390,16,1,1412.5,306757.5,8099,NNB,A,15
14,test,3,0.0,1-Back,1.0,m,Wed Mar 25 2026 09:29:58 GMT-0500 (Central Daylight Time),309902.90000009537,047_o_f_n_a.png,I,m,702,17,1,1728.7000000476837,308174.2000000477,8099,NNB,A,16
15,test,3,1.0,1-Back,1.0,z,Wed Mar 25 2026 09:29:58 GMT-0500 (Central Daylight Time),311519.0,047_o_f_n_a.png,I,z,595,18,1,1612.5999999046326,309906.40000009537,8099,NNB,A,17
0,test,4,1.0,1-Back,,,Wed Mar 25 2026 09:29:58 GMT-0500 (Central Daylight Time),311519.0,050_m_f_n_a.png,I,space,1473,1,1,1612.5999999046326,309906.40000009537,8099,NNB,A,0
1,test,4,0.0,1-Back,1.0,m,Wed Mar 25 2026 09:29:58 GMT-0500 (Central Daylight Time),316500.7000000477,046_o_m_n_a.png,I,m,456,2,1,1478.0,315022.7000000477,8099,NNB,A,1
2,test,4,0.0,1-Back,1.0,m,Wed Mar 25 2026 09:29:58 GMT-0500 (Central Daylight Time),318133.40000009537,050_m_f_n_a.png,I,m,613,3,1,1628.7999999523163,316504.60000014305,8099,NNB,A,2
3,test,4,0.0,1-Back,1.0,m,Wed Mar 25 2026 09:29:58 GMT-0500 (Central Daylight Time),319982.7999999523,044_o_f_n_a.png,I,m,827,4,1,1845.6999998092651,318137.10000014305,8099,NNB,A,3
4,test,4,1.0,1-Back,1.0,z,Wed Mar 25 2026 09:29:58 GMT-0500 (Central Daylight Time),321665.90000009537,044_o_f_n_a.png,I,z,650,5,1,1678.5,319987.40000009537,8099,NNB,A,4
5,test,4,0.0,1-Back,1.0,m,Wed Mar 25 2026 09:29:58 GMT-0500 (Central Daylight Time),323231.60000014305,063_y_f_n_a.png,I,m,544,6,1,1561.4000000953674,321670.2000000477,8099,NNB,A,5
6,test,4,0.0,1-Back,1.0,m,Wed Mar 25 2026 09:29:58 GMT-0500 (Central Daylight Time),324831.40000009537,041_y_m_n_a.png,I,m,568,7,1,1596.0,323235.40000009537,8099,NNB,A,6
7,test,4,1.0,1-Back,1.0,z,Wed Mar 25 2026 09:29:58 GMT-0500 (Central Daylight Time),326380.7999999523,041_y_m_n_a.png,I,z,521,8,1,1545.0999999046326,324835.7000000477,8099,NNB,A,7
8,test,4,0.0,1-Back,1.0,m,Wed Mar 25 2026 09:29:58 GMT-0500 (Central Daylight Time),327996.90000009537,063_y_f_n_a.png,I,m,595,9,1,1612.4000000953674,326384.5,8099,NNB,A,8
9,test,4,0.0,1-Back,1.0,m,Wed Mar 25 2026 09:29:58 GMT-0500 (Central Daylight Time),329613.2000000477,045_m_m_n_a.png,I,m,596,10,1,1612.7999999523163,328000.40000009537,8099,NNB,A,9
10,test,4,1.0,1-Back,1.0,z,Wed Mar 25 2026 09:29:58 GMT-0500 (Central Daylight Time),331279.2000000477,045_m_m_n_a.png,I,z,635,11,1,1662.2999999523163,329616.90000009537,8099,NNB,A,10
11,test,4,0.0,1-Back,1.0,m,Wed Mar 25 2026 09:29:58 GMT-0500 (Central Daylight Time),332812.2999999523,047_o_f_n_a.png,I,m,513,12,1,1528.1999998092651,331284.10000014305,8099,NNB,A,11
12,test,4,0.0,1-Back,1.0,m,Wed Mar 25 2026 09:29:58 GMT-0500 (Central Daylight Time),334394.90000009537,053_o_m_n_a.png,I,m,564,13,1,1577.4000000953674,332817.5,8099,NNB,A,12
13,test,4,0.0,1-Back,1.0,m,Wed Mar 25 2026 09:29:58 GMT-0500 (Central Daylight Time),336011.10000014305,047_o_f_n_a.png,I,m,589,14,1,1610.2000000476837,334400.90000009537,8099,NNB,A,13
14,test,4,0.0,1-Back,1.0,m,Wed Mar 25 2026 09:29:58 GMT-0500 (Central Daylight Time),337510.7999999523,010_y_f_n_a.png,I,m,469,15,1,1496.2999999523163,336014.5,8099,NNB,A,14
15,test,4,1.0,1-Back,1.0,z,Wed Mar 25 2026 09:29:58 GMT-0500 (Central Daylight Time),339160.2000000477,010_y_f_n_a.png,I,z,625,16,1,1645.7000000476837,337514.5,8099,NNB,A,15
16,test,4,0.0,1-Back,1.0,m,Wed Mar 25 2026 09:29:58 GMT-0500 (Central Daylight Time),340743.0,043_m_f_n_a.png,I,m,561,17,1,1578.5999999046326,339164.40000009537,8099,NNB,A,16
17,test,4,1.0,1-Back,1.0,z,Wed Mar 25 2026 09:29:58 GMT-0500 (Central Daylight Time),342342.40000009537,043_m_f_n_a.png,I,z,569,18,1,1596.0,340746.40000009537,8099,NNB,A,17
0,test,5,1.0,1-Back,,,Wed Mar 25 2026 09:29:58 GMT-0500 (Central Daylight Time),342342.40000009537,053_o_m_n_a.png,I,space,1291,1,1,1596.0,340746.40000009537,8099,NNB,A,0
1,test,5,1.0,1-Back,1.0,z,Wed Mar 25 2026 09:29:58 GMT-0500 (Central Daylight Time),347290.7999999523,053_o_m_n_a.png,I,z,614,2,1,1627.6999998092651,345663.10000014305,8099,NNB,A,1
2,test,5,0.0,1-Back,1.0,m,Wed Mar 25 2026 09:29:58 GMT-0500 (Central Daylight Time),348973.60000014305,063_y_f_n_a.png,I,m,653,3,1,1679.5,347294.10000014305,8099,NNB,A,2
3,test,5,0.0,1-Back,1.0,m,Wed Mar 25 2026 09:29:58 GMT-0500 (Central Daylight Time),350556.7999999523,041_y_m_n_a.png,I,m,563,4,1,1579.6999998092651,348977.10000014305,8099,NNB,A,3
4,test,5,0.0,1-Back,1.0,m,Wed Mar 25 2026 09:29:58 GMT-0500 (Central Daylight Time),352072.7999999523,063_y_f_n_a.png,I,m,484,5,1,1511.5999999046326,350561.2000000477,8099,NNB,A,4
5,test,5,0.0,1-Back,1.0,m,Wed Mar 25 2026 09:29:58 GMT-0500 (Central Daylight Time),353805.7000000477,058_m_m_n_a.png,I,m,712,6,1,1729.0999999046326,352076.60000014305,8099,NNB,A,5
6,test,5,1.0,1-Back,1.0,z,Wed Mar 25 2026 09:29:58 GMT-0500 (Central Daylight Time),355405.10000014305,058_m_m_n_a.png,I,z,579,7,1,1595.6000001430511,353809.5,8099,NNB,A,6
7,test,5,0.0,1-Back,1.0,m,Wed Mar 25 2026 09:29:58 GMT-0500 (Central Daylight Time),357104.7000000477,010_y_f_n_a.png,I,m,676,8,1,1695.5,355409.2000000477,8099,NNB,A,7
8,test,5,0.0,1-Back,1.0,m,Wed Mar 25 2026 09:29:58 GMT-0500 (Central Daylight Time),358887.40000009537,008_y_m_n_a.png,I,m,752,9,1,1778.6000001430511,357108.7999999523,8099,NNB,A,8
9,test,5,0.0,1-Back,1.0,m,Wed Mar 25 2026 09:29:58 GMT-0500 (Central Daylight Time),360603.2999999523,010_y_f_n_a.png,I,m,689,10,1,1712.3999998569489,358890.90000009537,8099,NNB,A,9
10,test,5,0.0,1-Back,1.0,m,Wed Mar 25 2026 09:29:58 GMT-0500 (Central Daylight Time),362187.2000000477,047_o_f_n_a.png,I,m,551,11,1,1580.0999999046326,360607.10000014305,8099,NNB,A,10
11,test,5,1.0,1-Back,1.0,z,Wed Mar 25 2026 09:29:58 GMT-0500 (Central Daylight Time),363702.40000009537,047_o_f_n_a.png,I,z,495,12,1,1508.1000001430511,362194.2999999523,8099,NNB,A,11
12,test,5,0.0,1-Back,1.0,m,Wed Mar 25 2026 09:29:58 GMT-0500 (Central Daylight Time),365335.40000009537,046_o_m_n_a.png,I,m,610,13,1,1629.6000001430511,363705.7999999523,8099,NNB,A,12
13,test,5,0.0,1-Back,1.0,m,Wed Mar 25 2026 09:29:58 GMT-0500 (Central Daylight Time),367001.7000000477,050_m_f_n_a.png,I,m,633,14,1,1662.0,365339.7000000477,8099,NNB,A,13
14,test,5,1.0,1-Back,1.0,z,Wed Mar 25 2026 09:29:58 GMT-0500 (Central Daylight Time),368417.7000000477,050_m_f_n_a.png,I,z,391,15,1,1411.5999999046326,367006.10000014305,8099,NNB,A,14
15,test,5,0.0,1-Back,1.0,m,Wed Mar 25 2026 09:29:58 GMT-0500 (Central Daylight Time),369983.90000009537,046_o_m_n_a.png,I,m,543,16,1,1562.9000000953674,368421.0,8099,NNB,A,15
16,test,5,0.0,1-Back,1.0,m,Wed Mar 25 2026 09:29:58 GMT-0500 (Central Daylight Time),371533.40000009537,043_m_f_n_a.png,I,m,521,17,1,1546.1000001430511,369987.2999999523,8099,NNB,A,16
17,test,5,0.0,1-Back,1.0,m,Wed Mar 25 2026 09:29:58 GMT-0500 (Central Daylight Time),373066.2000000477,045_m_m_n_a.png,I,m,515,18,1,1528.7999999523163,371537.40000009537,8099,NNB,A,17
0,prac,1,0.0,2-Back,,,Wed Mar 25 2026 09:29:58 GMT-0500 (Central Daylight Time),373066.2000000477,008_y_m_n_a.png,I,space,5696,1,1,1528.7999999523163,371537.40000009537,8099,NNB,A,0
0,prac,1,0.0,2-Back,,,Wed Mar 25 2026 09:29:58 GMT-0500 (Central Daylight Time),373066.2000000477,043_m_f_n_a.png,I,space,5696,2,1,1528.7999999523163,371537.40000009537,8099,NNB,A,0
1,prac,1,1.0,2-Back,1.0,m,Wed Mar 25 2026 09:29:58 GMT-0500 (Central Daylight Time),567089.100000143,046_o_m_n_a.png,I,m,934,3,1,1725.5,565363.600000143,8099,NNB,A,1
2,prac,1,0.0,2-Back,1.0,m,Wed Mar 25 2026 09:29:58 GMT-0500 (Central Daylight Time),569071.600000143,047_o_f_n_a.png,I,m,1143,4,1,1976.3000001907349,567095.2999999523,8099,NNB,A,2
3,prac,1,0.0,2-Back,1.0,z,Wed Mar 25 2026 09:29:58 GMT-0500 (Central Daylight Time),571171.2999999523,046_o_m_n_a.png,I,z,1323,5,1,2092.7999999523163,569078.5,8099,NNB,A,3
4,prac,1,1.0,2-Back,1.0,z,Wed Mar 25 2026 09:29:58 GMT-0500 (Central Daylight Time),573021.600000143,047_o_f_n_a.png,I,z,1072,6,1,1843.7000000476837,571177.9000000954,8099,NNB,A,4
5,prac,1,0.0,2-Back,1.0,m,Wed Mar 25 2026 09:29:58 GMT-0500 (Central Daylight Time),574671.0,045_m_m_n_a.png,I,m,837,7,1,1642.3999998569489,573028.600000143,8099,NNB,A,5
6,prac,1,0.0,2-Back,1.0,m,Wed Mar 25 2026 09:29:58 GMT-0500 (Central Daylight Time),576486.0,053_o_m_n_a.png,I,m,1003,8,1,1808.7000000476837,574677.2999999523,8099,NNB,A,6
7,prac,1,0.0,2-Back,1.0,m,Wed Mar 25 2026 09:29:58 GMT-0500 (Central Daylight Time),578168.600000143,010_y_f_n_a.png,I,m,909,9,1,1675.5,576493.100000143,8099,NNB,A,7
8,prac,1,1.0,2-Back,1.0,z,Wed Mar 25 2026 09:29:58 GMT-0500 (Central Daylight Time),580185.9000000954,053_o_m_n_a.png,I,z,1233,10,1,2010.4000000953674,578175.5,8099,NNB,A,8
9,prac,1,0.0,2-Back,1.0,m,Wed Mar 25 2026 09:29:58 GMT-0500 (Central Daylight Time),582034.100000143,063_y_f_n_a.png,I,m,1034,11,1,1841.7000000476837,580192.4000000954,8099,NNB,A,9
10,prac,1,0.0,2-Back,1.0,m,Wed Mar 25 2026 09:29:58 GMT-0500 (Central Daylight Time),584467.0,045_m_m_n_a.png,I,m,1649,12,1,2426.7999999523163,582040.2000000477,8099,NNB,A,10
0,test,1,0.0,2-Back,,,Wed Mar 25 2026 09:29:58 GMT-0500 (Central Daylight Time),584467.0,041_y_m_n_a.png,I,space,10503,1,1,2426.7999999523163,582040.2000000477,8099,NNB,A,0
0,test,1,0.0,2-Back,,,Wed Mar 25 2026 09:29:58 GMT-0500 (Central Daylight Time),584467.0,041_y_m_n_a.png,I,space,10503,2,1,2426.7999999523163,582040.2000000477,8099,NNB,A,0
1,test,1,0.0,2-Back,1.0,m,Wed Mar 25 2026 09:29:58 GMT-0500 (Central Daylight Time),616340.100000143,047_o_f_n_a.png,I,m,956,3,1,1976.8000001907349,614363.2999999523,8099,NNB,A,1
2,test,1,0.0,2-Back,1.0,m,Wed Mar 25 2026 09:29:58 GMT-0500 (Central Daylight Time),618089.7999999523,058_m_m_n_a.png,I,m,717,4,1,1745.6999998092651,616344.100000143,8099,NNB,A,2
3,test,1,1.0,2-Back,1.0,z,Wed Mar 25 2026 09:29:58 GMT-0500 (Central Daylight Time),619589.4000000954,047_o_f_n_a.png,I,z,472,5,1,1495.7999999523163,618093.600000143,8099,NNB,A,3
4,test,1,0.0,2-Back,1.0,m,Wed Mar 25 2026 09:29:58 GMT-0500 (Central Daylight Time),621449.9000000954,063_y_f_n_a.png,I,m,844,6,1,1856.1000001430511,619593.7999999523,8099,NNB,A,4
5,test,1,0.0,2-Back,1.0,m,Wed Mar 25 2026 09:29:58 GMT-0500 (Central Daylight Time),623504.600000143,058_m_m_n_a.png,I,m,1043,7,1,2050.7000000476837,621453.9000000954,8099,NNB,A,5
6,test,1,1.0,2-Back,1.0,z,Wed Mar 25 2026 09:29:58 GMT-0500 (Central Daylight Time),625304.2000000477,063_y_f_n_a.png,I,z,767,8,1,1794.7000000476837,623509.5,8099,NNB,A,6
7,test,1,0.0,2-Back,1.0,m,Wed Mar 25 2026 09:29:58 GMT-0500 (Central Daylight Time),627137.0,008_y_m_n_a.png,I,m,808,9,1,1828.0999999046326,625308.9000000954,8099,NNB,A,7
8,test,1,0.0,2-Back,1.0,m,Wed Mar 25 2026 09:29:58 GMT-0500 (Central Daylight Time),628936.2000000477,044_o_f_n_a.png,I,m,767,10,1,1795.4000000953674,627140.7999999523,8099,NNB,A,8
9,test,1,1.0,2-Back,1.0,z,Wed Mar 25 2026 09:29:58 GMT-0500 (Central Daylight Time),630785.5,008_y_m_n_a.png,I,z,832,11,1,1845.3999998569489,628940.100000143,8099,NNB,A,9
10,test,1,0.0,2-Back,1.0,m,Wed Mar 25 2026 09:29:58 GMT-0500 (Central Daylight Time),632685.2000000477,043_m_f_n_a.png,I,m,880,12,1,1895.5,630789.7000000477,8099,NNB,A,10
10,test,1,0.0,2-Back,0.0,m,Wed Mar 25 2026 09:29:58 GMT-0500 (Central Daylight Time),635717.7000000477,043_m_f_n_a.png,I,None,2015,13,1,3028.5999999046326,632689.100000143,8099,NNB,A,11
11,test,1,0.0,2-Back,1.0,m,Wed Mar 25 2026 09:29:58 GMT-0500 (Central Daylight Time),638466.2999999523,046_o_m_n_a.png,I,m,1732,14,1,2744.5,635721.7999999523,8099,NNB,A,12
12,test,1,0.0,2-Back,1.0,m,Wed Mar 25 2026 09:29:58 GMT-0500 (Central Daylight Time),640332.7999999523,044_o_f_n_a.png,I,m,847,15,1,1863.0999999046326,638469.7000000477,8099,NNB,A,13
13,test,1,1.0,2-Back,1.0,z,Wed Mar 25 2026 09:29:58 GMT-0500 (Central Daylight Time),642266.5,046_o_m_n_a.png,I,z,909,16,1,1930.0999999046326,640336.4000000954,8099,NNB,A,14
14,test,1,0.0,2-Back,1.0,m,Wed Mar 25 2026 09:29:58 GMT-0500 (Central Daylight Time),644114.5,050_m_f_n_a.png,I,m,832,17,1,1844.3999998569489,642270.100000143,8099,NNB,A,15
15,test,1,0.0,2-Back,1.0,m,Wed Mar 25 2026 09:29:58 GMT-0500 (Central Daylight Time),646047.2999999523,045_m_m_n_a.png,I,m,907,18,1,1928.8999998569489,644118.4000000954,8099,NNB,A,16
0,test,2,0.0,2-Back,,,Wed Mar 25 2026 09:29:58 GMT-0500 (Central Daylight Time),646047.2999999523,045_m_m_n_a.png,I,space,2441,1,1,1928.8999998569489,644118.4000000954,8099,NNB,A,0
0,test,2,0.0,2-Back,,,Wed Mar 25 2026 09:29:58 GMT-0500 (Central Daylight Time),646047.2999999523,010_y_f_n_a.png,I,space,2441,2,1,1928.8999998569489,644118.4000000954,8099,NNB,A,0
1,test,2,1.0,2-Back,1.0,z,Wed Mar 25 2026 09:29:58 GMT-0500 (Central Daylight Time),655761.2000000477,045_m_m_n_a.png,I,z,1141,3,1,2162.2999999523163,653598.9000000954,8099,NNB,A,1
2,test,2,0.0,2-Back,1.0,m,Wed Mar 25 2026 09:29:58 GMT-0500 (Central Daylight Time),657677.4000000954,050_m_f_n_a.png,I,m,888,4,1,1912.6000001430511,655764.7999999523,8099,NNB,A,2
2,test,2,0.0,2-Back,0.0,m,Wed Mar 25 2026 09:29:58 GMT-0500 (Central Daylight Time),660710.9000000954,010_y_f_n_a.png,I,None,2017,5,1,3028.9000000953674,657682.0,8099,NNB,A,3
3,test,2,0.0,2-Back,1.0,m,Wed Mar 25 2026 09:29:58 GMT-0500 (Central Daylight Time),662625.9000000954,046_o_m_n_a.png,I,m,900,6,1,1910.9000000953674,660715.0,8099,NNB,A,4
4,test,2,0.0,2-Back,1.0,m,Wed Mar 25 2026 09:29:58 GMT-0500 (Central Daylight Time),664674.9000000954,063_y_f_n_a.png,I,m,1032,7,1,2044.5,662630.4000000954,8099,NNB,A,5
5,test,2,1.0,2-Back,1.0,z,Wed Mar 25 2026 09:29:58 GMT-0500 (Central Daylight Time),666458.0,046_o_m_n_a.png,I,z,749,8,1,1778.5,664679.5,8099,NNB,A,6
6,test,2,0.0,2-Back,1.0,m,Wed Mar 25 2026 09:29:58 GMT-0500 (Central Daylight Time),668257.5,008_y_m_n_a.png,I,m,776,9,1,1796.0,666461.5,8099,NNB,A,7
7,test,2,0.0,2-Back,1.0,m,Wed Mar 25 2026 09:29:58 GMT-0500 (Central Daylight Time),670173.2999999523,008_y_m_n_a.png,I,m,888,10,1,1912.0,668261.2999999523,8099,NNB,A,8
8,test,2,0.0,2-Back,1.0,m,Wed Mar 25 2026 09:29:58 GMT-0500 (Central Daylight Time),672172.7000000477,043_m_f_n_a.png,I,m,980,11,1,1995.0999999046326,670177.600000143,8099,NNB,A,9
9,test,2,0.0,2-Back,1.0,m,Wed Mar 25 2026 09:29:58 GMT-0500 (Central Daylight Time),674005.5,010_y_f_n_a.png,I,m,803,12,1,1828.8999998569489,672176.600000143,8099,NNB,A,10
10,test,2,1.0,2-Back,1.0,z,Wed Mar 25 2026 09:29:58 GMT-0500 (Central Daylight Time),675639.0,043_m_f_n_a.png,I,z,611,13,1,1628.8999998569489,674010.100000143,8099,NNB,A,11
11,test,2,0.0,2-Back,1.0,m,Wed Mar 25 2026 09:29:58 GMT-0500 (Central Daylight Time),677571.2000000477,053_o_m_n_a.png,I,m,914,14,1,1928.9000000953674,675642.2999999523,8099,NNB,A,12
12,test,2,0.0,2-Back,1.0,m,Wed Mar 25 2026 09:29:58 GMT-0500 (Central Daylight Time),679670.4000000954,053_o_m_n_a.png,I,m,1077,15,1,2095.7999999523163,677574.600000143,8099,NNB,A,13
13,test,2,0.0,2-Back,1.0,m,Wed Mar 25 2026 09:29:58 GMT-0500 (Central Daylight Time),681519.9000000954,044_o_f_n_a.png,I,m,818,16,1,1845.4000000953674,679674.5,8099,NNB,A,14
14,test,2,0.0,2-Back,1.0,m,Wed Mar 25 2026 09:29:58 GMT-0500 (Central Daylight Time),683352.7000000477,058_m_m_n_a.png,I,m,810,17,1,1829.4000000953674,681523.2999999523,8099,NNB,A,15
15,test,2,1.0,2-Back,1.0,z,Wed Mar 25 2026 09:29:58 GMT-0500 (Central Daylight Time),685302.100000143,044_o_f_n_a.png,I,z,928,18,1,1946.0,683356.100000143,8099,NNB,A,16
0,test,3,1.0,2-Back,,,Wed Mar 25 2026 09:29:58 GMT-0500 (Central Daylight Time),685302.100000143,041_y_m_n_a.png,I,space,1731,1,1,1946.0,683356.100000143,8099,NNB,A,0
0,test,3,1.0,2-Back,,,Wed Mar 25 2026 09:29:58 GMT-0500 (Central Daylight Time),685302.100000143,041_y_m_n_a.png,I,space,1731,2,1,1946.0,683356.100000143,8099,NNB,A,0
1,test,3,0.0,2-Back,1.0,m,Wed Mar 25 2026 09:29:58 GMT-0500 (Central Daylight Time),694000.5,044_o_f_n_a.png,I,m,853,3,1,1868.7999999523163,692131.7000000477,8099,NNB,A,1
2,test,3,0.0,2-Back,1.0,m,Wed Mar 25 2026 09:29:58 GMT-0500 (Central Daylight Time),695765.2000000477,045_m_m_n_a.png,I,m,746,4,1,1761.0999999046326,694004.100000143,8099,NNB,A,2
3,test,3,1.0,2-Back,1.0,z,Wed Mar 25 2026 09:29:58 GMT-0500 (Central Daylight Time),697615.0,044_o_f_n_a.png,I,z,819,5,1,1846.2999999523163,695768.7000000477,8099,NNB,A,3
3,test,3,0.0,2-Back,0.0,m,Wed Mar 25 2026 09:29:58 GMT-0500 (Central Daylight Time),699880.7000000477,008_y_m_n_a.png,I,z,1234,6,1,2262.2000000476837,697618.5,8099,NNB,A,4
4,test,3,0.0,2-Back,1.0,m,Wed Mar 25 2026 09:29:58 GMT-0500 (Central Daylight Time),702163.2000000477,045_m_m_n_a.png,I,m,1264,7,1,2277.7999999523163,699885.4000000954,8099,NNB,A,5
4,test,3,1.0,2-Back,0.0,z,Wed Mar 25 2026 09:29:58 GMT-0500 (Central Daylight Time),705195.7000000477,008_y_m_n_a.png,I,None,2016,8,1,3028.9000000953674,702166.7999999523,8099,NNB,A,6
5,test,3,0.0,2-Back,1.0,m,Wed Mar 25 2026 09:29:58 GMT-0500 (Central Daylight Time),707011.9000000954,010_y_f_n_a.png,I,m,790,9,1,1813.0,705198.9000000954,8099,NNB,A,7
6,test,3,0.0,2-Back,1.0,m,Wed Mar 25 2026 09:29:58 GMT-0500 (Central Daylight Time),708578.0,058_m_m_n_a.png,I,m,541,10,1,1561.8999998569489,707016.100000143,8099,NNB,A,8
7,test,3,1.0,2-Back,1.0,z,Wed Mar 25 2026 09:29:58 GMT-0500 (Central Daylight Time),710127.5,010_y_f_n_a.png,I,z,518,11,1,1545.3999998569489,708582.100000143,8099,NNB,A,9
8,test,3,1.0,2-Back,1.0,z,Wed Mar 25 2026 09:29:58 GMT-0500 (Central Daylight Time),711876.7999999523,058_m_m_n_a.png,I,z,730,12,1,1744.7999999523163,710132.0,8099,NNB,A,10
9,test,3,0.0,2-Back,1.0,m,Wed Mar 25 2026 09:29:58 GMT-0500 (Central Daylight Time),713642.9000000954,044_o_f_n_a.png,I,m,746,13,1,1762.7000000476837,711880.2000000477,8099,NNB,A,11
10,test,3,0.0,2-Back,1.0,m,Wed Mar 25 2026 09:29:58 GMT-0500 (Central Daylight Time),715259.100000143,050_m_f_n_a.png,I,m,598,14,1,1612.3000001907349,713646.7999999523,8099,NNB,A,12
11,test,3,0.0,2-Back,1.0,m,Wed Mar 25 2026 09:29:58 GMT-0500 (Central Daylight Time),716908.7999999523,046_o_m_n_a.png,I,m,630,15,1,1646.1999998092651,715262.600000143,8099,NNB,A,13
12,test,3,1.0,2-Back,1.0,z,Wed Mar 25 2026 09:29:58 GMT-0500 (Central Daylight Time),718791.600000143,050_m_f_n_a.png,I,z,859,16,1,1877.4000000953674,716914.2000000477,8099,NNB,A,14
13,test,3,0.0,2-Back,1.0,m,Wed Mar 25 2026 09:29:58 GMT-0500 (Central Daylight Time),720858.7000000477,047_o_f_n_a.png,I,m,1042,17,1,2063.5,718795.2000000477,8099,NNB,A,15
14,test,3,0.0,2-Back,1.0,m,Wed Mar 25 2026 09:29:58 GMT-0500 (Central Daylight Time),722957.100000143,047_o_f_n_a.png,I,m,1080,18,1,2094.4000000953674,720862.7000000477,8099,NNB,A,16
0,test,4,0.0,2-Back,,,Wed Mar 25 2026 09:29:58 GMT-0500 (Central Daylight Time),722957.100000143,053_o_m_n_a.png,I,space,1187,1,1,2094.4000000953674,720862.7000000477,8099,NNB,A,0
0,test,4,0.0,2-Back,,,Wed Mar 25 2026 09:29:58 GMT-0500 (Central Daylight Time),722957.100000143,063_y_f_n_a.png,I,space,1187,2,1,2094.4000000953674,720862.7000000477,8099,NNB,A,0
1,test,4,1.0,2-Back,1.0,z,Wed Mar 25 2026 09:29:58 GMT-0500 (Central Daylight Time),731121.100000143,053_o_m_n_a.png,I,z,842,3,1,1862.1000001430511,729259.0,8099,NNB,A,1
1,test,4,1.0,2-Back,0.0,z,Wed Mar 25 2026 09:29:58 GMT-0500 (Central Daylight Time),732637.2999999523,063_y_f_n_a.png,I,m,496,4,1,1512.3999998569489,731124.9000000954,8099,NNB,A,2
2,test,4,0.0,2-Back,1.0,m,Wed Mar 25 2026 09:29:58 GMT-0500 (Central Daylight Time),734869.7999999523,044_o_f_n_a.png,I,m,1212,5,1,2229.199999809265,732640.600000143,8099,NNB,A,3
3,test,4,0.0,2-Back,1.0,m,Wed Mar 25 2026 09:29:58 GMT-0500 (Central Daylight Time),737435.5,044_o_f_n_a.png,I,m,1547,6,1,2562.0,734873.5,8099,NNB,A,4
4,test,4,0.0,2-Back,1.0,m,Wed Mar 25 2026 09:29:58 GMT-0500 (Central Daylight Time),739785.0,043_m_f_n_a.png,I,m,1326,7,1,2345.2000000476837,737439.7999999523,8099,NNB,A,5
5,test,4,0.0,2-Back,1.0,m,Wed Mar 25 2026 09:29:58 GMT-0500 (Central Daylight Time),741501.2000000477,008_y_m_n_a.png,I,m,695,8,1,1712.5999999046326,739788.600000143,8099,NNB,A,6
6,test,4,1.0,2-Back,1.0,z,Wed Mar 25 2026 09:29:58 GMT-0500 (Central Daylight Time),743000.600000143,043_m_f_n_a.png,I,z,475,9,1,1495.9000000953674,741504.7000000477,8099,NNB,A,7
7,test,4,0.0,2-Back,1.0,m,Wed Mar 25 2026 09:29:58 GMT-0500 (Central Daylight Time),744766.5,058_m_m_n_a.png,I,m,736,10,1,1762.3999998569489,743004.100000143,8099,NNB,A,8
7,test,4,0.0,2-Back,0.0,m,Wed Mar 25 2026 09:29:58 GMT-0500 (Central Daylight Time),746716.2000000477,008_y_m_n_a.png,I,z,930,11,1,1945.5999999046326,744770.600000143,8099,NNB,A,9
8,test,4,0.0,2-Back,1.0,m,Wed Mar 25 2026 09:29:58 GMT-0500 (Central Daylight Time),748815.600000143,047_o_f_n_a.png,I,m,1078,12,1,2094.7000000476837,746720.9000000954,8099,NNB,A,10
9,test,4,0.0,2-Back,1.0,m,Wed Mar 25 2026 09:29:58 GMT-0500 (Central Daylight Time),750615.0,041_y_m_n_a.png,I,m,777,13,1,1795.5,748819.5,8099,NNB,A,11
10,test,4,1.0,2-Back,1.0,z,Wed Mar 25 2026 09:29:58 GMT-0500 (Central Daylight Time),752447.5,047_o_f_n_a.png,I,z,803,14,1,1828.7000000476837,750618.7999999523,8099,NNB,A,12
11,test,4,1.0,2-Back,1.0,z,Wed Mar 25 2026 09:29:58 GMT-0500 (Central Daylight Time),754313.7999999523,041_y_m_n_a.png,I,z,850,15,1,1862.0999999046326,752451.7000000477,8099,NNB,A,13
12,test,4,0.0,2-Back,1.0,m,Wed Mar 25 2026 09:29:58 GMT-0500 (Central Daylight Time),756080.100000143,045_m_m_n_a.png,I,m,744,16,1,1762.1000001430511,754318.0,8099,NNB,A,14
12,test,4,0.0,2-Back,0.0,m,Wed Mar 25 2026 09:29:58 GMT-0500 (Central Daylight Time),759112.4000000954,050_m_f_n_a.png,I,None,2015,17,1,3028.7999999523163,756083.600000143,8099,NNB,A,15
13,test,4,1.0,2-Back,1.0,z,Wed Mar 25 2026 09:29:58 GMT-0500 (Central Daylight Time),760895.0,045_m_m_n_a.png,I,z,761,18,1,1778.3999998569489,759116.600000143,8099,NNB,A,16
0,test,5,1.0,2-Back,,,Wed Mar 25 2026 09:29:58 GMT-0500 (Central Daylight Time),760895.0,041_y_m_n_a.png,I,space,1114,1,1,1778.3999998569489,759116.600000143,8099,NNB,A,0
0,test,5,1.0,2-Back,,,Wed Mar 25 2026 09:29:58 GMT-0500 (Central Daylight Time),760895.0,050_m_f_n_a.png,I,space,1114,2,1,1778.3999998569489,759116.600000143,8099,NNB,A,0
1,test,5,1.0,2-Back,1.0,z,Wed Mar 25 2026 09:29:58 GMT-0500 (Central Daylight Time),768892.7999999523,041_y_m_n_a.png,I,z,806,3,1,1829.6999998092651,767063.100000143,8099,NNB,A,1
2,test,5,1.0,2-Back,1.0,z,Wed Mar 25 2026 09:29:58 GMT-0500 (Central Daylight Time),770625.4000000954,050_m_f_n_a.png,I,z,716,4,1,1729.2000000476837,768896.2000000477,8099,NNB,A,2
3,test,5,0.0,2-Back,1.0,m,Wed Mar 25 2026 09:29:58 GMT-0500 (Central Daylight Time),772558.100000143,047_o_f_n_a.png,I,m,911,5,1,1928.9000000953674,770629.2000000477,8099,NNB,A,3
4,test,5,0.0,2-Back,1.0,m,Wed Mar 25 2026 09:29:58 GMT-0500 (Central Daylight Time),774823.9000000954,041_y_m_n_a.png,I,m,1243,6,1,2262.4000000953674,772561.5,8099,NNB,A,4
5,test,5,0.0,2-Back,1.0,m,Wed Mar 25 2026 09:29:58 GMT-0500 (Central Daylight Time),776973.2999999523,010_y_f_n_a.png,I,m,1121,7,1,2145.7999999523163,774827.5,8099,NNB,A,5
6,test,5,0.0,2-Back,1.0,m,Wed Mar 25 2026 09:29:58 GMT-0500 (Central Daylight Time),779356.100000143,047_o_f_n_a.png,I,m,1355,8,1,2378.800000190735,776977.2999999523,8099,NNB,A,6
7,test,5,1.0,2-Back,1.0,z,Wed Mar 25 2026 09:29:58 GMT-0500 (Central Daylight Time),781121.9000000954,010_y_f_n_a.png,I,z,741,9,1,1762.1000001430511,779359.7999999523,8099,NNB,A,7
8,test,5,0.0,2-Back,1.0,m,Wed Mar 25 2026 09:29:58 GMT-0500 (Central Daylight Time),783271.2000000477,046_o_m_n_a.png,I,m,1118,10,1,2145.5,781125.7000000477,8099,NNB,A,8
9,test,5,0.0,2-Back,1.0,m,Wed Mar 25 2026 09:29:58 GMT-0500 (Central Daylight Time),785970.600000143,043_m_f_n_a.png,I,m,1673,11,1,2695.600000143051,783275.0,8099,NNB,A,9
10,test,5,0.0,2-Back,1.0,m,Wed Mar 25 2026 09:29:58 GMT-0500 (Central Daylight Time),787786.2000000477,058_m_m_n_a.png,I,m,798,12,1,1811.7999999523163,785974.4000000954,8099,NNB,A,10
11,test,5,0.0,2-Back,1.0,m,Wed Mar 25 2026 09:29:58 GMT-0500 (Central Daylight Time),789736.0,046_o_m_n_a.png,I,m,919,13,1,1946.0,787790.0,8099,NNB,A,11
11,test,5,1.0,2-Back,0.0,z,Wed Mar 25 2026 09:29:58 GMT-0500 (Central Daylight Time),791485.2999999523,058_m_m_n_a.png,I,m,720,14,1,1745.7999999523163,789739.5,8099,NNB,A,12
12,test,5,0.0,2-Back,1.0,m,Wed Mar 25 2026 09:29:58 GMT-0500 (Central Daylight Time),793251.600000143,063_y_f_n_a.png,I,m,746,15,1,1762.0,791489.600000143,8099,NNB,A,13
13,test,5,0.0,2-Back,1.0,m,Wed Mar 25 2026 09:29:58 GMT-0500 (Central Daylight Time),794968.0,053_o_m_n_a.png,I,m,685,16,1,1712.2999999523163,793255.7000000477,8099,NNB,A,14
14,test,5,0.0,2-Back,1.0,m,Wed Mar 25 2026 09:29:58 GMT-0500 (Central Daylight Time),796650.2000000477,043_m_f_n_a.png,I,m,666,17,1,1677.9000000953674,794972.2999999523,8099,NNB,A,15
15,test,5,1.0,2-Back,1.0,z,Wed Mar 25 2026 09:29:58 GMT-0500 (Central Daylight Time),798383.2000000477,053_o_m_n_a.png,I,z,710,18,1,1729.9000000953674,796653.2999999523,8099,NNB,A,16
