block_c,block_dur,condition,countdown,datetime,endtime,list,multichar_response,project,response,response_time,session_number,start_end,starttime,subject_id,task,task_vers,trial
,,,,Thu Aug 14 2025 10:01:13 GMT-0500 (Central Daylight Time),,,,O,space,666,1,,,7055,WL,A,
prac,,0,,Thu Aug 14 2025 10:01:13 GMT-0500 (Central Daylight Time),,NA,b,O,b,2943,1,,,7055,WL,A,1.0
prac,,0,,Thu Aug 14 2025 10:01:13 GMT-0500 (Central Daylight Time),,NA,bo,O,o,268,1,,,7055,WL,A,1.0
prac,,0,,Thu Aug 14 2025 10:01:13 GMT-0500 (Central Daylight Time),,NA,boo,O,o,146,1,,,7055,WL,A,1.0
prac,,0,,Thu Aug 14 2025 10:01:13 GMT-0500 (Central Daylight Time),,NA,boos,O,s,282,1,,,7055,WL,A,1.0
prac,,0,,Thu Aug 14 2025 10:01:13 GMT-0500 (Central Daylight Time),,NA,boost,O,t,157,1,,,7055,WL,A,1.0
prac,,0,,Thu Aug 14 2025 10:01:13 GMT-0500 (Central Daylight Time),,NA,boostenter,O,enter,685,1,,,7055,WL,A,1.0
1,0.8650000095367432,learn,59134.99999046326,Thu Aug 14 2025 10:01:13 GMT-0500 (Central Daylight Time),149847.39999997616,A,f,O,f,854,1,864.1999999880791,148983.19999998808,7055,WL,A,1.0
1,0.9650001525878906,learn,59034.99984741211,Thu Aug 14 2025 10:01:13 GMT-0500 (Central Daylight Time),149947.39999997616,A,fl,O,l,78,1,964.1999999880791,148983.19999998808,7055,WL,A,1.0
1,1.1649999618530273,learn,58835.00003814697,Thu Aug 14 2025 10:01:13 GMT-0500 (Central Daylight Time),150147.69999998808,A,flo,O,o,179,1,1164.5,148983.19999998808,7055,WL,A,1.0
1,1.433000087738037,learn,58566.99991226196,Thu Aug 14 2025 10:01:13 GMT-0500 (Central Daylight Time),150415.5,A,flow,O,w,261,1,1432.300000011921,148983.19999998808,7055,WL,A,1.0
1,1.567000150680542,learn,58432.99984931946,Thu Aug 14 2025 10:01:13 GMT-0500 (Central Daylight Time),150549.5,A,flowe,O,e,118,1,1566.300000011921,148983.19999998808,7055,WL,A,1.0
1,1.681999921798706,learn,58318.000078201294,Thu Aug 14 2025 10:01:13 GMT-0500 (Central Daylight Time),150664.69999998808,A,flower,O,r,104,1,1681.5,148983.19999998808,7055,WL,A,1.0
1,1.9470000267028809,learn,58052.99997329712,Thu Aug 14 2025 10:01:13 GMT-0500 (Central Daylight Time),150929.59999996424,A,flowerenter,O,enter,253,1,1946.3999999761581,148983.19999998808,7055,WL,A,1.0
1,2.4160001277923584,learn,57583.99987220764,Thu Aug 14 2025 10:01:13 GMT-0500 (Central Daylight Time),151398.59999996424,A,r,O,r,452,1,468.5999999642372,150930.0,7055,WL,A,2.0
1,2.5480000972747803,learn,57451.99990272522,Thu Aug 14 2025 10:01:13 GMT-0500 (Central Daylight Time),151530.80000001192,A,ru,O,u,112,1,600.8000000119209,150930.0,7055,WL,A,2.0
1,3.248000144958496,learn,56751.999855041504,Thu Aug 14 2025 10:01:13 GMT-0500 (Central Daylight Time),152230.39999997616,A,rug,O,g,682,1,1300.3999999761581,150930.0,7055,WL,A,2.0
1,3.447999954223633,learn,56552.00004577637,Thu Aug 14 2025 10:01:13 GMT-0500 (Central Daylight Time),152430.39999997616,A,rugenter,O,enter,178,1,1500.3999999761581,150930.0,7055,WL,A,2.0
1,4.031000137329102,learn,55968.9998626709,Thu Aug 14 2025 10:01:13 GMT-0500 (Central Daylight Time),153013.69999998808,A,b,O,b,568,1,583.0,152430.69999998808,7055,WL,A,3.0
1,4.114000082015991,learn,55885.99991798401,Thu Aug 14 2025 10:01:13 GMT-0500 (Central Daylight Time),153096.5,A,bo,O,o,65,1,665.8000000119209,152430.69999998808,7055,WL,A,3.0
1,4.296999931335449,learn,55703.00006866455,Thu Aug 14 2025 10:01:13 GMT-0500 (Central Daylight Time),153280.0,A,boo,O,o,165,1,849.3000000119209,152430.69999998808,7055,WL,A,3.0
1,4.46399998664856,learn,55536.00001335144,Thu Aug 14 2025 10:01:13 GMT-0500 (Central Daylight Time),153447.19999998808,A,book,O,k,163,1,1016.5,152430.69999998808,7055,WL,A,3.0
1,4.831000089645386,learn,55168.999910354614,Thu Aug 14 2025 10:01:13 GMT-0500 (Central Daylight Time),153813.19999998808,A,bookenter,O,enter,350,1,1382.5,152430.69999998808,7055,WL,A,3.0
1,5.166000127792358,learn,54833.99987220764,Thu Aug 14 2025 10:01:13 GMT-0500 (Central Daylight Time),154149.09999996424,A,t,O,t,314,1,335.5,153813.59999996424,7055,WL,A,4.0
1,5.3459999561309814,learn,54654.00004386902,Thu Aug 14 2025 10:01:13 GMT-0500 (Central Daylight Time),154328.69999998808,A,tr,O,r,168,1,515.1000000238419,153813.59999996424,7055,WL,A,4.0
1,5.46399998664856,learn,54536.00001335144,Thu Aug 14 2025 10:01:13 GMT-0500 (Central Daylight Time),154446.80000001192,A,tra,O,a,97,1,633.2000000476837,153813.59999996424,7055,WL,A,4.0
1,5.614000082015991,learn,54385.99991798401,Thu Aug 14 2025 10:01:13 GMT-0500 (Central Daylight Time),154596.5,A,trai,O,i,125,1,782.9000000357628,153813.59999996424,7055,WL,A,4.0
1,5.730999946594238,learn,54269.00005340576,Thu Aug 14 2025 10:01:13 GMT-0500 (Central Daylight Time),154714.0,A,train,O,n,97,1,900.4000000357628,153813.59999996424,7055,WL,A,4.0
1,6.246999979019165,learn,53753.000020980835,Thu Aug 14 2025 10:01:13 GMT-0500 (Central Daylight Time),155229.59999996424,A,trainenter,O,enter,493,1,1416.0,153813.59999996424,7055,WL,A,4.0
1,8.378999948501587,learn,51621.00005149841,Thu Aug 14 2025 10:01:13 GMT-0500 (Central Daylight Time),157361.69999998808,A,l,O,l,2120,1,2131.800000011921,155229.89999997616,7055,WL,A,5.0
1,8.578999996185303,learn,51421.0000038147,Thu Aug 14 2025 10:01:13 GMT-0500 (Central Daylight Time),157561.39999997616,A,lo,O,o,191,1,2331.5,155229.89999997616,7055,WL,A,5.0
1,8.979000091552734,learn,51020.999908447266,Thu Aug 14 2025 10:01:13 GMT-0500 (Central Daylight Time),157962.0,A,log,O,g,381,1,2732.100000023842,155229.89999997616,7055,WL,A,5.0
1,9.128999948501587,learn,50871.00005149841,Thu Aug 14 2025 10:01:13 GMT-0500 (Central Daylight Time),158111.5,A,logenter,O,enter,139,1,2881.600000023842,155229.89999997616,7055,WL,A,5.0
1,11.078999996185303,learn,48921.0000038147,Thu Aug 14 2025 10:01:13 GMT-0500 (Central Daylight Time),160061.59999996424,A,m,O,m,1929,1,1949.7999999523163,158111.80000001192,7055,WL,A,6.0
1,11.16100001335144,learn,48838.99998664856,Thu Aug 14 2025 10:01:13 GMT-0500 (Central Daylight Time),160143.80000001192,A,me,O,e,74,1,2032.0,158111.80000001192,7055,WL,A,6.0
1,11.57800006866455,learn,48421.99993133545,Thu Aug 14 2025 10:01:13 GMT-0500 (Central Daylight Time),160560.69999998808,A,mea,O,a,407,1,2448.899999976158,158111.80000001192,7055,WL,A,6.0
1,11.84500002861023,learn,48154.99997138977,Thu Aug 14 2025 10:01:13 GMT-0500 (Central Daylight Time),160827.5,A,mead,O,d,246,1,2715.699999988079,158111.80000001192,7055,WL,A,6.0
1,11.977999925613403,learn,48022.0000743866,Thu Aug 14 2025 10:01:13 GMT-0500 (Central Daylight Time),160960.89999997616,A,meado,O,o,122,1,2849.099999964237,158111.80000001192,7055,WL,A,6.0
1,12.128000020980835,learn,47871.999979019165,Thu Aug 14 2025 10:01:13 GMT-0500 (Central Daylight Time),161110.39999997616,A,meadow,O,w,133,1,2998.599999964237,158111.80000001192,7055,WL,A,6.0
1,12.544000148773193,learn,47455.99985122681,Thu Aug 14 2025 10:01:13 GMT-0500 (Central Daylight Time),161527.09999996424,A,meadowenter,O,enter,410,1,3415.2999999523163,158111.80000001192,7055,WL,A,6.0
1,13.76200008392334,learn,46237.99991607666,Thu Aug 14 2025 10:01:13 GMT-0500 (Central Daylight Time),162744.5,A,g,O,g,1200,1,1217.199999988079,161527.30000001192,7055,WL,A,7.0
1,13.84500002861023,learn,46154.99997138977,Thu Aug 14 2025 10:01:13 GMT-0500 (Central Daylight Time),162827.39999997616,A,go,O,o,60,1,1300.0999999642372,161527.30000001192,7055,WL,A,7.0
1,14.128000020980835,learn,45871.999979019165,Thu Aug 14 2025 10:01:13 GMT-0500 (Central Daylight Time),163110.30000001192,A,gol,O,l,259,1,1583.0,161527.30000001192,7055,WL,A,7.0
1,14.24399995803833,learn,45756.00004196167,Thu Aug 14 2025 10:01:13 GMT-0500 (Central Daylight Time),163226.19999998808,A,gold,O,d,104,1,1698.8999999761581,161527.30000001192,7055,WL,A,7.0
1,14.427000045776367,learn,45572.99995422363,Thu Aug 14 2025 10:01:13 GMT-0500 (Central Daylight Time),163409.69999998808,A,goldenter,O,enter,164,1,1882.3999999761581,161527.30000001192,7055,WL,A,7.0
1,28.67300009727478,learn,31326.99990272522,Thu Aug 14 2025 10:01:13 GMT-0500 (Central Daylight Time),177655.59999996424,A,f,O,f,14225,1,14245.599999964237,163410.0,7055,WL,A,8.0
1,28.73900008201599,learn,31260.99991798401,Thu Aug 14 2025 10:01:13 GMT-0500 (Central Daylight Time),177721.80000001192,A,fl,O,l,54,1,14311.800000011921,163410.0,7055,WL,A,8.0
1,28.94099998474121,learn,31059.00001525879,Thu Aug 14 2025 10:01:13 GMT-0500 (Central Daylight Time),177923.69999998808,A,flo,O,o,179,1,14513.699999988079,163410.0,7055,WL,A,8.0
1,29.006999969482422,learn,30993.000030517578,Thu Aug 14 2025 10:01:13 GMT-0500 (Central Daylight Time),177990.09999996424,A,flow,O,w,43,1,14580.099999964237,163410.0,7055,WL,A,8.0
1,29.34000015258789,learn,30659.99984741211,Thu Aug 14 2025 10:01:13 GMT-0500 (Central Daylight Time),178322.80000001192,A,flowe,O,e,312,1,14912.800000011921,163410.0,7055,WL,A,8.0
1,29.457000017166138,learn,30542.999982833862,Thu Aug 14 2025 10:01:13 GMT-0500 (Central Daylight Time),178439.89999997616,A,flower,O,r,110,1,15029.899999976158,163410.0,7055,WL,A,8.0
1,29.638999938964844,learn,30361.000061035156,Thu Aug 14 2025 10:01:13 GMT-0500 (Central Daylight Time),178622.0,A,flowerenter,O,enter,161,1,15212.0,163410.0,7055,WL,A,8.0
1,33.63800001144409,learn,26361.99998855591,Thu Aug 14 2025 10:01:13 GMT-0500 (Central Daylight Time),182620.39999997616,A,c,O,c,3985,1,3998.099999964237,178622.30000001192,7055,WL,A,9.0
1,33.72000002861023,learn,26279.99997138977,Thu Aug 14 2025 10:01:13 GMT-0500 (Central Daylight Time),182703.19999998808,A,ch,O,h,65,1,4080.899999976158,178622.30000001192,7055,WL,A,9.0
1,34.28999996185303,learn,25710.000038146973,Thu Aug 14 2025 10:01:13 GMT-0500 (Central Daylight Time),183272.89999997616,A,chi,O,i,551,1,4650.599999964237,178622.30000001192,7055,WL,A,9.0
1,34.5220000743866,learn,25477.999925613403,Thu Aug 14 2025 10:01:13 GMT-0500 (Central Daylight Time),183505.30000001192,A,chim,O,m,213,1,4883.0,178622.30000001192,7055,WL,A,9.0
1,34.871999979019165,learn,25128.000020980835,Thu Aug 14 2025 10:01:13 GMT-0500 (Central Daylight Time),183854.69999998808,A,chimn,O,n,344,1,5232.399999976158,178622.30000001192,7055,WL,A,9.0
1,34.97000002861023,learn,25029.99997138977,Thu Aug 14 2025 10:01:13 GMT-0500 (Central Daylight Time),183953.19999998808,A,chimne,O,e,80,1,5330.899999976158,178622.30000001192,7055,WL,A,9.0
1,35.204999923706055,learn,24795.000076293945,Thu Aug 14 2025 10:01:13 GMT-0500 (Central Daylight Time),184188.19999998808,A,chimney,O,y,211,1,5565.899999976158,178622.30000001192,7055,WL,A,9.0
1,35.63800001144409,learn,24361.99998855591,Thu Aug 14 2025 10:01:13 GMT-0500 (Central Daylight Time),184621.09999996424,A,chimneyenter,O,enter,411,1,5998.799999952316,178622.30000001192,7055,WL,A,9.0
1,39.13499999046326,learn,20865.000009536743,Thu Aug 14 2025 10:01:13 GMT-0500 (Central Daylight Time),188117.89999997616,A,enter,O,enter,3477,1,3496.599999964237,184621.30000001192,7055,WL,A,10.0
1,39.47000002861023,learn,20529.99997138977,Thu Aug 14 2025 10:01:13 GMT-0500 (Central Daylight Time),188453.09999996424,A,enter,O,enter,315,1,334.89999997615814,188118.19999998808,7055,WL,A,11.0
1,39.986000061035156,learn,20013.999938964844,Thu Aug 14 2025 10:01:13 GMT-0500 (Central Daylight Time),188968.89999997616,A,enter,O,enter,507,1,515.5,188453.39999997616,7055,WL,A,12.0
1,40.43600010871887,learn,19563.999891281128,Thu Aug 14 2025 10:01:13 GMT-0500 (Central Daylight Time),189419.19999998808,A,enter,O,enter,439,1,449.89999997615814,188969.30000001192,7055,WL,A,13.0
1,40.986000061035156,learn,19013.999938964844,Thu Aug 14 2025 10:01:13 GMT-0500 (Central Daylight Time),189969.0,A,enter,O,enter,532,1,549.5,189419.5,7055,WL,A,14.0
1,41.76900005340576,learn,18230.99994659424,Thu Aug 14 2025 10:01:13 GMT-0500 (Central Daylight Time),190752.09999996424,A,enter,O,enter,766,1,782.7999999523163,189969.30000001192,7055,WL,A,15.0
2,0.6510000228881836,learn,59348.99997711182,Thu Aug 14 2025 10:01:13 GMT-0500 (Central Daylight Time),258546.89999997616,A,f,O,f,633,1,651.0999999642372,257895.80000001192,7055,WL,A,1.0
2,0.7170000076293945,learn,59282.999992370605,Thu Aug 14 2025 10:01:13 GMT-0500 (Central Daylight Time),258612.89999997616,A,fl,O,l,49,1,717.0999999642372,257895.80000001192,7055,WL,A,1.0
2,0.9169998168945312,learn,59083.00018310547,Thu Aug 14 2025 10:01:13 GMT-0500 (Central Daylight Time),258813.0,A,flo,O,o,189,1,917.1999999880791,257895.80000001192,7055,WL,A,1.0
2,0.9830000400543213,learn,59016.99995994568,Thu Aug 14 2025 10:01:13 GMT-0500 (Central Daylight Time),258878.89999997616,A,flow,O,w,57,1,983.0999999642372,257895.80000001192,7055,WL,A,1.0
2,1.2009999752044678,learn,58799.00002479553,Thu Aug 14 2025 10:01:13 GMT-0500 (Central Daylight Time),259096.89999997616,A,flowe,O,e,210,1,1201.0999999642372,257895.80000001192,7055,WL,A,1.0
2,1.3499999046325684,learn,58650.00009536743,Thu Aug 14 2025 10:01:13 GMT-0500 (Central Daylight Time),259245.80000001192,A,flower,O,r,134,1,1350.0,257895.80000001192,7055,WL,A,1.0
2,1.6329998970031738,learn,58367.000102996826,Thu Aug 14 2025 10:01:13 GMT-0500 (Central Daylight Time),259529.39999997616,A,flowerenter,O,enter,270,1,1633.5999999642372,257895.80000001192,7055,WL,A,1.0
2,2.0339999198913574,learn,57966.00008010864,Thu Aug 14 2025 10:01:13 GMT-0500 (Central Daylight Time),259929.69999998808,A,b,O,b,382,1,400.10000002384186,259529.59999996424,7055,WL,A,2.0
2,2.0820000171661377,learn,57917.99998283386,Thu Aug 14 2025 10:01:13 GMT-0500 (Central Daylight Time),259977.89999997616,A,bo,O,o,37,1,448.30000001192093,259529.59999996424,7055,WL,A,2.0
2,2.25,learn,57750.0,Thu Aug 14 2025 10:01:13 GMT-0500 (Central Daylight Time),260145.80000001192,A,boo,O,o,157,1,616.2000000476837,259529.59999996424,7055,WL,A,2.0
2,2.4670000076293945,learn,57532.999992370605,Thu Aug 14 2025 10:01:13 GMT-0500 (Central Daylight Time),260362.59999996424,A,book,O,k,205,1,833.0,259529.59999996424,7055,WL,A,2.0
2,2.9169998168945312,learn,57083.00018310547,Thu Aug 14 2025 10:01:13 GMT-0500 (Central Daylight Time),260813.39999997616,A,bookenter,O,enter,438,1,1283.800000011921,259529.59999996424,7055,WL,A,2.0
2,3.366999864578247,learn,56633.00013542175,Thu Aug 14 2025 10:01:13 GMT-0500 (Central Daylight Time),261263.39999997616,A,m,O,m,444,1,449.80000001192093,260813.59999996424,7055,WL,A,3.0
2,3.498999834060669,learn,56501.00016593933,Thu Aug 14 2025 10:01:13 GMT-0500 (Central Daylight Time),261395.59999996424,A,me,O,e,118,1,582.0,260813.59999996424,7055,WL,A,3.0
2,4.164000034332275,learn,55835.999965667725,Thu Aug 14 2025 10:01:13 GMT-0500 (Central Daylight Time),262060.30000001192,A,mea,O,a,642,1,1246.7000000476837,260813.59999996424,7055,WL,A,3.0
2,4.398999929428101,learn,55601.0000705719,Thu Aug 14 2025 10:01:13 GMT-0500 (Central Daylight Time),262295.09999996424,A,mead,O,d,228,1,1481.5,260813.59999996424,7055,WL,A,3.0
2,5.016000032424927,learn,54983.99996757507,Thu Aug 14 2025 10:01:13 GMT-0500 (Central Daylight Time),262912.1999999881,A,meadp,O,p,611,1,2098.600000023842,260813.59999996424,7055,WL,A,3.0
2,5.264999866485596,learn,54735.000133514404,Thu Aug 14 2025 10:01:13 GMT-0500 (Central Daylight Time),263160.6999999881,A,meadpw,O,w,230,1,2347.100000023842,260813.59999996424,7055,WL,A,3.0
2,5.73199987411499,learn,54268.00012588501,Thu Aug 14 2025 10:01:13 GMT-0500 (Central Daylight Time),263627.6999999881,A,meadp,O,backspace,453,1,2814.100000023842,260813.59999996424,7055,WL,A,3.0
2,5.901000022888184,learn,54098.99997711182,Thu Aug 14 2025 10:01:13 GMT-0500 (Central Daylight Time),263796.59999996424,A,mead,O,backspace,149,1,2983.0,260813.59999996424,7055,WL,A,3.0
2,6.73199987411499,learn,53268.00012588501,Thu Aug 14 2025 10:01:13 GMT-0500 (Central Daylight Time),264627.89999997616,A,meado,O,o,810,1,3814.300000011921,260813.59999996424,7055,WL,A,3.0
2,6.832000017166138,learn,53167.99998283386,Thu Aug 14 2025 10:01:13 GMT-0500 (Central Daylight Time),264728.39999997616,A,meadow,O,w,91,1,3914.800000011921,260813.59999996424,7055,WL,A,3.0
2,7.047999858856201,learn,52952.0001411438,Thu Aug 14 2025 10:01:13 GMT-0500 (Central Daylight Time),264944.39999997616,A,meadowenter,O,enter,199,1,4130.800000011921,260813.59999996424,7055,WL,A,3.0
2,7.615000009536743,learn,52384.99999046326,Thu Aug 14 2025 10:01:13 GMT-0500 (Central Daylight Time),265511.3000000119,A,r,O,r,562,1,566.6000000238419,264944.6999999881,7055,WL,A,4.0
2,7.781999826431274,learn,52218.000173568726,Thu Aug 14 2025 10:01:13 GMT-0500 (Central Daylight Time),265677.59999996424,A,ru,O,u,145,1,732.8999999761581,264944.6999999881,7055,WL,A,4.0
2,8.230999946594238,learn,51769.00005340576,Thu Aug 14 2025 10:01:13 GMT-0500 (Central Daylight Time),266127.3000000119,A,rug,O,g,430,1,1182.6000000238419,264944.6999999881,7055,WL,A,4.0
2,9.313999891281128,learn,50686.00010871887,Thu Aug 14 2025 10:01:13 GMT-0500 (Central Daylight Time),267210.0,A,rugenter,O,enter,1073,1,2265.300000011921,264944.6999999881,7055,WL,A,4.0
2,10.44700002670288,learn,49552.99997329712,Thu Aug 14 2025 10:01:13 GMT-0500 (Central Daylight Time),268343.39999997616,A,k,O,k,1113,1,1133.199999988079,267210.1999999881,7055,WL,A,5.0
2,10.54699993133545,learn,49453.00006866455,Thu Aug 14 2025 10:01:13 GMT-0500 (Central Daylight Time),268443.3000000119,A,ke,O,e,78,1,1233.1000000238419,267210.1999999881,7055,WL,A,5.0
2,10.766000032424927,learn,49233.99996757507,Thu Aug 14 2025 10:01:13 GMT-0500 (Central Daylight Time),268661.59999996424,A,key,O,y,194,1,1451.3999999761581,267210.1999999881,7055,WL,A,5.0
2,11.129999876022339,learn,48870.00012397766,Thu Aug 14 2025 10:01:13 GMT-0500 (Central Daylight Time),269026.3000000119,A,keyenter,O,enter,353,1,1816.1000000238419,267210.1999999881,7055,WL,A,5.0
2,11.54699993133545,learn,48453.00006866455,Thu Aug 14 2025 10:01:13 GMT-0500 (Central Daylight Time),269443.09999996424,A,s,O,s,406,1,416.39999997615814,269026.6999999881,7055,WL,A,6.0
2,11.63100004196167,learn,48368.99995803833,Thu Aug 14 2025 10:01:13 GMT-0500 (Central Daylight Time),269527.09999996424,A,sa,O,a,79,1,500.39999997615814,269026.6999999881,7055,WL,A,6.0
2,11.846999883651733,learn,48153.00011634827,Thu Aug 14 2025 10:01:13 GMT-0500 (Central Daylight Time),269742.6999999881,A,sal,O,l,200,1,716.0,269026.6999999881,7055,WL,A,6.0
2,12.146999835968018,learn,47853.00016403198,Thu Aug 14 2025 10:01:13 GMT-0500 (Central Daylight Time),270042.89999997616,A,salt,O,t,288,1,1016.1999999880791,269026.6999999881,7055,WL,A,6.0
2,12.345999956130981,learn,47654.00004386902,Thu Aug 14 2025 10:01:13 GMT-0500 (Central Daylight Time),270242.09999996424,A,saltenter,O,enter,180,1,1215.3999999761581,269026.6999999881,7055,WL,A,6.0
2,12.730000019073486,learn,47269.999980926514,Thu Aug 14 2025 10:01:13 GMT-0500 (Central Daylight Time),270626.09999996424,A,a,O,a,365,1,383.7999999523163,270242.3000000119,7055,WL,A,7.0
2,12.846999883651733,learn,47153.00011634827,Thu Aug 14 2025 10:01:13 GMT-0500 (Central Daylight Time),270743.0,A,ap,O,p,99,1,500.69999998807907,270242.3000000119,7055,WL,A,7.0
2,13.02999997138977,learn,46970.00002861023,Thu Aug 14 2025 10:01:13 GMT-0500 (Central Daylight Time),270926.1999999881,A,app,O,p,160,1,683.8999999761581,270242.3000000119,7055,WL,A,7.0
2,13.27999997138977,learn,46720.00002861023,Thu Aug 14 2025 10:01:13 GMT-0500 (Central Daylight Time),271175.89999997616,A,appl,O,l,232,1,933.5999999642372,270242.3000000119,7055,WL,A,7.0
2,13.381999969482422,learn,46618.00003051758,Thu Aug 14 2025 10:01:13 GMT-0500 (Central Daylight Time),271277.5,A,apple,O,e,86,1,1035.199999988079,270242.3000000119,7055,WL,A,7.0
2,13.628999948501587,learn,46371.00005149841,Thu Aug 14 2025 10:01:13 GMT-0500 (Central Daylight Time),271524.5,A,appleenter,O,enter,233,1,1282.199999988079,270242.3000000119,7055,WL,A,7.0
2,16.013000011444092,learn,43986.99998855591,Thu Aug 14 2025 10:01:13 GMT-0500 (Central Daylight Time),273909.1999999881,A,l,O,l,2372,1,2384.399999976158,271524.8000000119,7055,WL,A,8.0
2,16.17899990081787,learn,43821.00009918213,Thu Aug 14 2025 10:01:13 GMT-0500 (Central Daylight Time),274074.8000000119,A,lo,O,o,156,1,2550.0,271524.8000000119,7055,WL,A,8.0
2,16.378999948501587,learn,43621.00005149841,Thu Aug 14 2025 10:01:13 GMT-0500 (Central Daylight Time),274274.89999997616,A,log,O,g,188,1,2750.099999964237,271524.8000000119,7055,WL,A,8.0
2,17.461999893188477,learn,42538.00010681152,Thu Aug 14 2025 10:01:13 GMT-0500 (Central Daylight Time),275358.09999996424,A,logenter,O,enter,1063,1,3833.2999999523163,271524.8000000119,7055,WL,A,8.0
2,23.677000045776367,learn,36322.99995422363,Thu Aug 14 2025 10:01:13 GMT-0500 (Central Daylight Time),281572.8000000119,A,t,O,t,6201,1,6214.5,275358.3000000119,7055,WL,A,9.0
2,24.342999935150146,learn,35657.00006484985,Thu Aug 14 2025 10:01:13 GMT-0500 (Central Daylight Time),282238.89999997616,A,,O,backspace,650,1,6880.599999964237,275358.3000000119,7055,WL,A,9.0
2,24.57699990272522,learn,35423.00009727478,Thu Aug 14 2025 10:01:13 GMT-0500 (Central Daylight Time),282472.8000000119,A,r,O,r,216,1,7114.5,275358.3000000119,7055,WL,A,9.0
2,24.675999879837036,learn,35324.000120162964,Thu Aug 14 2025 10:01:13 GMT-0500 (Central Daylight Time),282572.0,A,ra,O,a,79,1,7213.699999988079,275358.3000000119,7055,WL,A,9.0
2,24.944000005722046,learn,35055.999994277954,Thu Aug 14 2025 10:01:13 GMT-0500 (Central Daylight Time),282839.59999996424,A,rat,O,t,250,1,7481.299999952316,275358.3000000119,7055,WL,A,9.0
2,25.158999919891357,learn,34841.00008010864,Thu Aug 14 2025 10:01:13 GMT-0500 (Central Daylight Time),283055.09999996424,A,ratt,O,t,198,1,7696.799999952316,275358.3000000119,7055,WL,A,9.0
2,25.276000022888184,learn,34723.99997711182,Thu Aug 14 2025 10:01:13 GMT-0500 (Central Daylight Time),283172.1999999881,A,rattl,O,l,94,1,7813.899999976158,275358.3000000119,7055,WL,A,9.0
2,25.39299988746643,learn,34607.00011253357,Thu Aug 14 2025 10:01:13 GMT-0500 (Central Daylight Time),283288.5,A,rattle,O,e,98,1,7930.199999988079,275358.3000000119,7055,WL,A,9.0
2,25.8439998626709,learn,34156.0001373291,Thu Aug 14 2025 10:01:13 GMT-0500 (Central Daylight Time),283740.39999997616,A,rattlec,O,c,444,1,8382.099999964237,275358.3000000119,7055,WL,A,9.0
2,25.941999912261963,learn,34058.00008773804,Thu Aug 14 2025 10:01:13 GMT-0500 (Central Daylight Time),283838.39999997616,A,rattlech,O,h,82,1,8480.099999964237,275358.3000000119,7055,WL,A,9.0
2,26.05999994277954,learn,33940.00005722046,Thu Aug 14 2025 10:01:13 GMT-0500 (Central Daylight Time),283956.0,A,rattlechi,O,i,97,1,8597.699999988079,275358.3000000119,7055,WL,A,9.0
2,26.575999975204468,learn,33424.00002479553,Thu Aug 14 2025 10:01:13 GMT-0500 (Central Daylight Time),284471.8000000119,A,rattlech,O,backspace,498,1,9113.5,275358.3000000119,7055,WL,A,9.0
2,26.743000030517578,learn,33256.99996948242,Thu Aug 14 2025 10:01:13 GMT-0500 (Central Daylight Time),284638.89999997616,A,rattlec,O,backspace,145,1,9280.599999964237,275358.3000000119,7055,WL,A,9.0
2,26.89299988746643,learn,33107.00011253357,Thu Aug 14 2025 10:01:13 GMT-0500 (Central Daylight Time),284789.09999996424,A,rattle,O,backspace,128,1,9430.799999952316,275358.3000000119,7055,WL,A,9.0
2,27.62399983406067,learn,32376.00016593933,Thu Aug 14 2025 10:01:13 GMT-0500 (Central Daylight Time),285520.0,A,rattleenter,O,enter,721,1,10161.699999988079,275358.3000000119,7055,WL,A,9.0
2,28.191999912261963,learn,31808.000087738037,Thu Aug 14 2025 10:01:13 GMT-0500 (Central Daylight Time),286087.6999999881,A,c,O,c,554,1,567.5,285520.1999999881,7055,WL,A,10.0
2,28.307999849319458,learn,31692.000150680542,Thu Aug 14 2025 10:01:13 GMT-0500 (Central Daylight Time),286204.09999996424,A,ch,O,h,103,1,683.8999999761581,285520.1999999881,7055,WL,A,10.0
2,28.45899987220764,learn,31541.00012779236,Thu Aug 14 2025 10:01:13 GMT-0500 (Central Daylight Time),286354.6999999881,A,chi,O,i,131,1,834.5,285520.1999999881,7055,WL,A,10.0
2,28.657999992370605,learn,31342.000007629395,Thu Aug 14 2025 10:01:13 GMT-0500 (Central Daylight Time),286553.6999999881,A,chim,O,m,188,1,1033.5,285520.1999999881,7055,WL,A,10.0
2,29.407999992370605,learn,30592.000007629395,Thu Aug 14 2025 10:01:13 GMT-0500 (Central Daylight Time),287304.3000000119,A,chimn,O,n,744,1,1784.1000000238419,285520.1999999881,7055,WL,A,10.0
2,29.524999856948853,learn,30475.000143051147,Thu Aug 14 2025 10:01:13 GMT-0500 (Central Daylight Time),287420.6999999881,A,chimne,O,e,97,1,1900.5,285520.1999999881,7055,WL,A,10.0
2,29.674000024795532,learn,30325.999975204468,Thu Aug 14 2025 10:01:13 GMT-0500 (Central Daylight Time),287570.3000000119,A,chimney,O,y,137,1,2050.100000023842,285520.1999999881,7055,WL,A,10.0
2,30.073999881744385,learn,29926.000118255615,Thu Aug 14 2025 10:01:13 GMT-0500 (Central Daylight Time),287970.39999997616,A,chimneyenter,O,enter,379,1,2450.199999988079,285520.1999999881,7055,WL,A,10.0
2,34.17400002479553,learn,25825.999975204468,Thu Aug 14 2025 10:01:13 GMT-0500 (Central Daylight Time),292069.5,A,k,O,k,4078,1,4098.900000035763,287970.59999996424,7055,WL,A,11.0
2,34.28999996185303,learn,25710.000038146973,Thu Aug 14 2025 10:01:13 GMT-0500 (Central Daylight Time),292185.59999996424,A,ke,O,e,106,1,4215.0,287970.59999996424,7055,WL,A,11.0
2,34.42400002479553,learn,25575.999975204468,Thu Aug 14 2025 10:01:13 GMT-0500 (Central Daylight Time),292319.8000000119,A,key,O,y,113,1,4349.200000047684,287970.59999996424,7055,WL,A,11.0
2,34.67400002479553,learn,25325.999975204468,Thu Aug 14 2025 10:01:13 GMT-0500 (Central Daylight Time),292570.09999996424,A,keyenter,O,enter,229,1,4599.5,287970.59999996424,7055,WL,A,11.0
2,43.069000005722046,learn,16930.999994277954,Thu Aug 14 2025 10:01:13 GMT-0500 (Central Daylight Time),300965.39999997616,A,enter,O,enter,8382,1,8395.0,292570.39999997616,7055,WL,A,12.0
2,43.353999853134155,learn,16646.000146865845,Thu Aug 14 2025 10:01:13 GMT-0500 (Central Daylight Time),301249.59999996424,A,enter,O,enter,273,1,283.89999997615814,300965.6999999881,7055,WL,A,13.0
2,43.61899995803833,learn,16381.00004196167,Thu Aug 14 2025 10:01:13 GMT-0500 (Central Daylight Time),301515.09999996424,A,enter,O,enter,254,1,265.0999999642372,301250.0,7055,WL,A,14.0
2,44.07099986076355,learn,15929.00013923645,Thu Aug 14 2025 10:01:13 GMT-0500 (Central Daylight Time),301966.8000000119,A,enter,O,enter,436,1,451.4000000357628,301515.39999997616,7055,WL,A,15.0
3,0.7829999923706055,learn,59217.000007629395,Thu Aug 14 2025 10:01:13 GMT-0500 (Central Daylight Time),368877.59999996424,A,f,O,f,777,1,783.0999999642372,368094.5,7055,WL,A,1.0
3,0.8669998645782471,learn,59133.00013542175,Thu Aug 14 2025 10:01:13 GMT-0500 (Central Daylight Time),368961.0,A,fl,O,l,74,1,866.5,368094.5,7055,WL,A,1.0
3,1.0499999523162842,learn,58950.000047683716,Thu Aug 14 2025 10:01:13 GMT-0500 (Central Daylight Time),369143.89999997616,A,flo,O,o,167,1,1049.3999999761581,368094.5,7055,WL,A,1.0
3,1.183000087738037,learn,58816.99991226196,Thu Aug 14 2025 10:01:13 GMT-0500 (Central Daylight Time),369277.6999999881,A,flow,O,w,118,1,1183.199999988079,368094.5,7055,WL,A,1.0
3,1.318000078201294,learn,58681.999921798706,Thu Aug 14 2025 10:01:13 GMT-0500 (Central Daylight Time),369412.09999996424,A,flowe,O,e,123,1,1317.5999999642372,368094.5,7055,WL,A,1.0
3,1.4500000476837158,learn,58549.999952316284,Thu Aug 14 2025 10:01:13 GMT-0500 (Central Daylight Time),369544.59999996424,A,flower,O,r,113,1,1450.0999999642372,368094.5,7055,WL,A,1.0
3,1.6659998893737793,learn,58334.00011062622,Thu Aug 14 2025 10:01:13 GMT-0500 (Central Daylight Time),369760.59999996424,A,flowerenter,O,enter,196,1,1666.0999999642372,368094.5,7055,WL,A,1.0
3,2.0989999771118164,learn,57901.00002288818,Thu Aug 14 2025 10:01:13 GMT-0500 (Central Daylight Time),370193.3000000119,A,b,O,b,415,1,432.5,369760.8000000119,7055,WL,A,2.0
3,2.1670000553131104,learn,57832.99994468689,Thu Aug 14 2025 10:01:13 GMT-0500 (Central Daylight Time),370261.1999999881,A,bo,O,o,44,1,500.39999997615814,369760.8000000119,7055,WL,A,2.0
3,2.3510000705718994,learn,57648.9999294281,Thu Aug 14 2025 10:01:13 GMT-0500 (Central Daylight Time),370444.89999997616,A,boo,O,o,164,1,684.0999999642372,369760.8000000119,7055,WL,A,2.0
3,2.5490000247955322,learn,57450.99997520447,Thu Aug 14 2025 10:01:13 GMT-0500 (Central Daylight Time),370643.6999999881,A,book,O,k,178,1,882.8999999761581,369760.8000000119,7055,WL,A,2.0
3,3.000999927520752,learn,56999.00007247925,Thu Aug 14 2025 10:01:13 GMT-0500 (Central Daylight Time),371095.0,A,bookenter,O,enter,446,1,1334.199999988079,369760.8000000119,7055,WL,A,2.0
3,5.082000017166138,learn,54917.99998283386,Thu Aug 14 2025 10:01:13 GMT-0500 (Central Daylight Time),373175.89999997616,A,m,O,m,2073,1,2080.5,371095.39999997616,7055,WL,A,3.0
3,5.365999937057495,learn,54634.000062942505,Thu Aug 14 2025 10:01:13 GMT-0500 (Central Daylight Time),373460.5,A,me,O,e,262,1,2365.100000023842,371095.39999997616,7055,WL,A,3.0
3,5.499000072479248,learn,54500.99992752075,Thu Aug 14 2025 10:01:13 GMT-0500 (Central Daylight Time),373593.5,A,mea,O,a,123,1,2498.100000023842,371095.39999997616,7055,WL,A,3.0
3,6.0329999923706055,learn,53967.000007629395,Thu Aug 14 2025 10:01:13 GMT-0500 (Central Daylight Time),374127.59999996424,A,meaw,O,w,527,1,3032.199999988079,371095.39999997616,7055,WL,A,3.0
3,6.565999984741211,learn,53434.00001525879,Thu Aug 14 2025 10:01:13 GMT-0500 (Central Daylight Time),374659.89999997616,A,mea,O,backspace,512,1,3564.5,371095.39999997616,7055,WL,A,3.0
3,6.664000034332275,learn,53335.999965667725,Thu Aug 14 2025 10:01:13 GMT-0500 (Central Daylight Time),374758.39999997616,A,meae,O,e,90,1,3663.0,371095.39999997616,7055,WL,A,3.0
3,6.8999998569488525,learn,53100.00014305115,Thu Aug 14 2025 10:01:13 GMT-0500 (Central Daylight Time),374994.0,A,meaeo,O,o,224,1,3898.600000023842,371095.39999997616,7055,WL,A,3.0
3,6.912999868392944,learn,53087.000131607056,Thu Aug 14 2025 10:01:13 GMT-0500 (Central Daylight Time),375006.6999999881,A,meaeop,O,p,3,1,3911.300000011921,371095.39999997616,7055,WL,A,3.0
3,7.38100004196167,learn,52618.99995803833,Thu Aug 14 2025 10:01:13 GMT-0500 (Central Daylight Time),375475.59999996424,A,meaeo,O,backspace,465,1,4380.199999988079,371095.39999997616,7055,WL,A,3.0
3,7.581000089645386,learn,52418.999910354614,Thu Aug 14 2025 10:01:13 GMT-0500 (Central Daylight Time),375675.3000000119,A,meae,O,backspace,179,1,4579.900000035763,371095.39999997616,7055,WL,A,3.0
3,8.315000057220459,learn,51684.99994277954,Thu Aug 14 2025 10:01:13 GMT-0500 (Central Daylight Time),376409.09999996424,A,mea,O,backspace,724,1,5313.699999988079,371095.39999997616,7055,WL,A,3.0
3,8.629999876022339,learn,51370.00012397766,Thu Aug 14 2025 10:01:13 GMT-0500 (Central Daylight Time),376724.6999999881,A,mead,O,d,295,1,5629.300000011921,371095.39999997616,7055,WL,A,3.0
3,9.813999891281128,learn,50186.00010871887,Thu Aug 14 2025 10:01:13 GMT-0500 (Central Daylight Time),377907.89999997616,A,meado,O,o,1156,1,6812.5,371095.39999997616,7055,WL,A,3.0
3,9.86299991607666,learn,50137.00008392334,Thu Aug 14 2025 10:01:13 GMT-0500 (Central Daylight Time),377957.0,A,meadoi,O,i,44,1,6861.600000023842,371095.39999997616,7055,WL,A,3.0
3,10.497999906539917,learn,49502.00009346008,Thu Aug 14 2025 10:01:13 GMT-0500 (Central Daylight Time),378591.8000000119,A,meado,O,backspace,619,1,7496.400000035763,371095.39999997616,7055,WL,A,3.0
3,10.815000057220459,learn,49184.99994277954,Thu Aug 14 2025 10:01:13 GMT-0500 (Central Daylight Time),378909.6999999881,A,meadow,O,w,296,1,7814.300000011921,371095.39999997616,7055,WL,A,3.0
3,11.329999923706055,learn,48670.000076293945,Thu Aug 14 2025 10:01:13 GMT-0500 (Central Daylight Time),379424.3000000119,A,meadowenter,O,enter,505,1,8328.900000035763,371095.39999997616,7055,WL,A,3.0
3,12.096999883651733,learn,47903.00011634827,Thu Aug 14 2025 10:01:13 GMT-0500 (Central Daylight Time),380190.89999997616,A,b,O,b,751,1,766.3999999761581,379424.5,7055,WL,A,4.0
3,12.263000011444092,learn,47736.99998855591,Thu Aug 14 2025 10:01:13 GMT-0500 (Central Daylight Time),380357.39999997616,A,bu,O,u,144,1,932.8999999761581,379424.5,7055,WL,A,4.0
3,12.480000019073486,learn,47519.999980926514,Thu Aug 14 2025 10:01:13 GMT-0500 (Central Daylight Time),380574.3000000119,A,but,O,t,200,1,1149.800000011921,379424.5,7055,WL,A,4.0
3,12.664000034332275,learn,47335.999965667725,Thu Aug 14 2025 10:01:13 GMT-0500 (Central Daylight Time),380757.89999997616,A,butt,O,t,161,1,1333.3999999761581,379424.5,7055,WL,A,4.0
3,12.763000011444092,learn,47236.99998855591,Thu Aug 14 2025 10:01:13 GMT-0500 (Central Daylight Time),380857.3000000119,A,butto,O,o,90,1,1432.800000011921,379424.5,7055,WL,A,4.0
3,12.879999876022339,learn,47120.00012397766,Thu Aug 14 2025 10:01:13 GMT-0500 (Central Daylight Time),380974.3000000119,A,button,O,n,101,1,1549.800000011921,379424.5,7055,WL,A,4.0
3,13.329999923706055,learn,46670.000076293945,Thu Aug 14 2025 10:01:13 GMT-0500 (Central Daylight Time),381423.89999997616,A,buttonl,O,l,442,1,1999.3999999761581,379424.5,7055,WL,A,4.0
3,13.963000059127808,learn,46036.99994087219,Thu Aug 14 2025 10:01:13 GMT-0500 (Central Daylight Time),382057.5,A,button,O,backspace,612,1,2633.0,379424.5,7055,WL,A,4.0
3,14.328999996185303,learn,45671.0000038147,Thu Aug 14 2025 10:01:13 GMT-0500 (Central Daylight Time),382423.5,A,buttonenter,O,enter,347,1,2999.0,379424.5,7055,WL,A,4.0
3,15.562000036239624,learn,44437.999963760376,Thu Aug 14 2025 10:01:13 GMT-0500 (Central Daylight Time),383656.39999997616,A,l,O,l,1216,1,1232.5999999642372,382423.8000000119,7055,WL,A,5.0
3,15.76200008392334,learn,44237.99991607666,Thu Aug 14 2025 10:01:13 GMT-0500 (Central Daylight Time),383856.3000000119,A,lo,O,o,190,1,1432.5,382423.8000000119,7055,WL,A,5.0
3,16.09599995613098,learn,43904.00004386902,Thu Aug 14 2025 10:01:13 GMT-0500 (Central Daylight Time),384190.0,A,log,O,g,319,1,1766.199999988079,382423.8000000119,7055,WL,A,5.0
3,16.59500002861023,learn,43404.99997138977,Thu Aug 14 2025 10:01:13 GMT-0500 (Central Daylight Time),384689.3000000119,A,logenter,O,enter,480,1,2265.5,382423.8000000119,7055,WL,A,5.0
3,18.730000019073486,learn,41269.999980926514,Thu Aug 14 2025 10:01:13 GMT-0500 (Central Daylight Time),386824.59999996424,A,k,O,k,2119,1,2135.099999964237,384689.5,7055,WL,A,6.0
3,18.894999980926514,learn,41105.000019073486,Thu Aug 14 2025 10:01:13 GMT-0500 (Central Daylight Time),386989.59999996424,A,ke,O,e,143,1,2300.099999964237,384689.5,7055,WL,A,6.0
3,19.027999877929688,learn,40972.00012207031,Thu Aug 14 2025 10:01:13 GMT-0500 (Central Daylight Time),387122.0,A,key,O,y,120,1,2432.5,384689.5,7055,WL,A,6.0
3,19.293999910354614,learn,40706.000089645386,Thu Aug 14 2025 10:01:13 GMT-0500 (Central Daylight Time),387388.0,A,keyenter,O,enter,253,1,2698.5,384689.5,7055,WL,A,6.0
3,19.546000003814697,learn,40453.9999961853,Thu Aug 14 2025 10:01:13 GMT-0500 (Central Daylight Time),387639.6999999881,A,s,O,s,246,1,251.39999997615814,387388.3000000119,7055,WL,A,7.0
3,19.644999980926514,learn,40355.000019073486,Thu Aug 14 2025 10:01:13 GMT-0500 (Central Daylight Time),387739.5,A,sa,O,a,76,1,351.19999998807907,387388.3000000119,7055,WL,A,7.0
3,19.84500002861023,learn,40154.99997138977,Thu Aug 14 2025 10:01:13 GMT-0500 (Central Daylight Time),387939.09999996424,A,sal,O,l,179,1,550.7999999523163,387388.3000000119,7055,WL,A,7.0
3,20.42899990081787,learn,39571.00009918213,Thu Aug 14 2025 10:01:13 GMT-0500 (Central Daylight Time),388522.8000000119,A,salt,O,t,561,1,1134.5,387388.3000000119,7055,WL,A,7.0
3,20.710000038146973,learn,39289.99996185303,Thu Aug 14 2025 10:01:13 GMT-0500 (Central Daylight Time),388804.59999996424,A,saltenter,O,enter,261,1,1416.2999999523163,387388.3000000119,7055,WL,A,7.0
3,21.608999967575073,learn,38391.00003242493,Thu Aug 14 2025 10:01:13 GMT-0500 (Central Daylight Time),389703.5,A,h,O,h,882,1,898.6000000238419,388804.89999997616,7055,WL,A,8.0
3,21.694000005722046,learn,38305.999994277954,Thu Aug 14 2025 10:01:13 GMT-0500 (Central Daylight Time),389788.1999999881,A,ha,O,a,61,1,983.3000000119209,388804.89999997616,7055,WL,A,8.0
3,21.877000093460083,learn,38122.99990653992,Thu Aug 14 2025 10:01:13 GMT-0500 (Central Daylight Time),389971.39999997616,A,har,O,r,161,1,1166.5,388804.89999997616,7055,WL,A,8.0
3,22.29699993133545,learn,37703.00006866455,Thu Aug 14 2025 10:01:13 GMT-0500 (Central Daylight Time),390391.0,A,harp,O,p,394,1,1586.1000000238419,388804.89999997616,7055,WL,A,8.0
3,22.70899987220764,learn,37291.00012779236,Thu Aug 14 2025 10:01:13 GMT-0500 (Central Daylight Time),390803.09999996424,A,harpenter,O,enter,397,1,1998.199999988079,388804.89999997616,7055,WL,A,8.0
3,30.191999912261963,learn,29808.000087738037,Thu Aug 14 2025 10:01:13 GMT-0500 (Central Daylight Time),398285.89999997616,A,r,O,r,7462,1,7482.599999964237,390803.3000000119,7055,WL,A,9.0
3,30.2739999294281,learn,29726.0000705719,Thu Aug 14 2025 10:01:13 GMT-0500 (Central Daylight Time),398368.09999996424,A,ru,O,u,72,1,7564.799999952316,390803.3000000119,7055,WL,A,9.0
3,30.509000062942505,learn,29490.999937057495,Thu Aug 14 2025 10:01:13 GMT-0500 (Central Daylight Time),398603.09999996424,A,rug,O,g,213,1,7799.799999952316,390803.3000000119,7055,WL,A,9.0
3,30.756999969482422,learn,29243.000030517578,Thu Aug 14 2025 10:01:13 GMT-0500 (Central Daylight Time),398851.59999996424,A,rugenter,O,enter,235,1,8048.299999952316,390803.3000000119,7055,WL,A,9.0
3,40.08800005912781,learn,19911.999940872192,Thu Aug 14 2025 10:01:13 GMT-0500 (Central Daylight Time),408182.39999997616,A,a,O,a,9310,1,9330.599999964237,398851.8000000119,7055,WL,A,10.0
3,40.22099995613098,learn,19779.00004386902,Thu Aug 14 2025 10:01:13 GMT-0500 (Central Daylight Time),408315.09999996424,A,ap,O,p,121,1,9463.299999952316,398851.8000000119,7055,WL,A,10.0
3,40.4210000038147,learn,19578.999996185303,Thu Aug 14 2025 10:01:13 GMT-0500 (Central Daylight Time),408515.1999999881,A,app,O,p,179,1,9663.399999976158,398851.8000000119,7055,WL,A,10.0
3,40.6729998588562,learn,19327.0001411438,Thu Aug 14 2025 10:01:13 GMT-0500 (Central Daylight Time),408767.1999999881,A,appl,O,l,236,1,9915.399999976158,398851.8000000119,7055,WL,A,10.0
3,40.787999868392944,learn,19212.000131607056,Thu Aug 14 2025 10:01:13 GMT-0500 (Central Daylight Time),408882.1999999881,A,apple,O,e,104,1,10030.399999976158,398851.8000000119,7055,WL,A,10.0
3,40.97199988365173,learn,19028.000116348267,Thu Aug 14 2025 10:01:13 GMT-0500 (Central Daylight Time),409065.8000000119,A,appleenter,O,enter,164,1,10214.0,398851.8000000119,7055,WL,A,10.0
3,45.5699999332428,learn,14430.000066757202,Thu Aug 14 2025 10:01:13 GMT-0500 (Central Daylight Time),413664.59999996424,A,r,O,r,4593,1,4598.5,409066.09999996424,7055,WL,A,11.0
3,45.70199990272522,learn,14298.00009727478,Thu Aug 14 2025 10:01:13 GMT-0500 (Central Daylight Time),413796.39999997616,A,ra,O,a,119,1,4730.300000011921,409066.09999996424,7055,WL,A,11.0
3,45.90299987792969,learn,14097.000122070312,Thu Aug 14 2025 10:01:13 GMT-0500 (Central Daylight Time),413997.09999996424,A,rat,O,t,179,1,4931.0,409066.09999996424,7055,WL,A,11.0
3,46.05399990081787,learn,13946.000099182129,Thu Aug 14 2025 10:01:13 GMT-0500 (Central Daylight Time),414147.89999997616,A,ratt,O,t,128,1,5081.800000011921,409066.09999996424,7055,WL,A,11.0
3,46.18599987030029,learn,13814.000129699707,Thu Aug 14 2025 10:01:13 GMT-0500 (Central Daylight Time),414280.6999999881,A,rattl,O,l,115,1,5214.600000023842,409066.09999996424,7055,WL,A,11.0
3,46.30299997329712,learn,13697.00002670288,Thu Aug 14 2025 10:01:13 GMT-0500 (Central Daylight Time),414397.3000000119,A,rattle,O,e,95,1,5331.200000047684,409066.09999996424,7055,WL,A,11.0
3,46.484999895095825,learn,13515.000104904175,Thu Aug 14 2025 10:01:13 GMT-0500 (Central Daylight Time),414579.3000000119,A,rattleenter,O,enter,167,1,5513.200000047684,409066.09999996424,7055,WL,A,11.0
3,48.21799993515015,learn,11782.000064849854,Thu Aug 14 2025 10:01:13 GMT-0500 (Central Daylight Time),416312.5,A,enter,O,enter,1724,1,1733.0,414579.5,7055,WL,A,12.0
3,48.66799998283386,learn,11332.000017166138,Thu Aug 14 2025 10:01:13 GMT-0500 (Central Daylight Time),416762.39999997616,A,enter,O,enter,439,1,449.5999999642372,416312.8000000119,7055,WL,A,13.0
3,48.91799998283386,learn,11082.000017166138,Thu Aug 14 2025 10:01:13 GMT-0500 (Central Daylight Time),417012.09999996424,A,enter,O,enter,229,1,249.5,416762.59999996424,7055,WL,A,14.0
3,49.318000078201294,learn,10681.999921798706,Thu Aug 14 2025 10:01:13 GMT-0500 (Central Daylight Time),417412.3000000119,A,enter,O,enter,380,1,399.9000000357628,417012.39999997616,7055,WL,A,15.0
4,0.6669998168945312,learn,59333.00018310547,Thu Aug 14 2025 10:01:13 GMT-0500 (Central Daylight Time),482892.8000000119,A,f,O,f,655,1,667.0,482225.8000000119,7055,WL,A,1.0
4,0.7829999923706055,learn,59217.000007629395,Thu Aug 14 2025 10:01:13 GMT-0500 (Central Daylight Time),483008.6999999881,A,fl,O,l,106,1,782.8999999761581,482225.8000000119,7055,WL,A,1.0
4,0.9659998416900635,learn,59034.00015830994,Thu Aug 14 2025 10:01:13 GMT-0500 (Central Daylight Time),483191.39999997616,A,flo,O,o,172,1,965.5999999642372,482225.8000000119,7055,WL,A,1.0
4,1.1319999694824219,learn,58868.00003051758,Thu Aug 14 2025 10:01:13 GMT-0500 (Central Daylight Time),483357.39999997616,A,flow,O,w,158,1,1131.5999999642372,482225.8000000119,7055,WL,A,1.0
4,1.2330000400543213,learn,58766.99995994568,Thu Aug 14 2025 10:01:13 GMT-0500 (Central Daylight Time),483458.3000000119,A,flowe,O,e,80,1,1232.5,482225.8000000119,7055,WL,A,1.0
4,1.3489999771118164,learn,58651.00002288818,Thu Aug 14 2025 10:01:13 GMT-0500 (Central Daylight Time),483574.5,A,flower,O,r,92,1,1348.699999988079,482225.8000000119,7055,WL,A,1.0
4,1.6640000343322754,learn,58335.999965667725,Thu Aug 14 2025 10:01:13 GMT-0500 (Central Daylight Time),483889.89999997616,A,flowerenter,O,enter,304,1,1664.0999999642372,482225.8000000119,7055,WL,A,1.0
4,2.1499998569488525,learn,57850.00014305115,Thu Aug 14 2025 10:01:13 GMT-0500 (Central Daylight Time),484375.09999996424,A,b,O,b,464,1,484.89999997615814,483890.1999999881,7055,WL,A,2.0
4,3.0820000171661377,learn,56917.99998283386,Thu Aug 14 2025 10:01:13 GMT-0500 (Central Daylight Time),485307.59999996424,A,bu,O,u,920,1,1417.3999999761581,483890.1999999881,7055,WL,A,2.0
4,3.1989998817443848,learn,56801.000118255615,Thu Aug 14 2025 10:01:13 GMT-0500 (Central Daylight Time),485424.1999999881,A,but,O,t,100,1,1534.0,483890.1999999881,7055,WL,A,2.0
4,3.363999843597412,learn,56636.00015640259,Thu Aug 14 2025 10:01:13 GMT-0500 (Central Daylight Time),485589.6999999881,A,butt,O,t,148,1,1699.5,483890.1999999881,7055,WL,A,2.0
4,3.4819998741149902,learn,56518.00012588501,Thu Aug 14 2025 10:01:13 GMT-0500 (Central Daylight Time),485707.59999996424,A,butto,O,o,100,1,1817.3999999761581,483890.1999999881,7055,WL,A,2.0
4,3.6489999294281006,learn,56351.0000705719,Thu Aug 14 2025 10:01:13 GMT-0500 (Central Daylight Time),485874.89999997616,A,button,O,n,146,1,1984.699999988079,483890.1999999881,7055,WL,A,2.0
4,4.346999883651733,learn,55653.00011634827,Thu Aug 14 2025 10:01:13 GMT-0500 (Central Daylight Time),486572.8000000119,A,buttonenter,O,enter,683,1,2682.600000023842,483890.1999999881,7055,WL,A,2.0
4,4.763999938964844,learn,55236.000061035156,Thu Aug 14 2025 10:01:13 GMT-0500 (Central Daylight Time),486989.89999997616,A,g,O,g,399,1,416.89999997615814,486573.0,7055,WL,A,3.0
4,4.8480000495910645,learn,55151.999950408936,Thu Aug 14 2025 10:01:13 GMT-0500 (Central Daylight Time),487073.59999996424,A,go,O,o,64,1,500.5999999642372,486573.0,7055,WL,A,3.0
4,5.065999984741211,learn,54934.00001525879,Thu Aug 14 2025 10:01:13 GMT-0500 (Central Daylight Time),487291.89999997616,A,gol,O,l,205,1,718.8999999761581,486573.0,7055,WL,A,3.0
4,5.2149999141693115,learn,54785.00008583069,Thu Aug 14 2025 10:01:13 GMT-0500 (Central Daylight Time),487440.09999996424,A,gold,O,d,130,1,867.0999999642372,486573.0,7055,WL,A,3.0
4,5.497999906539917,learn,54502.00009346008,Thu Aug 14 2025 10:01:13 GMT-0500 (Central Daylight Time),487723.09999996424,A,goldenter,O,enter,270,1,1150.0999999642372,486573.0,7055,WL,A,3.0
4,5.849999904632568,learn,54150.00009536743,Thu Aug 14 2025 10:01:13 GMT-0500 (Central Daylight Time),488075.3000000119,A,r,O,r,341,1,351.9000000357628,487723.39999997616,7055,WL,A,4.0
4,5.980999946594238,learn,54019.00005340576,Thu Aug 14 2025 10:01:13 GMT-0500 (Central Daylight Time),488206.5,A,ra,O,a,110,1,483.10000002384186,487723.39999997616,7055,WL,A,4.0
4,6.447999954223633,learn,53552.00004577637,Thu Aug 14 2025 10:01:13 GMT-0500 (Central Daylight Time),488673.3000000119,A,rat,O,t,446,1,949.9000000357628,487723.39999997616,7055,WL,A,4.0
4,6.664000034332275,learn,53335.999965667725,Thu Aug 14 2025 10:01:13 GMT-0500 (Central Daylight Time),488890.09999996424,A,ratt,O,t,195,1,1166.699999988079,487723.39999997616,7055,WL,A,4.0
4,6.763999938964844,learn,53236.000061035156,Thu Aug 14 2025 10:01:13 GMT-0500 (Central Daylight Time),488989.39999997616,A,rattl,O,l,84,1,1266.0,487723.39999997616,7055,WL,A,4.0
4,6.914000034332275,learn,53085.999965667725,Thu Aug 14 2025 10:01:13 GMT-0500 (Central Daylight Time),489140.0,A,rattle,O,e,128,1,1416.6000000238419,487723.39999997616,7055,WL,A,4.0
4,7.148999929428101,learn,52851.0000705719,Thu Aug 14 2025 10:01:13 GMT-0500 (Central Daylight Time),489374.3000000119,A,rattleenter,O,enter,212,1,1650.9000000357628,487723.39999997616,7055,WL,A,4.0
4,7.431999921798706,learn,52568.000078201294,Thu Aug 14 2025 10:01:13 GMT-0500 (Central Daylight Time),489657.1999999881,A,t,O,t,265,1,282.60000002384186,489374.59999996424,7055,WL,A,5.0
4,7.648000001907349,learn,52351.99999809265,Thu Aug 14 2025 10:01:13 GMT-0500 (Central Daylight Time),489873.6999999881,A,tr,O,r,207,1,499.10000002384186,489374.59999996424,7055,WL,A,5.0
4,7.7799999713897705,learn,52220.00002861023,Thu Aug 14 2025 10:01:13 GMT-0500 (Central Daylight Time),490005.89999997616,A,tra,O,a,117,1,631.3000000119209,489374.59999996424,7055,WL,A,5.0
4,7.947999954223633,learn,52052.00004577637,Thu Aug 14 2025 10:01:13 GMT-0500 (Central Daylight Time),490173.59999996424,A,trai,O,i,145,1,799.0,489374.59999996424,7055,WL,A,5.0
4,8.049000024795532,learn,51950.99997520447,Thu Aug 14 2025 10:01:13 GMT-0500 (Central Daylight Time),490274.8000000119,A,train,O,n,88,1,900.2000000476837,489374.59999996424,7055,WL,A,5.0
4,8.462999820709229,learn,51537.00017929077,Thu Aug 14 2025 10:01:13 GMT-0500 (Central Daylight Time),490688.09999996424,A,trainenter,O,enter,404,1,1313.5,489374.59999996424,7055,WL,A,5.0
4,10.164000034332275,learn,49835.999965667725,Thu Aug 14 2025 10:01:13 GMT-0500 (Central Daylight Time),492389.39999997616,A,b,O,b,1682,1,1701.0,490688.39999997616,7055,WL,A,6.0
4,10.263000011444092,learn,49736.99998855591,Thu Aug 14 2025 10:01:13 GMT-0500 (Central Daylight Time),492488.39999997616,A,bo,O,o,80,1,1800.0,490688.39999997616,7055,WL,A,6.0
4,10.429999828338623,learn,49570.00017166138,Thu Aug 14 2025 10:01:13 GMT-0500 (Central Daylight Time),492655.09999996424,A,boo,O,o,160,1,1966.699999988079,490688.39999997616,7055,WL,A,6.0
4,10.628000020980835,learn,49371.999979019165,Thu Aug 14 2025 10:01:13 GMT-0500 (Central Daylight Time),492854.0,A,book,O,k,184,1,2165.600000023842,490688.39999997616,7055,WL,A,6.0
4,11.013000011444092,learn,48986.99998855591,Thu Aug 14 2025 10:01:13 GMT-0500 (Central Daylight Time),493238.1999999881,A,bookenter,O,enter,371,1,2549.800000011921,490688.39999997616,7055,WL,A,6.0
4,13.049999952316284,learn,46950.000047683716,Thu Aug 14 2025 10:01:13 GMT-0500 (Central Daylight Time),495275.3000000119,A,r,O,r,2014,1,2036.9000000357628,493238.39999997616,7055,WL,A,7.0
4,13.144999980926514,learn,46855.000019073486,Thu Aug 14 2025 10:01:13 GMT-0500 (Central Daylight Time),495370.89999997616,A,ru,O,u,84,1,2132.5,493238.39999997616,7055,WL,A,7.0
4,13.411999940872192,learn,46588.00005912781,Thu Aug 14 2025 10:01:13 GMT-0500 (Central Daylight Time),495637.8000000119,A,rug,O,g,251,1,2399.400000035763,493238.39999997616,7055,WL,A,7.0
4,13.661999940872192,learn,46338.00005912781,Thu Aug 14 2025 10:01:13 GMT-0500 (Central Daylight Time),495887.59999996424,A,rugenter,O,enter,232,1,2649.199999988079,493238.39999997616,7055,WL,A,7.0
4,14.345999956130981,learn,45654.00004386902,Thu Aug 14 2025 10:01:13 GMT-0500 (Central Daylight Time),496571.89999997616,A,l,O,l,664,1,684.0999999642372,495887.8000000119,7055,WL,A,8.0
4,14.51199984550476,learn,45488.00015449524,Thu Aug 14 2025 10:01:13 GMT-0500 (Central Daylight Time),496737.3000000119,A,lo,O,o,156,1,849.5,495887.8000000119,7055,WL,A,8.0
4,14.643999814987183,learn,45356.00018501282,Thu Aug 14 2025 10:01:13 GMT-0500 (Central Daylight Time),496869.09999996424,A,log,O,g,126,1,981.2999999523163,495887.8000000119,7055,WL,A,8.0
4,15.043999910354614,learn,44956.000089645386,Thu Aug 14 2025 10:01:13 GMT-0500 (Central Daylight Time),497269.5,A,logenter,O,enter,392,1,1381.699999988079,495887.8000000119,7055,WL,A,8.0
4,15.40999984741211,learn,44590.00015258789,Thu Aug 14 2025 10:01:13 GMT-0500 (Central Daylight Time),497635.59999996424,A,m,O,m,354,1,365.7999999523163,497269.8000000119,7055,WL,A,9.0
4,15.543999910354614,learn,44456.000089645386,Thu Aug 14 2025 10:01:13 GMT-0500 (Central Daylight Time),497769.0,A,me,O,e,117,1,499.19999998807907,497269.8000000119,7055,WL,A,9.0
4,15.64299988746643,learn,44357.00011253357,Thu Aug 14 2025 10:01:13 GMT-0500 (Central Daylight Time),497868.8000000119,A,mea,O,a,96,1,599.0,497269.8000000119,7055,WL,A,9.0
4,15.944000005722046,learn,44055.999994277954,Thu Aug 14 2025 10:01:13 GMT-0500 (Central Daylight Time),498169.0,A,mead,O,d,291,1,899.1999999880791,497269.8000000119,7055,WL,A,9.0
4,16.0939998626709,learn,43906.0001373291,Thu Aug 14 2025 10:01:13 GMT-0500 (Central Daylight Time),498319.3000000119,A,meado,O,o,144,1,1049.5,497269.8000000119,7055,WL,A,9.0
4,16.246999979019165,learn,43753.000020980835,Thu Aug 14 2025 10:01:13 GMT-0500 (Central Daylight Time),498472.5,A,meadow,O,w,129,1,1202.699999988079,497269.8000000119,7055,WL,A,9.0
4,16.460000038146973,learn,43539.99996185303,Thu Aug 14 2025 10:01:13 GMT-0500 (Central Daylight Time),498685.6999999881,A,meadowenter,O,enter,200,1,1415.8999999761581,497269.8000000119,7055,WL,A,9.0
4,18.526999950408936,learn,41473.000049591064,Thu Aug 14 2025 10:01:13 GMT-0500 (Central Daylight Time),500752.89999997616,A,s,O,s,2049,1,2067.0,498685.89999997616,7055,WL,A,10.0
4,18.626999855041504,learn,41373.000144958496,Thu Aug 14 2025 10:01:13 GMT-0500 (Central Daylight Time),500852.5,A,sa,O,a,77,1,2166.600000023842,498685.89999997616,7055,WL,A,10.0
4,18.8439998626709,learn,41156.0001373291,Thu Aug 14 2025 10:01:13 GMT-0500 (Central Daylight Time),501069.5,A,sal,O,l,200,1,2383.600000023842,498685.89999997616,7055,WL,A,10.0
4,19.125999927520752,learn,40874.00007247925,Thu Aug 14 2025 10:01:13 GMT-0500 (Central Daylight Time),501351.59999996424,A,salt,O,t,264,1,2665.699999988079,498685.89999997616,7055,WL,A,10.0
4,19.276999950408936,learn,40723.000049591064,Thu Aug 14 2025 10:01:13 GMT-0500 (Central Daylight Time),501502.5,A,saltenter,O,enter,128,1,2816.600000023842,498685.89999997616,7055,WL,A,10.0
4,19.49399995803833,learn,40506.00004196167,Thu Aug 14 2025 10:01:13 GMT-0500 (Central Daylight Time),501719.3000000119,A,f,O,f,211,1,216.60000002384186,501502.6999999881,7055,WL,A,11.0
4,19.64299988746643,learn,40357.00011253357,Thu Aug 14 2025 10:01:13 GMT-0500 (Central Daylight Time),501868.39999997616,A,fi,O,i,135,1,365.69999998807907,501502.6999999881,7055,WL,A,11.0
4,19.8439998626709,learn,40156.0001373291,Thu Aug 14 2025 10:01:13 GMT-0500 (Central Daylight Time),502069.89999997616,A,fin,O,n,188,1,567.1999999880791,501502.6999999881,7055,WL,A,11.0
4,19.944000005722046,learn,40055.999994277954,Thu Aug 14 2025 10:01:13 GMT-0500 (Central Daylight Time),502169.39999997616,A,fing,O,g,90,1,666.6999999880791,501502.6999999881,7055,WL,A,11.0
4,20.16100001335144,learn,39838.99998664856,Thu Aug 14 2025 10:01:13 GMT-0500 (Central Daylight Time),502386.5,A,finge,O,e,196,1,883.8000000119209,501502.6999999881,7055,WL,A,11.0
4,20.276999950408936,learn,39723.000049591064,Thu Aug 14 2025 10:01:13 GMT-0500 (Central Daylight Time),502502.1999999881,A,finger,O,r,97,1,999.5,501502.6999999881,7055,WL,A,11.0
4,20.609999895095825,learn,39390.000104904175,Thu Aug 14 2025 10:01:13 GMT-0500 (Central Daylight Time),502835.8000000119,A,fingerenter,O,enter,312,1,1333.1000000238419,501502.6999999881,7055,WL,A,11.0
4,23.108999967575073,learn,36891.00003242493,Thu Aug 14 2025 10:01:13 GMT-0500 (Central Daylight Time),505334.89999997616,A,k,O,k,2477,1,2498.899999976158,502836.0,7055,WL,A,12.0
4,23.22499990463257,learn,36775.00009536743,Thu Aug 14 2025 10:01:13 GMT-0500 (Central Daylight Time),505451.0,A,ke,O,e,106,1,2615.0,502836.0,7055,WL,A,12.0
4,23.376999855041504,learn,36623.000144958496,Thu Aug 14 2025 10:01:13 GMT-0500 (Central Daylight Time),505602.59999996424,A,key,O,y,135,1,2766.599999964237,502836.0,7055,WL,A,12.0
4,23.60800004005432,learn,36391.99995994568,Thu Aug 14 2025 10:01:13 GMT-0500 (Central Daylight Time),505834.0,A,keyenter,O,enter,220,1,2998.0,502836.0,7055,WL,A,12.0
4,29.93999981880188,learn,30060.00018119812,Thu Aug 14 2025 10:01:13 GMT-0500 (Central Daylight Time),512165.59999996424,A,t,O,t,6317,1,6331.399999976158,505834.1999999881,7055,WL,A,13.0
4,30.157999992370605,learn,29842.000007629395,Thu Aug 14 2025 10:01:13 GMT-0500 (Central Daylight Time),512383.3000000119,A,tr,O,r,195,1,6549.100000023842,505834.1999999881,7055,WL,A,13.0
4,30.274999856948853,learn,29725.000143051147,Thu Aug 14 2025 10:01:13 GMT-0500 (Central Daylight Time),512500.1999999881,A,tra,O,a,104,1,6666.0,505834.1999999881,7055,WL,A,13.0
4,30.372999906539917,learn,29627.000093460083,Thu Aug 14 2025 10:01:13 GMT-0500 (Central Daylight Time),512598.59999996424,A,trai,O,i,82,1,6764.399999976158,505834.1999999881,7055,WL,A,13.0
4,30.490000009536743,learn,29509.999990463257,Thu Aug 14 2025 10:01:13 GMT-0500 (Central Daylight Time),512715.8000000119,A,train,O,n,96,1,6881.600000023842,505834.1999999881,7055,WL,A,13.0
4,30.740000009536743,learn,29259.999990463257,Thu Aug 14 2025 10:01:13 GMT-0500 (Central Daylight Time),512965.5,A,trainenter,O,enter,235,1,7131.300000011921,505834.1999999881,7055,WL,A,13.0
4,31.305999994277954,learn,28694.000005722046,Thu Aug 14 2025 10:01:13 GMT-0500 (Central Daylight Time),513531.59999996424,A,enter,O,enter,547,1,565.7999999523163,512965.8000000119,7055,WL,A,14.0
4,31.572999954223633,learn,28427.000045776367,Thu Aug 14 2025 10:01:13 GMT-0500 (Central Daylight Time),513798.8000000119,A,enter,O,enter,261,1,266.9000000357628,513531.89999997616,7055,WL,A,15.0
5,0.6010000705718994,learn,60000.0,Thu Aug 14 2025 10:01:13 GMT-0500 (Central Daylight Time),579494.3000000119,A,f,O,f,578,1,600.6000000238419,578893.6999999881,7055,WL,A,1.0
5,0.7000000476837158,learn,60000.0,Thu Aug 14 2025 10:01:13 GMT-0500 (Central Daylight Time),579593.5,A,fl,O,l,79,1,699.8000000119209,578893.6999999881,7055,WL,A,1.0
5,0.8830001354217529,learn,60000.0,Thu Aug 14 2025 10:01:13 GMT-0500 (Central Daylight Time),579776.5999999642,A,flo,O,o,164,1,882.8999999761581,578893.6999999881,7055,WL,A,1.0
5,1.0499999523162842,learn,60000.0,Thu Aug 14 2025 10:01:13 GMT-0500 (Central Daylight Time),579943.5999999642,A,flow,O,w,148,1,1049.8999999761581,578893.6999999881,7055,WL,A,1.0
5,1.2000000476837158,learn,60000.0,Thu Aug 14 2025 10:01:13 GMT-0500 (Central Daylight Time),580093.3999999762,A,flowe,O,e,127,1,1199.699999988079,578893.6999999881,7055,WL,A,1.0
5,1.3020000457763672,learn,60000.0,Thu Aug 14 2025 10:01:13 GMT-0500 (Central Daylight Time),580194.8999999762,A,flower,O,r,79,1,1301.199999988079,578893.6999999881,7055,WL,A,1.0
5,2.200000047683716,learn,60000.0,Thu Aug 14 2025 10:01:13 GMT-0500 (Central Daylight Time),581093.0999999642,A,flowerenter,O,enter,881,1,2199.399999976158,578893.6999999881,7055,WL,A,1.0
5,3.0329999923706055,learn,60000.0,Thu Aug 14 2025 10:01:13 GMT-0500 (Central Daylight Time),581926.0999999642,A,m,O,m,818,1,832.6999999880791,581093.3999999762,7055,WL,A,2.0
5,3.1660001277923584,learn,60000.0,Thu Aug 14 2025 10:01:13 GMT-0500 (Central Daylight Time),582059.5999999642,A,me,O,e,110,1,966.1999999880791,581093.3999999762,7055,WL,A,2.0
5,3.265000104904175,learn,60000.0,Thu Aug 14 2025 10:01:13 GMT-0500 (Central Daylight Time),582158.6999999881,A,mea,O,a,89,1,1065.300000011921,581093.3999999762,7055,WL,A,2.0
5,3.565999984741211,learn,60000.0,Thu Aug 14 2025 10:01:13 GMT-0500 (Central Daylight Time),582459.5999999642,A,mead,O,d,278,1,1366.199999988079,581093.3999999762,7055,WL,A,2.0
5,3.6660001277923584,learn,60000.0,Thu Aug 14 2025 10:01:13 GMT-0500 (Central Daylight Time),582559.0,A,meado,O,o,87,1,1465.6000000238419,581093.3999999762,7055,WL,A,2.0
5,3.8320000171661377,learn,60000.0,Thu Aug 14 2025 10:01:13 GMT-0500 (Central Daylight Time),582725.8000000119,A,meadow,O,w,150,1,1632.4000000357628,581093.3999999762,7055,WL,A,2.0
5,4.065999984741211,learn,60000.0,Thu Aug 14 2025 10:01:13 GMT-0500 (Central Daylight Time),582959.0999999642,A,meadowenter,O,enter,223,1,1865.699999988079,581093.3999999762,7055,WL,A,2.0
5,4.365999937057495,learn,60000.0,Thu Aug 14 2025 10:01:13 GMT-0500 (Central Daylight Time),583258.8999999762,A,l,O,l,280,1,299.5,582959.3999999762,7055,WL,A,3.0
5,4.549000024795532,learn,60000.0,Thu Aug 14 2025 10:01:13 GMT-0500 (Central Daylight Time),583442.0999999642,A,lo,O,o,161,1,482.69999998807907,582959.3999999762,7055,WL,A,3.0
5,4.683000087738037,learn,60000.0,Thu Aug 14 2025 10:01:13 GMT-0500 (Central Daylight Time),583576.1999999881,A,log,O,g,117,1,616.8000000119209,582959.3999999762,7055,WL,A,3.0
5,4.916000127792358,learn,60000.0,Thu Aug 14 2025 10:01:13 GMT-0500 (Central Daylight Time),583809.0,A,logenter,O,enter,219,1,849.6000000238419,582959.3999999762,7055,WL,A,3.0
5,5.982000112533569,learn,60000.0,Thu Aug 14 2025 10:01:13 GMT-0500 (Central Daylight Time),584875.1999999881,A,b,O,b,1054,1,1065.8999999761581,583809.3000000119,7055,WL,A,4.0
5,6.182000160217285,learn,60000.0,Thu Aug 14 2025 10:01:13 GMT-0500 (Central Daylight Time),585075.0,A,bo,O,o,186,1,1265.699999988079,583809.3000000119,7055,WL,A,4.0
5,6.8480000495910645,learn,60000.0,Thu Aug 14 2025 10:01:13 GMT-0500 (Central Daylight Time),585741.5,A,b,O,backspace,645,1,1932.199999988079,583809.3000000119,7055,WL,A,4.0
5,7.54800009727478,learn,60000.0,Thu Aug 14 2025 10:01:13 GMT-0500 (Central Daylight Time),586441.5999999642,A,bu,O,u,678,1,2632.2999999523163,583809.3000000119,7055,WL,A,4.0
5,7.680999994277954,learn,60000.0,Thu Aug 14 2025 10:01:13 GMT-0500 (Central Daylight Time),586574.5999999642,A,but,O,t,122,1,2765.2999999523163,583809.3000000119,7055,WL,A,4.0
5,7.8480000495910645,learn,60000.0,Thu Aug 14 2025 10:01:13 GMT-0500 (Central Daylight Time),586741.3000000119,A,butt,O,t,151,1,2932.0,583809.3000000119,7055,WL,A,4.0
5,7.949000120162964,learn,60000.0,Thu Aug 14 2025 10:01:13 GMT-0500 (Central Daylight Time),586842.3000000119,A,butto,O,o,78,1,3033.0,583809.3000000119,7055,WL,A,4.0
5,8.081000089645386,learn,60000.0,Thu Aug 14 2025 10:01:13 GMT-0500 (Central Daylight Time),586974.5,A,button,O,n,124,1,3165.199999988079,583809.3000000119,7055,WL,A,4.0
5,8.598000049591064,learn,60000.0,Thu Aug 14 2025 10:01:13 GMT-0500 (Central Daylight Time),587491.0,A,buttonenter,O,enter,490,1,3681.699999988079,583809.3000000119,7055,WL,A,4.0
5,8.88100004196167,learn,60000.0,Thu Aug 14 2025 10:01:13 GMT-0500 (Central Daylight Time),587774.1999999881,A,g,O,g,268,1,282.89999997615814,587491.3000000119,7055,WL,A,5.0
5,8.96399998664856,learn,60000.0,Thu Aug 14 2025 10:01:13 GMT-0500 (Central Daylight Time),587857.3999999762,A,go,O,o,63,1,366.0999999642372,587491.3000000119,7055,WL,A,5.0
5,9.180999994277954,learn,60000.0,Thu Aug 14 2025 10:01:13 GMT-0500 (Central Daylight Time),588073.8999999762,A,gol,O,l,205,1,582.5999999642372,587491.3000000119,7055,WL,A,5.0
5,9.381999969482422,learn,60000.0,Thu Aug 14 2025 10:01:13 GMT-0500 (Central Daylight Time),588275.3000000119,A,gold,O,d,178,1,784.0,587491.3000000119,7055,WL,A,5.0
5,9.664999961853027,learn,60000.0,Thu Aug 14 2025 10:01:13 GMT-0500 (Central Daylight Time),588558.3000000119,A,goldenter,O,enter,265,1,1067.0,587491.3000000119,7055,WL,A,5.0
5,10.330000162124634,learn,60000.0,Thu Aug 14 2025 10:01:13 GMT-0500 (Central Daylight Time),589223.6999999881,A,k,O,k,650,1,665.1999999880791,588558.5,7055,WL,A,6.0
5,10.411999940872192,learn,60000.0,Thu Aug 14 2025 10:01:13 GMT-0500 (Central Daylight Time),589305.5999999642,A,ke,O,e,56,1,747.0999999642372,588558.5,7055,WL,A,6.0
5,10.581000089645386,learn,60000.0,Thu Aug 14 2025 10:01:13 GMT-0500 (Central Daylight Time),589473.8999999762,A,key,O,y,159,1,915.3999999761581,588558.5,7055,WL,A,6.0
5,10.831000089645386,learn,60000.0,Thu Aug 14 2025 10:01:13 GMT-0500 (Central Daylight Time),589723.8000000119,A,keyenter,O,enter,235,1,1165.300000011921,588558.5,7055,WL,A,6.0
5,11.29699993133545,learn,60000.0,Thu Aug 14 2025 10:01:13 GMT-0500 (Central Daylight Time),590190.5,A,f,O,f,459,1,466.4000000357628,589724.0999999642,7055,WL,A,7.0
5,11.414000034332275,learn,60000.0,Thu Aug 14 2025 10:01:13 GMT-0500 (Central Daylight Time),590307.5,A,fi,O,i,104,1,583.4000000357628,589724.0999999642,7055,WL,A,7.0
5,11.595999956130981,learn,60000.0,Thu Aug 14 2025 10:01:13 GMT-0500 (Central Daylight Time),590489.6999999881,A,fin,O,n,169,1,765.6000000238419,589724.0999999642,7055,WL,A,7.0
5,11.680000066757202,learn,60000.0,Thu Aug 14 2025 10:01:13 GMT-0500 (Central Daylight Time),590573.3000000119,A,fing,O,g,67,1,849.2000000476837,589724.0999999642,7055,WL,A,7.0
5,11.845999956130981,learn,60000.0,Thu Aug 14 2025 10:01:13 GMT-0500 (Central Daylight Time),590739.6999999881,A,finge,O,e,154,1,1015.6000000238419,589724.0999999642,7055,WL,A,7.0
5,11.94700002670288,learn,60000.0,Thu Aug 14 2025 10:01:13 GMT-0500 (Central Daylight Time),590839.8999999762,A,finger,O,r,80,1,1115.800000011921,589724.0999999642,7055,WL,A,7.0
5,12.11300015449524,learn,60000.0,Thu Aug 14 2025 10:01:13 GMT-0500 (Central Daylight Time),591006.8000000119,A,fingerenter,O,enter,155,1,1282.7000000476837,589724.0999999642,7055,WL,A,7.0
5,13.081000089645386,learn,60000.0,Thu Aug 14 2025 10:01:13 GMT-0500 (Central Daylight Time),591974.5999999642,A,s,O,s,952,1,967.5999999642372,591007.0,7055,WL,A,8.0
5,13.230000019073486,learn,60000.0,Thu Aug 14 2025 10:01:13 GMT-0500 (Central Daylight Time),592123.3999999762,A,sa,O,a,129,1,1116.3999999761581,591007.0,7055,WL,A,8.0
5,13.413000106811523,learn,60000.0,Thu Aug 14 2025 10:01:13 GMT-0500 (Central Daylight Time),592306.6999999881,A,sal,O,l,163,1,1299.699999988079,591007.0,7055,WL,A,8.0
5,13.647000074386597,learn,60000.0,Thu Aug 14 2025 10:01:13 GMT-0500 (Central Daylight Time),592539.8000000119,A,salt,O,t,219,1,1532.800000011921,591007.0,7055,WL,A,8.0
5,13.913000106811523,learn,60000.0,Thu Aug 14 2025 10:01:13 GMT-0500 (Central Daylight Time),592806.5,A,saltenter,O,enter,244,1,1799.5,591007.0,7055,WL,A,8.0
5,14.146000146865845,learn,60000.0,Thu Aug 14 2025 10:01:13 GMT-0500 (Central Daylight Time),593039.5,A,a,O,a,225,1,232.69999998807907,592806.8000000119,7055,WL,A,9.0
5,14.27999997138977,learn,60000.0,Thu Aug 14 2025 10:01:13 GMT-0500 (Central Daylight Time),593173.0999999642,A,ap,O,p,119,1,366.2999999523163,592806.8000000119,7055,WL,A,9.0
5,14.46399998664856,learn,60000.0,Thu Aug 14 2025 10:01:13 GMT-0500 (Central Daylight Time),593357.0999999642,A,app,O,p,161,1,550.2999999523163,592806.8000000119,7055,WL,A,9.0
5,14.713000059127808,learn,60000.0,Thu Aug 14 2025 10:01:13 GMT-0500 (Central Daylight Time),593606.6999999881,A,appl,O,l,228,1,799.8999999761581,592806.8000000119,7055,WL,A,9.0
5,14.845999956130981,learn,60000.0,Thu Aug 14 2025 10:01:13 GMT-0500 (Central Daylight Time),593739.5,A,apple,O,e,112,1,932.6999999880791,592806.8000000119,7055,WL,A,9.0
5,15.011000156402588,learn,60000.0,Thu Aug 14 2025 10:01:13 GMT-0500 (Central Daylight Time),593904.6999999881,A,appleenter,O,enter,155,1,1097.8999999761581,592806.8000000119,7055,WL,A,9.0
5,15.84500002861023,learn,60000.0,Thu Aug 14 2025 10:01:13 GMT-0500 (Central Daylight Time),594738.1999999881,A,b,O,b,815,1,833.1999999880791,593905.0,7055,WL,A,10.0
5,15.911999940872192,learn,60000.0,Thu Aug 14 2025 10:01:13 GMT-0500 (Central Daylight Time),594805.3999999762,A,bo,O,o,61,1,900.3999999761581,593905.0,7055,WL,A,10.0
5,16.097000122070312,learn,60000.0,Thu Aug 14 2025 10:01:13 GMT-0500 (Central Daylight Time),594989.8999999762,A,boo,O,o,171,1,1084.8999999761581,593905.0,7055,WL,A,10.0
5,16.27900004386902,learn,60000.0,Thu Aug 14 2025 10:01:13 GMT-0500 (Central Daylight Time),595172.3000000119,A,book,O,k,170,1,1267.300000011921,593905.0,7055,WL,A,10.0
5,16.546000003814697,learn,60000.0,Thu Aug 14 2025 10:01:13 GMT-0500 (Central Daylight Time),595438.8999999762,A,bookenter,O,enter,250,1,1533.8999999761581,593905.0,7055,WL,A,10.0
5,18.30999994277954,learn,60000.0,Thu Aug 14 2025 10:01:13 GMT-0500 (Central Daylight Time),597205.5999999642,A,t,O,t,1752,1,1766.3999999761581,595439.1999999881,7055,WL,A,11.0
5,18.526999950408936,learn,60000.0,Thu Aug 14 2025 10:01:13 GMT-0500 (Central Daylight Time),597422.1999999881,A,tr,O,r,202,1,1983.0,595439.1999999881,7055,WL,A,11.0
5,18.64300012588501,learn,60000.0,Thu Aug 14 2025 10:01:13 GMT-0500 (Central Daylight Time),597538.1999999881,A,tra,O,a,94,1,2099.0,595439.1999999881,7055,WL,A,11.0
5,18.776000022888184,learn,60000.0,Thu Aug 14 2025 10:01:13 GMT-0500 (Central Daylight Time),597671.3000000119,A,trai,O,i,128,1,2232.100000023842,595439.1999999881,7055,WL,A,11.0
5,18.91000008583069,learn,60000.0,Thu Aug 14 2025 10:01:13 GMT-0500 (Central Daylight Time),597805.1999999881,A,train,O,n,121,1,2366.0,595439.1999999881,7055,WL,A,11.0
5,19.177000045776367,learn,60000.0,Thu Aug 14 2025 10:01:13 GMT-0500 (Central Daylight Time),598072.0999999642,A,trainenter,O,enter,249,1,2632.899999976158,595439.1999999881,7055,WL,A,11.0
5,19.426000118255615,learn,60000.0,Thu Aug 14 2025 10:01:13 GMT-0500 (Central Daylight Time),598321.3999999762,A,r,O,r,231,1,249.0,598072.3999999762,7055,WL,A,12.0
5,19.542999982833862,learn,60000.0,Thu Aug 14 2025 10:01:13 GMT-0500 (Central Daylight Time),598437.8999999762,A,ra,O,a,101,1,365.5,598072.3999999762,7055,WL,A,12.0
5,19.776000022888184,learn,60000.0,Thu Aug 14 2025 10:01:13 GMT-0500 (Central Daylight Time),598670.8999999762,A,rat,O,t,216,1,598.5,598072.3999999762,7055,WL,A,12.0
5,19.944000005722046,learn,60000.0,Thu Aug 14 2025 10:01:13 GMT-0500 (Central Daylight Time),598838.8000000119,A,ratt,O,t,145,1,766.4000000357628,598072.3999999762,7055,WL,A,12.0
5,20.04200005531311,learn,60000.0,Thu Aug 14 2025 10:01:13 GMT-0500 (Central Daylight Time),598936.8999999762,A,rattl,O,l,88,1,864.5,598072.3999999762,7055,WL,A,12.0
5,20.176000118255615,learn,60000.0,Thu Aug 14 2025 10:01:13 GMT-0500 (Central Daylight Time),599071.0,A,rattle,O,e,114,1,998.6000000238419,598072.3999999762,7055,WL,A,12.0
5,20.426000118255615,learn,60000.0,Thu Aug 14 2025 10:01:13 GMT-0500 (Central Daylight Time),599321.0999999642,A,rattleenter,O,enter,230,1,1248.699999988079,598072.3999999762,7055,WL,A,12.0
5,22.608999967575073,learn,60000.0,Thu Aug 14 2025 10:01:13 GMT-0500 (Central Daylight Time),601504.5,A,f,O,f,2175,1,2183.100000023842,599321.3999999762,7055,WL,A,13.0
5,22.742000102996826,learn,60000.0,Thu Aug 14 2025 10:01:13 GMT-0500 (Central Daylight Time),601637.3000000119,A,fi,O,i,112,1,2315.900000035763,599321.3999999762,7055,WL,A,13.0
5,22.89300012588501,learn,60000.0,Thu Aug 14 2025 10:01:13 GMT-0500 (Central Daylight Time),601788.3999999762,A,fin,O,n,128,1,2467.0,599321.3999999762,7055,WL,A,13.0
5,22.973999977111816,learn,60000.0,Thu Aug 14 2025 10:01:13 GMT-0500 (Central Daylight Time),601869.3999999762,A,fing,O,g,65,1,2548.0,599321.3999999762,7055,WL,A,13.0
5,23.174999952316284,learn,60000.0,Thu Aug 14 2025 10:01:13 GMT-0500 (Central Daylight Time),602070.3000000119,A,finge,O,e,182,1,2748.900000035763,599321.3999999762,7055,WL,A,13.0
5,23.258000135421753,learn,60000.0,Thu Aug 14 2025 10:01:13 GMT-0500 (Central Daylight Time),602153.5999999642,A,finger,O,r,63,1,2832.199999988079,599321.3999999762,7055,WL,A,13.0
5,23.35800004005432,learn,60000.0,Thu Aug 14 2025 10:01:13 GMT-0500 (Central Daylight Time),602253.0999999642,A,fingerenter,O,enter,77,1,2931.699999988079,599321.3999999762,7055,WL,A,13.0
5,27.223999977111816,learn,60000.0,Thu Aug 14 2025 10:01:13 GMT-0500 (Central Daylight Time),606118.8000000119,A,enter,O,enter,3851,1,3865.5,602253.3000000119,7055,WL,A,14.0
5,27.624000072479248,learn,60000.0,Thu Aug 14 2025 10:01:13 GMT-0500 (Central Daylight Time),606519.5,A,enter,O,enter,393,1,400.30000001192093,606119.1999999881,7055,WL,A,15.0
6,0.6670000553131104,distr,59332.99994468689,Thu Aug 14 2025 10:01:13 GMT-0500 (Central Daylight Time),681961.5,B,b,O,b,656,1,667.1999999880791,681294.3000000119,7055,WL,A,1.0
6,0.7999999523162842,distr,59200.000047683716,Thu Aug 14 2025 10:01:13 GMT-0500 (Central Daylight Time),682093.8000000119,B,bo,O,o,115,1,799.5,681294.3000000119,7055,WL,A,1.0
6,1.4489998817443848,distr,58551.000118255615,Thu Aug 14 2025 10:01:13 GMT-0500 (Central Daylight Time),682743.6999999881,B,bow,O,w,640,1,1449.3999999761581,681294.3000000119,7055,WL,A,1.0
6,1.5989999771118164,distr,58401.00002288818,Thu Aug 14 2025 10:01:13 GMT-0500 (Central Daylight Time),682893.3999999762,B,bowl,O,l,130,1,1599.0999999642372,681294.3000000119,7055,WL,A,1.0
6,1.9830000400543213,distr,58016.99995994568,Thu Aug 14 2025 10:01:13 GMT-0500 (Central Daylight Time),683277.0,B,bowlenter,O,enter,366,1,1982.699999988079,681294.3000000119,7055,WL,A,1.0
6,2.3999998569488525,distr,57600.00014305115,Thu Aug 14 2025 10:01:13 GMT-0500 (Central Daylight Time),683693.8999999762,B,d,O,d,412,1,416.69999998807907,683277.1999999881,7055,WL,A,2.0
6,2.5329999923706055,distr,57467.000007629395,Thu Aug 14 2025 10:01:13 GMT-0500 (Central Daylight Time),683826.8000000119,B,da,O,a,112,1,549.6000000238419,683277.1999999881,7055,WL,A,2.0
6,2.799999952316284,distr,57200.000047683716,Thu Aug 14 2025 10:01:13 GMT-0500 (Central Daylight Time),684094.3999999762,B,daw,O,w,250,1,817.1999999880791,683277.1999999881,7055,WL,A,2.0
6,3.0820000171661377,distr,56917.99998283386,Thu Aug 14 2025 10:01:13 GMT-0500 (Central Daylight Time),684376.3999999762,B,dawn,O,n,270,1,1099.199999988079,683277.1999999881,7055,WL,A,2.0
6,3.5149998664855957,distr,56485.000133514404,Thu Aug 14 2025 10:01:13 GMT-0500 (Central Daylight Time),684808.6999999881,B,dawnenter,O,enter,410,1,1531.5,683277.1999999881,7055,WL,A,2.0
6,3.9159998893737793,distr,56084.00011062622,Thu Aug 14 2025 10:01:13 GMT-0500 (Central Daylight Time),685210.3000000119,B,s,O,s,383,1,401.30000001192093,684809.0,7055,WL,A,3.0
6,4.065000057220459,distr,55934.99994277954,Thu Aug 14 2025 10:01:13 GMT-0500 (Central Daylight Time),685359.3999999762,B,sh,O,h,140,1,550.3999999761581,684809.0,7055,WL,A,3.0
6,4.197999954223633,distr,55802.00004577637,Thu Aug 14 2025 10:01:13 GMT-0500 (Central Daylight Time),685492.5,B,she,O,e,116,1,683.5,684809.0,7055,WL,A,3.0
6,4.381999969482422,distr,55618.00003051758,Thu Aug 14 2025 10:01:13 GMT-0500 (Central Daylight Time),685676.3000000119,B,shee,O,e,166,1,867.3000000119209,684809.0,7055,WL,A,3.0
6,5.23199987411499,distr,54768.00012588501,Thu Aug 14 2025 10:01:13 GMT-0500 (Central Daylight Time),686526.1999999881,B,sheep,O,p,842,1,1717.199999988079,684809.0,7055,WL,A,3.0
6,5.497999906539917,distr,54502.00009346008,Thu Aug 14 2025 10:01:13 GMT-0500 (Central Daylight Time),686792.5999999642,B,sheepenter,O,enter,242,1,1983.5999999642372,684809.0,7055,WL,A,3.0
6,6.131999969482422,distr,53868.00003051758,Thu Aug 14 2025 10:01:13 GMT-0500 (Central Daylight Time),687426.3999999762,B,c,O,c,616,1,633.5999999642372,686792.8000000119,7055,WL,A,4.0
6,6.180999994277954,distr,53819.000005722046,Thu Aug 14 2025 10:01:13 GMT-0500 (Central Daylight Time),687474.6999999881,B,co,O,o,32,1,681.8999999761581,686792.8000000119,7055,WL,A,4.0
6,6.332000017166138,distr,53667.99998283386,Thu Aug 14 2025 10:01:13 GMT-0500 (Central Daylight Time),687626.3999999762,B,coa,O,a,142,1,833.5999999642372,686792.8000000119,7055,WL,A,4.0
6,6.4649999141693115,distr,53535.00008583069,Thu Aug 14 2025 10:01:13 GMT-0500 (Central Daylight Time),687759.6999999881,B,coat,O,t,122,1,966.8999999761581,686792.8000000119,7055,WL,A,4.0
6,6.680999994277954,distr,53319.000005722046,Thu Aug 14 2025 10:01:13 GMT-0500 (Central Daylight Time),687975.5999999642,B,coatenter,O,enter,202,1,1182.7999999523163,686792.8000000119,7055,WL,A,4.0
6,7.46399998664856,distr,52536.00001335144,Thu Aug 14 2025 10:01:13 GMT-0500 (Central Daylight Time),688758.5999999642,B,d,O,d,776,1,782.6999999880791,687975.8999999762,7055,WL,A,5.0
6,10.129999876022339,distr,49870.00012397766,Thu Aug 14 2025 10:01:13 GMT-0500 (Central Daylight Time),691424.1999999881,B,da,O,a,2653,1,3448.300000011921,687975.8999999762,7055,WL,A,5.0
6,10.497999906539917,distr,49502.00009346008,Thu Aug 14 2025 10:01:13 GMT-0500 (Central Daylight Time),691791.8999999762,B,daw,O,w,348,1,3816.0,687975.8999999762,7055,WL,A,5.0
6,10.662999868392944,distr,49337.000131607056,Thu Aug 14 2025 10:01:13 GMT-0500 (Central Daylight Time),691957.1999999881,B,dawn,O,n,150,1,3981.300000011921,687975.8999999762,7055,WL,A,5.0
6,11.04699993133545,distr,48953.00006866455,Thu Aug 14 2025 10:01:13 GMT-0500 (Central Daylight Time),692341.0,B,dawnenter,O,enter,360,1,4365.100000023842,687975.8999999762,7055,WL,A,5.0
6,11.379999876022339,distr,48620.00012397766,Thu Aug 14 2025 10:01:13 GMT-0500 (Central Daylight Time),692674.0999999642,B,p,O,p,315,1,332.7999999523163,692341.3000000119,7055,WL,A,6.0
6,12.69700002670288,distr,47302.99997329712,Thu Aug 14 2025 10:01:13 GMT-0500 (Central Daylight Time),693990.8999999762,B,pl,O,l,1299,1,1649.5999999642372,692341.3000000119,7055,WL,A,6.0
6,12.79699993133545,distr,47203.00006866455,Thu Aug 14 2025 10:01:13 GMT-0500 (Central Daylight Time),694091.0,B,pla,O,a,87,1,1749.699999988079,692341.3000000119,7055,WL,A,6.0
6,13.180000066757202,distr,46819.9999332428,Thu Aug 14 2025 10:01:13 GMT-0500 (Central Daylight Time),694473.8999999762,B,plai,O,i,372,1,2132.599999964237,692341.3000000119,7055,WL,A,6.0
6,13.744999885559082,distr,46255.00011444092,Thu Aug 14 2025 10:01:13 GMT-0500 (Central Daylight Time),695039.6999999881,B,pla,O,backspace,555,1,2698.399999976158,692341.3000000119,7055,WL,A,6.0
6,14.111999988555908,distr,45888.00001144409,Thu Aug 14 2025 10:01:13 GMT-0500 (Central Daylight Time),695406.5999999642,B,plam,O,m,350,1,3065.2999999523163,692341.3000000119,7055,WL,A,6.0
6,14.295000076293945,distr,45704.999923706055,Thu Aug 14 2025 10:01:13 GMT-0500 (Central Daylight Time),695589.6999999881,B,plame,O,e,162,1,3248.399999976158,692341.3000000119,7055,WL,A,6.0
6,14.812999963760376,distr,45187.000036239624,Thu Aug 14 2025 10:01:13 GMT-0500 (Central Daylight Time),696107.0,B,plam,O,backspace,495,1,3765.699999988079,692341.3000000119,7055,WL,A,6.0
6,14.961999893188477,distr,45038.00010681152,Thu Aug 14 2025 10:01:13 GMT-0500 (Central Daylight Time),696256.0999999642,B,pla,O,backspace,130,1,3914.7999999523163,692341.3000000119,7055,WL,A,6.0
6,15.661999940872192,distr,44338.00005912781,Thu Aug 14 2025 10:01:13 GMT-0500 (Central Daylight Time),696955.8999999762,B,plan,O,n,679,1,4614.599999964237,692341.3000000119,7055,WL,A,6.0
6,15.744999885559082,distr,44255.00011444092,Thu Aug 14 2025 10:01:13 GMT-0500 (Central Daylight Time),697038.6999999881,B,plane,O,e,73,1,4697.399999976158,692341.3000000119,7055,WL,A,6.0
6,17.09500002861023,distr,42904.99997138977,Thu Aug 14 2025 10:01:13 GMT-0500 (Central Daylight Time),698389.1999999881,B,planeenter,O,enter,1329,1,6047.899999976158,692341.3000000119,7055,WL,A,6.0
6,17.545000076293945,distr,42454.999923706055,Thu Aug 14 2025 10:01:13 GMT-0500 (Central Daylight Time),698839.1999999881,B,c,O,c,442,1,449.80000001192093,698389.3999999762,7055,WL,A,7.0
6,17.67799997329712,distr,42322.00002670288,Thu Aug 14 2025 10:01:13 GMT-0500 (Central Daylight Time),698972.3000000119,B,ch,O,h,111,1,582.9000000357628,698389.3999999762,7055,WL,A,7.0
6,17.795000076293945,distr,42204.999923706055,Thu Aug 14 2025 10:01:13 GMT-0500 (Central Daylight Time),699089.3999999762,B,cha,O,a,105,1,700.0,698389.3999999762,7055,WL,A,7.0
6,17.994999885559082,distr,42005.00011444092,Thu Aug 14 2025 10:01:13 GMT-0500 (Central Daylight Time),699289.3999999762,B,chai,O,i,185,1,900.0,698389.3999999762,7055,WL,A,7.0
6,18.144999980926514,distr,41855.000019073486,Thu Aug 14 2025 10:01:13 GMT-0500 (Central Daylight Time),699439.0999999642,B,chair,O,r,135,1,1049.699999988079,698389.3999999762,7055,WL,A,7.0
6,18.444000005722046,distr,41555.999994277954,Thu Aug 14 2025 10:01:13 GMT-0500 (Central Daylight Time),699738.5,B,chairenter,O,enter,279,1,1349.1000000238419,698389.3999999762,7055,WL,A,7.0
6,23.625999927520752,distr,36374.00007247925,Thu Aug 14 2025 10:01:13 GMT-0500 (Central Daylight Time),704920.3000000119,B,enter,O,enter,5173,1,5181.600000023842,699738.6999999881,7055,WL,A,8.0
6,24.05900001525879,distr,35940.99998474121,Thu Aug 14 2025 10:01:13 GMT-0500 (Central Daylight Time),705353.5,B,enter,O,enter,415,1,432.9000000357628,704920.5999999642,7055,WL,A,9.0
6,24.276000022888184,distr,35723.99997711182,Thu Aug 14 2025 10:01:13 GMT-0500 (Central Daylight Time),705569.8999999762,B,enter,O,enter,206,1,216.19999998807907,705353.6999999881,7055,WL,A,10.0
6,24.493000030517578,distr,35506.99996948242,Thu Aug 14 2025 10:01:13 GMT-0500 (Central Daylight Time),705787.5999999642,B,enter,O,enter,197,1,217.39999997615814,705570.1999999881,7055,WL,A,11.0
6,24.743000030517578,distr,35256.99996948242,Thu Aug 14 2025 10:01:13 GMT-0500 (Central Daylight Time),706036.6999999881,B,enter,O,enter,229,1,248.89999997615814,705787.8000000119,7055,WL,A,12.0
6,24.991999864578247,distr,35008.00013542175,Thu Aug 14 2025 10:01:13 GMT-0500 (Central Daylight Time),706285.6999999881,B,enter,O,enter,234,1,248.69999998807907,706037.0,7055,WL,A,13.0
6,25.325999975204468,distr,34674.00002479553,Thu Aug 14 2025 10:01:13 GMT-0500 (Central Daylight Time),706619.8000000119,B,enter,O,enter,323,1,333.9000000357628,706285.8999999762,7055,WL,A,14.0
6,25.72499990463257,distr,34275.00009536743,Thu Aug 14 2025 10:01:13 GMT-0500 (Central Daylight Time),707019.5,B,enter,O,enter,379,1,399.4000000357628,706620.0999999642,7055,WL,A,15.0
7,2.430999994277954,immed,57569.000005722046,Thu Aug 14 2025 10:01:13 GMT-0500 (Central Daylight Time),720482.0999999642,A,t,O,t,2421,1,2430.699999988079,718051.3999999762,7055,WL,A,1.0
7,2.6480000019073486,immed,57351.99999809265,Thu Aug 14 2025 10:01:13 GMT-0500 (Central Daylight Time),720699.5,A,tr,O,r,196,1,2648.100000023842,718051.3999999762,7055,WL,A,1.0
7,2.7330000400543213,immed,57266.99995994568,Thu Aug 14 2025 10:01:13 GMT-0500 (Central Daylight Time),720783.6999999881,A,tra,O,a,77,1,2732.300000011921,718051.3999999762,7055,WL,A,1.0
7,2.9160001277923584,immed,57083.99987220764,Thu Aug 14 2025 10:01:13 GMT-0500 (Central Daylight Time),720967.0,A,trai,O,i,168,1,2915.600000023842,718051.3999999762,7055,WL,A,1.0
7,3.0310001373291016,immed,56968.9998626709,Thu Aug 14 2025 10:01:13 GMT-0500 (Central Daylight Time),721081.8000000119,A,train,O,n,94,1,3030.400000035763,718051.3999999762,7055,WL,A,1.0
7,3.3970000743865967,immed,56602.9999256134,Thu Aug 14 2025 10:01:13 GMT-0500 (Central Daylight Time),721448.0,A,trainenter,O,enter,348,1,3396.600000023842,718051.3999999762,7055,WL,A,1.0
7,3.6640000343322754,immed,56335.999965667725,Thu Aug 14 2025 10:01:13 GMT-0500 (Central Daylight Time),721715.3999999762,A,r,O,r,257,1,267.19999998807907,721448.1999999881,7055,WL,A,2.0
7,3.764000177383423,immed,56235.99982261658,Thu Aug 14 2025 10:01:13 GMT-0500 (Central Daylight Time),721814.8999999762,A,ra,O,a,91,1,366.69999998807907,721448.1999999881,7055,WL,A,2.0
7,3.9810001850128174,immed,56018.99981498718,Thu Aug 14 2025 10:01:13 GMT-0500 (Central Daylight Time),722032.3000000119,A,rat,O,t,211,1,584.1000000238419,721448.1999999881,7055,WL,A,2.0
7,4.13100004196167,immed,55868.99995803833,Thu Aug 14 2025 10:01:13 GMT-0500 (Central Daylight Time),722182.5999999642,A,ratt,O,t,142,1,734.3999999761581,721448.1999999881,7055,WL,A,2.0
7,4.264000177383423,immed,55735.99982261658,Thu Aug 14 2025 10:01:13 GMT-0500 (Central Daylight Time),722315.3000000119,A,rattl,O,l,112,1,867.1000000238419,721448.1999999881,7055,WL,A,2.0
7,4.413000106811523,immed,55586.99989318848,Thu Aug 14 2025 10:01:13 GMT-0500 (Central Daylight Time),722464.5999999642,A,rattle,O,e,132,1,1016.3999999761581,721448.1999999881,7055,WL,A,2.0
7,4.564000129699707,immed,55435.99987030029,Thu Aug 14 2025 10:01:13 GMT-0500 (Central Daylight Time),722615.3000000119,A,rattleenter,O,enter,131,1,1167.1000000238419,721448.1999999881,7055,WL,A,2.0
7,4.88100004196167,immed,55118.99995803833,Thu Aug 14 2025 10:01:13 GMT-0500 (Central Daylight Time),722932.5,A,b,O,b,297,1,316.9000000357628,722615.5999999642,7055,WL,A,3.0
7,5.014000177383423,immed,54985.99982261658,Thu Aug 14 2025 10:01:13 GMT-0500 (Central Daylight Time),723065.1999999881,A,bo,O,o,111,1,449.60000002384186,722615.5999999642,7055,WL,A,3.0
7,5.182000160217285,immed,54817.999839782715,Thu Aug 14 2025 10:01:13 GMT-0500 (Central Daylight Time),723233.5,A,boo,O,o,155,1,617.9000000357628,722615.5999999642,7055,WL,A,3.0
7,5.3470001220703125,immed,54652.99987792969,Thu Aug 14 2025 10:01:13 GMT-0500 (Central Daylight Time),723397.6999999881,A,book,O,k,159,1,782.1000000238419,722615.5999999642,7055,WL,A,3.0
7,5.581000089645386,immed,54418.999910354614,Thu Aug 14 2025 10:01:13 GMT-0500 (Central Daylight Time),723631.6999999881,A,bookenter,O,enter,213,1,1016.1000000238419,722615.5999999642,7055,WL,A,3.0
7,7.013000011444092,immed,52986.99998855591,Thu Aug 14 2025 10:01:13 GMT-0500 (Central Daylight Time),725064.3000000119,A,h,O,h,1415,1,1432.300000011921,723632.0,7055,WL,A,4.0
7,7.080000162124634,immed,52919.999837875366,Thu Aug 14 2025 10:01:13 GMT-0500 (Central Daylight Time),725130.8999999762,A,ha,O,a,54,1,1498.8999999761581,723632.0,7055,WL,A,4.0
7,7.246999979019165,immed,52753.000020980835,Thu Aug 14 2025 10:01:13 GMT-0500 (Central Daylight Time),725298.3000000119,A,har,O,r,157,1,1666.300000011921,723632.0,7055,WL,A,4.0
7,7.646000146865845,immed,52353.999853134155,Thu Aug 14 2025 10:01:13 GMT-0500 (Central Daylight Time),725697.0,A,harp,O,p,390,1,2065.0,723632.0,7055,WL,A,4.0
7,7.947000026702881,immed,52052.99997329712,Thu Aug 14 2025 10:01:13 GMT-0500 (Central Daylight Time),725998.0999999642,A,harpenter,O,enter,285,1,2366.099999964237,723632.0,7055,WL,A,4.0
7,8.396000146865845,immed,51603.999853134155,Thu Aug 14 2025 10:01:13 GMT-0500 (Central Daylight Time),726447.1999999881,A,f,O,f,430,1,448.80000001192093,725998.3999999762,7055,WL,A,5.0
7,8.511000156402588,immed,51488.99984359741,Thu Aug 14 2025 10:01:13 GMT-0500 (Central Daylight Time),726562.1999999881,A,fi,O,i,93,1,563.8000000119209,725998.3999999762,7055,WL,A,5.0
7,8.713000059127808,immed,51286.99994087219,Thu Aug 14 2025 10:01:13 GMT-0500 (Central Daylight Time),726764.1999999881,A,fin,O,n,185,1,765.8000000119209,725998.3999999762,7055,WL,A,5.0
7,8.795000076293945,immed,51204.999923706055,Thu Aug 14 2025 10:01:13 GMT-0500 (Central Daylight Time),726846.0999999642,A,fing,O,g,65,1,847.6999999880791,725998.3999999762,7055,WL,A,5.0
7,9.013000011444092,immed,50986.99998855591,Thu Aug 14 2025 10:01:13 GMT-0500 (Central Daylight Time),727063.8999999762,A,finge,O,e,208,1,1065.5,725998.3999999762,7055,WL,A,5.0
7,9.097000122070312,immed,50902.99987792969,Thu Aug 14 2025 10:01:13 GMT-0500 (Central Daylight Time),727147.8999999762,A,finger,O,r,63,1,1149.5,725998.3999999762,7055,WL,A,5.0
7,9.263000011444092,immed,50736.99998855591,Thu Aug 14 2025 10:01:13 GMT-0500 (Central Daylight Time),727313.6999999881,A,fingerenter,O,enter,144,1,1315.300000011921,725998.3999999762,7055,WL,A,5.0
7,10.07800006866455,immed,49921.99993133545,Thu Aug 14 2025 10:01:13 GMT-0500 (Central Daylight Time),728129.5999999642,A,s,O,s,797,1,815.5999999642372,727314.0,7055,WL,A,6.0
7,10.17900013923645,immed,49820.99986076355,Thu Aug 14 2025 10:01:13 GMT-0500 (Central Daylight Time),728229.8999999762,A,sa,O,a,80,1,915.8999999761581,727314.0,7055,WL,A,6.0
7,10.331000089645386,immed,49668.999910354614,Thu Aug 14 2025 10:01:13 GMT-0500 (Central Daylight Time),728381.8999999762,A,sal,O,l,137,1,1067.8999999761581,727314.0,7055,WL,A,6.0
7,10.53000020980835,immed,49469.99979019165,Thu Aug 14 2025 10:01:13 GMT-0500 (Central Daylight Time),728581.3999999762,A,salt,O,t,184,1,1267.3999999761581,727314.0,7055,WL,A,6.0
7,10.694000005722046,immed,49305.999994277954,Thu Aug 14 2025 10:01:13 GMT-0500 (Central Daylight Time),728745.3999999762,A,saltenter,O,enter,152,1,1431.3999999761581,727314.0,7055,WL,A,6.0
7,12.82800006866455,immed,47171.99993133545,Thu Aug 14 2025 10:01:13 GMT-0500 (Central Daylight Time),730879.1999999881,A,g,O,g,2129,1,2133.600000023842,728745.5999999642,7055,WL,A,7.0
7,12.91100001335144,immed,47088.99998664856,Thu Aug 14 2025 10:01:13 GMT-0500 (Central Daylight Time),730962.0999999642,A,go,O,o,63,1,2216.5,728745.5999999642,7055,WL,A,7.0
7,13.128000020980835,immed,46871.999979019165,Thu Aug 14 2025 10:01:13 GMT-0500 (Central Daylight Time),731179.0,A,gol,O,l,196,1,2433.400000035763,728745.5999999642,7055,WL,A,7.0
7,13.211000204086304,immed,46788.999795913696,Thu Aug 14 2025 10:01:13 GMT-0500 (Central Daylight Time),731261.6999999881,A,gold,O,d,65,1,2516.100000023842,728745.5999999642,7055,WL,A,7.0
7,13.394000053405762,immed,46605.99994659424,Thu Aug 14 2025 10:01:13 GMT-0500 (Central Daylight Time),731445.6999999881,A,goldenter,O,enter,162,1,2700.100000023842,728745.5999999642,7055,WL,A,7.0
7,14.277000188827515,immed,45722.999811172485,Thu Aug 14 2025 10:01:13 GMT-0500 (Central Daylight Time),732328.5999999642,A,b,O,b,873,1,882.7999999523163,731445.8000000119,7055,WL,A,8.0
7,14.427000045776367,immed,45572.99995422363,Thu Aug 14 2025 10:01:13 GMT-0500 (Central Daylight Time),732478.5,A,bu,O,u,134,1,1032.699999988079,731445.8000000119,7055,WL,A,8.0
7,14.57800006866455,immed,45421.99993133545,Thu Aug 14 2025 10:01:13 GMT-0500 (Central Daylight Time),732629.3999999762,A,but,O,t,128,1,1183.5999999642372,731445.8000000119,7055,WL,A,8.0
7,14.745000123977661,immed,45254.99987602234,Thu Aug 14 2025 10:01:13 GMT-0500 (Central Daylight Time),732796.0999999642,A,butt,O,t,142,1,1350.2999999523163,731445.8000000119,7055,WL,A,8.0
7,15.16100001335144,immed,44838.99998664856,Thu Aug 14 2025 10:01:13 GMT-0500 (Central Daylight Time),733212.3000000119,A,butto,O,o,402,1,1766.5,731445.8000000119,7055,WL,A,8.0
7,15.378000020980835,immed,44621.999979019165,Thu Aug 14 2025 10:01:13 GMT-0500 (Central Daylight Time),733428.8000000119,A,button,O,n,203,1,1983.0,731445.8000000119,7055,WL,A,8.0
7,15.611000061035156,immed,44388.999938964844,Thu Aug 14 2025 10:01:13 GMT-0500 (Central Daylight Time),733662.0,A,buttonenter,O,enter,212,1,2216.199999988079,731445.8000000119,7055,WL,A,8.0
7,18.70900011062622,immed,41290.99988937378,Thu Aug 14 2025 10:01:13 GMT-0500 (Central Daylight Time),736760.5999999642,A,m,O,m,3082,1,3098.2999999523163,733662.3000000119,7055,WL,A,9.0
7,18.843000173568726,immed,41156.999826431274,Thu Aug 14 2025 10:01:13 GMT-0500 (Central Daylight Time),736893.8000000119,A,me,O,e,111,1,3231.5,733662.3000000119,7055,WL,A,9.0
7,18.95800018310547,immed,41041.99981689453,Thu Aug 14 2025 10:01:13 GMT-0500 (Central Daylight Time),737009.6999999881,A,mea,O,a,96,1,3347.399999976158,733662.3000000119,7055,WL,A,9.0
7,19.243000030517578,immed,40756.99996948242,Thu Aug 14 2025 10:01:13 GMT-0500 (Central Daylight Time),737293.8000000119,A,mead,O,d,266,1,3631.5,733662.3000000119,7055,WL,A,9.0
7,19.360000133514404,immed,40639.999866485596,Thu Aug 14 2025 10:01:13 GMT-0500 (Central Daylight Time),737411.0999999642,A,meado,O,o,97,1,3748.7999999523163,733662.3000000119,7055,WL,A,9.0
7,19.957000017166138,immed,40042.99998283386,Thu Aug 14 2025 10:01:13 GMT-0500 (Central Daylight Time),738008.3999999762,A,meadow,O,w,585,1,4346.099999964237,733662.3000000119,7055,WL,A,9.0
7,20.074000120162964,immed,39925.999879837036,Thu Aug 14 2025 10:01:13 GMT-0500 (Central Daylight Time),738125.5999999642,A,meadowenter,O,enter,105,1,4463.299999952316,733662.3000000119,7055,WL,A,9.0
7,20.37600016593933,immed,39623.99983406067,Thu Aug 14 2025 10:01:13 GMT-0500 (Central Daylight Time),738426.8000000119,A,l,O,l,291,1,301.0,738125.8000000119,7055,WL,A,10.0
7,20.5770001411438,immed,39422.9998588562,Thu Aug 14 2025 10:01:13 GMT-0500 (Central Daylight Time),738627.5999999642,A,lo,O,o,189,1,501.7999999523163,738125.8000000119,7055,WL,A,10.0
7,20.825000047683716,immed,39174.999952316284,Thu Aug 14 2025 10:01:13 GMT-0500 (Central Daylight Time),738876.5,A,log,O,g,237,1,750.6999999880791,738125.8000000119,7055,WL,A,10.0
7,21.042999982833862,immed,38957.00001716614,Thu Aug 14 2025 10:01:13 GMT-0500 (Central Daylight Time),739093.8000000119,A,logenter,O,enter,196,1,968.0,738125.8000000119,7055,WL,A,10.0
7,25.407000064849854,immed,34592.99993515015,Thu Aug 14 2025 10:01:13 GMT-0500 (Central Daylight Time),743458.1999999881,A,k,O,k,4346,1,4364.100000023842,739094.0999999642,7055,WL,A,11.0
7,25.52400016784668,immed,34475.99983215332,Thu Aug 14 2025 10:01:13 GMT-0500 (Central Daylight Time),743575.5999999642,A,ke,O,e,99,1,4481.5,739094.0999999642,7055,WL,A,11.0
7,25.624000072479248,immed,34375.99992752075,Thu Aug 14 2025 10:01:13 GMT-0500 (Central Daylight Time),743675.5999999642,A,key,O,y,79,1,4581.5,739094.0999999642,7055,WL,A,11.0
7,25.824000120162964,immed,34175.999879837036,Thu Aug 14 2025 10:01:13 GMT-0500 (Central Daylight Time),743874.8999999762,A,keyenter,O,enter,187,1,4780.800000011921,739094.0999999642,7055,WL,A,11.0
7,28.83899998664856,immed,31161.00001335144,Thu Aug 14 2025 10:01:13 GMT-0500 (Central Daylight Time),746890.3000000119,A,a,O,a,3005,1,3015.100000023842,743875.1999999881,7055,WL,A,12.0
7,28.990000009536743,immed,31009.999990463257,Thu Aug 14 2025 10:01:13 GMT-0500 (Central Daylight Time),747041.3999999762,A,ap,O,p,134,1,3166.199999988079,743875.1999999881,7055,WL,A,12.0
7,29.157000064849854,immed,30842.999935150146,Thu Aug 14 2025 10:01:13 GMT-0500 (Central Daylight Time),747207.8000000119,A,app,O,p,149,1,3332.600000023842,743875.1999999881,7055,WL,A,12.0
7,29.34000015258789,immed,30659.99984741211,Thu Aug 14 2025 10:01:13 GMT-0500 (Central Daylight Time),747391.6999999881,A,appl,O,l,167,1,3516.5,743875.1999999881,7055,WL,A,12.0
7,29.439000129699707,immed,30560.999870300293,Thu Aug 14 2025 10:01:13 GMT-0500 (Central Daylight Time),747490.3999999762,A,apple,O,e,86,1,3615.199999988079,743875.1999999881,7055,WL,A,12.0
7,29.605000019073486,immed,30394.999980926514,Thu Aug 14 2025 10:01:13 GMT-0500 (Central Daylight Time),747656.0,A,appleenter,O,enter,156,1,3780.800000011921,743875.1999999881,7055,WL,A,12.0
7,29.924000024795532,immed,30075.999975204468,Thu Aug 14 2025 10:01:13 GMT-0500 (Central Daylight Time),747975.5,A,h,O,h,303,1,319.30000001192093,747656.1999999881,7055,WL,A,13.0
7,30.040000200271606,immed,29959.999799728394,Thu Aug 14 2025 10:01:13 GMT-0500 (Central Daylight Time),748090.6999999881,A,ha,O,a,94,1,434.5,747656.1999999881,7055,WL,A,13.0
7,30.203999996185303,immed,29796.000003814697,Thu Aug 14 2025 10:01:13 GMT-0500 (Central Daylight Time),748255.0999999642,A,har,O,r,147,1,598.8999999761581,747656.1999999881,7055,WL,A,13.0
7,30.573000192642212,immed,29426.999807357788,Thu Aug 14 2025 10:01:13 GMT-0500 (Central Daylight Time),748624.0999999642,A,harp,O,p,349,1,967.8999999761581,747656.1999999881,7055,WL,A,13.0
7,30.90500020980835,immed,29094.99979019165,Thu Aug 14 2025 10:01:13 GMT-0500 (Central Daylight Time),748956.5,A,harpenter,O,enter,309,1,1300.300000011921,747656.1999999881,7055,WL,A,13.0
7,31.638000011444092,immed,28361.99998855591,Thu Aug 14 2025 10:01:13 GMT-0500 (Central Daylight Time),749688.6999999881,A,enter,O,enter,723,1,732.0,748956.6999999881,7055,WL,A,14.0
7,31.805000066757202,immed,28194.999933242798,Thu Aug 14 2025 10:01:13 GMT-0500 (Central Daylight Time),749855.8999999762,A,enter,O,enter,151,1,167.0,749688.8999999762,7055,WL,A,15.0
