Number,acc_sum,block,block_c,block_cond,con_img,correct,correct_response,datetime,endtime,jitter,project,response,response_time,row_sel,session_number,start_end,starttime,subject_id,task,task_vers,trial
9,1,prac,1,A,circle.png,1,m,Tue May 27 2025 17:08:28 GMT-0500 (Central Daylight Time),66547.0,1500,I,m,1205,8,1,3477.900000035763,63069.09999996424,8052,NTS,A,1
8,2,prac,1,A,circle.png,1,m,Tue May 27 2025 17:08:28 GMT-0500 (Central Daylight Time),69711.69999998808,1600,I,m,767,7,1,3157.600000023842,66554.09999996424,8052,NTS,A,2
3,3,prac,1,A,circle.png,1,z,Tue May 27 2025 17:08:28 GMT-0500 (Central Daylight Time),72325.89999997616,1200,I,z,628,3,1,2605.300000011921,69720.59999996424,8052,NTS,A,3
8,4,prac,1,A,circle.png,1,m,Tue May 27 2025 17:08:28 GMT-0500 (Central Daylight Time),75410.59999996424,1600,I,m,684,7,1,3080.0,72330.59999996424,8052,NTS,A,4
6,5,prac,1,A,circle.png,1,m,Tue May 27 2025 17:08:28 GMT-0500 (Central Daylight Time),78974.0,1900,I,m,876,5,1,3557.900000035763,75416.09999996424,8052,NTS,A,5
2,6,prac,1,A,circle.png,1,z,Tue May 27 2025 17:08:28 GMT-0500 (Central Daylight Time),82292.5,2000,I,z,539,2,1,3311.5,78981.0,8052,NTS,A,6
7,7,prac,1,A,circle.png,1,m,Tue May 27 2025 17:08:28 GMT-0500 (Central Daylight Time),85489.39999997616,1700,I,m,717,6,1,3189.600000023842,82299.79999995232,8052,NTS,A,7
2,8,prac,1,A,circle.png,1,z,Tue May 27 2025 17:08:28 GMT-0500 (Central Daylight Time),88988.0,2000,I,z,714,2,1,3492.100000023842,85495.89999997616,8052,NTS,A,8
3,9,prac,1,A,circle.png,1,z,Tue May 27 2025 17:08:28 GMT-0500 (Central Daylight Time),91655.0,1200,I,z,668,3,1,2658.400000035763,88996.59999996424,8052,NTS,A,9
9,10,prac,1,A,circle.png,1,m,Tue May 27 2025 17:08:28 GMT-0500 (Central Daylight Time),94636.69999998808,1500,I,m,689,8,1,2975.0,91661.69999998808,8052,NTS,A,10
1,11,prac,1,A,circle.png,1,z,Tue May 27 2025 17:08:28 GMT-0500 (Central Daylight Time),97100.29999995232,1000,I,z,679,1,1,2455.399999976158,94644.89999997616,8052,NTS,A,11
4,12,prac,1,A,circle.png,1,z,Tue May 27 2025 17:08:28 GMT-0500 (Central Daylight Time),100000.19999998808,1400,I,z,707,4,1,2894.100000023842,97106.09999996424,8052,NTS,A,12
1,1,prac,1,B,triangle.png,1,z,Tue May 27 2025 17:08:28 GMT-0500 (Central Daylight Time),132709.29999995232,1900,I,z,1353,1,1,4024.699999988079,128684.59999996424,8052,NTS,A,1
7,2,prac,1,B,triangle.png,1,z,Tue May 27 2025 17:08:28 GMT-0500 (Central Daylight Time),136754.89999997616,2000,I,z,1254,6,1,4036.199999988079,132718.69999998808,8052,NTS,A,2
8,3,prac,1,B,triangle.png,1,m,Tue May 27 2025 17:08:28 GMT-0500 (Central Daylight Time),139439.5,1200,I,m,696,7,1,2680.0,136759.5,8052,NTS,A,3
2,4,prac,1,B,triangle.png,1,m,Tue May 27 2025 17:08:28 GMT-0500 (Central Daylight Time),142635.09999996424,1700,I,m,702,2,1,3188.5,139446.59999996424,8052,NTS,A,4
8,5,prac,1,B,triangle.png,1,m,Tue May 27 2025 17:08:28 GMT-0500 (Central Daylight Time),145237.79999995232,1200,I,m,631,7,1,2598.399999976158,142639.39999997616,8052,NTS,A,5
9,6,prac,1,B,triangle.png,1,z,Tue May 27 2025 17:08:28 GMT-0500 (Central Daylight Time),148036.19999998808,1400,I,z,616,8,1,2792.400000035763,145243.79999995232,8052,NTS,A,6
9,6,prac,1,B,triangle.png,0,z,Tue May 27 2025 17:08:28 GMT-0500 (Central Daylight Time),151402.19999998808,1400,I,m,1182,8,1,3358.5,148043.69999998808,8052,NTS,A,7
6,7,prac,1,B,triangle.png,1,m,Tue May 27 2025 17:08:28 GMT-0500 (Central Daylight Time),154117.19999998808,1000,I,m,921,5,1,2708.400000035763,151408.79999995232,8052,NTS,A,8
4,7,prac,1,B,triangle.png,0,m,Tue May 27 2025 17:08:28 GMT-0500 (Central Daylight Time),157916.59999996424,1500,I,None,1517,4,1,3789.599999964237,154127.0,8052,NTS,A,9
3,8,prac,1,B,triangle.png,1,z,Tue May 27 2025 17:08:28 GMT-0500 (Central Daylight Time),161282.19999998808,1600,I,z,972,3,1,3357.600000023842,157924.59999996424,8052,NTS,A,10
7,9,prac,1,B,triangle.png,1,z,Tue May 27 2025 17:08:28 GMT-0500 (Central Daylight Time),164663.69999998808,2000,I,z,591,6,1,3374.800000011921,161288.89999997616,8052,NTS,A,11
6,10,prac,1,B,triangle.png,1,m,Tue May 27 2025 17:08:28 GMT-0500 (Central Daylight Time),167114.29999995232,1000,I,m,658,5,1,2442.5,164671.79999995232,8052,NTS,A,12
8,1,test,1,A,circle.png,1,m,Tue May 27 2025 17:08:28 GMT-0500 (Central Daylight Time),185556.89999997616,1600,I,m,598,7,1,2209.199999988079,183347.69999998808,8052,NTS,A,1
9,2,test,1,A,circle.png,1,m,Tue May 27 2025 17:08:28 GMT-0500 (Central Daylight Time),187606.5,1500,I,m,515,8,1,2045.4000000357628,185561.09999996424,8052,NTS,A,2
2,3,test,1,A,circle.png,1,z,Tue May 27 2025 17:08:28 GMT-0500 (Central Daylight Time),190139.39999997616,2000,I,z,507,2,1,2527.699999988079,187611.69999998808,8052,NTS,A,3
4,4,test,1,A,circle.png,1,z,Tue May 27 2025 17:08:28 GMT-0500 (Central Daylight Time),192005.59999996424,1400,I,z,438,4,1,1861.199999988079,190144.39999997616,8052,NTS,A,4
1,5,test,1,A,circle.png,1,z,Tue May 27 2025 17:08:28 GMT-0500 (Central Daylight Time),193571.89999997616,1000,I,z,540,1,1,1561.800000011921,192010.09999996424,8052,NTS,A,5
2,6,test,1,A,circle.png,1,z,Tue May 27 2025 17:08:28 GMT-0500 (Central Daylight Time),196172.29999995232,2000,I,z,583,2,1,2596.5,193575.79999995232,8052,NTS,A,6
2,7,test,1,A,circle.png,1,z,Tue May 27 2025 17:08:28 GMT-0500 (Central Daylight Time),198669.69999998808,2000,I,z,472,2,1,2492.800000011921,196176.89999997616,8052,NTS,A,7
3,8,test,1,A,circle.png,1,z,Tue May 27 2025 17:08:28 GMT-0500 (Central Daylight Time),200518.5,1200,I,z,628,3,1,1844.5,198674.0,8052,NTS,A,8
8,9,test,1,A,circle.png,1,m,Tue May 27 2025 17:08:28 GMT-0500 (Central Daylight Time),202653.39999997616,1600,I,m,516,7,1,2131.100000023842,200522.29999995232,8052,NTS,A,9
3,10,test,1,A,circle.png,1,z,Tue May 27 2025 17:08:28 GMT-0500 (Central Daylight Time),204401.19999998808,1200,I,z,516,3,1,1742.199999988079,202659.0,8052,NTS,A,10
9,11,test,1,A,circle.png,1,m,Tue May 27 2025 17:08:28 GMT-0500 (Central Daylight Time),206401.29999995232,1500,I,m,469,8,1,1996.3999999761581,204404.89999997616,8052,NTS,A,11
9,12,test,1,A,circle.png,1,m,Tue May 27 2025 17:08:28 GMT-0500 (Central Daylight Time),208515.69999998808,1500,I,m,591,8,1,2109.600000023842,206406.09999996424,8052,NTS,A,12
3,13,test,1,A,circle.png,1,z,Tue May 27 2025 17:08:28 GMT-0500 (Central Daylight Time),210317.5,1200,I,z,583,3,1,1796.0,208521.5,8052,NTS,A,13
4,14,test,1,A,circle.png,1,z,Tue May 27 2025 17:08:28 GMT-0500 (Central Daylight Time),212348.59999996424,1400,I,z,606,4,1,2027.0,210321.59999996424,8052,NTS,A,14
4,15,test,1,A,circle.png,1,z,Tue May 27 2025 17:08:28 GMT-0500 (Central Daylight Time),214284.79999995232,1400,I,z,515,4,1,1931.5,212353.29999995232,8052,NTS,A,15
3,16,test,1,A,circle.png,1,z,Tue May 27 2025 17:08:28 GMT-0500 (Central Daylight Time),215979.5,1200,I,z,473,3,1,1691.4000000357628,214288.09999996424,8052,NTS,A,16
2,17,test,1,A,circle.png,1,z,Tue May 27 2025 17:08:28 GMT-0500 (Central Daylight Time),218496.09999996424,2000,I,z,492,2,1,2513.899999976158,215982.19999998808,8052,NTS,A,17
7,18,test,1,A,circle.png,1,m,Tue May 27 2025 17:08:28 GMT-0500 (Central Daylight Time),220829.09999996424,1700,I,m,604,6,1,2329.099999964237,218500.0,8052,NTS,A,18
7,19,test,1,A,circle.png,1,m,Tue May 27 2025 17:08:28 GMT-0500 (Central Daylight Time),223095.19999998808,1700,I,m,535,6,1,2261.400000035763,220833.79999995232,8052,NTS,A,19
7,20,test,1,A,circle.png,1,m,Tue May 27 2025 17:08:28 GMT-0500 (Central Daylight Time),225310.5,1700,I,m,494,6,1,2211.300000011921,223099.19999998808,8052,NTS,A,20
7,21,test,1,A,circle.png,1,m,Tue May 27 2025 17:08:28 GMT-0500 (Central Daylight Time),227492.79999995232,1700,I,m,453,6,1,2178.0,225314.79999995232,8052,NTS,A,21
1,22,test,1,A,circle.png,1,z,Tue May 27 2025 17:08:28 GMT-0500 (Central Daylight Time),229043.59999996424,1000,I,z,523,1,1,1546.0,227497.59999996424,8052,NTS,A,22
6,23,test,1,A,circle.png,1,m,Tue May 27 2025 17:08:28 GMT-0500 (Central Daylight Time),231610.89999997616,1900,I,m,632,5,1,2563.600000023842,229047.29999995232,8052,NTS,A,23
6,24,test,1,A,circle.png,1,m,Tue May 27 2025 17:08:28 GMT-0500 (Central Daylight Time),234090.39999997616,1900,I,m,556,5,1,2474.199999988079,231616.19999998808,8052,NTS,A,24
8,1,test,1,B,triangle.png,1,m,Tue May 27 2025 17:08:28 GMT-0500 (Central Daylight Time),249869.19999998808,1200,I,m,621,7,1,1842.1000000238419,248027.09999996424,8052,NTS,A,1
2,2,test,1,B,triangle.png,1,m,Tue May 27 2025 17:08:28 GMT-0500 (Central Daylight Time),251719.69999998808,1200,I,m,623,10,1,1843.6000000238419,249876.09999996424,8052,NTS,A,2
1,3,test,1,B,triangle.png,1,z,Tue May 27 2025 17:08:28 GMT-0500 (Central Daylight Time),253719.5,1400,I,z,570,9,1,1992.800000011921,251726.69999998808,8052,NTS,A,3
4,4,test,1,B,triangle.png,1,m,Tue May 27 2025 17:08:28 GMT-0500 (Central Daylight Time),255318.19999998808,1000,I,m,577,12,1,1593.1000000238419,253725.09999996424,8052,NTS,A,4
2,5,test,1,B,triangle.png,1,m,Tue May 27 2025 17:08:28 GMT-0500 (Central Daylight Time),257817.89999997616,1700,I,m,775,2,1,2494.600000023842,255323.29999995232,8052,NTS,A,5
6,6,test,1,B,triangle.png,1,m,Tue May 27 2025 17:08:28 GMT-0500 (Central Daylight Time),259934.59999996424,1500,I,m,586,13,1,2112.300000011921,257822.29999995232,8052,NTS,A,6
4,7,test,1,B,triangle.png,1,m,Tue May 27 2025 17:08:28 GMT-0500 (Central Daylight Time),262033.39999997616,1500,I,m,565,4,1,2092.399999976158,259941.0,8052,NTS,A,7
4,8,test,1,B,triangle.png,1,m,Tue May 27 2025 17:08:28 GMT-0500 (Central Daylight Time),264049.1999999881,1500,I,m,485,4,1,2011.1000000238419,262038.09999996424,8052,NTS,A,8
9,9,test,1,B,triangle.png,1,z,Tue May 27 2025 17:08:28 GMT-0500 (Central Daylight Time),266549.2999999523,1900,I,z,583,16,1,2495.7999999523163,264053.5,8052,NTS,A,9
6,10,test,1,B,triangle.png,1,m,Tue May 27 2025 17:08:28 GMT-0500 (Central Daylight Time),268194.89999997616,1000,I,m,630,5,1,1639.699999988079,266555.1999999881,8052,NTS,A,10
1,11,test,1,B,triangle.png,1,z,Tue May 27 2025 17:08:28 GMT-0500 (Central Daylight Time),270112.7999999523,1400,I,z,493,9,1,1915.199999988079,268197.59999996424,8052,NTS,A,11
8,12,test,1,B,triangle.png,1,m,Tue May 27 2025 17:08:28 GMT-0500 (Central Daylight Time),272444.5,1700,I,m,602,15,1,2327.100000023842,270117.39999997616,8052,NTS,A,12
7,13,test,1,B,triangle.png,1,z,Tue May 27 2025 17:08:28 GMT-0500 (Central Daylight Time),274746.2999999523,1600,I,z,667,14,1,2298.2999999523163,272448.0,8052,NTS,A,13
9,14,test,1,B,triangle.png,1,z,Tue May 27 2025 17:08:28 GMT-0500 (Central Daylight Time),276743.5,1400,I,z,578,8,1,1992.2000000476837,274751.2999999523,8052,NTS,A,14
8,15,test,1,B,triangle.png,1,m,Tue May 27 2025 17:08:28 GMT-0500 (Central Daylight Time),278542.39999997616,1200,I,m,566,7,1,1796.1000000238419,276746.2999999523,8052,NTS,A,15
2,16,test,1,B,triangle.png,1,m,Tue May 27 2025 17:08:28 GMT-0500 (Central Daylight Time),280877.39999997616,1700,I,m,606,2,1,2331.800000011921,278545.59999996424,8052,NTS,A,16
3,17,test,1,B,triangle.png,1,z,Tue May 27 2025 17:08:28 GMT-0500 (Central Daylight Time),282975.09999996424,1600,I,z,478,3,1,2094.099999964237,280881.0,8052,NTS,A,17
7,18,test,1,B,triangle.png,1,z,Tue May 27 2025 17:08:28 GMT-0500 (Central Daylight Time),285558.39999997616,2000,I,z,564,6,1,2580.399999976158,282978.0,8052,NTS,A,18
1,19,test,1,B,triangle.png,1,z,Tue May 27 2025 17:08:28 GMT-0500 (Central Daylight Time),288027.39999997616,1900,I,z,541,1,1,2465.300000011921,285562.09999996424,8052,NTS,A,19
3,20,test,1,B,triangle.png,1,z,Tue May 27 2025 17:08:28 GMT-0500 (Central Daylight Time),290173.89999997616,1600,I,z,522,3,1,2143.100000023842,288030.7999999523,8052,NTS,A,20
9,21,test,1,B,triangle.png,1,z,Tue May 27 2025 17:08:28 GMT-0500 (Central Daylight Time),292106.7999999523,1400,I,z,508,8,1,1928.699999988079,290178.09999996424,8052,NTS,A,21
3,22,test,1,B,triangle.png,1,z,Tue May 27 2025 17:08:28 GMT-0500 (Central Daylight Time),294637.7999999523,2000,I,z,511,11,1,2526.699999988079,292111.09999996424,8052,NTS,A,22
6,23,test,1,B,triangle.png,1,m,Tue May 27 2025 17:08:28 GMT-0500 (Central Daylight Time),296756.5,1500,I,m,601,13,1,2114.0,294642.5,8052,NTS,A,23
9,24,test,1,B,triangle.png,1,z,Tue May 27 2025 17:08:28 GMT-0500 (Central Daylight Time),299253.5,1900,I,z,566,16,1,2493.2000000476837,296760.2999999523,8052,NTS,A,24
1,1,prac,1,C,circle.png,1,z,Tue May 27 2025 17:08:28 GMT-0500 (Central Daylight Time),342524.7999999523,1700,I,z,871,1,1,3361.2999999523163,339163.5,8052,NTS,A,1
3,2,prac,1,C,triangle.png,1,z,Tue May 27 2025 17:08:28 GMT-0500 (Central Daylight Time),345957.2999999523,1500,I,z,1148,3,1,3426.099999964237,342531.1999999881,8052,NTS,A,2
8,3,prac,1,C,triangle.png,1,m,Tue May 27 2025 17:08:28 GMT-0500 (Central Daylight Time),348889.7999999523,1400,I,m,742,7,1,2925.699999988079,345964.09999996424,8052,NTS,A,3
9,4,prac,1,C,circle.png,1,m,Tue May 27 2025 17:08:28 GMT-0500 (Central Daylight Time),352936.89999997616,1900,I,m,1356,8,1,4041.600000023842,348895.2999999523,8052,NTS,A,4
2,4,prac,1,C,triangle.png,0,m,Tue May 27 2025 17:08:28 GMT-0500 (Central Daylight Time),356816.6999999881,1600,I,None,1502,2,1,3875.400000035763,352941.2999999523,8052,NTS,A,5
9,5,prac,1,C,circle.png,1,m,Tue May 27 2025 17:08:28 GMT-0500 (Central Daylight Time),360633.2999999523,1900,I,m,1135,8,1,3813.0,356820.2999999523,8052,NTS,A,6
6,6,prac,1,C,circle.png,1,m,Tue May 27 2025 17:08:28 GMT-0500 (Central Daylight Time),364849.2999999523,2000,I,m,1424,5,1,4212.199999988079,360637.09999996424,8052,NTS,A,7
4,7,prac,1,C,circle.png,1,z,Tue May 27 2025 17:08:28 GMT-0500 (Central Daylight Time),367331.59999996424,1000,I,z,705,4,1,2478.5,364853.09999996424,8052,NTS,A,8
4,8,prac,1,C,circle.png,1,z,Tue May 27 2025 17:08:28 GMT-0500 (Central Daylight Time),370133.59999996424,1000,I,z,1002,4,1,2797.399999976158,367336.1999999881,8052,NTS,A,9
7,8,prac,1,C,triangle.png,0,z,Tue May 27 2025 17:08:28 GMT-0500 (Central Daylight Time),372780.89999997616,1200,I,m,663,6,1,2640.399999976158,370140.5,8052,NTS,A,10
3,9,prac,1,C,triangle.png,1,z,Tue May 27 2025 17:08:28 GMT-0500 (Central Daylight Time),375731.09999996424,1500,I,z,648,3,1,2943.300000011921,372787.7999999523,8052,NTS,A,11
2,10,prac,1,C,triangle.png,1,m,Tue May 27 2025 17:08:28 GMT-0500 (Central Daylight Time),378829.6999999881,1600,I,m,703,2,1,3092.300000011921,375737.39999997616,8052,NTS,A,12
4,0,test,1,C,triangle.png,0,m,Tue May 27 2025 17:08:28 GMT-0500 (Central Daylight Time),398488.2999999523,1500,I,z,833,20,1,2361.099999964237,396127.1999999881,8052,NTS,A,1
4,1,test,1,C,circle.png,1,z,Tue May 27 2025 17:08:28 GMT-0500 (Central Daylight Time),400605.39999997616,1400,I,z,688,4,1,2112.300000011921,398493.09999996424,8052,NTS,A,2
7,2,test,1,C,triangle.png,1,z,Tue May 27 2025 17:08:28 GMT-0500 (Central Daylight Time),403469.89999997616,1700,I,z,1136,22,1,2859.5,400610.39999997616,8052,NTS,A,3
3,3,test,1,C,circle.png,1,z,Tue May 27 2025 17:08:28 GMT-0500 (Central Daylight Time),406120.0,1600,I,z,1020,19,1,2644.100000023842,403475.89999997616,8052,NTS,A,4
2,4,test,1,C,triangle.png,1,m,Tue May 27 2025 17:08:28 GMT-0500 (Central Daylight Time),409502.39999997616,2000,I,m,1364,2,1,3377.199999988079,406125.1999999881,8052,NTS,A,5
8,5,test,1,C,triangle.png,1,m,Tue May 27 2025 17:08:28 GMT-0500 (Central Daylight Time),411832.7999999523,1600,I,m,697,7,1,2326.2999999523163,409506.5,8052,NTS,A,6
6,6,test,1,C,circle.png,1,m,Tue May 27 2025 17:08:28 GMT-0500 (Central Daylight Time),414516.39999997616,1900,I,m,755,5,1,2680.0,411836.39999997616,8052,NTS,A,7
8,7,test,1,C,circle.png,1,m,Tue May 27 2025 17:08:28 GMT-0500 (Central Daylight Time),416367.2999999523,1200,I,m,619,15,1,1846.7999999523163,414520.5,8052,NTS,A,8
6,8,test,1,C,circle.png,1,m,Tue May 27 2025 17:08:28 GMT-0500 (Central Daylight Time),418965.0,1900,I,m,679,21,1,2593.100000023842,416371.89999997616,8052,NTS,A,9
8,8,test,1,C,triangle.png,0,m,Tue May 27 2025 17:08:28 GMT-0500 (Central Daylight Time),421914.89999997616,1600,I,z,1322,23,1,2945.300000011921,418969.59999996424,8052,NTS,A,10
9,8,test,1,C,triangle.png,0,z,Tue May 27 2025 17:08:28 GMT-0500 (Central Daylight Time),424363.7999999523,1400,I,m,1021,16,1,2444.899999976158,421918.89999997616,8052,NTS,A,11
9,8,test,1,C,circle.png,0,m,Tue May 27 2025 17:08:28 GMT-0500 (Central Daylight Time),426846.89999997616,1500,I,z,960,24,1,2478.699999988079,424368.1999999881,8052,NTS,A,12
2,9,test,1,C,circle.png,1,z,Tue May 27 2025 17:08:28 GMT-0500 (Central Daylight Time),429344.89999997616,1700,I,z,774,18,1,2494.5,426850.39999997616,8052,NTS,A,13
3,10,test,1,C,triangle.png,1,z,Tue May 27 2025 17:08:28 GMT-0500 (Central Daylight Time),431929.1999999881,1200,I,z,1358,3,1,2578.900000035763,429350.2999999523,8052,NTS,A,14
9,11,test,1,C,circle.png,1,m,Tue May 27 2025 17:08:28 GMT-0500 (Central Daylight Time),434128.7999999523,1500,I,m,677,8,1,2195.199999988079,431933.59999996424,8052,NTS,A,15
7,11,test,1,C,triangle.png,0,z,Tue May 27 2025 17:08:28 GMT-0500 (Central Daylight Time),436894.2999999523,1700,I,m,1039,6,1,2760.399999976158,434133.89999997616,8052,NTS,A,16
7,12,test,1,C,circle.png,1,m,Tue May 27 2025 17:08:28 GMT-0500 (Central Daylight Time),439859.39999997616,2000,I,m,940,14,1,2960.199999988079,436899.1999999881,8052,NTS,A,17
2,13,test,1,C,circle.png,1,z,Tue May 27 2025 17:08:28 GMT-0500 (Central Daylight Time),442541.89999997616,1700,I,z,966,10,1,2677.699999988079,439864.1999999881,8052,NTS,A,18
6,13,test,1,C,triangle.png,0,m,Tue May 27 2025 17:08:28 GMT-0500 (Central Daylight Time),445075.09999996424,1000,I,None,1515,13,1,2528.199999988079,442546.89999997616,8052,NTS,A,19
3,14,test,1,C,circle.png,1,z,Tue May 27 2025 17:08:28 GMT-0500 (Central Daylight Time),447841.2999999523,1600,I,z,1136,11,1,2762.0,445079.2999999523,8052,NTS,A,20
1,14,test,1,C,triangle.png,0,z,Tue May 27 2025 17:08:28 GMT-0500 (Central Daylight Time),451006.7999999523,1900,I,m,1232,9,1,3160.099999964237,447846.6999999881,8052,NTS,A,21
4,15,test,1,C,triangle.png,1,m,Tue May 27 2025 17:08:28 GMT-0500 (Central Daylight Time),453687.1999999881,1500,I,m,1151,12,1,2675.100000023842,451012.09999996424,8052,NTS,A,22
1,16,test,1,C,circle.png,1,z,Tue May 27 2025 17:08:28 GMT-0500 (Central Daylight Time),455520.59999996424,1000,I,z,800,1,1,1830.5999999642372,453690.0,8052,NTS,A,23
1,17,test,1,C,triangle.png,1,z,Tue May 27 2025 17:08:28 GMT-0500 (Central Daylight Time),458771.89999997616,1900,I,z,1334,17,1,3245.300000011921,455526.59999996424,8052,NTS,A,24
6,0,test,2,C,triangle.png,0,m,Tue May 27 2025 17:08:28 GMT-0500 (Central Daylight Time),465617.59999996424,1000,I,None,1515,13,1,2526.099999964237,463091.5,8052,NTS,A,1
4,1,test,2,C,circle.png,1,z,Tue May 27 2025 17:08:28 GMT-0500 (Central Daylight Time),468235.09999996424,1400,I,z,1183,4,1,2612.5,465622.59999996424,8052,NTS,A,2
3,2,test,2,C,triangle.png,1,z,Tue May 27 2025 17:08:28 GMT-0500 (Central Daylight Time),470649.0,1200,I,z,1190,3,1,2408.800000011921,468240.1999999881,8052,NTS,A,3
4,3,test,2,C,triangle.png,1,m,Tue May 27 2025 17:08:28 GMT-0500 (Central Daylight Time),473066.0,1500,I,m,884,12,1,2412.300000011921,470653.6999999881,8052,NTS,A,4
7,4,test,2,C,circle.png,1,m,Tue May 27 2025 17:08:28 GMT-0500 (Central Daylight Time),475764.7999999523,2000,I,m,681,22,1,2693.899999976158,473070.89999997616,8052,NTS,A,5
1,5,test,2,C,triangle.png,1,z,Tue May 27 2025 17:08:28 GMT-0500 (Central Daylight Time),478812.6999999881,1900,I,z,1130,9,1,3040.699999988079,475772.0,8052,NTS,A,6
7,6,test,2,C,triangle.png,1,z,Tue May 27 2025 17:08:28 GMT-0500 (Central Daylight Time),481580.89999997616,1700,I,z,1041,6,1,2761.600000023842,478819.2999999523,8052,NTS,A,7
1,7,test,2,C,circle.png,1,z,Tue May 27 2025 17:08:28 GMT-0500 (Central Daylight Time),483429.2999999523,1000,I,z,823,1,1,1841.8999999761581,481587.39999997616,8052,NTS,A,8
9,8,test,2,C,triangle.png,1,z,Tue May 27 2025 17:08:28 GMT-0500 (Central Daylight Time),485745.59999996424,1400,I,z,884,16,1,2310.899999976158,483434.6999999881,8052,NTS,A,9
2,9,test,2,C,triangle.png,1,m,Tue May 27 2025 17:08:28 GMT-0500 (Central Daylight Time),488894.09999996424,2000,I,m,1121,2,1,3141.699999988079,485752.39999997616,8052,NTS,A,10
3,10,test,2,C,circle.png,1,z,Tue May 27 2025 17:08:28 GMT-0500 (Central Daylight Time),491394.2999999523,1600,I,z,882,19,1,2490.899999976158,488903.39999997616,8052,NTS,A,11
2,11,test,2,C,circle.png,1,z,Tue May 27 2025 17:08:28 GMT-0500 (Central Daylight Time),494376.0,1700,I,z,1252,18,1,2976.2000000476837,491399.7999999523,8052,NTS,A,12
6,12,test,2,C,triangle.png,1,m,Tue May 27 2025 17:08:28 GMT-0500 (Central Daylight Time),496542.2999999523,1000,I,m,1139,21,1,2159.899999976158,494382.39999997616,8052,NTS,A,13
6,12,test,2,C,circle.png,0,m,Tue May 27 2025 17:08:28 GMT-0500 (Central Daylight Time),499275.59999996424,1900,I,z,808,5,1,2724.099999964237,496551.5,8052,NTS,A,14
7,12,test,2,C,circle.png,0,m,Tue May 27 2025 17:08:28 GMT-0500 (Central Daylight Time),502305.6999999881,2000,I,z,1007,14,1,3022.400000035763,499283.2999999523,8052,NTS,A,15
9,13,test,2,C,triangle.png,1,z,Tue May 27 2025 17:08:28 GMT-0500 (Central Daylight Time),504957.1999999881,1400,I,z,1233,24,1,2647.0,502310.1999999881,8052,NTS,A,16
2,14,test,2,C,circle.png,1,z,Tue May 27 2025 17:08:28 GMT-0500 (Central Daylight Time),507720.89999997616,1700,I,z,1042,10,1,2755.899999976158,504965.0,8052,NTS,A,17
3,15,test,2,C,circle.png,1,z,Tue May 27 2025 17:08:28 GMT-0500 (Central Daylight Time),510486.2999999523,1600,I,z,1145,11,1,2761.199999988079,507725.09999996424,8052,NTS,A,18
9,15,test,2,C,circle.png,0,m,Tue May 27 2025 17:08:28 GMT-0500 (Central Daylight Time),513204.59999996424,1500,I,z,1191,8,1,2714.899999976158,510489.6999999881,8052,NTS,A,19
4,15,test,2,C,triangle.png,0,m,Tue May 27 2025 17:08:28 GMT-0500 (Central Daylight Time),515768.0,1500,I,z,1044,20,1,2559.400000035763,513208.59999996424,8052,NTS,A,20
8,16,test,2,C,circle.png,1,m,Tue May 27 2025 17:08:28 GMT-0500 (Central Daylight Time),518066.59999996424,1200,I,m,1073,23,1,2292.800000011921,515773.7999999523,8052,NTS,A,21
8,16,test,2,C,triangle.png,0,m,Tue May 27 2025 17:08:28 GMT-0500 (Central Daylight Time),521034.2999999523,1600,I,z,1342,7,1,2961.399999976158,518072.89999997616,8052,NTS,A,22
8,17,test,2,C,circle.png,1,m,Tue May 27 2025 17:08:28 GMT-0500 (Central Daylight Time),523331.2999999523,1200,I,m,1071,15,1,2291.699999988079,521039.59999996424,8052,NTS,A,23
1,17,test,2,C,triangle.png,0,z,Tue May 27 2025 17:08:28 GMT-0500 (Central Daylight Time),526765.5999999642,1900,I,None,1516,17,1,3428.399999976158,523337.1999999881,8052,NTS,A,24
3,1,test,3,C,circle.png,1,z,Tue May 27 2025 17:08:28 GMT-0500 (Central Daylight Time),536911.2999999523,1600,I,z,1143,11,1,2760.099999964237,534151.1999999881,8052,NTS,A,1
6,2,test,3,C,circle.png,1,m,Tue May 27 2025 17:08:28 GMT-0500 (Central Daylight Time),539562.0999999642,1900,I,m,716,21,1,2646.5,536915.5999999642,8052,NTS,A,2
6,3,test,3,C,triangle.png,1,m,Tue May 27 2025 17:08:28 GMT-0500 (Central Daylight Time),541694.3999999762,1000,I,m,1098,13,1,2128.199999988079,539566.1999999881,8052,NTS,A,3
4,4,test,3,C,circle.png,1,z,Tue May 27 2025 17:08:28 GMT-0500 (Central Daylight Time),544176.0,1400,I,z,1051,20,1,2474.800000011921,541701.1999999881,8052,NTS,A,4
3,4,test,3,C,triangle.png,0,z,Tue May 27 2025 17:08:28 GMT-0500 (Central Daylight Time),546441.7999999523,1200,I,m,1032,19,1,2260.699999988079,544181.0999999642,8052,NTS,A,5
1,5,test,3,C,triangle.png,1,z,Tue May 27 2025 17:08:28 GMT-0500 (Central Daylight Time),549323.7999999523,1900,I,z,955,9,1,2879.099999964237,546444.6999999881,8052,NTS,A,6
9,6,test,3,C,circle.png,1,m,Tue May 27 2025 17:08:28 GMT-0500 (Central Daylight Time),551541.6999999881,1500,I,m,699,24,1,2213.100000023842,549328.5999999642,8052,NTS,A,7
1,7,test,3,C,circle.png,1,z,Tue May 27 2025 17:08:28 GMT-0500 (Central Daylight Time),553490.6999999881,1000,I,z,917,1,1,1943.5,551547.1999999881,8052,NTS,A,8
7,8,test,3,C,circle.png,1,m,Tue May 27 2025 17:08:28 GMT-0500 (Central Daylight Time),556572.3999999762,2000,I,m,1056,14,1,3076.0,553496.3999999762,8052,NTS,A,9
8,9,test,3,C,circle.png,1,m,Tue May 27 2025 17:08:28 GMT-0500 (Central Daylight Time),558689.2999999523,1200,I,m,885,15,1,2113.2999999523163,556576.0,8052,NTS,A,10
2,9,test,3,C,triangle.png,0,m,Tue May 27 2025 17:08:28 GMT-0500 (Central Daylight Time),562222.3999999762,2000,I,None,1517,2,1,3528.300000011921,558694.0999999642,8052,NTS,A,11
4,10,test,3,C,triangle.png,1,m,Tue May 27 2025 17:08:28 GMT-0500 (Central Daylight Time),564603.0,1500,I,m,865,12,1,2375.600000023842,562227.3999999762,8052,NTS,A,12
7,11,test,3,C,triangle.png,1,z,Tue May 27 2025 17:08:28 GMT-0500 (Central Daylight Time),567053.6999999881,1700,I,z,733,22,1,2445.5,564608.1999999881,8052,NTS,A,13
2,11,test,3,C,triangle.png,0,m,Tue May 27 2025 17:08:28 GMT-0500 (Central Daylight Time),570266.2999999523,2000,I,z,1181,18,1,3206.899999976158,567059.3999999762,8052,NTS,A,14
9,12,test,3,C,triangle.png,1,z,Tue May 27 2025 17:08:28 GMT-0500 (Central Daylight Time),572550.2999999523,1400,I,z,853,16,1,2281.2999999523163,570269.0,8052,NTS,A,15
8,13,test,3,C,triangle.png,1,m,Tue May 27 2025 17:08:28 GMT-0500 (Central Daylight Time),574917.7999999523,1600,I,m,749,7,1,2364.599999964237,572553.1999999881,8052,NTS,A,16
1,14,test,3,C,circle.png,1,z,Tue May 27 2025 17:08:28 GMT-0500 (Central Daylight Time),576915.5,1000,I,z,974,17,1,1992.300000011921,574923.1999999881,8052,NTS,A,17
9,15,test,3,C,circle.png,1,m,Tue May 27 2025 17:08:28 GMT-0500 (Central Daylight Time),579132.0999999642,1500,I,m,701,8,1,2212.5,576919.5999999642,8052,NTS,A,18
8,16,test,3,C,triangle.png,1,m,Tue May 27 2025 17:08:28 GMT-0500 (Central Daylight Time),581948.6999999881,1600,I,m,1199,23,1,2811.100000023842,579137.5999999642,8052,NTS,A,19
2,17,test,3,C,circle.png,1,z,Tue May 27 2025 17:08:28 GMT-0500 (Central Daylight Time),584512.1999999881,1700,I,z,843,10,1,2557.900000035763,581954.2999999523,8052,NTS,A,20
6,18,test,3,C,circle.png,1,m,Tue May 27 2025 17:08:28 GMT-0500 (Central Daylight Time),587162.6999999881,1900,I,m,718,5,1,2646.699999988079,584516.0,8052,NTS,A,21
4,19,test,3,C,circle.png,1,z,Tue May 27 2025 17:08:28 GMT-0500 (Central Daylight Time),589295.6999999881,1400,I,z,703,4,1,2127.0,587168.6999999881,8052,NTS,A,22
3,19,test,3,C,triangle.png,0,z,Tue May 27 2025 17:08:28 GMT-0500 (Central Daylight Time),591544.5,1200,I,m,1018,3,1,2244.2000000476837,589300.2999999523,8052,NTS,A,23
7,20,test,3,C,triangle.png,1,z,Tue May 27 2025 17:08:28 GMT-0500 (Central Daylight Time),594577.6999999881,1700,I,z,1299,6,1,3028.100000023842,591549.5999999642,8052,NTS,A,24
8,1,test,4,C,circle.png,1,m,Tue May 27 2025 17:08:28 GMT-0500 (Central Daylight Time),599958.3999999762,1200,I,m,795,15,1,2011.3999999761581,597947.0,8052,NTS,A,1
3,1,test,4,C,triangle.png,0,z,Tue May 27 2025 17:08:28 GMT-0500 (Central Daylight Time),602059.6999999881,1200,I,m,882,19,1,2096.800000011921,599962.8999999762,8052,NTS,A,2
3,2,test,4,C,circle.png,1,z,Tue May 27 2025 17:08:28 GMT-0500 (Central Daylight Time),604508.1999999881,1600,I,z,823,11,1,2443.400000035763,602064.7999999523,8052,NTS,A,3
3,3,test,4,C,triangle.png,1,z,Tue May 27 2025 17:08:28 GMT-0500 (Central Daylight Time),606924.5,1200,I,z,1200,3,1,2412.400000035763,604512.0999999642,8052,NTS,A,4
8,4,test,4,C,triangle.png,1,m,Tue May 27 2025 17:08:28 GMT-0500 (Central Daylight Time),609838.2999999523,1600,I,m,1297,7,1,2909.099999964237,606929.1999999881,8052,NTS,A,5
8,5,test,4,C,triangle.png,1,m,Tue May 27 2025 17:08:28 GMT-0500 (Central Daylight Time),612421.0999999642,1600,I,m,956,23,1,2576.899999976158,609844.1999999881,8052,NTS,A,6
6,6,test,4,C,triangle.png,1,m,Tue May 27 2025 17:08:28 GMT-0500 (Central Daylight Time),614205.5999999642,1000,I,m,767,13,1,1779.3999999761581,612426.1999999881,8052,NTS,A,7
2,7,test,4,C,triangle.png,1,m,Tue May 27 2025 17:08:28 GMT-0500 (Central Daylight Time),617452.2999999523,2000,I,m,1221,18,1,3239.699999988079,614212.5999999642,8052,NTS,A,8
9,8,test,4,C,triangle.png,1,z,Tue May 27 2025 17:08:28 GMT-0500 (Central Daylight Time),619734.5,1400,I,z,861,16,1,2277.0,617457.5,8052,NTS,A,9
7,9,test,4,C,triangle.png,1,z,Tue May 27 2025 17:08:28 GMT-0500 (Central Daylight Time),622418.1999999881,1700,I,z,958,22,1,2677.0,619741.1999999881,8052,NTS,A,10
7,10,test,4,C,triangle.png,1,z,Tue May 27 2025 17:08:28 GMT-0500 (Central Daylight Time),624833.3999999762,1700,I,z,693,6,1,2411.699999988079,622421.6999999881,8052,NTS,A,11
1,11,test,4,C,circle.png,1,z,Tue May 27 2025 17:08:28 GMT-0500 (Central Daylight Time),626850.0,1000,I,z,982,17,1,2012.1000000238419,624837.8999999762,8052,NTS,A,12
4,12,test,4,C,circle.png,1,z,Tue May 27 2025 17:08:28 GMT-0500 (Central Daylight Time),628849.0999999642,1400,I,z,575,20,1,1993.300000011921,626855.7999999523,8052,NTS,A,13
1,13,test,4,C,triangle.png,1,z,Tue May 27 2025 17:08:28 GMT-0500 (Central Daylight Time),631847.3999999762,1900,I,z,1077,9,1,2993.699999988079,628853.6999999881,8052,NTS,A,14
2,14,test,4,C,circle.png,1,z,Tue May 27 2025 17:08:28 GMT-0500 (Central Daylight Time),634264.8999999762,1700,I,z,695,10,1,2413.5,631851.3999999762,8052,NTS,A,15
9,15,test,4,C,circle.png,1,m,Tue May 27 2025 17:08:28 GMT-0500 (Central Daylight Time),636763.5999999642,1500,I,m,967,24,1,2494.899999976158,634268.6999999881,8052,NTS,A,16
6,16,test,4,C,circle.png,1,m,Tue May 27 2025 17:08:28 GMT-0500 (Central Daylight Time),639462.5,1900,I,m,779,21,1,2695.800000011921,636766.6999999881,8052,NTS,A,17
4,17,test,4,C,triangle.png,1,m,Tue May 27 2025 17:08:28 GMT-0500 (Central Daylight Time),642229.1999999881,1500,I,m,1250,12,1,2761.900000035763,639467.2999999523,8052,NTS,A,18
1,18,test,4,C,circle.png,1,z,Tue May 27 2025 17:08:28 GMT-0500 (Central Daylight Time),644212.2999999523,1000,I,z,949,1,1,1977.2999999523163,642235.0,8052,NTS,A,19
9,19,test,4,C,circle.png,1,m,Tue May 27 2025 17:08:28 GMT-0500 (Central Daylight Time),646857.6999999881,1500,I,m,1121,8,1,2640.600000023842,644217.0999999642,8052,NTS,A,20
6,20,test,4,C,circle.png,1,m,Tue May 27 2025 17:08:28 GMT-0500 (Central Daylight Time),649525.8999999762,1900,I,m,733,5,1,2665.600000023842,646860.2999999523,8052,NTS,A,21
7,21,test,4,C,circle.png,1,m,Tue May 27 2025 17:08:28 GMT-0500 (Central Daylight Time),652293.1999999881,2000,I,m,750,14,1,2762.600000023842,649530.5999999642,8052,NTS,A,22
2,22,test,4,C,triangle.png,1,m,Tue May 27 2025 17:08:28 GMT-0500 (Central Daylight Time),655405.7999999523,2000,I,m,1094,2,1,3108.5,652297.2999999523,8052,NTS,A,23
4,22,test,4,C,circle.png,0,z,Tue May 27 2025 17:08:28 GMT-0500 (Central Daylight Time),657389.7999999523,1400,I,m,566,4,1,1978.8999999761581,655410.8999999762,8052,NTS,A,24
