acc_sum,block,block_c,change,condition,correct,correct_response,datetime,endtime,face,project,response,response_time,row_sel,session_number,start_end,starttime,subject_id,task,task_vers,trial
0,prac,1,,1-Back,,,Tue Jun 09 2026 16:17:37 GMT-0500 (Central Daylight Time),,005_o_f_d_a.png,I,space,7648,1,1,,,8120,VNB,B,0
0,prac,1,0.0,1-Back,0.0,m,Tue Jun 09 2026 16:17:37 GMT-0500 (Central Daylight Time),144015.19999980927,020_y_f_n_a.png,I,z,1085,2,1,1944.6999998092651,142070.5,8120,VNB,B,1
0,prac,1,0.0,1-Back,0.0,m,Tue Jun 09 2026 16:17:37 GMT-0500 (Central Daylight Time),146897.79999995232,007_m_m_h_a.png,I,None,2009,3,1,2873.4000000953674,144024.39999985695,8120,VNB,B,2
0,prac,1,0.0,1-Back,0.0,m,Tue Jun 09 2026 16:17:37 GMT-0500 (Central Daylight Time),149779.69999980927,016_y_m_d_a.png,I,None,2016,4,1,2878.0,146901.69999980927,8120,VNB,B,3
0,prac,1,0.0,1-Back,0.0,m,Tue Jun 09 2026 16:17:37 GMT-0500 (Central Daylight Time),152662.39999985695,005_o_f_n_a.png,I,None,2017,5,1,2878.2000000476837,149784.19999980927,8120,VNB,B,4
1,prac,1,1.0,1-Back,1.0,z,Tue Jun 09 2026 16:17:37 GMT-0500 (Central Daylight Time),154911.89999985695,016_y_m_n_a.png,I,z,1360,6,1,2241.2999999523163,152670.59999990463,8120,VNB,B,5
2,prac,1,0.0,1-Back,1.0,m,Tue Jun 09 2026 16:17:37 GMT-0500 (Central Daylight Time),156794.5,004_o_m_h_a.png,I,m,1027,7,1,1878.3000001907349,154916.19999980927,8120,VNB,B,6
3,prac,1,0.0,1-Back,1.0,m,Tue Jun 09 2026 16:17:37 GMT-0500 (Central Daylight Time),158960.59999990463,011_m_f_d_a.png,I,m,1299,8,1,2162.0,156798.59999990463,8120,VNB,B,7
3,prac,1,1.0,1-Back,0.0,z,Tue Jun 09 2026 16:17:37 GMT-0500 (Central Daylight Time),161292.89999985695,020_y_f_d_a.png,I,m,1469,9,1,2323.0,158969.89999985695,8120,VNB,B,8
3,prac,1,0.0,1-Back,0.0,m,Tue Jun 09 2026 16:17:37 GMT-0500 (Central Daylight Time),164158.79999995232,007_m_m_n_a.png,I,None,2002,10,1,2861.9000000953674,161296.89999985695,8120,VNB,B,9
3,prac,1,0.0,1-Back,0.0,m,Tue Jun 09 2026 16:17:37 GMT-0500 (Central Daylight Time),167024.59999990463,005_o_f_h_a.png,I,None,2006,11,1,2860.5999999046326,164164.0,8120,VNB,B,10
3,prac,1,0.0,1-Back,0.0,m,Tue Jun 09 2026 16:17:37 GMT-0500 (Central Daylight Time),169074.29999995232,016_y_m_d_a.png,I,z,1163,12,1,2039.7000000476837,167034.59999990463,8120,VNB,B,11
0,prac,2,0.0,1-Back,,,Tue Jun 09 2026 16:17:37 GMT-0500 (Central Daylight Time),169074.29999995232,005_o_f_d_a.png,I,a,2562,1,1,2039.7000000476837,167034.59999990463,8120,VNB,B,0
0,prac,2,0.0,1-Back,0.0,m,Tue Jun 09 2026 16:17:37 GMT-0500 (Central Daylight Time),176688.29999995232,020_y_f_n_a.png,I,z,1150,2,1,1994.5,174693.79999995232,8120,VNB,B,1
0,prac,2,0.0,1-Back,0.0,m,Tue Jun 09 2026 16:17:37 GMT-0500 (Central Daylight Time),179570.5,007_m_m_h_a.png,I,None,2006,3,1,2872.2000000476837,176698.29999995232,8120,VNB,B,2
0,prac,2,0.0,1-Back,0.0,m,Tue Jun 09 2026 16:17:37 GMT-0500 (Central Daylight Time),181703.39999985695,016_y_m_d_a.png,I,z,1346,4,1,2128.399999856949,179575.0,8120,VNB,B,3
1,prac,2,0.0,1-Back,1.0,m,Tue Jun 09 2026 16:17:37 GMT-0500 (Central Daylight Time),184186.09999990463,005_o_f_n_a.png,I,m,1622,5,1,2477.9000000953674,181708.19999980927,8120,VNB,B,4
2,prac,2,1.0,1-Back,1.0,z,Tue Jun 09 2026 16:17:37 GMT-0500 (Central Daylight Time),186501.89999985695,016_y_m_n_a.png,I,z,1426,6,1,2306.5,184195.39999985695,8120,VNB,B,5
3,prac,2,0.0,1-Back,1.0,m,Tue Jun 09 2026 16:17:37 GMT-0500 (Central Daylight Time),188601.29999995232,004_o_m_h_a.png,I,m,1245,7,1,2093.9000000953674,186507.39999985695,8120,VNB,B,6
3,prac,2,0.0,1-Back,0.0,m,Tue Jun 09 2026 16:17:37 GMT-0500 (Central Daylight Time),191117.09999990463,011_m_f_d_a.png,I,z,1653,8,1,2512.0,188605.09999990463,8120,VNB,B,7
3,prac,2,1.0,1-Back,0.0,z,Tue Jun 09 2026 16:17:37 GMT-0500 (Central Daylight Time),193982.89999985695,020_y_f_d_a.png,I,None,2007,9,1,2856.5,191126.39999985695,8120,VNB,B,8
3,prac,2,0.0,1-Back,0.0,m,Tue Jun 09 2026 16:17:37 GMT-0500 (Central Daylight Time),196415.39999985695,007_m_m_n_a.png,I,z,1562,10,1,2428.7000000476837,193986.69999980927,8120,VNB,B,9
4,prac,2,0.0,1-Back,1.0,m,Tue Jun 09 2026 16:17:37 GMT-0500 (Central Daylight Time),198098.19999980927,005_o_f_h_a.png,I,m,812,11,1,1678.5,196419.69999980927,8120,VNB,B,10
4,prac,2,0.0,1-Back,0.0,m,Tue Jun 09 2026 16:17:37 GMT-0500 (Central Daylight Time),200097.39999985695,016_y_m_d_a.png,I,z,1122,12,1,1990.3999998569489,198107.0,8120,VNB,B,11
0,prac,3,0.0,1-Back,,,Tue Jun 09 2026 16:17:37 GMT-0500 (Central Daylight Time),200097.39999985695,005_o_f_d_a.png,I,a,3139,1,1,1990.3999998569489,198107.0,8120,VNB,B,0
0,prac,3,0.0,1-Back,0.0,m,Tue Jun 09 2026 16:17:37 GMT-0500 (Central Daylight Time),208772.59999990463,020_y_f_n_a.png,I,z,1608,2,1,2489.5999999046326,206283.0,8120,VNB,B,1
0,prac,3,0.0,1-Back,0.0,m,Tue Jun 09 2026 16:17:37 GMT-0500 (Central Daylight Time),211694.0,007_m_m_h_a.png,I,None,2011,3,1,2910.2000000476837,208783.79999995232,8120,VNB,B,2
0,prac,3,0.0,1-Back,0.0,m,Tue Jun 09 2026 16:17:37 GMT-0500 (Central Daylight Time),214476.39999985695,016_y_m_d_a.png,I,None,2012,4,1,2778.2999999523163,211698.09999990463,8120,VNB,B,3
0,prac,3,0.0,1-Back,0.0,m,Tue Jun 09 2026 16:17:37 GMT-0500 (Central Daylight Time),217342.39999985695,005_o_f_n_a.png,I,None,2009,5,1,2862.2000000476837,214480.19999980927,8120,VNB,B,4
0,prac,3,1.0,1-Back,0.0,z,Tue Jun 09 2026 16:17:37 GMT-0500 (Central Daylight Time),220224.69999980927,016_y_m_n_a.png,I,None,2008,6,1,2874.0999999046326,217350.59999990463,8120,VNB,B,5
0,prac,3,0.0,1-Back,0.0,m,Tue Jun 09 2026 16:17:37 GMT-0500 (Central Daylight Time),223073.79999995232,004_o_m_h_a.png,I,None,2004,7,1,2845.0,220228.79999995232,8120,VNB,B,6
0,prac,3,0.0,1-Back,0.0,m,Tue Jun 09 2026 16:17:37 GMT-0500 (Central Daylight Time),225939.29999995232,011_m_f_d_a.png,I,None,2007,8,1,2861.7000000476837,223077.59999990463,8120,VNB,B,7
0,prac,3,1.0,1-Back,0.0,z,Tue Jun 09 2026 16:17:37 GMT-0500 (Central Daylight Time),228805.39999985695,020_y_f_d_a.png,I,None,2008,9,1,2855.899999856949,225949.5,8120,VNB,B,8
1,prac,3,0.0,1-Back,1.0,m,Tue Jun 09 2026 16:17:37 GMT-0500 (Central Daylight Time),231188.0,007_m_m_n_a.png,I,m,1514,10,1,2378.600000143051,228809.39999985695,8120,VNB,B,9
1,prac,3,0.0,1-Back,0.0,m,Tue Jun 09 2026 16:17:37 GMT-0500 (Central Daylight Time),233137.29999995232,005_o_f_h_a.png,I,z,1101,11,1,1944.4000000953674,231192.89999985695,8120,VNB,B,10
1,prac,3,0.0,1-Back,0.0,m,Tue Jun 09 2026 16:17:37 GMT-0500 (Central Daylight Time),235320.0,016_y_m_d_a.png,I,z,1306,12,1,2173.300000190735,233146.69999980927,8120,VNB,B,11
0,test,1,0.0,1-Back,,,Tue Jun 09 2026 16:17:37 GMT-0500 (Central Daylight Time),235320.0,020_y_f_d_a.png,I,space,1911,1,1,2173.300000190735,233146.69999980927,8120,VNB,B,0
1,test,1,0.0,1-Back,1.0,m,Tue Jun 09 2026 16:17:37 GMT-0500 (Central Daylight Time),258879.19999980927,011_m_f_n_a.png,I,m,1635,2,1,2662.5,256216.69999980927,8120,VNB,B,1
2,test,1,0.0,1-Back,1.0,m,Tue Jun 09 2026 16:17:37 GMT-0500 (Central Daylight Time),261828.39999985695,004_o_m_h_a.png,I,m,1922,3,1,2946.7999999523163,258881.59999990463,8120,VNB,B,2
3,test,1,1.0,1-Back,1.0,z,Tue Jun 09 2026 16:17:37 GMT-0500 (Central Daylight Time),263894.0,007_m_m_h_a.png,I,z,1044,4,1,2062.9000000953674,261831.09999990463,8120,VNB,B,3
4,test,1,0.0,1-Back,1.0,m,Tue Jun 09 2026 16:17:37 GMT-0500 (Central Daylight Time),265793.7999999523,005_o_f_n_a.png,I,m,866,5,1,1897.1000001430511,263896.69999980927,8120,VNB,B,4
4,test,1,0.0,1-Back,0.0,m,Tue Jun 09 2026 16:17:37 GMT-0500 (Central Daylight Time),268559.5,016_y_m_d_a.png,I,z,1735,6,1,2763.300000190735,265796.19999980927,8120,VNB,B,5
5,test,1,1.0,1-Back,1.0,z,Tue Jun 09 2026 16:17:37 GMT-0500 (Central Daylight Time),271308.39999985695,011_m_f_d_a.png,I,z,1729,7,1,2745.5,268562.89999985695,8120,VNB,B,6
6,test,1,0.0,1-Back,1.0,m,Tue Jun 09 2026 16:17:37 GMT-0500 (Central Daylight Time),273424.69999980927,020_y_f_h_a.png,I,m,1084,8,1,2114.0999999046326,271310.59999990463,8120,VNB,B,7
7,test,1,0.0,1-Back,1.0,m,Tue Jun 09 2026 16:17:37 GMT-0500 (Central Daylight Time),276156.89999985695,004_o_m_n_a.png,I,m,1704,9,1,2729.7999999523163,273427.09999990463,8120,VNB,B,8
8,test,1,0.0,1-Back,1.0,m,Tue Jun 09 2026 16:17:37 GMT-0500 (Central Daylight Time),278972.89999985695,016_y_m_h_a.png,I,m,1788,10,1,2813.0999999046326,276159.7999999523,8120,VNB,B,9
9,test,1,0.0,1-Back,1.0,m,Tue Jun 09 2026 16:17:37 GMT-0500 (Central Daylight Time),281838.5,004_o_m_d_a.png,I,m,1843,11,1,2863.0,278975.5,8120,VNB,B,10
10,test,1,1.0,1-Back,1.0,z,Tue Jun 09 2026 16:17:37 GMT-0500 (Central Daylight Time),284021.2999999523,005_o_f_d_a.png,I,z,1155,12,1,2180.4000000953674,281840.89999985695,8120,VNB,B,11
10,test,1,0.0,1-Back,0.0,m,Tue Jun 09 2026 16:17:37 GMT-0500 (Central Daylight Time),286203.7999999523,007_m_m_n_a.png,I,z,1156,13,1,2180.0,284023.7999999523,8120,VNB,B,12
11,test,1,1.0,1-Back,1.0,z,Tue Jun 09 2026 16:17:37 GMT-0500 (Central Daylight Time),288403.0,020_y_f_n_a.png,I,z,1181,14,1,2196.7000000476837,286206.2999999523,8120,VNB,B,13
11,test,1,0.0,1-Back,0.0,m,Tue Jun 09 2026 16:17:37 GMT-0500 (Central Daylight Time),291435.69999980927,011_m_f_h_a.png,I,None,2016,15,1,3030.2999999523163,288405.39999985695,8120,VNB,B,14
12,test,1,0.0,1-Back,1.0,m,Tue Jun 09 2026 16:17:37 GMT-0500 (Central Daylight Time),293568.0,007_m_m_d_a.png,I,m,1109,16,1,2129.5,291438.5,8120,VNB,B,15
12,test,1,0.0,1-Back,0.0,m,Tue Jun 09 2026 16:17:37 GMT-0500 (Central Daylight Time),295584.39999985695,016_y_m_n_a.png,I,z,992,17,1,2014.0999999046326,293570.2999999523,8120,VNB,B,16
13,test,1,0.0,1-Back,1.0,m,Tue Jun 09 2026 16:17:37 GMT-0500 (Central Daylight Time),298133.39999985695,005_o_f_h_a.png,I,m,1520,18,1,2546.399999856949,295587.0,8120,VNB,B,17
0,test,2,0.0,1-Back,,,Tue Jun 09 2026 16:17:37 GMT-0500 (Central Daylight Time),298133.39999985695,016_y_m_n_a.png,I,space,1963,1,1,2546.399999856949,295587.0,8120,VNB,B,0
1,test,2,0.0,1-Back,1.0,m,Tue Jun 09 2026 16:17:37 GMT-0500 (Central Daylight Time),304248.2999999523,020_y_f_h_a.png,I,m,1115,2,1,2129.5,302118.7999999523,8120,VNB,B,1
2,test,2,1.0,1-Back,1.0,m,Tue Jun 09 2026 16:17:37 GMT-0500 (Central Daylight Time),306764.19999980927,004_o_m_n_a.png,I,m,1489,3,1,2512.5,304251.69999980927,8120,VNB,B,2
2,test,2,0.0,1-Back,0.0,m,Tue Jun 09 2026 16:17:37 GMT-0500 (Central Daylight Time),309263.5,011_m_f_d_a.png,I,z,1477,4,1,2496.7000000476837,306766.7999999523,8120,VNB,B,3
3,test,2,0.0,1-Back,1.0,z,Tue Jun 09 2026 16:17:37 GMT-0500 (Central Daylight Time),311496.0,007_m_m_d_a.png,I,z,1201,5,1,2230.0,309266.0,8120,VNB,B,4
4,test,2,0.0,1-Back,1.0,m,Tue Jun 09 2026 16:17:37 GMT-0500 (Central Daylight Time),313795.39999985695,016_y_m_h_a.png,I,m,1279,6,1,2296.7000000476837,311498.69999980927,8120,VNB,B,5
5,test,2,1.0,1-Back,1.0,z,Tue Jun 09 2026 16:17:37 GMT-0500 (Central Daylight Time),315361.5,005_o_f_h_a.png,I,z,542,7,1,1561.2000000476837,313800.2999999523,8120,VNB,B,6
6,test,2,0.0,1-Back,1.0,m,Tue Jun 09 2026 16:17:37 GMT-0500 (Central Daylight Time),317060.69999980927,011_m_f_n_a.png,I,m,680,8,1,1696.5999999046326,315364.09999990463,8120,VNB,B,7
6,test,2,0.0,1-Back,0.0,m,Tue Jun 09 2026 16:17:37 GMT-0500 (Central Daylight Time),319060.39999985695,020_y_f_d_a.png,I,z,972,9,1,1997.0999999046326,317063.2999999523,8120,VNB,B,8
6,test,2,0.0,1-Back,0.0,m,Tue Jun 09 2026 16:17:37 GMT-0500 (Central Daylight Time),321393.19999980927,007_m_m_n_a.png,I,z,1316,10,1,2330.5,319062.69999980927,8120,VNB,B,9
7,test,2,1.0,1-Back,1.0,m,Tue Jun 09 2026 16:17:37 GMT-0500 (Central Daylight Time),323692.0,011_m_f_h_a.png,I,m,1281,11,1,2293.0,321399.0,8120,VNB,B,10
8,test,2,0.0,1-Back,1.0,z,Tue Jun 09 2026 16:17:37 GMT-0500 (Central Daylight Time),325859.2999999523,004_o_m_h_a.png,I,z,1148,12,1,2164.9000000953674,323694.39999985695,8120,VNB,B,11
9,test,2,0.0,1-Back,1.0,m,Tue Jun 09 2026 16:17:37 GMT-0500 (Central Daylight Time),327574.2999999523,016_y_m_d_a.png,I,m,687,13,1,1711.7999999523163,325862.5,8120,VNB,B,12
10,test,2,0.0,1-Back,1.0,m,Tue Jun 09 2026 16:17:37 GMT-0500 (Central Daylight Time),329673.89999985695,005_o_f_n_a.png,I,m,1075,14,1,2097.2999999523163,327576.59999990463,8120,VNB,B,13
11,test,2,0.0,1-Back,1.0,z,Tue Jun 09 2026 16:17:37 GMT-0500 (Central Daylight Time),331823.19999980927,020_y_f_n_a.png,I,z,1120,15,1,2144.5999999046326,329678.59999990463,8120,VNB,B,14
12,test,2,1.0,1-Back,1.0,m,Tue Jun 09 2026 16:17:37 GMT-0500 (Central Daylight Time),333905.69999980927,007_m_m_h_a.png,I,m,1066,16,1,2080.0999999046326,331825.59999990463,8120,VNB,B,15
13,test,2,0.0,1-Back,1.0,m,Tue Jun 09 2026 16:17:37 GMT-0500 (Central Daylight Time),336287.89999985695,005_o_f_d_a.png,I,m,1351,17,1,2379.5999999046326,333908.2999999523,8120,VNB,B,16
14,test,2,1.0,1-Back,1.0,z,Tue Jun 09 2026 16:17:37 GMT-0500 (Central Daylight Time),338420.7999999523,004_o_m_d_a.png,I,z,1113,18,1,2130.100000143051,336290.69999980927,8120,VNB,B,17
0,test,3,1.0,1-Back,,,Tue Jun 09 2026 16:17:37 GMT-0500 (Central Daylight Time),338420.7999999523,005_o_f_h_a.png,I,space,1213,1,1,2130.100000143051,336290.69999980927,8120,VNB,B,0
1,test,3,0.0,1-Back,1.0,m,Tue Jun 09 2026 16:17:37 GMT-0500 (Central Daylight Time),343602.69999980927,011_m_f_d_a.png,I,m,839,2,1,1863.5999999046326,341739.09999990463,8120,VNB,B,1
1,test,3,1.0,1-Back,0.0,m,Tue Jun 09 2026 16:17:37 GMT-0500 (Central Daylight Time),345868.7999999523,007_m_m_n_a.png,I,z,1239,3,1,2263.600000143051,343605.19999980927,8120,VNB,B,2
1,test,3,0.0,1-Back,0.0,z,Tue Jun 09 2026 16:17:37 GMT-0500 (Central Daylight Time),348900.89999985695,005_o_f_n_a.png,I,None,2016,4,1,3029.7999999523163,345871.09999990463,8120,VNB,B,3
1,test,3,1.0,1-Back,0.0,m,Tue Jun 09 2026 16:17:37 GMT-0500 (Central Daylight Time),351183.59999990463,004_o_m_d_a.png,I,z,1252,5,1,2277.0999999046326,348906.5,8120,VNB,B,4
2,test,3,0.0,1-Back,1.0,m,Tue Jun 09 2026 16:17:37 GMT-0500 (Central Daylight Time),353349.5,020_y_f_h_a.png,I,m,1137,6,1,2163.600000143051,351185.89999985695,8120,VNB,B,5
3,test,3,0.0,1-Back,1.0,z,Tue Jun 09 2026 16:17:37 GMT-0500 (Central Daylight Time),355832.19999980927,016_y_m_h_a.png,I,z,1451,7,1,2480.0,353352.19999980927,8120,VNB,B,6
4,test,3,0.0,1-Back,1.0,m,Tue Jun 09 2026 16:17:37 GMT-0500 (Central Daylight Time),357448.09999990463,011_m_f_n_a.png,I,m,592,8,1,1613.0,355835.09999990463,8120,VNB,B,7
5,test,3,0.0,1-Back,1.0,m,Tue Jun 09 2026 16:17:37 GMT-0500 (Central Daylight Time),360147.39999985695,020_y_f_d_a.png,I,m,1680,9,1,2696.7000000476837,357450.69999980927,8120,VNB,B,8
6,test,3,1.0,1-Back,1.0,m,Tue Jun 09 2026 16:17:37 GMT-0500 (Central Daylight Time),362980.0,004_o_m_n_a.png,I,m,1814,10,1,2830.2000000476837,360149.7999999523,8120,VNB,B,9
7,test,3,0.0,1-Back,1.0,m,Tue Jun 09 2026 16:17:37 GMT-0500 (Central Daylight Time),364812.5,007_m_m_h_a.png,I,m,804,11,1,1829.9000000953674,362982.59999990463,8120,VNB,B,10
8,test,3,0.0,1-Back,1.0,z,Tue Jun 09 2026 16:17:37 GMT-0500 (Central Daylight Time),366895.39999985695,011_m_f_h_a.png,I,z,1061,12,1,2080.399999856949,364815.0,8120,VNB,B,11
9,test,3,1.0,1-Back,1.0,m,Tue Jun 09 2026 16:17:37 GMT-0500 (Central Daylight Time),368611.69999980927,005_o_f_d_a.png,I,m,690,13,1,1713.5999999046326,366898.09999990463,8120,VNB,B,12
9,test,3,0.0,1-Back,0.0,z,Tue Jun 09 2026 16:17:37 GMT-0500 (Central Daylight Time),370244.39999985695,007_m_m_d_a.png,I,m,605,14,1,1630.3999998569489,368614.0,8120,VNB,B,13
9,test,3,0.0,1-Back,0.0,m,Tue Jun 09 2026 16:17:37 GMT-0500 (Central Daylight Time),373276.89999985695,016_y_m_n_a.png,I,None,2015,15,1,3029.7000000476837,370247.19999980927,8120,VNB,B,14
10,test,3,1.0,1-Back,1.0,m,Tue Jun 09 2026 16:17:37 GMT-0500 (Central Daylight Time),375692.5,004_o_m_h_a.png,I,m,1389,16,1,2413.100000143051,373279.39999985695,8120,VNB,B,15
11,test,3,0.0,1-Back,1.0,m,Tue Jun 09 2026 16:17:37 GMT-0500 (Central Daylight Time),378142.0,016_y_m_d_a.png,I,m,1429,17,1,2446.600000143051,375695.39999985695,8120,VNB,B,16
11,test,3,1.0,1-Back,0.0,m,Tue Jun 09 2026 16:17:37 GMT-0500 (Central Daylight Time),380507.7999999523,020_y_f_n_a.png,I,z,1348,18,1,2363.0,378144.7999999523,8120,VNB,B,17
0,test,4,1.0,1-Back,,,Tue Jun 09 2026 16:17:37 GMT-0500 (Central Daylight Time),380507.7999999523,007_m_m_d_a.png,I,space,1269,1,1,2363.0,378144.7999999523,8120,VNB,B,0
1,test,4,0.0,1-Back,1.0,z,Tue Jun 09 2026 16:17:37 GMT-0500 (Central Daylight Time),385839.39999985695,004_o_m_d_a.png,I,z,1010,2,1,2030.0999999046326,383809.2999999523,8120,VNB,B,1
2,test,4,0.0,1-Back,1.0,m,Tue Jun 09 2026 16:17:37 GMT-0500 (Central Daylight Time),387972.09999990463,016_y_m_h_a.png,I,m,1113,3,1,2130.0999999046326,385842.0,8120,VNB,B,2
3,test,4,0.0,1-Back,1.0,m,Tue Jun 09 2026 16:17:37 GMT-0500 (Central Daylight Time),389804.7999999523,011_m_f_n_a.png,I,m,804,4,1,1830.2999999523163,387974.5,8120,VNB,B,3
4,test,4,1.0,1-Back,1.0,m,Tue Jun 09 2026 16:17:37 GMT-0500 (Central Daylight Time),392370.89999985695,005_o_f_h_a.png,I,m,1541,5,1,2563.399999856949,389807.5,8120,VNB,B,4
5,test,4,0.0,1-Back,1.0,m,Tue Jun 09 2026 16:17:37 GMT-0500 (Central Daylight Time),394369.7999999523,007_m_m_n_a.png,I,m,982,6,1,1996.4000000953674,392373.39999985695,8120,VNB,B,5
5,test,4,0.0,1-Back,0.0,m,Tue Jun 09 2026 16:17:37 GMT-0500 (Central Daylight Time),396636.0,016_y_m_d_a.png,I,z,1246,7,1,2263.4000000953674,394372.59999990463,8120,VNB,B,6
6,test,4,1.0,1-Back,1.0,z,Tue Jun 09 2026 16:17:37 GMT-0500 (Central Daylight Time),398985.2999999523,020_y_f_d_a.png,I,z,1325,8,1,2346.7000000476837,396638.59999990463,8120,VNB,B,7
7,test,4,0.0,1-Back,1.0,m,Tue Jun 09 2026 16:17:37 GMT-0500 (Central Daylight Time),401018.19999980927,011_m_f_h_a.png,I,m,1000,9,1,2030.3999998569489,398987.7999999523,8120,VNB,B,8
8,test,4,0.0,1-Back,1.0,z,Tue Jun 09 2026 16:17:37 GMT-0500 (Central Daylight Time),402667.5,004_o_m_h_a.png,I,z,623,10,1,1646.6000001430511,401020.89999985695,8120,VNB,B,9
9,test,4,1.0,1-Back,1.0,m,Tue Jun 09 2026 16:17:37 GMT-0500 (Central Daylight Time),404949.89999985695,005_o_f_n_a.png,I,m,1253,11,1,2279.899999856949,402670.0,8120,VNB,B,10
9,test,4,0.0,1-Back,0.0,m,Tue Jun 09 2026 16:17:37 GMT-0500 (Central Daylight Time),406549.7999999523,011_m_f_d_a.png,I,z,570,12,1,1597.4000000953674,404952.39999985695,8120,VNB,B,11
9,test,4,0.0,1-Back,0.0,m,Tue Jun 09 2026 16:17:37 GMT-0500 (Central Daylight Time),408483.39999985695,020_y_f_n_a.png,I,z,916,13,1,1930.5999999046326,406552.7999999523,8120,VNB,B,12
9,test,4,0.0,1-Back,0.0,m,Tue Jun 09 2026 16:17:37 GMT-0500 (Central Daylight Time),410581.7999999523,005_o_f_d_a.png,I,z,1071,14,1,2095.7999999523163,408486.0,8120,VNB,B,13
10,test,4,0.0,1-Back,1.0,m,Tue Jun 09 2026 16:17:37 GMT-0500 (Central Daylight Time),412231.2999999523,020_y_f_h_a.png,I,m,618,15,1,1646.9000000953674,410584.39999985695,8120,VNB,B,14
11,test,4,1.0,1-Back,1.0,z,Tue Jun 09 2026 16:17:37 GMT-0500 (Central Daylight Time),414213.59999990463,007_m_m_h_a.png,I,z,961,16,1,1979.5999999046326,412234.0,8120,VNB,B,15
12,test,4,0.0,1-Back,1.0,m,Tue Jun 09 2026 16:17:37 GMT-0500 (Central Daylight Time),415963.19999980927,004_o_m_n_a.png,I,m,730,17,1,1747.3999998569489,414215.7999999523,8120,VNB,B,16
13,test,4,1.0,1-Back,1.0,z,Tue Jun 09 2026 16:17:37 GMT-0500 (Central Daylight Time),418212.69999980927,016_y_m_n_a.png,I,z,1230,18,1,2247.0999999046326,415965.59999990463,8120,VNB,B,17
0,test,5,1.0,1-Back,,,Tue Jun 09 2026 16:17:37 GMT-0500 (Central Daylight Time),418212.69999980927,004_o_m_n_a.png,I,space,1116,1,1,2247.0999999046326,415965.59999990463,8120,VNB,B,0
1,test,5,1.0,1-Back,1.0,m,Tue Jun 09 2026 16:17:37 GMT-0500 (Central Daylight Time),423411.09999990463,005_o_f_h_a.png,I,m,1023,2,1,2047.0,421364.09999990463,8120,VNB,B,1
1,test,5,0.0,1-Back,0.0,m,Tue Jun 09 2026 16:17:37 GMT-0500 (Central Daylight Time),426443.39999985695,016_y_m_d_a.png,I,None,2015,3,1,3029.7999999523163,423413.59999990463,8120,VNB,B,2
2,test,5,0.0,1-Back,1.0,z,Tue Jun 09 2026 16:17:37 GMT-0500 (Central Daylight Time),428942.5,004_o_m_d_a.png,I,z,1469,4,1,2496.600000143051,426445.89999985695,8120,VNB,B,3
3,test,5,0.0,1-Back,1.0,m,Tue Jun 09 2026 16:17:37 GMT-0500 (Central Daylight Time),430875.2999999523,011_m_f_h_a.png,I,m,907,5,1,1930.2999999523163,428945.0,8120,VNB,B,4
4,test,5,0.0,1-Back,1.0,m,Tue Jun 09 2026 16:17:37 GMT-0500 (Central Daylight Time),432741.19999980927,020_y_f_n_a.png,I,m,838,6,1,1863.5,430877.69999980927,8120,VNB,B,5
4,test,5,1.0,1-Back,0.0,z,Tue Jun 09 2026 16:17:37 GMT-0500 (Central Daylight Time),434557.59999990463,005_o_f_n_a.png,I,m,787,7,1,1814.0,432743.59999990463,8120,VNB,B,6
4,test,5,0.0,1-Back,0.0,m,Tue Jun 09 2026 16:17:37 GMT-0500 (Central Daylight Time),436756.7999999523,011_m_f_d_a.png,I,z,1179,8,1,2196.7999999523163,434560.0,8120,VNB,B,7
5,test,5,0.0,1-Back,1.0,m,Tue Jun 09 2026 16:17:37 GMT-0500 (Central Daylight Time),439439.2999999523,016_y_m_h_a.png,I,m,1652,9,1,2679.7999999523163,436759.5,8120,VNB,B,8
6,test,5,0.0,1-Back,1.0,m,Tue Jun 09 2026 16:17:37 GMT-0500 (Central Daylight Time),441405.5,020_y_f_d_a.png,I,m,945,10,1,1963.5,439442.0,8120,VNB,B,9
7,test,5,0.0,1-Back,1.0,m,Tue Jun 09 2026 16:17:37 GMT-0500 (Central Daylight Time),443421.39999985695,007_m_m_n_a.png,I,m,996,11,1,2013.3999998569489,441408.0,8120,VNB,B,10
8,test,5,1.0,1-Back,1.0,z,Tue Jun 09 2026 16:17:37 GMT-0500 (Central Daylight Time),445104.0,011_m_f_n_a.png,I,z,564,12,1,1680.2000000476837,443423.7999999523,8120,VNB,B,11
9,test,5,0.0,1-Back,1.0,m,Tue Jun 09 2026 16:17:37 GMT-0500 (Central Daylight Time),446853.7999999523,004_o_m_h_a.png,I,m,720,13,1,1747.2000000476837,445106.59999990463,8120,VNB,B,12
10,test,5,0.0,1-Back,1.0,z,Tue Jun 09 2026 16:17:37 GMT-0500 (Central Daylight Time),448769.89999985695,007_m_m_h_a.png,I,z,892,14,1,1913.7000000476837,446856.19999980927,8120,VNB,B,13
11,test,5,1.0,1-Back,1.0,m,Tue Jun 09 2026 16:17:37 GMT-0500 (Central Daylight Time),450502.39999985695,005_o_f_d_a.png,I,m,711,15,1,1730.2000000476837,448772.19999980927,8120,VNB,B,14
11,test,5,0.0,1-Back,0.0,m,Tue Jun 09 2026 16:17:37 GMT-0500 (Central Daylight Time),452668.39999985695,016_y_m_n_a.png,I,z,1146,16,1,2163.5,450504.89999985695,8120,VNB,B,15
12,test,5,0.0,1-Back,1.0,m,Tue Jun 09 2026 16:17:37 GMT-0500 (Central Daylight Time),455684.2999999523,020_y_f_h_a.png,I,m,1997,17,1,3013.4000000953674,452670.89999985695,8120,VNB,B,16
12,test,5,0.0,1-Back,0.0,m,Tue Jun 09 2026 16:17:37 GMT-0500 (Central Daylight Time),457701.2999999523,007_m_m_d_a.png,I,z,997,18,1,2014.2999999523163,455687.0,8120,VNB,B,17
0,prac,1,0.0,2-Back,,,Tue Jun 09 2026 16:17:37 GMT-0500 (Central Daylight Time),457701.2999999523,011_m_f_n_a.png,I,space,2670,1,1,2014.2999999523163,455687.0,8120,VNB,B,0
0,prac,1,0.0,2-Back,,,Tue Jun 09 2026 16:17:37 GMT-0500 (Central Daylight Time),457701.2999999523,005_o_f_h_a.png,I,space,2670,2,1,2014.2999999523163,455687.0,8120,VNB,B,0
0,prac,1,0.0,2-Back,0.0,m,Tue Jun 09 2026 16:17:37 GMT-0500 (Central Daylight Time),560484.899999857,004_o_m_d_a.png,I,z,750,3,1,1596.0999999046326,558888.7999999523,8120,VNB,B,1
0,prac,1,1.0,2-Back,0.0,z,Tue Jun 09 2026 16:17:37 GMT-0500 (Central Daylight Time),563084.0,007_m_m_h_a.png,I,m,1599,4,1,2595.4000000953674,560488.5999999046,8120,VNB,B,2
0,prac,1,0.0,2-Back,0.0,m,Tue Jun 09 2026 16:17:37 GMT-0500 (Central Daylight Time),565416.6999998093,020_y_f_n_a.png,I,z,1474,5,1,2322.699999809265,563094.0,8120,VNB,B,3
1,prac,1,1.0,2-Back,1.0,z,Tue Jun 09 2026 16:17:37 GMT-0500 (Central Daylight Time),567832.5,004_o_m_h_a.png,I,z,1554,6,1,2412.2000000476837,565420.2999999523,8120,VNB,B,4
1,prac,1,1.0,2-Back,0.0,z,Tue Jun 09 2026 16:17:37 GMT-0500 (Central Daylight Time),570081.5999999046,016_y_m_n_a.png,I,m,1373,7,1,2245.0999999046326,567836.5,8120,VNB,B,5
1,prac,1,0.0,2-Back,0.0,m,Tue Jun 09 2026 16:17:37 GMT-0500 (Central Daylight Time),572197.899999857,011_m_f_d_a.png,I,z,1253,8,1,2112.5999999046326,570085.2999999523,8120,VNB,B,6
1,prac,1,0.0,2-Back,0.0,m,Tue Jun 09 2026 16:17:37 GMT-0500 (Central Daylight Time),575030.1999998093,005_o_f_d_a.png,I,z,1958,9,1,2828.5,572201.6999998093,8120,VNB,B,7
1,prac,1,0.0,2-Back,0.0,m,Tue Jun 09 2026 16:17:37 GMT-0500 (Central Daylight Time),577812.5999999046,007_m_m_h_a.png,I,None,2012,10,1,2778.7000000476837,575033.899999857,8120,VNB,B,8
1,prac,1,1.0,2-Back,0.0,z,Tue Jun 09 2026 16:17:37 GMT-0500 (Central Daylight Time),580395.2999999523,020_y_f_d_a.png,I,m,1721,11,1,2573.9000000953674,577821.399999857,8120,VNB,B,9
1,prac,1,0.0,2-Back,0.0,m,Tue Jun 09 2026 16:17:37 GMT-0500 (Central Daylight Time),582645.5999999046,004_o_m_n_a.png,I,z,1403,12,1,2246.4000000953674,580399.1999998093,8120,VNB,B,10
0,prac,2,0.0,2-Back,,,Tue Jun 09 2026 16:17:37 GMT-0500 (Central Daylight Time),582645.5999999046,011_m_f_n_a.png,I,a,3240,1,1,2246.4000000953674,580399.1999998093,8120,VNB,B,0
0,prac,2,0.0,2-Back,,,Tue Jun 09 2026 16:17:37 GMT-0500 (Central Daylight Time),582645.5999999046,005_o_f_h_a.png,I,a,3240,2,1,2246.4000000953674,580399.1999998093,8120,VNB,B,0
0,prac,2,0.0,2-Back,0.0,m,Tue Jun 09 2026 16:17:37 GMT-0500 (Central Daylight Time),593424.5999999046,004_o_m_d_a.png,I,z,1430,3,1,2278.5,591146.0999999046,8120,VNB,B,1
1,prac,2,1.0,2-Back,1.0,z,Tue Jun 09 2026 16:17:37 GMT-0500 (Central Daylight Time),595974.7999999523,007_m_m_h_a.png,I,z,1764,4,1,2546.2000000476837,593428.5999999046,8120,VNB,B,2
1,prac,2,0.0,2-Back,0.0,m,Tue Jun 09 2026 16:17:37 GMT-0500 (Central Daylight Time),598473.0,020_y_f_n_a.png,I,z,1642,5,1,2494.300000190735,595978.6999998093,8120,VNB,B,3
1,prac,2,1.0,2-Back,0.0,z,Tue Jun 09 2026 16:17:37 GMT-0500 (Central Daylight Time),601321.899999857,004_o_m_h_a.png,I,None,2004,6,1,2845.2999999523163,598476.5999999046,8120,VNB,B,4
2,prac,2,1.0,2-Back,1.0,z,Tue Jun 09 2026 16:17:37 GMT-0500 (Central Daylight Time),603538.0,016_y_m_n_a.png,I,z,1340,7,1,2212.100000143051,601325.899999857,8120,VNB,B,5
3,prac,2,0.0,2-Back,1.0,m,Tue Jun 09 2026 16:17:37 GMT-0500 (Central Daylight Time),606270.5,011_m_f_d_a.png,I,m,1869,8,1,2728.5,603542.0,8120,VNB,B,6
3,prac,2,0.0,2-Back,0.0,m,Tue Jun 09 2026 16:17:37 GMT-0500 (Central Daylight Time),608453.0,005_o_f_d_a.png,I,z,1311,9,1,2178.7000000476837,606274.2999999523,8120,VNB,B,7
3,prac,2,0.0,2-Back,0.0,m,Tue Jun 09 2026 16:17:37 GMT-0500 (Central Daylight Time),610569.2999999523,007_m_m_h_a.png,I,z,1340,10,1,2107.4000000953674,608461.899999857,8120,VNB,B,8
3,prac,2,1.0,2-Back,0.0,z,Tue Jun 09 2026 16:17:37 GMT-0500 (Central Daylight Time),613418.399999857,020_y_f_d_a.png,I,None,2001,11,1,2845.2999999523163,610573.0999999046,8120,VNB,B,9
4,prac,2,0.0,2-Back,1.0,m,Tue Jun 09 2026 16:17:37 GMT-0500 (Central Daylight Time),615834.0999999046,004_o_m_n_a.png,I,m,1568,12,1,2411.7000000476837,613422.399999857,8120,VNB,B,10
0,test,1,0.0,2-Back,,,Tue Jun 09 2026 16:17:37 GMT-0500 (Central Daylight Time),615834.0999999046,016_y_m_h_a.png,I,space,3426,1,1,2411.7000000476837,613422.399999857,8120,VNB,B,0
0,test,1,0.0,2-Back,,,Tue Jun 09 2026 16:17:37 GMT-0500 (Central Daylight Time),615834.0999999046,005_o_f_n_a.png,I,space,3426,2,1,2411.7000000476837,613422.399999857,8120,VNB,B,0
1,test,1,0.0,2-Back,1.0,z,Tue Jun 09 2026 16:17:37 GMT-0500 (Central Daylight Time),630346.0999999046,004_o_m_h_a.png,I,z,482,3,1,1496.9000000953674,628849.1999998093,8120,VNB,B,1
1,test,1,0.0,2-Back,0.0,m,Tue Jun 09 2026 16:17:37 GMT-0500 (Central Daylight Time),632662.1999998093,011_m_f_d_a.png,I,z,1287,4,1,2312.199999809265,630350.0,8120,VNB,B,2
2,test,1,1.0,2-Back,1.0,m,Tue Jun 09 2026 16:17:37 GMT-0500 (Central Daylight Time),634944.6999998093,016_y_m_n_a.png,I,m,1259,5,1,2279.5999999046326,632665.0999999046,8120,VNB,B,3
2,test,1,0.0,2-Back,0.0,z,Tue Jun 09 2026 16:17:37 GMT-0500 (Central Daylight Time),637961.5999999046,020_y_f_d_a.png,I,None,2001,6,1,3014.2999999523163,634947.2999999523,8120,VNB,B,4
2,test,1,0.0,2-Back,0.0,m,Tue Jun 09 2026 16:17:37 GMT-0500 (Central Daylight Time),640992.899999857,007_m_m_h_a.png,I,None,2016,7,1,3028.5,637964.399999857,8120,VNB,B,5
2,test,1,1.0,2-Back,0.0,m,Tue Jun 09 2026 16:17:37 GMT-0500 (Central Daylight Time),643092.1999998093,020_y_f_n_a.png,I,z,1080,8,1,2096.699999809265,640995.5,8120,VNB,B,6
3,test,1,0.0,2-Back,1.0,z,Tue Jun 09 2026 16:17:37 GMT-0500 (Central Daylight Time),645741.1999998093,005_o_f_h_a.png,I,z,1620,9,1,2646.399999856949,643094.7999999523,8120,VNB,B,7
3,test,1,0.0,2-Back,0.0,m,Tue Jun 09 2026 16:17:37 GMT-0500 (Central Daylight Time),647957.2999999523,004_o_m_d_a.png,I,z,1186,10,1,2213.7000000476837,645743.5999999046,8120,VNB,B,8
3,test,1,1.0,2-Back,0.0,m,Tue Jun 09 2026 16:17:37 GMT-0500 (Central Daylight Time),650107.6999998093,007_m_m_d_a.png,I,z,1131,11,1,2147.7999999523163,647959.899999857,8120,VNB,B,9
3,test,1,0.0,2-Back,0.0,m,Tue Jun 09 2026 16:17:37 GMT-0500 (Central Daylight Time),652839.0999999046,011_m_f_n_a.png,I,z,1702,12,1,2728.4000000953674,650110.6999998093,8120,VNB,B,10
4,test,1,0.0,2-Back,1.0,m,Tue Jun 09 2026 16:17:37 GMT-0500 (Central Daylight Time),655438.5,020_y_f_h_a.png,I,m,1578,13,1,2596.9000000953674,652841.5999999046,8120,VNB,B,11
4,test,1,0.0,2-Back,0.0,z,Tue Jun 09 2026 16:17:37 GMT-0500 (Central Daylight Time),658071.1999998093,007_m_m_n_a.png,I,m,1504,14,1,2629.7999999523163,655441.399999857,8120,VNB,B,12
4,test,1,0.0,2-Back,0.0,m,Tue Jun 09 2026 16:17:37 GMT-0500 (Central Daylight Time),659771.1999998093,016_y_m_d_a.png,I,z,681,15,1,1697.6999998092651,658073.5,8120,VNB,B,13
5,test,1,1.0,2-Back,1.0,m,Tue Jun 09 2026 16:17:37 GMT-0500 (Central Daylight Time),662536.1999998093,011_m_f_h_a.png,I,m,1743,16,1,2762.699999809265,659773.5,8120,VNB,B,14
6,test,1,0.0,2-Back,1.0,z,Tue Jun 09 2026 16:17:37 GMT-0500 (Central Daylight Time),664885.5,005_o_f_d_a.png,I,z,1328,17,1,2346.7000000476837,662538.7999999523,8120,VNB,B,15
7,test,1,0.0,2-Back,1.0,m,Tue Jun 09 2026 16:17:37 GMT-0500 (Central Daylight Time),666418.1999998093,004_o_m_n_a.png,I,m,507,18,1,1530.2999999523163,664887.899999857,8120,VNB,B,16
0,test,2,0.0,2-Back,,,Tue Jun 09 2026 16:17:37 GMT-0500 (Central Daylight Time),666418.1999998093,007_m_m_h_a.png,I,space,1855,1,1,1530.2999999523163,664887.899999857,8120,VNB,B,0
0,test,2,0.0,2-Back,,,Tue Jun 09 2026 16:17:37 GMT-0500 (Central Daylight Time),666418.1999998093,020_y_f_n_a.png,I,space,1855,2,1,1530.2999999523163,664887.899999857,8120,VNB,B,0
1,test,2,1.0,2-Back,1.0,z,Tue Jun 09 2026 16:17:37 GMT-0500 (Central Daylight Time),675432.1999998093,005_o_f_h_a.png,I,z,926,3,1,1946.6999998092651,673485.5,8120,VNB,B,1
1,test,2,0.0,2-Back,0.0,m,Tue Jun 09 2026 16:17:37 GMT-0500 (Central Daylight Time),677864.5999999046,004_o_m_d_a.png,I,z,1408,4,1,2429.9000000953674,675434.6999998093,8120,VNB,B,2
2,test,2,0.0,2-Back,1.0,m,Tue Jun 09 2026 16:17:37 GMT-0500 (Central Daylight Time),680363.6999998093,011_m_f_d_a.png,I,m,1478,5,1,2496.699999809265,677867.0,8120,VNB,B,3
3,test,2,0.0,2-Back,1.0,m,Tue Jun 09 2026 16:17:37 GMT-0500 (Central Daylight Time),682896.2999999523,016_y_m_h_a.png,I,m,1500,6,1,2527.5,680368.7999999523,8120,VNB,B,4
3,test,2,0.0,2-Back,0.0,m,Tue Jun 09 2026 16:17:37 GMT-0500 (Central Daylight Time),685345.6999998093,005_o_f_n_a.png,I,z,1433,7,1,2446.5999999046326,682899.0999999046,8120,VNB,B,5
3,test,2,1.0,2-Back,0.0,z,Tue Jun 09 2026 16:17:37 GMT-0500 (Central Daylight Time),688378.0999999046,004_o_m_h_a.png,I,None,2016,8,1,3030.0,685348.0999999046,8120,VNB,B,6
3,test,2,0.0,2-Back,0.0,m,Tue Jun 09 2026 16:17:37 GMT-0500 (Central Daylight Time),690644.5999999046,020_y_f_d_a.png,I,z,1247,9,1,2263.7999999523163,688380.7999999523,8120,VNB,B,7
3,test,2,0.0,2-Back,0.0,m,Tue Jun 09 2026 16:17:37 GMT-0500 (Central Daylight Time),692810.1999998093,016_y_m_d_a.png,I,z,1142,10,1,2160.5,690649.6999998093,8120,VNB,B,8
3,test,2,0.0,2-Back,0.0,m,Tue Jun 09 2026 16:17:37 GMT-0500 (Central Daylight Time),694942.5,007_m_m_n_a.png,I,z,1102,11,1,2129.100000143051,692813.399999857,8120,VNB,B,9
4,test,2,0.0,2-Back,1.0,m,Tue Jun 09 2026 16:17:37 GMT-0500 (Central Daylight Time),696892.0999999046,011_m_f_h_a.png,I,m,930,12,1,1947.2000000476837,694944.899999857,8120,VNB,B,10
5,test,2,1.0,2-Back,1.0,z,Tue Jun 09 2026 16:17:37 GMT-0500 (Central Daylight Time),699741.1999998093,004_o_m_n_a.png,I,z,1828,13,1,2846.5,696894.6999998093,8120,VNB,B,11
6,test,2,0.0,2-Back,1.0,m,Tue Jun 09 2026 16:17:37 GMT-0500 (Central Daylight Time),701607.1999998093,005_o_f_d_a.png,I,m,843,14,1,1863.0,699744.1999998093,8120,VNB,B,12
7,test,2,0.0,2-Back,1.0,m,Tue Jun 09 2026 16:17:37 GMT-0500 (Central Daylight Time),703885.2999999523,020_y_f_h_a.png,I,m,1249,15,1,2275.5,701609.7999999523,8120,VNB,B,13
8,test,2,0.0,2-Back,1.0,z,Tue Jun 09 2026 16:17:37 GMT-0500 (Central Daylight Time),706288.899999857,007_m_m_d_a.png,I,z,1375,16,1,2398.2000000476837,703890.6999998093,8120,VNB,B,14
8,test,2,0.0,2-Back,0.0,m,Tue Jun 09 2026 16:17:37 GMT-0500 (Central Daylight Time),708571.7999999523,016_y_m_n_a.png,I,z,1255,17,1,2280.2000000476837,706291.5999999046,8120,VNB,B,15
8,test,2,1.0,2-Back,0.0,m,Tue Jun 09 2026 16:17:37 GMT-0500 (Central Daylight Time),710904.0999999046,011_m_f_n_a.png,I,z,1309,18,1,2329.4000000953674,708574.6999998093,8120,VNB,B,16
0,test,3,1.0,2-Back,,,Tue Jun 09 2026 16:17:37 GMT-0500 (Central Daylight Time),710904.0999999046,004_o_m_n_a.png,I,space,1233,1,1,2329.4000000953674,708574.6999998093,8120,VNB,B,0
0,test,3,1.0,2-Back,,,Tue Jun 09 2026 16:17:37 GMT-0500 (Central Daylight Time),710904.0999999046,005_o_f_d_a.png,I,space,1233,2,1,2329.4000000953674,708574.6999998093,8120,VNB,B,0
1,test,3,0.0,2-Back,1.0,m,Tue Jun 09 2026 16:17:37 GMT-0500 (Central Daylight Time),719168.2999999523,020_y_f_h_a.png,I,m,943,3,1,1963.5,717204.7999999523,8120,VNB,B,1
2,test,3,0.0,2-Back,1.0,z,Tue Jun 09 2026 16:17:37 GMT-0500 (Central Daylight Time),721134.399999857,011_m_f_d_a.png,I,z,937,4,1,1963.2000000476837,719171.1999998093,8120,VNB,B,2
3,test,3,1.0,2-Back,1.0,m,Tue Jun 09 2026 16:17:37 GMT-0500 (Central Daylight Time),723483.6999998093,016_y_m_n_a.png,I,m,1331,5,1,2346.5999999046326,721137.0999999046,8120,VNB,B,3
4,test,3,0.0,2-Back,1.0,m,Tue Jun 09 2026 16:17:37 GMT-0500 (Central Daylight Time),725482.899999857,004_o_m_h_a.png,I,m,982,6,1,1996.7999999523163,723486.0999999046,8120,VNB,B,4
5,test,3,0.0,2-Back,1.0,z,Tue Jun 09 2026 16:17:37 GMT-0500 (Central Daylight Time),727244.0,020_y_f_n_a.png,I,z,606,7,1,1758.6000001430511,725485.399999857,8120,VNB,B,5
5,test,3,1.0,2-Back,0.0,m,Tue Jun 09 2026 16:17:37 GMT-0500 (Central Daylight Time),729465.0,007_m_m_d_a.png,I,z,1200,8,1,2218.600000143051,727246.399999857,8120,VNB,B,6
5,test,3,0.0,2-Back,0.0,m,Tue Jun 09 2026 16:17:37 GMT-0500 (Central Daylight Time),731347.899999857,016_y_m_d_a.png,I,z,855,9,1,1880.0,729467.899999857,8120,VNB,B,7
6,test,3,0.0,2-Back,1.0,m,Tue Jun 09 2026 16:17:37 GMT-0500 (Central Daylight Time),733463.899999857,005_o_f_h_a.png,I,m,1084,10,1,2113.5,731350.399999857,8120,VNB,B,8
6,test,3,1.0,2-Back,0.0,m,Tue Jun 09 2026 16:17:37 GMT-0500 (Central Daylight Time),735646.2999999523,011_m_f_n_a.png,I,z,1153,11,1,2177.7999999523163,733468.5,8120,VNB,B,9
6,test,3,1.0,2-Back,0.0,z,Tue Jun 09 2026 16:17:37 GMT-0500 (Central Daylight Time),738112.5999999046,007_m_m_h_a.png,I,m,1434,12,1,2463.7000000476837,735648.899999857,8120,VNB,B,10
6,test,3,0.0,2-Back,0.0,m,Tue Jun 09 2026 16:17:37 GMT-0500 (Central Daylight Time),741144.6999998093,020_y_f_d_a.png,I,None,2016,13,1,3029.7999999523163,738114.899999857,8120,VNB,B,11
6,test,3,0.0,2-Back,0.0,m,Tue Jun 09 2026 16:17:37 GMT-0500 (Central Daylight Time),743427.2999999523,005_o_f_n_a.png,I,z,1264,14,1,2279.7000000476837,741147.5999999046,8120,VNB,B,12
6,test,3,0.0,2-Back,0.0,z,Tue Jun 09 2026 16:17:37 GMT-0500 (Central Daylight Time),745860.0,004_o_m_d_a.png,I,m,1414,15,1,2430.100000143051,743429.899999857,8120,VNB,B,13
6,test,3,1.0,2-Back,0.0,m,Tue Jun 09 2026 16:17:37 GMT-0500 (Central Daylight Time),748892.2999999523,011_m_f_h_a.png,I,None,2015,16,1,3029.7000000476837,745862.5999999046,8120,VNB,B,14
6,test,3,0.0,2-Back,0.0,m,Tue Jun 09 2026 16:17:37 GMT-0500 (Central Daylight Time),751110.2999999523,007_m_m_n_a.png,I,z,1188,17,1,2215.4000000953674,748894.899999857,8120,VNB,B,15
6,test,3,0.0,2-Back,0.0,z,Tue Jun 09 2026 16:17:37 GMT-0500 (Central Daylight Time),753057.5999999046,016_y_m_h_a.png,I,m,932,18,1,1940.7000000476837,751116.899999857,8120,VNB,B,16
0,test,4,0.0,2-Back,,,Tue Jun 09 2026 16:17:37 GMT-0500 (Central Daylight Time),753057.5999999046,011_m_f_n_a.png,I,space,1184,1,1,1940.7000000476837,751116.899999857,8120,VNB,B,0
0,test,4,0.0,2-Back,,,Tue Jun 09 2026 16:17:37 GMT-0500 (Central Daylight Time),753057.5999999046,004_o_m_n_a.png,I,space,1184,2,1,1940.7000000476837,751116.899999857,8120,VNB,B,0
1,test,4,1.0,2-Back,1.0,m,Tue Jun 09 2026 16:17:37 GMT-0500 (Central Daylight Time),761121.7999999523,016_y_m_h_a.png,I,m,650,3,1,1663.6000001430511,759458.1999998093,8120,VNB,B,1
1,test,4,1.0,2-Back,0.0,m,Tue Jun 09 2026 16:17:37 GMT-0500 (Central Daylight Time),763171.1999998093,005_o_f_d_a.png,I,z,1024,4,1,2046.8999998569489,761124.2999999523,8120,VNB,B,2
1,test,4,0.0,2-Back,0.0,z,Tue Jun 09 2026 16:17:37 GMT-0500 (Central Daylight Time),764837.1999998093,004_o_m_h_a.png,I,m,638,5,1,1663.3999998569489,763173.7999999523,8120,VNB,B,3
1,test,4,0.0,2-Back,0.0,m,Tue Jun 09 2026 16:17:37 GMT-0500 (Central Daylight Time),767436.6999998093,007_m_m_n_a.png,I,z,1572,6,1,2597.2999999523163,764839.399999857,8120,VNB,B,4
1,test,4,0.0,2-Back,0.0,m,Tue Jun 09 2026 16:17:37 GMT-0500 (Central Daylight Time),770069.0,011_m_f_d_a.png,I,z,1612,7,1,2626.7000000476837,767442.2999999523,8120,VNB,B,5
2,test,4,0.0,2-Back,1.0,z,Tue Jun 09 2026 16:17:37 GMT-0500 (Central Daylight Time),772751.5999999046,020_y_f_n_a.png,I,z,1660,8,1,2680.0999999046326,770071.5,8120,VNB,B,6
3,test,4,1.0,2-Back,1.0,m,Tue Jun 09 2026 16:17:37 GMT-0500 (Central Daylight Time),774529.5999999046,005_o_f_h_a.png,I,m,745,9,1,1775.5999999046326,772754.0,8120,VNB,B,7
3,test,4,0.0,2-Back,0.0,m,Tue Jun 09 2026 16:17:37 GMT-0500 (Central Daylight Time),777566.6999998093,007_m_m_h_a.png,I,None,2016,10,1,3031.5,774535.1999998093,8120,VNB,B,8
4,test,4,0.0,2-Back,1.0,m,Tue Jun 09 2026 16:17:37 GMT-0500 (Central Daylight Time),780465.7999999523,020_y_f_d_a.png,I,m,1882,11,1,2896.600000143051,777569.1999998093,8120,VNB,B,9
5,test,4,0.0,2-Back,1.0,m,Tue Jun 09 2026 16:17:37 GMT-0500 (Central Daylight Time),782348.5999999046,016_y_m_n_a.png,I,m,854,12,1,1880.5,780468.0999999046,8120,VNB,B,10
6,test,4,0.0,2-Back,1.0,z,Tue Jun 09 2026 16:17:37 GMT-0500 (Central Daylight Time),784364.399999857,004_o_m_d_a.png,I,z,988,13,1,2013.2999999523163,782351.0999999046,8120,VNB,B,11
7,test,4,1.0,2-Back,1.0,m,Tue Jun 09 2026 16:17:37 GMT-0500 (Central Daylight Time),787147.0,011_m_f_h_a.png,I,m,1756,14,1,2780.2000000476837,784366.7999999523,8120,VNB,B,12
7,test,4,1.0,2-Back,0.0,m,Tue Jun 09 2026 16:17:37 GMT-0500 (Central Daylight Time),789246.399999857,020_y_f_h_a.png,I,z,1078,15,1,2096.7999999523163,787149.5999999046,8120,VNB,B,13
7,test,4,0.0,2-Back,0.0,m,Tue Jun 09 2026 16:17:37 GMT-0500 (Central Daylight Time),792278.899999857,005_o_f_n_a.png,I,None,2016,16,1,3030.0,789248.899999857,8120,VNB,B,14
7,test,4,0.0,2-Back,0.0,m,Tue Jun 09 2026 16:17:37 GMT-0500 (Central Daylight Time),794578.0,016_y_m_d_a.png,I,z,1274,17,1,2296.4000000953674,792281.5999999046,8120,VNB,B,15
7,test,4,1.0,2-Back,0.0,m,Tue Jun 09 2026 16:17:37 GMT-0500 (Central Daylight Time),797610.6999998093,007_m_m_d_a.png,I,None,2016,18,1,3030.199999809265,794580.5,8120,VNB,B,16
0,test,5,1.0,2-Back,,,Tue Jun 09 2026 16:17:37 GMT-0500 (Central Daylight Time),797610.6999998093,020_y_f_d_a.png,I,space,1231,1,1,3030.199999809265,794580.5,8120,VNB,B,0
0,test,5,1.0,2-Back,,,Tue Jun 09 2026 16:17:37 GMT-0500 (Central Daylight Time),797610.6999998093,005_o_f_h_a.png,I,space,1231,2,1,3030.199999809265,794580.5,8120,VNB,B,0
1,test,5,1.0,2-Back,1.0,z,Tue Jun 09 2026 16:17:37 GMT-0500 (Central Daylight Time),805807.899999857,004_o_m_d_a.png,I,z,743,3,1,1763.5,804044.399999857,8120,VNB,B,1
2,test,5,1.0,2-Back,1.0,m,Tue Jun 09 2026 16:17:37 GMT-0500 (Central Daylight Time),808257.0999999046,011_m_f_n_a.png,I,m,1417,4,1,2446.5,805810.5999999046,8120,VNB,B,2
2,test,5,0.0,2-Back,0.0,m,Tue Jun 09 2026 16:17:37 GMT-0500 (Central Daylight Time),810307.5999999046,007_m_m_h_a.png,I,z,1031,5,1,2047.7999999523163,808259.7999999523,8120,VNB,B,3
3,test,5,0.0,2-Back,1.0,z,Tue Jun 09 2026 16:17:37 GMT-0500 (Central Daylight Time),812472.5,020_y_f_n_a.png,I,z,1134,6,1,2162.2000000476837,810310.2999999523,8120,VNB,B,4
4,test,5,0.0,2-Back,1.0,m,Tue Jun 09 2026 16:17:37 GMT-0500 (Central Daylight Time),814521.6999998093,005_o_f_d_a.png,I,m,1032,7,1,2046.6999998092651,812475.0,8120,VNB,B,5
4,test,5,0.0,2-Back,0.0,m,Tue Jun 09 2026 16:17:37 GMT-0500 (Central Daylight Time),816071.399999857,004_o_m_h_a.png,I,z,519,8,1,1547.3999998569489,814524.0,8120,VNB,B,6
4,test,5,1.0,2-Back,0.0,z,Tue Jun 09 2026 16:17:37 GMT-0500 (Central Daylight Time),817770.7999999523,011_m_f_d_a.png,I,m,673,9,1,1697.0,816073.7999999523,8120,VNB,B,7
4,test,5,0.0,2-Back,0.0,m,Tue Jun 09 2026 16:17:37 GMT-0500 (Central Daylight Time),820787.899999857,016_y_m_n_a.png,I,None,2001,10,1,3014.5,817773.399999857,8120,VNB,B,8
4,test,5,0.0,2-Back,0.0,m,Tue Jun 09 2026 16:17:37 GMT-0500 (Central Daylight Time),823502.1999998093,007_m_m_n_a.png,I,z,1692,11,1,2711.5999999046326,820790.5999999046,8120,VNB,B,9
5,test,5,0.0,2-Back,1.0,m,Tue Jun 09 2026 16:17:37 GMT-0500 (Central Daylight Time),825834.899999857,020_y_f_h_a.png,I,m,1307,12,1,2330.0,823504.899999857,8120,VNB,B,10
5,test,5,0.0,2-Back,0.0,m,Tue Jun 09 2026 16:17:37 GMT-0500 (Central Daylight Time),828117.5999999046,016_y_m_d_a.png,I,z,1254,13,1,2280.4000000953674,825837.1999998093,8120,VNB,B,11
6,test,5,1.0,2-Back,1.0,z,Tue Jun 09 2026 16:17:37 GMT-0500 (Central Daylight Time),830683.2999999523,011_m_f_h_a.png,I,z,1539,14,1,2563.2999999523163,828120.0,8120,VNB,B,12
7,test,5,0.0,2-Back,1.0,m,Tue Jun 09 2026 16:17:37 GMT-0500 (Central Daylight Time),832899.1999998093,004_o_m_n_a.png,I,m,1190,15,1,2213.199999809265,830686.0,8120,VNB,B,13
7,test,5,0.0,2-Back,0.0,m,Tue Jun 09 2026 16:17:37 GMT-0500 (Central Daylight Time),835532.0,007_m_m_d_a.png,I,z,1606,16,1,2630.300000190735,832901.6999998093,8120,VNB,B,14
7,test,5,0.0,2-Back,0.0,z,Tue Jun 09 2026 16:17:37 GMT-0500 (Central Daylight Time),838297.899999857,005_o_f_n_a.png,I,m,1749,17,1,2763.5,835534.399999857,8120,VNB,B,15
8,test,5,1.0,2-Back,1.0,m,Tue Jun 09 2026 16:17:37 GMT-0500 (Central Daylight Time),840980.2999999523,016_y_m_h_a.png,I,m,1664,18,1,2679.7999999523163,838300.5,8120,VNB,B,16
