acc_sum,block,block_c,change,condition,correct,correct_response,datetime,endtime,face,project,response,response_time,row_sel,session_number,start_end,starttime,subject_id,task,task_vers,trial
0,prac,1,,1-Back,,,Tue May 12 2026 14:27:16 GMT-0500 (Central Daylight Time),,005_o_f_d_a.png,I,space,3193,1,2,,,8098,VNB,B,0
1,prac,1,0.0,1-Back,1.0,m,Tue May 12 2026 14:27:16 GMT-0500 (Central Daylight Time),166044.0,020_y_f_n_a.png,I,m,1750,2,2,2603.2999999523163,163440.70000004768,8098,VNB,B,1
2,prac,1,0.0,1-Back,1.0,m,Tue May 12 2026 14:27:16 GMT-0500 (Central Daylight Time),168825.79999995232,007_m_m_h_a.png,I,m,1913,3,2,2776.6999999284744,166049.10000002384,8098,VNB,B,2
2,prac,1,0.0,1-Back,0.0,m,Tue May 12 2026 14:27:16 GMT-0500 (Central Daylight Time),171692.0,016_y_m_d_a.png,I,None,2004,4,2,2857.399999976158,168834.60000002384,8098,VNB,B,3
3,prac,1,0.0,1-Back,1.0,m,Tue May 12 2026 14:27:16 GMT-0500 (Central Daylight Time),174141.89999997616,005_o_f_n_a.png,I,m,1577,5,2,2445.7999999523163,171696.10000002384,8098,VNB,B,4
4,prac,1,1.0,1-Back,1.0,z,Tue May 12 2026 14:27:16 GMT-0500 (Central Daylight Time),176524.39999997616,016_y_m_n_a.png,I,z,1502,6,2,2371.2999999523163,174153.10000002384,8098,VNB,B,5
5,prac,1,0.0,1-Back,1.0,m,Tue May 12 2026 14:27:16 GMT-0500 (Central Daylight Time),178608.0,004_o_m_h_a.png,I,m,1225,7,2,2080.100000023842,176527.89999997616,8098,VNB,B,6
6,prac,1,0.0,1-Back,1.0,m,Tue May 12 2026 14:27:16 GMT-0500 (Central Daylight Time),180806.29999995232,011_m_f_d_a.png,I,m,1326,8,2,2186.899999976158,178619.39999997616,8098,VNB,B,7
7,prac,1,1.0,1-Back,1.0,z,Tue May 12 2026 14:27:16 GMT-0500 (Central Daylight Time),182855.60000002384,020_y_f_d_a.png,I,z,1194,9,2,2042.6000000238419,180813.0,8098,VNB,B,8
8,prac,1,0.0,1-Back,1.0,m,Tue May 12 2026 14:27:16 GMT-0500 (Central Daylight Time),185370.29999995232,007_m_m_n_a.png,I,m,1640,10,2,2505.399999976158,182864.89999997616,8098,VNB,B,9
9,prac,1,0.0,1-Back,1.0,m,Tue May 12 2026 14:27:16 GMT-0500 (Central Daylight Time),187320.70000004768,005_o_f_h_a.png,I,m,1099,11,2,1945.4000000953674,185375.29999995232,8098,VNB,B,10
10,prac,1,0.0,1-Back,1.0,m,Tue May 12 2026 14:27:16 GMT-0500 (Central Daylight Time),190103.89999997616,016_y_m_d_a.png,I,m,1901,12,2,2771.399999976158,187332.5,8098,VNB,B,11
0,test,1,0.0,1-Back,,,Tue May 12 2026 14:27:16 GMT-0500 (Central Daylight Time),190103.89999997616,020_y_f_d_a.png,I,space,2229,1,2,2771.399999976158,187332.5,8098,VNB,B,0
1,test,1,0.0,1-Back,1.0,m,Tue May 12 2026 14:27:16 GMT-0500 (Central Daylight Time),202732.79999995232,011_m_f_n_a.png,I,m,1620,2,2,2640.5999999046326,200092.20000004768,8098,VNB,B,1
2,test,1,0.0,1-Back,1.0,m,Tue May 12 2026 14:27:16 GMT-0500 (Central Daylight Time),204881.5,004_o_m_h_a.png,I,m,1123,3,2,2145.5,202736.0,8098,VNB,B,2
3,test,1,1.0,1-Back,1.0,z,Tue May 12 2026 14:27:16 GMT-0500 (Central Daylight Time),207097.0,007_m_m_h_a.png,I,z,1190,4,2,2208.2000000476837,204888.79999995232,8098,VNB,B,3
4,test,1,0.0,1-Back,1.0,m,Tue May 12 2026 14:27:16 GMT-0500 (Central Daylight Time),209130.70000004768,005_o_f_n_a.png,I,m,1006,5,2,2029.5,207101.20000004768,8098,VNB,B,4
5,test,1,0.0,1-Back,1.0,m,Tue May 12 2026 14:27:16 GMT-0500 (Central Daylight Time),211662.39999997616,016_y_m_d_a.png,I,m,1501,6,2,2525.1999999284744,209137.20000004768,8098,VNB,B,5
6,test,1,1.0,1-Back,1.0,z,Tue May 12 2026 14:27:16 GMT-0500 (Central Daylight Time),213895.10000002384,011_m_f_d_a.png,I,z,1216,7,2,2227.7000000476837,211667.39999997616,8098,VNB,B,6
7,test,1,0.0,1-Back,1.0,m,Tue May 12 2026 14:27:16 GMT-0500 (Central Daylight Time),216077.5,020_y_f_h_a.png,I,m,1160,8,2,2176.600000023842,213900.89999997616,8098,VNB,B,7
8,test,1,0.0,1-Back,1.0,m,Tue May 12 2026 14:27:16 GMT-0500 (Central Daylight Time),218543.39999997616,004_o_m_n_a.png,I,m,1448,9,2,2460.7999999523163,216082.60000002384,8098,VNB,B,8
9,test,1,0.0,1-Back,1.0,m,Tue May 12 2026 14:27:16 GMT-0500 (Central Daylight Time),220676.0,016_y_m_h_a.png,I,m,1109,10,2,2129.7999999523163,218546.20000004768,8098,VNB,B,9
10,test,1,0.0,1-Back,1.0,m,Tue May 12 2026 14:27:16 GMT-0500 (Central Daylight Time),222875.5,004_o_m_d_a.png,I,m,1170,11,2,2197.600000023842,220677.89999997616,8098,VNB,B,10
11,test,1,1.0,1-Back,1.0,z,Tue May 12 2026 14:27:16 GMT-0500 (Central Daylight Time),225208.0,005_o_f_d_a.png,I,z,1308,12,2,2322.2000000476837,222885.79999995232,8098,VNB,B,11
12,test,1,0.0,1-Back,1.0,m,Tue May 12 2026 14:27:16 GMT-0500 (Central Daylight Time),227507.0,007_m_m_n_a.png,I,m,1271,13,2,2294.0,225213.0,8098,VNB,B,12
13,test,1,1.0,1-Back,1.0,z,Tue May 12 2026 14:27:16 GMT-0500 (Central Daylight Time),230289.60000002384,020_y_f_n_a.png,I,z,1763,14,2,2772.399999976158,227517.20000004768,8098,VNB,B,13
14,test,1,0.0,1-Back,1.0,m,Tue May 12 2026 14:27:16 GMT-0500 (Central Daylight Time),232955.0,011_m_f_h_a.png,I,m,1644,15,2,2660.600000023842,230294.39999997616,8098,VNB,B,14
15,test,1,0.0,1-Back,1.0,m,Tue May 12 2026 14:27:16 GMT-0500 (Central Daylight Time),235454.20000004768,007_m_m_d_a.png,I,m,1473,16,2,2489.2000000476837,232965.0,8098,VNB,B,15
16,test,1,0.0,1-Back,1.0,m,Tue May 12 2026 14:27:16 GMT-0500 (Central Daylight Time),238188.20000004768,016_y_m_n_a.png,I,m,1704,17,2,2732.3000000715256,235455.89999997616,8098,VNB,B,16
17,test,1,0.0,1-Back,1.0,m,Tue May 12 2026 14:27:16 GMT-0500 (Central Daylight Time),240304.79999995232,005_o_f_h_a.png,I,m,1083,18,2,2109.5,238195.29999995232,8098,VNB,B,17
0,test,2,0.0,1-Back,,,Tue May 12 2026 14:27:16 GMT-0500 (Central Daylight Time),240304.79999995232,016_y_m_n_a.png,I,space,2282,1,2,2109.5,238195.29999995232,8098,VNB,B,0
0,test,2,0.0,1-Back,0.0,m,Tue May 12 2026 14:27:16 GMT-0500 (Central Daylight Time),247651.79999995232,020_y_f_h_a.png,I,None,2015,2,2,3022.5,244629.29999995232,8098,VNB,B,1
0,test,2,1.0,1-Back,0.0,m,Tue May 12 2026 14:27:16 GMT-0500 (Central Daylight Time),250599.5,004_o_m_n_a.png,I,z,1917,3,2,2944.2000000476837,247655.29999995232,8098,VNB,B,2
1,test,2,0.0,1-Back,1.0,m,Tue May 12 2026 14:27:16 GMT-0500 (Central Daylight Time),253083.10000002384,011_m_f_d_a.png,I,m,1468,4,2,2474.0,250609.10000002384,8098,VNB,B,3
1,test,2,0.0,1-Back,0.0,z,Tue May 12 2026 14:27:16 GMT-0500 (Central Daylight Time),256115.39999997616,007_m_m_d_a.png,I,None,2015,5,2,3026.0,253089.39999997616,8098,VNB,B,4
2,test,2,0.0,1-Back,1.0,m,Tue May 12 2026 14:27:16 GMT-0500 (Central Daylight Time),258080.70000004768,016_y_m_h_a.png,I,m,938,6,2,1955.1000000238419,256125.60000002384,8098,VNB,B,5
3,test,2,1.0,1-Back,1.0,z,Tue May 12 2026 14:27:16 GMT-0500 (Central Daylight Time),260180.39999997616,005_o_f_h_a.png,I,z,1077,7,2,2095.2999999523163,258085.10000002384,8098,VNB,B,6
4,test,2,0.0,1-Back,1.0,m,Tue May 12 2026 14:27:16 GMT-0500 (Central Daylight Time),262196.2999999523,011_m_f_n_a.png,I,m,986,8,2,2009.0999999046326,260187.20000004768,8098,VNB,B,7
5,test,2,0.0,1-Back,1.0,m,Tue May 12 2026 14:27:16 GMT-0500 (Central Daylight Time),264497.60000002384,020_y_f_d_a.png,I,m,1272,9,2,2296.7000000476837,262200.89999997616,8098,VNB,B,8
6,test,2,0.0,1-Back,1.0,m,Tue May 12 2026 14:27:16 GMT-0500 (Central Daylight Time),266528.7999999523,007_m_m_n_a.png,I,m,1007,10,2,2021.0,264507.7999999523,8098,VNB,B,9
7,test,2,1.0,1-Back,1.0,m,Tue May 12 2026 14:27:16 GMT-0500 (Central Daylight Time),268529.10000002384,011_m_f_h_a.png,I,m,982,11,2,1998.1000000238419,266531.0,8098,VNB,B,10
8,test,2,0.0,1-Back,1.0,z,Tue May 12 2026 14:27:16 GMT-0500 (Central Daylight Time),270512.39999997616,004_o_m_h_a.png,I,z,967,12,2,1977.1999999284744,268535.2000000477,8098,VNB,B,11
9,test,2,0.0,1-Back,1.0,m,Tue May 12 2026 14:27:16 GMT-0500 (Central Daylight Time),272727.2999999523,016_y_m_d_a.png,I,m,1183,13,2,2210.7999999523163,270516.5,8098,VNB,B,12
10,test,2,0.0,1-Back,1.0,m,Tue May 12 2026 14:27:16 GMT-0500 (Central Daylight Time),274744.10000002384,005_o_f_n_a.png,I,m,992,14,2,2009.2000000476837,272734.89999997616,8098,VNB,B,13
11,test,2,0.0,1-Back,1.0,z,Tue May 12 2026 14:27:16 GMT-0500 (Central Daylight Time),276859.7999999523,020_y_f_n_a.png,I,z,1089,15,2,2112.2999999523163,274747.5,8098,VNB,B,14
12,test,2,1.0,1-Back,1.0,m,Tue May 12 2026 14:27:16 GMT-0500 (Central Daylight Time),278824.60000002384,007_m_m_h_a.png,I,m,935,16,2,1956.8000000715256,276867.7999999523,8098,VNB,B,15
13,test,2,0.0,1-Back,1.0,m,Tue May 12 2026 14:27:16 GMT-0500 (Central Daylight Time),281024.7999999523,005_o_f_d_a.png,I,m,1176,17,2,2196.399999976158,278828.39999997616,8098,VNB,B,16
14,test,2,1.0,1-Back,1.0,z,Tue May 12 2026 14:27:16 GMT-0500 (Central Daylight Time),283123.7999999523,004_o_m_d_a.png,I,z,1070,18,2,2091.7999999523163,281032.0,8098,VNB,B,17
0,test,3,1.0,1-Back,,,Tue May 12 2026 14:27:16 GMT-0500 (Central Daylight Time),283123.7999999523,005_o_f_h_a.png,I,space,1242,1,2,2091.7999999523163,281032.0,8098,VNB,B,0
1,test,3,0.0,1-Back,1.0,m,Tue May 12 2026 14:27:16 GMT-0500 (Central Daylight Time),288738.7000000477,011_m_f_d_a.png,I,m,1250,2,2,2275.2000000476837,286463.5,8098,VNB,B,1
2,test,3,1.0,1-Back,1.0,m,Tue May 12 2026 14:27:16 GMT-0500 (Central Daylight Time),291054.7000000477,007_m_m_n_a.png,I,m,1284,3,2,2311.100000023842,288743.60000002384,8098,VNB,B,2
3,test,3,0.0,1-Back,1.0,z,Tue May 12 2026 14:27:16 GMT-0500 (Central Daylight Time),292975.2000000477,005_o_f_n_a.png,I,z,899,4,2,1910.9000000953674,291064.2999999523,8098,VNB,B,3
4,test,3,1.0,1-Back,1.0,m,Tue May 12 2026 14:27:16 GMT-0500 (Central Daylight Time),295120.7000000477,004_o_m_d_a.png,I,m,1125,5,2,2143.7000000476837,292977.0,8098,VNB,B,4
5,test,3,0.0,1-Back,1.0,m,Tue May 12 2026 14:27:16 GMT-0500 (Central Daylight Time),297168.0,020_y_f_h_a.png,I,m,1023,6,2,2039.0,295129.0,8098,VNB,B,5
6,test,3,0.0,1-Back,1.0,z,Tue May 12 2026 14:27:16 GMT-0500 (Central Daylight Time),299352.0,016_y_m_h_a.png,I,z,1150,7,2,2181.600000023842,297170.39999997616,8098,VNB,B,6
7,test,3,0.0,1-Back,1.0,m,Tue May 12 2026 14:27:16 GMT-0500 (Central Daylight Time),301251.39999997616,011_m_f_n_a.png,I,m,872,8,2,1890.5,299360.89999997616,8098,VNB,B,7
8,test,3,0.0,1-Back,1.0,m,Tue May 12 2026 14:27:16 GMT-0500 (Central Daylight Time),303584.2000000477,020_y_f_d_a.png,I,m,1300,9,2,2330.4000000953674,301253.7999999523,8098,VNB,B,8
8,test,3,1.0,1-Back,0.0,m,Tue May 12 2026 14:27:16 GMT-0500 (Central Daylight Time),306083.7999999523,004_o_m_n_a.png,I,z,1464,10,2,2493.399999976158,303590.39999997616,8098,VNB,B,9
9,test,3,0.0,1-Back,1.0,m,Tue May 12 2026 14:27:16 GMT-0500 (Central Daylight Time),308014.5,007_m_m_h_a.png,I,m,908,11,2,1928.1000000238419,306086.39999997616,8098,VNB,B,10
10,test,3,0.0,1-Back,1.0,z,Tue May 12 2026 14:27:16 GMT-0500 (Central Daylight Time),310147.2999999523,011_m_f_h_a.png,I,z,1103,12,2,2127.2999999523163,308020.0,8098,VNB,B,11
11,test,3,1.0,1-Back,1.0,m,Tue May 12 2026 14:27:16 GMT-0500 (Central Daylight Time),312197.0,005_o_f_d_a.png,I,m,1019,13,2,2046.7999999523163,310150.2000000477,8098,VNB,B,12
12,test,3,0.0,1-Back,1.0,z,Tue May 12 2026 14:27:16 GMT-0500 (Central Daylight Time),314230.89999997616,007_m_m_d_a.png,I,z,1016,14,2,2023.6000000238419,312207.2999999523,8098,VNB,B,13
13,test,3,0.0,1-Back,1.0,m,Tue May 12 2026 14:27:16 GMT-0500 (Central Daylight Time),316345.89999997616,016_y_m_n_a.png,I,m,1091,15,2,2112.399999976158,314233.5,8098,VNB,B,14
14,test,3,1.0,1-Back,1.0,m,Tue May 12 2026 14:27:16 GMT-0500 (Central Daylight Time),318379.0,004_o_m_h_a.png,I,m,1006,16,2,2025.3999999761581,316353.60000002384,8098,VNB,B,15
15,test,3,0.0,1-Back,1.0,m,Tue May 12 2026 14:27:16 GMT-0500 (Central Daylight Time),320578.10000002384,016_y_m_d_a.png,I,m,1166,17,2,2196.600000023842,318381.5,8098,VNB,B,16
16,test,3,1.0,1-Back,1.0,m,Tue May 12 2026 14:27:16 GMT-0500 (Central Daylight Time),322827.5,020_y_f_n_a.png,I,m,1222,18,2,2241.2000000476837,320586.2999999523,8098,VNB,B,17
0,test,4,1.0,1-Back,,,Tue May 12 2026 14:27:16 GMT-0500 (Central Daylight Time),322827.5,007_m_m_d_a.png,I,space,1125,1,2,2241.2000000476837,320586.2999999523,8098,VNB,B,0
1,test,4,0.0,1-Back,1.0,z,Tue May 12 2026 14:27:16 GMT-0500 (Central Daylight Time),328526.60000002384,004_o_m_d_a.png,I,z,1526,2,2,2544.5,325982.10000002384,8098,VNB,B,1
2,test,4,0.0,1-Back,1.0,m,Tue May 12 2026 14:27:16 GMT-0500 (Central Daylight Time),330473.5,016_y_m_h_a.png,I,m,929,3,2,1943.6000000238419,328529.89999997616,8098,VNB,B,2
3,test,4,0.0,1-Back,1.0,m,Tue May 12 2026 14:27:16 GMT-0500 (Central Daylight Time),332524.2000000477,011_m_f_n_a.png,I,m,1021,4,2,2041.8000000715256,330482.39999997616,8098,VNB,B,3
3,test,4,1.0,1-Back,0.0,m,Tue May 12 2026 14:27:16 GMT-0500 (Central Daylight Time),334724.89999997616,005_o_f_h_a.png,I,z,1170,5,2,2198.100000023842,332526.7999999523,8098,VNB,B,4
4,test,4,0.0,1-Back,1.0,m,Tue May 12 2026 14:27:16 GMT-0500 (Central Daylight Time),336841.60000002384,007_m_m_n_a.png,I,m,1086,6,2,2109.0,334732.60000002384,8098,VNB,B,5
5,test,4,0.0,1-Back,1.0,m,Tue May 12 2026 14:27:16 GMT-0500 (Central Daylight Time),339388.7000000477,016_y_m_d_a.png,I,m,1518,7,2,2542.100000023842,336846.60000002384,8098,VNB,B,6
6,test,4,1.0,1-Back,1.0,z,Tue May 12 2026 14:27:16 GMT-0500 (Central Daylight Time),341370.7000000477,020_y_f_d_a.png,I,z,962,8,2,1973.6000000238419,339397.10000002384,8098,VNB,B,7
7,test,4,0.0,1-Back,1.0,m,Tue May 12 2026 14:27:16 GMT-0500 (Central Daylight Time),343452.7000000477,011_m_f_h_a.png,I,m,1061,9,2,2079.4000000953674,341373.2999999523,8098,VNB,B,8
8,test,4,0.0,1-Back,1.0,z,Tue May 12 2026 14:27:16 GMT-0500 (Central Daylight Time),345570.0,004_o_m_h_a.png,I,z,1088,10,2,2108.2999999523163,343461.7000000477,8098,VNB,B,9
9,test,4,1.0,1-Back,1.0,m,Tue May 12 2026 14:27:16 GMT-0500 (Central Daylight Time),347735.2000000477,005_o_f_n_a.png,I,m,1134,11,2,2162.5,345572.7000000477,8098,VNB,B,10
10,test,4,0.0,1-Back,1.0,m,Tue May 12 2026 14:27:16 GMT-0500 (Central Daylight Time),350068.10000002384,011_m_f_d_a.png,I,m,1311,12,2,2327.8000000715256,347740.2999999523,8098,VNB,B,11
11,test,4,0.0,1-Back,1.0,m,Tue May 12 2026 14:27:16 GMT-0500 (Central Daylight Time),352484.7000000477,020_y_f_n_a.png,I,m,1386,13,2,2413.600000023842,350071.10000002384,8098,VNB,B,12
12,test,4,0.0,1-Back,1.0,m,Tue May 12 2026 14:27:16 GMT-0500 (Central Daylight Time),355118.10000002384,005_o_f_d_a.png,I,m,1604,14,2,2626.100000023842,352492.0,8098,VNB,B,13
13,test,4,0.0,1-Back,1.0,m,Tue May 12 2026 14:27:16 GMT-0500 (Central Daylight Time),357249.2999999523,020_y_f_h_a.png,I,m,1102,15,2,2128.399999976158,355120.89999997616,8098,VNB,B,14
14,test,4,1.0,1-Back,1.0,z,Tue May 12 2026 14:27:16 GMT-0500 (Central Daylight Time),359481.7999999523,007_m_m_h_a.png,I,z,1201,16,2,2225.899999976158,357255.89999997616,8098,VNB,B,15
15,test,4,0.0,1-Back,1.0,m,Tue May 12 2026 14:27:16 GMT-0500 (Central Daylight Time),361715.2999999523,004_o_m_n_a.png,I,m,1217,17,2,2230.899999976158,359484.39999997616,8098,VNB,B,16
16,test,4,1.0,1-Back,1.0,z,Tue May 12 2026 14:27:16 GMT-0500 (Central Daylight Time),363696.7000000477,016_y_m_n_a.png,I,z,949,18,2,1973.6000000238419,361723.10000002384,8098,VNB,B,17
0,test,5,1.0,1-Back,,,Tue May 12 2026 14:27:16 GMT-0500 (Central Daylight Time),363696.7000000477,004_o_m_n_a.png,I,space,1117,1,2,1973.6000000238419,361723.10000002384,8098,VNB,B,0
0,test,5,1.0,1-Back,0.0,m,Tue May 12 2026 14:27:16 GMT-0500 (Central Daylight Time),369880.5,005_o_f_h_a.png,I,None,2016,2,2,3024.2999999523163,366856.2000000477,8098,VNB,B,1
1,test,5,0.0,1-Back,1.0,m,Tue May 12 2026 14:27:16 GMT-0500 (Central Daylight Time),372411.10000002384,016_y_m_d_a.png,I,m,1504,3,2,2527.100000023842,369884.0,8098,VNB,B,2
2,test,5,0.0,1-Back,1.0,z,Tue May 12 2026 14:27:16 GMT-0500 (Central Daylight Time),374394.39999997616,004_o_m_d_a.png,I,z,950,4,2,1975.1999999284744,372419.2000000477,8098,VNB,B,3
3,test,5,0.0,1-Back,1.0,m,Tue May 12 2026 14:27:16 GMT-0500 (Central Daylight Time),376460.2999999523,011_m_f_h_a.png,I,m,1038,5,2,2062.2999999523163,374398.0,8098,VNB,B,4
4,test,5,0.0,1-Back,1.0,m,Tue May 12 2026 14:27:16 GMT-0500 (Central Daylight Time),378674.39999997616,020_y_f_n_a.png,I,m,1186,6,2,2206.1999999284744,376468.2000000477,8098,VNB,B,5
5,test,5,1.0,1-Back,1.0,z,Tue May 12 2026 14:27:16 GMT-0500 (Central Daylight Time),380858.89999997616,005_o_f_n_a.png,I,z,1166,7,2,2180.899999976158,378678.0,8098,VNB,B,6
5,test,5,0.0,1-Back,0.0,m,Tue May 12 2026 14:27:16 GMT-0500 (Central Daylight Time),382924.60000002384,011_m_f_d_a.png,I,z,1035,8,2,2056.899999976158,380867.7000000477,8098,VNB,B,7
6,test,5,0.0,1-Back,1.0,m,Tue May 12 2026 14:27:16 GMT-0500 (Central Daylight Time),384939.5,016_y_m_h_a.png,I,m,984,9,2,2011.6000000238419,382927.89999997616,8098,VNB,B,8
7,test,5,0.0,1-Back,1.0,m,Tue May 12 2026 14:27:16 GMT-0500 (Central Daylight Time),387123.0,020_y_f_d_a.png,I,m,1162,10,2,2180.600000023842,384942.39999997616,8098,VNB,B,9
8,test,5,0.0,1-Back,1.0,m,Tue May 12 2026 14:27:16 GMT-0500 (Central Daylight Time),389522.5,007_m_m_n_a.png,I,m,1366,11,2,2397.399999976158,387125.10000002384,8098,VNB,B,10
8,test,5,1.0,1-Back,0.0,z,Tue May 12 2026 14:27:16 GMT-0500 (Central Daylight Time),391937.89999997616,011_m_f_n_a.png,I,m,1382,12,2,2403.100000023842,389534.7999999523,8098,VNB,B,11
9,test,5,0.0,1-Back,1.0,m,Tue May 12 2026 14:27:16 GMT-0500 (Central Daylight Time),393904.89999997616,004_o_m_h_a.png,I,m,941,13,2,1964.1999999284744,391940.7000000477,8098,VNB,B,12
10,test,5,0.0,1-Back,1.0,z,Tue May 12 2026 14:27:16 GMT-0500 (Central Daylight Time),395886.10000002384,007_m_m_h_a.png,I,z,948,14,2,1973.1000000238419,393913.0,8098,VNB,B,13
11,test,5,1.0,1-Back,1.0,m,Tue May 12 2026 14:27:16 GMT-0500 (Central Daylight Time),398385.7999999523,005_o_f_d_a.png,I,m,1473,15,2,2498.0,395887.7999999523,8098,VNB,B,14
11,test,5,0.0,1-Back,0.0,m,Tue May 12 2026 14:27:16 GMT-0500 (Central Daylight Time),401085.0,016_y_m_n_a.png,I,z,1668,16,2,2691.0,398394.0,8098,VNB,B,15
12,test,5,0.0,1-Back,1.0,m,Tue May 12 2026 14:27:16 GMT-0500 (Central Daylight Time),403035.5,020_y_f_h_a.png,I,m,928,17,2,1945.8999999761581,401089.60000002384,8098,VNB,B,16
13,test,5,0.0,1-Back,1.0,m,Tue May 12 2026 14:27:16 GMT-0500 (Central Daylight Time),405316.7999999523,007_m_m_d_a.png,I,m,1259,18,2,2273.1999999284744,403043.60000002384,8098,VNB,B,17
0,prac,1,0.0,2-Back,,,Tue May 12 2026 14:27:16 GMT-0500 (Central Daylight Time),405316.7999999523,011_m_f_n_a.png,I,space,3176,1,2,2273.1999999284744,403043.60000002384,8098,VNB,B,0
0,prac,1,0.0,2-Back,,,Tue May 12 2026 14:27:16 GMT-0500 (Central Daylight Time),405316.7999999523,005_o_f_h_a.png,I,space,3176,2,2,2273.1999999284744,403043.60000002384,8098,VNB,B,0
1,prac,1,0.0,2-Back,1.0,m,Tue May 12 2026 14:27:16 GMT-0500 (Central Daylight Time),480310.2000000477,004_o_m_d_a.png,I,m,1451,3,2,2292.0,478018.2000000477,8098,VNB,B,1
2,prac,1,1.0,2-Back,1.0,z,Tue May 12 2026 14:27:16 GMT-0500 (Central Daylight Time),482676.2999999523,007_m_m_h_a.png,I,z,1483,4,2,2349.5,480326.7999999523,8098,VNB,B,2
2,prac,1,0.0,2-Back,0.0,m,Tue May 12 2026 14:27:16 GMT-0500 (Central Daylight Time),485525.2000000477,020_y_f_n_a.png,I,None,2006,5,2,2843.5,482681.7000000477,8098,VNB,B,3
3,prac,1,1.0,2-Back,1.0,z,Tue May 12 2026 14:27:16 GMT-0500 (Central Daylight Time),487641.5,004_o_m_h_a.png,I,z,1336,6,2,2105.7999999523163,485535.7000000477,8098,VNB,B,4
4,prac,1,1.0,2-Back,1.0,z,Tue May 12 2026 14:27:16 GMT-0500 (Central Daylight Time),489940.60000002384,016_y_m_n_a.png,I,z,1419,7,2,2293.899999976158,487646.7000000477,8098,VNB,B,5
5,prac,1,0.0,2-Back,1.0,m,Tue May 12 2026 14:27:16 GMT-0500 (Central Daylight Time),492274.2999999523,011_m_f_d_a.png,I,m,1459,8,2,2319.5999999046326,489954.7000000477,8098,VNB,B,6
5,prac,1,0.0,2-Back,0.0,m,Tue May 12 2026 14:27:16 GMT-0500 (Central Daylight Time),495138.89999997616,005_o_f_d_a.png,I,None,2014,9,2,2859.7999999523163,492279.10000002384,8098,VNB,B,7
5,prac,1,0.0,2-Back,0.0,m,Tue May 12 2026 14:27:16 GMT-0500 (Central Daylight Time),497088.0,007_m_m_h_a.png,I,z,1172,10,2,1939.7000000476837,495148.2999999523,8098,VNB,B,8
6,prac,1,1.0,2-Back,1.0,z,Tue May 12 2026 14:27:16 GMT-0500 (Central Daylight Time),499455.2000000477,020_y_f_d_a.png,I,z,1502,11,2,2362.2000000476837,497093.0,8098,VNB,B,9
6,prac,1,0.0,2-Back,0.0,m,Tue May 12 2026 14:27:16 GMT-0500 (Central Daylight Time),501438.0,004_o_m_n_a.png,I,z,1148,12,2,1973.7000000476837,499464.2999999523,8098,VNB,B,10
0,test,1,0.0,2-Back,,,Tue May 12 2026 14:27:16 GMT-0500 (Central Daylight Time),501438.0,016_y_m_h_a.png,I,space,3449,1,2,1973.7000000476837,499464.2999999523,8098,VNB,B,0
0,test,1,0.0,2-Back,,,Tue May 12 2026 14:27:16 GMT-0500 (Central Daylight Time),501438.0,005_o_f_n_a.png,I,space,3449,2,2,1973.7000000476837,499464.2999999523,8098,VNB,B,0
1,test,1,0.0,2-Back,1.0,z,Tue May 12 2026 14:27:16 GMT-0500 (Central Daylight Time),518765.7000000477,004_o_m_h_a.png,I,z,1353,3,2,2379.0,516386.7000000477,8098,VNB,B,1
2,test,1,0.0,2-Back,1.0,m,Tue May 12 2026 14:27:16 GMT-0500 (Central Daylight Time),521546.39999997616,011_m_f_d_a.png,I,m,1754,4,2,2775.5,518770.89999997616,8098,VNB,B,2
2,test,1,1.0,2-Back,0.0,m,Tue May 12 2026 14:27:16 GMT-0500 (Central Daylight Time),523912.7000000477,016_y_m_n_a.png,I,z,1339,5,2,2362.0,521550.7000000477,8098,VNB,B,3
3,test,1,0.0,2-Back,1.0,z,Tue May 12 2026 14:27:16 GMT-0500 (Central Daylight Time),526163.7999999523,020_y_f_d_a.png,I,z,1220,6,2,2244.0999999046326,523919.7000000477,8098,VNB,B,4
3,test,1,0.0,2-Back,0.0,m,Tue May 12 2026 14:27:16 GMT-0500 (Central Daylight Time),529193.7000000477,007_m_m_h_a.png,I,None,2014,7,2,3028.100000023842,526165.6000000238,8098,VNB,B,5
3,test,1,1.0,2-Back,0.0,m,Tue May 12 2026 14:27:16 GMT-0500 (Central Daylight Time),531878.2999999523,020_y_f_n_a.png,I,z,1651,8,2,2681.0999999046326,529197.2000000477,8098,VNB,B,6
4,test,1,0.0,2-Back,1.0,z,Tue May 12 2026 14:27:16 GMT-0500 (Central Daylight Time),534027.8999999762,005_o_f_h_a.png,I,z,1123,9,2,2147.100000023842,531880.7999999523,8098,VNB,B,7
4,test,1,0.0,2-Back,0.0,m,Tue May 12 2026 14:27:16 GMT-0500 (Central Daylight Time),536610.2000000477,004_o_m_d_a.png,I,z,1557,10,2,2575.0,534035.2000000477,8098,VNB,B,8
4,test,1,1.0,2-Back,0.0,m,Tue May 12 2026 14:27:16 GMT-0500 (Central Daylight Time),539124.5,007_m_m_d_a.png,I,z,1492,11,2,2511.600000023842,536612.8999999762,8098,VNB,B,9
4,test,1,0.0,2-Back,0.0,m,Tue May 12 2026 14:27:16 GMT-0500 (Central Daylight Time),541207.8999999762,011_m_f_n_a.png,I,z,1050,12,2,2075.399999976158,539132.5,8098,VNB,B,10
4,test,1,0.0,2-Back,0.0,m,Tue May 12 2026 14:27:16 GMT-0500 (Central Daylight Time),543874.0,020_y_f_h_a.png,I,z,1649,13,2,2664.2999999523163,541209.7000000477,8098,VNB,B,11
4,test,1,0.0,2-Back,0.0,z,Tue May 12 2026 14:27:16 GMT-0500 (Central Daylight Time),546906.1000000238,007_m_m_n_a.png,I,None,2016,14,2,3024.399999976158,543881.7000000477,8098,VNB,B,12
4,test,1,0.0,2-Back,0.0,m,Tue May 12 2026 14:27:16 GMT-0500 (Central Daylight Time),549238.2000000477,016_y_m_d_a.png,I,z,1308,15,2,2328.600000023842,546909.6000000238,8098,VNB,B,13
5,test,1,1.0,2-Back,1.0,m,Tue May 12 2026 14:27:16 GMT-0500 (Central Daylight Time),551454.7999999523,011_m_f_h_a.png,I,m,1192,16,2,2210.0999999046326,549244.7000000477,8098,VNB,B,14
6,test,1,0.0,2-Back,1.0,z,Tue May 12 2026 14:27:16 GMT-0500 (Central Daylight Time),554238.2000000477,005_o_f_d_a.png,I,z,1759,17,2,2780.9000000953674,551457.2999999523,8098,VNB,B,15
7,test,1,0.0,2-Back,1.0,m,Tue May 12 2026 14:27:16 GMT-0500 (Central Daylight Time),557002.0,004_o_m_n_a.png,I,m,1735,18,2,2759.2000000476837,554242.7999999523,8098,VNB,B,16
0,test,2,0.0,2-Back,,,Tue May 12 2026 14:27:16 GMT-0500 (Central Daylight Time),557002.0,007_m_m_h_a.png,I,space,1430,1,2,2759.2000000476837,554242.7999999523,8098,VNB,B,0
0,test,2,0.0,2-Back,,,Tue May 12 2026 14:27:16 GMT-0500 (Central Daylight Time),557002.0,020_y_f_n_a.png,I,space,1430,2,2,2759.2000000476837,554242.7999999523,8098,VNB,B,0
1,test,2,1.0,2-Back,1.0,z,Tue May 12 2026 14:27:16 GMT-0500 (Central Daylight Time),565815.7999999523,005_o_f_h_a.png,I,z,1151,3,2,2178.2999999523163,563637.5,8098,VNB,B,1
2,test,2,0.0,2-Back,1.0,m,Tue May 12 2026 14:27:16 GMT-0500 (Central Daylight Time),568114.6000000238,004_o_m_d_a.png,I,m,1269,4,2,2287.8000000715256,565826.7999999523,8098,VNB,B,2
3,test,2,0.0,2-Back,1.0,m,Tue May 12 2026 14:27:16 GMT-0500 (Central Daylight Time),570614.3999999762,011_m_f_d_a.png,I,m,1476,5,2,2496.600000023842,568117.7999999523,8098,VNB,B,3
4,test,2,0.0,2-Back,1.0,m,Tue May 12 2026 14:27:16 GMT-0500 (Central Daylight Time),573596.7000000477,016_y_m_h_a.png,I,m,1953,6,2,2971.3000000715256,570625.3999999762,8098,VNB,B,4
4,test,2,0.0,2-Back,0.0,m,Tue May 12 2026 14:27:16 GMT-0500 (Central Daylight Time),576629.2999999523,005_o_f_n_a.png,I,None,2016,7,2,3027.7999999523163,573601.5,8098,VNB,B,5
5,test,2,1.0,2-Back,1.0,z,Tue May 12 2026 14:27:16 GMT-0500 (Central Daylight Time),578628.5,004_o_m_h_a.png,I,z,978,8,2,1993.2000000476837,576635.2999999523,8098,VNB,B,6
5,test,2,0.0,2-Back,0.0,m,Tue May 12 2026 14:27:16 GMT-0500 (Central Daylight Time),581128.2000000477,020_y_f_d_a.png,I,z,1468,9,2,2497.100000023842,578631.1000000238,8098,VNB,B,7
5,test,2,0.0,2-Back,0.0,m,Tue May 12 2026 14:27:16 GMT-0500 (Central Daylight Time),583227.5,016_y_m_d_a.png,I,z,1071,10,2,2096.399999976158,581131.1000000238,8098,VNB,B,8
6,test,2,0.0,2-Back,1.0,m,Tue May 12 2026 14:27:16 GMT-0500 (Central Daylight Time),585759.2000000477,007_m_m_n_a.png,I,m,1508,11,2,2526.4000000953674,583232.7999999523,8098,VNB,B,9
7,test,2,0.0,2-Back,1.0,m,Tue May 12 2026 14:27:16 GMT-0500 (Central Daylight Time),587876.7000000477,011_m_f_h_a.png,I,m,1095,12,2,2110.7000000476837,585766.0,8098,VNB,B,10
8,test,2,1.0,2-Back,1.0,z,Tue May 12 2026 14:27:16 GMT-0500 (Central Daylight Time),590158.7000000477,004_o_m_n_a.png,I,z,1260,13,2,2277.7000000476837,587881.0,8098,VNB,B,11
8,test,2,0.0,2-Back,0.0,m,Tue May 12 2026 14:27:16 GMT-0500 (Central Daylight Time),592339.8999999762,005_o_f_d_a.png,I,z,1151,14,2,2175.399999976158,590164.5,8098,VNB,B,12
9,test,2,0.0,2-Back,1.0,m,Tue May 12 2026 14:27:16 GMT-0500 (Central Daylight Time),594624.7000000477,020_y_f_h_a.png,I,m,1251,15,2,2280.5,592344.2000000477,8098,VNB,B,13
10,test,2,0.0,2-Back,1.0,z,Tue May 12 2026 14:27:16 GMT-0500 (Central Daylight Time),597456.5,007_m_m_d_a.png,I,z,1801,16,2,2822.2000000476837,594634.2999999523,8098,VNB,B,14
11,test,2,0.0,2-Back,1.0,m,Tue May 12 2026 14:27:16 GMT-0500 (Central Daylight Time),599938.7000000477,016_y_m_n_a.png,I,m,1453,17,2,2479.3000000715256,597459.3999999762,8098,VNB,B,15
11,test,2,1.0,2-Back,0.0,m,Tue May 12 2026 14:27:16 GMT-0500 (Central Daylight Time),601854.2000000477,011_m_f_n_a.png,I,z,883,18,2,1909.1000000238419,599945.1000000238,8098,VNB,B,16
0,test,3,1.0,2-Back,,,Tue May 12 2026 14:27:16 GMT-0500 (Central Daylight Time),601854.2000000477,004_o_m_n_a.png,I,space,1419,1,2,1909.1000000238419,599945.1000000238,8098,VNB,B,0
0,test,3,1.0,2-Back,,,Tue May 12 2026 14:27:16 GMT-0500 (Central Daylight Time),601854.2000000477,005_o_f_d_a.png,I,space,1419,2,2,1909.1000000238419,599945.1000000238,8098,VNB,B,0
1,test,3,0.0,2-Back,1.0,m,Tue May 12 2026 14:27:16 GMT-0500 (Central Daylight Time),610684.7999999523,020_y_f_h_a.png,I,m,1328,3,2,2343.6999999284744,608341.1000000238,8098,VNB,B,1
1,test,3,0.0,2-Back,0.0,z,Tue May 12 2026 14:27:16 GMT-0500 (Central Daylight Time),613217.5,011_m_f_d_a.png,I,m,1506,4,2,2526.7999999523163,610690.7000000477,8098,VNB,B,2
1,test,3,1.0,2-Back,0.0,m,Tue May 12 2026 14:27:16 GMT-0500 (Central Daylight Time),615517.8999999762,016_y_m_n_a.png,I,z,1278,5,2,2297.5,613220.3999999762,8098,VNB,B,3
2,test,3,0.0,2-Back,1.0,m,Tue May 12 2026 14:27:16 GMT-0500 (Central Daylight Time),617948.5,004_o_m_h_a.png,I,m,1409,6,2,2426.2999999523163,615522.2000000477,8098,VNB,B,4
3,test,3,0.0,2-Back,1.0,z,Tue May 12 2026 14:27:16 GMT-0500 (Central Daylight Time),620248.0,020_y_f_n_a.png,I,z,1267,7,2,2297.5,617950.5,8098,VNB,B,5
4,test,3,1.0,2-Back,1.0,m,Tue May 12 2026 14:27:16 GMT-0500 (Central Daylight Time),622580.2000000477,007_m_m_d_a.png,I,m,1301,8,2,2329.4000000953674,620250.7999999523,8098,VNB,B,6
4,test,3,0.0,2-Back,0.0,m,Tue May 12 2026 14:27:16 GMT-0500 (Central Daylight Time),624713.2000000477,016_y_m_d_a.png,I,z,1105,9,2,2131.0,622582.2000000477,8098,VNB,B,7
5,test,3,0.0,2-Back,1.0,m,Tue May 12 2026 14:27:16 GMT-0500 (Central Daylight Time),626862.8999999762,005_o_f_h_a.png,I,m,1117,10,2,2146.7999999523163,624716.1000000238,8098,VNB,B,8
6,test,3,1.0,2-Back,1.0,m,Tue May 12 2026 14:27:16 GMT-0500 (Central Daylight Time),629495.1000000238,011_m_f_n_a.png,I,m,1607,11,2,2630.100000023842,626865.0,8098,VNB,B,9
7,test,3,1.0,2-Back,1.0,z,Tue May 12 2026 14:27:16 GMT-0500 (Central Daylight Time),631344.0,007_m_m_h_a.png,I,z,817,12,2,1846.3999999761581,629497.6000000238,8098,VNB,B,10
8,test,3,0.0,2-Back,1.0,m,Tue May 12 2026 14:27:16 GMT-0500 (Central Daylight Time),634110.6000000238,020_y_f_d_a.png,I,m,1732,13,2,2764.600000023842,631346.0,8098,VNB,B,11
9,test,3,0.0,2-Back,1.0,m,Tue May 12 2026 14:27:16 GMT-0500 (Central Daylight Time),636260.0,005_o_f_n_a.png,I,m,1120,14,2,2146.899999976158,634113.1000000238,8098,VNB,B,12
9,test,3,0.0,2-Back,0.0,z,Tue May 12 2026 14:27:16 GMT-0500 (Central Daylight Time),638459.0,004_o_m_d_a.png,I,m,1171,15,2,2195.399999976158,636263.6000000238,8098,VNB,B,13
10,test,3,1.0,2-Back,1.0,m,Tue May 12 2026 14:27:16 GMT-0500 (Central Daylight Time),640742.0,011_m_f_h_a.png,I,m,1246,16,2,2280.399999976158,638461.6000000238,8098,VNB,B,14
11,test,3,0.0,2-Back,1.0,m,Tue May 12 2026 14:27:16 GMT-0500 (Central Daylight Time),643240.5,007_m_m_n_a.png,I,m,1479,17,2,2496.7000000476837,640743.7999999523,8098,VNB,B,15
12,test,3,0.0,2-Back,1.0,z,Tue May 12 2026 14:27:16 GMT-0500 (Central Daylight Time),645473.2999999523,016_y_m_h_a.png,I,z,1204,18,2,2229.5,643243.7999999523,8098,VNB,B,16
0,test,4,0.0,2-Back,,,Tue May 12 2026 14:27:16 GMT-0500 (Central Daylight Time),645473.2999999523,011_m_f_n_a.png,I,space,1196,1,2,2229.5,643243.7999999523,8098,VNB,B,0
0,test,4,0.0,2-Back,,,Tue May 12 2026 14:27:16 GMT-0500 (Central Daylight Time),645473.2999999523,004_o_m_n_a.png,I,space,1196,2,2,2229.5,643243.7999999523,8098,VNB,B,0
1,test,4,1.0,2-Back,1.0,m,Tue May 12 2026 14:27:16 GMT-0500 (Central Daylight Time),654004.6000000238,016_y_m_h_a.png,I,m,1128,3,2,2147.899999976158,651856.7000000477,8098,VNB,B,1
2,test,4,1.0,2-Back,1.0,m,Tue May 12 2026 14:27:16 GMT-0500 (Central Daylight Time),656654.2999999523,005_o_f_d_a.png,I,m,1617,4,2,2647.0,654007.2999999523,8098,VNB,B,2
3,test,4,0.0,2-Back,1.0,z,Tue May 12 2026 14:27:16 GMT-0500 (Central Daylight Time),659319.1000000238,004_o_m_h_a.png,I,z,1640,5,2,2663.0,656656.1000000238,8098,VNB,B,3
3,test,4,0.0,2-Back,0.0,m,Tue May 12 2026 14:27:16 GMT-0500 (Central Daylight Time),662235.3999999762,007_m_m_n_a.png,I,z,1895,6,2,2907.899999976158,659327.5,8098,VNB,B,4
3,test,4,0.0,2-Back,0.0,m,Tue May 12 2026 14:27:16 GMT-0500 (Central Daylight Time),665268.8999999762,011_m_f_d_a.png,I,None,2016,7,2,3030.600000023842,662238.2999999523,8098,VNB,B,5
3,test,4,0.0,2-Back,0.0,z,Tue May 12 2026 14:27:16 GMT-0500 (Central Daylight Time),667450.0,020_y_f_n_a.png,I,m,1156,8,2,2171.2000000476837,665278.7999999523,8098,VNB,B,6
4,test,4,1.0,2-Back,1.0,m,Tue May 12 2026 14:27:16 GMT-0500 (Central Daylight Time),670233.2999999523,005_o_f_h_a.png,I,m,1752,9,2,2780.899999976158,667452.3999999762,8098,VNB,B,7
5,test,4,0.0,2-Back,1.0,m,Tue May 12 2026 14:27:16 GMT-0500 (Central Daylight Time),672198.6000000238,007_m_m_h_a.png,I,m,932,10,2,1957.7000000476837,670240.8999999762,8098,VNB,B,8
6,test,4,0.0,2-Back,1.0,m,Tue May 12 2026 14:27:16 GMT-0500 (Central Daylight Time),674665.2000000477,020_y_f_d_a.png,I,m,1442,11,2,2464.7000000476837,672200.5,8098,VNB,B,9
7,test,4,0.0,2-Back,1.0,m,Tue May 12 2026 14:27:16 GMT-0500 (Central Daylight Time),676530.8999999762,016_y_m_n_a.png,I,m,836,12,2,1858.2999999523163,674672.6000000238,8098,VNB,B,10
7,test,4,0.0,2-Back,0.0,z,Tue May 12 2026 14:27:16 GMT-0500 (Central Daylight Time),678346.5,004_o_m_d_a.png,I,m,787,13,2,1812.2999999523163,676534.2000000477,8098,VNB,B,11
8,test,4,1.0,2-Back,1.0,m,Tue May 12 2026 14:27:16 GMT-0500 (Central Daylight Time),680098.6000000238,011_m_f_h_a.png,I,m,723,14,2,1742.7000000476837,678355.8999999762,8098,VNB,B,12
8,test,4,1.0,2-Back,0.0,m,Tue May 12 2026 14:27:16 GMT-0500 (Central Daylight Time),682162.7999999523,020_y_f_h_a.png,I,z,1032,15,2,2062.0,680100.7999999523,8098,VNB,B,13
8,test,4,0.0,2-Back,0.0,m,Tue May 12 2026 14:27:16 GMT-0500 (Central Daylight Time),684812.0,005_o_f_n_a.png,I,z,1622,16,2,2641.2999999523163,682170.7000000477,8098,VNB,B,14
9,test,4,0.0,2-Back,1.0,m,Tue May 12 2026 14:27:16 GMT-0500 (Central Daylight Time),686694.1000000238,016_y_m_d_a.png,I,m,860,17,2,1878.5,684815.6000000238,8098,VNB,B,15
10,test,4,1.0,2-Back,1.0,m,Tue May 12 2026 14:27:16 GMT-0500 (Central Daylight Time),689043.5,007_m_m_d_a.png,I,m,1327,18,2,2340.100000023842,686703.3999999762,8098,VNB,B,16
0,test,5,1.0,2-Back,,,Tue May 12 2026 14:27:16 GMT-0500 (Central Daylight Time),689043.5,020_y_f_d_a.png,I,space,1136,1,2,2340.100000023842,686703.3999999762,8098,VNB,B,0
0,test,5,1.0,2-Back,,,Tue May 12 2026 14:27:16 GMT-0500 (Central Daylight Time),689043.5,005_o_f_h_a.png,I,space,1136,2,2,2340.100000023842,686703.3999999762,8098,VNB,B,0
1,test,5,1.0,2-Back,1.0,z,Tue May 12 2026 14:27:16 GMT-0500 (Central Daylight Time),697841.8999999762,004_o_m_d_a.png,I,z,1419,3,2,2444.899999976158,695397.0,8098,VNB,B,1
2,test,5,1.0,2-Back,1.0,m,Tue May 12 2026 14:27:16 GMT-0500 (Central Daylight Time),699857.5,011_m_f_n_a.png,I,m,985,4,2,2005.8999999761581,697851.6000000238,8098,VNB,B,2
3,test,5,0.0,2-Back,1.0,m,Tue May 12 2026 14:27:16 GMT-0500 (Central Daylight Time),702671.3999999762,007_m_m_h_a.png,I,m,1778,5,2,2810.5,699860.8999999762,8098,VNB,B,3
3,test,5,0.0,2-Back,0.0,z,Tue May 12 2026 14:27:16 GMT-0500 (Central Daylight Time),705189.0,020_y_f_n_a.png,I,m,1493,6,2,2509.399999976158,702679.6000000238,8098,VNB,B,4
4,test,5,0.0,2-Back,1.0,m,Tue May 12 2026 14:27:16 GMT-0500 (Central Daylight Time),707305.6000000238,005_o_f_d_a.png,I,m,1091,7,2,2114.100000023842,705191.5,8098,VNB,B,5
4,test,5,0.0,2-Back,0.0,m,Tue May 12 2026 14:27:16 GMT-0500 (Central Daylight Time),709736.8999999762,004_o_m_h_a.png,I,z,1405,8,2,2423.1999999284744,707313.7000000477,8098,VNB,B,6
4,test,5,1.0,2-Back,0.0,z,Tue May 12 2026 14:27:16 GMT-0500 (Central Daylight Time),711253.0,011_m_f_d_a.png,I,m,492,9,2,1512.5,709740.5,8098,VNB,B,7
5,test,5,0.0,2-Back,1.0,m,Tue May 12 2026 14:27:16 GMT-0500 (Central Daylight Time),712852.6000000238,016_y_m_n_a.png,I,m,568,10,2,1591.7000000476837,711260.8999999762,8098,VNB,B,8
6,test,5,0.0,2-Back,1.0,m,Tue May 12 2026 14:27:16 GMT-0500 (Central Daylight Time),714285.6000000238,007_m_m_n_a.png,I,m,412,11,2,1428.8999999761581,712856.7000000477,8098,VNB,B,9
7,test,5,0.0,2-Back,1.0,m,Tue May 12 2026 14:27:16 GMT-0500 (Central Daylight Time),715818.8999999762,020_y_f_h_a.png,I,m,517,12,2,1524.7999999523163,714294.1000000238,8098,VNB,B,10
8,test,5,0.0,2-Back,1.0,m,Tue May 12 2026 14:27:16 GMT-0500 (Central Daylight Time),717602.2000000477,016_y_m_d_a.png,I,m,764,13,2,1779.9000000953674,715822.2999999523,8098,VNB,B,11
8,test,5,1.0,2-Back,0.0,z,Tue May 12 2026 14:27:16 GMT-0500 (Central Daylight Time),719035.3999999762,011_m_f_h_a.png,I,m,418,14,2,1425.3999999761581,717610.0,8098,VNB,B,12
9,test,5,0.0,2-Back,1.0,m,Tue May 12 2026 14:27:16 GMT-0500 (Central Daylight Time),720532.8999999762,004_o_m_n_a.png,I,m,467,15,2,1493.8999999761581,719039.0,8098,VNB,B,13
10,test,5,0.0,2-Back,1.0,m,Tue May 12 2026 14:27:16 GMT-0500 (Central Daylight Time),722082.7000000477,007_m_m_d_a.png,I,m,516,16,2,1543.0,720539.7000000477,8098,VNB,B,14
11,test,5,0.0,2-Back,1.0,z,Tue May 12 2026 14:27:16 GMT-0500 (Central Daylight Time),723616.2999999523,005_o_f_n_a.png,I,z,515,17,2,1530.8999999761581,722085.3999999762,8098,VNB,B,15
12,test,5,1.0,2-Back,1.0,m,Tue May 12 2026 14:27:16 GMT-0500 (Central Daylight Time),725164.6000000238,016_y_m_h_a.png,I,m,527,18,2,1537.7000000476837,723626.8999999762,8098,VNB,B,16
