block_c,block_dur,condition,countdown,datetime,endtime,list,multichar_response,project,response,response_time,session_number,start_end,starttime,subject_id,task,task_vers,trial
,,,,Wed Oct 08 2025 17:07:27 GMT-0500 (Central Daylight Time),,,,I,space,1430,1,,,8070,WL,B,
prac,,0,,Wed Oct 08 2025 17:07:27 GMT-0500 (Central Daylight Time),,NA,b,I,b,6804,1,,,8070,WL,B,1.0
prac,,0,,Wed Oct 08 2025 17:07:27 GMT-0500 (Central Daylight Time),,NA,bo,I,o,378,1,,,8070,WL,B,1.0
prac,,0,,Wed Oct 08 2025 17:07:27 GMT-0500 (Central Daylight Time),,NA,boo,I,o,139,1,,,8070,WL,B,1.0
prac,,0,,Wed Oct 08 2025 17:07:27 GMT-0500 (Central Daylight Time),,NA,boos,I,s,117,1,,,8070,WL,B,1.0
prac,,0,,Wed Oct 08 2025 17:07:27 GMT-0500 (Central Daylight Time),,NA,boost,I,t,120,1,,,8070,WL,B,1.0
prac,,0,,Wed Oct 08 2025 17:07:27 GMT-0500 (Central Daylight Time),,NA,boostenter,I,enter,2187,1,,,8070,WL,B,1.0
1,0.46700000762939453,learn,59532.999992370605,Wed Oct 08 2025 17:07:27 GMT-0500 (Central Daylight Time),143007.70000004768,A,s,I,s,459,1,466.09999990463257,142541.60000014305,8070,WL,B,1.0
1,0.7829999923706055,learn,59217.000007629395,Wed Oct 08 2025 17:07:27 GMT-0500 (Central Daylight Time),143324.5,A,st,I,t,296,1,782.8999998569489,142541.60000014305,8070,WL,B,1.0
1,1.0329999923706055,learn,58967.000007629395,Wed Oct 08 2025 17:07:27 GMT-0500 (Central Daylight Time),143574.20000004768,A,str,I,r,244,1,1032.5999999046326,142541.60000014305,8070,WL,B,1.0
1,1.1329998970031738,learn,58867.000102996826,Wed Oct 08 2025 17:07:27 GMT-0500 (Central Daylight Time),143674.10000014305,A,stre,I,e,82,1,1132.5,142541.60000014305,8070,WL,B,1.0
1,1.3329999446868896,learn,58667.00005531311,Wed Oct 08 2025 17:07:27 GMT-0500 (Central Daylight Time),143874.40000009537,A,stree,I,e,181,1,1332.7999999523163,142541.60000014305,8070,WL,B,1.0
1,2.0329999923706055,learn,57967.000007629395,Wed Oct 08 2025 17:07:27 GMT-0500 (Central Daylight Time),144573.80000019073,A,street,I,t,686,1,2032.2000000476837,142541.60000014305,8070,WL,B,1.0
1,2.6659998893737793,learn,57334.00011062622,Wed Oct 08 2025 17:07:27 GMT-0500 (Central Daylight Time),145207.10000014305,A,streetenter,I,enter,619,1,2665.5,142541.60000014305,8070,WL,B,1.0
1,5.297999858856201,learn,54702.0001411438,Wed Oct 08 2025 17:07:27 GMT-0500 (Central Daylight Time),147839.5,A,w,I,w,2617,1,2631.7999999523163,145207.70000004768,8070,WL,B,2.0
1,5.398999929428101,learn,54601.0000705719,Wed Oct 08 2025 17:07:27 GMT-0500 (Central Daylight Time),147939.70000004768,A,wi,I,i,89,1,2732.0,145207.70000004768,8070,WL,B,2.0
1,5.565000057220459,learn,54434.99994277954,Wed Oct 08 2025 17:07:27 GMT-0500 (Central Daylight Time),148106.20000004768,A,wif,I,f,147,1,2898.5,145207.70000004768,8070,WL,B,2.0
1,5.648000001907349,learn,54351.99999809265,Wed Oct 08 2025 17:07:27 GMT-0500 (Central Daylight Time),148189.5,A,wife,I,e,70,1,2981.7999999523163,145207.70000004768,8070,WL,B,2.0
1,6.047999858856201,learn,53952.0001411438,Wed Oct 08 2025 17:07:27 GMT-0500 (Central Daylight Time),148589.20000004768,A,wifeenter,I,enter,388,1,3381.5,145207.70000004768,8070,WL,B,2.0
1,6.415999889373779,learn,53584.00011062622,Wed Oct 08 2025 17:07:27 GMT-0500 (Central Daylight Time),148956.70000004768,A,s,I,s,356,1,367.0,148589.70000004768,8070,WL,B,3.0
1,6.514999866485596,learn,53485.000133514404,Wed Oct 08 2025 17:07:27 GMT-0500 (Central Daylight Time),149055.90000009537,A,sk,I,k,92,1,466.2000000476837,148589.70000004768,8070,WL,B,3.0
1,6.680999994277954,learn,53319.000005722046,Wed Oct 08 2025 17:07:27 GMT-0500 (Central Daylight Time),149222.5,A,ski,I,i,145,1,632.7999999523163,148589.70000004768,8070,WL,B,3.0
1,6.764999866485596,learn,53235.000133514404,Wed Oct 08 2025 17:07:27 GMT-0500 (Central Daylight Time),149305.90000009537,A,skin,I,n,66,1,716.2000000476837,148589.70000004768,8070,WL,B,3.0
1,7.0980000495910645,learn,52901.999950408936,Wed Oct 08 2025 17:07:27 GMT-0500 (Central Daylight Time),149639.0,A,skinenter,I,enter,319,1,1049.2999999523163,148589.70000004768,8070,WL,B,3.0
1,9.280999898910522,learn,50719.00010108948,Wed Oct 08 2025 17:07:27 GMT-0500 (Central Daylight Time),151821.90000009537,A,c,I,c,2178,1,2182.5,149639.40000009537,8070,WL,B,4.0
1,9.414000034332275,learn,50585.999965667725,Wed Oct 08 2025 17:07:27 GMT-0500 (Central Daylight Time),151955.10000014305,A,ci,I,i,115,1,2315.7000000476837,149639.40000009537,8070,WL,B,4.0
1,9.513999938964844,learn,50486.000061035156,Wed Oct 08 2025 17:07:27 GMT-0500 (Central Daylight Time),152055.0,A,cit,I,t,86,1,2415.5999999046326,149639.40000009537,8070,WL,B,4.0
1,9.629999876022339,learn,50370.00012397766,Wed Oct 08 2025 17:07:27 GMT-0500 (Central Daylight Time),152171.40000009537,A,city,I,y,98,1,2532.0,149639.40000009537,8070,WL,B,4.0
1,9.879999876022339,learn,50120.00012397766,Wed Oct 08 2025 17:07:27 GMT-0500 (Central Daylight Time),152421.60000014305,A,cityenter,I,enter,230,1,2782.2000000476837,149639.40000009537,8070,WL,B,4.0
1,10.36299991607666,learn,49637.00008392334,Wed Oct 08 2025 17:07:27 GMT-0500 (Central Daylight Time),152904.5,A,g,I,g,467,1,482.59999990463257,152421.90000009537,8070,WL,B,5.0
1,10.563999891281128,learn,49436.00010871887,Wed Oct 08 2025 17:07:27 GMT-0500 (Central Daylight Time),153104.90000009537,A,gr,I,r,192,1,683.0,152421.90000009537,8070,WL,B,5.0
1,10.662999868392944,learn,49337.000131607056,Wed Oct 08 2025 17:07:27 GMT-0500 (Central Daylight Time),153204.40000009537,A,gra,I,a,88,1,782.5,152421.90000009537,8070,WL,B,5.0
1,10.86299991607666,learn,49137.00008392334,Wed Oct 08 2025 17:07:27 GMT-0500 (Central Daylight Time),153404.40000009537,A,gras,I,s,188,1,982.5,152421.90000009537,8070,WL,B,5.0
1,11.02999997138977,learn,48970.00002861023,Wed Oct 08 2025 17:07:27 GMT-0500 (Central Daylight Time),153571.0,A,grass,I,s,157,1,1149.0999999046326,152421.90000009537,8070,WL,B,5.0
1,11.230000019073486,learn,48769.999980926514,Wed Oct 08 2025 17:07:27 GMT-0500 (Central Daylight Time),153771.0,A,grassenter,I,enter,190,1,1349.0999999046326,152421.90000009537,8070,WL,B,5.0
1,11.679999828338623,learn,48320.00017166138,Wed Oct 08 2025 17:07:27 GMT-0500 (Central Daylight Time),154221.0,A,d,I,d,437,1,449.69999980926514,153771.30000019073,8070,WL,B,6.0
1,11.846999883651733,learn,48153.00011634827,Wed Oct 08 2025 17:07:27 GMT-0500 (Central Daylight Time),154387.70000004768,A,do,I,o,156,1,616.3999998569489,153771.30000019073,8070,WL,B,6.0
1,11.980000019073486,learn,48019.999980926514,Wed Oct 08 2025 17:07:27 GMT-0500 (Central Daylight Time),154520.70000004768,A,doo,I,o,125,1,749.3999998569489,153771.30000019073,8070,WL,B,6.0
1,12.11299991607666,learn,47887.00008392334,Wed Oct 08 2025 17:07:27 GMT-0500 (Central Daylight Time),154653.90000009537,A,door,I,r,120,1,882.5999999046326,153771.30000019073,8070,WL,B,6.0
1,12.379999876022339,learn,47620.00012397766,Wed Oct 08 2025 17:07:27 GMT-0500 (Central Daylight Time),154920.70000004768,A,doorenter,I,enter,258,1,1149.3999998569489,153771.30000019073,8070,WL,B,6.0
1,12.829999923706055,learn,47170.000076293945,Wed Oct 08 2025 17:07:27 GMT-0500 (Central Daylight Time),155370.70000004768,A,w,I,w,439,1,449.59999990463257,154921.10000014305,8070,WL,B,7.0
1,12.996000051498413,learn,47003.99994850159,Wed Oct 08 2025 17:07:27 GMT-0500 (Central Daylight Time),155537.0,A,wi,I,i,158,1,615.8999998569489,154921.10000014305,8070,WL,B,7.0
1,13.328999996185303,learn,46671.0000038147,Wed Oct 08 2025 17:07:27 GMT-0500 (Central Daylight Time),155870.40000009537,A,win,I,n,320,1,949.2999999523163,154921.10000014305,8070,WL,B,7.0
1,13.61299991607666,learn,46387.00008392334,Wed Oct 08 2025 17:07:27 GMT-0500 (Central Daylight Time),156153.70000004768,A,wind,I,d,275,1,1232.5999999046326,154921.10000014305,8070,WL,B,7.0
1,13.763000011444092,learn,46236.99998855591,Wed Oct 08 2025 17:07:27 GMT-0500 (Central Daylight Time),156303.70000004768,A,windo,I,o,135,1,1382.5999999046326,154921.10000014305,8070,WL,B,7.0
1,13.86299991607666,learn,46137.00008392334,Wed Oct 08 2025 17:07:27 GMT-0500 (Central Daylight Time),156403.70000004768,A,window,I,w,80,1,1482.5999999046326,154921.10000014305,8070,WL,B,7.0
1,14.34500002861023,learn,45654.99997138977,Wed Oct 08 2025 17:07:27 GMT-0500 (Central Daylight Time),156886.40000009537,A,windowenter,I,enter,477,1,1965.2999999523163,154921.10000014305,8070,WL,B,7.0
1,15.461999893188477,learn,44538.00010681152,Wed Oct 08 2025 17:07:27 GMT-0500 (Central Daylight Time),158003.0,A,c,I,c,1099,1,1116.2999999523163,156886.70000004768,8070,WL,B,8.0
1,15.544999837875366,learn,44455.000162124634,Wed Oct 08 2025 17:07:27 GMT-0500 (Central Daylight Time),158086.30000019073,A,ca,I,a,69,1,1199.6000001430511,156886.70000004768,8070,WL,B,8.0
1,15.744999885559082,learn,44255.00011444092,Wed Oct 08 2025 17:07:27 GMT-0500 (Central Daylight Time),158286.40000009537,A,cab,I,b,179,1,1399.7000000476837,156886.70000004768,8070,WL,B,8.0
1,15.961999893188477,learn,44038.00010681152,Wed Oct 08 2025 17:07:27 GMT-0500 (Central Daylight Time),158503.10000014305,A,cabi,I,i,211,1,1616.4000000953674,156886.70000004768,8070,WL,B,8.0
1,16.128000020980835,learn,43871.999979019165,Wed Oct 08 2025 17:07:27 GMT-0500 (Central Daylight Time),158669.40000009537,A,cabin,I,n,154,1,1782.7000000476837,156886.70000004768,8070,WL,B,8.0
1,16.544999837875366,learn,43455.000162124634,Wed Oct 08 2025 17:07:27 GMT-0500 (Central Daylight Time),159086.20000004768,A,cabinenter,I,enter,396,1,2199.5,156886.70000004768,8070,WL,B,8.0
1,16.84500002861023,learn,43154.99997138977,Wed Oct 08 2025 17:07:27 GMT-0500 (Central Daylight Time),159385.80000019073,A,l,I,l,282,1,299.2000000476837,159086.60000014305,8070,WL,B,9.0
1,16.99399995803833,learn,43006.00004196167,Wed Oct 08 2025 17:07:27 GMT-0500 (Central Daylight Time),159535.5,A,la,I,a,143,1,448.89999985694885,159086.60000014305,8070,WL,B,9.0
1,17.161999940872192,learn,42838.00005912781,Wed Oct 08 2025 17:07:27 GMT-0500 (Central Daylight Time),159702.60000014305,A,lak,I,k,146,1,616.0,159086.60000014305,8070,WL,B,9.0
1,17.277999877929688,learn,42722.00012207031,Wed Oct 08 2025 17:07:27 GMT-0500 (Central Daylight Time),159819.10000014305,A,lake,I,e,99,1,732.5,159086.60000014305,8070,WL,B,9.0
1,17.777999877929688,learn,42222.00012207031,Wed Oct 08 2025 17:07:27 GMT-0500 (Central Daylight Time),160319.60000014305,A,lakeenter,I,enter,486,1,1233.0,159086.60000014305,8070,WL,B,9.0
1,22.825999975204468,learn,37174.00002479553,Wed Oct 08 2025 17:07:27 GMT-0500 (Central Daylight Time),165367.20000004768,A,p,I,p,5034,1,5047.299999952316,160319.90000009537,8070,WL,B,10.0
1,23.026000022888184,learn,36973.99997711182,Wed Oct 08 2025 17:07:27 GMT-0500 (Central Daylight Time),165567.10000014305,A,pu,I,u,194,1,5247.200000047684,160319.90000009537,8070,WL,B,10.0
1,23.192999839782715,learn,36807.000160217285,Wed Oct 08 2025 17:07:27 GMT-0500 (Central Daylight Time),165733.80000019073,A,pup,I,p,146,1,5413.900000095367,160319.90000009537,8070,WL,B,10.0
1,23.375999927520752,learn,36624.00007247925,Wed Oct 08 2025 17:07:27 GMT-0500 (Central Daylight Time),165917.20000004768,A,pupi,I,i,172,1,5597.299999952316,160319.90000009537,8070,WL,B,10.0
1,23.542999982833862,learn,36457.00001716614,Wed Oct 08 2025 17:07:27 GMT-0500 (Central Daylight Time),166083.80000019073,A,pupil,I,l,156,1,5763.900000095367,160319.90000009537,8070,WL,B,10.0
1,23.792999982833862,learn,36207.00001716614,Wed Oct 08 2025 17:07:27 GMT-0500 (Central Daylight Time),166333.80000019073,A,pupilenter,I,enter,229,1,6013.900000095367,160319.90000009537,8070,WL,B,10.0
1,26.924999952316284,learn,33075.000047683716,Wed Oct 08 2025 17:07:27 GMT-0500 (Central Daylight Time),169466.0,A,s,I,s,3123,1,3131.899999856949,166334.10000014305,8070,WL,B,11.0
1,27.174999952316284,learn,32825.000047683716,Wed Oct 08 2025 17:07:27 GMT-0500 (Central Daylight Time),169716.20000004768,A,st,I,t,230,1,3382.0999999046326,166334.10000014305,8070,WL,B,11.0
1,27.407999992370605,learn,32592.000007629395,Wed Oct 08 2025 17:07:27 GMT-0500 (Central Daylight Time),169949.40000009537,A,ste,I,e,220,1,3615.2999999523163,166334.10000014305,8070,WL,B,11.0
1,27.875,learn,32125.0,Wed Oct 08 2025 17:07:27 GMT-0500 (Central Daylight Time),170415.80000019073,A,st,I,backspace,460,1,4081.7000000476837,166334.10000014305,8070,WL,B,11.0
1,28.073999881744385,learn,31926.000118255615,Wed Oct 08 2025 17:07:27 GMT-0500 (Central Daylight Time),170615.60000014305,A,str,I,r,185,1,4281.5,166334.10000014305,8070,WL,B,11.0
1,28.174999952316284,learn,31825.000047683716,Wed Oct 08 2025 17:07:27 GMT-0500 (Central Daylight Time),170715.90000009537,A,stre,I,e,90,1,4381.799999952316,166334.10000014305,8070,WL,B,11.0
1,28.35800004005432,learn,31641.99995994568,Wed Oct 08 2025 17:07:27 GMT-0500 (Central Daylight Time),170899.10000014305,A,stree,I,e,174,1,4565.0,166334.10000014305,8070,WL,B,11.0
1,28.490999937057495,learn,31509.000062942505,Wed Oct 08 2025 17:07:27 GMT-0500 (Central Daylight Time),171032.30000019073,A,street,I,t,126,1,4698.200000047684,166334.10000014305,8070,WL,B,11.0
1,28.70799994468689,learn,31292.00005531311,Wed Oct 08 2025 17:07:27 GMT-0500 (Central Daylight Time),171248.90000009537,A,streetenter,I,enter,209,1,4914.799999952316,166334.10000014305,8070,WL,B,11.0
1,37.520999908447266,learn,22479.000091552734,Wed Oct 08 2025 17:07:27 GMT-0500 (Central Daylight Time),180062.90000009537,A,w,I,w,8801,1,8813.599999904633,171249.30000019073,8070,WL,B,12.0
1,37.63800001144409,learn,22361.99998855591,Wed Oct 08 2025 17:07:27 GMT-0500 (Central Daylight Time),180179.70000004768,A,wi,I,i,105,1,8930.399999856949,171249.30000019073,8070,WL,B,12.0
1,37.787999868392944,learn,22212.000131607056,Wed Oct 08 2025 17:07:27 GMT-0500 (Central Daylight Time),180329.60000014305,A,win,I,n,141,1,9080.299999952316,171249.30000019073,8070,WL,B,12.0
1,37.88800001144409,learn,22111.99998855591,Wed Oct 08 2025 17:07:27 GMT-0500 (Central Daylight Time),180429.30000019073,A,wind,I,d,88,1,9180.0,171249.30000019073,8070,WL,B,12.0
1,38.037999868392944,learn,21962.000131607056,Wed Oct 08 2025 17:07:27 GMT-0500 (Central Daylight Time),180579.10000014305,A,windo,I,o,131,1,9329.799999952316,171249.30000019073,8070,WL,B,12.0
1,38.1710000038147,learn,21828.999996185303,Wed Oct 08 2025 17:07:27 GMT-0500 (Central Daylight Time),180712.80000019073,A,window,I,w,127,1,9463.5,171249.30000019073,8070,WL,B,12.0
1,38.72099995613098,learn,21279.00004386902,Wed Oct 08 2025 17:07:27 GMT-0500 (Central Daylight Time),181262.5,A,windowenter,I,enter,528,1,10013.199999809265,171249.30000019073,8070,WL,B,12.0
1,39.7039999961853,learn,20296.000003814697,Wed Oct 08 2025 17:07:27 GMT-0500 (Central Daylight Time),182245.40000009537,A,d,I,d,971,1,982.5,181262.90000009537,8070,WL,B,13.0
1,39.8199999332428,learn,20180.000066757202,Wed Oct 08 2025 17:07:27 GMT-0500 (Central Daylight Time),182362.10000014305,A,do,I,o,100,1,1099.2000000476837,181262.90000009537,8070,WL,B,13.0
1,39.937000036239624,learn,20062.999963760376,Wed Oct 08 2025 17:07:27 GMT-0500 (Central Daylight Time),182478.90000009537,A,doo,I,o,102,1,1216.0,181262.90000009537,8070,WL,B,13.0
1,40.08699989318848,learn,19913.000106811523,Wed Oct 08 2025 17:07:27 GMT-0500 (Central Daylight Time),182628.80000019073,A,door,I,r,130,1,1365.9000000953674,181262.90000009537,8070,WL,B,13.0
1,40.28699994087219,learn,19713.000059127808,Wed Oct 08 2025 17:07:27 GMT-0500 (Central Daylight Time),182828.40000009537,A,doorenter,I,enter,189,1,1565.5,181262.90000009537,8070,WL,B,13.0
1,52.96599984169006,learn,7034.0001583099365,Wed Oct 08 2025 17:07:27 GMT-0500 (Central Daylight Time),195507.90000009537,A,a,I,a,12669,1,12679.299999952316,182828.60000014305,8070,WL,B,14.0
1,53.115999937057495,learn,6884.000062942505,Wed Oct 08 2025 17:07:27 GMT-0500 (Central Daylight Time),195658.0,A,ar,I,r,141,1,12829.399999856949,182828.60000014305,8070,WL,B,14.0
1,53.26600003242493,learn,6733.999967575073,Wed Oct 08 2025 17:07:27 GMT-0500 (Central Daylight Time),195807.80000019073,A,arm,I,m,142,1,12979.200000047684,182828.60000014305,8070,WL,B,14.0
1,53.532999992370605,learn,6467.0000076293945,Wed Oct 08 2025 17:07:27 GMT-0500 (Central Daylight Time),196074.5,A,armenter,I,enter,258,1,13245.899999856949,182828.60000014305,8070,WL,B,14.0
1,57.014999866485596,learn,2985.0001335144043,Wed Oct 08 2025 17:07:27 GMT-0500 (Central Daylight Time),199557.20000004768,A,enter,I,enter,3461,1,3482.399999856949,196074.80000019073,8070,WL,B,15.0
2,0.8499999046325684,learn,59150.00009536743,Wed Oct 08 2025 17:07:27 GMT-0500 (Central Daylight Time),271184.30000019073,A,w,I,w,836,1,849.8000001907349,270334.5,8070,WL,B,1.0
2,1.066999912261963,learn,58933.00008773804,Wed Oct 08 2025 17:07:27 GMT-0500 (Central Daylight Time),271400.80000019073,A,wi,I,i,200,1,1066.3000001907349,270334.5,8070,WL,B,1.0
2,1.2669999599456787,learn,58733.00004005432,Wed Oct 08 2025 17:07:27 GMT-0500 (Central Daylight Time),271600.90000009537,A,wif,I,f,185,1,1266.4000000953674,270334.5,8070,WL,B,1.0
2,1.3339998722076416,learn,58666.00012779236,Wed Oct 08 2025 17:07:27 GMT-0500 (Central Daylight Time),271667.60000014305,A,wife,I,e,57,1,1333.1000001430511,270334.5,8070,WL,B,1.0
2,2.1499998569488525,learn,57850.00014305115,Wed Oct 08 2025 17:07:27 GMT-0500 (Central Daylight Time),272483.7000000477,A,wifeenter,I,enter,798,1,2149.2000000476837,270334.5,8070,WL,B,1.0
2,2.616999864578247,learn,57383.00013542175,Wed Oct 08 2025 17:07:27 GMT-0500 (Central Daylight Time),272950.60000014305,A,s,I,s,446,1,466.5,272484.10000014305,8070,WL,B,2.0
2,2.75,learn,57250.0,Wed Oct 08 2025 17:07:27 GMT-0500 (Central Daylight Time),273083.80000019073,A,sk,I,k,115,1,599.7000000476837,272484.10000014305,8070,WL,B,2.0
2,2.882999897003174,learn,57117.000102996826,Wed Oct 08 2025 17:07:27 GMT-0500 (Central Daylight Time),273216.80000019073,A,ski,I,i,126,1,732.7000000476837,272484.10000014305,8070,WL,B,2.0
2,3.0159997940063477,learn,56984.00020599365,Wed Oct 08 2025 17:07:27 GMT-0500 (Central Daylight Time),273350.2000000477,A,skin,I,n,112,1,866.0999999046326,272484.10000014305,8070,WL,B,2.0
2,3.3489999771118164,learn,56651.00002288818,Wed Oct 08 2025 17:07:27 GMT-0500 (Central Daylight Time),273683.30000019073,A,skinenter,I,enter,315,1,1199.2000000476837,272484.10000014305,8070,WL,B,2.0
2,3.7659997940063477,learn,56234.00020599365,Wed Oct 08 2025 17:07:27 GMT-0500 (Central Daylight Time),274100.10000014305,A,d,I,d,397,1,416.40000009536743,273683.7000000477,8070,WL,B,3.0
2,3.9159998893737793,learn,56084.00011062622,Wed Oct 08 2025 17:07:27 GMT-0500 (Central Daylight Time),274250.0,A,do,I,o,140,1,566.2999999523163,273683.7000000477,8070,WL,B,3.0
2,4.065999984741211,learn,55934.00001525879,Wed Oct 08 2025 17:07:27 GMT-0500 (Central Daylight Time),274399.7000000477,A,doo,I,o,142,1,716.0,273683.7000000477,8070,WL,B,3.0
2,4.184999942779541,learn,55815.00005722046,Wed Oct 08 2025 17:07:27 GMT-0500 (Central Daylight Time),274519.30000019073,A,door,I,r,114,1,835.6000001430511,273683.7000000477,8070,WL,B,3.0
2,4.381999969482422,learn,55618.00003051758,Wed Oct 08 2025 17:07:27 GMT-0500 (Central Daylight Time),274716.30000019073,A,doorenter,I,enter,178,1,1032.6000001430511,273683.7000000477,8070,WL,B,3.0
2,4.631999969482422,learn,55368.00003051758,Wed Oct 08 2025 17:07:27 GMT-0500 (Central Daylight Time),274966.30000019073,A,w,I,w,229,1,249.5,274716.80000019073,8070,WL,B,4.0
2,4.748999834060669,learn,55251.00016593933,Wed Oct 08 2025 17:07:27 GMT-0500 (Central Daylight Time),275082.7000000477,A,wi,I,i,105,1,365.89999985694885,274716.80000019073,8070,WL,B,4.0
2,4.848999977111816,learn,55151.00002288818,Wed Oct 08 2025 17:07:27 GMT-0500 (Central Daylight Time),275182.7000000477,A,win,I,n,93,1,465.89999985694885,274716.80000019073,8070,WL,B,4.0
2,5.014999866485596,learn,54985.000133514404,Wed Oct 08 2025 17:07:27 GMT-0500 (Central Daylight Time),275349.30000019073,A,wind,I,d,153,1,632.5,274716.80000019073,8070,WL,B,4.0
2,5.198999881744385,learn,54801.000118255615,Wed Oct 08 2025 17:07:27 GMT-0500 (Central Daylight Time),275533.2000000477,A,windo,I,o,172,1,816.3999998569489,274716.80000019073,8070,WL,B,4.0
2,5.298999786376953,learn,54701.00021362305,Wed Oct 08 2025 17:07:27 GMT-0500 (Central Daylight Time),275633.2000000477,A,window,I,w,92,1,916.3999998569489,274716.80000019073,8070,WL,B,4.0
2,5.581999778747559,learn,54418.00022125244,Wed Oct 08 2025 17:07:27 GMT-0500 (Central Daylight Time),275916.0,A,windowenter,I,enter,264,1,1199.1999998092651,274716.80000019073,8070,WL,B,4.0
2,6.06499981880188,learn,53935.00018119812,Wed Oct 08 2025 17:07:27 GMT-0500 (Central Daylight Time),276399.5,A,s,I,s,469,1,483.19999980926514,275916.30000019073,8070,WL,B,5.0
2,6.247999906539917,learn,53752.00009346008,Wed Oct 08 2025 17:07:27 GMT-0500 (Central Daylight Time),276582.2000000477,A,st,I,t,178,1,665.8999998569489,275916.30000019073,8070,WL,B,5.0
2,6.398999929428101,learn,53601.0000705719,Wed Oct 08 2025 17:07:27 GMT-0500 (Central Daylight Time),276732.60000014305,A,sta,I,a,131,1,816.2999999523163,275916.30000019073,8070,WL,B,5.0
2,6.531999826431274,learn,53468.000173568726,Wed Oct 08 2025 17:07:27 GMT-0500 (Central Daylight Time),276865.5,A,star,I,r,125,1,949.1999998092651,275916.30000019073,8070,WL,B,5.0
2,6.997999906539917,learn,53002.00009346008,Wed Oct 08 2025 17:07:27 GMT-0500 (Central Daylight Time),277332.30000019073,A,starenter,I,enter,456,1,1416.0,275916.30000019073,8070,WL,B,5.0
2,7.648000001907349,learn,52351.99999809265,Wed Oct 08 2025 17:07:27 GMT-0500 (Central Daylight Time),277982.10000014305,A,p,I,p,636,1,649.4000000953674,277332.7000000477,8070,WL,B,6.0
2,7.847999811172485,learn,52152.000188827515,Wed Oct 08 2025 17:07:27 GMT-0500 (Central Daylight Time),278181.80000019073,A,pi,I,i,195,1,849.1000001430511,277332.7000000477,8070,WL,B,6.0
2,7.997999906539917,learn,52002.00009346008,Wed Oct 08 2025 17:07:27 GMT-0500 (Central Daylight Time),278332.0,A,pip,I,p,132,1,999.2999999523163,277332.7000000477,8070,WL,B,6.0
2,8.1489999294281,learn,51851.0000705719,Wed Oct 08 2025 17:07:27 GMT-0500 (Central Daylight Time),278483.10000014305,A,pipe,I,e,133,1,1150.4000000953674,277332.7000000477,8070,WL,B,6.0
2,8.524999856948853,learn,51475.00014305115,Wed Oct 08 2025 17:07:27 GMT-0500 (Central Daylight Time),278859.2000000477,A,pipeenter,I,enter,371,1,1526.5,277332.7000000477,8070,WL,B,6.0
2,10.063999891281128,learn,49936.00010871887,Wed Oct 08 2025 17:07:27 GMT-0500 (Central Daylight Time),280398.10000014305,A,f,I,f,1526,1,1538.5,278859.60000014305,8070,WL,B,7.0
2,10.21399998664856,learn,49786.00001335144,Wed Oct 08 2025 17:07:27 GMT-0500 (Central Daylight Time),280547.80000019073,A,fi,I,i,139,1,1688.2000000476837,278859.60000014305,8070,WL,B,7.0
2,10.38099980354309,learn,49619.00019645691,Wed Oct 08 2025 17:07:27 GMT-0500 (Central Daylight Time),280714.7000000477,A,fir,I,r,158,1,1855.0999999046326,278859.60000014305,8070,WL,B,7.0
2,10.580999851226807,learn,49419.00014877319,Wed Oct 08 2025 17:07:27 GMT-0500 (Central Daylight Time),280914.60000014305,A,fire,I,e,190,1,2055.0,278859.60000014305,8070,WL,B,7.0
2,10.996999979019165,learn,49003.000020980835,Wed Oct 08 2025 17:07:27 GMT-0500 (Central Daylight Time),281331.2000000477,A,fireenter,I,enter,407,1,2471.5999999046326,278859.60000014305,8070,WL,B,7.0
2,11.479999780654907,learn,48520.00021934509,Wed Oct 08 2025 17:07:27 GMT-0500 (Central Daylight Time),281814.2000000477,A,c,I,c,478,1,482.7000000476837,281331.5,8070,WL,B,8.0
2,11.596999883651733,learn,48403.00011634827,Wed Oct 08 2025 17:07:27 GMT-0500 (Central Daylight Time),281930.7000000477,A,cl,I,l,107,1,599.2000000476837,281331.5,8070,WL,B,8.0
2,11.79699993133545,learn,48203.00006866455,Wed Oct 08 2025 17:07:27 GMT-0500 (Central Daylight Time),282130.80000019073,A,clo,I,o,190,1,799.3000001907349,281331.5,8070,WL,B,8.0
2,11.929999828338623,learn,48070.00017166138,Wed Oct 08 2025 17:07:27 GMT-0500 (Central Daylight Time),282264.10000014305,A,cloc,I,c,117,1,932.6000001430511,281331.5,8070,WL,B,8.0
2,12.129999876022339,learn,47870.00012397766,Wed Oct 08 2025 17:07:27 GMT-0500 (Central Daylight Time),282464.40000009537,A,clock,I,k,185,1,1132.9000000953674,281331.5,8070,WL,B,8.0
2,12.662999868392944,learn,47337.000131607056,Wed Oct 08 2025 17:07:27 GMT-0500 (Central Daylight Time),282997.2000000477,A,clockenter,I,enter,512,1,1665.7000000476837,281331.5,8070,WL,B,8.0
2,12.995999813079834,learn,47004.000186920166,Wed Oct 08 2025 17:07:27 GMT-0500 (Central Daylight Time),283330.5,A,s,I,s,325,1,333.0,282997.5,8070,WL,B,9.0
2,13.179999828338623,learn,46820.00017166138,Wed Oct 08 2025 17:07:27 GMT-0500 (Central Daylight Time),283513.80000019073,A,st,I,t,174,1,516.3000001907349,282997.5,8070,WL,B,9.0
2,13.412999868392944,learn,46587.000131607056,Wed Oct 08 2025 17:07:27 GMT-0500 (Central Daylight Time),283747.10000014305,A,str,I,r,214,1,749.6000001430511,282997.5,8070,WL,B,9.0
2,13.512999773025513,learn,46487.00022697449,Wed Oct 08 2025 17:07:27 GMT-0500 (Central Daylight Time),283846.7000000477,A,stre,I,e,94,1,849.2000000476837,282997.5,8070,WL,B,9.0
2,13.712999820709229,learn,46287.00017929077,Wed Oct 08 2025 17:07:27 GMT-0500 (Central Daylight Time),284046.80000019073,A,stree,I,e,187,1,1049.3000001907349,282997.5,8070,WL,B,9.0
2,13.878999948501587,learn,46121.00005149841,Wed Oct 08 2025 17:07:27 GMT-0500 (Central Daylight Time),284213.5,A,street,I,t,146,1,1216.0,282997.5,8070,WL,B,9.0
2,15.02899980545044,learn,44971.00019454956,Wed Oct 08 2025 17:07:27 GMT-0500 (Central Daylight Time),285363.2000000477,A,streetenter,I,enter,1132,1,2365.7000000476837,282997.5,8070,WL,B,9.0
2,15.461999893188477,learn,44538.00010681152,Wed Oct 08 2025 17:07:27 GMT-0500 (Central Daylight Time),285796.40000009537,A,c,I,c,414,1,432.7000000476837,285363.7000000477,8070,WL,B,10.0
2,15.894999980926514,learn,44105.000019073486,Wed Oct 08 2025 17:07:27 GMT-0500 (Central Daylight Time),286229.40000009537,A,ci,I,i,421,1,865.7000000476837,285363.7000000477,8070,WL,B,10.0
2,16.044999837875366,learn,43955.000162124634,Wed Oct 08 2025 17:07:27 GMT-0500 (Central Daylight Time),286379.40000009537,A,cit,I,t,131,1,1015.7000000476837,285363.7000000477,8070,WL,B,10.0
2,16.17899990081787,learn,43821.00009918213,Wed Oct 08 2025 17:07:27 GMT-0500 (Central Daylight Time),286512.7000000477,A,city,I,y,117,1,1149.0,285363.7000000477,8070,WL,B,10.0
2,16.67799997329712,learn,43322.00002670288,Wed Oct 08 2025 17:07:27 GMT-0500 (Central Daylight Time),287012.40000009537,A,cityenter,I,enter,489,1,1648.7000000476837,285363.7000000477,8070,WL,B,10.0
2,17.82799983024597,learn,42172.00016975403,Wed Oct 08 2025 17:07:27 GMT-0500 (Central Daylight Time),288162.5,A,d,I,d,1133,1,1149.5999999046326,287012.90000009537,8070,WL,B,11.0
2,18.01099991798401,learn,41989.00008201599,Wed Oct 08 2025 17:07:27 GMT-0500 (Central Daylight Time),288345.5,A,do,I,o,167,1,1332.5999999046326,287012.90000009537,8070,WL,B,11.0
2,18.59499979019165,learn,41405.00020980835,Wed Oct 08 2025 17:07:27 GMT-0500 (Central Daylight Time),288928.80000019073,A,doo,I,o,576,1,1915.9000000953674,287012.90000009537,8070,WL,B,11.0
2,18.727999925613403,learn,41272.0000743866,Wed Oct 08 2025 17:07:27 GMT-0500 (Central Daylight Time),289062.2000000477,A,door,I,r,129,1,2049.2999999523163,287012.90000009537,8070,WL,B,11.0
2,19.293999910354614,learn,40706.000089645386,Wed Oct 08 2025 17:07:27 GMT-0500 (Central Daylight Time),289628.30000019073,A,doorenter,I,enter,555,1,2615.4000000953674,287012.90000009537,8070,WL,B,11.0
2,19.59499979019165,learn,40405.00020980835,Wed Oct 08 2025 17:07:27 GMT-0500 (Central Daylight Time),289928.7000000477,A,w,I,w,285,1,300.0,289628.7000000477,8070,WL,B,12.0
2,19.794999837875366,learn,40205.000162124634,Wed Oct 08 2025 17:07:27 GMT-0500 (Central Daylight Time),290128.60000014305,A,wi,I,i,184,1,499.90000009536743,289628.7000000477,8070,WL,B,12.0
2,19.926999807357788,learn,40073.00019264221,Wed Oct 08 2025 17:07:27 GMT-0500 (Central Daylight Time),290261.30000019073,A,win,I,n,112,1,632.6000001430511,289628.7000000477,8070,WL,B,12.0
2,20.060999870300293,learn,39939.00012969971,Wed Oct 08 2025 17:07:27 GMT-0500 (Central Daylight Time),290394.90000009537,A,wind,I,d,116,1,766.2000000476837,289628.7000000477,8070,WL,B,12.0
2,20.193999767303467,learn,39806.00023269653,Wed Oct 08 2025 17:07:27 GMT-0500 (Central Daylight Time),290528.0,A,windo,I,o,119,1,899.2999999523163,289628.7000000477,8070,WL,B,12.0
2,20.32699990272522,learn,39673.00009727478,Wed Oct 08 2025 17:07:27 GMT-0500 (Central Daylight Time),290661.5,A,window,I,w,121,1,1032.7999999523163,289628.7000000477,8070,WL,B,12.0
2,20.66099977493286,learn,39339.00022506714,Wed Oct 08 2025 17:07:27 GMT-0500 (Central Daylight Time),290994.60000014305,A,windowenter,I,enter,315,1,1365.9000000953674,289628.7000000477,8070,WL,B,12.0
2,24.425999879837036,learn,35574.000120162964,Wed Oct 08 2025 17:07:27 GMT-0500 (Central Daylight Time),294760.2000000477,A,p,I,p,3751,1,3765.2999999523163,290994.90000009537,8070,WL,B,13.0
2,24.591999769210815,learn,35408.000230789185,Wed Oct 08 2025 17:07:27 GMT-0500 (Central Daylight Time),294926.60000014305,A,pu,I,u,161,1,3931.7000000476837,290994.90000009537,8070,WL,B,13.0
2,24.741999864578247,learn,35258.00013542175,Wed Oct 08 2025 17:07:27 GMT-0500 (Central Daylight Time),295076.80000019073,A,pup,I,p,139,1,4081.9000000953674,290994.90000009537,8070,WL,B,13.0
2,24.89199995994568,learn,35108.00004005432,Wed Oct 08 2025 17:07:27 GMT-0500 (Central Daylight Time),295226.5,A,pupi,I,i,141,1,4231.599999904633,290994.90000009537,8070,WL,B,13.0
2,25.091999769210815,learn,34908.000230789185,Wed Oct 08 2025 17:07:27 GMT-0500 (Central Daylight Time),295426.7000000477,A,pupil,I,l,191,1,4431.799999952316,290994.90000009537,8070,WL,B,13.0
2,25.375,learn,34625.0,Wed Oct 08 2025 17:07:27 GMT-0500 (Central Daylight Time),295710.0,A,pupilenter,I,enter,271,1,4715.099999904633,290994.90000009537,8070,WL,B,13.0
2,35.80499982833862,learn,24195.000171661377,Wed Oct 08 2025 17:07:27 GMT-0500 (Central Daylight Time),306139.80000019073,A,c,I,c,10411,1,10429.400000095367,295710.40000009537,8070,WL,B,14.0
2,35.93899989128113,learn,24061.000108718872,Wed Oct 08 2025 17:07:27 GMT-0500 (Central Daylight Time),306273.2000000477,A,ci,I,i,117,1,10562.799999952316,295710.40000009537,8070,WL,B,14.0
2,36.10499978065491,learn,23895.000219345093,Wed Oct 08 2025 17:07:27 GMT-0500 (Central Daylight Time),306439.7000000477,A,cit,I,t,159,1,10729.299999952316,295710.40000009537,8070,WL,B,14.0
2,36.204999923706055,learn,23795.000076293945,Wed Oct 08 2025 17:07:27 GMT-0500 (Central Daylight Time),306539.7000000477,A,city,I,y,82,1,10829.299999952316,295710.40000009537,8070,WL,B,14.0
2,36.43899989128113,learn,23561.000108718872,Wed Oct 08 2025 17:07:27 GMT-0500 (Central Daylight Time),306773.2000000477,A,cityenter,I,enter,213,1,11062.799999952316,295710.40000009537,8070,WL,B,14.0
2,43.46999979019165,learn,16530.00020980835,Wed Oct 08 2025 17:07:27 GMT-0500 (Central Daylight Time),313805.0,A,a,I,a,7013,1,7031.5,306773.5,8070,WL,B,15.0
2,43.65299987792969,learn,16347.000122070312,Wed Oct 08 2025 17:07:27 GMT-0500 (Central Daylight Time),313987.40000009537,A,ar,I,r,164,1,7213.900000095367,306773.5,8070,WL,B,15.0
2,43.752999782562256,learn,16247.000217437744,Wed Oct 08 2025 17:07:27 GMT-0500 (Central Daylight Time),314087.40000009537,A,arm,I,m,92,1,7313.900000095367,306773.5,8070,WL,B,15.0
2,43.9689998626709,learn,16031.000137329102,Wed Oct 08 2025 17:07:27 GMT-0500 (Central Daylight Time),314303.90000009537,A,armenter,I,enter,202,1,7530.400000095367,306773.5,8070,WL,B,15.0
3,0.5169999599456787,learn,59483.00004005432,Wed Oct 08 2025 17:07:27 GMT-0500 (Central Daylight Time),385748.30000019073,A,c,I,c,507,1,516.7000000476837,385231.60000014305,8070,WL,B,1.0
3,0.6330001354217529,learn,59366.99986457825,Wed Oct 08 2025 17:07:27 GMT-0500 (Central Daylight Time),385864.90000009537,A,ci,I,i,100,1,633.2999999523163,385231.60000014305,8070,WL,B,1.0
3,0.7829999923706055,learn,59217.000007629395,Wed Oct 08 2025 17:07:27 GMT-0500 (Central Daylight Time),386014.60000014305,A,cit,I,t,144,1,783.0,385231.60000014305,8070,WL,B,1.0
3,0.8670001029968262,learn,59132.999897003174,Wed Oct 08 2025 17:07:27 GMT-0500 (Central Daylight Time),386098.2000000477,A,city,I,y,66,1,866.5999999046326,385231.60000014305,8070,WL,B,1.0
3,1.1660001277923584,learn,58833.99987220764,Wed Oct 08 2025 17:07:27 GMT-0500 (Central Daylight Time),386398.2000000477,A,cityenter,I,enter,279,1,1166.5999999046326,385231.60000014305,8070,WL,B,1.0
3,1.5499999523162842,learn,58450.000047683716,Wed Oct 08 2025 17:07:27 GMT-0500 (Central Daylight Time),386781.2000000477,A,s,I,s,371,1,382.7000000476837,386398.5,8070,WL,B,2.0
3,1.8989999294281006,learn,58101.0000705719,Wed Oct 08 2025 17:07:27 GMT-0500 (Central Daylight Time),387131.10000014305,A,st,I,t,340,1,732.6000001430511,386398.5,8070,WL,B,2.0
3,2.0329999923706055,learn,57967.000007629395,Wed Oct 08 2025 17:07:27 GMT-0500 (Central Daylight Time),387264.60000014305,A,sta,I,a,118,1,866.1000001430511,386398.5,8070,WL,B,2.0
3,2.115999937057495,learn,57884.000062942505,Wed Oct 08 2025 17:07:27 GMT-0500 (Central Daylight Time),387347.90000009537,A,star,I,r,72,1,949.4000000953674,386398.5,8070,WL,B,2.0
3,2.4660000801086426,learn,57533.99991989136,Wed Oct 08 2025 17:07:27 GMT-0500 (Central Daylight Time),387697.40000009537,A,starenter,I,enter,341,1,1298.9000000953674,386398.5,8070,WL,B,2.0
3,2.8489999771118164,learn,57151.00002288818,Wed Oct 08 2025 17:07:27 GMT-0500 (Central Daylight Time),388080.80000019073,A,f,I,f,367,1,383.10000014305115,387697.7000000477,8070,WL,B,3.0
3,2.949000120162964,learn,57050.999879837036,Wed Oct 08 2025 17:07:27 GMT-0500 (Central Daylight Time),388180.90000009537,A,fi,I,i,88,1,483.2000000476837,387697.7000000477,8070,WL,B,3.0
3,3.2330000400543213,learn,56766.99995994568,Wed Oct 08 2025 17:07:27 GMT-0500 (Central Daylight Time),388464.40000009537,A,fir,I,r,269,1,766.7000000476837,387697.7000000477,8070,WL,B,3.0
3,3.315999984741211,learn,56684.00001525879,Wed Oct 08 2025 17:07:27 GMT-0500 (Central Daylight Time),388547.40000009537,A,fire,I,e,73,1,849.7000000476837,387697.7000000477,8070,WL,B,3.0
3,3.449000120162964,learn,56550.999879837036,Wed Oct 08 2025 17:07:27 GMT-0500 (Central Daylight Time),388680.7000000477,A,fireenter,I,enter,117,1,983.0,387697.7000000477,8070,WL,B,3.0
3,3.865999937057495,learn,56134.000062942505,Wed Oct 08 2025 17:07:27 GMT-0500 (Central Daylight Time),389097.2000000477,A,c,I,c,409,1,416.2000000476837,388681.0,8070,WL,B,4.0
3,3.9650001525878906,learn,56034.99984741211,Wed Oct 08 2025 17:07:27 GMT-0500 (Central Daylight Time),389197.2000000477,A,cl,I,l,88,1,516.2000000476837,388681.0,8070,WL,B,4.0
3,4.164999961853027,learn,55835.00003814697,Wed Oct 08 2025 17:07:27 GMT-0500 (Central Daylight Time),389397.10000014305,A,clo,I,o,179,1,716.1000001430511,388681.0,8070,WL,B,4.0
3,4.332000017166138,learn,55667.99998283386,Wed Oct 08 2025 17:07:27 GMT-0500 (Central Daylight Time),389563.5,A,cloc,I,c,155,1,882.5,388681.0,8070,WL,B,4.0
3,4.982000112533569,learn,55017.99988746643,Wed Oct 08 2025 17:07:27 GMT-0500 (Central Daylight Time),390213.5,A,clock,I,k,630,1,1532.5,388681.0,8070,WL,B,4.0
3,5.232000112533569,learn,54767.99988746643,Wed Oct 08 2025 17:07:27 GMT-0500 (Central Daylight Time),390463.40000009537,A,clockenter,I,enter,244,1,1782.4000000953674,388681.0,8070,WL,B,4.0
3,5.697999954223633,learn,54302.00004577637,Wed Oct 08 2025 17:07:27 GMT-0500 (Central Daylight Time),390930.2000000477,A,p,I,p,458,1,466.5,390463.7000000477,8070,WL,B,5.0
3,5.898000001907349,learn,54101.99999809265,Wed Oct 08 2025 17:07:27 GMT-0500 (Central Daylight Time),391130.0,A,pi,I,i,183,1,666.2999999523163,390463.7000000477,8070,WL,B,5.0
3,6.031000137329102,learn,53968.9998626709,Wed Oct 08 2025 17:07:27 GMT-0500 (Central Daylight Time),391263.0,A,pip,I,p,127,1,799.2999999523163,390463.7000000477,8070,WL,B,5.0
3,6.197999954223633,learn,53802.00004577637,Wed Oct 08 2025 17:07:27 GMT-0500 (Central Daylight Time),391429.60000014305,A,pipe,I,e,153,1,965.9000000953674,390463.7000000477,8070,WL,B,5.0
3,6.432000160217285,learn,53567.999839782715,Wed Oct 08 2025 17:07:27 GMT-0500 (Central Daylight Time),391663.40000009537,A,pipeenter,I,enter,219,1,1199.7000000476837,390463.7000000477,8070,WL,B,5.0
3,7.564000129699707,learn,52435.99987030029,Wed Oct 08 2025 17:07:27 GMT-0500 (Central Daylight Time),392795.90000009537,A,s,I,s,1122,1,1132.2000000476837,391663.7000000477,8070,WL,B,6.0
3,7.763999938964844,learn,52236.000061035156,Wed Oct 08 2025 17:07:27 GMT-0500 (Central Daylight Time),392996.10000014305,A,st,I,t,182,1,1332.4000000953674,391663.7000000477,8070,WL,B,6.0
3,7.96399998664856,learn,52036.00001335144,Wed Oct 08 2025 17:07:27 GMT-0500 (Central Daylight Time),393195.80000019073,A,ste,I,e,188,1,1532.1000001430511,391663.7000000477,8070,WL,B,6.0
3,8.71399998664856,learn,51286.00001335144,Wed Oct 08 2025 17:07:27 GMT-0500 (Central Daylight Time),393945.60000014305,A,st,I,backspace,734,1,2281.9000000953674,391663.7000000477,8070,WL,B,6.0
3,8.814000129699707,learn,51185.99987030029,Wed Oct 08 2025 17:07:27 GMT-0500 (Central Daylight Time),394045.60000014305,A,str,I,r,86,1,2381.9000000953674,391663.7000000477,8070,WL,B,6.0
3,8.914000034332275,learn,51085.999965667725,Wed Oct 08 2025 17:07:27 GMT-0500 (Central Daylight Time),394145.40000009537,A,stre,I,e,92,1,2481.7000000476837,391663.7000000477,8070,WL,B,6.0
3,9.080000162124634,learn,50919.999837875366,Wed Oct 08 2025 17:07:27 GMT-0500 (Central Daylight Time),394312.0,A,stree,I,e,159,1,2648.2999999523163,391663.7000000477,8070,WL,B,6.0
3,9.230000019073486,learn,50769.999980926514,Wed Oct 08 2025 17:07:27 GMT-0500 (Central Daylight Time),394462.10000014305,A,street,I,t,137,1,2798.4000000953674,391663.7000000477,8070,WL,B,6.0
3,9.513999938964844,learn,50486.000061035156,Wed Oct 08 2025 17:07:27 GMT-0500 (Central Daylight Time),394745.30000019073,A,streetenter,I,enter,267,1,3081.600000143051,391663.7000000477,8070,WL,B,6.0
3,9.96500015258789,learn,50034.99984741211,Wed Oct 08 2025 17:07:27 GMT-0500 (Central Daylight Time),395196.40000009537,A,c,I,c,431,1,450.7000000476837,394745.7000000477,8070,WL,B,7.0
3,10.11300015449524,learn,49886.99984550476,Wed Oct 08 2025 17:07:27 GMT-0500 (Central Daylight Time),395344.90000009537,A,ci,I,i,140,1,599.2000000476837,394745.7000000477,8070,WL,B,7.0
3,10.364000082015991,learn,49635.99991798401,Wed Oct 08 2025 17:07:27 GMT-0500 (Central Daylight Time),395595.40000009537,A,cit,I,t,240,1,849.7000000476837,394745.7000000477,8070,WL,B,7.0
3,10.52999997138977,learn,49470.00002861023,Wed Oct 08 2025 17:07:27 GMT-0500 (Central Daylight Time),395761.80000019073,A,city,I,y,150,1,1016.1000001430511,394745.7000000477,8070,WL,B,7.0
3,10.980000019073486,learn,49019.999980926514,Wed Oct 08 2025 17:07:27 GMT-0500 (Central Daylight Time),396211.60000014305,A,cityenter,I,enter,440,1,1465.9000000953674,394745.7000000477,8070,WL,B,7.0
3,11.592000007629395,learn,48407.999992370605,Wed Oct 08 2025 17:07:27 GMT-0500 (Central Daylight Time),396823.60000014305,A,d,I,d,607,1,611.7000000476837,396211.90000009537,8070,WL,B,8.0
3,11.730000019073486,learn,48269.999980926514,Wed Oct 08 2025 17:07:27 GMT-0500 (Central Daylight Time),396961.40000009537,A,do,I,o,120,1,749.5,396211.90000009537,8070,WL,B,8.0
3,11.86300015449524,learn,48136.99984550476,Wed Oct 08 2025 17:07:27 GMT-0500 (Central Daylight Time),397094.60000014305,A,doo,I,o,127,1,882.7000000476837,396211.90000009537,8070,WL,B,8.0
3,12.013000011444092,learn,47986.99998855591,Wed Oct 08 2025 17:07:27 GMT-0500 (Central Daylight Time),397244.7000000477,A,door,I,r,130,1,1032.7999999523163,396211.90000009537,8070,WL,B,8.0
3,12.396000146865845,learn,47603.999853134155,Wed Oct 08 2025 17:07:27 GMT-0500 (Central Daylight Time),397627.80000019073,A,doorenter,I,enter,373,1,1415.9000000953674,396211.90000009537,8070,WL,B,8.0
3,12.663000106811523,learn,47336.99989318848,Wed Oct 08 2025 17:07:27 GMT-0500 (Central Daylight Time),397894.60000014305,A,a,I,a,246,1,266.40000009536743,397628.2000000477,8070,WL,B,9.0
3,12.812999963760376,learn,47187.000036239624,Wed Oct 08 2025 17:07:27 GMT-0500 (Central Daylight Time),398044.5,A,ar,I,r,139,1,416.2999999523163,397628.2000000477,8070,WL,B,9.0
3,13.01200008392334,learn,46987.99991607666,Wed Oct 08 2025 17:07:27 GMT-0500 (Central Daylight Time),398244.10000014305,A,arm,I,m,189,1,615.9000000953674,397628.2000000477,8070,WL,B,9.0
3,13.51200008392334,learn,46487.99991607666,Wed Oct 08 2025 17:07:27 GMT-0500 (Central Daylight Time),398744.10000014305,A,armenter,I,enter,484,1,1115.9000000953674,397628.2000000477,8070,WL,B,9.0
3,14.029000043869019,learn,45970.99995613098,Wed Oct 08 2025 17:07:27 GMT-0500 (Central Daylight Time),399260.60000014305,A,w,I,w,505,1,516.2000000476837,398744.40000009537,8070,WL,B,10.0
3,14.212000131607056,learn,45787.999868392944,Wed Oct 08 2025 17:07:27 GMT-0500 (Central Daylight Time),399443.90000009537,A,wi,I,i,173,1,699.5,398744.40000009537,8070,WL,B,10.0
3,14.361999988555908,learn,45638.00001144409,Wed Oct 08 2025 17:07:27 GMT-0500 (Central Daylight Time),399593.90000009537,A,wif,I,f,141,1,849.5,398744.40000009537,8070,WL,B,10.0
3,14.44700002670288,learn,45552.99997329712,Wed Oct 08 2025 17:07:27 GMT-0500 (Central Daylight Time),399678.60000014305,A,wife,I,e,63,1,934.2000000476837,398744.40000009537,8070,WL,B,10.0
3,14.644999980926514,learn,45355.000019073486,Wed Oct 08 2025 17:07:27 GMT-0500 (Central Daylight Time),399877.10000014305,A,wifeenter,I,enter,187,1,1132.7000000476837,398744.40000009537,8070,WL,B,10.0
3,15.01200008392334,learn,44987.99991607666,Wed Oct 08 2025 17:07:27 GMT-0500 (Central Daylight Time),400243.80000019073,A,s,I,s,347,1,366.2000000476837,399877.60000014305,8070,WL,B,11.0
3,15.128999948501587,learn,44871.00005149841,Wed Oct 08 2025 17:07:27 GMT-0500 (Central Daylight Time),400360.30000019073,A,sk,I,k,110,1,482.7000000476837,399877.60000014305,8070,WL,B,11.0
3,15.328999996185303,learn,44671.0000038147,Wed Oct 08 2025 17:07:27 GMT-0500 (Central Daylight Time),400560.5,A,ski,I,i,193,1,682.8999998569489,399877.60000014305,8070,WL,B,11.0
3,15.661999940872192,learn,44338.00005912781,Wed Oct 08 2025 17:07:27 GMT-0500 (Central Daylight Time),400893.30000019073,A,skin,I,n,312,1,1015.7000000476837,399877.60000014305,8070,WL,B,11.0
3,16.046000003814697,learn,43953.9999961853,Wed Oct 08 2025 17:07:27 GMT-0500 (Central Daylight Time),401277.5,A,skinenter,I,enter,379,1,1399.8999998569489,399877.60000014305,8070,WL,B,11.0
3,16.694999933242798,learn,43305.0000667572,Wed Oct 08 2025 17:07:27 GMT-0500 (Central Daylight Time),401926.40000009537,A,p,I,p,635,1,648.7000000476837,401277.7000000477,8070,WL,B,12.0
3,16.861999988555908,learn,43138.00001144409,Wed Oct 08 2025 17:07:27 GMT-0500 (Central Daylight Time),402093.2000000477,A,pu,I,u,146,1,815.5,401277.7000000477,8070,WL,B,12.0
3,16.960999965667725,learn,43039.000034332275,Wed Oct 08 2025 17:07:27 GMT-0500 (Central Daylight Time),402193.0,A,pup,I,p,84,1,915.2999999523163,401277.7000000477,8070,WL,B,12.0
3,17.128000020980835,learn,42871.999979019165,Wed Oct 08 2025 17:07:27 GMT-0500 (Central Daylight Time),402359.80000019073,A,pupi,I,i,152,1,1082.1000001430511,401277.7000000477,8070,WL,B,12.0
3,17.311000108718872,learn,42688.99989128113,Wed Oct 08 2025 17:07:27 GMT-0500 (Central Daylight Time),402542.7000000477,A,pupil,I,l,177,1,1265.0,401277.7000000477,8070,WL,B,12.0
3,17.57800006866455,learn,42421.99993133545,Wed Oct 08 2025 17:07:27 GMT-0500 (Central Daylight Time),402809.60000014305,A,pupilenter,I,enter,259,1,1531.9000000953674,401277.7000000477,8070,WL,B,12.0
3,18.028000116348267,learn,41971.99988365173,Wed Oct 08 2025 17:07:27 GMT-0500 (Central Daylight Time),403259.30000019073,A,c,I,c,439,1,449.40000009536743,402809.90000009537,8070,WL,B,13.0
3,18.127000093460083,learn,41872.99990653992,Wed Oct 08 2025 17:07:27 GMT-0500 (Central Daylight Time),403359.2000000477,A,ca,I,a,94,1,549.2999999523163,402809.90000009537,8070,WL,B,13.0
3,18.311000108718872,learn,41688.99989128113,Wed Oct 08 2025 17:07:27 GMT-0500 (Central Daylight Time),403542.60000014305,A,cab,I,b,169,1,732.7000000476837,402809.90000009537,8070,WL,B,13.0
3,18.42799997329712,learn,41572.00002670288,Wed Oct 08 2025 17:07:27 GMT-0500 (Central Daylight Time),403659.40000009537,A,cabi,I,i,106,1,849.5,402809.90000009537,8070,WL,B,13.0
3,18.544000148773193,learn,41455.99985122681,Wed Oct 08 2025 17:07:27 GMT-0500 (Central Daylight Time),403775.90000009537,A,cabin,I,n,110,1,966.0,402809.90000009537,8070,WL,B,13.0
3,18.99399995803833,learn,41006.00004196167,Wed Oct 08 2025 17:07:27 GMT-0500 (Central Daylight Time),404225.60000014305,A,cabinenter,I,enter,441,1,1415.7000000476837,402809.90000009537,8070,WL,B,13.0
3,19.3270001411438,learn,40672.9998588562,Wed Oct 08 2025 17:07:27 GMT-0500 (Central Daylight Time),404559.2000000477,A,l,I,l,320,1,333.2000000476837,404226.0,8070,WL,B,14.0
3,19.460999965667725,learn,40539.000034332275,Wed Oct 08 2025 17:07:27 GMT-0500 (Central Daylight Time),404692.30000019073,A,la,I,a,114,1,466.30000019073486,404226.0,8070,WL,B,14.0
3,19.594000101089478,learn,40405.99989891052,Wed Oct 08 2025 17:07:27 GMT-0500 (Central Daylight Time),404825.5,A,lak,I,k,123,1,599.5,404226.0,8070,WL,B,14.0
3,19.74399995803833,learn,40256.00004196167,Wed Oct 08 2025 17:07:27 GMT-0500 (Central Daylight Time),404975.5,A,lake,I,e,135,1,749.5,404226.0,8070,WL,B,14.0
3,19.927000045776367,learn,40072.99995422363,Wed Oct 08 2025 17:07:27 GMT-0500 (Central Daylight Time),405158.80000019073,A,lakeenter,I,enter,162,1,932.8000001907349,404226.0,8070,WL,B,14.0
3,22.693000078201294,learn,37306.999921798706,Wed Oct 08 2025 17:07:27 GMT-0500 (Central Daylight Time),407924.60000014305,A,g,I,g,2746,1,2765.4000000953674,405159.2000000477,8070,WL,B,15.0
3,22.87600016593933,learn,37123.99983406067,Wed Oct 08 2025 17:07:27 GMT-0500 (Central Daylight Time),408107.80000019073,A,gr,I,r,163,1,2948.600000143051,405159.2000000477,8070,WL,B,15.0
3,22.993000030517578,learn,37006.99996948242,Wed Oct 08 2025 17:07:27 GMT-0500 (Central Daylight Time),408224.60000014305,A,gra,I,a,102,1,3065.4000000953674,405159.2000000477,8070,WL,B,15.0
3,23.12600016593933,learn,36873.99983406067,Wed Oct 08 2025 17:07:27 GMT-0500 (Central Daylight Time),408358.40000009537,A,gras,I,s,121,1,3199.2000000476837,405159.2000000477,8070,WL,B,15.0
3,23.325999975204468,learn,36674.00002479553,Wed Oct 08 2025 17:07:27 GMT-0500 (Central Daylight Time),408557.90000009537,A,grass,I,s,178,1,3398.7000000476837,405159.2000000477,8070,WL,B,15.0
3,23.45900011062622,learn,36540.99988937378,Wed Oct 08 2025 17:07:27 GMT-0500 (Central Daylight Time),408690.90000009537,A,grassenter,I,enter,115,1,3531.7000000476837,405159.2000000477,8070,WL,B,15.0
4,0.44899988174438477,learn,59551.000118255615,Wed Oct 08 2025 17:07:27 GMT-0500 (Central Daylight Time),475886.40000009537,A,c,I,c,445,1,449.5,475436.90000009537,8070,WL,B,1.0
4,0.5829999446868896,learn,59417.00005531311,Wed Oct 08 2025 17:07:27 GMT-0500 (Central Daylight Time),476020.0,A,ci,I,i,113,1,583.0999999046326,475436.90000009537,8070,WL,B,1.0
4,0.6999998092651367,learn,59300.00019073486,Wed Oct 08 2025 17:07:27 GMT-0500 (Central Daylight Time),476136.7000000477,A,cit,I,t,101,1,699.7999999523163,475436.90000009537,8070,WL,B,1.0
4,0.7829999923706055,learn,59217.000007629395,Wed Oct 08 2025 17:07:27 GMT-0500 (Central Daylight Time),476219.90000009537,A,city,I,y,72,1,783.0,475436.90000009537,8070,WL,B,1.0
4,1.1319999694824219,learn,58868.00003051758,Wed Oct 08 2025 17:07:27 GMT-0500 (Central Daylight Time),476569.5,A,cityenter,I,enter,341,1,1132.5999999046326,475436.90000009537,8070,WL,B,1.0
4,1.815999984741211,learn,58184.00001525879,Wed Oct 08 2025 17:07:27 GMT-0500 (Central Daylight Time),477252.90000009537,A,s,I,s,663,1,683.0,476569.90000009537,8070,WL,B,2.0
4,1.9659998416900635,learn,58034.00015830994,Wed Oct 08 2025 17:07:27 GMT-0500 (Central Daylight Time),477403.0,A,st,I,t,132,1,833.0999999046326,476569.90000009537,8070,WL,B,2.0
4,2.0819997787475586,learn,57918.00022125244,Wed Oct 08 2025 17:07:27 GMT-0500 (Central Daylight Time),477519.5,A,sta,I,a,103,1,949.5999999046326,476569.90000009537,8070,WL,B,2.0
4,2.181999921798706,learn,57818.000078201294,Wed Oct 08 2025 17:07:27 GMT-0500 (Central Daylight Time),477619.60000014305,A,star,I,r,82,1,1049.7000000476837,476569.90000009537,8070,WL,B,2.0
4,2.4659998416900635,learn,57534.00015830994,Wed Oct 08 2025 17:07:27 GMT-0500 (Central Daylight Time),477902.7000000477,A,start,I,t,263,1,1332.7999999523163,476569.90000009537,8070,WL,B,2.0
4,2.7819998264312744,learn,57218.000173568726,Wed Oct 08 2025 17:07:27 GMT-0500 (Central Daylight Time),478219.2000000477,A,star,I,backspace,299,1,1649.2999999523163,476569.90000009537,8070,WL,B,2.0
4,3.0319998264312744,learn,56968.000173568726,Wed Oct 08 2025 17:07:27 GMT-0500 (Central Daylight Time),478469.0,A,starenter,I,enter,229,1,1899.0999999046326,476569.90000009537,8070,WL,B,2.0
4,3.5989999771118164,learn,56401.00002288818,Wed Oct 08 2025 17:07:27 GMT-0500 (Central Daylight Time),479035.90000009537,A,f,I,f,547,1,566.5999999046326,478469.30000019073,8070,WL,B,3.0
4,3.697999954223633,learn,56302.00004577637,Wed Oct 08 2025 17:07:27 GMT-0500 (Central Daylight Time),479135.60000014305,A,fi,I,i,85,1,666.2999999523163,478469.30000019073,8070,WL,B,3.0
4,3.8479998111724854,learn,56152.000188827515,Wed Oct 08 2025 17:07:27 GMT-0500 (Central Daylight Time),479285.5,A,fir,I,r,137,1,816.1999998092651,478469.30000019073,8070,WL,B,3.0
4,3.9149999618530273,learn,56085.00003814697,Wed Oct 08 2025 17:07:27 GMT-0500 (Central Daylight Time),479352.10000014305,A,fire,I,e,51,1,882.7999999523163,478469.30000019073,8070,WL,B,3.0
4,4.06499981880188,learn,55935.00018119812,Wed Oct 08 2025 17:07:27 GMT-0500 (Central Daylight Time),479502.0,A,fireenter,I,enter,129,1,1032.6999998092651,478469.30000019073,8070,WL,B,3.0
4,4.347999811172485,learn,55652.000188827515,Wed Oct 08 2025 17:07:27 GMT-0500 (Central Daylight Time),479785.2000000477,A,c,I,c,268,1,282.89999985694885,479502.30000019073,8070,WL,B,4.0
4,4.5309998989105225,learn,55469.00010108948,Wed Oct 08 2025 17:07:27 GMT-0500 (Central Daylight Time),479968.60000014305,A,cl,I,l,168,1,466.2999999523163,479502.30000019073,8070,WL,B,4.0
4,4.697999954223633,learn,55302.00004577637,Wed Oct 08 2025 17:07:27 GMT-0500 (Central Daylight Time),480135.30000019073,A,clo,I,o,153,1,633.0,479502.30000019073,8070,WL,B,4.0
4,4.847999811172485,learn,55152.000188827515,Wed Oct 08 2025 17:07:27 GMT-0500 (Central Daylight Time),480285.60000014305,A,cloc,I,c,138,1,783.2999999523163,479502.30000019073,8070,WL,B,4.0
4,4.930999994277954,learn,55069.000005722046,Wed Oct 08 2025 17:07:27 GMT-0500 (Central Daylight Time),480368.60000014305,A,clock,I,k,76,1,866.2999999523163,479502.30000019073,8070,WL,B,4.0
4,5.130999803543091,learn,54869.00019645691,Wed Oct 08 2025 17:07:27 GMT-0500 (Central Daylight Time),480568.5,A,clockenter,I,enter,193,1,1066.1999998092651,479502.30000019073,8070,WL,B,4.0
4,5.615999937057495,learn,54384.000062942505,Wed Oct 08 2025 17:07:27 GMT-0500 (Central Daylight Time),481052.90000009537,A,p,I,p,473,1,484.2000000476837,480568.7000000477,8070,WL,B,5.0
4,5.796999931335449,learn,54203.00006866455,Wed Oct 08 2025 17:07:27 GMT-0500 (Central Daylight Time),481234.5,A,pi,I,i,172,1,665.7999999523163,480568.7000000477,8070,WL,B,5.0
4,6.013999938964844,learn,53986.000061035156,Wed Oct 08 2025 17:07:27 GMT-0500 (Central Daylight Time),481451.30000019073,A,pip,I,p,206,1,882.6000001430511,480568.7000000477,8070,WL,B,5.0
4,6.263999938964844,learn,53736.000061035156,Wed Oct 08 2025 17:07:27 GMT-0500 (Central Daylight Time),481701.5,A,pipe,I,e,238,1,1132.7999999523163,480568.7000000477,8070,WL,B,5.0
4,6.480999946594238,learn,53519.00005340576,Wed Oct 08 2025 17:07:27 GMT-0500 (Central Daylight Time),481918.10000014305,A,pipeenter,I,enter,196,1,1349.4000000953674,480568.7000000477,8070,WL,B,5.0
4,7.21399998664856,learn,52786.00001335144,Wed Oct 08 2025 17:07:27 GMT-0500 (Central Daylight Time),482651.10000014305,A,s,I,s,714,1,732.6000001430511,481918.5,8070,WL,B,6.0
4,7.330999851226807,learn,52669.00014877319,Wed Oct 08 2025 17:07:27 GMT-0500 (Central Daylight Time),482767.90000009537,A,st,I,t,110,1,849.4000000953674,481918.5,8070,WL,B,6.0
4,7.496999979019165,learn,52503.000020980835,Wed Oct 08 2025 17:07:27 GMT-0500 (Central Daylight Time),482934.5,A,str,I,r,154,1,1016.0,481918.5,8070,WL,B,6.0
4,7.563999891281128,learn,52436.00010871887,Wed Oct 08 2025 17:07:27 GMT-0500 (Central Daylight Time),483001.10000014305,A,stre,I,e,51,1,1082.6000001430511,481918.5,8070,WL,B,6.0
4,7.71399998664856,learn,52286.00001335144,Wed Oct 08 2025 17:07:27 GMT-0500 (Central Daylight Time),483150.90000009537,A,stree,I,e,136,1,1232.4000000953674,481918.5,8070,WL,B,6.0
4,7.996999979019165,learn,52003.000020980835,Wed Oct 08 2025 17:07:27 GMT-0500 (Central Daylight Time),483434.2000000477,A,street,I,t,274,1,1515.7000000476837,481918.5,8070,WL,B,6.0
4,8.179999828338623,learn,51820.00017166138,Wed Oct 08 2025 17:07:27 GMT-0500 (Central Daylight Time),483617.30000019073,A,streetenter,I,enter,175,1,1698.8000001907349,481918.5,8070,WL,B,6.0
4,8.846999883651733,learn,51153.00011634827,Wed Oct 08 2025 17:07:27 GMT-0500 (Central Daylight Time),484284.0,A,g,I,g,655,1,666.2999999523163,483617.7000000477,8070,WL,B,7.0
4,9.02999997138977,learn,50970.00002861023,Wed Oct 08 2025 17:07:27 GMT-0500 (Central Daylight Time),484467.5,A,gr,I,r,165,1,849.7999999523163,483617.7000000477,8070,WL,B,7.0
4,9.079999923706055,learn,50920.000076293945,Wed Oct 08 2025 17:07:27 GMT-0500 (Central Daylight Time),484517.2000000477,A,gra,I,a,38,1,899.5,483617.7000000477,8070,WL,B,7.0
4,9.263999938964844,learn,50736.000061035156,Wed Oct 08 2025 17:07:27 GMT-0500 (Central Daylight Time),484700.7000000477,A,gras,I,s,172,1,1083.0,483617.7000000477,8070,WL,B,7.0
4,9.446999788284302,learn,50553.0002117157,Wed Oct 08 2025 17:07:27 GMT-0500 (Central Daylight Time),484883.7000000477,A,grass,I,s,164,1,1266.0,483617.7000000477,8070,WL,B,7.0
4,9.762999773025513,learn,50237.00022697449,Wed Oct 08 2025 17:07:27 GMT-0500 (Central Daylight Time),485200.30000019073,A,grassenter,I,enter,302,1,1582.6000001430511,483617.7000000477,8070,WL,B,7.0
4,11.162999868392944,learn,48837.000131607056,Wed Oct 08 2025 17:07:27 GMT-0500 (Central Daylight Time),486599.7000000477,A,c,I,c,1385,1,1399.0,485200.7000000477,8070,WL,B,8.0
4,11.262999773025513,learn,48737.00022697449,Wed Oct 08 2025 17:07:27 GMT-0500 (Central Daylight Time),486700.0,A,ca,I,a,82,1,1499.2999999523163,485200.7000000477,8070,WL,B,8.0
4,11.395999908447266,learn,48604.000091552734,Wed Oct 08 2025 17:07:27 GMT-0500 (Central Daylight Time),486833.0,A,cai,I,i,126,1,1632.2999999523163,485200.7000000477,8070,WL,B,8.0
4,11.978999853134155,learn,48021.000146865845,Wed Oct 08 2025 17:07:27 GMT-0500 (Central Daylight Time),487416.30000019073,A,ca,I,backspace,569,1,2215.600000143051,485200.7000000477,8070,WL,B,8.0
4,12.178999900817871,learn,47821.00009918213,Wed Oct 08 2025 17:07:27 GMT-0500 (Central Daylight Time),487616.2000000477,A,cab,I,b,193,1,2415.5,485200.7000000477,8070,WL,B,8.0
4,12.478999853134155,learn,47521.000146865845,Wed Oct 08 2025 17:07:27 GMT-0500 (Central Daylight Time),487916.10000014305,A,cabi,I,i,289,1,2715.4000000953674,485200.7000000477,8070,WL,B,8.0
4,12.628999948501587,learn,47371.00005149841,Wed Oct 08 2025 17:07:27 GMT-0500 (Central Daylight Time),488066.0,A,cabin,I,n,134,1,2865.2999999523163,485200.7000000477,8070,WL,B,8.0
4,13.478999853134155,learn,46521.000146865845,Wed Oct 08 2025 17:07:27 GMT-0500 (Central Daylight Time),488915.90000009537,A,cabinenter,I,enter,839,1,3715.2000000476837,485200.7000000477,8070,WL,B,8.0
4,15.411999940872192,learn,44588.00005912781,Wed Oct 08 2025 17:07:27 GMT-0500 (Central Daylight Time),490849.30000019073,A,c,I,c,1917,1,1933.1000001430511,488916.2000000477,8070,WL,B,9.0
4,16.01099991798401,learn,43989.00008201599,Wed Oct 08 2025 17:07:27 GMT-0500 (Central Daylight Time),491448.40000009537,A,,I,backspace,592,1,2532.2000000476837,488916.2000000477,8070,WL,B,9.0
4,16.92799997329712,learn,43072.00002670288,Wed Oct 08 2025 17:07:27 GMT-0500 (Central Daylight Time),492364.80000019073,A,w,I,w,896,1,3448.600000143051,488916.2000000477,8070,WL,B,9.0
4,17.043999910354614,learn,42956.000089645386,Wed Oct 08 2025 17:07:27 GMT-0500 (Central Daylight Time),492481.5,A,wi,I,i,108,1,3565.2999999523163,488916.2000000477,8070,WL,B,9.0
4,17.144999980926514,learn,42855.000019073486,Wed Oct 08 2025 17:07:27 GMT-0500 (Central Daylight Time),492581.7000000477,A,wif,I,f,79,1,3665.5,488916.2000000477,8070,WL,B,9.0
4,17.22699999809265,learn,42773.00000190735,Wed Oct 08 2025 17:07:27 GMT-0500 (Central Daylight Time),492664.60000014305,A,wife,I,e,68,1,3748.4000000953674,488916.2000000477,8070,WL,B,9.0
4,17.41099977493286,learn,42589.00022506714,Wed Oct 08 2025 17:07:27 GMT-0500 (Central Daylight Time),492848.0,A,wifeenter,I,enter,169,1,3931.7999999523163,488916.2000000477,8070,WL,B,9.0
4,17.57699990272522,learn,42423.00009727478,Wed Oct 08 2025 17:07:27 GMT-0500 (Central Daylight Time),493014.40000009537,A,a,I,a,161,1,166.09999990463257,492848.30000019073,8070,WL,B,10.0
4,17.710999965667725,learn,42289.000034332275,Wed Oct 08 2025 17:07:27 GMT-0500 (Central Daylight Time),493147.90000009537,A,ar,I,r,122,1,299.59999990463257,492848.30000019073,8070,WL,B,10.0
4,17.860999822616577,learn,42139.00017738342,Wed Oct 08 2025 17:07:27 GMT-0500 (Central Daylight Time),493297.90000009537,A,arm,I,m,142,1,449.59999990463257,492848.30000019073,8070,WL,B,10.0
4,18.126999855041504,learn,41873.000144958496,Wed Oct 08 2025 17:07:27 GMT-0500 (Central Daylight Time),493564.5,A,armenter,I,enter,247,1,716.1999998092651,492848.30000019073,8070,WL,B,10.0
4,18.860999822616577,learn,41139.00017738342,Wed Oct 08 2025 17:07:27 GMT-0500 (Central Daylight Time),494297.80000019073,A,s,I,s,717,1,733.1000001430511,493564.7000000477,8070,WL,B,11.0
4,18.926999807357788,learn,41073.00019264221,Wed Oct 08 2025 17:07:27 GMT-0500 (Central Daylight Time),494364.10000014305,A,sk,I,k,55,1,799.4000000953674,493564.7000000477,8070,WL,B,11.0
4,19.07699990272522,learn,40923.00009727478,Wed Oct 08 2025 17:07:27 GMT-0500 (Central Daylight Time),494513.90000009537,A,ski,I,i,132,1,949.2000000476837,493564.7000000477,8070,WL,B,11.0
4,19.176999807357788,learn,40823.00019264221,Wed Oct 08 2025 17:07:27 GMT-0500 (Central Daylight Time),494614.10000014305,A,skin,I,n,79,1,1049.4000000953674,493564.7000000477,8070,WL,B,11.0
4,19.90999984741211,learn,40090.00015258789,Wed Oct 08 2025 17:07:27 GMT-0500 (Central Daylight Time),495347.5,A,skinenter,I,enter,715,1,1782.7999999523163,493564.7000000477,8070,WL,B,11.0
4,22.625999927520752,learn,37374.00007247925,Wed Oct 08 2025 17:07:27 GMT-0500 (Central Daylight Time),498063.2000000477,A,p,I,p,2709,1,2715.2999999523163,495347.90000009537,8070,WL,B,12.0
4,22.79199981689453,learn,37208.00018310547,Wed Oct 08 2025 17:07:27 GMT-0500 (Central Daylight Time),498229.5,A,pu,I,u,145,1,2881.5999999046326,495347.90000009537,8070,WL,B,12.0
4,22.89299988746643,learn,37107.00011253357,Wed Oct 08 2025 17:07:27 GMT-0500 (Central Daylight Time),498329.7000000477,A,pup,I,p,92,1,2981.7999999523163,495347.90000009537,8070,WL,B,12.0
4,23.04199981689453,learn,36958.00018310547,Wed Oct 08 2025 17:07:27 GMT-0500 (Central Daylight Time),498479.30000019073,A,pupi,I,i,143,1,3131.4000000953674,495347.90000009537,8070,WL,B,12.0
4,23.20899987220764,learn,36791.00012779236,Wed Oct 08 2025 17:07:27 GMT-0500 (Central Daylight Time),498646.0,A,pupil,I,l,162,1,3298.0999999046326,495347.90000009537,8070,WL,B,12.0
4,23.47599983215332,learn,36524.00016784668,Wed Oct 08 2025 17:07:27 GMT-0500 (Central Daylight Time),498912.80000019073,A,pupilenter,I,enter,251,1,3564.9000000953674,495347.90000009537,8070,WL,B,12.0
4,26.19099998474121,learn,33809.00001525879,Wed Oct 08 2025 17:07:27 GMT-0500 (Central Daylight Time),501628.60000014305,A,c,I,c,2705,1,2715.5,498913.10000014305,8070,WL,B,13.0
4,26.274999856948853,learn,33725.00014305115,Wed Oct 08 2025 17:07:27 GMT-0500 (Central Daylight Time),501711.90000009537,A,ca,I,a,76,1,2798.7999999523163,498913.10000014305,8070,WL,B,13.0
4,26.424999952316284,learn,33575.000047683716,Wed Oct 08 2025 17:07:27 GMT-0500 (Central Daylight Time),501861.90000009537,A,cab,I,b,130,1,2948.7999999523163,498913.10000014305,8070,WL,B,13.0
4,26.54099988937378,learn,33459.00011062622,Wed Oct 08 2025 17:07:27 GMT-0500 (Central Daylight Time),501978.30000019073,A,cabi,I,i,108,1,3065.2000000476837,498913.10000014305,8070,WL,B,13.0
4,26.657999992370605,learn,33342.000007629395,Wed Oct 08 2025 17:07:27 GMT-0500 (Central Daylight Time),502094.90000009537,A,cabin,I,n,111,1,3181.7999999523163,498913.10000014305,8070,WL,B,13.0
4,26.95799994468689,learn,33042.00005531311,Wed Oct 08 2025 17:07:27 GMT-0500 (Central Daylight Time),502394.90000009537,A,cabinenter,I,enter,283,1,3481.7999999523163,498913.10000014305,8070,WL,B,13.0
4,27.407999992370605,learn,32592.000007629395,Wed Oct 08 2025 17:07:27 GMT-0500 (Central Daylight Time),502844.7000000477,A,w,I,w,439,1,449.39999985694885,502395.30000019073,8070,WL,B,14.0
4,27.490999937057495,learn,32509.000062942505,Wed Oct 08 2025 17:07:27 GMT-0500 (Central Daylight Time),502928.60000014305,A,wi,I,i,68,1,533.2999999523163,502395.30000019073,8070,WL,B,14.0
4,27.590999841690063,learn,32409.000158309937,Wed Oct 08 2025 17:07:27 GMT-0500 (Central Daylight Time),503028.2000000477,A,win,I,n,81,1,632.8999998569489,502395.30000019073,8070,WL,B,14.0
4,27.640999794006348,learn,32359.000205993652,Wed Oct 08 2025 17:07:27 GMT-0500 (Central Daylight Time),503078.0,A,wind,I,d,36,1,682.6999998092651,502395.30000019073,8070,WL,B,14.0
4,27.806999921798706,learn,32193.000078201294,Wed Oct 08 2025 17:07:27 GMT-0500 (Central Daylight Time),503244.7000000477,A,windo,I,o,156,1,849.3999998569489,502395.30000019073,8070,WL,B,14.0
4,27.87399983406067,learn,32126.00016593933,Wed Oct 08 2025 17:07:27 GMT-0500 (Central Daylight Time),503311.5,A,window,I,w,52,1,916.1999998092651,502395.30000019073,8070,WL,B,14.0
4,28.107999801635742,learn,31892.000198364258,Wed Oct 08 2025 17:07:27 GMT-0500 (Central Daylight Time),503544.7000000477,A,windowenter,I,enter,226,1,1149.3999998569489,502395.30000019073,8070,WL,B,14.0
4,29.20699977874756,learn,30793.00022125244,Wed Oct 08 2025 17:07:27 GMT-0500 (Central Daylight Time),504644.30000019073,A,s,I,s,1088,1,1099.2000000476837,503545.10000014305,8070,WL,B,15.0
4,29.539999961853027,learn,30460.000038146973,Wed Oct 08 2025 17:07:27 GMT-0500 (Central Daylight Time),504977.5,A,,I,backspace,315,1,1432.3999998569489,503545.10000014305,8070,WL,B,15.0
4,29.68999981880188,learn,30310.00018119812,Wed Oct 08 2025 17:07:27 GMT-0500 (Central Daylight Time),505127.60000014305,A,d,I,d,135,1,1582.5,503545.10000014305,8070,WL,B,15.0
4,29.95699977874756,learn,30043.00022125244,Wed Oct 08 2025 17:07:27 GMT-0500 (Central Daylight Time),505394.10000014305,A,do,I,o,258,1,1849.0,503545.10000014305,8070,WL,B,15.0
4,30.37399983406067,learn,29626.00016593933,Wed Oct 08 2025 17:07:27 GMT-0500 (Central Daylight Time),505810.60000014305,A,doo,I,o,406,1,2265.5,503545.10000014305,8070,WL,B,15.0
4,30.656999826431274,learn,29343.000173568726,Wed Oct 08 2025 17:07:27 GMT-0500 (Central Daylight Time),506093.80000019073,A,door,I,r,269,1,2548.7000000476837,503545.10000014305,8070,WL,B,15.0
4,30.95699977874756,learn,29043.00022125244,Wed Oct 08 2025 17:07:27 GMT-0500 (Central Daylight Time),506393.7000000477,A,doorenter,I,enter,291,1,2848.5999999046326,503545.10000014305,8070,WL,B,15.0
5,1.133000135421753,learn,60000.0,Wed Oct 08 2025 17:07:27 GMT-0500 (Central Daylight Time),572806.2000000477,A,c,I,c,1129,1,1132.7999999523163,571673.4000000954,8070,WL,B,1.0
5,1.3329999446868896,learn,60000.0,Wed Oct 08 2025 17:07:27 GMT-0500 (Central Daylight Time),573006.100000143,A,ci,I,i,178,1,1332.7000000476837,571673.4000000954,8070,WL,B,1.0
5,2.2990000247955322,learn,60000.0,Wed Oct 08 2025 17:07:27 GMT-0500 (Central Daylight Time),573972.3000001907,A,cit,I,t,948,1,2298.9000000953674,571673.4000000954,8070,WL,B,1.0
5,2.432000160217285,learn,60000.0,Wed Oct 08 2025 17:07:27 GMT-0500 (Central Daylight Time),574105.8000001907,A,city,I,y,125,1,2432.4000000953674,571673.4000000954,8070,WL,B,1.0
5,3.0820000171661377,learn,60000.0,Wed Oct 08 2025 17:07:27 GMT-0500 (Central Daylight Time),574755.7000000477,A,cityenter,I,enter,631,1,3082.2999999523163,571673.4000000954,8070,WL,B,1.0
5,3.4820001125335693,learn,60000.0,Wed Oct 08 2025 17:07:27 GMT-0500 (Central Daylight Time),575155.100000143,A,s,I,s,389,1,399.10000014305115,574756.0,8070,WL,B,2.0
5,3.7150001525878906,learn,60000.0,Wed Oct 08 2025 17:07:27 GMT-0500 (Central Daylight Time),575388.3000001907,A,st,I,t,221,1,632.3000001907349,574756.0,8070,WL,B,2.0
5,3.865000009536743,learn,60000.0,Wed Oct 08 2025 17:07:27 GMT-0500 (Central Daylight Time),575538.7000000477,A,sta,I,a,132,1,782.7000000476837,574756.0,8070,WL,B,2.0
5,3.949000120162964,learn,60000.0,Wed Oct 08 2025 17:07:27 GMT-0500 (Central Daylight Time),575621.9000000954,A,star,I,r,79,1,865.9000000953674,574756.0,8070,WL,B,2.0
5,4.482000112533569,learn,60000.0,Wed Oct 08 2025 17:07:27 GMT-0500 (Central Daylight Time),576155.100000143,A,starenter,I,enter,514,1,1399.1000001430511,574756.0,8070,WL,B,2.0
5,4.7820000648498535,learn,60000.0,Wed Oct 08 2025 17:07:27 GMT-0500 (Central Daylight Time),576455.100000143,A,f,I,f,294,1,299.5,576155.600000143,8070,WL,B,3.0
5,4.881999969482422,learn,60000.0,Wed Oct 08 2025 17:07:27 GMT-0500 (Central Daylight Time),576555.0,A,fi,I,i,90,1,399.39999985694885,576155.600000143,8070,WL,B,3.0
5,5.131999969482422,learn,60000.0,Wed Oct 08 2025 17:07:27 GMT-0500 (Central Daylight Time),576804.9000000954,A,fir,I,r,229,1,649.2999999523163,576155.600000143,8070,WL,B,3.0
5,5.197999954223633,learn,60000.0,Wed Oct 08 2025 17:07:27 GMT-0500 (Central Daylight Time),576871.3000001907,A,fire,I,e,60,1,715.7000000476837,576155.600000143,8070,WL,B,3.0
5,5.365000009536743,learn,60000.0,Wed Oct 08 2025 17:07:27 GMT-0500 (Central Daylight Time),577038.100000143,A,fireenter,I,enter,154,1,882.5,576155.600000143,8070,WL,B,3.0
5,5.781000137329102,learn,60000.0,Wed Oct 08 2025 17:07:27 GMT-0500 (Central Daylight Time),577454.5,A,c,I,c,411,1,416.0,577038.5,8070,WL,B,4.0
5,5.88100004196167,learn,60000.0,Wed Oct 08 2025 17:07:27 GMT-0500 (Central Daylight Time),577554.8000001907,A,cl,I,l,83,1,516.3000001907349,577038.5,8070,WL,B,4.0
5,6.04800009727478,learn,60000.0,Wed Oct 08 2025 17:07:27 GMT-0500 (Central Daylight Time),577721.2000000477,A,cli,I,i,151,1,682.7000000476837,577038.5,8070,WL,B,4.0
5,6.164999961853027,learn,60000.0,Wed Oct 08 2025 17:07:27 GMT-0500 (Central Daylight Time),577838.100000143,A,clic,I,c,96,1,799.6000001430511,577038.5,8070,WL,B,4.0
5,6.664000034332275,learn,60000.0,Wed Oct 08 2025 17:07:27 GMT-0500 (Central Daylight Time),578337.8000001907,A,cli,I,backspace,483,1,1299.3000001907349,577038.5,8070,WL,B,4.0
5,7.114000082015991,learn,60000.0,Wed Oct 08 2025 17:07:27 GMT-0500 (Central Daylight Time),578787.7000000477,A,cl,I,backspace,432,1,1749.2000000476837,577038.5,8070,WL,B,4.0
5,7.480999946594238,learn,60000.0,Wed Oct 08 2025 17:07:27 GMT-0500 (Central Daylight Time),579154.0,A,clo,I,o,350,1,2115.5,577038.5,8070,WL,B,4.0
5,7.581000089645386,learn,60000.0,Wed Oct 08 2025 17:07:27 GMT-0500 (Central Daylight Time),579254.3000001907,A,cloc,I,c,79,1,2215.800000190735,577038.5,8070,WL,B,4.0
5,7.680999994277954,learn,60000.0,Wed Oct 08 2025 17:07:27 GMT-0500 (Central Daylight Time),579354.3000001907,A,clock,I,k,84,1,2315.800000190735,577038.5,8070,WL,B,4.0
5,7.930999994277954,learn,60000.0,Wed Oct 08 2025 17:07:27 GMT-0500 (Central Daylight Time),579604.100000143,A,clockenter,I,enter,239,1,2565.600000143051,577038.5,8070,WL,B,4.0
5,8.380000114440918,learn,60000.0,Wed Oct 08 2025 17:07:27 GMT-0500 (Central Daylight Time),580053.8000001907,A,p,I,p,429,1,449.2000000476837,579604.600000143,8070,WL,B,5.0
5,8.52999997138977,learn,60000.0,Wed Oct 08 2025 17:07:27 GMT-0500 (Central Daylight Time),580203.8000001907,A,pi,I,i,139,1,599.2000000476837,579604.600000143,8070,WL,B,5.0
5,8.664000034332275,learn,60000.0,Wed Oct 08 2025 17:07:27 GMT-0500 (Central Daylight Time),580337.2000000477,A,pip,I,p,126,1,732.5999999046326,579604.600000143,8070,WL,B,5.0
5,8.797000169754028,learn,60000.0,Wed Oct 08 2025 17:07:27 GMT-0500 (Central Daylight Time),580470.5,A,pipe,I,e,120,1,865.8999998569489,579604.600000143,8070,WL,B,5.0
5,9.047000169754028,learn,60000.0,Wed Oct 08 2025 17:07:27 GMT-0500 (Central Daylight Time),580720.4000000954,A,pipeenter,I,enter,243,1,1115.7999999523163,579604.600000143,8070,WL,B,5.0
5,10.646000146865845,learn,60000.0,Wed Oct 08 2025 17:07:27 GMT-0500 (Central Daylight Time),582319.8000001907,A,s,I,s,1585,1,1599.0,580720.8000001907,8070,WL,B,6.0
5,10.796000003814697,learn,60000.0,Wed Oct 08 2025 17:07:27 GMT-0500 (Central Daylight Time),582469.7000000477,A,st,I,t,136,1,1748.8999998569489,580720.8000001907,8070,WL,B,6.0
5,10.963000059127808,learn,60000.0,Wed Oct 08 2025 17:07:27 GMT-0500 (Central Daylight Time),582636.600000143,A,str,I,r,155,1,1915.7999999523163,580720.8000001907,8070,WL,B,6.0
5,11.046000003814697,learn,60000.0,Wed Oct 08 2025 17:07:27 GMT-0500 (Central Daylight Time),582719.9000000954,A,stre,I,e,68,1,1999.0999999046326,580720.8000001907,8070,WL,B,6.0
5,11.230000019073486,learn,60000.0,Wed Oct 08 2025 17:07:27 GMT-0500 (Central Daylight Time),582902.9000000954,A,stree,I,e,170,1,2182.0999999046326,580720.8000001907,8070,WL,B,6.0
5,11.413000106811523,learn,60000.0,Wed Oct 08 2025 17:07:27 GMT-0500 (Central Daylight Time),583086.3000001907,A,street,I,t,170,1,2365.5,580720.8000001907,8070,WL,B,6.0
5,11.696000099182129,learn,60000.0,Wed Oct 08 2025 17:07:27 GMT-0500 (Central Daylight Time),583369.4000000954,A,streetenter,I,enter,265,1,2648.5999999046326,580720.8000001907,8070,WL,B,6.0
5,13.847000122070312,learn,60000.0,Wed Oct 08 2025 17:07:27 GMT-0500 (Central Daylight Time),585520.5,A,c,I,c,2143,1,2150.899999856949,583369.600000143,8070,WL,B,7.0
5,13.963000059127808,learn,60000.0,Wed Oct 08 2025 17:07:27 GMT-0500 (Central Daylight Time),585636.5,A,ca,I,a,97,1,2266.899999856949,583369.600000143,8070,WL,B,7.0
5,14.128999948501587,learn,60000.0,Wed Oct 08 2025 17:07:27 GMT-0500 (Central Daylight Time),585802.2000000477,A,cab,I,b,157,1,2432.5999999046326,583369.600000143,8070,WL,B,7.0
5,14.245000123977661,learn,60000.0,Wed Oct 08 2025 17:07:27 GMT-0500 (Central Daylight Time),585918.5,A,cabi,I,i,110,1,2548.899999856949,583369.600000143,8070,WL,B,7.0
5,14.361999988555908,learn,60000.0,Wed Oct 08 2025 17:07:27 GMT-0500 (Central Daylight Time),586035.5,A,cabin,I,n,106,1,2665.899999856949,583369.600000143,8070,WL,B,7.0
5,14.59500002861023,learn,60000.0,Wed Oct 08 2025 17:07:27 GMT-0500 (Central Daylight Time),586268.4000000954,A,cabinenter,I,enter,214,1,2898.7999999523163,583369.600000143,8070,WL,B,7.0
5,15.128000020980835,learn,60000.0,Wed Oct 08 2025 17:07:27 GMT-0500 (Central Daylight Time),586801.600000143,A,w,I,w,524,1,532.7999999523163,586268.8000001907,8070,WL,B,8.0
5,15.278000116348267,learn,60000.0,Wed Oct 08 2025 17:07:27 GMT-0500 (Central Daylight Time),586951.8000001907,A,wi,I,i,144,1,683.0,586268.8000001907,8070,WL,B,8.0
5,15.394999980926514,learn,60000.0,Wed Oct 08 2025 17:07:27 GMT-0500 (Central Daylight Time),587068.4000000954,A,wif,I,f,106,1,799.5999999046326,586268.8000001907,8070,WL,B,8.0
5,15.478000164031982,learn,60000.0,Wed Oct 08 2025 17:07:27 GMT-0500 (Central Daylight Time),587151.7000000477,A,wife,I,e,69,1,882.8999998569489,586268.8000001907,8070,WL,B,8.0
5,15.710999965667725,learn,60000.0,Wed Oct 08 2025 17:07:27 GMT-0500 (Central Daylight Time),587384.8000001907,A,wifeenter,I,enter,218,1,1116.0,586268.8000001907,8070,WL,B,8.0
5,16.17799997329712,learn,60000.0,Wed Oct 08 2025 17:07:27 GMT-0500 (Central Daylight Time),587851.4000000954,A,s,I,s,448,1,466.40000009536743,587385.0,8070,WL,B,9.0
5,16.261000156402588,learn,60000.0,Wed Oct 08 2025 17:07:27 GMT-0500 (Central Daylight Time),587934.8000001907,A,sk,I,k,69,1,549.8000001907349,587385.0,8070,WL,B,9.0
5,16.445000171661377,learn,60000.0,Wed Oct 08 2025 17:07:27 GMT-0500 (Central Daylight Time),588117.9000000954,A,ski,I,i,178,1,732.9000000953674,587385.0,8070,WL,B,9.0
5,16.528000116348267,learn,60000.0,Wed Oct 08 2025 17:07:27 GMT-0500 (Central Daylight Time),588201.4000000954,A,skin,I,n,68,1,816.4000000953674,587385.0,8070,WL,B,9.0
5,16.811000108718872,learn,60000.0,Wed Oct 08 2025 17:07:27 GMT-0500 (Central Daylight Time),588484.4000000954,A,skinenter,I,enter,272,1,1099.4000000953674,587385.0,8070,WL,B,9.0
5,17.011000156402588,learn,60000.0,Wed Oct 08 2025 17:07:27 GMT-0500 (Central Daylight Time),588684.4000000954,A,a,I,a,189,1,199.70000004768372,588484.7000000477,8070,WL,B,10.0
5,17.294000148773193,learn,60000.0,Wed Oct 08 2025 17:07:27 GMT-0500 (Central Daylight Time),588967.7000000477,A,ar,I,r,276,1,483.0,588484.7000000477,8070,WL,B,10.0
5,17.478000164031982,learn,60000.0,Wed Oct 08 2025 17:07:27 GMT-0500 (Central Daylight Time),589151.100000143,A,arm,I,m,170,1,666.4000000953674,588484.7000000477,8070,WL,B,10.0
5,17.99399995803833,learn,60000.0,Wed Oct 08 2025 17:07:27 GMT-0500 (Central Daylight Time),589667.7000000477,A,armenter,I,enter,506,1,1183.0,588484.7000000477,8070,WL,B,10.0
5,18.460999965667725,learn,60000.0,Wed Oct 08 2025 17:07:27 GMT-0500 (Central Daylight Time),590134.2000000477,A,w,I,w,446,1,466.2999999523163,589667.9000000954,8070,WL,B,11.0
5,18.561000108718872,learn,60000.0,Wed Oct 08 2025 17:07:27 GMT-0500 (Central Daylight Time),590234.0,A,wi,I,i,83,1,566.0999999046326,589667.9000000954,8070,WL,B,11.0
5,18.66100001335144,learn,60000.0,Wed Oct 08 2025 17:07:27 GMT-0500 (Central Daylight Time),590334.100000143,A,win,I,n,87,1,666.2000000476837,589667.9000000954,8070,WL,B,11.0
5,18.74399995803833,learn,60000.0,Wed Oct 08 2025 17:07:27 GMT-0500 (Central Daylight Time),590417.2000000477,A,wind,I,d,75,1,749.2999999523163,589667.9000000954,8070,WL,B,11.0
5,18.89400005340576,learn,60000.0,Wed Oct 08 2025 17:07:27 GMT-0500 (Central Daylight Time),590566.9000000954,A,windo,I,o,144,1,899.0,589667.9000000954,8070,WL,B,11.0
5,19.026999950408936,learn,60000.0,Wed Oct 08 2025 17:07:27 GMT-0500 (Central Daylight Time),590700.4000000954,A,window,I,w,113,1,1032.5,589667.9000000954,8070,WL,B,11.0
5,19.194000005722046,learn,60000.0,Wed Oct 08 2025 17:07:27 GMT-0500 (Central Daylight Time),590867.100000143,A,windowenter,I,enter,157,1,1199.2000000476837,589667.9000000954,8070,WL,B,11.0
5,19.56000018119812,learn,60000.0,Wed Oct 08 2025 17:07:27 GMT-0500 (Central Daylight Time),591233.9000000954,A,d,I,d,349,1,366.40000009536743,590867.5,8070,WL,B,12.0
5,19.66000008583069,learn,60000.0,Wed Oct 08 2025 17:07:27 GMT-0500 (Central Daylight Time),591333.7000000477,A,do,I,o,95,1,466.2000000476837,590867.5,8070,WL,B,12.0
5,19.81000018119812,learn,60000.0,Wed Oct 08 2025 17:07:27 GMT-0500 (Central Daylight Time),591483.600000143,A,doo,I,o,130,1,616.1000001430511,590867.5,8070,WL,B,12.0
5,20.110000133514404,learn,60000.0,Wed Oct 08 2025 17:07:27 GMT-0500 (Central Daylight Time),591783.7000000477,A,door,I,r,285,1,916.2000000476837,590867.5,8070,WL,B,12.0
5,20.377000093460083,learn,60000.0,Wed Oct 08 2025 17:07:27 GMT-0500 (Central Daylight Time),592050.3000001907,A,doorenter,I,enter,249,1,1182.8000001907349,590867.5,8070,WL,B,12.0
5,21.993000030517578,learn,60000.0,Wed Oct 08 2025 17:07:27 GMT-0500 (Central Daylight Time),593666.5,A,c,I,c,1607,1,1615.8999998569489,592050.600000143,8070,WL,B,13.0
5,22.108999967575073,learn,60000.0,Wed Oct 08 2025 17:07:27 GMT-0500 (Central Daylight Time),593782.7000000477,A,ca,I,a,110,1,1732.0999999046326,592050.600000143,8070,WL,B,13.0
5,22.259999990463257,learn,60000.0,Wed Oct 08 2025 17:07:27 GMT-0500 (Central Daylight Time),593933.0,A,cab,I,b,138,1,1882.3999998569489,592050.600000143,8070,WL,B,13.0
5,22.37600016593933,learn,60000.0,Wed Oct 08 2025 17:07:27 GMT-0500 (Central Daylight Time),594049.7000000477,A,cabi,I,i,100,1,1999.0999999046326,592050.600000143,8070,WL,B,13.0
5,22.542999982833862,learn,60000.0,Wed Oct 08 2025 17:07:27 GMT-0500 (Central Daylight Time),594216.100000143,A,cabin,I,n,152,1,2165.5,592050.600000143,8070,WL,B,13.0
5,22.792999982833862,learn,60000.0,Wed Oct 08 2025 17:07:27 GMT-0500 (Central Daylight Time),594466.100000143,A,cabinenter,I,enter,232,1,2415.5,592050.600000143,8070,WL,B,13.0
5,23.492000102996826,learn,60000.0,Wed Oct 08 2025 17:07:27 GMT-0500 (Central Daylight Time),595165.8000001907,A,p,I,p,678,1,699.3000001907349,594466.5,8070,WL,B,14.0
5,23.592000007629395,learn,60000.0,Wed Oct 08 2025 17:07:27 GMT-0500 (Central Daylight Time),595265.7000000477,A,pu,I,u,83,1,799.2000000476837,594466.5,8070,WL,B,14.0
5,23.725000143051147,learn,60000.0,Wed Oct 08 2025 17:07:27 GMT-0500 (Central Daylight Time),595398.9000000954,A,pup,I,p,120,1,932.4000000953674,594466.5,8070,WL,B,14.0
5,23.89199995994568,learn,60000.0,Wed Oct 08 2025 17:07:27 GMT-0500 (Central Daylight Time),595565.7000000477,A,pupi,I,i,155,1,1099.2000000476837,594466.5,8070,WL,B,14.0
5,24.092000007629395,learn,60000.0,Wed Oct 08 2025 17:07:27 GMT-0500 (Central Daylight Time),595765.7000000477,A,pupil,I,l,194,1,1299.2000000476837,594466.5,8070,WL,B,14.0
5,24.375,learn,60000.0,Wed Oct 08 2025 17:07:27 GMT-0500 (Central Daylight Time),596048.7000000477,A,pupilenter,I,enter,267,1,1582.2000000476837,594466.5,8070,WL,B,14.0
5,30.640000104904175,learn,60000.0,Wed Oct 08 2025 17:07:27 GMT-0500 (Central Daylight Time),602313.2000000477,A,g,I,g,6256,1,6264.200000047684,596049.0,8070,WL,B,15.0
5,30.84000015258789,learn,60000.0,Wed Oct 08 2025 17:07:27 GMT-0500 (Central Daylight Time),602513.5,A,gr,I,r,192,1,6464.5,596049.0,8070,WL,B,15.0
5,31.02300000190735,learn,60000.0,Wed Oct 08 2025 17:07:27 GMT-0500 (Central Daylight Time),602696.600000143,A,gra,I,a,175,1,6647.600000143051,596049.0,8070,WL,B,15.0
5,31.223000049591064,learn,60000.0,Wed Oct 08 2025 17:07:27 GMT-0500 (Central Daylight Time),602896.7000000477,A,gras,I,s,193,1,6847.700000047684,596049.0,8070,WL,B,15.0
5,31.4060001373291,learn,60000.0,Wed Oct 08 2025 17:07:27 GMT-0500 (Central Daylight Time),603080.100000143,A,grass,I,s,168,1,7031.100000143051,596049.0,8070,WL,B,15.0
5,31.58899998664856,learn,60000.0,Wed Oct 08 2025 17:07:27 GMT-0500 (Central Daylight Time),603263.0,A,grassenter,I,enter,177,1,7214.0,596049.0,8070,WL,B,15.0
6,0.5169999599456787,distr,59483.00004005432,Wed Oct 08 2025 17:07:27 GMT-0500 (Central Daylight Time),683804.8000001907,B,b,I,b,506,1,516.7000000476837,683288.100000143,8070,WL,B,1.0
6,0.7839999198913574,distr,59216.00008010864,Wed Oct 08 2025 17:07:27 GMT-0500 (Central Daylight Time),684071.3000001907,B,bu,I,u,259,1,783.2000000476837,683288.100000143,8070,WL,B,1.0
6,0.9330000877380371,distr,59066.99991226196,Wed Oct 08 2025 17:07:27 GMT-0500 (Central Daylight Time),684221.100000143,B,bui,I,i,129,1,933.0,683288.100000143,8070,WL,B,1.0
6,1.0169999599456787,distr,58983.00004005432,Wed Oct 08 2025 17:07:27 GMT-0500 (Central Daylight Time),684304.3000001907,B,buil,I,l,75,1,1016.2000000476837,683288.100000143,8070,WL,B,1.0
6,1.3499999046325684,distr,58650.00009536743,Wed Oct 08 2025 17:07:27 GMT-0500 (Central Daylight Time),684637.600000143,B,build,I,d,328,1,1349.5,683288.100000143,8070,WL,B,1.0
6,1.5,distr,58500.0,Wed Oct 08 2025 17:07:27 GMT-0500 (Central Daylight Time),684787.8000001907,B,buildi,I,i,139,1,1499.7000000476837,683288.100000143,8070,WL,B,1.0
6,1.5999999046325684,distr,58400.00009536743,Wed Oct 08 2025 17:07:27 GMT-0500 (Central Daylight Time),684887.600000143,B,buildin,I,n,84,1,1599.5,683288.100000143,8070,WL,B,1.0
6,1.7330000400543213,distr,58266.99995994568,Wed Oct 08 2025 17:07:27 GMT-0500 (Central Daylight Time),685021.0,B,building,I,g,113,1,1732.8999998569489,683288.100000143,8070,WL,B,1.0
6,2.0160000324249268,distr,57983.99996757507,Wed Oct 08 2025 17:07:27 GMT-0500 (Central Daylight Time),685304.2000000477,B,buildingenter,I,enter,276,1,2016.0999999046326,683288.100000143,8070,WL,B,1.0
6,2.5989999771118164,distr,57401.00002288818,Wed Oct 08 2025 17:07:27 GMT-0500 (Central Daylight Time),685887.100000143,B,b,I,b,568,1,582.6000001430511,685304.5,8070,WL,B,2.0
6,2.700000047683716,distr,57299.999952316284,Wed Oct 08 2025 17:07:27 GMT-0500 (Central Daylight Time),685987.600000143,B,ba,I,a,80,1,683.1000001430511,685304.5,8070,WL,B,2.0
6,2.815999984741211,distr,57184.00001525879,Wed Oct 08 2025 17:07:27 GMT-0500 (Central Daylight Time),686104.0,B,bar,I,r,101,1,799.5,685304.5,8070,WL,B,2.0
6,3.065999984741211,distr,56934.00001525879,Wed Oct 08 2025 17:07:27 GMT-0500 (Central Daylight Time),686353.8000001907,B,barenter,I,enter,240,1,1049.3000001907349,685304.5,8070,WL,B,2.0
6,3.499000072479248,distr,56500.99992752075,Wed Oct 08 2025 17:07:27 GMT-0500 (Central Daylight Time),686787.100000143,B,b,I,b,424,1,433.0,686354.100000143,8070,WL,B,3.0
6,3.6489999294281006,distr,56351.0000705719,Wed Oct 08 2025 17:07:27 GMT-0500 (Central Daylight Time),686937.100000143,B,ba,I,a,133,1,583.0,686354.100000143,8070,WL,B,3.0
6,3.7990000247955322,distr,56200.99997520447,Wed Oct 08 2025 17:07:27 GMT-0500 (Central Daylight Time),687086.8000001907,B,bab,I,b,144,1,732.7000000476837,686354.100000143,8070,WL,B,3.0
6,4.065999984741211,distr,55934.00001525879,Wed Oct 08 2025 17:07:27 GMT-0500 (Central Daylight Time),687353.4000000954,B,baby,I,y,251,1,999.2999999523163,686354.100000143,8070,WL,B,3.0
6,4.398999929428101,distr,55601.0000705719,Wed Oct 08 2025 17:07:27 GMT-0500 (Central Daylight Time),687686.5,B,babyenter,I,enter,328,1,1332.3999998569489,686354.100000143,8070,WL,B,3.0
6,4.865999937057495,distr,55134.000062942505,Wed Oct 08 2025 17:07:27 GMT-0500 (Central Daylight Time),688153.4000000954,B,o,I,o,459,1,466.59999990463257,687686.8000001907,8070,WL,B,4.0
6,5.016000032424927,distr,54983.99996757507,Wed Oct 08 2025 17:07:27 GMT-0500 (Central Daylight Time),688303.4000000954,B,oc,I,c,143,1,616.5999999046326,687686.8000001907,8070,WL,B,4.0
6,5.198999881744385,distr,54801.000118255615,Wed Oct 08 2025 17:07:27 GMT-0500 (Central Daylight Time),688486.2000000477,B,oce,I,e,170,1,799.3999998569489,687686.8000001907,8070,WL,B,4.0
6,5.2820000648498535,distr,54717.99993515015,Wed Oct 08 2025 17:07:27 GMT-0500 (Central Daylight Time),688569.9000000954,B,ocea,I,a,67,1,883.0999999046326,687686.8000001907,8070,WL,B,4.0
6,5.431999921798706,distr,54568.000078201294,Wed Oct 08 2025 17:07:27 GMT-0500 (Central Daylight Time),688719.9000000954,B,ocean,I,n,144,1,1033.0999999046326,687686.8000001907,8070,WL,B,4.0
6,5.7149999141693115,distr,54285.00008583069,Wed Oct 08 2025 17:07:27 GMT-0500 (Central Daylight Time),689003.0,B,oceanenter,I,enter,266,1,1316.1999998092651,687686.8000001907,8070,WL,B,4.0
6,14.161999940872192,distr,45838.00005912781,Wed Oct 08 2025 17:07:27 GMT-0500 (Central Daylight Time),697450.2000000477,B,a,I,a,8438,1,8447.0,689003.2000000477,8070,WL,B,5.0
6,14.328999996185303,distr,45671.0000038147,Wed Oct 08 2025 17:07:27 GMT-0500 (Central Daylight Time),697617.0,B,ar,I,r,157,1,8613.799999952316,689003.2000000477,8070,WL,B,5.0
6,14.461999893188477,distr,45538.00010681152,Wed Oct 08 2025 17:07:27 GMT-0500 (Central Daylight Time),697750.0,B,arm,I,m,127,1,8746.799999952316,689003.2000000477,8070,WL,B,5.0
6,15.51200008392334,distr,44487.99991607666,Wed Oct 08 2025 17:07:27 GMT-0500 (Central Daylight Time),698799.9000000954,B,army,I,y,1042,1,9796.700000047684,689003.2000000477,8070,WL,B,5.0
6,16.211999893188477,distr,43788.00010681152,Wed Oct 08 2025 17:07:27 GMT-0500 (Central Daylight Time),699499.8000001907,B,armyenter,I,enter,680,1,10496.600000143051,689003.2000000477,8070,WL,B,5.0
6,40.65400004386902,distr,19345.99995613098,Wed Oct 08 2025 17:07:27 GMT-0500 (Central Daylight Time),723942.100000143,B,enter,I,enter,24422,1,24441.900000095367,699500.2000000477,8070,WL,B,6.0
6,40.854000091552734,distr,19145.999908447266,Wed Oct 08 2025 17:07:27 GMT-0500 (Central Daylight Time),724142.0,B,enter,I,enter,188,1,199.59999990463257,723942.4000000954,8070,WL,B,7.0
6,41.0220000743866,distr,18977.999925613403,Wed Oct 08 2025 17:07:27 GMT-0500 (Central Daylight Time),724310.0,B,enter,I,enter,156,1,167.59999990463257,724142.4000000954,8070,WL,B,8.0
6,41.33699989318848,distr,18663.000106811523,Wed Oct 08 2025 17:07:27 GMT-0500 (Central Daylight Time),724625.2000000477,B,enter,I,enter,306,1,314.7000000476837,724310.5,8070,WL,B,9.0
6,41.50499987602234,distr,18495.00012397766,Wed Oct 08 2025 17:07:27 GMT-0500 (Central Daylight Time),724793.0,B,enter,I,enter,152,1,167.39999985694885,724625.600000143,8070,WL,B,10.0
6,41.63700008392334,distr,18362.99991607666,Wed Oct 08 2025 17:07:27 GMT-0500 (Central Daylight Time),724925.2000000477,B,enter,I,enter,112,1,131.89999985694885,724793.3000001907,8070,WL,B,11.0
6,41.78699994087219,distr,18213.000059127808,Wed Oct 08 2025 17:07:27 GMT-0500 (Central Daylight Time),725075.100000143,B,enter,I,enter,140,1,149.5,724925.600000143,8070,WL,B,12.0
6,41.937000036239624,distr,18062.999963760376,Wed Oct 08 2025 17:07:27 GMT-0500 (Central Daylight Time),725225.0,B,enter,I,enter,141,1,149.59999990463257,725075.4000000954,8070,WL,B,13.0
6,42.13599991798401,distr,17864.00008201599,Wed Oct 08 2025 17:07:27 GMT-0500 (Central Daylight Time),725424.7000000477,B,enter,I,enter,184,1,199.20000004768372,725225.5,8070,WL,B,14.0
6,42.503000020980835,distr,17496.999979019165,Wed Oct 08 2025 17:07:27 GMT-0500 (Central Daylight Time),725791.7000000477,B,enter,I,enter,352,1,366.7999999523163,725424.9000000954,8070,WL,B,15.0
7,0.8660001754760742,immed,59133.999824523926,Wed Oct 08 2025 17:07:27 GMT-0500 (Central Daylight Time),742336.600000143,A,s,I,s,859,1,866.1000001430511,741470.5,8070,WL,B,1.0
7,1.0490000247955322,immed,58950.99997520447,Wed Oct 08 2025 17:07:27 GMT-0500 (Central Daylight Time),742519.4000000954,A,si,I,i,167,1,1048.9000000953674,741470.5,8070,WL,B,1.0
7,1.133000135421753,immed,58866.99986457825,Wed Oct 08 2025 17:07:27 GMT-0500 (Central Daylight Time),742603.0,A,sit,I,t,74,1,1132.5,741470.5,8070,WL,B,1.0
7,1.2660000324249268,immed,58733.99996757507,Wed Oct 08 2025 17:07:27 GMT-0500 (Central Daylight Time),742736.100000143,A,sity,I,y,118,1,1265.6000001430511,741470.5,8070,WL,B,1.0
7,1.6160001754760742,immed,58383.999824523926,Wed Oct 08 2025 17:07:27 GMT-0500 (Central Daylight Time),743086.0,A,sityenter,I,enter,329,1,1615.5,741470.5,8070,WL,B,1.0
7,2.765000104904175,immed,57234.999895095825,Wed Oct 08 2025 17:07:27 GMT-0500 (Central Daylight Time),744235.5,A,s,I,s,1132,1,1149.1999998092651,743086.3000001907,8070,WL,B,2.0
7,2.9160001277923584,immed,57083.99987220764,Wed Oct 08 2025 17:07:27 GMT-0500 (Central Daylight Time),744386.5,A,st,I,t,132,1,1300.1999998092651,743086.3000001907,8070,WL,B,2.0
7,3.065000057220459,immed,56934.99994277954,Wed Oct 08 2025 17:07:27 GMT-0500 (Central Daylight Time),744535.4000000954,A,sta,I,a,142,1,1449.0999999046326,743086.3000001907,8070,WL,B,2.0
7,3.131999969482422,immed,56868.00003051758,Wed Oct 08 2025 17:07:27 GMT-0500 (Central Daylight Time),744602.0,A,star,I,r,58,1,1515.6999998092651,743086.3000001907,8070,WL,B,2.0
7,3.6649999618530273,immed,56335.00003814697,Wed Oct 08 2025 17:07:27 GMT-0500 (Central Daylight Time),745135.4000000954,A,starenter,I,enter,519,1,2049.0999999046326,743086.3000001907,8070,WL,B,2.0
7,4.115000009536743,immed,55884.99999046326,Wed Oct 08 2025 17:07:27 GMT-0500 (Central Daylight Time),745585.2000000477,A,f,I,f,441,1,449.5,745135.7000000477,8070,WL,B,3.0
7,4.232000112533569,immed,55767.99988746643,Wed Oct 08 2025 17:07:27 GMT-0500 (Central Daylight Time),745701.8000001907,A,fi,I,i,104,1,566.1000001430511,745135.7000000477,8070,WL,B,3.0
7,4.381999969482422,immed,55618.00003051758,Wed Oct 08 2025 17:07:27 GMT-0500 (Central Daylight Time),745851.8000001907,A,fir,I,r,140,1,716.1000001430511,745135.7000000477,8070,WL,B,3.0
7,4.432000160217285,immed,55567.999839782715,Wed Oct 08 2025 17:07:27 GMT-0500 (Central Daylight Time),745901.9000000954,A,fire,I,e,37,1,766.2000000476837,745135.7000000477,8070,WL,B,3.0
7,4.715000152587891,immed,55284.99984741211,Wed Oct 08 2025 17:07:27 GMT-0500 (Central Daylight Time),746185.2000000477,A,fireenter,I,enter,276,1,1049.5,745135.7000000477,8070,WL,B,3.0
7,5.414999961853027,immed,54585.00003814697,Wed Oct 08 2025 17:07:27 GMT-0500 (Central Daylight Time),746884.9000000954,A,c,I,c,688,1,699.2000000476837,746185.7000000477,8070,WL,B,4.0
7,5.531000137329102,immed,54468.9998626709,Wed Oct 08 2025 17:07:27 GMT-0500 (Central Daylight Time),747001.5,A,cl,I,l,107,1,815.7999999523163,746185.7000000477,8070,WL,B,4.0
7,5.697999954223633,immed,54302.00004577637,Wed Oct 08 2025 17:07:27 GMT-0500 (Central Daylight Time),747168.0,A,clo,I,o,159,1,982.2999999523163,746185.7000000477,8070,WL,B,4.0
7,6.081000089645386,immed,53918.999910354614,Wed Oct 08 2025 17:07:27 GMT-0500 (Central Daylight Time),747551.5,A,clok,I,k,369,1,1365.7999999523163,746185.7000000477,8070,WL,B,4.0
7,6.480999946594238,immed,53519.00005340576,Wed Oct 08 2025 17:07:27 GMT-0500 (Central Daylight Time),747951.2000000477,A,clo,I,backspace,387,1,1765.5,746185.7000000477,8070,WL,B,4.0
7,6.648000001907349,immed,53351.99999809265,Wed Oct 08 2025 17:07:27 GMT-0500 (Central Daylight Time),748118.0,A,cloc,I,c,162,1,1932.2999999523163,746185.7000000477,8070,WL,B,4.0
7,6.730999946594238,immed,53269.00005340576,Wed Oct 08 2025 17:07:27 GMT-0500 (Central Daylight Time),748201.3000001907,A,clock,I,k,67,1,2015.6000001430511,746185.7000000477,8070,WL,B,4.0
7,7.081000089645386,immed,52918.999910354614,Wed Oct 08 2025 17:07:27 GMT-0500 (Central Daylight Time),748550.7000000477,A,clockenter,I,enter,344,1,2365.0,746185.7000000477,8070,WL,B,4.0
7,7.547000169754028,immed,52452.99983024597,Wed Oct 08 2025 17:07:27 GMT-0500 (Central Daylight Time),749017.5,A,p,I,p,450,1,466.5,748551.0,8070,WL,B,5.0
7,7.664000034332275,immed,52335.999965667725,Wed Oct 08 2025 17:07:27 GMT-0500 (Central Daylight Time),749134.100000143,A,pi,I,i,103,1,583.1000001430511,748551.0,8070,WL,B,5.0
7,7.797000169754028,immed,52202.99983024597,Wed Oct 08 2025 17:07:27 GMT-0500 (Central Daylight Time),749267.4000000954,A,pip,I,p,116,1,716.4000000953674,748551.0,8070,WL,B,5.0
7,7.930999994277954,immed,52069.000005722046,Wed Oct 08 2025 17:07:27 GMT-0500 (Central Daylight Time),749400.8000001907,A,pipe,I,e,118,1,849.8000001907349,748551.0,8070,WL,B,5.0
7,8.246999979019165,immed,51753.000020980835,Wed Oct 08 2025 17:07:27 GMT-0500 (Central Daylight Time),749717.3000001907,A,pipeenter,I,enter,305,1,1166.3000001907349,748551.0,8070,WL,B,5.0
7,10.996000051498413,immed,49003.99994850159,Wed Oct 08 2025 17:07:27 GMT-0500 (Central Daylight Time),752466.600000143,A,w,I,w,2739,1,2749.100000143051,749717.5,8070,WL,B,6.0
7,11.11300015449524,immed,48886.99984550476,Wed Oct 08 2025 17:07:27 GMT-0500 (Central Daylight Time),752583.100000143,A,wi,I,i,110,1,2865.600000143051,749717.5,8070,WL,B,6.0
7,11.246000051498413,immed,48753.99994850159,Wed Oct 08 2025 17:07:27 GMT-0500 (Central Daylight Time),752716.5,A,wif,I,f,121,1,2999.0,749717.5,8070,WL,B,6.0
7,11.330000162124634,immed,48669.999837875366,Wed Oct 08 2025 17:07:27 GMT-0500 (Central Daylight Time),752799.7000000477,A,wife,I,e,69,1,3082.2000000476837,749717.5,8070,WL,B,6.0
7,11.61300015449524,immed,48386.99984550476,Wed Oct 08 2025 17:07:27 GMT-0500 (Central Daylight Time),753083.0,A,wifeenter,I,enter,265,1,3365.5,749717.5,8070,WL,B,6.0
7,11.796000003814697,immed,48203.9999961853,Wed Oct 08 2025 17:07:27 GMT-0500 (Central Daylight Time),753266.0,A,a,I,a,166,1,182.5,753083.5,8070,WL,B,7.0
7,11.92900013923645,immed,48070.99986076355,Wed Oct 08 2025 17:07:27 GMT-0500 (Central Daylight Time),753399.4000000954,A,ar,I,r,127,1,315.90000009536743,753083.5,8070,WL,B,7.0
7,12.078999996185303,immed,47921.0000038147,Wed Oct 08 2025 17:07:27 GMT-0500 (Central Daylight Time),753549.5,A,arm,I,m,130,1,466.0,753083.5,8070,WL,B,7.0
7,12.279000043869019,immed,47720.99995613098,Wed Oct 08 2025 17:07:27 GMT-0500 (Central Daylight Time),753749.5,A,armenter,I,enter,179,1,666.0,753083.5,8070,WL,B,7.0
7,13.095999956130981,immed,46904.00004386902,Wed Oct 08 2025 17:07:27 GMT-0500 (Central Daylight Time),754565.9000000954,A,s,I,s,803,1,816.0,753749.9000000954,8070,WL,B,8.0
7,13.212000131607056,immed,46787.999868392944,Wed Oct 08 2025 17:07:27 GMT-0500 (Central Daylight Time),754682.4000000954,A,sk,I,k,107,1,932.5,753749.9000000954,8070,WL,B,8.0
7,13.411999940872192,immed,46588.00005912781,Wed Oct 08 2025 17:07:27 GMT-0500 (Central Daylight Time),754882.600000143,A,ski,I,i,183,1,1132.7000000476837,753749.9000000954,8070,WL,B,8.0
7,13.479000091552734,immed,46520.999908447266,Wed Oct 08 2025 17:07:27 GMT-0500 (Central Daylight Time),754949.0,A,skin,I,n,45,1,1199.0999999046326,753749.9000000954,8070,WL,B,8.0
7,13.861999988555908,immed,46138.00001144409,Wed Oct 08 2025 17:07:27 GMT-0500 (Central Daylight Time),755331.9000000954,A,skinenter,I,enter,363,1,1582.0,753749.9000000954,8070,WL,B,8.0
7,19.860000133514404,immed,40139.999866485596,Wed Oct 08 2025 17:07:27 GMT-0500 (Central Daylight Time),761330.5,A,w,I,w,5990,1,5998.399999856949,755332.100000143,8070,WL,B,9.0
7,19.960999965667725,immed,40039.000034332275,Wed Oct 08 2025 17:07:27 GMT-0500 (Central Daylight Time),761431.0,A,wi,I,i,94,1,6098.899999856949,755332.100000143,8070,WL,B,9.0
7,20.0770001411438,immed,39922.9998588562,Wed Oct 08 2025 17:07:27 GMT-0500 (Central Daylight Time),761546.9000000954,A,win,I,n,105,1,6214.799999952316,755332.100000143,8070,WL,B,9.0
7,20.177000045776367,immed,39822.99995422363,Wed Oct 08 2025 17:07:27 GMT-0500 (Central Daylight Time),761646.9000000954,A,wind,I,d,93,1,6314.799999952316,755332.100000143,8070,WL,B,9.0
7,20.3270001411438,immed,39672.9998588562,Wed Oct 08 2025 17:07:27 GMT-0500 (Central Daylight Time),761796.9000000954,A,windo,I,o,137,1,6464.799999952316,755332.100000143,8070,WL,B,9.0
7,20.427000045776367,immed,39572.99995422363,Wed Oct 08 2025 17:07:27 GMT-0500 (Central Daylight Time),761896.9000000954,A,window,I,w,84,1,6564.799999952316,755332.100000143,8070,WL,B,9.0
7,20.80999994277954,immed,39190.00005722046,Wed Oct 08 2025 17:07:27 GMT-0500 (Central Daylight Time),762280.100000143,A,windowenter,I,enter,368,1,6948.0,755332.100000143,8070,WL,B,9.0
7,21.16000008583069,immed,38839.99991416931,Wed Oct 08 2025 17:07:27 GMT-0500 (Central Daylight Time),762629.9000000954,A,d,I,d,330,1,349.40000009536743,762280.5,8070,WL,B,10.0
7,21.243000030517578,immed,38756.99996948242,Wed Oct 08 2025 17:07:27 GMT-0500 (Central Daylight Time),762713.4000000954,A,do,I,o,74,1,432.90000009536743,762280.5,8070,WL,B,10.0
7,21.42799997329712,immed,38572.00002670288,Wed Oct 08 2025 17:07:27 GMT-0500 (Central Daylight Time),762897.9000000954,A,doo,I,o,168,1,617.4000000953674,762280.5,8070,WL,B,10.0
7,21.55900001525879,immed,38440.99998474121,Wed Oct 08 2025 17:07:27 GMT-0500 (Central Daylight Time),763029.600000143,A,door,I,r,127,1,749.1000001430511,762280.5,8070,WL,B,10.0
7,21.926000118255615,immed,38073.999881744385,Wed Oct 08 2025 17:07:27 GMT-0500 (Central Daylight Time),763396.100000143,A,doorenter,I,enter,356,1,1115.6000001430511,762280.5,8070,WL,B,10.0
7,22.176000118255615,immed,37823.999881744385,Wed Oct 08 2025 17:07:27 GMT-0500 (Central Daylight Time),763646.3000001907,A,s,I,s,236,1,249.90000009536743,763396.4000000954,8070,WL,B,11.0
7,22.343000173568726,immed,37656.999826431274,Wed Oct 08 2025 17:07:27 GMT-0500 (Central Daylight Time),763812.7000000477,A,st,I,t,155,1,416.2999999523163,763396.4000000954,8070,WL,B,11.0
7,22.55900001525879,immed,37440.99998474121,Wed Oct 08 2025 17:07:27 GMT-0500 (Central Daylight Time),764029.4000000954,A,str,I,r,204,1,633.0,763396.4000000954,8070,WL,B,11.0
7,22.659000158309937,immed,37340.99984169006,Wed Oct 08 2025 17:07:27 GMT-0500 (Central Daylight Time),764129.600000143,A,stre,I,e,84,1,733.2000000476837,763396.4000000954,8070,WL,B,11.0
7,22.89300012588501,immed,37106.99987411499,Wed Oct 08 2025 17:07:27 GMT-0500 (Central Daylight Time),764362.8000001907,A,stree,I,e,215,1,966.4000000953674,763396.4000000954,8070,WL,B,11.0
7,23.20900011062622,immed,36790.99988937378,Wed Oct 08 2025 17:07:27 GMT-0500 (Central Daylight Time),764679.2000000477,A,street,I,t,303,1,1282.7999999523163,763396.4000000954,8070,WL,B,11.0
7,23.55900001525879,immed,36440.99998474121,Wed Oct 08 2025 17:07:27 GMT-0500 (Central Daylight Time),765029.3000001907,A,streetenter,I,enter,337,1,1632.9000000953674,763396.4000000954,8070,WL,B,11.0
7,24.04200005531311,immed,35957.99994468689,Wed Oct 08 2025 17:07:27 GMT-0500 (Central Daylight Time),765512.3000001907,A,g,I,g,469,1,482.80000019073486,765029.5,8070,WL,B,12.0
7,24.2260000705719,immed,35773.9999294281,Wed Oct 08 2025 17:07:27 GMT-0500 (Central Daylight Time),765695.8000001907,A,gr,I,r,169,1,666.3000001907349,765029.5,8070,WL,B,12.0
7,24.29200005531311,immed,35707.99994468689,Wed Oct 08 2025 17:07:27 GMT-0500 (Central Daylight Time),765762.100000143,A,gra,I,a,58,1,732.6000001430511,765029.5,8070,WL,B,12.0
7,24.442000150680542,immed,35557.99984931946,Wed Oct 08 2025 17:07:27 GMT-0500 (Central Daylight Time),765912.3000001907,A,gras,I,s,143,1,882.8000001907349,765029.5,8070,WL,B,12.0
7,24.64199995994568,immed,35358.00004005432,Wed Oct 08 2025 17:07:27 GMT-0500 (Central Daylight Time),766112.2000000477,A,grass,I,s,185,1,1082.7000000476837,765029.5,8070,WL,B,12.0
7,24.89199995994568,immed,35108.00004005432,Wed Oct 08 2025 17:07:27 GMT-0500 (Central Daylight Time),766362.2000000477,A,grassenter,I,enter,233,1,1332.7000000476837,765029.5,8070,WL,B,12.0
7,25.975000143051147,immed,34024.99985694885,Wed Oct 08 2025 17:07:27 GMT-0500 (Central Daylight Time),767445.0,A,c,I,c,1062,1,1082.5999999046326,766362.4000000954,8070,WL,B,13.0
7,26.075000047683716,immed,33924.999952316284,Wed Oct 08 2025 17:07:27 GMT-0500 (Central Daylight Time),767545.0,A,ca,I,a,93,1,1182.5999999046326,766362.4000000954,8070,WL,B,13.0
7,26.258000135421753,immed,33741.99986457825,Wed Oct 08 2025 17:07:27 GMT-0500 (Central Daylight Time),767728.2000000477,A,cab,I,b,167,1,1365.7999999523163,766362.4000000954,8070,WL,B,13.0
7,26.39199995994568,immed,33608.00004005432,Wed Oct 08 2025 17:07:27 GMT-0500 (Central Daylight Time),767861.8000001907,A,cabi,I,i,120,1,1499.4000000953674,766362.4000000954,8070,WL,B,13.0
7,26.508000135421753,immed,33491.99986457825,Wed Oct 08 2025 17:07:27 GMT-0500 (Central Daylight Time),767978.2000000477,A,cabin,I,n,100,1,1615.7999999523163,766362.4000000954,8070,WL,B,13.0
7,26.824000120162964,immed,33175.999879837036,Wed Oct 08 2025 17:07:27 GMT-0500 (Central Daylight Time),768294.600000143,A,cabinenter,I,enter,310,1,1932.2000000476837,766362.4000000954,8070,WL,B,13.0
7,27.741000175476074,immed,32258.999824523926,Wed Oct 08 2025 17:07:27 GMT-0500 (Central Daylight Time),769211.3000001907,A,p,I,p,898,1,916.5,768294.8000001907,8070,WL,B,14.0
7,27.874000072479248,immed,32125.999927520752,Wed Oct 08 2025 17:07:27 GMT-0500 (Central Daylight Time),769344.600000143,A,pu,I,u,118,1,1049.7999999523163,768294.8000001907,8070,WL,B,14.0
7,27.991000175476074,immed,32008.999824523926,Wed Oct 08 2025 17:07:27 GMT-0500 (Central Daylight Time),769461.4000000954,A,pup,I,p,96,1,1166.5999999046326,768294.8000001907,8070,WL,B,14.0
7,28.157999992370605,immed,31842.000007629395,Wed Oct 08 2025 17:07:27 GMT-0500 (Central Daylight Time),769627.8000001907,A,pupi,I,i,147,1,1333.0,768294.8000001907,8070,WL,B,14.0
7,28.35700011253357,immed,31642.99988746643,Wed Oct 08 2025 17:07:27 GMT-0500 (Central Daylight Time),769827.7000000477,A,pupil,I,l,181,1,1532.8999998569489,768294.8000001907,8070,WL,B,14.0
7,28.60700011253357,immed,31392.99988746643,Wed Oct 08 2025 17:07:27 GMT-0500 (Central Daylight Time),770077.7000000477,A,pupilenter,I,enter,244,1,1782.8999998569489,768294.8000001907,8070,WL,B,14.0
7,29.307000160217285,immed,30692.999839782715,Wed Oct 08 2025 17:07:27 GMT-0500 (Central Daylight Time),770777.3000001907,A,l,I,l,684,1,699.3000001907349,770078.0,8070,WL,B,15.0
