block_c,block_dur,condition,countdown,datetime,endtime,list,multichar_response,project,response,response_time,session_number,start_end,starttime,subject_id,task,task_vers,trial
,,,,Mon Jun 08 2026 15:01:19 GMT-0500 (Central Daylight Time),,,,O,space,1835,1,,,7801,WL,A,
prac,,0,,Mon Jun 08 2026 15:01:19 GMT-0500 (Central Daylight Time),,NA,b,O,b,1724,1,,,7801,WL,A,1.0
prac,,0,,Mon Jun 08 2026 15:01:19 GMT-0500 (Central Daylight Time),,NA,bo,O,o,263,1,,,7801,WL,A,1.0
prac,,0,,Mon Jun 08 2026 15:01:19 GMT-0500 (Central Daylight Time),,NA,boo,O,o,158,1,,,7801,WL,A,1.0
prac,,0,,Mon Jun 08 2026 15:01:19 GMT-0500 (Central Daylight Time),,NA,boos,O,s,108,1,,,7801,WL,A,1.0
prac,,0,,Mon Jun 08 2026 15:01:19 GMT-0500 (Central Daylight Time),,NA,boost,O,t,219,1,,,7801,WL,A,1.0
prac,,0,,Mon Jun 08 2026 15:01:19 GMT-0500 (Central Daylight Time),,NA,boostenter,O,enter,1916,1,,,7801,WL,A,1.0
1,1.5300002098083496,learn,58469.99979019165,Mon Jun 08 2026 15:01:19 GMT-0500 (Central Daylight Time),168549.10000002384,A,b,O,b,1510,1,1529.4000000953674,167019.69999992847,7801,WL,A,1.0
1,1.698000192642212,learn,58301.99980735779,Mon Jun 08 2026 15:01:19 GMT-0500 (Central Daylight Time),168716.39999997616,A,bo,O,o,150,1,1696.7000000476837,167019.69999992847,7801,WL,A,1.0
1,1.880000114440918,learn,58119.99988555908,Mon Jun 08 2026 15:01:19 GMT-0500 (Central Daylight Time),168899.29999995232,A,boo,O,o,161,1,1879.6000000238419,167019.69999992847,7801,WL,A,1.0
1,2.114000082015991,learn,57885.99991798401,Mon Jun 08 2026 15:01:19 GMT-0500 (Central Daylight Time),169133.0,A,book,O,k,216,1,2113.3000000715256,167019.69999992847,7801,WL,A,1.0
1,3.129000186920166,learn,56870.999813079834,Mon Jun 08 2026 15:01:19 GMT-0500 (Central Daylight Time),170148.19999992847,A,bookenter,O,enter,997,1,3128.5,167019.69999992847,7801,WL,A,1.0
1,3.947000026702881,learn,56052.99997329712,Mon Jun 08 2026 15:01:19 GMT-0500 (Central Daylight Time),170965.69999992847,A,f,O,f,799,1,817.1999999284744,170148.5,7801,WL,A,2.0
1,4.082000017166138,learn,55917.99998283386,Mon Jun 08 2026 15:01:19 GMT-0500 (Central Daylight Time),171100.5,A,fl,O,l,113,1,952.0,170148.5,7801,WL,A,2.0
1,4.28000020980835,learn,55719.99979019165,Mon Jun 08 2026 15:01:19 GMT-0500 (Central Daylight Time),171299.19999992847,A,flo,O,o,176,1,1150.6999999284744,170148.5,7801,WL,A,2.0
1,4.379000186920166,learn,55620.999813079834,Mon Jun 08 2026 15:01:19 GMT-0500 (Central Daylight Time),171398.39999997616,A,flow,O,w,77,1,1249.8999999761581,170148.5,7801,WL,A,2.0
1,4.480000019073486,learn,55519.999980926514,Mon Jun 08 2026 15:01:19 GMT-0500 (Central Daylight Time),171499.29999995232,A,flowe,O,e,84,1,1350.7999999523163,170148.5,7801,WL,A,2.0
1,4.647000074386597,learn,55352.9999256134,Mon Jun 08 2026 15:01:19 GMT-0500 (Central Daylight Time),171666.29999995232,A,flower,O,r,152,1,1517.7999999523163,170148.5,7801,WL,A,2.0
1,4.830000162124634,learn,55169.999837875366,Mon Jun 08 2026 15:01:19 GMT-0500 (Central Daylight Time),171849.0,A,flowerenter,O,enter,172,1,1700.5,170148.5,7801,WL,A,2.0
1,5.563000202178955,learn,54436.999797821045,Mon Jun 08 2026 15:01:19 GMT-0500 (Central Daylight Time),172581.89999997616,A,t,O,t,724,1,732.6000000238419,171849.29999995232,7801,WL,A,3.0
1,5.880000114440918,learn,54119.99988555908,Mon Jun 08 2026 15:01:19 GMT-0500 (Central Daylight Time),172899.19999992847,A,tr,O,r,294,1,1049.8999999761581,171849.29999995232,7801,WL,A,3.0
1,6.447000026702881,learn,53552.99997329712,Mon Jun 08 2026 15:01:19 GMT-0500 (Central Daylight Time),173465.39999997616,A,tra,O,a,544,1,1616.1000000238419,171849.29999995232,7801,WL,A,3.0
1,6.664000034332275,learn,53335.999965667725,Mon Jun 08 2026 15:01:19 GMT-0500 (Central Daylight Time),173682.5,A,trai,O,i,203,1,1833.2000000476837,171849.29999995232,7801,WL,A,3.0
1,6.864000082015991,learn,53135.99991798401,Mon Jun 08 2026 15:01:19 GMT-0500 (Central Daylight Time),173882.5,A,train,O,n,179,1,2033.2000000476837,171849.29999995232,7801,WL,A,3.0
1,7.111000061035156,learn,52888.999938964844,Mon Jun 08 2026 15:01:19 GMT-0500 (Central Daylight Time),174130.29999995232,A,trainenter,O,enter,227,1,2281.0,171849.29999995232,7801,WL,A,3.0
1,8.297000169754028,learn,51702.99983024597,Mon Jun 08 2026 15:01:19 GMT-0500 (Central Daylight Time),175316.10000002384,A,m,O,m,1179,1,1185.5,174130.60000002384,7801,WL,A,4.0
1,8.44700002670288,learn,51552.99997329712,Mon Jun 08 2026 15:01:19 GMT-0500 (Central Daylight Time),175466.19999992847,A,me,O,e,144,1,1335.5999999046326,174130.60000002384,7801,WL,A,4.0
1,8.644999980926514,learn,51355.000019073486,Mon Jun 08 2026 15:01:19 GMT-0500 (Central Daylight Time),175664.39999997616,A,mea,O,a,177,1,1533.7999999523163,174130.60000002384,7801,WL,A,4.0
1,8.861999988555908,learn,51138.00001144409,Mon Jun 08 2026 15:01:19 GMT-0500 (Central Daylight Time),175880.69999992847,A,mead,O,d,195,1,1750.0999999046326,174130.60000002384,7801,WL,A,4.0
1,9.062000036239624,learn,50937.999963760376,Mon Jun 08 2026 15:01:19 GMT-0500 (Central Daylight Time),176080.89999997616,A,meado,O,o,177,1,1950.2999999523163,174130.60000002384,7801,WL,A,4.0
1,9.178000211715698,learn,50821.9997882843,Mon Jun 08 2026 15:01:19 GMT-0500 (Central Daylight Time),176197.10000002384,A,meadow,O,w,97,1,2066.5,174130.60000002384,7801,WL,A,4.0
1,9.647000074386597,learn,50352.9999256134,Mon Jun 08 2026 15:01:19 GMT-0500 (Central Daylight Time),176665.69999992847,A,meadowenter,O,enter,454,1,2535.0999999046326,174130.60000002384,7801,WL,A,4.0
1,11.077000141143799,learn,48922.9998588562,Mon Jun 08 2026 15:01:19 GMT-0500 (Central Daylight Time),178096.69999992847,A,l,O,l,1411,1,1430.5999999046326,176666.10000002384,7801,WL,A,5.0
1,11.277000188827515,learn,48722.999811172485,Mon Jun 08 2026 15:01:19 GMT-0500 (Central Daylight Time),178297.5,A,lo,O,o,179,1,1631.3999999761581,176666.10000002384,7801,WL,A,5.0
1,11.410000085830688,learn,48589.99991416931,Mon Jun 08 2026 15:01:19 GMT-0500 (Central Daylight Time),178429.69999992847,A,log,O,g,122,1,1763.5999999046326,176666.10000002384,7801,WL,A,5.0
1,11.678000211715698,learn,48321.9997882843,Mon Jun 08 2026 15:01:19 GMT-0500 (Central Daylight Time),178697.60000002384,A,logenter,O,enter,254,1,2031.5,176666.10000002384,7801,WL,A,5.0
1,15.092000007629395,learn,44907.999992370605,Mon Jun 08 2026 15:01:19 GMT-0500 (Central Daylight Time),182112.5,A,a,O,a,3394,1,3414.600000023842,178697.89999997616,7801,WL,A,6.0
1,15.226999998092651,learn,44773.00000190735,Mon Jun 08 2026 15:01:19 GMT-0500 (Central Daylight Time),182246.79999995232,A,ap,O,p,124,1,3548.899999976158,178697.89999997616,7801,WL,A,6.0
1,15.409000158309937,learn,44590.99984169006,Mon Jun 08 2026 15:01:19 GMT-0500 (Central Daylight Time),182429.19999992847,A,app,O,p,165,1,3731.2999999523163,178697.89999997616,7801,WL,A,6.0
1,15.674000024795532,learn,44325.99997520447,Mon Jun 08 2026 15:01:19 GMT-0500 (Central Daylight Time),182694.39999997616,A,appl,O,l,254,1,3996.5,178697.89999997616,7801,WL,A,6.0
1,15.808000087738037,learn,44191.99991226196,Mon Jun 08 2026 15:01:19 GMT-0500 (Central Daylight Time),182827.69999992847,A,apple,O,e,118,1,4129.799999952316,178697.89999997616,7801,WL,A,6.0
1,16.008000135421753,learn,43991.99986457825,Mon Jun 08 2026 15:01:19 GMT-0500 (Central Daylight Time),183027.60000002384,A,appleenter,O,enter,186,1,4329.700000047684,178697.89999997616,7801,WL,A,6.0
1,24.625,learn,35375.0,Mon Jun 08 2026 15:01:19 GMT-0500 (Central Daylight Time),191644.69999992847,A,b,O,b,8595,1,8616.899999976158,183027.79999995232,7801,WL,A,7.0
1,25.004000186920166,learn,34995.999813079834,Mon Jun 08 2026 15:01:19 GMT-0500 (Central Daylight Time),192024.29999995232,A,br,O,r,359,1,8996.5,183027.79999995232,7801,WL,A,7.0
1,25.206000089645386,learn,34793.999910354614,Mon Jun 08 2026 15:01:19 GMT-0500 (Central Daylight Time),192225.89999997616,A,bra,O,a,188,1,9198.100000023842,183027.79999995232,7801,WL,A,7.0
1,25.34000015258789,learn,34659.99984741211,Mon Jun 08 2026 15:01:19 GMT-0500 (Central Daylight Time),192359.60000002384,A,brai,O,i,123,1,9331.800000071526,183027.79999995232,7801,WL,A,7.0
1,25.490000009536743,learn,34509.99999046326,Mon Jun 08 2026 15:01:19 GMT-0500 (Central Daylight Time),192509.60000002384,A,brain,O,n,133,1,9481.800000071526,183027.79999995232,7801,WL,A,7.0
1,25.688000202178955,learn,34311.999797821045,Mon Jun 08 2026 15:01:19 GMT-0500 (Central Daylight Time),192708.10000002384,A,brainenter,O,enter,191,1,9680.300000071526,183027.79999995232,7801,WL,A,7.0
1,34.00200009346008,learn,25997.999906539917,Mon Jun 08 2026 15:01:19 GMT-0500 (Central Daylight Time),201022.19999992847,A,c,O,c,8297,1,8313.899999976158,192708.29999995232,7801,WL,A,8.0
1,34.2020001411438,learn,25797.9998588562,Mon Jun 08 2026 15:01:19 GMT-0500 (Central Daylight Time),201222.5,A,ca,O,a,177,1,8514.200000047684,192708.29999995232,7801,WL,A,8.0
1,34.35199999809265,learn,25648.00000190735,Mon Jun 08 2026 15:01:19 GMT-0500 (Central Daylight Time),201372.39999997616,A,can,O,n,141,1,8664.100000023842,192708.29999995232,7801,WL,A,8.0
1,34.569000005722046,learn,25430.999994277954,Mon Jun 08 2026 15:01:19 GMT-0500 (Central Daylight Time),201588.69999992847,A,canenter,O,enter,198,1,8880.399999976158,192708.29999995232,7801,WL,A,8.0
1,42.93300008773804,learn,17066.999912261963,Mon Jun 08 2026 15:01:19 GMT-0500 (Central Daylight Time),209952.89999997616,A,b,O,b,8352,1,8363.899999976158,201589.0,7801,WL,A,9.0
1,43.116000175476074,learn,16883.999824523926,Mon Jun 08 2026 15:01:19 GMT-0500 (Central Daylight Time),210136.10000002384,A,bo,O,o,162,1,8547.100000023842,201589.0,7801,WL,A,9.0
1,43.2810001373291,learn,16718.9998626709,Mon Jun 08 2026 15:01:19 GMT-0500 (Central Daylight Time),210301.39999997616,A,boo,O,o,154,1,8712.399999976158,201589.0,7801,WL,A,9.0
1,43.48200011253357,learn,16517.99988746643,Mon Jun 08 2026 15:01:19 GMT-0500 (Central Daylight Time),210502.19999992847,A,book,O,k,182,1,8913.199999928474,201589.0,7801,WL,A,9.0
1,43.682000160217285,learn,16317.999839782715,Mon Jun 08 2026 15:01:19 GMT-0500 (Central Daylight Time),210702.19999992847,A,bookenter,O,enter,180,1,9113.199999928474,201589.0,7801,WL,A,9.0
1,53.71300005912781,learn,6286.999940872192,Mon Jun 08 2026 15:01:19 GMT-0500 (Central Daylight Time),220733.10000002384,A,s,O,s,10009,1,10030.600000023842,210702.5,7801,WL,A,10.0
1,53.91200017929077,learn,6087.9998207092285,Mon Jun 08 2026 15:01:19 GMT-0500 (Central Daylight Time),220932.5,A,se,O,e,180,1,10230.0,210702.5,7801,WL,A,10.0
1,54.129000186920166,learn,5870.999813079834,Mon Jun 08 2026 15:01:19 GMT-0500 (Central Daylight Time),221149.0,A,sea,O,a,210,1,10446.5,210702.5,7801,WL,A,10.0
1,54.2960000038147,learn,5703.999996185303,Mon Jun 08 2026 15:01:19 GMT-0500 (Central Daylight Time),221315.69999992847,A,seaenter,O,enter,149,1,10613.199999928474,210702.5,7801,WL,A,10.0
1,60.01100015640259,learn,-11.00015640258789,Mon Jun 08 2026 15:01:19 GMT-0500 (Central Daylight Time),227031.0,A,None,O,None,5709,1,5714.899999976158,221316.10000002384,7801,WL,A,11.0
2,1.0829999446868896,learn,58917.00005531311,Mon Jun 08 2026 15:01:19 GMT-0500 (Central Daylight Time),294592.89999997616,A,b,O,b,1073,1,1083.0,293509.89999997616,7801,WL,A,1.0
2,1.249000072479248,learn,58750.99992752075,Mon Jun 08 2026 15:01:19 GMT-0500 (Central Daylight Time),294758.7999999523,A,bo,O,o,148,1,1248.8999999761581,293509.89999997616,7801,WL,A,1.0
2,1.4500000476837158,learn,58549.999952316284,Mon Jun 08 2026 15:01:19 GMT-0500 (Central Daylight Time),294960.2999999523,A,boo,O,o,181,1,1450.3999999761581,293509.89999997616,7801,WL,A,1.0
2,1.684000015258789,learn,58315.99998474121,Mon Jun 08 2026 15:01:19 GMT-0500 (Central Daylight Time),295194.1999999285,A,book,O,k,212,1,1684.2999999523163,293509.89999997616,7801,WL,A,1.0
2,2.180999994277954,learn,57819.000005722046,Mon Jun 08 2026 15:01:19 GMT-0500 (Central Daylight Time),295691.0,A,bookt,O,t,489,1,2181.100000023842,293509.89999997616,7801,WL,A,1.0
2,2.4830000400543213,learn,57516.99995994568,Mon Jun 08 2026 15:01:19 GMT-0500 (Central Daylight Time),295993.5,A,booktr,O,r,282,1,2483.600000023842,293509.89999997616,7801,WL,A,1.0
2,2.6489999294281006,learn,57351.0000705719,Mon Jun 08 2026 15:01:19 GMT-0500 (Central Daylight Time),296159.39999997616,A,booktra,O,a,144,1,2649.5,293509.89999997616,7801,WL,A,1.0
2,3.3499999046325684,learn,56650.00009536743,Mon Jun 08 2026 15:01:19 GMT-0500 (Central Daylight Time),296860.39999997616,A,booktr,O,backspace,694,1,3350.5,293509.89999997616,7801,WL,A,1.0
2,3.5,learn,56500.0,Mon Jun 08 2026 15:01:19 GMT-0500 (Central Daylight Time),297010.0,A,bookt,O,backspace,134,1,3500.100000023842,293509.89999997616,7801,WL,A,1.0
2,3.75,learn,56250.0,Mon Jun 08 2026 15:01:19 GMT-0500 (Central Daylight Time),297260.1999999285,A,book,O,backspace,235,1,3750.2999999523163,293509.89999997616,7801,WL,A,1.0
2,4.663000106811523,learn,55336.99989318848,Mon Jun 08 2026 15:01:19 GMT-0500 (Central Daylight Time),298173.89999997616,A,bookenter,O,enter,904,1,4664.0,293509.89999997616,7801,WL,A,1.0
2,5.21399998664856,learn,54786.00001335144,Mon Jun 08 2026 15:01:19 GMT-0500 (Central Daylight Time),298724.7999999523,A,t,O,t,533,1,550.6000000238419,298174.1999999285,7801,WL,A,2.0
2,5.482000112533569,learn,54517.99988746643,Mon Jun 08 2026 15:01:19 GMT-0500 (Central Daylight Time),298993.2999999523,A,tr,O,r,249,1,819.1000000238419,298174.1999999285,7801,WL,A,2.0
2,5.680000066757202,learn,54319.9999332428,Mon Jun 08 2026 15:01:19 GMT-0500 (Central Daylight Time),299191.2999999523,A,tra,O,a,186,1,1017.1000000238419,298174.1999999285,7801,WL,A,2.0
2,5.812999963760376,learn,54187.000036239624,Mon Jun 08 2026 15:01:19 GMT-0500 (Central Daylight Time),299324.0,A,trai,O,i,116,1,1149.8000000715256,298174.1999999285,7801,WL,A,2.0
2,5.980000019073486,learn,54019.999980926514,Mon Jun 08 2026 15:01:19 GMT-0500 (Central Daylight Time),299491.39999997616,A,train,O,n,150,1,1317.2000000476837,298174.1999999285,7801,WL,A,2.0
2,6.230000019073486,learn,53769.999980926514,Mon Jun 08 2026 15:01:19 GMT-0500 (Central Daylight Time),299741.60000002384,A,trainenter,O,enter,232,1,1567.4000000953674,298174.1999999285,7801,WL,A,2.0
2,6.746999979019165,learn,53253.000020980835,Mon Jun 08 2026 15:01:19 GMT-0500 (Central Daylight Time),300258.6999999285,A,l,O,l,505,1,516.7999999523163,299741.89999997616,7801,WL,A,3.0
2,6.96399998664856,learn,53036.00001335144,Mon Jun 08 2026 15:01:19 GMT-0500 (Central Daylight Time),300475.2999999523,A,lo,O,o,195,1,733.3999999761581,299741.89999997616,7801,WL,A,3.0
2,7.115000009536743,learn,52884.99999046326,Mon Jun 08 2026 15:01:19 GMT-0500 (Central Daylight Time),300626.5,A,log,O,g,137,1,884.6000000238419,299741.89999997616,7801,WL,A,3.0
2,7.545000076293945,learn,52454.999923706055,Mon Jun 08 2026 15:01:19 GMT-0500 (Central Daylight Time),301056.7999999523,A,logenter,O,enter,417,1,1314.8999999761581,299741.89999997616,7801,WL,A,3.0
2,8.062000036239624,learn,51937.999963760376,Mon Jun 08 2026 15:01:19 GMT-0500 (Central Daylight Time),301573.60000002384,A,m,O,m,501,1,516.6000000238419,301057.0,7801,WL,A,4.0
2,8.196000099182129,learn,51803.99990081787,Mon Jun 08 2026 15:01:19 GMT-0500 (Central Daylight Time),301707.39999997616,A,me,O,e,118,1,650.3999999761581,301057.0,7801,WL,A,4.0
2,8.378999948501587,learn,51621.00005149841,Mon Jun 08 2026 15:01:19 GMT-0500 (Central Daylight Time),301890.60000002384,A,mea,O,a,169,1,833.6000000238419,301057.0,7801,WL,A,4.0
2,8.763000011444092,learn,51236.99998855591,Mon Jun 08 2026 15:01:19 GMT-0500 (Central Daylight Time),302274.10000002384,A,mead,O,d,370,1,1217.1000000238419,301057.0,7801,WL,A,4.0
2,8.962000131607056,learn,51037.999868392944,Mon Jun 08 2026 15:01:19 GMT-0500 (Central Daylight Time),302473.2999999523,A,meado,O,o,185,1,1416.2999999523163,301057.0,7801,WL,A,4.0
2,9.111999988555908,learn,50888.00001144409,Mon Jun 08 2026 15:01:19 GMT-0500 (Central Daylight Time),302623.2999999523,A,meadow,O,w,130,1,1566.2999999523163,301057.0,7801,WL,A,4.0
2,9.510999917984009,learn,50489.00008201599,Mon Jun 08 2026 15:01:19 GMT-0500 (Central Daylight Time),303022.2999999523,A,meadowenter,O,enter,380,1,1965.2999999523163,301057.0,7801,WL,A,4.0
2,10.062000036239624,learn,49937.999963760376,Mon Jun 08 2026 15:01:19 GMT-0500 (Central Daylight Time),303573.5,A,f,O,f,534,1,550.8999999761581,303022.60000002384,7801,WL,A,5.0
2,10.230000019073486,learn,49769.999980926514,Mon Jun 08 2026 15:01:19 GMT-0500 (Central Daylight Time),303740.89999997616,A,fl,O,l,147,1,718.2999999523163,303022.60000002384,7801,WL,A,5.0
2,10.430000066757202,learn,49569.9999332428,Mon Jun 08 2026 15:01:19 GMT-0500 (Central Daylight Time),303941.0,A,flo,O,o,193,1,918.3999999761581,303022.60000002384,7801,WL,A,5.0
2,10.545000076293945,learn,49454.999923706055,Mon Jun 08 2026 15:01:19 GMT-0500 (Central Daylight Time),304056.39999997616,A,flow,O,w,94,1,1033.7999999523163,303022.60000002384,7801,WL,A,5.0
2,10.66100001335144,learn,49338.99998664856,Mon Jun 08 2026 15:01:19 GMT-0500 (Central Daylight Time),304172.39999997616,A,flowe,O,e,93,1,1149.7999999523163,303022.60000002384,7801,WL,A,5.0
2,10.812000036239624,learn,49187.999963760376,Mon Jun 08 2026 15:01:19 GMT-0500 (Central Daylight Time),304322.89999997616,A,flower,O,r,137,1,1300.2999999523163,303022.60000002384,7801,WL,A,5.0
2,11.028000116348267,learn,48971.99988365173,Mon Jun 08 2026 15:01:19 GMT-0500 (Central Daylight Time),304539.10000002384,A,flowerenter,O,enter,208,1,1516.5,303022.60000002384,7801,WL,A,5.0
2,11.99399995803833,learn,48006.00004196167,Mon Jun 08 2026 15:01:19 GMT-0500 (Central Daylight Time),305505.1999999285,A,l,O,l,953,1,965.7999999523163,304539.39999997616,7801,WL,A,6.0
2,12.17799997329712,learn,47822.00002670288,Mon Jun 08 2026 15:01:19 GMT-0500 (Central Daylight Time),305689.1999999285,A,lo,O,o,171,1,1149.7999999523163,304539.39999997616,7801,WL,A,6.0
2,12.311000108718872,learn,47688.99989128113,Mon Jun 08 2026 15:01:19 GMT-0500 (Central Daylight Time),305822.2999999523,A,log,O,g,116,1,1282.8999999761581,304539.39999997616,7801,WL,A,6.0
2,12.543999910354614,learn,47456.000089645386,Mon Jun 08 2026 15:01:19 GMT-0500 (Central Daylight Time),306055.39999997616,A,logenter,O,enter,219,1,1516.0,304539.39999997616,7801,WL,A,6.0
2,13.66100001335144,learn,46338.99998664856,Mon Jun 08 2026 15:01:19 GMT-0500 (Central Daylight Time),307172.60000002384,A,h,O,h,1096,1,1117.0,306055.60000002384,7801,WL,A,7.0
2,13.778000116348267,learn,46221.99988365173,Mon Jun 08 2026 15:01:19 GMT-0500 (Central Daylight Time),307288.89999997616,A,ha,O,a,96,1,1233.2999999523163,306055.60000002384,7801,WL,A,7.0
2,13.944000005722046,learn,46055.999994277954,Mon Jun 08 2026 15:01:19 GMT-0500 (Central Daylight Time),307455.39999997616,A,har,O,r,145,1,1399.7999999523163,306055.60000002384,7801,WL,A,7.0
2,14.194000005722046,learn,45805.999994277954,Mon Jun 08 2026 15:01:19 GMT-0500 (Central Daylight Time),307705.2999999523,A,harp,O,p,228,1,1649.6999999284744,306055.60000002384,7801,WL,A,7.0
2,14.526999950408936,learn,45473.000049591064,Mon Jun 08 2026 15:01:19 GMT-0500 (Central Daylight Time),308038.1999999285,A,harpenter,O,enter,314,1,1982.5999999046326,306055.60000002384,7801,WL,A,7.0
2,15.092999935150146,learn,44907.00006484985,Mon Jun 08 2026 15:01:19 GMT-0500 (Central Daylight Time),308604.5,A,b,O,b,558,1,566.0,308038.5,7801,WL,A,8.0
2,15.309999942779541,learn,44690.00005722046,Mon Jun 08 2026 15:01:19 GMT-0500 (Central Daylight Time),308821.2999999523,A,bu,O,u,208,1,782.7999999523163,308038.5,7801,WL,A,8.0
2,15.479000091552734,learn,44520.999908447266,Mon Jun 08 2026 15:01:19 GMT-0500 (Central Daylight Time),308989.89999997616,A,but,O,t,160,1,951.3999999761581,308038.5,7801,WL,A,8.0
2,15.676000118255615,learn,44323.999881744385,Mon Jun 08 2026 15:01:19 GMT-0500 (Central Daylight Time),309187.39999997616,A,butt,O,t,182,1,1148.8999999761581,308038.5,7801,WL,A,8.0
2,15.828999996185303,learn,44171.0000038147,Mon Jun 08 2026 15:01:19 GMT-0500 (Central Daylight Time),309340.2999999523,A,butto,O,o,138,1,1301.7999999523163,308038.5,7801,WL,A,8.0
2,15.963000059127808,learn,44036.99994087219,Mon Jun 08 2026 15:01:19 GMT-0500 (Central Daylight Time),309473.89999997616,A,button,O,n,112,1,1435.3999999761581,308038.5,7801,WL,A,8.0
2,16.193000078201294,learn,43806.999921798706,Mon Jun 08 2026 15:01:19 GMT-0500 (Central Daylight Time),309703.89999997616,A,buttonenter,O,enter,220,1,1665.3999999761581,308038.5,7801,WL,A,8.0
2,17.66000008583069,learn,42339.99991416931,Mon Jun 08 2026 15:01:19 GMT-0500 (Central Daylight Time),311171.60000002384,A,r,O,r,1446,1,1467.3000000715256,309704.2999999523,7801,WL,A,9.0
2,17.877000093460083,learn,42122.99990653992,Mon Jun 08 2026 15:01:19 GMT-0500 (Central Daylight Time),311388.39999997616,A,ra,O,a,195,1,1684.1000000238419,309704.2999999523,7801,WL,A,9.0
2,18.05999994277954,learn,41940.00005722046,Mon Jun 08 2026 15:01:19 GMT-0500 (Central Daylight Time),311571.89999997616,A,rat,O,t,169,1,1867.6000000238419,309704.2999999523,7801,WL,A,9.0
2,18.2260000705719,learn,41773.9999294281,Mon Jun 08 2026 15:01:19 GMT-0500 (Central Daylight Time),311737.5,A,ratt,O,t,152,1,2033.2000000476837,309704.2999999523,7801,WL,A,9.0
2,18.54200005531311,learn,41457.99994468689,Mon Jun 08 2026 15:01:19 GMT-0500 (Central Daylight Time),312053.5,A,rattl,O,l,304,1,2349.2000000476837,309704.2999999523,7801,WL,A,9.0
2,18.658999919891357,learn,41341.00008010864,Mon Jun 08 2026 15:01:19 GMT-0500 (Central Daylight Time),312170.6999999285,A,rattle,O,e,104,1,2466.399999976158,309704.2999999523,7801,WL,A,9.0
2,18.875999927520752,learn,41124.00007247925,Mon Jun 08 2026 15:01:19 GMT-0500 (Central Daylight Time),312386.89999997616,A,rattleenter,O,enter,200,1,2682.600000023842,309704.2999999523,7801,WL,A,9.0
2,19.508000135421753,learn,40491.99986457825,Mon Jun 08 2026 15:01:19 GMT-0500 (Central Daylight Time),313019.60000002384,A,f,O,f,618,1,632.4000000953674,312387.1999999285,7801,WL,A,10.0
2,19.625999927520752,learn,40374.00007247925,Mon Jun 08 2026 15:01:19 GMT-0500 (Central Daylight Time),313136.89999997616,A,fi,O,i,106,1,749.7000000476837,312387.1999999285,7801,WL,A,10.0
2,19.759000062942505,learn,40240.999937057495,Mon Jun 08 2026 15:01:19 GMT-0500 (Central Daylight Time),313270.7999999523,A,fin,O,n,116,1,883.6000000238419,312387.1999999285,7801,WL,A,10.0
2,19.907999992370605,learn,40092.000007629395,Mon Jun 08 2026 15:01:19 GMT-0500 (Central Daylight Time),313419.2999999523,A,fing,O,g,133,1,1032.1000000238419,312387.1999999285,7801,WL,A,10.0
2,20.108999967575073,learn,39891.00003242493,Mon Jun 08 2026 15:01:19 GMT-0500 (Central Daylight Time),313620.1999999285,A,finge,O,e,197,1,1233.0,312387.1999999285,7801,WL,A,10.0
2,20.22699999809265,learn,39773.00000190735,Mon Jun 08 2026 15:01:19 GMT-0500 (Central Daylight Time),313738.1999999285,A,finger,O,r,97,1,1351.0,312387.1999999285,7801,WL,A,10.0
2,20.444999933242798,learn,39555.0000667572,Mon Jun 08 2026 15:01:19 GMT-0500 (Central Daylight Time),313955.7999999523,A,fingerenter,O,enter,202,1,1568.6000000238419,312387.1999999285,7801,WL,A,10.0
2,26.77300000190735,learn,33226.99999809265,Mon Jun 08 2026 15:01:19 GMT-0500 (Central Daylight Time),320284.1999999285,A,a,O,a,6315,1,6328.199999928474,313956.0,7801,WL,A,11.0
2,26.891000032424927,learn,33108.99996757507,Mon Jun 08 2026 15:01:19 GMT-0500 (Central Daylight Time),320402.10000002384,A,ap,O,p,101,1,6446.100000023842,313956.0,7801,WL,A,11.0
2,27.10599994659424,learn,32894.00005340576,Mon Jun 08 2026 15:01:19 GMT-0500 (Central Daylight Time),320617.2999999523,A,app,O,p,193,1,6661.299999952316,313956.0,7801,WL,A,11.0
2,27.374000072479248,learn,32625.999927520752,Mon Jun 08 2026 15:01:19 GMT-0500 (Central Daylight Time),320885.10000002384,A,appl,O,l,261,1,6929.100000023842,313956.0,7801,WL,A,11.0
2,27.506999969482422,learn,32493.000030517578,Mon Jun 08 2026 15:01:19 GMT-0500 (Central Daylight Time),321018.60000002384,A,apple,O,e,115,1,7062.600000023842,313956.0,7801,WL,A,11.0
2,27.805999994277954,learn,32194.000005722046,Mon Jun 08 2026 15:01:19 GMT-0500 (Central Daylight Time),321317.6999999285,A,appleenter,O,enter,281,1,7361.699999928474,313956.0,7801,WL,A,11.0
2,37.486000061035156,learn,22513.999938964844,Mon Jun 08 2026 15:01:19 GMT-0500 (Central Daylight Time),330997.6999999285,A,s,O,s,9662,1,9679.799999952316,321317.89999997616,7801,WL,A,12.0
2,37.80399990081787,learn,22196.00009918213,Mon Jun 08 2026 15:01:19 GMT-0500 (Central Daylight Time),331315.0,A,sc,O,c,296,1,9997.100000023842,321317.89999997616,7801,WL,A,12.0
2,38.03699994087219,learn,21963.000059127808,Mon Jun 08 2026 15:01:19 GMT-0500 (Central Daylight Time),331548.89999997616,A,sca,O,a,218,1,10231.0,321317.89999997616,7801,WL,A,12.0
2,38.168999910354614,learn,21831.000089645386,Mon Jun 08 2026 15:01:19 GMT-0500 (Central Daylight Time),331680.5,A,scan,O,n,118,1,10362.600000023842,321317.89999997616,7801,WL,A,12.0
2,38.401999950408936,learn,21598.000049591064,Mon Jun 08 2026 15:01:19 GMT-0500 (Central Daylight Time),331913.39999997616,A,scanenter,O,enter,212,1,10595.5,321317.89999997616,7801,WL,A,12.0
2,43.168999910354614,learn,16831.000089645386,Mon Jun 08 2026 15:01:19 GMT-0500 (Central Daylight Time),336680.2999999523,A,b,O,b,4754,1,4766.600000023842,331913.6999999285,7801,WL,A,13.0
2,43.40400004386902,learn,16595.99995613098,Mon Jun 08 2026 15:01:19 GMT-0500 (Central Daylight Time),336914.89999997616,A,bu,O,u,221,1,5001.200000047684,331913.6999999285,7801,WL,A,13.0
2,43.60199999809265,learn,16398.00000190735,Mon Jun 08 2026 15:01:19 GMT-0500 (Central Daylight Time),337113.10000002384,A,but,O,t,186,1,5199.400000095367,331913.6999999285,7801,WL,A,13.0
2,43.801000118255615,learn,16198.999881744385,Mon Jun 08 2026 15:01:19 GMT-0500 (Central Daylight Time),337312.1999999285,A,butt,O,t,181,1,5398.5,331913.6999999285,7801,WL,A,13.0
2,44.03399991989136,learn,15966.000080108643,Mon Jun 08 2026 15:01:19 GMT-0500 (Central Daylight Time),337545.2999999523,A,butto,O,o,210,1,5631.600000023842,331913.6999999285,7801,WL,A,13.0
2,44.23399996757507,learn,15766.000032424927,Mon Jun 08 2026 15:01:19 GMT-0500 (Central Daylight Time),337745.7999999523,A,button,O,n,177,1,5832.100000023842,331913.6999999285,7801,WL,A,13.0
2,44.485000133514404,learn,15514.999866485596,Mon Jun 08 2026 15:01:19 GMT-0500 (Central Daylight Time),337996.10000002384,A,buttonenter,O,enter,230,1,6082.400000095367,331913.6999999285,7801,WL,A,13.0
2,55.23200011253357,learn,4767.999887466431,Mon Jun 08 2026 15:01:19 GMT-0500 (Central Daylight Time),348743.1999999285,A,s,O,s,10725,1,10746.899999976158,337996.2999999523,7801,WL,A,14.0
2,55.46399998664856,learn,4536.00001335144,Mon Jun 08 2026 15:01:19 GMT-0500 (Central Daylight Time),348975.5,A,sc,O,c,221,1,10979.200000047684,337996.2999999523,7801,WL,A,14.0
2,55.73099994659424,learn,4269.000053405762,Mon Jun 08 2026 15:01:19 GMT-0500 (Central Daylight Time),349242.39999997616,A,sca,O,a,252,1,11246.100000023842,337996.2999999523,7801,WL,A,14.0
2,55.88199996948242,learn,4118.000030517578,Mon Jun 08 2026 15:01:19 GMT-0500 (Central Daylight Time),349393.10000002384,A,scan,O,n,127,1,11396.800000071526,337996.2999999523,7801,WL,A,14.0
2,56.079999923706055,learn,3920.0000762939453,Mon Jun 08 2026 15:01:19 GMT-0500 (Central Daylight Time),349591.5,A,scanenter,O,enter,173,1,11595.200000047684,337996.2999999523,7801,WL,A,14.0
2,60.013999938964844,learn,-13.99993896484375,Mon Jun 08 2026 15:01:19 GMT-0500 (Central Daylight Time),353525.6999999285,A,None,O,None,3929,1,3933.899999976158,349591.7999999523,7801,WL,A,15.0
3,0.8829998970031738,learn,59117.000102996826,Mon Jun 08 2026 15:01:19 GMT-0500 (Central Daylight Time),420152.6999999285,A,c,O,c,869,1,882.5,419270.1999999285,7801,WL,A,1.0
3,1.065000057220459,learn,58934.99994277954,Mon Jun 08 2026 15:01:19 GMT-0500 (Central Daylight Time),420334.5,A,ch,O,h,169,1,1064.3000000715256,419270.1999999285,7801,WL,A,1.0
3,1.2330000400543213,learn,58766.99995994568,Mon Jun 08 2026 15:01:19 GMT-0500 (Central Daylight Time),420502.2999999523,A,chi,O,i,159,1,1232.1000000238419,419270.1999999285,7801,WL,A,1.0
3,1.6159999370574951,learn,58384.000062942505,Mon Jun 08 2026 15:01:19 GMT-0500 (Central Daylight Time),420885.2999999523,A,chim,O,m,366,1,1615.1000000238419,419270.1999999285,7801,WL,A,1.0
3,1.9500000476837158,learn,58049.999952316284,Mon Jun 08 2026 15:01:19 GMT-0500 (Central Daylight Time),421219.5,A,chimn,O,n,321,1,1949.3000000715256,419270.1999999285,7801,WL,A,1.0
3,2.115999937057495,learn,57884.000062942505,Mon Jun 08 2026 15:01:19 GMT-0500 (Central Daylight Time),421385.7999999523,A,chimne,O,e,153,1,2115.600000023842,419270.1999999285,7801,WL,A,1.0
3,3.132999897003174,learn,56867.000102996826,Mon Jun 08 2026 15:01:19 GMT-0500 (Central Daylight Time),422403.0,A,chimney,O,y,1003,1,3132.8000000715256,419270.1999999285,7801,WL,A,1.0
3,4.5,learn,55500.0,Mon Jun 08 2026 15:01:19 GMT-0500 (Central Daylight Time),423769.2999999523,A,chimneyenter,O,enter,1347,1,4499.100000023842,419270.1999999285,7801,WL,A,1.0
3,5.263999938964844,learn,54736.000061035156,Mon Jun 08 2026 15:01:19 GMT-0500 (Central Daylight Time),424533.89999997616,A,r,O,r,756,1,764.2999999523163,423769.60000002384,7801,WL,A,2.0
3,5.431999921798706,learn,54568.000078201294,Mon Jun 08 2026 15:01:19 GMT-0500 (Central Daylight Time),424701.5,A,ru,O,u,164,1,931.8999999761581,423769.60000002384,7801,WL,A,2.0
3,5.733000040054321,learn,54266.99995994568,Mon Jun 08 2026 15:01:19 GMT-0500 (Central Daylight Time),425002.1999999285,A,rug,O,g,294,1,1232.5999999046326,423769.60000002384,7801,WL,A,2.0
3,5.931999921798706,learn,54068.000078201294,Mon Jun 08 2026 15:01:19 GMT-0500 (Central Daylight Time),425201.10000002384,A,rugenter,O,enter,178,1,1431.5,423769.60000002384,7801,WL,A,2.0
3,6.514999866485596,learn,53485.000133514404,Mon Jun 08 2026 15:01:19 GMT-0500 (Central Daylight Time),425784.60000002384,A,k,O,k,563,1,583.2000000476837,425201.39999997616,7801,WL,A,3.0
3,6.681999921798706,learn,53318.000078201294,Mon Jun 08 2026 15:01:19 GMT-0500 (Central Daylight Time),425951.2999999523,A,ke,O,e,145,1,749.8999999761581,425201.39999997616,7801,WL,A,3.0
3,7.5329999923706055,learn,52467.000007629395,Mon Jun 08 2026 15:01:19 GMT-0500 (Central Daylight Time),426802.6999999285,A,key,O,y,836,1,1601.2999999523163,425201.39999997616,7801,WL,A,3.0
3,8.615000009536743,learn,51384.99999046326,Mon Jun 08 2026 15:01:19 GMT-0500 (Central Daylight Time),427884.10000002384,A,keyenter,O,enter,1066,1,2682.7000000476837,425201.39999997616,7801,WL,A,3.0
3,9.614000082015991,learn,50385.99991798401,Mon Jun 08 2026 15:01:19 GMT-0500 (Central Daylight Time),428883.2999999523,A,r,O,r,977,1,999.0,427884.2999999523,7801,WL,A,4.0
3,9.815000057220459,learn,50184.99994277954,Mon Jun 08 2026 15:01:19 GMT-0500 (Central Daylight Time),429084.5,A,ra,O,a,178,1,1200.2000000476837,427884.2999999523,7801,WL,A,4.0
3,9.997999906539917,learn,50002.00009346008,Mon Jun 08 2026 15:01:19 GMT-0500 (Central Daylight Time),429267.2999999523,A,rat,O,t,162,1,1383.0,427884.2999999523,7801,WL,A,4.0
3,10.162999868392944,learn,49837.000131607056,Mon Jun 08 2026 15:01:19 GMT-0500 (Central Daylight Time),429432.60000002384,A,ratt,O,t,144,1,1548.3000000715256,427884.2999999523,7801,WL,A,4.0
3,10.346999883651733,learn,49653.00011634827,Mon Jun 08 2026 15:01:19 GMT-0500 (Central Daylight Time),429616.6999999285,A,rattl,O,l,171,1,1732.3999999761581,427884.2999999523,7801,WL,A,4.0
3,10.430999994277954,learn,49569.000005722046,Mon Jun 08 2026 15:01:19 GMT-0500 (Central Daylight Time),429700.39999997616,A,rattle,O,e,77,1,1816.1000000238419,427884.2999999523,7801,WL,A,4.0
3,10.763000011444092,learn,49236.99998855591,Mon Jun 08 2026 15:01:19 GMT-0500 (Central Daylight Time),430032.60000002384,A,rattleenter,O,enter,319,1,2148.3000000715256,427884.2999999523,7801,WL,A,4.0
3,12.246999979019165,learn,47753.000020980835,Mon Jun 08 2026 15:01:19 GMT-0500 (Central Daylight Time),431517.0,A,k,O,k,1464,1,1484.1000000238419,430032.89999997616,7801,WL,A,5.0
3,12.447999954223633,learn,47552.00004577637,Mon Jun 08 2026 15:01:19 GMT-0500 (Central Daylight Time),431717.60000002384,A,ke,O,e,194,1,1684.7000000476837,430032.89999997616,7801,WL,A,5.0
3,12.598000049591064,learn,47401.999950408936,Mon Jun 08 2026 15:01:19 GMT-0500 (Central Daylight Time),431867.0,A,key,O,y,144,1,1834.1000000238419,430032.89999997616,7801,WL,A,5.0
3,12.928999900817871,learn,47071.00009918213,Mon Jun 08 2026 15:01:19 GMT-0500 (Central Daylight Time),432199.0,A,keyenter,O,enter,323,1,2166.100000023842,430032.89999997616,7801,WL,A,5.0
3,15.111999988555908,learn,44888.00001144409,Mon Jun 08 2026 15:01:19 GMT-0500 (Central Daylight Time),434381.89999997616,A,b,O,b,2166,1,2182.7000000476837,432199.1999999285,7801,WL,A,6.0
3,15.244999885559082,learn,44755.00011444092,Mon Jun 08 2026 15:01:19 GMT-0500 (Central Daylight Time),434514.6999999285,A,bo,O,o,119,1,2315.5,432199.1999999285,7801,WL,A,6.0
3,15.411999940872192,learn,44588.00005912781,Mon Jun 08 2026 15:01:19 GMT-0500 (Central Daylight Time),434681.6999999285,A,boo,O,o,153,1,2482.5,432199.1999999285,7801,WL,A,6.0
3,15.644999980926514,learn,44355.000019073486,Mon Jun 08 2026 15:01:19 GMT-0500 (Central Daylight Time),434914.60000002384,A,book,O,k,218,1,2715.4000000953674,432199.1999999285,7801,WL,A,6.0
3,15.878000020980835,learn,44121.999979019165,Mon Jun 08 2026 15:01:19 GMT-0500 (Central Daylight Time),435147.10000002384,A,bookenter,O,enter,211,1,2947.9000000953674,432199.1999999285,7801,WL,A,6.0
3,19.677000045776367,learn,40322.99995422363,Mon Jun 08 2026 15:01:19 GMT-0500 (Central Daylight Time),438946.5,A,m,O,m,3786,1,3799.100000023842,435147.39999997616,7801,WL,A,7.0
3,19.82699990272522,learn,40173.00009727478,Mon Jun 08 2026 15:01:19 GMT-0500 (Central Daylight Time),439096.1999999285,A,me,O,e,127,1,3948.7999999523163,435147.39999997616,7801,WL,A,7.0
3,19.99399995803833,learn,40006.00004196167,Mon Jun 08 2026 15:01:19 GMT-0500 (Central Daylight Time),439263.10000002384,A,mea,O,a,154,1,4115.700000047684,435147.39999997616,7801,WL,A,7.0
3,20.276999950408936,learn,39723.000049591064,Mon Jun 08 2026 15:01:19 GMT-0500 (Central Daylight Time),439546.10000002384,A,mead,O,d,267,1,4398.700000047684,435147.39999997616,7801,WL,A,7.0
3,20.477999925613403,learn,39522.0000743866,Mon Jun 08 2026 15:01:19 GMT-0500 (Central Daylight Time),439747.1999999285,A,meado,O,o,178,1,4599.799999952316,435147.39999997616,7801,WL,A,7.0
3,20.609999895095825,learn,39390.000104904175,Mon Jun 08 2026 15:01:19 GMT-0500 (Central Daylight Time),439879.89999997616,A,meadow,O,w,121,1,4732.5,435147.39999997616,7801,WL,A,7.0
3,20.960000038146973,learn,39039.99996185303,Mon Jun 08 2026 15:01:19 GMT-0500 (Central Daylight Time),440229.10000002384,A,meadowenter,O,enter,330,1,5081.700000047684,435147.39999997616,7801,WL,A,7.0
3,22.875999927520752,learn,37124.00007247925,Mon Jun 08 2026 15:01:19 GMT-0500 (Central Daylight Time),442145.39999997616,A,t,O,t,1904,1,1916.0,440229.39999997616,7801,WL,A,8.0
3,23.158999919891357,learn,36841.00008010864,Mon Jun 08 2026 15:01:19 GMT-0500 (Central Daylight Time),442428.89999997616,A,tr,O,r,264,1,2199.5,440229.39999997616,7801,WL,A,8.0
3,23.358999967575073,learn,36641.00003242493,Mon Jun 08 2026 15:01:19 GMT-0500 (Central Daylight Time),442628.7999999523,A,tra,O,a,179,1,2399.399999976158,440229.39999997616,7801,WL,A,8.0
3,23.509000062942505,learn,36490.999937057495,Mon Jun 08 2026 15:01:19 GMT-0500 (Central Daylight Time),442778.89999997616,A,trai,O,i,132,1,2549.5,440229.39999997616,7801,WL,A,8.0
3,23.693000078201294,learn,36306.999921798706,Mon Jun 08 2026 15:01:19 GMT-0500 (Central Daylight Time),442962.1999999285,A,train,O,n,169,1,2732.7999999523163,440229.39999997616,7801,WL,A,8.0
3,23.943000078201294,learn,36056.999921798706,Mon Jun 08 2026 15:01:19 GMT-0500 (Central Daylight Time),443212.5,A,trainenter,O,enter,227,1,2983.100000023842,440229.39999997616,7801,WL,A,8.0
3,25.024999856948853,learn,34975.00014305115,Mon Jun 08 2026 15:01:19 GMT-0500 (Central Daylight Time),444294.39999997616,A,b,O,b,1064,1,1081.5,443212.89999997616,7801,WL,A,9.0
3,25.240999937057495,learn,34759.000062942505,Mon Jun 08 2026 15:01:19 GMT-0500 (Central Daylight Time),444510.7999999523,A,bu,O,u,203,1,1297.8999999761581,443212.89999997616,7801,WL,A,9.0
3,25.39199995994568,learn,34608.00004005432,Mon Jun 08 2026 15:01:19 GMT-0500 (Central Daylight Time),444661.2999999523,A,but,O,t,144,1,1448.3999999761581,443212.89999997616,7801,WL,A,9.0
3,25.591000080108643,learn,34408.99991989136,Mon Jun 08 2026 15:01:19 GMT-0500 (Central Daylight Time),444860.89999997616,A,butt,O,t,188,1,1648.0,443212.89999997616,7801,WL,A,9.0
3,25.757999897003174,learn,34242.000102996826,Mon Jun 08 2026 15:01:19 GMT-0500 (Central Daylight Time),445027.89999997616,A,butto,O,o,156,1,1815.0,443212.89999997616,7801,WL,A,9.0
3,25.891000032424927,learn,34108.99996757507,Mon Jun 08 2026 15:01:19 GMT-0500 (Central Daylight Time),445160.6999999285,A,button,O,n,109,1,1947.7999999523163,443212.89999997616,7801,WL,A,9.0
3,26.141000032424927,learn,33858.99996757507,Mon Jun 08 2026 15:01:19 GMT-0500 (Central Daylight Time),445410.89999997616,A,buttonenter,O,enter,226,1,2198.0,443212.89999997616,7801,WL,A,9.0
3,29.907000064849854,learn,30092.999935150146,Mon Jun 08 2026 15:01:19 GMT-0500 (Central Daylight Time),449176.6999999285,A,f,O,f,3761,1,3765.5,445411.1999999285,7801,WL,A,10.0
3,30.073999881744385,learn,29926.000118255615,Mon Jun 08 2026 15:01:19 GMT-0500 (Central Daylight Time),449343.60000002384,A,fl,O,l,159,1,3932.4000000953674,445411.1999999285,7801,WL,A,10.0
3,30.289999961853027,learn,29710.000038146973,Mon Jun 08 2026 15:01:19 GMT-0500 (Central Daylight Time),449559.2999999523,A,flo,O,o,204,1,4148.100000023842,445411.1999999285,7801,WL,A,10.0
3,30.389999866485596,learn,29610.000133514404,Mon Jun 08 2026 15:01:19 GMT-0500 (Central Daylight Time),449659.6999999285,A,flow,O,w,83,1,4248.5,445411.1999999285,7801,WL,A,10.0
3,30.490000009536743,learn,29509.999990463257,Mon Jun 08 2026 15:01:19 GMT-0500 (Central Daylight Time),449759.6999999285,A,flowe,O,e,80,1,4348.5,445411.1999999285,7801,WL,A,10.0
3,30.622999906539917,learn,29377.000093460083,Mon Jun 08 2026 15:01:19 GMT-0500 (Central Daylight Time),449892.7999999523,A,flower,O,r,125,1,4481.600000023842,445411.1999999285,7801,WL,A,10.0
3,30.805999994277954,learn,29194.000005722046,Mon Jun 08 2026 15:01:19 GMT-0500 (Central Daylight Time),450075.89999997616,A,flowerenter,O,enter,174,1,4664.700000047684,445411.1999999285,7801,WL,A,10.0
3,34.98900008201599,learn,25010.99991798401,Mon Jun 08 2026 15:01:19 GMT-0500 (Central Daylight Time),454258.10000002384,A,f,O,f,4163,1,4181.900000095367,450076.1999999285,7801,WL,A,11.0
3,35.18899989128113,learn,24811.000108718872,Mon Jun 08 2026 15:01:19 GMT-0500 (Central Daylight Time),454458.10000002384,A,fi,O,i,182,1,4381.900000095367,450076.1999999285,7801,WL,A,11.0
3,35.371999979019165,learn,24628.000020980835,Mon Jun 08 2026 15:01:19 GMT-0500 (Central Daylight Time),454641.2999999523,A,fin,O,n,167,1,4565.100000023842,450076.1999999285,7801,WL,A,11.0
3,35.5220000743866,learn,24477.999925613403,Mon Jun 08 2026 15:01:19 GMT-0500 (Central Daylight Time),454791.5,A,fing,O,g,138,1,4715.300000071526,450076.1999999285,7801,WL,A,11.0
3,35.72199988365173,learn,24278.000116348267,Mon Jun 08 2026 15:01:19 GMT-0500 (Central Daylight Time),454991.5,A,finge,O,e,180,1,4915.300000071526,450076.1999999285,7801,WL,A,11.0
3,35.83800005912781,learn,24161.999940872192,Mon Jun 08 2026 15:01:19 GMT-0500 (Central Daylight Time),455107.60000002384,A,finger,O,r,101,1,5031.400000095367,450076.1999999285,7801,WL,A,11.0
3,36.08800005912781,learn,23911.999940872192,Mon Jun 08 2026 15:01:19 GMT-0500 (Central Daylight Time),455357.89999997616,A,fingerenter,O,enter,239,1,5281.700000047684,450076.1999999285,7801,WL,A,11.0
3,43.918999910354614,learn,16081.000089645386,Mon Jun 08 2026 15:01:19 GMT-0500 (Central Daylight Time),463188.39999997616,A,r,O,r,7815,1,7830.299999952316,455358.10000002384,7801,WL,A,12.0
3,44.11899995803833,learn,15881.00004196167,Mon Jun 08 2026 15:01:19 GMT-0500 (Central Daylight Time),463388.60000002384,A,ra,O,a,183,1,8030.5,455358.10000002384,7801,WL,A,12.0
3,44.35199999809265,learn,15648.000001907349,Mon Jun 08 2026 15:01:19 GMT-0500 (Central Daylight Time),463621.6999999285,A,rat,O,t,221,1,8263.599999904633,455358.10000002384,7801,WL,A,12.0
3,44.51900005340576,learn,15480.999946594238,Mon Jun 08 2026 15:01:19 GMT-0500 (Central Daylight Time),463788.39999997616,A,ratt,O,t,160,1,8430.299999952316,455358.10000002384,7801,WL,A,12.0
3,44.7189998626709,learn,15281.000137329102,Mon Jun 08 2026 15:01:19 GMT-0500 (Central Daylight Time),463988.2999999523,A,rattl,O,l,189,1,8630.199999928474,455358.10000002384,7801,WL,A,12.0
3,44.835999965667725,learn,15164.000034332275,Mon Jun 08 2026 15:01:19 GMT-0500 (Central Daylight Time),464105.5,A,rattle,O,e,92,1,8747.399999976158,455358.10000002384,7801,WL,A,12.0
3,45.003000020980835,learn,14996.999979019165,Mon Jun 08 2026 15:01:19 GMT-0500 (Central Daylight Time),464272.1999999285,A,rattleenter,O,enter,145,1,8914.099999904633,455358.10000002384,7801,WL,A,12.0
3,53.865999937057495,learn,6134.000062942505,Mon Jun 08 2026 15:01:19 GMT-0500 (Central Daylight Time),473135.60000002384,A,m,O,m,8853,1,8863.100000023842,464272.5,7801,WL,A,13.0
3,54.0,learn,6000.0,Mon Jun 08 2026 15:01:19 GMT-0500 (Central Daylight Time),473269.60000002384,A,me,O,e,128,1,8997.100000023842,464272.5,7801,WL,A,13.0
3,54.18300008773804,learn,5816.999912261963,Mon Jun 08 2026 15:01:19 GMT-0500 (Central Daylight Time),473452.2999999523,A,mea,O,a,161,1,9179.799999952316,464272.5,7801,WL,A,13.0
3,54.431999921798706,learn,5568.000078201294,Mon Jun 08 2026 15:01:19 GMT-0500 (Central Daylight Time),473701.39999997616,A,mead,O,d,232,1,9428.899999976158,464272.5,7801,WL,A,13.0
3,54.6489999294281,learn,5351.000070571899,Mon Jun 08 2026 15:01:19 GMT-0500 (Central Daylight Time),473918.89999997616,A,meado,O,o,205,1,9646.399999976158,464272.5,7801,WL,A,13.0
3,54.78200006484985,learn,5217.9999351501465,Mon Jun 08 2026 15:01:19 GMT-0500 (Central Daylight Time),474052.10000002384,A,meadow,O,w,127,1,9779.600000023842,464272.5,7801,WL,A,13.0
3,54.96499991416931,learn,5035.0000858306885,Mon Jun 08 2026 15:01:19 GMT-0500 (Central Daylight Time),474234.60000002384,A,meadowenter,O,enter,158,1,9962.100000023842,464272.5,7801,WL,A,13.0
3,60.01300001144409,learn,-13.000011444091797,Mon Jun 08 2026 15:01:19 GMT-0500 (Central Daylight Time),479283.5,A,None,O,None,5043,1,5048.600000023842,474234.89999997616,7801,WL,A,14.0
4,1.1140000820159912,learn,58885.99991798401,Mon Jun 08 2026 15:01:19 GMT-0500 (Central Daylight Time),545163.0,A,g,O,g,1101,1,1114.3999999761581,544048.6000000238,7801,WL,A,1.0
4,1.2810001373291016,learn,58718.9998626709,Mon Jun 08 2026 15:01:19 GMT-0500 (Central Daylight Time),545329.2999999523,A,go,O,o,154,1,1280.6999999284744,544048.6000000238,7801,WL,A,1.0
4,1.5799999237060547,learn,58420.000076293945,Mon Jun 08 2026 15:01:19 GMT-0500 (Central Daylight Time),545629.0,A,gol,O,l,283,1,1580.3999999761581,544048.6000000238,7801,WL,A,1.0
4,1.7130000591278076,learn,58286.99994087219,Mon Jun 08 2026 15:01:19 GMT-0500 (Central Daylight Time),545762.1000000238,A,gold,O,d,119,1,1713.5,544048.6000000238,7801,WL,A,1.0
4,2.196000099182129,learn,57803.99990081787,Mon Jun 08 2026 15:01:19 GMT-0500 (Central Daylight Time),546245.0,A,goldenter,O,enter,475,1,2196.399999976158,544048.6000000238,7801,WL,A,1.0
4,2.8480000495910645,learn,57151.999950408936,Mon Jun 08 2026 15:01:19 GMT-0500 (Central Daylight Time),546896.3999999762,A,r,O,r,632,1,651.2000000476837,546245.1999999285,7801,WL,A,2.0
4,3.046999931335449,learn,56953.00006866455,Mon Jun 08 2026 15:01:19 GMT-0500 (Central Daylight Time),547095.5,A,ra,O,a,188,1,850.3000000715256,546245.1999999285,7801,WL,A,2.0
4,3.263000011444092,learn,56736.99998855591,Mon Jun 08 2026 15:01:19 GMT-0500 (Central Daylight Time),547312.0,A,rat,O,t,197,1,1066.8000000715256,546245.1999999285,7801,WL,A,2.0
4,3.450000047683716,learn,56549.999952316284,Mon Jun 08 2026 15:01:19 GMT-0500 (Central Daylight Time),547498.6999999285,A,ratt,O,t,165,1,1253.5,546245.1999999285,7801,WL,A,2.0
4,3.763000011444092,learn,56236.99998855591,Mon Jun 08 2026 15:01:19 GMT-0500 (Central Daylight Time),547811.3999999762,A,rattl,O,l,298,1,1566.2000000476837,546245.1999999285,7801,WL,A,2.0
4,3.8980000019073486,learn,56101.99999809265,Mon Jun 08 2026 15:01:19 GMT-0500 (Central Daylight Time),547946.6000000238,A,rattle,O,e,115,1,1701.4000000953674,546245.1999999285,7801,WL,A,2.0
4,4.111999988555908,learn,55888.00001144409,Mon Jun 08 2026 15:01:19 GMT-0500 (Central Daylight Time),548160.8999999762,A,rattleenter,O,enter,202,1,1915.7000000476837,546245.1999999285,7801,WL,A,2.0
4,4.663000106811523,learn,55336.99989318848,Mon Jun 08 2026 15:01:19 GMT-0500 (Central Daylight Time),548711.2999999523,A,r,O,r,540,1,550.1000000238419,548161.1999999285,7801,WL,A,3.0
4,4.828999996185303,learn,55171.0000038147,Mon Jun 08 2026 15:01:19 GMT-0500 (Central Daylight Time),548877.8999999762,A,ru,O,u,157,1,716.7000000476837,548161.1999999285,7801,WL,A,3.0
4,5.17900013923645,learn,54820.99986076355,Mon Jun 08 2026 15:01:19 GMT-0500 (Central Daylight Time),549227.3999999762,A,rug,O,g,334,1,1066.2000000476837,548161.1999999285,7801,WL,A,3.0
4,5.462000131607056,learn,54537.999868392944,Mon Jun 08 2026 15:01:19 GMT-0500 (Central Daylight Time),549510.8999999762,A,rugenter,O,enter,275,1,1349.7000000476837,548161.1999999285,7801,WL,A,3.0
4,7.946000099182129,learn,52053.99990081787,Mon Jun 08 2026 15:01:19 GMT-0500 (Central Daylight Time),551994.5,A,b,O,b,2470,1,2483.3000000715256,549511.1999999285,7801,WL,A,4.0
4,8.161999940872192,learn,51838.00005912781,Mon Jun 08 2026 15:01:19 GMT-0500 (Central Daylight Time),552210.2999999523,A,bo,O,o,202,1,2699.100000023842,549511.1999999285,7801,WL,A,4.0
4,8.328999996185303,learn,51671.0000038147,Mon Jun 08 2026 15:01:19 GMT-0500 (Central Daylight Time),552377.1999999285,A,boo,O,o,154,1,2866.0,549511.1999999285,7801,WL,A,4.0
4,8.579999923706055,learn,51420.000076293945,Mon Jun 08 2026 15:01:19 GMT-0500 (Central Daylight Time),552628.6000000238,A,book,O,k,230,1,3117.4000000953674,549511.1999999285,7801,WL,A,4.0
4,8.910000085830688,learn,51089.99991416931,Mon Jun 08 2026 15:01:19 GMT-0500 (Central Daylight Time),552959.1000000238,A,bookenter,O,enter,319,1,3447.9000000953674,549511.1999999285,7801,WL,A,4.0
4,9.844000101089478,learn,50155.99989891052,Mon Jun 08 2026 15:01:19 GMT-0500 (Central Daylight Time),553893.0,A,t,O,t,925,1,933.6000000238419,552959.3999999762,7801,WL,A,5.0
4,10.111999988555908,learn,49888.00001144409,Mon Jun 08 2026 15:01:19 GMT-0500 (Central Daylight Time),554160.2999999523,A,tr,O,r,245,1,1200.8999999761581,552959.3999999762,7801,WL,A,5.0
4,10.293999910354614,learn,49706.000089645386,Mon Jun 08 2026 15:01:19 GMT-0500 (Central Daylight Time),554342.5,A,tra,O,a,162,1,1383.1000000238419,552959.3999999762,7801,WL,A,5.0
4,10.444999933242798,learn,49555.0000667572,Mon Jun 08 2026 15:01:19 GMT-0500 (Central Daylight Time),554493.6000000238,A,trai,O,i,129,1,1534.2000000476837,552959.3999999762,7801,WL,A,5.0
4,10.644000053405762,learn,49355.99994659424,Mon Jun 08 2026 15:01:19 GMT-0500 (Central Daylight Time),554692.6000000238,A,train,O,n,176,1,1733.2000000476837,552959.3999999762,7801,WL,A,5.0
4,10.827000141143799,learn,49172.9998588562,Mon Jun 08 2026 15:01:19 GMT-0500 (Central Daylight Time),554876.0,A,trainenter,O,enter,175,1,1916.6000000238419,552959.3999999762,7801,WL,A,5.0
4,11.394999980926514,learn,48605.000019073486,Mon Jun 08 2026 15:01:19 GMT-0500 (Central Daylight Time),555443.6999999285,A,k,O,k,554,1,567.5,554876.1999999285,7801,WL,A,6.0
4,11.561000108718872,learn,48438.99989128113,Mon Jun 08 2026 15:01:19 GMT-0500 (Central Daylight Time),555609.2999999523,A,ke,O,e,153,1,733.1000000238419,554876.1999999285,7801,WL,A,6.0
4,11.793999910354614,learn,48206.000089645386,Mon Jun 08 2026 15:01:19 GMT-0500 (Central Daylight Time),555843.1999999285,A,key,O,y,219,1,967.0,554876.1999999285,7801,WL,A,6.0
4,12.110000133514404,learn,47889.999866485596,Mon Jun 08 2026 15:01:19 GMT-0500 (Central Daylight Time),556158.5,A,keyenter,O,enter,296,1,1282.3000000715256,554876.1999999285,7801,WL,A,6.0
4,12.793999910354614,learn,47206.000089645386,Mon Jun 08 2026 15:01:19 GMT-0500 (Central Daylight Time),556842.2999999523,A,l,O,l,671,1,683.5,556158.7999999523,7801,WL,A,7.0
4,12.99399995803833,learn,47006.00004196167,Mon Jun 08 2026 15:01:19 GMT-0500 (Central Daylight Time),557042.6000000238,A,lo,O,o,187,1,883.8000000715256,556158.7999999523,7801,WL,A,7.0
4,13.177000045776367,learn,46822.99995422363,Mon Jun 08 2026 15:01:19 GMT-0500 (Central Daylight Time),557225.8999999762,A,log,O,g,170,1,1067.1000000238419,556158.7999999523,7801,WL,A,7.0
4,13.559999942779541,learn,46440.00005722046,Mon Jun 08 2026 15:01:19 GMT-0500 (Central Daylight Time),557608.2999999523,A,logenter,O,enter,362,1,1449.5,556158.7999999523,7801,WL,A,7.0
4,16.825000047683716,learn,43174.999952316284,Mon Jun 08 2026 15:01:19 GMT-0500 (Central Daylight Time),560874.0,A,h,O,h,3253,1,3265.5,557608.5,7801,WL,A,8.0
4,16.975000143051147,learn,43024.99985694885,Mon Jun 08 2026 15:01:19 GMT-0500 (Central Daylight Time),561023.8999999762,A,ha,O,a,128,1,3415.399999976158,557608.5,7801,WL,A,8.0
4,17.174999952316284,learn,42825.000047683716,Mon Jun 08 2026 15:01:19 GMT-0500 (Central Daylight Time),561223.8999999762,A,har,O,r,187,1,3615.399999976158,557608.5,7801,WL,A,8.0
4,17.358999967575073,learn,42641.00003242493,Mon Jun 08 2026 15:01:19 GMT-0500 (Central Daylight Time),561407.1999999285,A,harp,O,p,162,1,3798.6999999284744,557608.5,7801,WL,A,8.0
4,17.77500009536743,learn,42224.99990463257,Mon Jun 08 2026 15:01:19 GMT-0500 (Central Daylight Time),561823.6000000238,A,harpenter,O,enter,393,1,4215.100000023842,557608.5,7801,WL,A,8.0
4,18.70799994468689,learn,41292.00005531311,Mon Jun 08 2026 15:01:19 GMT-0500 (Central Daylight Time),562757.1999999285,A,f,O,f,926,1,933.2999999523163,561823.8999999762,7801,WL,A,9.0
4,18.891000032424927,learn,41108.99996757507,Mon Jun 08 2026 15:01:19 GMT-0500 (Central Daylight Time),562939.8999999762,A,fi,O,i,166,1,1116.0,561823.8999999762,7801,WL,A,9.0
4,19.075000047683716,learn,40924.999952316284,Mon Jun 08 2026 15:01:19 GMT-0500 (Central Daylight Time),563123.6000000238,A,fin,O,n,161,1,1299.7000000476837,561823.8999999762,7801,WL,A,9.0
4,19.242000102996826,learn,40757.999897003174,Mon Jun 08 2026 15:01:19 GMT-0500 (Central Daylight Time),563290.6999999285,A,fing,O,g,150,1,1466.7999999523163,561823.8999999762,7801,WL,A,9.0
4,19.45799994468689,learn,40542.00005531311,Mon Jun 08 2026 15:01:19 GMT-0500 (Central Daylight Time),563506.5,A,finge,O,e,201,1,1682.6000000238419,561823.8999999762,7801,WL,A,9.0
4,19.558000087738037,learn,40441.99991226196,Mon Jun 08 2026 15:01:19 GMT-0500 (Central Daylight Time),563606.5,A,finger,O,r,89,1,1782.6000000238419,561823.8999999762,7801,WL,A,9.0
4,19.824000120162964,learn,40175.999879837036,Mon Jun 08 2026 15:01:19 GMT-0500 (Central Daylight Time),563872.8999999762,A,fingerenter,O,enter,255,1,2049.0,561823.8999999762,7801,WL,A,9.0
4,21.29100012779236,learn,38708.99987220764,Mon Jun 08 2026 15:01:19 GMT-0500 (Central Daylight Time),565339.8999999762,A,b,O,b,1447,1,1466.7999999523163,563873.1000000238,7801,WL,A,10.0
4,21.492000102996826,learn,38507.999897003174,Mon Jun 08 2026 15:01:19 GMT-0500 (Central Daylight Time),565540.2999999523,A,bu,O,u,176,1,1667.1999999284744,563873.1000000238,7801,WL,A,10.0
4,21.640000104904175,learn,38359.999895095825,Mon Jun 08 2026 15:01:19 GMT-0500 (Central Daylight Time),565688.8999999762,A,but,O,t,134,1,1815.7999999523163,563873.1000000238,7801,WL,A,10.0
4,21.825999975204468,learn,38174.00002479553,Mon Jun 08 2026 15:01:19 GMT-0500 (Central Daylight Time),565874.5,A,butt,O,t,161,1,2001.3999999761581,563873.1000000238,7801,WL,A,10.0
4,22.006999969482422,learn,37993.00003051758,Mon Jun 08 2026 15:01:19 GMT-0500 (Central Daylight Time),566055.6000000238,A,butto,O,o,168,1,2182.5,563873.1000000238,7801,WL,A,10.0
4,22.17300009727478,learn,37826.99990272522,Mon Jun 08 2026 15:01:19 GMT-0500 (Central Daylight Time),566222.1999999285,A,button,O,n,149,1,2349.0999999046326,563873.1000000238,7801,WL,A,10.0
4,22.772000074386597,learn,37227.9999256134,Mon Jun 08 2026 15:01:19 GMT-0500 (Central Daylight Time),566820.8999999762,A,buttonenter,O,enter,586,1,2947.7999999523163,563873.1000000238,7801,WL,A,10.0
4,26.539000034332275,learn,33460.999965667725,Mon Jun 08 2026 15:01:19 GMT-0500 (Central Daylight Time),570587.5,A,m,O,m,3747,1,3766.399999976158,566821.1000000238,7801,WL,A,11.0
4,26.67300009727478,learn,33326.99990272522,Mon Jun 08 2026 15:01:19 GMT-0500 (Central Daylight Time),570721.6000000238,A,me,O,e,120,1,3900.5,566821.1000000238,7801,WL,A,11.0
4,26.83899998664856,learn,33161.00001335144,Mon Jun 08 2026 15:01:19 GMT-0500 (Central Daylight Time),570888.1999999285,A,mea,O,a,152,1,4067.0999999046326,566821.1000000238,7801,WL,A,11.0
4,27.121999979019165,learn,32878.000020980835,Mon Jun 08 2026 15:01:19 GMT-0500 (Central Daylight Time),571170.1999999285,A,mead,O,d,266,1,4349.099999904633,566821.1000000238,7801,WL,A,11.0
4,27.439000129699707,learn,32560.999870300293,Mon Jun 08 2026 15:01:19 GMT-0500 (Central Daylight Time),571487.1999999285,A,meado,O,o,297,1,4666.099999904633,566821.1000000238,7801,WL,A,11.0
4,27.555000066757202,learn,32444.999933242798,Mon Jun 08 2026 15:01:19 GMT-0500 (Central Daylight Time),571604.0,A,meadow,O,w,100,1,4782.899999976158,566821.1000000238,7801,WL,A,11.0
4,27.786999940872192,learn,32213.000059127808,Mon Jun 08 2026 15:01:19 GMT-0500 (Central Daylight Time),571836.0,A,meadowenter,O,enter,221,1,5014.899999976158,566821.1000000238,7801,WL,A,11.0
4,30.73799991607666,learn,29262.00008392334,Mon Jun 08 2026 15:01:19 GMT-0500 (Central Daylight Time),574786.5,A,l,O,l,2937,1,2950.3000000715256,571836.1999999285,7801,WL,A,12.0
4,30.953999996185303,learn,29046.000003814697,Mon Jun 08 2026 15:01:19 GMT-0500 (Central Daylight Time),575003.0,A,lo,O,o,199,1,3166.8000000715256,571836.1999999285,7801,WL,A,12.0
4,31.088000059127808,learn,28911.999940872192,Mon Jun 08 2026 15:01:19 GMT-0500 (Central Daylight Time),575137.0,A,log,O,g,118,1,3300.8000000715256,571836.1999999285,7801,WL,A,12.0
4,31.236999988555908,learn,28763.00001144409,Mon Jun 08 2026 15:01:19 GMT-0500 (Central Daylight Time),575286.0,A,logenter,O,enter,139,1,3449.8000000715256,571836.1999999285,7801,WL,A,12.0
4,38.21900010108948,learn,21780.999898910522,Mon Jun 08 2026 15:01:19 GMT-0500 (Central Daylight Time),582268.0,A,f,O,f,6967,1,6981.700000047684,575286.2999999523,7801,WL,A,13.0
4,38.401999950408936,learn,21598.000049591064,Mon Jun 08 2026 15:01:19 GMT-0500 (Central Daylight Time),582450.2999999523,A,fi,O,i,160,1,7164.0,575286.2999999523,7801,WL,A,13.0
4,38.551000118255615,learn,21448.999881744385,Mon Jun 08 2026 15:01:19 GMT-0500 (Central Daylight Time),582600.1000000238,A,fin,O,n,129,1,7313.800000071526,575286.2999999523,7801,WL,A,13.0
4,38.68600010871887,learn,21313.999891281128,Mon Jun 08 2026 15:01:19 GMT-0500 (Central Daylight Time),582734.3999999762,A,fing,O,g,113,1,7448.100000023842,575286.2999999523,7801,WL,A,13.0
4,38.901000022888184,learn,21098.999977111816,Mon Jun 08 2026 15:01:19 GMT-0500 (Central Daylight Time),582950.1999999285,A,finge,O,e,194,1,7663.899999976158,575286.2999999523,7801,WL,A,13.0
4,39.00099992752075,learn,20999.000072479248,Mon Jun 08 2026 15:01:19 GMT-0500 (Central Daylight Time),583050.0,A,finger,O,r,85,1,7763.700000047684,575286.2999999523,7801,WL,A,13.0
4,39.16799998283386,learn,20832.000017166138,Mon Jun 08 2026 15:01:19 GMT-0500 (Central Daylight Time),583216.7999999523,A,fingerenter,O,enter,152,1,7930.5,575286.2999999523,7801,WL,A,13.0
4,47.61500000953674,learn,12384.999990463257,Mon Jun 08 2026 15:01:19 GMT-0500 (Central Daylight Time),591664.0,A,t,O,t,8428,1,8447.0,583217.0,7801,WL,A,14.0
4,47.88199996948242,learn,12118.000030517578,Mon Jun 08 2026 15:01:19 GMT-0500 (Central Daylight Time),591931.1000000238,A,tr,O,r,252,1,8714.100000023842,583217.0,7801,WL,A,14.0
4,48.098999977111816,learn,11901.000022888184,Mon Jun 08 2026 15:01:19 GMT-0500 (Central Daylight Time),592147.2999999523,A,tra,O,a,200,1,8930.299999952316,583217.0,7801,WL,A,14.0
4,48.26600003242493,learn,11733.999967575073,Mon Jun 08 2026 15:01:19 GMT-0500 (Central Daylight Time),592314.6999999285,A,trai,O,i,145,1,9097.699999928474,583217.0,7801,WL,A,14.0
4,48.431999921798706,learn,11568.000078201294,Mon Jun 08 2026 15:01:19 GMT-0500 (Central Daylight Time),592480.1999999285,A,train,O,n,152,1,9263.199999928474,583217.0,7801,WL,A,14.0
4,48.681999921798706,learn,11318.000078201294,Mon Jun 08 2026 15:01:19 GMT-0500 (Central Daylight Time),592730.6999999285,A,trainenter,O,enter,238,1,9513.699999928474,583217.0,7801,WL,A,14.0
4,60.01099991798401,learn,-10.999917984008789,Mon Jun 08 2026 15:01:19 GMT-0500 (Central Daylight Time),604060.6000000238,A,None,O,None,11324,1,11329.600000023842,592731.0,7801,WL,A,15.0
5,1.569000005722046,learn,60000.0,Mon Jun 08 2026 15:01:19 GMT-0500 (Central Daylight Time),670459.2999999523,A,b,O,b,1546,1,1568.7999999523163,668890.5,7801,WL,A,1.0
5,1.75,learn,60000.0,Mon Jun 08 2026 15:01:19 GMT-0500 (Central Daylight Time),670640.0,A,bo,O,o,160,1,1749.5,668890.5,7801,WL,A,1.0
5,1.934000015258789,learn,60000.0,Mon Jun 08 2026 15:01:19 GMT-0500 (Central Daylight Time),670823.7999999523,A,boo,O,o,163,1,1933.2999999523163,668890.5,7801,WL,A,1.0
5,2.183000087738037,learn,60000.0,Mon Jun 08 2026 15:01:19 GMT-0500 (Central Daylight Time),671072.5,A,book,O,k,228,1,2182.0,668890.5,7801,WL,A,1.0
5,3.1500000953674316,learn,60000.0,Mon Jun 08 2026 15:01:19 GMT-0500 (Central Daylight Time),672039.7999999523,A,bookt,O,t,956,1,3149.2999999523163,668890.5,7801,WL,A,1.0
5,3.365000009536743,learn,60000.0,Mon Jun 08 2026 15:01:19 GMT-0500 (Central Daylight Time),672254.8999999762,A,booktr,O,r,205,1,3364.399999976158,668890.5,7801,WL,A,1.0
5,3.567000150680542,learn,60000.0,Mon Jun 08 2026 15:01:19 GMT-0500 (Central Daylight Time),672456.3999999762,A,booktra,O,a,189,1,3565.899999976158,668890.5,7801,WL,A,1.0
5,3.7320001125335693,learn,60000.0,Mon Jun 08 2026 15:01:19 GMT-0500 (Central Daylight Time),672621.3999999762,A,booktrai,O,i,157,1,3730.899999976158,668890.5,7801,WL,A,1.0
5,4.148999929428101,learn,60000.0,Mon Jun 08 2026 15:01:19 GMT-0500 (Central Daylight Time),673038.7999999523,A,booktra,O,backspace,397,1,4148.299999952316,668890.5,7801,WL,A,1.0
5,4.332000017166138,learn,60000.0,Mon Jun 08 2026 15:01:19 GMT-0500 (Central Daylight Time),673222.1999999285,A,booktr,O,backspace,164,1,4331.699999928474,668890.5,7801,WL,A,1.0
5,4.516000032424927,learn,60000.0,Mon Jun 08 2026 15:01:19 GMT-0500 (Central Daylight Time),673405.6000000238,A,bookt,O,backspace,174,1,4515.100000023842,668890.5,7801,WL,A,1.0
5,4.732000112533569,learn,60000.0,Mon Jun 08 2026 15:01:19 GMT-0500 (Central Daylight Time),673621.6000000238,A,book,O,backspace,206,1,4731.100000023842,668890.5,7801,WL,A,1.0
5,5.281000137329102,learn,60000.0,Mon Jun 08 2026 15:01:19 GMT-0500 (Central Daylight Time),674171.1000000238,A,bookenter,O,enter,534,1,5280.600000023842,668890.5,7801,WL,A,1.0
5,6.016000032424927,learn,60000.0,Mon Jun 08 2026 15:01:19 GMT-0500 (Central Daylight Time),674906.1999999285,A,t,O,t,723,1,734.7999999523163,674171.3999999762,7801,WL,A,2.0
5,6.265000104904175,learn,60000.0,Mon Jun 08 2026 15:01:19 GMT-0500 (Central Daylight Time),675154.5,A,tr,O,r,232,1,983.1000000238419,674171.3999999762,7801,WL,A,2.0
5,6.466000080108643,learn,60000.0,Mon Jun 08 2026 15:01:19 GMT-0500 (Central Daylight Time),675355.5,A,tra,O,a,181,1,1184.1000000238419,674171.3999999762,7801,WL,A,2.0
5,6.565000057220459,learn,60000.0,Mon Jun 08 2026 15:01:19 GMT-0500 (Central Daylight Time),675454.5,A,trai,O,i,90,1,1283.1000000238419,674171.3999999762,7801,WL,A,2.0
5,6.765000104904175,learn,60000.0,Mon Jun 08 2026 15:01:19 GMT-0500 (Central Daylight Time),675654.7999999523,A,train,O,n,181,1,1483.3999999761581,674171.3999999762,7801,WL,A,2.0
5,7.015000104904175,learn,60000.0,Mon Jun 08 2026 15:01:19 GMT-0500 (Central Daylight Time),675904.5,A,trainenter,O,enter,236,1,1733.1000000238419,674171.3999999762,7801,WL,A,2.0
5,9.499000072479248,learn,60000.0,Mon Jun 08 2026 15:01:19 GMT-0500 (Central Daylight Time),678389.2999999523,A,r,O,r,2480,1,2484.600000023842,675904.6999999285,7801,WL,A,3.0
5,9.69700002670288,learn,60000.0,Mon Jun 08 2026 15:01:19 GMT-0500 (Central Daylight Time),678586.6999999285,A,ra,O,a,190,1,2682.0,675904.6999999285,7801,WL,A,3.0
5,9.880000114440918,learn,60000.0,Mon Jun 08 2026 15:01:19 GMT-0500 (Central Daylight Time),678769.7999999523,A,rat,O,t,172,1,2865.100000023842,675904.6999999285,7801,WL,A,3.0
5,10.064000129699707,learn,60000.0,Mon Jun 08 2026 15:01:19 GMT-0500 (Central Daylight Time),678954.2999999523,A,ratt,O,t,163,1,3049.600000023842,675904.6999999285,7801,WL,A,3.0
5,10.646000146865845,learn,60000.0,Mon Jun 08 2026 15:01:19 GMT-0500 (Central Daylight Time),679535.6999999285,A,rattl,O,l,561,1,3631.0,675904.6999999285,7801,WL,A,3.0
5,10.77999997138977,learn,60000.0,Mon Jun 08 2026 15:01:19 GMT-0500 (Central Daylight Time),679670.3999999762,A,rattle,O,e,114,1,3765.7000000476837,675904.6999999285,7801,WL,A,3.0
5,11.996000051498413,learn,60000.0,Mon Jun 08 2026 15:01:19 GMT-0500 (Central Daylight Time),680885.7999999523,A,rattleenter,O,enter,1203,1,4981.100000023842,675904.6999999285,7801,WL,A,3.0
5,12.595999956130981,learn,60000.0,Mon Jun 08 2026 15:01:19 GMT-0500 (Central Daylight Time),681485.3999999762,A,l,O,l,584,1,599.3999999761581,680886.0,7801,WL,A,4.0
5,12.848999977111816,learn,60000.0,Mon Jun 08 2026 15:01:19 GMT-0500 (Central Daylight Time),681738.3999999762,A,lo,O,o,232,1,852.3999999761581,680886.0,7801,WL,A,4.0
5,13.062000036239624,learn,60000.0,Mon Jun 08 2026 15:01:19 GMT-0500 (Central Daylight Time),681952.2999999523,A,log,O,g,192,1,1066.2999999523163,680886.0,7801,WL,A,4.0
5,13.411999940872192,learn,60000.0,Mon Jun 08 2026 15:01:19 GMT-0500 (Central Daylight Time),682301.8999999762,A,logenter,O,enter,330,1,1415.8999999761581,680886.0,7801,WL,A,4.0
5,14.245000123977661,learn,60000.0,Mon Jun 08 2026 15:01:19 GMT-0500 (Central Daylight Time),683134.3999999762,A,a,O,a,822,1,832.2000000476837,682302.1999999285,7801,WL,A,5.0
5,14.396000146865845,learn,60000.0,Mon Jun 08 2026 15:01:19 GMT-0500 (Central Daylight Time),683285.5,A,ap,O,p,136,1,983.3000000715256,682302.1999999285,7801,WL,A,5.0
5,14.579999923706055,learn,60000.0,Mon Jun 08 2026 15:01:19 GMT-0500 (Central Daylight Time),683469.6000000238,A,app,O,p,164,1,1167.4000000953674,682302.1999999285,7801,WL,A,5.0
5,14.812000036239624,learn,60000.0,Mon Jun 08 2026 15:01:19 GMT-0500 (Central Daylight Time),683701.5,A,appl,O,l,212,1,1399.3000000715256,682302.1999999285,7801,WL,A,5.0
5,14.944999933242798,learn,60000.0,Mon Jun 08 2026 15:01:19 GMT-0500 (Central Daylight Time),683835.1999999285,A,apple,O,e,116,1,1533.0,682302.1999999285,7801,WL,A,5.0
5,15.278000116348267,learn,60000.0,Mon Jun 08 2026 15:01:19 GMT-0500 (Central Daylight Time),684167.8999999762,A,appleenter,O,enter,318,1,1865.7000000476837,682302.1999999285,7801,WL,A,5.0
5,17.34500002861023,learn,60000.0,Mon Jun 08 2026 15:01:19 GMT-0500 (Central Daylight Time),686235.1000000238,A,g,O,g,2047,1,2067.0,684168.1000000238,7801,WL,A,6.0
5,17.49500012397766,learn,60000.0,Mon Jun 08 2026 15:01:19 GMT-0500 (Central Daylight Time),686384.8999999762,A,go,O,o,130,1,2216.7999999523163,684168.1000000238,7801,WL,A,6.0
5,17.74500012397766,learn,60000.0,Mon Jun 08 2026 15:01:19 GMT-0500 (Central Daylight Time),686634.5,A,gol,O,l,226,1,2466.399999976158,684168.1000000238,7801,WL,A,6.0
5,17.861999988555908,learn,60000.0,Mon Jun 08 2026 15:01:19 GMT-0500 (Central Daylight Time),686752.0,A,gold,O,d,103,1,2583.899999976158,684168.1000000238,7801,WL,A,6.0
5,18.044000148773193,learn,60000.0,Mon Jun 08 2026 15:01:19 GMT-0500 (Central Daylight Time),686934.1000000238,A,goldenter,O,enter,165,1,2766.0,684168.1000000238,7801,WL,A,6.0
5,19.3270001411438,learn,60000.0,Mon Jun 08 2026 15:01:19 GMT-0500 (Central Daylight Time),688217.2999999523,A,h,O,h,1264,1,1283.0,686934.2999999523,7801,WL,A,7.0
5,19.4760000705719,learn,60000.0,Mon Jun 08 2026 15:01:19 GMT-0500 (Central Daylight Time),688366.3999999762,A,ha,O,a,136,1,1432.1000000238419,686934.2999999523,7801,WL,A,7.0
5,19.710000038146973,learn,60000.0,Mon Jun 08 2026 15:01:19 GMT-0500 (Central Daylight Time),688599.8999999762,A,har,O,r,221,1,1665.6000000238419,686934.2999999523,7801,WL,A,7.0
5,19.960999965667725,learn,60000.0,Mon Jun 08 2026 15:01:19 GMT-0500 (Central Daylight Time),688850.6000000238,A,harp,O,p,230,1,1916.3000000715256,686934.2999999523,7801,WL,A,7.0
5,20.276000022888184,learn,60000.0,Mon Jun 08 2026 15:01:19 GMT-0500 (Central Daylight Time),689166.3999999762,A,harpenter,O,enter,306,1,2232.100000023842,686934.2999999523,7801,WL,A,7.0
5,21.14400005340576,learn,60000.0,Mon Jun 08 2026 15:01:19 GMT-0500 (Central Daylight Time),690033.3999999762,A,c,O,c,855,1,866.7999999523163,689166.6000000238,7801,WL,A,8.0
5,21.292999982833862,learn,60000.0,Mon Jun 08 2026 15:01:19 GMT-0500 (Central Daylight Time),690182.7999999523,A,ch,O,h,132,1,1016.1999999284744,689166.6000000238,7801,WL,A,8.0
5,21.509000062942505,learn,60000.0,Mon Jun 08 2026 15:01:19 GMT-0500 (Central Daylight Time),690399.3999999762,A,chi,O,i,194,1,1232.7999999523163,689166.6000000238,7801,WL,A,8.0
5,21.8270001411438,learn,60000.0,Mon Jun 08 2026 15:01:19 GMT-0500 (Central Daylight Time),690716.3999999762,A,chim,O,m,299,1,1549.7999999523163,689166.6000000238,7801,WL,A,8.0
5,22.2260000705719,learn,60000.0,Mon Jun 08 2026 15:01:19 GMT-0500 (Central Daylight Time),691116.2999999523,A,chimn,O,n,382,1,1949.6999999284744,689166.6000000238,7801,WL,A,8.0
5,22.41000008583069,learn,60000.0,Mon Jun 08 2026 15:01:19 GMT-0500 (Central Daylight Time),691299.7999999523,A,chimne,O,e,163,1,2133.1999999284744,689166.6000000238,7801,WL,A,8.0
5,22.610000133514404,learn,60000.0,Mon Jun 08 2026 15:01:19 GMT-0500 (Central Daylight Time),691499.7999999523,A,chimney,O,y,177,1,2333.1999999284744,689166.6000000238,7801,WL,A,8.0
5,22.943000078201294,learn,60000.0,Mon Jun 08 2026 15:01:19 GMT-0500 (Central Daylight Time),691832.7999999523,A,chimneyenter,O,enter,321,1,2666.1999999284744,689166.6000000238,7801,WL,A,8.0
5,25.608999967575073,learn,60000.0,Mon Jun 08 2026 15:01:19 GMT-0500 (Central Daylight Time),694498.6000000238,A,m,O,m,2645,1,2665.600000023842,691833.0,7801,WL,A,9.0
5,25.759999990463257,learn,60000.0,Mon Jun 08 2026 15:01:19 GMT-0500 (Central Daylight Time),694650.0,A,me,O,e,131,1,2817.0,691833.0,7801,WL,A,9.0
5,26.05900001525879,learn,60000.0,Mon Jun 08 2026 15:01:19 GMT-0500 (Central Daylight Time),694949.1999999285,A,mea,O,a,279,1,3116.1999999284744,691833.0,7801,WL,A,9.0
5,26.377000093460083,learn,60000.0,Mon Jun 08 2026 15:01:19 GMT-0500 (Central Daylight Time),695266.6000000238,A,mead,O,d,299,1,3433.600000023842,691833.0,7801,WL,A,9.0
5,26.641000032424927,learn,60000.0,Mon Jun 08 2026 15:01:19 GMT-0500 (Central Daylight Time),695531.3999999762,A,meado,O,o,249,1,3698.399999976158,691833.0,7801,WL,A,9.0
5,26.7739999294281,learn,60000.0,Mon Jun 08 2026 15:01:19 GMT-0500 (Central Daylight Time),695664.3999999762,A,meadow,O,w,119,1,3831.399999976158,691833.0,7801,WL,A,9.0
5,27.10800004005432,learn,60000.0,Mon Jun 08 2026 15:01:19 GMT-0500 (Central Daylight Time),695998.1000000238,A,meadowenter,O,enter,323,1,4165.100000023842,691833.0,7801,WL,A,9.0
5,29.140000104904175,learn,60000.0,Mon Jun 08 2026 15:01:19 GMT-0500 (Central Daylight Time),698029.7999999523,A,k,O,k,2014,1,2031.3999999761581,695998.3999999762,7801,WL,A,10.0
5,29.27500009536743,learn,60000.0,Mon Jun 08 2026 15:01:19 GMT-0500 (Central Daylight Time),698164.6000000238,A,ke,O,e,112,1,2166.2000000476837,695998.3999999762,7801,WL,A,10.0
5,30.091000080108643,learn,60000.0,Mon Jun 08 2026 15:01:19 GMT-0500 (Central Daylight Time),698980.8999999762,A,key,O,y,809,1,2982.5,695998.3999999762,7801,WL,A,10.0
5,30.640000104904175,learn,60000.0,Mon Jun 08 2026 15:01:19 GMT-0500 (Central Daylight Time),699529.6999999285,A,keyenter,O,enter,534,1,3531.2999999523163,695998.3999999762,7801,WL,A,10.0
5,34.621999979019165,learn,60000.0,Mon Jun 08 2026 15:01:19 GMT-0500 (Central Daylight Time),703512.2999999523,A,m,O,m,3962,1,3982.2999999523163,699530.0,7801,WL,A,11.0
5,34.8050000667572,learn,60000.0,Mon Jun 08 2026 15:01:19 GMT-0500 (Central Daylight Time),703694.6999999285,A,me,O,e,165,1,4164.699999928474,699530.0,7801,WL,A,11.0
5,34.99000000953674,learn,60000.0,Mon Jun 08 2026 15:01:19 GMT-0500 (Central Daylight Time),703879.8999999762,A,mea,O,a,171,1,4349.899999976158,699530.0,7801,WL,A,11.0
5,35.240999937057495,learn,60000.0,Mon Jun 08 2026 15:01:19 GMT-0500 (Central Daylight Time),704130.6000000238,A,mead,O,d,227,1,4600.600000023842,699530.0,7801,WL,A,11.0
5,35.53999996185303,learn,60000.0,Mon Jun 08 2026 15:01:19 GMT-0500 (Central Daylight Time),704429.6999999285,A,meado,O,o,277,1,4899.699999928474,699530.0,7801,WL,A,11.0
5,35.65499997138977,learn,60000.0,Mon Jun 08 2026 15:01:19 GMT-0500 (Central Daylight Time),704545.1999999285,A,meadow,O,w,104,1,5015.199999928474,699530.0,7801,WL,A,11.0
5,36.121999979019165,learn,60000.0,Mon Jun 08 2026 15:01:19 GMT-0500 (Central Daylight Time),705012.2999999523,A,meadowenter,O,enter,450,1,5482.299999952316,699530.0,7801,WL,A,11.0
5,40.22099995613098,learn,60000.0,Mon Jun 08 2026 15:01:19 GMT-0500 (Central Daylight Time),709111.1999999285,A,k,O,k,4081,1,4098.599999904633,705012.6000000238,7801,WL,A,12.0
5,40.55299997329712,learn,60000.0,Mon Jun 08 2026 15:01:19 GMT-0500 (Central Daylight Time),709443.1999999285,A,ke,O,e,309,1,4430.599999904633,705012.6000000238,7801,WL,A,12.0
5,40.72099995613098,learn,60000.0,Mon Jun 08 2026 15:01:19 GMT-0500 (Central Daylight Time),709610.6999999285,A,key,O,y,144,1,4598.099999904633,705012.6000000238,7801,WL,A,12.0
5,41.003000020980835,learn,60000.0,Mon Jun 08 2026 15:01:19 GMT-0500 (Central Daylight Time),709893.2999999523,A,keyenter,O,enter,264,1,4880.699999928474,705012.6000000238,7801,WL,A,12.0
5,45.36899995803833,learn,60000.0,Mon Jun 08 2026 15:01:19 GMT-0500 (Central Daylight Time),714258.7999999523,A,g,O,g,4347,1,4365.199999928474,709893.6000000238,7801,WL,A,13.0
5,45.50200009346008,learn,60000.0,Mon Jun 08 2026 15:01:19 GMT-0500 (Central Daylight Time),714391.5,A,go,O,o,117,1,4497.899999976158,709893.6000000238,7801,WL,A,13.0
5,45.76900005340576,learn,60000.0,Mon Jun 08 2026 15:01:19 GMT-0500 (Central Daylight Time),714659.0,A,gol,O,l,249,1,4765.399999976158,709893.6000000238,7801,WL,A,13.0
5,45.901000022888184,learn,60000.0,Mon Jun 08 2026 15:01:19 GMT-0500 (Central Daylight Time),714790.6000000238,A,gold,O,d,112,1,4897.0,709893.6000000238,7801,WL,A,13.0
5,46.03500008583069,learn,60000.0,Mon Jun 08 2026 15:01:19 GMT-0500 (Central Daylight Time),714924.7999999523,A,goldenter,O,enter,119,1,5031.199999928474,709893.6000000238,7801,WL,A,13.0
5,58.498000144958496,learn,60000.0,Mon Jun 08 2026 15:01:19 GMT-0500 (Central Daylight Time),727388.6000000238,A,s,O,s,12448,1,12463.600000023842,714925.0,7801,WL,A,14.0
5,58.71300005912781,learn,60000.0,Mon Jun 08 2026 15:01:19 GMT-0500 (Central Daylight Time),727603.6999999285,A,sa,O,a,201,1,12678.699999928474,714925.0,7801,WL,A,14.0
5,58.9300000667572,learn,60000.0,Mon Jun 08 2026 15:01:19 GMT-0500 (Central Daylight Time),727821.2999999523,A,sal,O,l,200,1,12896.299999952316,714925.0,7801,WL,A,14.0
5,59.079999923706055,learn,60000.0,Mon Jun 08 2026 15:01:19 GMT-0500 (Central Daylight Time),727970.8999999762,A,salt,O,t,135,1,13045.899999976158,714925.0,7801,WL,A,14.0
5,59.34599995613098,learn,60000.0,Mon Jun 08 2026 15:01:19 GMT-0500 (Central Daylight Time),728237.1000000238,A,saltenter,O,enter,255,1,13312.100000023842,714925.0,7801,WL,A,14.0
5,77.44099998474121,learn,60000.0,Mon Jun 08 2026 15:01:19 GMT-0500 (Central Daylight Time),746332.1000000238,A,k,O,k,18080,1,18094.700000047684,728237.3999999762,7801,WL,A,15.0
6,1.1180000305175781,distr,58881.99996948242,Mon Jun 08 2026 15:01:19 GMT-0500 (Central Daylight Time),813427.6999999285,B,s,O,s,1094,1,1117.0999999046326,812310.6000000238,7801,WL,A,1.0
6,1.383000135421753,distr,58616.99986457825,Mon Jun 08 2026 15:01:19 GMT-0500 (Central Daylight Time),813693.5,B,se,O,e,254,1,1382.8999999761581,812310.6000000238,7801,WL,A,1.0
6,1.5829999446868896,distr,58417.00005531311,Mon Jun 08 2026 15:01:19 GMT-0500 (Central Daylight Time),813893.1000000238,B,see,O,e,187,1,1582.5,812310.6000000238,7801,WL,A,1.0
6,2.1500000953674316,distr,57849.99990463257,Mon Jun 08 2026 15:01:19 GMT-0500 (Central Daylight Time),814460.3999999762,B,seed,O,d,549,1,2149.7999999523163,812310.6000000238,7801,WL,A,1.0
6,2.433000087738037,distr,57566.99991226196,Mon Jun 08 2026 15:01:19 GMT-0500 (Central Daylight Time),814743.0,B,seedenter,O,enter,259,1,2432.399999976158,812310.6000000238,7801,WL,A,1.0
6,3.049999952316284,distr,56950.000047683716,Mon Jun 08 2026 15:01:19 GMT-0500 (Central Daylight Time),815360.2999999523,B,s,O,s,606,1,617.1000000238419,814743.1999999285,7801,WL,A,2.0
6,3.199000120162964,distr,56800.999879837036,Mon Jun 08 2026 15:01:19 GMT-0500 (Central Daylight Time),815509.5,B,sh,O,h,130,1,766.3000000715256,814743.1999999285,7801,WL,A,2.0
6,3.433000087738037,distr,56566.99991226196,Mon Jun 08 2026 15:01:19 GMT-0500 (Central Daylight Time),815743.0,B,she,O,e,212,1,999.8000000715256,814743.1999999285,7801,WL,A,2.0
6,3.634000062942505,distr,56365.999937057495,Mon Jun 08 2026 15:01:19 GMT-0500 (Central Daylight Time),815943.6000000238,B,shee,O,e,190,1,1200.4000000953674,814743.1999999285,7801,WL,A,2.0
6,3.8329999446868896,distr,56167.00005531311,Mon Jun 08 2026 15:01:19 GMT-0500 (Central Daylight Time),816142.7999999523,B,sheep,O,p,180,1,1399.6000000238419,814743.1999999285,7801,WL,A,2.0
6,4.166000127792358,distr,55833.99987220764,Mon Jun 08 2026 15:01:19 GMT-0500 (Central Daylight Time),816475.6000000238,B,sheepenter,O,enter,317,1,1732.4000000953674,814743.1999999285,7801,WL,A,2.0
6,5.732000112533569,distr,54267.99988746643,Mon Jun 08 2026 15:01:19 GMT-0500 (Central Daylight Time),818041.8999999762,B,j,O,j,1553,1,1566.0,816475.8999999762,7801,WL,A,3.0
6,5.982000112533569,distr,54017.99988746643,Mon Jun 08 2026 15:01:19 GMT-0500 (Central Daylight Time),818291.7999999523,B,ju,O,u,238,1,1815.8999999761581,816475.8999999762,7801,WL,A,3.0
6,6.14900016784668,distr,53850.99983215332,Mon Jun 08 2026 15:01:19 GMT-0500 (Central Daylight Time),818459.0,B,jud,O,d,146,1,1983.1000000238419,816475.8999999762,7801,WL,A,3.0
6,6.315000057220459,distr,53684.99994277954,Mon Jun 08 2026 15:01:19 GMT-0500 (Central Daylight Time),818625.5,B,judg,O,g,151,1,2149.600000023842,816475.8999999762,7801,WL,A,3.0
6,6.498000144958496,distr,53501.999855041504,Mon Jun 08 2026 15:01:19 GMT-0500 (Central Daylight Time),818808.1000000238,B,judge,O,e,170,1,2332.2000000476837,816475.8999999762,7801,WL,A,3.0
6,6.697999954223633,distr,53302.00004577637,Mon Jun 08 2026 15:01:19 GMT-0500 (Central Daylight Time),819008.1999999285,B,judgeenter,O,enter,182,1,2532.2999999523163,816475.8999999762,7801,WL,A,3.0
6,15.496000051498413,distr,44503.99994850159,Mon Jun 08 2026 15:01:19 GMT-0500 (Central Daylight Time),827806.0,B,c,O,c,8792,1,8797.600000023842,819008.3999999762,7801,WL,A,4.0
6,15.696000099182129,distr,44303.99990081787,Mon Jun 08 2026 15:01:19 GMT-0500 (Central Daylight Time),828006.1999999285,B,ca,O,a,191,1,8997.799999952316,819008.3999999762,7801,WL,A,4.0
6,15.86300015449524,distr,44136.99984550476,Mon Jun 08 2026 15:01:19 GMT-0500 (Central Daylight Time),828172.7999999523,B,cap,O,p,158,1,9164.399999976158,819008.3999999762,7801,WL,A,4.0
6,16.17900013923645,distr,43820.99986076355,Mon Jun 08 2026 15:01:19 GMT-0500 (Central Daylight Time),828488.6999999285,B,capenter,O,enter,303,1,9480.299999952316,819008.3999999762,7801,WL,A,4.0
6,19.3270001411438,distr,40672.9998588562,Mon Jun 08 2026 15:01:19 GMT-0500 (Central Daylight Time),831637.1999999285,B,s,O,s,3141,1,3148.1999999284744,828489.0,7801,WL,A,5.0
6,19.59500002861023,distr,40404.99997138977,Mon Jun 08 2026 15:01:19 GMT-0500 (Central Daylight Time),831904.7999999523,B,sc,O,c,247,1,3415.7999999523163,828489.0,7801,WL,A,5.0
6,19.84500002861023,distr,40154.99997138977,Mon Jun 08 2026 15:01:19 GMT-0500 (Central Daylight Time),832155.1000000238,B,sca,O,a,236,1,3666.100000023842,828489.0,7801,WL,A,5.0
6,19.99500012397766,distr,40004.99987602234,Mon Jun 08 2026 15:01:19 GMT-0500 (Central Daylight Time),832304.7999999523,B,scan,O,n,135,1,3815.7999999523163,828489.0,7801,WL,A,5.0
6,20.261000156402588,distr,39738.99984359741,Mon Jun 08 2026 15:01:19 GMT-0500 (Central Daylight Time),832571.1999999285,B,scanenter,O,enter,253,1,4082.1999999284744,828489.0,7801,WL,A,5.0
6,22.710000038146973,distr,37289.99996185303,Mon Jun 08 2026 15:01:19 GMT-0500 (Central Daylight Time),835020.0,B,p,O,p,2434,1,2448.600000023842,832571.3999999762,7801,WL,A,6.0
6,23.026999950408936,distr,36973.000049591064,Mon Jun 08 2026 15:01:19 GMT-0500 (Central Daylight Time),835336.6999999285,B,po,O,o,290,1,2765.2999999523163,832571.3999999762,7801,WL,A,6.0
6,23.193000078201294,distr,36806.999921798706,Mon Jun 08 2026 15:01:19 GMT-0500 (Central Daylight Time),835502.5,B,poo,O,o,147,1,2931.100000023842,832571.3999999762,7801,WL,A,6.0
6,23.51200008392334,distr,36487.99991607666,Mon Jun 08 2026 15:01:19 GMT-0500 (Central Daylight Time),835821.7999999523,B,pool,O,l,303,1,3250.399999976158,832571.3999999762,7801,WL,A,6.0
6,23.843000173568726,distr,36156.999826431274,Mon Jun 08 2026 15:01:19 GMT-0500 (Central Daylight Time),836153.3999999762,B,poolenter,O,enter,312,1,3582.0,832571.3999999762,7801,WL,A,6.0
6,27.87600016593933,distr,32123.99983406067,Mon Jun 08 2026 15:01:19 GMT-0500 (Central Daylight Time),840187.0,B,s,O,s,4013,1,4033.3000000715256,836153.6999999285,7801,WL,A,7.0
6,27.990000009536743,distr,32009.999990463257,Mon Jun 08 2026 15:01:19 GMT-0500 (Central Daylight Time),840301.0,B,sh,O,h,102,1,4147.300000071526,836153.6999999285,7801,WL,A,7.0
6,28.225000143051147,distr,31774.999856948853,Mon Jun 08 2026 15:01:19 GMT-0500 (Central Daylight Time),840536.1999999285,B,she,O,e,216,1,4382.5,836153.6999999285,7801,WL,A,7.0
6,28.457000017166138,distr,31542.999982833862,Mon Jun 08 2026 15:01:19 GMT-0500 (Central Daylight Time),840768.2999999523,B,shee,O,e,211,1,4614.600000023842,836153.6999999285,7801,WL,A,7.0
6,28.674999952316284,distr,31325.000047683716,Mon Jun 08 2026 15:01:19 GMT-0500 (Central Daylight Time),840985.6999999285,B,sheep,O,p,196,1,4832.0,836153.6999999285,7801,WL,A,7.0
6,28.98900008201599,distr,31010.99991798401,Mon Jun 08 2026 15:01:19 GMT-0500 (Central Daylight Time),841300.3999999762,B,sheepenter,O,enter,300,1,5146.700000047684,836153.6999999285,7801,WL,A,7.0
6,38.28800010681152,distr,21711.999893188477,Mon Jun 08 2026 15:01:19 GMT-0500 (Central Daylight Time),850599.3999999762,B,p,O,p,9280,1,9298.600000023842,841300.7999999523,7801,WL,A,8.0
6,38.604000091552734,distr,21395.999908447266,Mon Jun 08 2026 15:01:19 GMT-0500 (Central Daylight Time),850915.3999999762,B,po,O,o,300,1,9614.600000023842,841300.7999999523,7801,WL,A,8.0
6,38.82100009918213,distr,21178.99990081787,Mon Jun 08 2026 15:01:19 GMT-0500 (Central Daylight Time),851132.3999999762,B,poo,O,o,194,1,9831.600000023842,841300.7999999523,7801,WL,A,8.0
6,39.12100005149841,distr,20878.999948501587,Mon Jun 08 2026 15:01:19 GMT-0500 (Central Daylight Time),851432.3999999762,B,pool,O,l,280,1,10131.600000023842,841300.7999999523,7801,WL,A,8.0
6,39.37000012397766,distr,20629.99987602234,Mon Jun 08 2026 15:01:19 GMT-0500 (Central Daylight Time),851681.1000000238,B,poolenter,O,enter,229,1,10380.300000071526,841300.7999999523,7801,WL,A,8.0
6,60.015000104904175,distr,-15.000104904174805,Mon Jun 08 2026 15:01:19 GMT-0500 (Central Daylight Time),872326.1999999285,B,None,O,None,20640,1,20644.899999976158,851681.2999999523,7801,WL,A,9.0
7,8.497999906539917,immed,51502.00009346008,Mon Jun 08 2026 15:01:19 GMT-0500 (Central Daylight Time),881906.8999999762,A,t,O,t,8476,1,8498.0,873408.8999999762,7801,WL,A,1.0
7,8.730000019073486,immed,51269.999980926514,Mon Jun 08 2026 15:01:19 GMT-0500 (Central Daylight Time),882138.7999999523,A,tr,O,r,216,1,8729.899999976158,873408.8999999762,7801,WL,A,1.0
7,8.96399998664856,immed,51036.00001335144,Mon Jun 08 2026 15:01:19 GMT-0500 (Central Daylight Time),882373.0,A,tra,O,a,218,1,8964.100000023842,873408.8999999762,7801,WL,A,1.0
7,9.128999948501587,immed,50871.00005149841,Mon Jun 08 2026 15:01:19 GMT-0500 (Central Daylight Time),882538.1999999285,A,trai,O,i,152,1,9129.299999952316,873408.8999999762,7801,WL,A,1.0
7,9.347000122070312,immed,50652.99987792969,Mon Jun 08 2026 15:01:19 GMT-0500 (Central Daylight Time),882755.6000000238,A,train,O,n,197,1,9346.700000047684,873408.8999999762,7801,WL,A,1.0
7,9.746000051498413,immed,50253.99994850159,Mon Jun 08 2026 15:01:19 GMT-0500 (Central Daylight Time),883155.1000000238,A,trainenter,O,enter,394,1,9746.200000047684,873408.8999999762,7801,WL,A,1.0
7,12.163000106811523,immed,47836.99989318848,Mon Jun 08 2026 15:01:19 GMT-0500 (Central Daylight Time),885571.7999999523,A,m,O,m,2397,1,2416.5,883155.2999999523,7801,WL,A,2.0
7,12.34500002861023,immed,47654.99997138977,Mon Jun 08 2026 15:01:19 GMT-0500 (Central Daylight Time),885753.7999999523,A,me,O,e,167,1,2598.5,883155.2999999523,7801,WL,A,2.0
7,12.51200008392334,immed,47487.99991607666,Mon Jun 08 2026 15:01:19 GMT-0500 (Central Daylight Time),885921.1999999285,A,mea,O,a,148,1,2765.899999976158,883155.2999999523,7801,WL,A,2.0
7,12.729000091552734,immed,47270.999908447266,Mon Jun 08 2026 15:01:19 GMT-0500 (Central Daylight Time),886137.6000000238,A,mead,O,d,195,1,2982.3000000715256,883155.2999999523,7801,WL,A,2.0
7,12.928999900817871,immed,47071.00009918213,Mon Jun 08 2026 15:01:19 GMT-0500 (Central Daylight Time),886338.0,A,meado,O,o,178,1,3182.7000000476837,883155.2999999523,7801,WL,A,2.0
7,13.061000108718872,immed,46938.99989128113,Mon Jun 08 2026 15:01:19 GMT-0500 (Central Daylight Time),886469.8999999762,A,meadow,O,w,121,1,3314.600000023842,883155.2999999523,7801,WL,A,2.0
7,13.378999948501587,immed,46621.00005149841,Mon Jun 08 2026 15:01:19 GMT-0500 (Central Daylight Time),886788.1000000238,A,meadowenter,O,enter,299,1,3632.8000000715256,883155.2999999523,7801,WL,A,2.0
7,15.128000020980835,immed,44871.999979019165,Mon Jun 08 2026 15:01:19 GMT-0500 (Central Daylight Time),888536.7999999523,A,s,O,s,1737,1,1748.5,886788.2999999523,7801,WL,A,3.0
7,15.526999950408936,immed,44473.000049591064,Mon Jun 08 2026 15:01:19 GMT-0500 (Central Daylight Time),888936.1999999285,A,sh,O,h,388,1,2147.899999976158,886788.2999999523,7801,WL,A,3.0
7,16.49399995803833,immed,43506.00004196167,Mon Jun 08 2026 15:01:19 GMT-0500 (Central Daylight Time),889903.1999999285,A,s,O,backspace,948,1,3114.899999976158,886788.2999999523,7801,WL,A,3.0
7,17.443000078201294,immed,42556.999921798706,Mon Jun 08 2026 15:01:19 GMT-0500 (Central Daylight Time),890851.8999999762,A,,O,backspace,942,1,4063.600000023842,886788.2999999523,7801,WL,A,3.0
7,18.427000045776367,immed,41572.99995422363,Mon Jun 08 2026 15:01:19 GMT-0500 (Central Daylight Time),891835.7999999523,A,c,O,c,961,1,5047.5,886788.2999999523,7801,WL,A,3.0
7,18.609999895095825,immed,41390.000104904175,Mon Jun 08 2026 15:01:19 GMT-0500 (Central Daylight Time),892019.1000000238,A,ch,O,h,163,1,5230.800000071526,886788.2999999523,7801,WL,A,3.0
7,18.926000118255615,immed,41073.999881744385,Mon Jun 08 2026 15:01:19 GMT-0500 (Central Daylight Time),892335.1000000238,A,chi,O,i,297,1,5546.800000071526,886788.2999999523,7801,WL,A,3.0
7,19.194000005722046,immed,40805.999994277954,Mon Jun 08 2026 15:01:19 GMT-0500 (Central Daylight Time),892603.1999999285,A,chim,O,m,253,1,5814.899999976158,886788.2999999523,7801,WL,A,3.0
7,19.677000045776367,immed,40322.99995422363,Mon Jun 08 2026 15:01:19 GMT-0500 (Central Daylight Time),893085.7999999523,A,chimn,O,n,461,1,6297.5,886788.2999999523,7801,WL,A,3.0
7,19.858999967575073,immed,40141.00003242493,Mon Jun 08 2026 15:01:19 GMT-0500 (Central Daylight Time),893267.8999999762,A,chimne,O,e,167,1,6479.600000023842,886788.2999999523,7801,WL,A,3.0
7,20.04200005531311,immed,39957.99994468689,Mon Jun 08 2026 15:01:19 GMT-0500 (Central Daylight Time),893451.1000000238,A,chimney,O,y,176,1,6662.800000071526,886788.2999999523,7801,WL,A,3.0
7,20.427000045776367,immed,39572.99995422363,Mon Jun 08 2026 15:01:19 GMT-0500 (Central Daylight Time),893836.3999999762,A,chimneyenter,O,enter,361,1,7048.100000023842,886788.2999999523,7801,WL,A,3.0
7,21.05900001525879,immed,38940.99998474121,Mon Jun 08 2026 15:01:19 GMT-0500 (Central Daylight Time),894468.1000000238,A,m,O,m,610,1,631.5,893836.6000000238,7801,WL,A,4.0
7,21.30999994277954,immed,38690.00005722046,Mon Jun 08 2026 15:01:19 GMT-0500 (Central Daylight Time),894718.6000000238,A,me,O,e,232,1,882.0,893836.6000000238,7801,WL,A,4.0
7,21.592999935150146,immed,38407.00006484985,Mon Jun 08 2026 15:01:19 GMT-0500 (Central Daylight Time),895002.2999999523,A,mea,O,a,263,1,1165.6999999284744,893836.6000000238,7801,WL,A,4.0
7,21.875,immed,38125.0,Mon Jun 08 2026 15:01:19 GMT-0500 (Central Daylight Time),895284.1999999285,A,mead,O,d,267,1,1447.5999999046326,893836.6000000238,7801,WL,A,4.0
7,22.04099988937378,immed,37959.00011062622,Mon Jun 08 2026 15:01:19 GMT-0500 (Central Daylight Time),895450.3999999762,A,meado,O,o,151,1,1613.7999999523163,893836.6000000238,7801,WL,A,4.0
7,22.174999952316284,immed,37825.000047683716,Mon Jun 08 2026 15:01:19 GMT-0500 (Central Daylight Time),895583.7999999523,A,meadow,O,w,115,1,1747.1999999284744,893836.6000000238,7801,WL,A,4.0
7,22.4760000705719,immed,37523.9999294281,Mon Jun 08 2026 15:01:19 GMT-0500 (Central Daylight Time),895885.0,A,meadowenter,O,enter,294,1,2048.399999976158,893836.6000000238,7801,WL,A,4.0
7,24.723999977111816,immed,35276.00002288818,Mon Jun 08 2026 15:01:19 GMT-0500 (Central Daylight Time),898133.7999999523,A,g,O,g,2239,1,2248.5,895885.2999999523,7801,WL,A,5.0
7,24.85800004005432,immed,35141.99995994568,Mon Jun 08 2026 15:01:19 GMT-0500 (Central Daylight Time),898268.3999999762,A,go,O,o,114,1,2383.100000023842,895885.2999999523,7801,WL,A,5.0
7,25.091000080108643,immed,34908.99991989136,Mon Jun 08 2026 15:01:19 GMT-0500 (Central Daylight Time),898500.7999999523,A,gol,O,l,223,1,2615.5,895885.2999999523,7801,WL,A,5.0
7,25.223999977111816,immed,34776.00002288818,Mon Jun 08 2026 15:01:19 GMT-0500 (Central Daylight Time),898633.6000000238,A,gold,O,d,120,1,2748.3000000715256,895885.2999999523,7801,WL,A,5.0
7,25.457000017166138,immed,34542.99998283386,Mon Jun 08 2026 15:01:19 GMT-0500 (Central Daylight Time),898867.2999999523,A,goldenter,O,enter,218,1,2982.0,895885.2999999523,7801,WL,A,5.0
7,29.138999938964844,immed,30861.000061035156,Mon Jun 08 2026 15:01:19 GMT-0500 (Central Daylight Time),902548.8999999762,A,h,O,h,3665,1,3681.399999976158,898867.5,7801,WL,A,6.0
7,29.305000066757202,immed,30694.999933242798,Mon Jun 08 2026 15:01:19 GMT-0500 (Central Daylight Time),902715.3999999762,A,ha,O,a,145,1,3847.899999976158,898867.5,7801,WL,A,6.0
7,29.473000049591064,immed,30526.999950408936,Mon Jun 08 2026 15:01:19 GMT-0500 (Central Daylight Time),902882.8999999762,A,har,O,r,146,1,4015.399999976158,898867.5,7801,WL,A,6.0
7,29.655999898910522,immed,30344.000101089478,Mon Jun 08 2026 15:01:19 GMT-0500 (Central Daylight Time),903066.1999999285,A,harp,O,p,169,1,4198.699999928474,898867.5,7801,WL,A,6.0
7,30.055000066757202,immed,29944.999933242798,Mon Jun 08 2026 15:01:19 GMT-0500 (Central Daylight Time),903464.7999999523,A,harpenter,O,enter,386,1,4597.299999952316,898867.5,7801,WL,A,6.0
7,31.670000076293945,immed,28329.999923706055,Mon Jun 08 2026 15:01:19 GMT-0500 (Central Daylight Time),905080.5,A,f,O,f,1610,1,1615.5,903465.0,7801,WL,A,7.0
7,31.836999893188477,immed,28163.000106811523,Mon Jun 08 2026 15:01:19 GMT-0500 (Central Daylight Time),905247.1999999285,A,fl,O,l,150,1,1782.1999999284744,903465.0,7801,WL,A,7.0
7,32.03800010681152,immed,27961.999893188477,Mon Jun 08 2026 15:01:19 GMT-0500 (Central Daylight Time),905448.1000000238,A,flo,O,o,179,1,1983.1000000238419,903465.0,7801,WL,A,7.0
7,32.15499997138977,immed,27845.00002861023,Mon Jun 08 2026 15:01:19 GMT-0500 (Central Daylight Time),905565.0,A,flow,O,w,95,1,2100.0,903465.0,7801,WL,A,7.0
7,32.236000061035156,immed,27763.999938964844,Mon Jun 08 2026 15:01:19 GMT-0500 (Central Daylight Time),905646.1000000238,A,flowe,O,e,70,1,2181.100000023842,903465.0,7801,WL,A,7.0
7,32.40400004386902,immed,27595.99995613098,Mon Jun 08 2026 15:01:19 GMT-0500 (Central Daylight Time),905813.8999999762,A,flower,O,r,152,1,2348.899999976158,903465.0,7801,WL,A,7.0
7,32.5699999332428,immed,27430.000066757202,Mon Jun 08 2026 15:01:19 GMT-0500 (Central Daylight Time),905980.2999999523,A,flowerenter,O,enter,151,1,2515.2999999523163,903465.0,7801,WL,A,7.0
7,33.40300011634827,immed,26596.999883651733,Mon Jun 08 2026 15:01:19 GMT-0500 (Central Daylight Time),906813.1999999285,A,f,O,f,817,1,832.7999999523163,905980.3999999762,7801,WL,A,8.0
7,33.519999980926514,immed,26480.000019073486,Mon Jun 08 2026 15:01:19 GMT-0500 (Central Daylight Time),906930.6000000238,A,fi,O,i,98,1,950.2000000476837,905980.3999999762,7801,WL,A,8.0
7,33.6710000038147,immed,26328.999996185303,Mon Jun 08 2026 15:01:19 GMT-0500 (Central Daylight Time),907080.6000000238,A,fin,O,n,135,1,1100.2000000476837,905980.3999999762,7801,WL,A,8.0
7,33.8199999332428,immed,26180.000066757202,Mon Jun 08 2026 15:01:19 GMT-0500 (Central Daylight Time),907230.6000000238,A,fing,O,g,133,1,1250.2000000476837,905980.3999999762,7801,WL,A,8.0
7,34.019999980926514,immed,25980.000019073486,Mon Jun 08 2026 15:01:19 GMT-0500 (Central Daylight Time),907430.3999999762,A,finge,O,e,182,1,1450.0,905980.3999999762,7801,WL,A,8.0
7,34.13700008392334,immed,25862.99991607666,Mon Jun 08 2026 15:01:19 GMT-0500 (Central Daylight Time),907547.2999999523,A,finger,O,r,104,1,1566.8999999761581,905980.3999999762,7801,WL,A,8.0
7,34.335999965667725,immed,25664.000034332275,Mon Jun 08 2026 15:01:19 GMT-0500 (Central Daylight Time),907746.1999999285,A,fingerenter,O,enter,185,1,1765.7999999523163,905980.3999999762,7801,WL,A,8.0
7,35.019999980926514,immed,24980.000019073486,Mon Jun 08 2026 15:01:19 GMT-0500 (Central Daylight Time),908429.8999999762,A,r,O,r,666,1,683.5,907746.3999999762,7801,WL,A,9.0
7,35.18600010871887,immed,24813.999891281128,Mon Jun 08 2026 15:01:19 GMT-0500 (Central Daylight Time),908596.1999999285,A,ra,O,a,150,1,849.7999999523163,907746.3999999762,7801,WL,A,9.0
7,35.37000012397766,immed,24629.99987602234,Mon Jun 08 2026 15:01:19 GMT-0500 (Central Daylight Time),908779.8999999762,A,rat,O,t,165,1,1033.5,907746.3999999762,7801,WL,A,9.0
7,35.55299997329712,immed,24447.00002670288,Mon Jun 08 2026 15:01:19 GMT-0500 (Central Daylight Time),908963.1999999285,A,ratt,O,t,165,1,1216.7999999523163,907746.3999999762,7801,WL,A,9.0
7,35.73699998855591,immed,24263.00001144409,Mon Jun 08 2026 15:01:19 GMT-0500 (Central Daylight Time),909147.0,A,rattl,O,l,170,1,1400.6000000238419,907746.3999999762,7801,WL,A,9.0
7,35.87000012397766,immed,24129.99987602234,Mon Jun 08 2026 15:01:19 GMT-0500 (Central Daylight Time),909279.7999999523,A,rattle,O,e,115,1,1533.3999999761581,907746.3999999762,7801,WL,A,9.0
7,36.168999910354614,immed,23831.000089645386,Mon Jun 08 2026 15:01:19 GMT-0500 (Central Daylight Time),909578.8999999762,A,rattleenter,O,enter,284,1,1832.5,907746.3999999762,7801,WL,A,9.0
7,49.49799990653992,immed,10502.000093460083,Mon Jun 08 2026 15:01:19 GMT-0500 (Central Daylight Time),922907.6000000238,A,t,O,t,13321,1,13328.5,909579.1000000238,7801,WL,A,10.0
7,49.763999938964844,immed,10236.000061035156,Mon Jun 08 2026 15:01:19 GMT-0500 (Central Daylight Time),923174.3999999762,A,tr,O,r,250,1,13595.299999952316,909579.1000000238,7801,WL,A,10.0
7,49.99799990653992,immed,10002.000093460083,Mon Jun 08 2026 15:01:19 GMT-0500 (Central Daylight Time),923408.6000000238,A,tra,O,a,212,1,13829.5,909579.1000000238,7801,WL,A,10.0
7,50.16599988937378,immed,9834.00011062622,Mon Jun 08 2026 15:01:19 GMT-0500 (Central Daylight Time),923575.8999999762,A,trai,O,i,147,1,13996.799999952316,909579.1000000238,7801,WL,A,10.0
7,50.38100004196167,immed,9618.99995803833,Mon Jun 08 2026 15:01:19 GMT-0500 (Central Daylight Time),923791.1999999285,A,train,O,n,203,1,14212.099999904633,909579.1000000238,7801,WL,A,10.0
7,50.66499996185303,immed,9335.000038146973,Mon Jun 08 2026 15:01:19 GMT-0500 (Central Daylight Time),924075.0,A,trainenter,O,enter,266,1,14495.899999976158,909579.1000000238,7801,WL,A,10.0
7,51.63100004196167,immed,8368.99995803833,Mon Jun 08 2026 15:01:19 GMT-0500 (Central Daylight Time),925040.8999999762,A,k,O,k,954,1,965.6000000238419,924075.2999999523,7801,WL,A,11.0
7,51.79800009727478,immed,8201.99990272522,Mon Jun 08 2026 15:01:19 GMT-0500 (Central Daylight Time),925207.6999999285,A,ke,O,e,145,1,1132.3999999761581,924075.2999999523,7801,WL,A,11.0
7,51.996999979019165,immed,8003.000020980835,Mon Jun 08 2026 15:01:19 GMT-0500 (Central Daylight Time),925407.1999999285,A,key,O,y,184,1,1331.8999999761581,924075.2999999523,7801,WL,A,11.0
7,52.31500005722046,immed,7684.999942779541,Mon Jun 08 2026 15:01:19 GMT-0500 (Central Daylight Time),925724.6999999285,A,keyenter,O,enter,307,1,1649.3999999761581,924075.2999999523,7801,WL,A,11.0
7,52.9300000667572,immed,7069.999933242798,Mon Jun 08 2026 15:01:19 GMT-0500 (Central Daylight Time),926340.2999999523,A,l,O,l,607,1,615.2999999523163,925725.0,7801,WL,A,12.0
7,53.13100004196167,immed,6868.99995803833,Mon Jun 08 2026 15:01:19 GMT-0500 (Central Daylight Time),926541.3999999762,A,lo,O,o,189,1,816.3999999761581,925725.0,7801,WL,A,12.0
7,53.29800009727478,immed,6701.99990272522,Mon Jun 08 2026 15:01:19 GMT-0500 (Central Daylight Time),926707.8999999762,A,log,O,g,143,1,982.8999999761581,925725.0,7801,WL,A,12.0
7,53.5789999961853,immed,6421.000003814697,Mon Jun 08 2026 15:01:19 GMT-0500 (Central Daylight Time),926989.1999999285,A,logenter,O,enter,263,1,1264.1999999284744,925725.0,7801,WL,A,12.0
7,60.01200008392334,immed,-12.000083923339844,Mon Jun 08 2026 15:01:19 GMT-0500 (Central Daylight Time),933421.6999999285,A,None,O,None,6427,1,6432.299999952316,926989.3999999762,7801,WL,A,13.0
