block_c,block_dur,condition,countdown,datetime,endtime,list,multichar_response,project,response,response_time,session_number,start_end,starttime,subject_id,task,task_vers,trial
,,,,Mon Dec 01 2025 11:44:08 GMT-0500 (Eastern Standard Time),,,,I,space,1037,1,,,9038,WL,C,
prac,,0,,Mon Dec 01 2025 11:44:08 GMT-0500 (Eastern Standard Time),,NA,b,I,b,5079,1,,,9038,WL,C,1.0
prac,,0,,Mon Dec 01 2025 11:44:08 GMT-0500 (Eastern Standard Time),,NA,bo,I,o,300,1,,,9038,WL,C,1.0
prac,,0,,Mon Dec 01 2025 11:44:08 GMT-0500 (Eastern Standard Time),,NA,boo,I,o,180,1,,,9038,WL,C,1.0
prac,,0,,Mon Dec 01 2025 11:44:08 GMT-0500 (Eastern Standard Time),,NA,boos,I,s,3,1,,,9038,WL,C,1.0
prac,,0,,Mon Dec 01 2025 11:44:08 GMT-0500 (Eastern Standard Time),,NA,boost,I,t,347,1,,,9038,WL,C,1.0
prac,,0,,Mon Dec 01 2025 11:44:08 GMT-0500 (Eastern Standard Time),,NA,boostenter,I,enter,3546,1,,,9038,WL,C,1.0
1,27.33300018310547,learn,32666.99981689453,Mon Dec 01 2025 11:44:08 GMT-0500 (Eastern Standard Time),1284947.0,A,b,I,b,27315,1,27332.200000047684,1257614.7999999523,9038,WL,C,1.0
1,27.599000215530396,learn,32400.999784469604,Mon Dec 01 2025 11:44:08 GMT-0500 (Eastern Standard Time),1285213.4000000954,A,bo,I,o,250,1,27598.60000014305,1257614.7999999523,9038,WL,C,1.0
1,27.81600022315979,learn,32183.99977684021,Mon Dec 01 2025 11:44:08 GMT-0500 (Eastern Standard Time),1285430.0999999046,A,boo,I,o,196,1,27815.299999952316,1257614.7999999523,9038,WL,C,1.0
1,27.966000080108643,learn,32033.999919891357,Mon Dec 01 2025 11:44:08 GMT-0500 (Eastern Standard Time),1285580.0999999046,A,boot,I,t,124,1,27965.299999952316,1257614.7999999523,9038,WL,C,1.0
1,29.249000072479248,learn,30750.999927520752,Mon Dec 01 2025 11:44:08 GMT-0500 (Eastern Standard Time),1286863.4000000954,A,boo,I,backspace,1260,1,29248.60000014305,1257614.7999999523,9038,WL,C,1.0
1,29.39900016784668,learn,30600.99983215332,Mon Dec 01 2025 11:44:08 GMT-0500 (Eastern Standard Time),1287013.2999999523,A,boos,I,s,128,1,29398.5,1257614.7999999523,9038,WL,C,1.0
1,29.58300018310547,learn,30416.99981689453,Mon Dec 01 2025 11:44:08 GMT-0500 (Eastern Standard Time),1287196.9000000954,A,boost,I,t,157,1,29582.10000014305,1257614.7999999523,9038,WL,C,1.0
1,30.532000064849854,learn,29467.999935150146,Mon Dec 01 2025 11:44:08 GMT-0500 (Eastern Standard Time),1288146.2999999523,A,boostenter,I,enter,923,1,30531.5,1257614.7999999523,9038,WL,C,1.0
1,31.550000190734863,learn,28449.999809265137,Mon Dec 01 2025 11:44:08 GMT-0500 (Eastern Standard Time),1289163.5999999046,A,q,I,q,994,1,1016.6999998092651,1288146.9000000954,9038,WL,C,2.0
1,31.73300004005432,learn,28266.99995994568,Mon Dec 01 2025 11:44:08 GMT-0500 (Eastern Standard Time),1289346.7999999523,A,qu,I,u,165,1,1199.8999998569489,1288146.9000000954,9038,WL,C,2.0
1,31.949000120162964,learn,28050.999879837036,Mon Dec 01 2025 11:44:08 GMT-0500 (Eastern Standard Time),1289563.4000000954,A,que,I,e,192,1,1416.5,1288146.9000000954,9038,WL,C,2.0
1,32.366000175476074,learn,27633.999824523926,Mon Dec 01 2025 11:44:08 GMT-0500 (Eastern Standard Time),1289980.2000000477,A,quee,I,e,380,1,1833.2999999523163,1288146.9000000954,9038,WL,C,2.0
1,32.63300013542175,learn,27366.999864578247,Mon Dec 01 2025 11:44:08 GMT-0500 (Eastern Standard Time),1290246.7999999523,A,queen,I,n,245,1,2099.899999856949,1288146.9000000954,9038,WL,C,2.0
1,33.05000019073486,learn,26949.999809265137,Mon Dec 01 2025 11:44:08 GMT-0500 (Eastern Standard Time),1290663.5,A,queend,I,d,395,1,2516.5999999046326,1288146.9000000954,9038,WL,C,2.0
1,34.01600003242493,learn,25983.999967575073,Mon Dec 01 2025 11:44:08 GMT-0500 (Eastern Standard Time),1291629.9000000954,A,queen,I,backspace,954,1,3483.0,1288146.9000000954,9038,WL,C,2.0
1,34.96600008010864,learn,25033.999919891357,Mon Dec 01 2025 11:44:08 GMT-0500 (Eastern Standard Time),1292579.5999999046,A,queenenter,I,enter,932,1,4432.699999809265,1288146.9000000954,9038,WL,C,2.0
1,36.08300018310547,learn,23916.99981689453,Mon Dec 01 2025 11:44:08 GMT-0500 (Eastern Standard Time),1293696.7999999523,A,d,I,d,1105,1,1116.7000000476837,1292580.0999999046,9038,WL,C,3.0
1,36.26600003242493,learn,23733.999967575073,Mon Dec 01 2025 11:44:08 GMT-0500 (Eastern Standard Time),1293880.0,A,do,I,o,161,1,1299.9000000953674,1292580.0999999046,9038,WL,C,3.0
1,36.48300004005432,learn,23516.99995994568,Mon Dec 01 2025 11:44:08 GMT-0500 (Eastern Standard Time),1294096.9000000954,A,doc,I,c,200,1,1516.8000001907349,1292580.0999999046,9038,WL,C,3.0
1,37.01600003242493,learn,22983.999967575073,Mon Dec 01 2025 11:44:08 GMT-0500 (Eastern Standard Time),1294630.0999999046,A,doco,I,o,512,1,2050.0,1292580.0999999046,9038,WL,C,3.0
1,37.51600003242493,learn,22483.999967575073,Mon Dec 01 2025 11:44:08 GMT-0500 (Eastern Standard Time),1295130.2000000477,A,doc,I,backspace,476,1,2550.100000143051,1292580.0999999046,9038,WL,C,3.0
1,37.599000215530396,learn,22400.999784469604,Mon Dec 01 2025 11:44:08 GMT-0500 (Eastern Standard Time),1295213.2999999523,A,doct,I,t,73,1,2633.2000000476837,1292580.0999999046,9038,WL,C,3.0
1,37.782999992370605,learn,22217.000007629395,Mon Dec 01 2025 11:44:08 GMT-0500 (Eastern Standard Time),1295396.7000000477,A,docto,I,o,164,1,2816.600000143051,1292580.0999999046,9038,WL,C,3.0
1,37.88300013542175,learn,22116.999864578247,Mon Dec 01 2025 11:44:08 GMT-0500 (Eastern Standard Time),1295496.7999999523,A,doctor,I,r,77,1,2916.7000000476837,1292580.0999999046,9038,WL,C,3.0
1,38.682000160217285,learn,21317.999839782715,Mon Dec 01 2025 11:44:08 GMT-0500 (Eastern Standard Time),1296296.2000000477,A,doctorenter,I,enter,777,1,3716.100000143051,1292580.0999999046,9038,WL,C,3.0
1,41.88300013542175,learn,18116.999864578247,Mon Dec 01 2025 11:44:08 GMT-0500 (Eastern Standard Time),1299496.5999999046,A,c,I,c,3180,1,3199.899999856949,1296296.7000000477,9038,WL,C,4.0
1,41.98300004005432,learn,18016.99995994568,Mon Dec 01 2025 11:44:08 GMT-0500 (Eastern Standard Time),1299596.7999999523,A,co,I,o,88,1,3300.0999999046326,1296296.7000000477,9038,WL,C,4.0
1,42.21600008010864,learn,17783.999919891357,Mon Dec 01 2025 11:44:08 GMT-0500 (Eastern Standard Time),1299830.0999999046,A,cor,I,r,210,1,3533.399999856949,1296296.7000000477,9038,WL,C,4.0
1,42.699000120162964,learn,17300.999879837036,Mon Dec 01 2025 11:44:08 GMT-0500 (Eastern Standard Time),1300313.2999999523,A,corn,I,n,457,1,4016.5999999046326,1296296.7000000477,9038,WL,C,4.0
1,43.182000160217285,learn,16817.999839782715,Mon Dec 01 2025 11:44:08 GMT-0500 (Eastern Standard Time),1300796.0999999046,A,cornenter,I,enter,472,1,4499.399999856949,1296296.7000000477,9038,WL,C,4.0
1,46.31600022315979,learn,13683.99977684021,Mon Dec 01 2025 11:44:08 GMT-0500 (Eastern Standard Time),1303930.0,A,t,I,t,3113,1,3133.5999999046326,1300796.4000000954,9038,WL,C,5.0
1,46.41600012779236,learn,13583.999872207642,Mon Dec 01 2025 11:44:08 GMT-0500 (Eastern Standard Time),1304030.0999999046,A,to,I,o,86,1,3233.699999809265,1300796.4000000954,9038,WL,C,5.0
1,46.64900016784668,learn,13350.99983215332,Mon Dec 01 2025 11:44:08 GMT-0500 (Eastern Standard Time),1304263.2000000477,A,toy,I,y,202,1,3466.7999999523163,1300796.4000000954,9038,WL,C,5.0
1,47.182000160217285,learn,12817.999839782715,Mon Dec 01 2025 11:44:08 GMT-0500 (Eastern Standard Time),1304796.0,A,toyenter,I,enter,523,1,3999.5999999046326,1300796.4000000954,9038,WL,C,5.0
1,57.76600003242493,learn,2233.9999675750732,Mon Dec 01 2025 11:44:08 GMT-0500 (Eastern Standard Time),1315380.0999999046,A,s,I,s,10570,1,10583.799999952316,1304796.2999999523,9038,WL,C,6.0
1,57.93300008773804,learn,2066.999912261963,Mon Dec 01 2025 11:44:08 GMT-0500 (Eastern Standard Time),1315546.7999999523,A,su,I,u,142,1,10750.5,1304796.2999999523,9038,WL,C,6.0
1,58.29900002479553,learn,1700.9999752044678,Mon Dec 01 2025 11:44:08 GMT-0500 (Eastern Standard Time),1315913.2999999523,A,sug,I,g,335,1,11117.0,1304796.2999999523,9038,WL,C,6.0
1,58.449000120162964,learn,1550.9998798370361,Mon Dec 01 2025 11:44:08 GMT-0500 (Eastern Standard Time),1316063.2999999523,A,suga,I,a,137,1,11267.0,1304796.2999999523,9038,WL,C,6.0
1,58.63300013542175,learn,1366.999864578247,Mon Dec 01 2025 11:44:08 GMT-0500 (Eastern Standard Time),1316246.7000000477,A,sugar,I,r,162,1,11450.400000095367,1304796.2999999523,9038,WL,C,6.0
1,59.699000120162964,learn,300.99987983703613,Mon Dec 01 2025 11:44:08 GMT-0500 (Eastern Standard Time),1317312.5999999046,A,sugarenter,I,enter,1048,1,12516.299999952316,1304796.2999999523,9038,WL,C,6.0
1,60.01600003242493,learn,-16.000032424926758,Mon Dec 01 2025 11:44:08 GMT-0500 (Eastern Standard Time),1317629.9000000954,A,None,I,None,311,1,316.80000019073486,1317313.0999999046,9038,WL,C,7.0
2,1.0840001106262207,learn,58915.99988937378,Mon Dec 01 2025 11:44:08 GMT-0500 (Eastern Standard Time),1398730.0,A,t,I,t,1061,1,1082.9000000953674,1397647.0999999046,9038,WL,C,1.0
2,1.2669999599456787,learn,58733.00004005432,Mon Dec 01 2025 11:44:08 GMT-0500 (Eastern Standard Time),1398913.2000000477,A,to,I,o,167,1,1266.1000001430511,1397647.0999999046,9038,WL,C,1.0
2,1.434000015258789,learn,58565.99998474121,Mon Dec 01 2025 11:44:08 GMT-0500 (Eastern Standard Time),1399079.7999999523,A,tow,I,w,146,1,1432.7000000476837,1397647.0999999046,9038,WL,C,1.0
2,1.6000001430511475,learn,58399.99985694885,Mon Dec 01 2025 11:44:08 GMT-0500 (Eastern Standard Time),1399246.2999999523,A,towe,I,e,154,1,1599.2000000476837,1397647.0999999046,9038,WL,C,1.0
2,1.9839999675750732,learn,58016.00003242493,Mon Dec 01 2025 11:44:08 GMT-0500 (Eastern Standard Time),1399629.7000000477,A,tower,I,r,372,1,1982.6000001430511,1397647.0999999046,9038,WL,C,1.0
2,2.867000102996826,learn,57132.999897003174,Mon Dec 01 2025 11:44:08 GMT-0500 (Eastern Standard Time),1400512.7999999523,A,towerenter,I,enter,869,1,2865.7000000476837,1397647.0999999046,9038,WL,C,1.0
2,3.5510001182556152,learn,56448.999881744385,Mon Dec 01 2025 11:44:08 GMT-0500 (Eastern Standard Time),1401196.7000000477,A,s,I,s,660,1,683.6000001430511,1400513.0999999046,9038,WL,C,2.0
2,3.6670000553131104,learn,56332.99994468689,Mon Dec 01 2025 11:44:08 GMT-0500 (Eastern Standard Time),1401313.0999999046,A,sh,I,h,102,1,800.0,1400513.0999999046,9038,WL,C,2.0
2,3.7339999675750732,learn,56266.00003242493,Mon Dec 01 2025 11:44:08 GMT-0500 (Eastern Standard Time),1401379.7999999523,A,sho,I,o,40,1,866.7000000476837,1400513.0999999046,9038,WL,C,2.0
2,3.934000015258789,learn,56065.99998474121,Mon Dec 01 2025 11:44:08 GMT-0500 (Eastern Standard Time),1401580.0,A,shor,I,r,174,1,1066.9000000953674,1400513.0999999046,9038,WL,C,2.0
2,4.16700005531311,learn,55832.99994468689,Mon Dec 01 2025 11:44:08 GMT-0500 (Eastern Standard Time),1401813.2000000477,A,short,I,t,206,1,1300.1000001430511,1400513.0999999046,9038,WL,C,2.0
2,4.834000110626221,learn,55165.99988937378,Mon Dec 01 2025 11:44:08 GMT-0500 (Eastern Standard Time),1402480.0,A,shor,I,backspace,644,1,1966.9000000953674,1400513.0999999046,9038,WL,C,2.0
2,4.9670000076293945,learn,55032.999992370605,Mon Dec 01 2025 11:44:08 GMT-0500 (Eastern Standard Time),1402613.2999999523,A,shore,I,e,115,1,2100.2000000476837,1400513.0999999046,9038,WL,C,2.0
2,5.700000047683716,learn,54299.999952316284,Mon Dec 01 2025 11:44:08 GMT-0500 (Eastern Standard Time),1403346.0999999046,A,shoreenter,I,enter,716,1,2833.0,1400513.0999999046,9038,WL,C,2.0
2,6.16700005531311,learn,53832.99994468689,Mon Dec 01 2025 11:44:08 GMT-0500 (Eastern Standard Time),1403813.2999999523,A,b,I,b,451,1,466.7999999523163,1403346.5,9038,WL,C,3.0
2,6.301000118255615,learn,53698.999881744385,Mon Dec 01 2025 11:44:08 GMT-0500 (Eastern Standard Time),1403946.7000000477,A,bo,I,o,108,1,600.2000000476837,1403346.5,9038,WL,C,3.0
2,6.7840001583099365,learn,53215.99984169006,Mon Dec 01 2025 11:44:08 GMT-0500 (Eastern Standard Time),1404429.7999999523,A,boy,I,y,469,1,1083.2999999523163,1403346.5,9038,WL,C,3.0
2,7.41700005531311,learn,52582.99994468689,Mon Dec 01 2025 11:44:08 GMT-0500 (Eastern Standard Time),1405062.9000000954,A,boyenter,I,enter,613,1,1716.4000000953674,1403346.5,9038,WL,C,3.0
2,7.7170000076293945,learn,52282.999992370605,Mon Dec 01 2025 11:44:08 GMT-0500 (Eastern Standard Time),1405363.2999999523,A,w,I,w,286,1,300.0,1405063.2999999523,9038,WL,C,4.0
2,7.834000110626221,learn,52165.99988937378,Mon Dec 01 2025 11:44:08 GMT-0500 (Eastern Standard Time),1405479.9000000954,A,wh,I,h,96,1,416.60000014305115,1405063.2999999523,9038,WL,C,4.0
2,7.9670000076293945,learn,52032.999992370605,Mon Dec 01 2025 11:44:08 GMT-0500 (Eastern Standard Time),1405613.2999999523,A,whe,I,e,114,1,550.0,1405063.2999999523,9038,WL,C,4.0
2,8.367000102996826,learn,51632.999897003174,Mon Dec 01 2025 11:44:08 GMT-0500 (Eastern Standard Time),1406013.0,A,whet,I,t,379,1,949.7000000476837,1405063.2999999523,9038,WL,C,4.0
2,8.884000062942505,learn,51115.999937057495,Mon Dec 01 2025 11:44:08 GMT-0500 (Eastern Standard Time),1406530.0,A,whe,I,backspace,502,1,1466.7000000476837,1405063.2999999523,9038,WL,C,4.0
2,9.000999927520752,learn,50999.00007247925,Mon Dec 01 2025 11:44:08 GMT-0500 (Eastern Standard Time),1406646.5999999046,A,whea,I,a,97,1,1583.2999999523163,1405063.2999999523,9038,WL,C,4.0
2,9.100000143051147,learn,50899.99985694885,Mon Dec 01 2025 11:44:08 GMT-0500 (Eastern Standard Time),1406746.4000000954,A,wheat,I,t,66,1,1683.1000001430511,1405063.2999999523,9038,WL,C,4.0
2,9.950000047683716,learn,50049.999952316284,Mon Dec 01 2025 11:44:08 GMT-0500 (Eastern Standard Time),1407596.0,A,wheatenter,I,enter,835,1,2532.7000000476837,1405063.2999999523,9038,WL,C,4.0
2,14.434000015258789,learn,45565.99998474121,Mon Dec 01 2025 11:44:08 GMT-0500 (Eastern Standard Time),1412080.0,A,b,I,b,4475,1,4483.700000047684,1407596.2999999523,9038,WL,C,5.0
2,14.567000150680542,learn,45432.99984931946,Mon Dec 01 2025 11:44:08 GMT-0500 (Eastern Standard Time),1412213.2999999523,A,bo,I,o,116,1,4617.0,1407596.2999999523,9038,WL,C,5.0
2,14.733999967575073,learn,45266.00003242493,Mon Dec 01 2025 11:44:08 GMT-0500 (Eastern Standard Time),1412380.0,A,boy,I,y,134,1,4783.700000047684,1407596.2999999523,9038,WL,C,5.0
2,15.217000007629395,learn,44782.999992370605,Mon Dec 01 2025 11:44:08 GMT-0500 (Eastern Standard Time),1412862.9000000954,A,boyenter,I,enter,469,1,5266.600000143051,1407596.2999999523,9038,WL,C,5.0
2,19.634000062942505,learn,40365.999937057495,Mon Dec 01 2025 11:44:08 GMT-0500 (Eastern Standard Time),1417280.0,A,f,I,f,4406,1,4416.599999904633,1412863.4000000954,9038,WL,C,6.0
2,19.817000150680542,learn,40182.99984931946,Mon Dec 01 2025 11:44:08 GMT-0500 (Eastern Standard Time),1417463.2000000477,A,fl,I,l,162,1,4599.799999952316,1412863.4000000954,9038,WL,C,6.0
2,20.000999927520752,learn,39999.00007247925,Mon Dec 01 2025 11:44:08 GMT-0500 (Eastern Standard Time),1417646.5999999046,A,fla,I,a,170,1,4783.199999809265,1412863.4000000954,9038,WL,C,6.0
2,20.551000118255615,learn,39448.999881744385,Mon Dec 01 2025 11:44:08 GMT-0500 (Eastern Standard Time),1418196.5999999046,A,flag,I,g,531,1,5333.199999809265,1412863.4000000954,9038,WL,C,6.0
2,20.967000007629395,learn,39032.999992370605,Mon Dec 01 2025 11:44:08 GMT-0500 (Eastern Standard Time),1418612.7999999523,A,flagenter,I,enter,397,1,5749.399999856949,1412863.4000000954,9038,WL,C,6.0
2,26.16700005531311,learn,33832.99994468689,Mon Dec 01 2025 11:44:08 GMT-0500 (Eastern Standard Time),1423813.4000000954,A,c,I,c,5186,1,5200.200000047684,1418613.2000000477,9038,WL,C,7.0
2,26.384000062942505,learn,33615.999937057495,Mon Dec 01 2025 11:44:08 GMT-0500 (Eastern Standard Time),1424029.5,A,ca,I,a,196,1,5416.299999952316,1418613.2000000477,9038,WL,C,7.0
2,26.68400001525879,learn,33315.99998474121,Mon Dec 01 2025 11:44:08 GMT-0500 (Eastern Standard Time),1424330.0,A,cat,I,t,278,1,5716.799999952316,1418613.2000000477,9038,WL,C,7.0
2,26.8510000705719,learn,33148.9999294281,Mon Dec 01 2025 11:44:08 GMT-0500 (Eastern Standard Time),1424496.5999999046,A,catt,I,t,152,1,5883.399999856949,1418613.2000000477,9038,WL,C,7.0
2,27.01699995994568,learn,32983.00004005432,Mon Dec 01 2025 11:44:08 GMT-0500 (Eastern Standard Time),1424663.2000000477,A,cattl,I,l,145,1,6050.0,1418613.2000000477,9038,WL,C,7.0
2,27.16700005531311,learn,32832.99994468689,Mon Dec 01 2025 11:44:08 GMT-0500 (Eastern Standard Time),1424812.9000000954,A,cattle,I,e,138,1,6199.700000047684,1418613.2000000477,9038,WL,C,7.0
2,27.83400011062622,learn,32165.99988937378,Mon Dec 01 2025 11:44:08 GMT-0500 (Eastern Standard Time),1425479.5,A,cattleenter,I,enter,644,1,6866.299999952316,1418613.2000000477,9038,WL,C,7.0
2,30.200999975204468,learn,29799.000024795532,Mon Dec 01 2025 11:44:08 GMT-0500 (Eastern Standard Time),1427846.7000000477,A,w,I,w,2349,1,2366.7999999523163,1425479.9000000954,9038,WL,C,8.0
2,32.0,learn,28000.0,Mon Dec 01 2025 11:44:08 GMT-0500 (Eastern Standard Time),1429646.2999999523,A,wh,I,h,1789,1,4166.399999856949,1425479.9000000954,9038,WL,C,8.0
2,32.551000118255615,learn,27448.999881744385,Mon Dec 01 2025 11:44:08 GMT-0500 (Eastern Standard Time),1430196.5999999046,A,whe,I,e,528,1,4716.699999809265,1425479.9000000954,9038,WL,C,8.0
2,32.73399996757507,learn,27266.000032424927,Mon Dec 01 2025 11:44:08 GMT-0500 (Eastern Standard Time),1430379.7999999523,A,whea,I,a,146,1,4899.899999856949,1425479.9000000954,9038,WL,C,8.0
2,32.867000102996826,learn,27132.999897003174,Mon Dec 01 2025 11:44:08 GMT-0500 (Eastern Standard Time),1430513.2999999523,A,wheat,I,t,118,1,5033.399999856949,1425479.9000000954,9038,WL,C,8.0
2,33.367000102996826,learn,26632.999897003174,Mon Dec 01 2025 11:44:08 GMT-0500 (Eastern Standard Time),1431012.7999999523,A,wheatenter,I,enter,481,1,5532.899999856949,1425479.9000000954,9038,WL,C,8.0
2,35.95099997520447,learn,24049.000024795532,Mon Dec 01 2025 11:44:08 GMT-0500 (Eastern Standard Time),1433596.5999999046,A,d,I,d,2560,1,2583.5,1431013.0999999046,9038,WL,C,9.0
2,36.40000009536743,learn,23599.99990463257,Mon Dec 01 2025 11:44:08 GMT-0500 (Eastern Standard Time),1434046.2999999523,A,,I,backspace,439,1,3033.2000000476837,1431013.0999999046,9038,WL,C,9.0
2,36.56700015068054,learn,23432.999849319458,Mon Dec 01 2025 11:44:08 GMT-0500 (Eastern Standard Time),1434213.2000000477,A,s,I,s,149,1,3200.100000143051,1431013.0999999046,9038,WL,C,9.0
2,36.717000007629395,learn,23282.999992370605,Mon Dec 01 2025 11:44:08 GMT-0500 (Eastern Standard Time),1434363.2999999523,A,su,I,u,117,1,3350.2000000476837,1431013.0999999046,9038,WL,C,9.0
2,37.00099992752075,learn,22999.000072479248,Mon Dec 01 2025 11:44:08 GMT-0500 (Eastern Standard Time),1434646.5999999046,A,sug,I,g,255,1,3633.5,1431013.0999999046,9038,WL,C,9.0
2,37.33400011062622,learn,22665.99988937378,Mon Dec 01 2025 11:44:08 GMT-0500 (Eastern Standard Time),1434980.0999999046,A,suga,I,a,314,1,3967.0,1431013.0999999046,9038,WL,C,9.0
2,37.617000102996826,learn,22382.999897003174,Mon Dec 01 2025 11:44:08 GMT-0500 (Eastern Standard Time),1435263.2999999523,A,sugar,I,r,270,1,4250.200000047684,1431013.0999999046,9038,WL,C,9.0
2,38.33299994468689,learn,21667.00005531311,Mon Dec 01 2025 11:44:08 GMT-0500 (Eastern Standard Time),1435979.4000000954,A,sugarenter,I,enter,691,1,4966.300000190735,1431013.0999999046,9038,WL,C,9.0
2,44.83400011062622,learn,15165.99988937378,Mon Dec 01 2025 11:44:08 GMT-0500 (Eastern Standard Time),1442479.9000000954,A,l,I,l,6490,1,6500.100000143051,1435979.7999999523,9038,WL,C,10.0
2,45.051000118255615,learn,14948.999881744385,Mon Dec 01 2025 11:44:08 GMT-0500 (Eastern Standard Time),1442696.5999999046,A,le,I,e,193,1,6716.799999952316,1435979.7999999523,9038,WL,C,10.0
2,45.217000007629395,learn,14782.999992370605,Mon Dec 01 2025 11:44:08 GMT-0500 (Eastern Standard Time),1442863.0999999046,A,let,I,t,155,1,6883.299999952316,1435979.7999999523,9038,WL,C,10.0
2,45.43400001525879,learn,14565.999984741211,Mon Dec 01 2025 11:44:08 GMT-0500 (Eastern Standard Time),1443079.9000000954,A,lett,I,t,196,1,7100.100000143051,1435979.7999999523,9038,WL,C,10.0
2,45.56700015068054,learn,14432.999849319458,Mon Dec 01 2025 11:44:08 GMT-0500 (Eastern Standard Time),1443213.0,A,lette,I,e,123,1,7233.200000047684,1435979.7999999523,9038,WL,C,10.0
2,45.66700005531311,learn,14332.99994468689,Mon Dec 01 2025 11:44:08 GMT-0500 (Eastern Standard Time),1443313.0,A,letter,I,r,86,1,7333.200000047684,1435979.7999999523,9038,WL,C,10.0
2,46.217000007629395,learn,13782.999992370605,Mon Dec 01 2025 11:44:08 GMT-0500 (Eastern Standard Time),1443862.7999999523,A,letterenter,I,enter,519,1,7883.0,1435979.7999999523,9038,WL,C,10.0
2,60.01699995994568,learn,-16.99995994567871,Mon Dec 01 2025 11:44:08 GMT-0500 (Eastern Standard Time),1457663.2000000477,A,None,I,None,13794,1,13800.200000047684,1443863.0,9038,WL,C,11.0
3,0.8340001106262207,learn,59165.99988937378,Mon Dec 01 2025 11:44:08 GMT-0500 (Eastern Standard Time),1534946.5999999046,A,b,I,b,818,1,833.0,1534113.5999999046,9038,WL,C,1.0
3,0.9670000076293945,learn,59032.999992370605,Mon Dec 01 2025 11:44:08 GMT-0500 (Eastern Standard Time),1535079.7999999523,A,bo,I,o,112,1,966.2000000476837,1534113.5999999046,9038,WL,C,1.0
3,1.2669999599456787,learn,58733.00004005432,Mon Dec 01 2025 11:44:08 GMT-0500 (Eastern Standard Time),1535379.7999999523,A,bod,I,d,283,1,1266.2000000476837,1534113.5999999046,9038,WL,C,1.0
3,1.5169999599456787,learn,58483.00004005432,Mon Dec 01 2025 11:44:08 GMT-0500 (Eastern Standard Time),1535629.5,A,body,I,y,239,1,1515.9000000953674,1534113.5999999046,9038,WL,C,1.0
3,2.433000087738037,learn,57566.99991226196,Mon Dec 01 2025 11:44:08 GMT-0500 (Eastern Standard Time),1536546.0,A,bodyenter,I,enter,899,1,2432.4000000953674,1534113.5999999046,9038,WL,C,1.0
3,2.8340001106262207,learn,57165.99988937378,Mon Dec 01 2025 11:44:08 GMT-0500 (Eastern Standard Time),1536946.5999999046,A,c,I,c,388,1,400.2999999523163,1536546.2999999523,9038,WL,C,2.0
3,2.9830000400543213,learn,57016.99995994568,Mon Dec 01 2025 11:44:08 GMT-0500 (Eastern Standard Time),1537096.4000000954,A,ca,I,a,126,1,550.1000001430511,1536546.2999999523,9038,WL,C,2.0
3,3.367000102996826,learn,56632.999897003174,Mon Dec 01 2025 11:44:08 GMT-0500 (Eastern Standard Time),1537479.7999999523,A,cam,I,m,363,1,933.5,1536546.2999999523,9038,WL,C,2.0
3,3.7170000076293945,learn,56282.999992370605,Mon Dec 01 2025 11:44:08 GMT-0500 (Eastern Standard Time),1537829.7999999523,A,camp,I,p,329,1,1283.5,1536546.2999999523,9038,WL,C,2.0
3,4.400000095367432,learn,55599.99990463257,Mon Dec 01 2025 11:44:08 GMT-0500 (Eastern Standard Time),1538512.7000000477,A,campenter,I,enter,667,1,1966.4000000953674,1536546.2999999523,9038,WL,C,2.0
3,4.91700005531311,learn,55082.99994468689,Mon Dec 01 2025 11:44:08 GMT-0500 (Eastern Standard Time),1539029.7999999523,A,t,I,t,501,1,516.7999999523163,1538513.0,9038,WL,C,3.0
3,5.067000150680542,learn,54932.99984931946,Mon Dec 01 2025 11:44:08 GMT-0500 (Eastern Standard Time),1539179.7000000477,A,to,I,o,125,1,666.7000000476837,1538513.0,9038,WL,C,3.0
3,5.183000087738037,learn,54816.99991226196,Mon Dec 01 2025 11:44:08 GMT-0500 (Eastern Standard Time),1539296.4000000954,A,tow,I,w,103,1,783.4000000953674,1538513.0,9038,WL,C,3.0
3,5.3500001430511475,learn,54649.99985694885,Mon Dec 01 2025 11:44:08 GMT-0500 (Eastern Standard Time),1539463.0,A,towe,I,e,145,1,950.0,1538513.0,9038,WL,C,3.0
3,5.549999952316284,learn,54450.000047683716,Mon Dec 01 2025 11:44:08 GMT-0500 (Eastern Standard Time),1539663.0,A,tower,I,r,188,1,1150.0,1538513.0,9038,WL,C,3.0
3,5.966000080108643,learn,54033.99991989136,Mon Dec 01 2025 11:44:08 GMT-0500 (Eastern Standard Time),1540079.2999999523,A,towerenter,I,enter,398,1,1566.2999999523163,1538513.0,9038,WL,C,3.0
3,6.25,learn,53750.0,Mon Dec 01 2025 11:44:08 GMT-0500 (Eastern Standard Time),1540363.0999999046,A,w,I,w,262,1,283.39999985694885,1540079.7000000477,9038,WL,C,4.0
3,6.41700005531311,learn,53582.99994468689,Mon Dec 01 2025 11:44:08 GMT-0500 (Eastern Standard Time),1540529.9000000954,A,wh,I,h,151,1,450.2000000476837,1540079.7000000477,9038,WL,C,4.0
3,6.549999952316284,learn,53450.000047683716,Mon Dec 01 2025 11:44:08 GMT-0500 (Eastern Standard Time),1540663.0999999046,A,whe,I,e,102,1,583.3999998569489,1540079.7000000477,9038,WL,C,4.0
3,6.867000102996826,learn,53132.999897003174,Mon Dec 01 2025 11:44:08 GMT-0500 (Eastern Standard Time),1540979.7000000477,A,whea,I,a,290,1,900.0,1540079.7000000477,9038,WL,C,4.0
3,7.08299994468689,learn,52917.00005531311,Mon Dec 01 2025 11:44:08 GMT-0500 (Eastern Standard Time),1541196.2999999523,A,wheat,I,t,191,1,1116.5999999046326,1540079.7000000477,9038,WL,C,4.0
3,7.58299994468689,learn,52417.00005531311,Mon Dec 01 2025 11:44:08 GMT-0500 (Eastern Standard Time),1541695.9000000954,A,wheatenter,I,enter,485,1,1616.2000000476837,1540079.7000000477,9038,WL,C,4.0
3,7.983000040054321,learn,52016.99995994568,Mon Dec 01 2025 11:44:08 GMT-0500 (Eastern Standard Time),1542096.5,A,s,I,s,390,1,400.2000000476837,1541696.2999999523,9038,WL,C,5.0
3,8.16700005531311,learn,51832.99994468689,Mon Dec 01 2025 11:44:08 GMT-0500 (Eastern Standard Time),1542279.7999999523,A,su,I,u,161,1,583.5,1541696.2999999523,9038,WL,C,5.0
3,8.467000007629395,learn,51532.999992370605,Mon Dec 01 2025 11:44:08 GMT-0500 (Eastern Standard Time),1542579.7999999523,A,sug,I,g,282,1,883.5,1541696.2999999523,9038,WL,C,5.0
3,8.650000095367432,learn,51349.99990463257,Mon Dec 01 2025 11:44:08 GMT-0500 (Eastern Standard Time),1542763.0999999046,A,suga,I,a,158,1,1066.7999999523163,1541696.2999999523,9038,WL,C,5.0
3,8.782999992370605,learn,51217.000007629395,Mon Dec 01 2025 11:44:08 GMT-0500 (Eastern Standard Time),1542896.5,A,sugar,I,r,111,1,1200.2000000476837,1541696.2999999523,9038,WL,C,5.0
3,9.633000135421753,learn,50366.99986457825,Mon Dec 01 2025 11:44:08 GMT-0500 (Eastern Standard Time),1543746.0,A,sugarenter,I,enter,825,1,2049.7000000476837,1541696.2999999523,9038,WL,C,5.0
3,9.950000047683716,learn,50049.999952316284,Mon Dec 01 2025 11:44:08 GMT-0500 (Eastern Standard Time),1544063.0999999046,A,s,I,s,307,1,316.69999980926514,1543746.4000000954,9038,WL,C,6.0
3,10.117000102996826,learn,49882.999897003174,Mon Dec 01 2025 11:44:08 GMT-0500 (Eastern Standard Time),1544230.0999999046,A,sh,I,h,147,1,483.69999980926514,1543746.4000000954,9038,WL,C,6.0
3,10.183000087738037,learn,49816.99991226196,Mon Dec 01 2025 11:44:08 GMT-0500 (Eastern Standard Time),1544295.9000000954,A,sho,I,o,33,1,549.5,1543746.4000000954,9038,WL,C,6.0
3,10.467000007629395,learn,49532.999992370605,Mon Dec 01 2025 11:44:08 GMT-0500 (Eastern Standard Time),1544579.7999999523,A,shor,I,r,268,1,833.3999998569489,1543746.4000000954,9038,WL,C,6.0
3,10.983000040054321,learn,49016.99995994568,Mon Dec 01 2025 11:44:08 GMT-0500 (Eastern Standard Time),1545096.5,A,shore,I,e,494,1,1350.0999999046326,1543746.4000000954,9038,WL,C,6.0
3,11.716000080108643,learn,48283.99991989136,Mon Dec 01 2025 11:44:08 GMT-0500 (Eastern Standard Time),1545829.2999999523,A,shoreenter,I,enter,711,1,2082.899999856949,1543746.4000000954,9038,WL,C,6.0
3,12.100000143051147,learn,47899.99985694885,Mon Dec 01 2025 11:44:08 GMT-0500 (Eastern Standard Time),1546213.0999999046,A,c,I,c,368,1,383.5,1545829.5999999046,9038,WL,C,7.0
3,12.266999959945679,learn,47733.00004005432,Mon Dec 01 2025 11:44:08 GMT-0500 (Eastern Standard Time),1546379.9000000954,A,ca,I,a,141,1,550.3000001907349,1545829.5999999046,9038,WL,C,7.0
3,12.41700005531311,learn,47582.99994468689,Mon Dec 01 2025 11:44:08 GMT-0500 (Eastern Standard Time),1546529.7999999523,A,cat,I,t,135,1,700.2000000476837,1545829.5999999046,9038,WL,C,7.0
3,12.633000135421753,learn,47366.99986457825,Mon Dec 01 2025 11:44:08 GMT-0500 (Eastern Standard Time),1546746.5,A,catt,I,t,192,1,916.9000000953674,1545829.5999999046,9038,WL,C,7.0
3,12.766999959945679,learn,47233.00004005432,Mon Dec 01 2025 11:44:08 GMT-0500 (Eastern Standard Time),1546879.7000000477,A,cattl,I,l,120,1,1050.1000001430511,1545829.5999999046,9038,WL,C,7.0
3,12.91700005531311,learn,47082.99994468689,Mon Dec 01 2025 11:44:08 GMT-0500 (Eastern Standard Time),1547029.7999999523,A,cattle,I,e,130,1,1200.2000000476837,1545829.5999999046,9038,WL,C,7.0
3,13.315999984741211,learn,46684.00001525879,Mon Dec 01 2025 11:44:08 GMT-0500 (Eastern Standard Time),1547429.4000000954,A,cattleenter,I,enter,371,1,1599.8000001907349,1545829.5999999046,9038,WL,C,7.0
3,18.48300004005432,learn,41516.99995994568,Mon Dec 01 2025 11:44:08 GMT-0500 (Eastern Standard Time),1552596.5,A,b,I,b,5152,1,5166.700000047684,1547429.7999999523,9038,WL,C,8.0
3,18.76699995994568,learn,41233.00004005432,Mon Dec 01 2025 11:44:08 GMT-0500 (Eastern Standard Time),1552879.7999999523,A,bo,I,o,270,1,5450.0,1547429.7999999523,9038,WL,C,8.0
3,19.049999952316284,learn,40950.000047683716,Mon Dec 01 2025 11:44:08 GMT-0500 (Eastern Standard Time),1553163.2000000477,A,boy,I,y,259,1,5733.400000095367,1547429.7999999523,9038,WL,C,8.0
3,19.782999992370605,learn,40217.000007629395,Mon Dec 01 2025 11:44:08 GMT-0500 (Eastern Standard Time),1553896.0,A,boyenter,I,enter,710,1,6466.200000047684,1547429.7999999523,9038,WL,C,8.0
3,30.367000102996826,learn,29632.999897003174,Mon Dec 01 2025 11:44:08 GMT-0500 (Eastern Standard Time),1564479.7000000477,A,l,I,l,10573,1,10583.299999952316,1553896.4000000954,9038,WL,C,9.0
3,31.0,learn,29000.0,Mon Dec 01 2025 11:44:08 GMT-0500 (Eastern Standard Time),1565112.7000000477,A,le,I,e,609,1,11216.299999952316,1553896.4000000954,9038,WL,C,9.0
3,31.299000024795532,learn,28700.999975204468,Mon Dec 01 2025 11:44:08 GMT-0500 (Eastern Standard Time),1565412.2999999523,A,let,I,t,283,1,11515.899999856949,1553896.4000000954,9038,WL,C,9.0
3,31.499000072479248,learn,28500.999927520752,Mon Dec 01 2025 11:44:08 GMT-0500 (Eastern Standard Time),1565612.5,A,lett,I,t,193,1,11716.099999904633,1553896.4000000954,9038,WL,C,9.0
3,31.66700005531311,learn,28332.99994468689,Mon Dec 01 2025 11:44:08 GMT-0500 (Eastern Standard Time),1565779.7000000477,A,lette,I,e,152,1,11883.299999952316,1553896.4000000954,9038,WL,C,9.0
3,31.76699995994568,learn,28233.00004005432,Mon Dec 01 2025 11:44:08 GMT-0500 (Eastern Standard Time),1565879.7999999523,A,letter,I,r,70,1,11983.399999856949,1553896.4000000954,9038,WL,C,9.0
3,32.83299994468689,learn,27167.00005531311,Mon Dec 01 2025 11:44:08 GMT-0500 (Eastern Standard Time),1566946.0,A,letterenter,I,enter,1048,1,13049.599999904633,1553896.4000000954,9038,WL,C,9.0
3,48.43300008773804,learn,11566.999912261963,Mon Dec 01 2025 11:44:08 GMT-0500 (Eastern Standard Time),1582546.4000000954,A,f,I,f,15588,1,15599.900000095367,1566946.5,9038,WL,C,10.0
3,48.782999992370605,learn,11217.000007629395,Mon Dec 01 2025 11:44:08 GMT-0500 (Eastern Standard Time),1582896.4000000954,A,fl,I,l,335,1,15949.900000095367,1566946.5,9038,WL,C,10.0
3,48.91700005531311,learn,11082.99994468689,Mon Dec 01 2025 11:44:08 GMT-0500 (Eastern Standard Time),1583029.7999999523,A,fla,I,a,106,1,16083.299999952316,1566946.5,9038,WL,C,10.0
3,49.88300013542175,learn,10116.999864578247,Mon Dec 01 2025 11:44:08 GMT-0500 (Eastern Standard Time),1583996.4000000954,A,flag,I,g,930,1,17049.900000095367,1566946.5,9038,WL,C,10.0
3,50.21600008010864,learn,9783.999919891357,Mon Dec 01 2025 11:44:08 GMT-0500 (Eastern Standard Time),1584329.2999999523,A,flagenter,I,enter,308,1,17382.799999952316,1566946.5,9038,WL,C,10.0
3,60.01699995994568,learn,-16.99995994567871,Mon Dec 01 2025 11:44:08 GMT-0500 (Eastern Standard Time),1594129.7000000477,A,None,I,None,9794,1,9800.100000143051,1584329.5999999046,9038,WL,C,11.0
4,1.6500000953674316,learn,58349.99990463257,Mon Dec 01 2025 11:44:08 GMT-0500 (Eastern Standard Time),1669746.5,A,t,I,t,1635,1,1649.5999999046326,1668096.9000000954,9038,WL,C,1.0
4,1.9670000076293945,learn,58032.999992370605,Mon Dec 01 2025 11:44:08 GMT-0500 (Eastern Standard Time),1670062.5999999046,A,to,I,o,305,1,1965.6999998092651,1668096.9000000954,9038,WL,C,1.0
4,2.117000102996826,learn,57882.999897003174,Mon Dec 01 2025 11:44:08 GMT-0500 (Eastern Standard Time),1670212.9000000954,A,tow,I,w,134,1,2116.0,1668096.9000000954,9038,WL,C,1.0
4,2.2669999599456787,learn,57733.00004005432,Mon Dec 01 2025 11:44:08 GMT-0500 (Eastern Standard Time),1670363.0,A,towe,I,e,125,1,2266.0999999046326,1668096.9000000954,9038,WL,C,1.0
4,2.4670000076293945,learn,57532.999992370605,Mon Dec 01 2025 11:44:08 GMT-0500 (Eastern Standard Time),1670563.0,A,tower,I,r,177,1,2466.0999999046326,1668096.9000000954,9038,WL,C,1.0
4,3.0169999599456787,learn,56983.00004005432,Mon Dec 01 2025 11:44:08 GMT-0500 (Eastern Standard Time),1671112.5,A,towerenter,I,enter,526,1,3015.5999999046326,1668096.9000000954,9038,WL,C,1.0
4,3.316999912261963,learn,56683.00008773804,Mon Dec 01 2025 11:44:08 GMT-0500 (Eastern Standard Time),1671413.0,A,w,I,w,285,1,300.09999990463257,1671112.9000000954,9038,WL,C,2.0
4,3.549999952316284,learn,56450.000047683716,Mon Dec 01 2025 11:44:08 GMT-0500 (Eastern Standard Time),1671646.2999999523,A,wh,I,h,220,1,533.3999998569489,1671112.9000000954,9038,WL,C,2.0
4,3.7339999675750732,learn,56266.00003242493,Mon Dec 01 2025 11:44:08 GMT-0500 (Eastern Standard Time),1671829.7000000477,A,whe,I,e,165,1,716.7999999523163,1671112.9000000954,9038,WL,C,2.0
4,4.033999919891357,learn,55966.00008010864,Mon Dec 01 2025 11:44:08 GMT-0500 (Eastern Standard Time),1672129.7000000477,A,whea,I,a,275,1,1016.7999999523163,1671112.9000000954,9038,WL,C,2.0
4,4.233999967575073,learn,55766.00003242493,Mon Dec 01 2025 11:44:08 GMT-0500 (Eastern Standard Time),1672329.7000000477,A,wheat,I,t,177,1,1216.7999999523163,1671112.9000000954,9038,WL,C,2.0
4,4.549999952316284,learn,55450.000047683716,Mon Dec 01 2025 11:44:08 GMT-0500 (Eastern Standard Time),1672645.7999999523,A,wheatenter,I,enter,295,1,1532.8999998569489,1671112.9000000954,9038,WL,C,2.0
4,4.849999904632568,learn,55150.00009536743,Mon Dec 01 2025 11:44:08 GMT-0500 (Eastern Standard Time),1672946.2999999523,A,s,I,s,288,1,300.09999990463257,1672646.2000000477,9038,WL,C,3.0
4,5.016999959945679,learn,54983.00004005432,Mon Dec 01 2025 11:44:08 GMT-0500 (Eastern Standard Time),1673113.0,A,su,I,u,145,1,466.7999999523163,1672646.2000000477,9038,WL,C,3.0
4,5.283999919891357,learn,54716.00008010864,Mon Dec 01 2025 11:44:08 GMT-0500 (Eastern Standard Time),1673379.5999999046,A,sug,I,g,240,1,733.3999998569489,1672646.2000000477,9038,WL,C,3.0
4,5.4670000076293945,learn,54532.999992370605,Mon Dec 01 2025 11:44:08 GMT-0500 (Eastern Standard Time),1673563.0,A,suga,I,a,159,1,916.7999999523163,1672646.2000000477,9038,WL,C,3.0
4,5.7170000076293945,learn,54282.999992370605,Mon Dec 01 2025 11:44:08 GMT-0500 (Eastern Standard Time),1673812.7999999523,A,sugar,I,r,223,1,1166.5999999046326,1672646.2000000477,9038,WL,C,3.0
4,6.617000102996826,learn,53382.999897003174,Mon Dec 01 2025 11:44:08 GMT-0500 (Eastern Standard Time),1674712.5,A,sugarenter,I,enter,876,1,2066.2999999523163,1672646.2000000477,9038,WL,C,3.0
4,7.0,learn,53000.0,Mon Dec 01 2025 11:44:08 GMT-0500 (Eastern Standard Time),1675096.2999999523,A,q,I,q,365,1,383.5,1674712.7999999523,9038,WL,C,4.0
4,7.150000095367432,learn,52849.99990463257,Mon Dec 01 2025 11:44:08 GMT-0500 (Eastern Standard Time),1675246.2000000477,A,qu,I,u,137,1,533.4000000953674,1674712.7999999523,9038,WL,C,4.0
4,7.384000062942505,learn,52615.999937057495,Mon Dec 01 2025 11:44:08 GMT-0500 (Eastern Standard Time),1675479.5,A,que,I,e,212,1,766.7000000476837,1674712.7999999523,9038,WL,C,4.0
4,7.617000102996826,learn,52382.999897003174,Mon Dec 01 2025 11:44:08 GMT-0500 (Eastern Standard Time),1675712.7999999523,A,quee,I,e,210,1,1000.0,1674712.7999999523,9038,WL,C,4.0
4,7.867000102996826,learn,52132.999897003174,Mon Dec 01 2025 11:44:08 GMT-0500 (Eastern Standard Time),1675963.0,A,queen,I,n,222,1,1250.2000000476837,1674712.7999999523,9038,WL,C,4.0
4,8.533999919891357,learn,51466.00008010864,Mon Dec 01 2025 11:44:08 GMT-0500 (Eastern Standard Time),1676629.5999999046,A,queenb,I,b,638,1,1916.7999999523163,1674712.7999999523,9038,WL,C,4.0
4,8.650000095367432,learn,51349.99990463257,Mon Dec 01 2025 11:44:08 GMT-0500 (Eastern Standard Time),1676746.4000000954,A,queenbo,I,o,94,1,2033.6000001430511,1674712.7999999523,9038,WL,C,4.0
4,9.099999904632568,learn,50900.00009536743,Mon Dec 01 2025 11:44:08 GMT-0500 (Eastern Standard Time),1677196.2999999523,A,queenb,I,backspace,424,1,2483.5,1674712.7999999523,9038,WL,C,4.0
4,9.266000032424927,learn,50733.99996757507,Mon Dec 01 2025 11:44:08 GMT-0500 (Eastern Standard Time),1677362.2999999523,A,queen,I,backspace,148,1,2649.5,1674712.7999999523,9038,WL,C,4.0
4,10.032999992370605,learn,49967.000007629395,Mon Dec 01 2025 11:44:08 GMT-0500 (Eastern Standard Time),1678129.2000000477,A,queenenter,I,enter,756,1,3416.4000000953674,1674712.7999999523,9038,WL,C,4.0
4,10.783999919891357,learn,49216.00008010864,Mon Dec 01 2025 11:44:08 GMT-0500 (Eastern Standard Time),1678879.7000000477,A,b,I,b,740,1,750.2000000476837,1678129.5,9038,WL,C,5.0
4,10.950000047683716,learn,49049.999952316284,Mon Dec 01 2025 11:44:08 GMT-0500 (Eastern Standard Time),1679046.2999999523,A,bo,I,o,146,1,916.7999999523163,1678129.5,9038,WL,C,5.0
4,11.132999897003174,learn,48867.000102996826,Mon Dec 01 2025 11:44:08 GMT-0500 (Eastern Standard Time),1679229.4000000954,A,boy,I,y,172,1,1099.9000000953674,1678129.5,9038,WL,C,5.0
4,11.966000080108643,learn,48033.99991989136,Mon Dec 01 2025 11:44:08 GMT-0500 (Eastern Standard Time),1680062.5,A,boyenter,I,enter,815,1,1933.0,1678129.5,9038,WL,C,5.0
4,12.316999912261963,learn,47683.00008773804,Mon Dec 01 2025 11:44:08 GMT-0500 (Eastern Standard Time),1680412.5999999046,A,c,I,c,343,1,349.69999980926514,1680062.9000000954,9038,WL,C,6.0
4,12.533999919891357,learn,47466.00008010864,Mon Dec 01 2025 11:44:08 GMT-0500 (Eastern Standard Time),1680629.7999999523,A,ca,I,a,198,1,566.8999998569489,1680062.9000000954,9038,WL,C,6.0
4,13.08400011062622,learn,46915.99988937378,Mon Dec 01 2025 11:44:08 GMT-0500 (Eastern Standard Time),1681179.5999999046,A,cam,I,m,524,1,1116.6999998092651,1680062.9000000954,9038,WL,C,6.0
4,13.634000062942505,learn,46365.999937057495,Mon Dec 01 2025 11:44:08 GMT-0500 (Eastern Standard Time),1681729.5999999046,A,camp,I,p,534,1,1666.6999998092651,1680062.9000000954,9038,WL,C,6.0
4,14.200000047683716,learn,45799.999952316284,Mon Dec 01 2025 11:44:08 GMT-0500 (Eastern Standard Time),1682295.7999999523,A,campenter,I,enter,540,1,2232.899999856949,1680062.9000000954,9038,WL,C,6.0
4,15.25,learn,44750.0,Mon Dec 01 2025 11:44:08 GMT-0500 (Eastern Standard Time),1683346.4000000954,A,c,I,c,1038,1,1050.3000001907349,1682296.0999999046,9038,WL,C,7.0
4,15.41700005531311,learn,44582.99994468689,Mon Dec 01 2025 11:44:08 GMT-0500 (Eastern Standard Time),1683513.0,A,ca,I,a,143,1,1216.9000000953674,1682296.0999999046,9038,WL,C,7.0
4,15.532999992370605,learn,44467.000007629395,Mon Dec 01 2025 11:44:08 GMT-0500 (Eastern Standard Time),1683629.4000000954,A,cat,I,t,97,1,1333.3000001907349,1682296.0999999046,9038,WL,C,7.0
4,15.717000007629395,learn,44282.999992370605,Mon Dec 01 2025 11:44:08 GMT-0500 (Eastern Standard Time),1683813.0,A,catt,I,t,156,1,1516.9000000953674,1682296.0999999046,9038,WL,C,7.0
4,15.816999912261963,learn,44183.00008773804,Mon Dec 01 2025 11:44:08 GMT-0500 (Eastern Standard Time),1683912.9000000954,A,cattl,I,l,70,1,1616.8000001907349,1682296.0999999046,9038,WL,C,7.0
4,15.933000087738037,learn,44066.99991226196,Mon Dec 01 2025 11:44:08 GMT-0500 (Eastern Standard Time),1684029.2999999523,A,cattle,I,e,98,1,1733.2000000476837,1682296.0999999046,9038,WL,C,7.0
4,16.25,learn,43750.0,Mon Dec 01 2025 11:44:08 GMT-0500 (Eastern Standard Time),1684345.7999999523,A,cattleenter,I,enter,292,1,2049.7000000476837,1682296.0999999046,9038,WL,C,7.0
4,16.700000047683716,learn,43299.999952316284,Mon Dec 01 2025 11:44:08 GMT-0500 (Eastern Standard Time),1684796.2999999523,A,l,I,l,444,1,450.2000000476837,1684346.0999999046,9038,WL,C,8.0
4,16.867000102996826,learn,43132.999897003174,Mon Dec 01 2025 11:44:08 GMT-0500 (Eastern Standard Time),1684963.0999999046,A,le,I,e,147,1,617.0,1684346.0999999046,9038,WL,C,8.0
4,16.983999967575073,learn,43016.00003242493,Mon Dec 01 2025 11:44:08 GMT-0500 (Eastern Standard Time),1685079.7000000477,A,let,I,t,86,1,733.6000001430511,1684346.0999999046,9038,WL,C,8.0
4,17.16700005531311,learn,42832.99994468689,Mon Dec 01 2025 11:44:08 GMT-0500 (Eastern Standard Time),1685262.9000000954,A,lett,I,t,162,1,916.8000001907349,1684346.0999999046,9038,WL,C,8.0
4,17.316999912261963,learn,42683.00008773804,Mon Dec 01 2025 11:44:08 GMT-0500 (Eastern Standard Time),1685412.7999999523,A,lette,I,e,130,1,1066.7000000476837,1684346.0999999046,9038,WL,C,8.0
4,17.41700005531311,learn,42582.99994468689,Mon Dec 01 2025 11:44:08 GMT-0500 (Eastern Standard Time),1685513.0,A,letter,I,r,77,1,1166.9000000953674,1684346.0999999046,9038,WL,C,8.0
4,17.782999992370605,learn,42217.000007629395,Mon Dec 01 2025 11:44:08 GMT-0500 (Eastern Standard Time),1685879.2000000477,A,letterenter,I,enter,335,1,1533.1000001430511,1684346.0999999046,9038,WL,C,8.0
4,20.58400011062622,learn,39415.99988937378,Mon Dec 01 2025 11:44:08 GMT-0500 (Eastern Standard Time),1688679.5999999046,A,f,I,f,2783,1,2800.0999999046326,1685879.5,9038,WL,C,9.0
4,20.73300004005432,learn,39266.99995994568,Mon Dec 01 2025 11:44:08 GMT-0500 (Eastern Standard Time),1688829.5,A,fl,I,l,139,1,2950.0,1685879.5,9038,WL,C,9.0
4,20.90000009536743,learn,39099.99990463257,Mon Dec 01 2025 11:44:08 GMT-0500 (Eastern Standard Time),1688996.4000000954,A,fla,I,a,141,1,3116.9000000953674,1685879.5,9038,WL,C,9.0
4,21.283999919891357,learn,38716.00008010864,Mon Dec 01 2025 11:44:08 GMT-0500 (Eastern Standard Time),1689379.5999999046,A,flag,I,g,365,1,3500.0999999046326,1685879.5,9038,WL,C,9.0
4,21.700000047683716,learn,38299.999952316284,Mon Dec 01 2025 11:44:08 GMT-0500 (Eastern Standard Time),1689795.7999999523,A,flagenter,I,enter,397,1,3916.2999999523163,1685879.5,9038,WL,C,9.0
4,23.450000047683716,learn,36549.999952316284,Mon Dec 01 2025 11:44:08 GMT-0500 (Eastern Standard Time),1691546.2000000477,A,n,I,n,1730,1,1750.0,1689796.2000000477,9038,WL,C,10.0
4,23.634000062942505,learn,36365.999937057495,Mon Dec 01 2025 11:44:08 GMT-0500 (Eastern Standard Time),1691729.7000000477,A,na,I,a,167,1,1933.5,1689796.2000000477,9038,WL,C,10.0
4,23.799999952316284,learn,36200.000047683716,Mon Dec 01 2025 11:44:08 GMT-0500 (Eastern Standard Time),1691896.2999999523,A,nai,I,i,135,1,2100.0999999046326,1689796.2000000477,9038,WL,C,10.0
4,23.98300004005432,learn,36016.99995994568,Mon Dec 01 2025 11:44:08 GMT-0500 (Eastern Standard Time),1692079.5,A,nail,I,l,170,1,2283.2999999523163,1689796.2000000477,9038,WL,C,10.0
4,24.40000009536743,learn,35599.99990463257,Mon Dec 01 2025 11:44:08 GMT-0500 (Eastern Standard Time),1692495.7999999523,A,nailenter,I,enter,393,1,2699.5999999046326,1689796.2000000477,9038,WL,C,10.0
4,39.23399996757507,learn,20766.000032424927,Mon Dec 01 2025 11:44:08 GMT-0500 (Eastern Standard Time),1707329.5999999046,A,b,I,b,14822,1,14833.5,1692496.0999999046,9038,WL,C,11.0
4,39.51699995994568,learn,20483.00004005432,Mon Dec 01 2025 11:44:08 GMT-0500 (Eastern Standard Time),1707612.5999999046,A,bo,I,o,270,1,15116.5,1692496.0999999046,9038,WL,C,11.0
4,39.717000007629395,learn,20282.999992370605,Mon Dec 01 2025 11:44:08 GMT-0500 (Eastern Standard Time),1707813.0,A,boy,I,y,182,1,15316.900000095367,1692496.0999999046,9038,WL,C,11.0
4,40.365999937057495,learn,19634.000062942505,Mon Dec 01 2025 11:44:08 GMT-0500 (Eastern Standard Time),1708462.4000000954,A,boyenter,I,enter,636,1,15966.300000190735,1692496.0999999046,9038,WL,C,11.0
4,48.0,learn,12000.0,Mon Dec 01 2025 11:44:08 GMT-0500 (Eastern Standard Time),1716096.2999999523,A,b,I,b,7623,1,7633.599999904633,1708462.7000000477,9038,WL,C,12.0
4,49.03399991989136,learn,10966.000080108643,Mon Dec 01 2025 11:44:08 GMT-0500 (Eastern Standard Time),1717129.5999999046,A,bo,I,o,1010,1,8666.899999856949,1708462.7000000477,9038,WL,C,12.0
4,49.23399996757507,learn,10766.000032424927,Mon Dec 01 2025 11:44:08 GMT-0500 (Eastern Standard Time),1717329.5999999046,A,bod,I,d,184,1,8866.899999856949,1708462.7000000477,9038,WL,C,12.0
4,49.450000047683716,learn,10549.999952316284,Mon Dec 01 2025 11:44:08 GMT-0500 (Eastern Standard Time),1717546.4000000954,A,body,I,y,187,1,9083.700000047684,1708462.7000000477,9038,WL,C,12.0
4,49.90000009536743,learn,10099.999904632568,Mon Dec 01 2025 11:44:08 GMT-0500 (Eastern Standard Time),1717995.7999999523,A,bodyenter,I,enter,419,1,9533.099999904633,1708462.7000000477,9038,WL,C,12.0
4,60.01699995994568,learn,-16.99995994567871,Mon Dec 01 2025 11:44:08 GMT-0500 (Eastern Standard Time),1728112.9000000954,A,None,I,None,10111,1,10116.700000047684,1717996.2000000477,9038,WL,C,13.0
5,1.934000015258789,learn,60000.0,Mon Dec 01 2025 11:44:08 GMT-0500 (Eastern Standard Time),1801363.0999999046,A,t,I,t,1918,1,1933.1999998092651,1799429.9000000954,9038,WL,C,1.0
5,2.9670000076293945,learn,60000.0,Mon Dec 01 2025 11:44:08 GMT-0500 (Eastern Standard Time),1802396.2000000477,A,to,I,o,1005,1,2966.2999999523163,1799429.9000000954,9038,WL,C,1.0
5,3.251000165939331,learn,60000.0,Mon Dec 01 2025 11:44:08 GMT-0500 (Eastern Standard Time),1802679.5999999046,A,tow,I,w,263,1,3249.699999809265,1799429.9000000954,9038,WL,C,1.0
5,3.3340001106262207,learn,60000.0,Mon Dec 01 2025 11:44:08 GMT-0500 (Eastern Standard Time),1802762.7999999523,A,towe,I,e,56,1,3332.899999856949,1799429.9000000954,9038,WL,C,1.0
5,3.549999952316284,learn,60000.0,Mon Dec 01 2025 11:44:08 GMT-0500 (Eastern Standard Time),1802979.5,A,tower,I,r,200,1,3549.5999999046326,1799429.9000000954,9038,WL,C,1.0
5,4.383000135421753,learn,60000.0,Mon Dec 01 2025 11:44:08 GMT-0500 (Eastern Standard Time),1803812.4000000954,A,towerenter,I,enter,813,1,4382.5,1799429.9000000954,9038,WL,C,1.0
5,4.834000110626221,learn,60000.0,Mon Dec 01 2025 11:44:08 GMT-0500 (Eastern Standard Time),1804262.7999999523,A,q,I,q,433,1,450.0,1803812.7999999523,9038,WL,C,2.0
5,5.2170000076293945,learn,60000.0,Mon Dec 01 2025 11:44:08 GMT-0500 (Eastern Standard Time),1804646.0999999046,A,qu,I,u,363,1,833.2999999523163,1803812.7999999523,9038,WL,C,2.0
5,5.450000047683716,learn,60000.0,Mon Dec 01 2025 11:44:08 GMT-0500 (Eastern Standard Time),1804879.5,A,que,I,e,220,1,1066.7000000476837,1803812.7999999523,9038,WL,C,2.0
5,5.6000001430511475,learn,60000.0,Mon Dec 01 2025 11:44:08 GMT-0500 (Eastern Standard Time),1805029.5,A,quee,I,e,122,1,1216.7000000476837,1803812.7999999523,9038,WL,C,2.0
5,5.75,learn,60000.0,Mon Dec 01 2025 11:44:08 GMT-0500 (Eastern Standard Time),1805179.4000000954,A,queen,I,n,124,1,1366.6000001430511,1803812.7999999523,9038,WL,C,2.0
5,6.233000040054321,learn,60000.0,Mon Dec 01 2025 11:44:08 GMT-0500 (Eastern Standard Time),1805662.2999999523,A,queenenter,I,enter,462,1,1849.5,1803812.7999999523,9038,WL,C,2.0
5,6.7840001583099365,learn,60000.0,Mon Dec 01 2025 11:44:08 GMT-0500 (Eastern Standard Time),1806213.0,A,w,I,w,535,1,550.4000000953674,1805662.5999999046,9038,WL,C,3.0
5,6.9670000076293945,learn,60000.0,Mon Dec 01 2025 11:44:08 GMT-0500 (Eastern Standard Time),1806396.2000000477,A,wh,I,h,157,1,733.6000001430511,1805662.5999999046,9038,WL,C,3.0
5,7.084000110626221,learn,60000.0,Mon Dec 01 2025 11:44:08 GMT-0500 (Eastern Standard Time),1806512.7999999523,A,whe,I,e,92,1,850.2000000476837,1805662.5999999046,9038,WL,C,3.0
5,7.384000062942505,learn,60000.0,Mon Dec 01 2025 11:44:08 GMT-0500 (Eastern Standard Time),1806812.9000000954,A,whea,I,a,267,1,1150.3000001907349,1805662.5999999046,9038,WL,C,3.0
5,7.41700005531311,learn,60000.0,Mon Dec 01 2025 11:44:08 GMT-0500 (Eastern Standard Time),1806845.7000000477,A,wheat,I,t,18,1,1183.1000001430511,1805662.5999999046,9038,WL,C,3.0
5,8.150000095367432,learn,60000.0,Mon Dec 01 2025 11:44:08 GMT-0500 (Eastern Standard Time),1807579.0,A,wheatenter,I,enter,711,1,1916.4000000953674,1805662.5999999046,9038,WL,C,3.0
5,8.58400011062622,learn,60000.0,Mon Dec 01 2025 11:44:08 GMT-0500 (Eastern Standard Time),1808012.7999999523,A,s,I,s,411,1,433.39999985694885,1807579.4000000954,9038,WL,C,4.0
5,9.350000143051147,learn,60000.0,Mon Dec 01 2025 11:44:08 GMT-0500 (Eastern Standard Time),1808779.5,A,su,I,u,741,1,1200.0999999046326,1807579.4000000954,9038,WL,C,4.0
5,9.684000015258789,learn,60000.0,Mon Dec 01 2025 11:44:08 GMT-0500 (Eastern Standard Time),1809112.7000000477,A,sug,I,g,308,1,1533.2999999523163,1807579.4000000954,9038,WL,C,4.0
5,9.867000102996826,learn,60000.0,Mon Dec 01 2025 11:44:08 GMT-0500 (Eastern Standard Time),1809296.0999999046,A,suga,I,a,169,1,1716.6999998092651,1807579.4000000954,9038,WL,C,4.0
5,10.034000158309937,learn,60000.0,Mon Dec 01 2025 11:44:08 GMT-0500 (Eastern Standard Time),1809462.7999999523,A,sugar,I,r,141,1,1883.3999998569489,1807579.4000000954,9038,WL,C,4.0
5,10.58299994468689,learn,60000.0,Mon Dec 01 2025 11:44:08 GMT-0500 (Eastern Standard Time),1810012.2000000477,A,sugarenter,I,enter,530,1,2432.7999999523163,1807579.4000000954,9038,WL,C,4.0
5,10.967000007629395,learn,60000.0,Mon Dec 01 2025 11:44:08 GMT-0500 (Eastern Standard Time),1810396.2000000477,A,d,I,d,361,1,383.60000014305115,1810012.5999999046,9038,WL,C,5.0
5,11.08400011062622,learn,60000.0,Mon Dec 01 2025 11:44:08 GMT-0500 (Eastern Standard Time),1810512.7999999523,A,do,I,o,102,1,500.2000000476837,1810012.5999999046,9038,WL,C,5.0
5,11.251000165939331,learn,60000.0,Mon Dec 01 2025 11:44:08 GMT-0500 (Eastern Standard Time),1810679.7000000477,A,doc,I,c,146,1,667.1000001430511,1810012.5999999046,9038,WL,C,5.0
5,11.5,learn,60000.0,Mon Dec 01 2025 11:44:08 GMT-0500 (Eastern Standard Time),1810929.5,A,doct,I,t,225,1,916.9000000953674,1810012.5999999046,9038,WL,C,5.0
5,11.634000062942505,learn,60000.0,Mon Dec 01 2025 11:44:08 GMT-0500 (Eastern Standard Time),1811062.5999999046,A,docto,I,o,113,1,1050.0,1810012.5999999046,9038,WL,C,5.0
5,11.784000158309937,learn,60000.0,Mon Dec 01 2025 11:44:08 GMT-0500 (Eastern Standard Time),1811212.7000000477,A,doctor,I,r,118,1,1200.1000001430511,1810012.5999999046,9038,WL,C,5.0
5,12.233000040054321,learn,60000.0,Mon Dec 01 2025 11:44:08 GMT-0500 (Eastern Standard Time),1811662.2999999523,A,doctorenter,I,enter,437,1,1649.7000000476837,1810012.5999999046,9038,WL,C,5.0
5,13.150000095367432,learn,60000.0,Mon Dec 01 2025 11:44:08 GMT-0500 (Eastern Standard Time),1812579.2999999523,A,c,I,c,903,1,916.5999999046326,1811662.7000000477,9038,WL,C,6.0
5,13.33400011062622,learn,60000.0,Mon Dec 01 2025 11:44:08 GMT-0500 (Eastern Standard Time),1812762.7999999523,A,ca,I,a,158,1,1100.0999999046326,1811662.7000000477,9038,WL,C,6.0
5,13.434000015258789,learn,60000.0,Mon Dec 01 2025 11:44:08 GMT-0500 (Eastern Standard Time),1812862.7999999523,A,cam,I,m,87,1,1200.0999999046326,1811662.7000000477,9038,WL,C,6.0
5,13.884000062942505,learn,60000.0,Mon Dec 01 2025 11:44:08 GMT-0500 (Eastern Standard Time),1813312.7999999523,A,camp,I,p,434,1,1650.0999999046326,1811662.7000000477,9038,WL,C,6.0
5,14.367000102996826,learn,60000.0,Mon Dec 01 2025 11:44:08 GMT-0500 (Eastern Standard Time),1813795.5999999046,A,campenter,I,enter,464,1,2132.899999856949,1811662.7000000477,9038,WL,C,6.0
5,14.784000158309937,learn,60000.0,Mon Dec 01 2025 11:44:08 GMT-0500 (Eastern Standard Time),1814212.7999999523,A,b,I,b,402,1,416.89999985694885,1813795.9000000954,9038,WL,C,7.0
5,14.967000007629395,learn,60000.0,Mon Dec 01 2025 11:44:08 GMT-0500 (Eastern Standard Time),1814396.4000000954,A,bo,I,o,174,1,600.5,1813795.9000000954,9038,WL,C,7.0
5,16.051000118255615,learn,60000.0,Mon Dec 01 2025 11:44:08 GMT-0500 (Eastern Standard Time),1815479.5999999046,A,bod,I,d,1062,1,1683.6999998092651,1813795.9000000954,9038,WL,C,7.0
5,16.66700005531311,learn,60000.0,Mon Dec 01 2025 11:44:08 GMT-0500 (Eastern Standard Time),1816096.0999999046,A,body,I,y,601,1,2300.199999809265,1813795.9000000954,9038,WL,C,7.0
5,18.799999952316284,learn,60000.0,Mon Dec 01 2025 11:44:08 GMT-0500 (Eastern Standard Time),1818229.0,A,bodyenter,I,enter,2113,1,4433.099999904633,1813795.9000000954,9038,WL,C,7.0
5,19.483999967575073,learn,60000.0,Mon Dec 01 2025 11:44:08 GMT-0500 (Eastern Standard Time),1818912.7000000477,A,f,I,f,672,1,683.2999999523163,1818229.4000000954,9038,WL,C,8.0
5,19.634000062942505,learn,60000.0,Mon Dec 01 2025 11:44:08 GMT-0500 (Eastern Standard Time),1819062.7999999523,A,fl,I,l,129,1,833.3999998569489,1818229.4000000954,9038,WL,C,8.0
5,19.799999952316284,learn,60000.0,Mon Dec 01 2025 11:44:08 GMT-0500 (Eastern Standard Time),1819229.5,A,fla,I,a,140,1,1000.0999999046326,1818229.4000000954,9038,WL,C,8.0
5,20.08400011062622,learn,60000.0,Mon Dec 01 2025 11:44:08 GMT-0500 (Eastern Standard Time),1819512.7999999523,A,flag,I,g,261,1,1283.3999998569489,1818229.4000000954,9038,WL,C,8.0
5,20.367000102996826,learn,60000.0,Mon Dec 01 2025 11:44:08 GMT-0500 (Eastern Standard Time),1819795.5999999046,A,flagenter,I,enter,265,1,1566.1999998092651,1818229.4000000954,9038,WL,C,8.0
5,22.717000007629395,learn,60000.0,Mon Dec 01 2025 11:44:08 GMT-0500 (Eastern Standard Time),1822146.2000000477,A,l,I,l,2338,1,2350.2999999523163,1819795.9000000954,9038,WL,C,9.0
5,22.867000102996826,learn,60000.0,Mon Dec 01 2025 11:44:08 GMT-0500 (Eastern Standard Time),1822296.2000000477,A,le,I,e,126,1,2500.2999999523163,1819795.9000000954,9038,WL,C,9.0
5,23.0,learn,60000.0,Mon Dec 01 2025 11:44:08 GMT-0500 (Eastern Standard Time),1822429.2999999523,A,let,I,t,122,1,2633.399999856949,1819795.9000000954,9038,WL,C,9.0
5,23.200000047683716,learn,60000.0,Mon Dec 01 2025 11:44:08 GMT-0500 (Eastern Standard Time),1822629.5,A,lett,I,t,173,1,2833.5999999046326,1819795.9000000954,9038,WL,C,9.0
5,23.58400011062622,learn,60000.0,Mon Dec 01 2025 11:44:08 GMT-0500 (Eastern Standard Time),1823012.7999999523,A,lette,I,e,365,1,3216.899999856949,1819795.9000000954,9038,WL,C,9.0
5,23.90000009536743,learn,60000.0,Mon Dec 01 2025 11:44:08 GMT-0500 (Eastern Standard Time),1823329.5,A,letter,I,r,301,1,3533.5999999046326,1819795.9000000954,9038,WL,C,9.0
5,24.183000087738037,learn,60000.0,Mon Dec 01 2025 11:44:08 GMT-0500 (Eastern Standard Time),1823612.0999999046,A,letterenter,I,enter,272,1,3816.199999809265,1819795.9000000954,9038,WL,C,9.0
5,24.483999967575073,learn,60000.0,Mon Dec 01 2025 11:44:08 GMT-0500 (Eastern Standard Time),1823912.7000000477,A,c,I,c,281,1,300.2000000476837,1823612.5,9038,WL,C,10.0
5,24.600000143051147,learn,60000.0,Mon Dec 01 2025 11:44:08 GMT-0500 (Eastern Standard Time),1824029.2999999523,A,ca,I,a,105,1,416.7999999523163,1823612.5,9038,WL,C,10.0
5,24.700000047683716,learn,60000.0,Mon Dec 01 2025 11:44:08 GMT-0500 (Eastern Standard Time),1824129.2999999523,A,cam,I,m,77,1,516.7999999523163,1823612.5,9038,WL,C,10.0
5,25.299999952316284,learn,60000.0,Mon Dec 01 2025 11:44:08 GMT-0500 (Eastern Standard Time),1824729.5,A,ca,I,backspace,570,1,1117.0,1823612.5,9038,WL,C,10.0
5,25.733999967575073,learn,60000.0,Mon Dec 01 2025 11:44:08 GMT-0500 (Eastern Standard Time),1825162.7999999523,A,cat,I,t,407,1,1550.2999999523163,1823612.5,9038,WL,C,10.0
5,25.884000062942505,learn,60000.0,Mon Dec 01 2025 11:44:08 GMT-0500 (Eastern Standard Time),1825312.7000000477,A,catt,I,t,134,1,1700.2000000476837,1823612.5,9038,WL,C,10.0
5,27.534000158309937,learn,60000.0,Mon Dec 01 2025 11:44:08 GMT-0500 (Eastern Standard Time),1826962.7999999523,A,cattl,I,l,1632,1,3350.2999999523163,1823612.5,9038,WL,C,10.0
5,27.717000007629395,learn,60000.0,Mon Dec 01 2025 11:44:08 GMT-0500 (Eastern Standard Time),1827146.2000000477,A,cattle,I,e,159,1,3533.7000000476837,1823612.5,9038,WL,C,10.0
5,28.600000143051147,learn,60000.0,Mon Dec 01 2025 11:44:08 GMT-0500 (Eastern Standard Time),1828028.7999999523,A,cattleenter,I,enter,872,1,4416.299999952316,1823612.5,9038,WL,C,10.0
5,28.850000143051147,learn,60000.0,Mon Dec 01 2025 11:44:08 GMT-0500 (Eastern Standard Time),1828279.4000000954,A,c,I,c,232,1,250.20000004768372,1828029.2000000477,9038,WL,C,11.0
5,29.01699995994568,learn,60000.0,Mon Dec 01 2025 11:44:08 GMT-0500 (Eastern Standard Time),1828446.0,A,ca,I,a,153,1,416.7999999523163,1828029.2000000477,9038,WL,C,11.0
5,29.117000102996826,learn,60000.0,Mon Dec 01 2025 11:44:08 GMT-0500 (Eastern Standard Time),1828546.2000000477,A,cam,I,m,85,1,517.0,1828029.2000000477,9038,WL,C,11.0
5,30.117000102996826,learn,60000.0,Mon Dec 01 2025 11:44:08 GMT-0500 (Eastern Standard Time),1829546.0999999046,A,camp,I,p,967,1,1516.8999998569489,1828029.2000000477,9038,WL,C,11.0
5,30.867000102996826,learn,60000.0,Mon Dec 01 2025 11:44:08 GMT-0500 (Eastern Standard Time),1830295.7000000477,A,campenter,I,enter,728,1,2266.5,1828029.2000000477,9038,WL,C,11.0
5,35.16700005531311,learn,60000.0,Mon Dec 01 2025 11:44:08 GMT-0500 (Eastern Standard Time),1834596.0999999046,A,n,I,n,4286,1,4300.099999904633,1830296.0,9038,WL,C,12.0
5,35.66700005531311,learn,60000.0,Mon Dec 01 2025 11:44:08 GMT-0500 (Eastern Standard Time),1835096.0999999046,A,na,I,a,479,1,4800.099999904633,1830296.0,9038,WL,C,12.0
5,35.799999952316284,learn,60000.0,Mon Dec 01 2025 11:44:08 GMT-0500 (Eastern Standard Time),1835229.2999999523,A,nai,I,i,122,1,4933.299999952316,1830296.0,9038,WL,C,12.0
5,35.98399996757507,learn,60000.0,Mon Dec 01 2025 11:44:08 GMT-0500 (Eastern Standard Time),1835412.7999999523,A,nail,I,l,165,1,5116.799999952316,1830296.0,9038,WL,C,12.0
5,36.38300013542175,learn,60000.0,Mon Dec 01 2025 11:44:08 GMT-0500 (Eastern Standard Time),1835812.2999999523,A,nailenter,I,enter,372,1,5516.299999952316,1830296.0,9038,WL,C,12.0
5,46.117000102996826,learn,60000.0,Mon Dec 01 2025 11:44:08 GMT-0500 (Eastern Standard Time),1845546.0,A,d,I,d,9713,1,9733.200000047684,1835812.7999999523,9038,WL,C,13.0
5,47.299999952316284,learn,60000.0,Mon Dec 01 2025 11:44:08 GMT-0500 (Eastern Standard Time),1846729.4000000954,A,do,I,o,1161,1,10916.600000143051,1835812.7999999523,9038,WL,C,13.0
5,47.549999952316284,learn,60000.0,Mon Dec 01 2025 11:44:08 GMT-0500 (Eastern Standard Time),1846979.5,A,doc,I,c,232,1,11166.700000047684,1835812.7999999523,9038,WL,C,13.0
5,48.384000062942505,learn,60000.0,Mon Dec 01 2025 11:44:08 GMT-0500 (Eastern Standard Time),1847812.7999999523,A,doct,I,t,814,1,12000.0,1835812.7999999523,9038,WL,C,13.0
5,48.51699995994568,learn,60000.0,Mon Dec 01 2025 11:44:08 GMT-0500 (Eastern Standard Time),1847946.2000000477,A,docto,I,o,110,1,12133.400000095367,1835812.7999999523,9038,WL,C,13.0
5,48.75,learn,60000.0,Mon Dec 01 2025 11:44:08 GMT-0500 (Eastern Standard Time),1848179.5,A,doctor,I,r,216,1,12366.700000047684,1835812.7999999523,9038,WL,C,13.0
5,49.63300013542175,learn,60000.0,Mon Dec 01 2025 11:44:08 GMT-0500 (Eastern Standard Time),1849062.2999999523,A,doctorenter,I,enter,862,1,13249.5,1835812.7999999523,9038,WL,C,13.0
5,56.799999952316284,learn,60000.0,Mon Dec 01 2025 11:44:08 GMT-0500 (Eastern Standard Time),1856229.2999999523,A,l,I,l,7151,1,7166.700000047684,1849062.5999999046,9038,WL,C,14.0
5,57.90000009536743,learn,60000.0,Mon Dec 01 2025 11:44:08 GMT-0500 (Eastern Standard Time),1857328.7000000477,A,,I,backspace,1085,1,8266.100000143051,1849062.5999999046,9038,WL,C,14.0
5,117.91600012779236,learn,60000.0,Mon Dec 01 2025 11:44:08 GMT-0500 (Eastern Standard Time),1917345.5,A,None,I,None,60010,1,68282.90000009537,1849062.5999999046,9038,WL,C,14.0
6,1.315999984741211,distr,58684.00001525879,Mon Dec 01 2025 11:44:08 GMT-0500 (Eastern Standard Time),1992979.4000000954,B,h,I,h,1298,1,1316.3000001907349,1991663.0999999046,9038,WL,C,1.0
6,1.7330000400543213,distr,58266.99995994568,Mon Dec 01 2025 11:44:08 GMT-0500 (Eastern Standard Time),1993396.0999999046,B,ho,I,o,399,1,1733.0,1991663.0999999046,9038,WL,C,1.0
6,1.9000000953674316,distr,58099.99990463257,Mon Dec 01 2025 11:44:08 GMT-0500 (Eastern Standard Time),1993562.5999999046,B,hot,I,t,141,1,1899.5,1991663.0999999046,9038,WL,C,1.0
6,2.065999984741211,distr,57934.00001525879,Mon Dec 01 2025 11:44:08 GMT-0500 (Eastern Standard Time),1993729.2000000477,B,hote,I,e,152,1,2066.100000143051,1991663.0999999046,9038,WL,C,1.0
6,2.616000175476074,distr,57383.999824523926,Mon Dec 01 2025 11:44:08 GMT-0500 (Eastern Standard Time),1994279.2999999523,B,hotel,I,l,521,1,2616.2000000476837,1991663.0999999046,9038,WL,C,1.0
6,3.7160000801086426,distr,56283.99991989136,Mon Dec 01 2025 11:44:08 GMT-0500 (Eastern Standard Time),1995378.7999999523,B,hotelenter,I,enter,1082,1,3715.7000000476837,1991663.0999999046,9038,WL,C,1.0
6,4.583000183105469,distr,55416.99981689453,Mon Dec 01 2025 11:44:08 GMT-0500 (Eastern Standard Time),1996245.9000000954,B,h,I,h,851,1,866.8000001907349,1995379.0999999046,9038,WL,C,2.0
6,5.650000095367432,distr,54349.99990463257,Mon Dec 01 2025 11:44:08 GMT-0500 (Eastern Standard Time),1997312.5999999046,B,,I,backspace,1052,1,1933.5,1995379.0999999046,9038,WL,C,2.0
6,5.966000080108643,distr,54033.99991989136,Mon Dec 01 2025 11:44:08 GMT-0500 (Eastern Standard Time),1997629.0,B,c,I,c,306,1,2249.9000000953674,1995379.0999999046,9038,WL,C,2.0
6,6.133000135421753,distr,53866.99986457825,Mon Dec 01 2025 11:44:08 GMT-0500 (Eastern Standard Time),1997795.9000000954,B,ch,I,h,150,1,2416.800000190735,1995379.0999999046,9038,WL,C,2.0
6,6.348999977111816,distr,53651.00002288818,Mon Dec 01 2025 11:44:08 GMT-0500 (Eastern Standard Time),1998012.2000000477,B,chr,I,r,198,1,2633.100000143051,1995379.0999999046,9038,WL,C,2.0
6,6.549000024795532,distr,53450.99997520447,Mon Dec 01 2025 11:44:08 GMT-0500 (Eastern Standard Time),1998212.5,B,chri,I,i,183,1,2833.4000000953674,1995379.0999999046,9038,WL,C,2.0
6,6.716000080108643,distr,53283.99991989136,Mon Dec 01 2025 11:44:08 GMT-0500 (Eastern Standard Time),1998379.2000000477,B,chris,I,s,142,1,3000.100000143051,1995379.0999999046,9038,WL,C,2.0
6,6.883000135421753,distr,53116.99986457825,Mon Dec 01 2025 11:44:08 GMT-0500 (Eastern Standard Time),1998546.0,B,christ,I,t,142,1,3166.9000000953674,1995379.0999999046,9038,WL,C,2.0
6,7.315999984741211,distr,52684.00001525879,Mon Dec 01 2025 11:44:08 GMT-0500 (Eastern Standard Time),1998979.2999999523,B,christa,I,a,406,1,3600.2000000476837,1995379.0999999046,9038,WL,C,2.0
6,7.800000190734863,distr,52199.99980926514,Mon Dec 01 2025 11:44:08 GMT-0500 (Eastern Standard Time),1999462.5999999046,B,christ,I,backspace,463,1,4083.5,1995379.0999999046,9038,WL,C,2.0
6,8.983000040054321,distr,51016.99995994568,Mon Dec 01 2025 11:44:08 GMT-0500 (Eastern Standard Time),2000645.9000000954,B,christm,I,m,1164,1,5266.800000190735,1995379.0999999046,9038,WL,C,2.0
6,9.166000127792358,distr,50833.99987220764,Mon Dec 01 2025 11:44:08 GMT-0500 (Eastern Standard Time),2000829.0,B,christma,I,a,172,1,5449.900000095367,1995379.0999999046,9038,WL,C,2.0
6,9.850000143051147,distr,50149.99985694885,Mon Dec 01 2025 11:44:08 GMT-0500 (Eastern Standard Time),2001512.5999999046,B,christmas,I,s,661,1,6133.5,1995379.0999999046,9038,WL,C,2.0
6,10.266000032424927,distr,49733.99996757507,Mon Dec 01 2025 11:44:08 GMT-0500 (Eastern Standard Time),2001928.7999999523,B,christmasenter,I,enter,392,1,6549.700000047684,1995379.0999999046,9038,WL,C,2.0
6,11.083000183105469,distr,48916.99981689453,Mon Dec 01 2025 11:44:08 GMT-0500 (Eastern Standard Time),2002745.9000000954,B,d,I,d,797,1,816.8000001907349,2001929.0999999046,9038,WL,C,3.0
6,11.216000080108643,distr,48783.99991989136,Mon Dec 01 2025 11:44:08 GMT-0500 (Eastern Standard Time),2002879.2000000477,B,di,I,i,120,1,950.1000001430511,2001929.0999999046,9038,WL,C,3.0
6,11.400000095367432,distr,48599.99990463257,Mon Dec 01 2025 11:44:08 GMT-0500 (Eastern Standard Time),2003062.5999999046,B,dia,I,a,163,1,1133.5,2001929.0999999046,9038,WL,C,3.0
6,11.550000190734863,distr,48449.99980926514,Mon Dec 01 2025 11:44:08 GMT-0500 (Eastern Standard Time),2003212.5999999046,B,dian,I,n,123,1,1283.5,2001929.0999999046,9038,WL,C,3.0
6,12.450000047683716,distr,47549.999952316284,Mon Dec 01 2025 11:44:08 GMT-0500 (Eastern Standard Time),2004112.5999999046,B,dianm,I,m,876,1,2183.5,2001929.0999999046,9038,WL,C,3.0
6,14.716000080108643,distr,45283.99991989136,Mon Dec 01 2025 11:44:08 GMT-0500 (Eastern Standard Time),2006379.4000000954,B,dian,I,backspace,2242,1,4450.300000190735,2001929.0999999046,9038,WL,C,3.0
6,14.900000095367432,distr,45099.99990463257,Mon Dec 01 2025 11:44:08 GMT-0500 (Eastern Standard Time),2006562.7000000477,B,dia,I,backspace,166,1,4633.600000143051,2001929.0999999046,9038,WL,C,3.0
6,15.815999984741211,distr,44184.00001525879,Mon Dec 01 2025 11:44:08 GMT-0500 (Eastern Standard Time),2007479.2999999523,B,diam,I,m,896,1,5550.200000047684,2001929.0999999046,9038,WL,C,3.0
6,16.06599998474121,distr,43934.00001525879,Mon Dec 01 2025 11:44:08 GMT-0500 (Eastern Standard Time),2007729.2000000477,B,diamo,I,o,234,1,5800.100000143051,2001929.0999999046,9038,WL,C,3.0
6,16.31599998474121,distr,43684.00001525879,Mon Dec 01 2025 11:44:08 GMT-0500 (Eastern Standard Time),2007979.2999999523,B,diamon,I,n,224,1,6050.200000047684,2001929.0999999046,9038,WL,C,3.0
6,16.550000190734863,distr,43449.99980926514,Mon Dec 01 2025 11:44:08 GMT-0500 (Eastern Standard Time),2008212.5,B,diamond,I,d,215,1,6283.400000095367,2001929.0999999046,9038,WL,C,3.0
6,17.616000175476074,distr,42383.999824523926,Mon Dec 01 2025 11:44:08 GMT-0500 (Eastern Standard Time),2009278.7999999523,B,diamondenter,I,enter,1053,1,7349.700000047684,2001929.0999999046,9038,WL,C,3.0
6,20.949000120162964,distr,39050.999879837036,Mon Dec 01 2025 11:44:08 GMT-0500 (Eastern Standard Time),2012612.5999999046,B,s,I,s,3319,1,3333.399999856949,2009279.2000000477,9038,WL,C,4.0
6,21.23300004005432,distr,38766.99995994568,Mon Dec 01 2025 11:44:08 GMT-0500 (Eastern Standard Time),2012895.9000000954,B,sk,I,k,270,1,3616.7000000476837,2009279.2000000477,9038,WL,C,4.0
6,21.56599998474121,distr,38434.00001525879,Mon Dec 01 2025 11:44:08 GMT-0500 (Eastern Standard Time),2013229.0999999046,B,sky,I,y,322,1,3949.899999856949,2009279.2000000477,9038,WL,C,4.0
6,22.31599998474121,distr,37684.00001525879,Mon Dec 01 2025 11:44:08 GMT-0500 (Eastern Standard Time),2013978.7999999523,B,skyenter,I,enter,724,1,4699.599999904633,2009279.2000000477,9038,WL,C,4.0
6,35.08300018310547,distr,24916.99981689453,Mon Dec 01 2025 11:44:08 GMT-0500 (Eastern Standard Time),2026745.9000000954,B,n,I,n,12747,1,12766.700000047684,2013979.2000000477,9038,WL,C,5.0
6,36.43300008773804,distr,23566.999912261963,Mon Dec 01 2025 11:44:08 GMT-0500 (Eastern Standard Time),2028095.9000000954,B,,I,backspace,1336,1,14116.700000047684,2013979.2000000477,9038,WL,C,5.0
6,37.85000014305115,distr,22149.999856948853,Mon Dec 01 2025 11:44:08 GMT-0500 (Eastern Standard Time),2029512.5,B,d,I,d,1396,1,15533.299999952316,2013979.2000000477,9038,WL,C,5.0
6,38.116000175476074,distr,21883.999824523926,Mon Dec 01 2025 11:44:08 GMT-0500 (Eastern Standard Time),2029779.2000000477,B,do,I,o,250,1,15800.0,2013979.2000000477,9038,WL,C,5.0
6,39.13300013542175,distr,20866.999864578247,Mon Dec 01 2025 11:44:08 GMT-0500 (Eastern Standard Time),2030795.9000000954,B,dol,I,l,990,1,16816.700000047684,2013979.2000000477,9038,WL,C,5.0
6,40.46600008010864,distr,19533.999919891357,Mon Dec 01 2025 11:44:08 GMT-0500 (Eastern Standard Time),2032129.2000000477,B,do,I,backspace,1319,1,18150.0,2013979.2000000477,9038,WL,C,5.0
6,40.74900007247925,distr,19250.999927520752,Mon Dec 01 2025 11:44:08 GMT-0500 (Eastern Standard Time),2032412.2999999523,B,d,I,backspace,274,1,18433.099999904633,2013979.2000000477,9038,WL,C,5.0
6,40.98300004005432,distr,19016.99995994568,Mon Dec 01 2025 11:44:08 GMT-0500 (Eastern Standard Time),2032645.9000000954,B,,I,backspace,213,1,18666.700000047684,2013979.2000000477,9038,WL,C,5.0
6,52.616000175476074,distr,7383.999824523926,Mon Dec 01 2025 11:44:08 GMT-0500 (Eastern Standard Time),2044279.2000000477,B,m,I,m,11613,1,30300.0,2013979.2000000477,9038,WL,C,5.0
6,53.75,distr,6250.0,Mon Dec 01 2025 11:44:08 GMT-0500 (Eastern Standard Time),2045412.5999999046,B,mo,I,o,1115,1,31433.39999985695,2013979.2000000477,9038,WL,C,5.0
6,54.35000014305115,distr,5649.9998569488525,Mon Dec 01 2025 11:44:08 GMT-0500 (Eastern Standard Time),2046012.5999999046,B,moh,I,h,574,1,32033.39999985695,2013979.2000000477,9038,WL,C,5.0
6,54.5,distr,5500.0,Mon Dec 01 2025 11:44:08 GMT-0500 (Eastern Standard Time),2046162.5999999046,B,moht,I,t,132,1,32183.39999985695,2013979.2000000477,9038,WL,C,5.0
6,54.96600008010864,distr,5033.999919891357,Mon Dec 01 2025 11:44:08 GMT-0500 (Eastern Standard Time),2046629.2000000477,B,moh,I,backspace,439,1,32650.0,2013979.2000000477,9038,WL,C,5.0
6,55.10000014305115,distr,4899.9998569488525,Mon Dec 01 2025 11:44:08 GMT-0500 (Eastern Standard Time),2046762.7000000477,B,mo,I,backspace,108,1,32783.5,2013979.2000000477,9038,WL,C,5.0
6,55.282999992370605,distr,4717.0000076293945,Mon Dec 01 2025 11:44:08 GMT-0500 (Eastern Standard Time),2046945.9000000954,B,mot,I,t,164,1,32966.700000047684,2013979.2000000477,9038,WL,C,5.0
6,55.366000175476074,distr,4633.999824523926,Mon Dec 01 2025 11:44:08 GMT-0500 (Eastern Standard Time),2047029.0,B,moth,I,h,56,1,33049.799999952316,2013979.2000000477,9038,WL,C,5.0
6,55.54900002479553,distr,4450.999975204468,Mon Dec 01 2025 11:44:08 GMT-0500 (Eastern Standard Time),2047212.5,B,mothe,I,e,155,1,33233.299999952316,2013979.2000000477,9038,WL,C,5.0
6,55.598999977111816,distr,4401.000022888184,Mon Dec 01 2025 11:44:08 GMT-0500 (Eastern Standard Time),2047261.9000000954,B,mother,I,r,29,1,33282.700000047684,2013979.2000000477,9038,WL,C,5.0
6,55.932000160217285,distr,4067.999839782715,Mon Dec 01 2025 11:44:08 GMT-0500 (Eastern Standard Time),2047595.2999999523,B,motherenter,I,enter,327,1,33616.09999990463,2013979.2000000477,9038,WL,C,5.0
6,60.01600003242493,distr,-16.000032424926758,Mon Dec 01 2025 11:44:08 GMT-0500 (Eastern Standard Time),2051679.2000000477,B,None,I,None,4077,1,4083.7000000476837,2047595.5,9038,WL,C,6.0
7,13.882999897003174,immed,46117.000102996826,Mon Dec 01 2025 11:44:08 GMT-0500 (Eastern Standard Time),2069179.2000000477,A,s,I,s,13860,1,13882.799999952316,2055296.4000000954,9038,WL,C,1.0
7,14.116999864578247,immed,45883.00013542175,Mon Dec 01 2025 11:44:08 GMT-0500 (Eastern Standard Time),2069412.5999999046,A,sk,I,k,214,1,14116.199999809265,2055296.4000000954,9038,WL,C,1.0
7,14.549999952316284,immed,45450.000047683716,Mon Dec 01 2025 11:44:08 GMT-0500 (Eastern Standard Time),2069846.0,A,sky,I,y,411,1,14549.599999904633,2055296.4000000954,9038,WL,C,1.0
7,15.8989999294281,immed,44101.0000705719,Mon Dec 01 2025 11:44:08 GMT-0500 (Eastern Standard Time),2071195.4000000954,A,skyenter,I,enter,1337,1,15899.0,2055296.4000000954,9038,WL,C,1.0
7,16.632999897003174,immed,43367.000102996826,Mon Dec 01 2025 11:44:08 GMT-0500 (Eastern Standard Time),2071929.2000000477,A,d,I,d,714,1,733.6000001430511,2071195.5999999046,9038,WL,C,2.0
7,16.766000032424927,immed,43233.99996757507,Mon Dec 01 2025 11:44:08 GMT-0500 (Eastern Standard Time),2072062.5,A,di,I,i,120,1,866.9000000953674,2071195.5999999046,9038,WL,C,2.0
7,16.932999849319458,immed,43067.00015068054,Mon Dec 01 2025 11:44:08 GMT-0500 (Eastern Standard Time),2072229.2000000477,A,dia,I,a,138,1,1033.6000001430511,2071195.5999999046,9038,WL,C,2.0
7,17.049999952316284,immed,42950.000047683716,Mon Dec 01 2025 11:44:08 GMT-0500 (Eastern Standard Time),2072345.7999999523,A,dian,I,n,92,1,1150.2000000476837,2071195.5999999046,9038,WL,C,2.0
7,17.382999897003174,immed,42617.000102996826,Mon Dec 01 2025 11:44:08 GMT-0500 (Eastern Standard Time),2072679.2999999523,A,dia,I,backspace,312,1,1483.7000000476837,2071195.5999999046,9038,WL,C,2.0
7,17.682999849319458,immed,42317.00015068054,Mon Dec 01 2025 11:44:08 GMT-0500 (Eastern Standard Time),2072979.2000000477,A,diam,I,m,280,1,1783.6000001430511,2071195.5999999046,9038,WL,C,2.0
7,17.865999937057495,immed,42134.000062942505,Mon Dec 01 2025 11:44:08 GMT-0500 (Eastern Standard Time),2073162.4000000954,A,diamo,I,o,158,1,1966.8000001907349,2071195.5999999046,9038,WL,C,2.0
7,18.049999952316284,immed,41950.000047683716,Mon Dec 01 2025 11:44:08 GMT-0500 (Eastern Standard Time),2073345.7999999523,A,diamon,I,n,159,1,2150.2000000476837,2071195.5999999046,9038,WL,C,2.0
7,18.31599998474121,immed,41684.00001525879,Mon Dec 01 2025 11:44:08 GMT-0500 (Eastern Standard Time),2073612.2000000477,A,diamond,I,d,249,1,2416.600000143051,2071195.5999999046,9038,WL,C,2.0
7,18.8989999294281,immed,41101.0000705719,Mon Dec 01 2025 11:44:08 GMT-0500 (Eastern Standard Time),2074195.4000000954,A,diamondenter,I,enter,564,1,2999.800000190735,2071195.5999999046,9038,WL,C,2.0
7,19.41599988937378,immed,40584.00011062622,Mon Dec 01 2025 11:44:08 GMT-0500 (Eastern Standard Time),2074712.4000000954,A,c,I,c,497,1,516.7000000476837,2074195.7000000477,9038,WL,C,3.0
7,19.549999952316284,immed,40450.000047683716,Mon Dec 01 2025 11:44:08 GMT-0500 (Eastern Standard Time),2074845.5999999046,A,ch,I,h,121,1,649.8999998569489,2074195.7000000477,9038,WL,C,3.0
7,19.866999864578247,immed,40133.00013542175,Mon Dec 01 2025 11:44:08 GMT-0500 (Eastern Standard Time),2075162.5,A,chr,I,r,292,1,966.7999999523163,2074195.7000000477,9038,WL,C,3.0
7,19.950000047683716,immed,40049.999952316284,Mon Dec 01 2025 11:44:08 GMT-0500 (Eastern Standard Time),2075245.9000000954,A,chri,I,i,72,1,1050.2000000476837,2074195.7000000477,9038,WL,C,3.0
7,20.16599988937378,immed,39834.00011062622,Mon Dec 01 2025 11:44:08 GMT-0500 (Eastern Standard Time),2075462.5,A,chris,I,s,188,1,1266.7999999523163,2074195.7000000477,9038,WL,C,3.0
7,20.450000047683716,immed,39549.999952316284,Mon Dec 01 2025 11:44:08 GMT-0500 (Eastern Standard Time),2075745.7999999523,A,christ,I,t,268,1,1550.0999999046326,2074195.7000000477,9038,WL,C,3.0
7,20.56599998474121,immed,39434.00001525879,Mon Dec 01 2025 11:44:08 GMT-0500 (Eastern Standard Time),2075862.4000000954,A,christm,I,m,93,1,1666.7000000476837,2074195.7000000477,9038,WL,C,3.0
7,20.73300004005432,immed,39266.99995994568,Mon Dec 01 2025 11:44:08 GMT-0500 (Eastern Standard Time),2076029.0,A,christma,I,a,156,1,1833.2999999523163,2074195.7000000477,9038,WL,C,3.0
7,21.23300004005432,immed,38766.99995994568,Mon Dec 01 2025 11:44:08 GMT-0500 (Eastern Standard Time),2076529.0999999046,A,christmas,I,s,485,1,2333.399999856949,2074195.7000000477,9038,WL,C,3.0
7,21.516000032424927,immed,38483.99996757507,Mon Dec 01 2025 11:44:08 GMT-0500 (Eastern Standard Time),2076811.7999999523,A,christmasenter,I,enter,272,1,2616.0999999046326,2074195.7000000477,9038,WL,C,3.0
7,21.84999990463257,immed,38150.00009536743,Mon Dec 01 2025 11:44:08 GMT-0500 (Eastern Standard Time),2077146.0,A,t,I,t,313,1,333.7999999523163,2076812.2000000477,9038,WL,C,4.0
7,21.91700005531311,immed,38082.99994468689,Mon Dec 01 2025 11:44:08 GMT-0500 (Eastern Standard Time),2077212.7000000477,A,to,I,o,56,1,400.5,2076812.2000000477,9038,WL,C,4.0
7,22.115999937057495,immed,37884.000062942505,Mon Dec 01 2025 11:44:08 GMT-0500 (Eastern Standard Time),2077412.4000000954,A,too,I,o,182,1,600.2000000476837,2076812.2000000477,9038,WL,C,4.0
7,22.33299994468689,immed,37667.00005531311,Mon Dec 01 2025 11:44:08 GMT-0500 (Eastern Standard Time),2077628.9000000954,A,tool,I,l,204,1,816.7000000476837,2076812.2000000477,9038,WL,C,4.0
7,22.848999977111816,immed,37151.00002288818,Mon Dec 01 2025 11:44:08 GMT-0500 (Eastern Standard Time),2078145.4000000954,A,toolenter,I,enter,493,1,1333.2000000476837,2076812.2000000477,9038,WL,C,4.0
7,32.06599998474121,immed,27934.00001525879,Mon Dec 01 2025 11:44:08 GMT-0500 (Eastern Standard Time),2087362.5,A,m,I,m,9204,1,9216.799999952316,2078145.7000000477,9038,WL,C,5.0
7,33.26699995994568,immed,26733.00004005432,Mon Dec 01 2025 11:44:08 GMT-0500 (Eastern Standard Time),2088562.5999999046,A,,I,backspace,1183,1,10416.899999856949,2078145.7000000477,9038,WL,C,5.0
7,39.049999952316284,immed,20950.000047683716,Mon Dec 01 2025 11:44:08 GMT-0500 (Eastern Standard Time),2094345.7999999523,A,c,I,c,5759,1,16200.099999904633,2078145.7000000477,9038,WL,C,5.0
7,39.217000007629395,immed,20782.999992370605,Mon Dec 01 2025 11:44:08 GMT-0500 (Eastern Standard Time),2094512.5999999046,A,ca,I,a,151,1,16366.899999856949,2078145.7000000477,9038,WL,C,5.0
7,40.31599998474121,immed,19684.00001525879,Mon Dec 01 2025 11:44:08 GMT-0500 (Eastern Standard Time),2095612.5,A,car,I,r,1075,1,17466.799999952316,2078145.7000000477,9038,WL,C,5.0
7,40.549999952316284,immed,19450.000047683716,Mon Dec 01 2025 11:44:08 GMT-0500 (Eastern Standard Time),2095845.7999999523,A,card,I,d,213,1,17700.099999904633,2078145.7000000477,9038,WL,C,5.0
7,40.83299994468689,immed,19167.00005531311,Mon Dec 01 2025 11:44:08 GMT-0500 (Eastern Standard Time),2096128.7999999523,A,cardenter,I,enter,267,1,17983.099999904633,2078145.7000000477,9038,WL,C,5.0
7,60.01600003242493,immed,-16.000032424926758,Mon Dec 01 2025 11:44:08 GMT-0500 (Eastern Standard Time),2115312.5,A,None,I,None,19177,1,19183.400000095367,2096129.0999999046,9038,WL,C,6.0
