block_c,block_dur,condition,countdown,datetime,endtime,list,multichar_response,project,response,response_time,session_number,start_end,starttime,subject_id,task,task_vers,trial
,,,,Mon Jun 22 2026 11:42:31 GMT-0400 (Eastern Daylight Time),,,,I,space,1767,3,,,9038,WL,A,
prac,,0,,Mon Jun 22 2026 11:42:31 GMT-0400 (Eastern Daylight Time),,NA,b,I,b,4145,3,,,9038,WL,A,1.0
prac,,0,,Mon Jun 22 2026 11:42:31 GMT-0400 (Eastern Daylight Time),,NA,bo,I,o,373,3,,,9038,WL,A,1.0
prac,,0,,Mon Jun 22 2026 11:42:31 GMT-0400 (Eastern Daylight Time),,NA,boo,I,o,152,3,,,9038,WL,A,1.0
prac,,0,,Mon Jun 22 2026 11:42:31 GMT-0400 (Eastern Daylight Time),,NA,boos,I,s,65,3,,,9038,WL,A,1.0
prac,,0,,Mon Jun 22 2026 11:42:31 GMT-0400 (Eastern Daylight Time),,NA,boost,I,t,356,3,,,9038,WL,A,1.0
prac,,0,,Mon Jun 22 2026 11:42:31 GMT-0400 (Eastern Daylight Time),,NA,boostenter,I,enter,1526,3,,,9038,WL,A,1.0
1,0.9330000877380371,learn,59066.99991226196,Mon Jun 22 2026 11:42:31 GMT-0400 (Eastern Daylight Time),158387.09999990463,A,b,I,b,918,3,932.6999998092651,157454.40000009537,9038,WL,A,1.0
1,1.2990000247955322,learn,58700.99997520447,Mon Jun 22 2026 11:42:31 GMT-0400 (Eastern Daylight Time),158753.29999995232,A,bo,I,o,340,3,1298.8999998569489,157454.40000009537,9038,WL,A,1.0
1,1.5490000247955322,learn,58450.99997520447,Mon Jun 22 2026 11:42:31 GMT-0400 (Eastern Daylight Time),159003.29999995232,A,boo,I,o,234,3,1548.8999998569489,157454.40000009537,9038,WL,A,1.0
1,1.8329999446868896,learn,58167.00005531311,Mon Jun 22 2026 11:42:31 GMT-0400 (Eastern Daylight Time),159286.70000004768,A,book,I,k,263,3,1832.2999999523163,157454.40000009537,9038,WL,A,1.0
1,3.865999937057495,learn,56134.000062942505,Mon Jun 22 2026 11:42:31 GMT-0400 (Eastern Daylight Time),161319.70000004768,A,bookenter,I,enter,2010,3,3865.2999999523163,157454.40000009537,9038,WL,A,1.0
1,4.632999897003174,learn,55367.000102996826,Mon Jun 22 2026 11:42:31 GMT-0400 (Eastern Daylight Time),162086.70000004768,A,r,I,r,750,3,766.4000000953674,161320.29999995232,9038,WL,A,2.0
1,4.83299994468689,learn,55167.00005531311,Mon Jun 22 2026 11:42:31 GMT-0400 (Eastern Daylight Time),162286.70000004768,A,re,I,e,181,3,966.4000000953674,161320.29999995232,9038,WL,A,2.0
1,5.165999889373779,learn,54834.00011062622,Mon Jun 22 2026 11:42:31 GMT-0400 (Eastern Daylight Time),162620.0,A,rea,I,a,308,3,1299.7000000476837,161320.29999995232,9038,WL,A,2.0
1,5.398999929428101,learn,54601.0000705719,Mon Jun 22 2026 11:42:31 GMT-0400 (Eastern Daylight Time),162853.29999995232,A,read,I,d,216,3,1533.0,161320.29999995232,9038,WL,A,2.0
1,5.749000072479248,learn,54250.99992752075,Mon Jun 22 2026 11:42:31 GMT-0400 (Eastern Daylight Time),163202.90000009537,A,readenter,I,enter,333,3,1882.6000001430511,161320.29999995232,9038,WL,A,2.0
1,6.049000024795532,learn,53950.99997520447,Mon Jun 22 2026 11:42:31 GMT-0400 (Eastern Daylight Time),163503.29999995232,A,f,I,f,283,3,299.7999999523163,163203.5,9038,WL,A,3.0
1,6.165999889373779,learn,53834.00011062622,Mon Jun 22 2026 11:42:31 GMT-0400 (Eastern Daylight Time),163620.09999990463,A,fi,I,i,97,3,416.59999990463257,163203.5,9038,WL,A,3.0
1,6.466000080108643,learn,53533.99991989136,Mon Jun 22 2026 11:42:31 GMT-0400 (Eastern Daylight Time),163920.09999990463,A,fin,I,n,277,3,716.5999999046326,163203.5,9038,WL,A,3.0
1,6.598999977111816,learn,53401.00002288818,Mon Jun 22 2026 11:42:31 GMT-0400 (Eastern Daylight Time),164053.29999995232,A,fing,I,g,96,3,849.7999999523163,163203.5,9038,WL,A,3.0
1,7.266000032424927,learn,52733.99996757507,Mon Jun 22 2026 11:42:31 GMT-0400 (Eastern Daylight Time),164720.09999990463,A,finge,I,e,645,3,1516.5999999046326,163203.5,9038,WL,A,3.0
1,7.466000080108643,learn,52533.99991989136,Mon Jun 22 2026 11:42:31 GMT-0400 (Eastern Daylight Time),164920.09999990463,A,finger,I,r,178,3,1716.5999999046326,163203.5,9038,WL,A,3.0
1,7.966000080108643,learn,52033.99991989136,Mon Jun 22 2026 11:42:31 GMT-0400 (Eastern Daylight Time),165419.70000004768,A,fingerenter,I,enter,482,3,2216.2000000476837,163203.5,9038,WL,A,3.0
1,8.683000087738037,learn,51316.99991226196,Mon Jun 22 2026 11:42:31 GMT-0400 (Eastern Daylight Time),166136.70000004768,A,a,I,a,698,3,716.2999999523163,165420.40000009537,9038,WL,A,4.0
1,8.98200011253357,learn,51017.99988746643,Mon Jun 22 2026 11:42:31 GMT-0400 (Eastern Daylight Time),166436.20000004768,A,ap,I,p,273,3,1015.7999999523163,165420.40000009537,9038,WL,A,4.0
1,9.16599988937378,learn,50834.00011062622,Mon Jun 22 2026 11:42:31 GMT-0400 (Eastern Daylight Time),166619.70000004768,A,app,I,p,162,3,1199.2999999523163,165420.40000009537,9038,WL,A,4.0
1,9.315999984741211,learn,50684.00001525879,Mon Jun 22 2026 11:42:31 GMT-0400 (Eastern Daylight Time),166770.09999990463,A,appl,I,l,130,3,1349.6999998092651,165420.40000009537,9038,WL,A,4.0
1,9.499000072479248,learn,50500.99992752075,Mon Jun 22 2026 11:42:31 GMT-0400 (Eastern Daylight Time),166953.40000009537,A,apple,I,e,161,3,1533.0,165420.40000009537,9038,WL,A,4.0
1,10.216000080108643,learn,49783.99991989136,Mon Jun 22 2026 11:42:31 GMT-0400 (Eastern Daylight Time),167669.79999995232,A,appleenter,I,enter,706,3,2249.399999856949,165420.40000009537,9038,WL,A,4.0
1,11.598999977111816,learn,48401.00002288818,Mon Jun 22 2026 11:42:31 GMT-0400 (Eastern Daylight Time),169053.40000009537,A,t,I,t,1360,3,1383.3000001907349,167670.09999990463,9038,WL,A,5.0
1,11.848999977111816,learn,48151.00002288818,Mon Jun 22 2026 11:42:31 GMT-0400 (Eastern Daylight Time),169303.29999995232,A,tr,I,r,230,3,1633.2000000476837,167670.09999990463,9038,WL,A,5.0
1,12.016000032424927,learn,47983.99996757507,Mon Jun 22 2026 11:42:31 GMT-0400 (Eastern Daylight Time),169470.09999990463,A,tra,I,a,149,3,1800.0,167670.09999990463,9038,WL,A,5.0
1,12.216000080108643,learn,47783.99991989136,Mon Jun 22 2026 11:42:31 GMT-0400 (Eastern Daylight Time),169669.79999995232,A,trai,I,i,181,3,1999.7000000476837,167670.09999990463,9038,WL,A,5.0
1,12.865999937057495,learn,47134.000062942505,Mon Jun 22 2026 11:42:31 GMT-0400 (Eastern Daylight Time),170320.09999990463,A,train,I,n,621,3,2650.0,167670.09999990463,9038,WL,A,5.0
1,13.181999921798706,learn,46818.000078201294,Mon Jun 22 2026 11:42:31 GMT-0400 (Eastern Daylight Time),170636.29999995232,A,trainenter,I,enter,296,3,2966.2000000476837,167670.09999990463,9038,WL,A,5.0
1,13.565999984741211,learn,46434.00001525879,Mon Jun 22 2026 11:42:31 GMT-0400 (Eastern Daylight Time),171020.0,A,m,I,m,362,3,383.09999990463257,170636.90000009537,9038,WL,A,6.0
1,13.75,learn,46250.0,Mon Jun 22 2026 11:42:31 GMT-0400 (Eastern Daylight Time),171203.5,A,me,I,e,158,3,566.5999999046326,170636.90000009537,9038,WL,A,6.0
1,13.948999881744385,learn,46051.000118255615,Mon Jun 22 2026 11:42:31 GMT-0400 (Eastern Daylight Time),171403.29999995232,A,mea,I,a,176,3,766.3999998569489,170636.90000009537,9038,WL,A,6.0
1,14.249000072479248,learn,45750.99992752075,Mon Jun 22 2026 11:42:31 GMT-0400 (Eastern Daylight Time),171703.20000004768,A,mead,I,d,270,3,1066.2999999523163,170636.90000009537,9038,WL,A,6.0
1,14.431999921798706,learn,45568.000078201294,Mon Jun 22 2026 11:42:31 GMT-0400 (Eastern Daylight Time),171886.40000009537,A,meado,I,o,172,3,1249.5,170636.90000009537,9038,WL,A,6.0
1,14.799000024795532,learn,45200.99997520447,Mon Jun 22 2026 11:42:31 GMT-0400 (Eastern Daylight Time),172253.20000004768,A,meadow,I,w,346,3,1616.2999999523163,170636.90000009537,9038,WL,A,6.0
1,15.48200011253357,learn,44517.99988746643,Mon Jun 22 2026 11:42:31 GMT-0400 (Eastern Daylight Time),172936.29999995232,A,meadowenter,I,enter,661,3,2299.399999856949,170636.90000009537,9038,WL,A,6.0
1,42.31599998474121,learn,17684.00001525879,Mon Jun 22 2026 11:42:31 GMT-0400 (Eastern Daylight Time),199770.09999990463,A,h,I,h,26822,3,26833.299999952316,172936.79999995232,9038,WL,A,7.0
1,42.49900007247925,learn,17500.999927520752,Mon Jun 22 2026 11:42:31 GMT-0400 (Eastern Daylight Time),199953.29999995232,A,ha,I,a,161,3,27016.5,172936.79999995232,9038,WL,A,7.0
1,42.865999937057495,learn,17134.000062942505,Mon Jun 22 2026 11:42:31 GMT-0400 (Eastern Daylight Time),200319.90000009537,A,har,I,r,336,3,27383.10000014305,172936.79999995232,9038,WL,A,7.0
1,43.08299994468689,learn,16917.00005531311,Mon Jun 22 2026 11:42:31 GMT-0400 (Eastern Daylight Time),200536.79999995232,A,harp,I,p,193,3,27600.0,172936.79999995232,9038,WL,A,7.0
1,43.79900002479553,learn,16200.999975204468,Mon Jun 22 2026 11:42:31 GMT-0400 (Eastern Daylight Time),201253.09999990463,A,harpenter,I,enter,691,3,28316.299999952316,172936.79999995232,9038,WL,A,7.0
1,60.01600003242493,learn,-16.000032424926758,Mon Jun 22 2026 11:42:31 GMT-0400 (Eastern Daylight Time),217469.79999995232,A,None,I,None,16209,3,16216.399999856949,201253.40000009537,9038,WL,A,8.0
2,1.0500001907348633,learn,58949.99980926514,Mon Jun 22 2026 11:42:31 GMT-0400 (Eastern Daylight Time),294703.40000009537,A,b,I,b,1040,3,1049.8000001907349,293653.59999990463,9038,WL,A,1.0
2,1.317000150680542,learn,58682.99984931946,Mon Jun 22 2026 11:42:31 GMT-0400 (Eastern Daylight Time),294970.0,A,bb,I,b,244,3,1316.4000000953674,293653.59999990463,9038,WL,A,1.0
2,1.5510001182556152,learn,58448.999881744385,Mon Jun 22 2026 11:42:31 GMT-0400 (Eastern Daylight Time),295203.59999990463,A,bbo,I,o,208,3,1550.0,293653.59999990463,9038,WL,A,1.0
2,2.0330002307891846,learn,57966.999769210815,Mon Jun 22 2026 11:42:31 GMT-0400 (Eastern Daylight Time),295686.40000009537,A,bbok,I,k,463,3,2032.8000001907349,293653.59999990463,9038,WL,A,1.0
2,2.634000062942505,learn,57365.999937057495,Mon Jun 22 2026 11:42:31 GMT-0400 (Eastern Daylight Time),296286.59999990463,A,bbo,I,backspace,578,3,2633.0,293653.59999990463,9038,WL,A,1.0
2,2.867000102996826,learn,57132.999897003174,Mon Jun 22 2026 11:42:31 GMT-0400 (Eastern Daylight Time),296519.90000009537,A,bb,I,backspace,211,3,2866.300000190735,293653.59999990463,9038,WL,A,1.0
2,2.9840002059936523,learn,57015.99979400635,Mon Jun 22 2026 11:42:31 GMT-0400 (Eastern Daylight Time),296636.59999990463,A,b,I,backspace,90,3,2983.0,293653.59999990463,9038,WL,A,1.0
2,3.933000087738037,learn,56066.99991226196,Mon Jun 22 2026 11:42:31 GMT-0400 (Eastern Daylight Time),297586.2999999523,A,bo,I,o,919,3,3932.7000000476837,293653.59999990463,9038,WL,A,1.0
2,4.101000070571899,learn,55898.9999294281,Mon Jun 22 2026 11:42:31 GMT-0400 (Eastern Daylight Time),297753.59999990463,A,boo,I,o,155,3,4100.0,293653.59999990463,9038,WL,A,1.0
2,4.384000062942505,learn,55615.999937057495,Mon Jun 22 2026 11:42:31 GMT-0400 (Eastern Daylight Time),298036.7000000477,A,book,I,k,257,3,4383.100000143051,293653.59999990463,9038,WL,A,1.0
2,5.183000087738037,learn,54816.99991226196,Mon Jun 22 2026 11:42:31 GMT-0400 (Eastern Daylight Time),298836.40000009537,A,bookenter,I,enter,774,3,5182.800000190735,293653.59999990463,9038,WL,A,1.0
2,5.66700005531311,learn,54332.99994468689,Mon Jun 22 2026 11:42:31 GMT-0400 (Eastern Daylight Time),299319.90000009537,A,t,I,t,466,3,483.2000000476837,298836.7000000477,9038,WL,A,2.0
2,6.117000102996826,learn,53882.999897003174,Mon Jun 22 2026 11:42:31 GMT-0400 (Eastern Daylight Time),299769.90000009537,A,tr,I,r,427,3,933.2000000476837,298836.7000000477,9038,WL,A,2.0
2,6.25,learn,53750.0,Mon Jun 22 2026 11:42:31 GMT-0400 (Eastern Daylight Time),299903.2999999523,A,tre,I,e,122,3,1066.5999999046326,298836.7000000477,9038,WL,A,2.0
2,6.567000150680542,learn,53432.99984931946,Mon Jun 22 2026 11:42:31 GMT-0400 (Eastern Daylight Time),300219.90000009537,A,tree,I,e,292,3,1383.2000000476837,298836.7000000477,9038,WL,A,2.0
2,7.683000087738037,learn,52316.99991226196,Mon Jun 22 2026 11:42:31 GMT-0400 (Eastern Daylight Time),301336.2999999523,A,treeenter,I,enter,1102,3,2499.5999999046326,298836.7000000477,9038,WL,A,2.0
2,8.134000062942505,learn,51865.999937057495,Mon Jun 22 2026 11:42:31 GMT-0400 (Eastern Daylight Time),301786.59999990463,A,m,I,m,438,3,450.0,301336.59999990463,9038,WL,A,3.0
2,8.350000143051147,learn,51649.99985694885,Mon Jun 22 2026 11:42:31 GMT-0400 (Eastern Daylight Time),302003.40000009537,A,me,I,e,200,3,666.8000001907349,301336.59999990463,9038,WL,A,3.0
2,8.600000143051147,learn,51399.99985694885,Mon Jun 22 2026 11:42:31 GMT-0400 (Eastern Daylight Time),302253.40000009537,A,mea,I,a,223,3,916.8000001907349,301336.59999990463,9038,WL,A,3.0
2,9.0,learn,51000.0,Mon Jun 22 2026 11:42:31 GMT-0400 (Eastern Daylight Time),302653.0,A,mead,I,d,373,3,1316.4000000953674,301336.59999990463,9038,WL,A,3.0
2,9.134000062942505,learn,50865.999937057495,Mon Jun 22 2026 11:42:31 GMT-0400 (Eastern Daylight Time),302786.59999990463,A,meado,I,o,121,3,1450.0,301336.59999990463,9038,WL,A,3.0
2,9.33400011062622,learn,50665.99988937378,Mon Jun 22 2026 11:42:31 GMT-0400 (Eastern Daylight Time),302986.7000000477,A,meadow,I,w,176,3,1650.1000001430511,301336.59999990463,9038,WL,A,3.0
2,9.983000040054321,learn,50016.99995994568,Mon Jun 22 2026 11:42:31 GMT-0400 (Eastern Daylight Time),303636.2000000477,A,meadowenter,I,enter,623,3,2299.600000143051,301336.59999990463,9038,WL,A,3.0
2,10.600000143051147,learn,49399.99985694885,Mon Jun 22 2026 11:42:31 GMT-0400 (Eastern Daylight Time),304253.2999999523,A,g,I,g,595,3,616.7000000476837,303636.59999990463,9038,WL,A,4.0
2,10.700000047683716,learn,49299.999952316284,Mon Jun 22 2026 11:42:31 GMT-0400 (Eastern Daylight Time),304353.40000009537,A,go,I,o,85,3,716.8000001907349,303636.59999990463,9038,WL,A,4.0
2,11.117000102996826,learn,48882.999897003174,Mon Jun 22 2026 11:42:31 GMT-0400 (Eastern Daylight Time),304770.0,A,god,I,d,400,3,1133.4000000953674,303636.59999990463,9038,WL,A,4.0
2,11.234000205993652,learn,48765.99979400635,Mon Jun 22 2026 11:42:31 GMT-0400 (Eastern Daylight Time),304886.7000000477,A,godl,I,l,94,3,1250.1000001430511,303636.59999990463,9038,WL,A,4.0
2,12.067000150680542,learn,47932.99984931946,Mon Jun 22 2026 11:42:31 GMT-0400 (Eastern Daylight Time),305720.0,A,god,I,backspace,805,3,2083.4000000953674,303636.59999990463,9038,WL,A,4.0
2,12.234000205993652,learn,47765.99979400635,Mon Jun 22 2026 11:42:31 GMT-0400 (Eastern Daylight Time),305886.7999999523,A,go,I,backspace,146,3,2250.2000000476837,303636.59999990463,9038,WL,A,4.0
2,13.184000015258789,learn,46815.99998474121,Mon Jun 22 2026 11:42:31 GMT-0400 (Eastern Daylight Time),306836.7000000477,A,gol,I,l,923,3,3200.100000143051,303636.59999990463,9038,WL,A,4.0
2,13.41700005531311,learn,46582.99994468689,Mon Jun 22 2026 11:42:31 GMT-0400 (Eastern Daylight Time),307070.0,A,gold,I,d,214,3,3433.4000000953674,303636.59999990463,9038,WL,A,4.0
2,14.017000198364258,learn,45982.99980163574,Mon Jun 22 2026 11:42:31 GMT-0400 (Eastern Daylight Time),307669.7000000477,A,goldenter,I,enter,581,3,4033.100000143051,303636.59999990463,9038,WL,A,4.0
2,14.517000198364258,learn,45482.99980163574,Mon Jun 22 2026 11:42:31 GMT-0400 (Eastern Daylight Time),308169.90000009537,A,f,I,f,481,3,499.80000019073486,307670.09999990463,9038,WL,A,5.0
2,14.934000015258789,learn,45065.99998474121,Mon Jun 22 2026 11:42:31 GMT-0400 (Eastern Daylight Time),308586.59999990463,A,,I,backspace,399,3,916.5,307670.09999990463,9038,WL,A,5.0
2,15.067000150680542,learn,44932.99984931946,Mon Jun 22 2026 11:42:31 GMT-0400 (Eastern Daylight Time),308719.90000009537,A,r,I,r,120,3,1049.8000001907349,307670.09999990463,9038,WL,A,5.0
2,15.234000205993652,learn,44765.99979400635,Mon Jun 22 2026 11:42:31 GMT-0400 (Eastern Daylight Time),308886.5,A,ra,I,a,148,3,1216.4000000953674,307670.09999990463,9038,WL,A,5.0
2,15.467000007629395,learn,44532.999992370605,Mon Jun 22 2026 11:42:31 GMT-0400 (Eastern Daylight Time),309119.90000009537,A,rat,I,t,212,3,1449.8000001907349,307670.09999990463,9038,WL,A,5.0
2,15.617000102996826,learn,44382.999897003174,Mon Jun 22 2026 11:42:31 GMT-0400 (Eastern Daylight Time),309270.0,A,ratt,I,t,140,3,1599.9000000953674,307670.09999990463,9038,WL,A,5.0
2,15.784000158309937,learn,44215.99984169006,Mon Jun 22 2026 11:42:31 GMT-0400 (Eastern Daylight Time),309436.59999990463,A,rattl,I,l,141,3,1766.5,307670.09999990463,9038,WL,A,5.0
2,15.934000015258789,learn,44065.99998474121,Mon Jun 22 2026 11:42:31 GMT-0400 (Eastern Daylight Time),309586.7000000477,A,rattle,I,e,126,3,1916.6000001430511,307670.09999990463,9038,WL,A,5.0
2,16.40000009536743,learn,43599.99990463257,Mon Jun 22 2026 11:42:31 GMT-0400 (Eastern Daylight Time),310053.0,A,rattleenter,I,enter,441,3,2382.9000000953674,307670.09999990463,9038,WL,A,5.0
2,18.117000102996826,learn,41882.999897003174,Mon Jun 22 2026 11:42:31 GMT-0400 (Eastern Daylight Time),311769.90000009537,A,t,I,t,1697,3,1716.7000000476837,310053.2000000477,9038,WL,A,6.0
2,18.367000102996826,learn,41632.999897003174,Mon Jun 22 2026 11:42:31 GMT-0400 (Eastern Daylight Time),312019.90000009537,A,tr,I,r,225,3,1966.7000000476837,310053.2000000477,9038,WL,A,6.0
2,18.534000158309937,learn,41465.99984169006,Mon Jun 22 2026 11:42:31 GMT-0400 (Eastern Daylight Time),312186.59999990463,A,tra,I,a,136,3,2133.399999856949,310053.2000000477,9038,WL,A,6.0
2,18.68400001525879,learn,41315.99998474121,Mon Jun 22 2026 11:42:31 GMT-0400 (Eastern Daylight Time),312336.59999990463,A,trai,I,i,137,3,2283.399999856949,310053.2000000477,9038,WL,A,6.0
2,18.817000150680542,learn,41182.99984931946,Mon Jun 22 2026 11:42:31 GMT-0400 (Eastern Daylight Time),312470.0,A,train,I,n,125,3,2416.7999999523163,310053.2000000477,9038,WL,A,6.0
2,19.383000135421753,learn,40616.99986457825,Mon Jun 22 2026 11:42:31 GMT-0400 (Eastern Daylight Time),313036.2000000477,A,trainenter,I,enter,548,3,2983.0,310053.2000000477,9038,WL,A,6.0
2,19.800000190734863,learn,40199.99980926514,Mon Jun 22 2026 11:42:31 GMT-0400 (Eastern Daylight Time),313453.5,A,l,I,l,402,3,416.90000009536743,313036.59999990463,9038,WL,A,7.0
2,20.050000190734863,learn,39949.99980926514,Mon Jun 22 2026 11:42:31 GMT-0400 (Eastern Daylight Time),313703.2999999523,A,lo,I,o,238,3,666.7000000476837,313036.59999990463,9038,WL,A,7.0
2,20.217000007629395,learn,39782.999992370605,Mon Jun 22 2026 11:42:31 GMT-0400 (Eastern Daylight Time),313869.90000009537,A,log,I,g,156,3,833.3000001907349,313036.59999990463,9038,WL,A,7.0
2,20.817000150680542,learn,39182.99984931946,Mon Jun 22 2026 11:42:31 GMT-0400 (Eastern Daylight Time),314469.7000000477,A,logenter,I,enter,581,3,1433.1000001430511,313036.59999990463,9038,WL,A,7.0
2,21.100000143051147,learn,38899.99985694885,Mon Jun 22 2026 11:42:31 GMT-0400 (Eastern Daylight Time),314753.2999999523,A,a,I,a,264,3,283.39999985694885,314469.90000009537,9038,WL,A,8.0
2,21.267000198364258,learn,38732.99980163574,Mon Jun 22 2026 11:42:31 GMT-0400 (Eastern Daylight Time),314919.90000009537,A,ap,I,p,153,3,450.0,314469.90000009537,9038,WL,A,8.0
2,21.534000158309937,learn,38465.99984169006,Mon Jun 22 2026 11:42:31 GMT-0400 (Eastern Daylight Time),315186.59999990463,A,app,I,p,235,3,716.6999998092651,314469.90000009537,9038,WL,A,8.0
2,21.784000158309937,learn,38215.99984169006,Mon Jun 22 2026 11:42:31 GMT-0400 (Eastern Daylight Time),315436.59999990463,A,appl,I,l,232,3,966.6999998092651,314469.90000009537,9038,WL,A,8.0
2,22.017000198364258,learn,37982.99980163574,Mon Jun 22 2026 11:42:31 GMT-0400 (Eastern Daylight Time),315670.0,A,apple,I,e,222,3,1200.0999999046326,314469.90000009537,9038,WL,A,8.0
2,23.201000213623047,learn,36798.99978637695,Mon Jun 22 2026 11:42:31 GMT-0400 (Eastern Daylight Time),316853.5,A,appleenter,I,enter,1158,3,2383.5999999046326,314469.90000009537,9038,WL,A,8.0
2,23.550000190734863,learn,36449.99980926514,Mon Jun 22 2026 11:42:31 GMT-0400 (Eastern Daylight Time),317203.40000009537,A,f,I,f,336,3,349.5,316853.90000009537,9038,WL,A,9.0
2,23.66700005531311,learn,36332.99994468689,Mon Jun 22 2026 11:42:31 GMT-0400 (Eastern Daylight Time),317319.7999999523,A,fi,I,i,95,3,465.89999985694885,316853.90000009537,9038,WL,A,9.0
2,23.967000007629395,learn,36032.999992370605,Mon Jun 22 2026 11:42:31 GMT-0400 (Eastern Daylight Time),317619.90000009537,A,fin,I,n,268,3,766.0,316853.90000009537,9038,WL,A,9.0
2,24.384000062942505,learn,35615.999937057495,Mon Jun 22 2026 11:42:31 GMT-0400 (Eastern Daylight Time),318036.5,A,fing,I,g,391,3,1182.5999999046326,316853.90000009537,9038,WL,A,9.0
2,24.65000009536743,learn,35349.99990463257,Mon Jun 22 2026 11:42:31 GMT-0400 (Eastern Daylight Time),318303.40000009537,A,finge,I,e,246,3,1449.5,316853.90000009537,9038,WL,A,9.0
2,24.75,learn,35250.0,Mon Jun 22 2026 11:42:31 GMT-0400 (Eastern Daylight Time),318403.2000000477,A,finger,I,r,85,3,1549.2999999523163,316853.90000009537,9038,WL,A,9.0
2,25.267000198364258,learn,34732.99980163574,Mon Jun 22 2026 11:42:31 GMT-0400 (Eastern Daylight Time),318919.59999990463,A,fingerenter,I,enter,496,3,2065.699999809265,316853.90000009537,9038,WL,A,9.0
2,33.16700005531311,learn,26832.99994468689,Mon Jun 22 2026 11:42:31 GMT-0400 (Eastern Daylight Time),326820.09999990463,A,b,I,b,7887,3,7900.0,318920.09999990463,9038,WL,A,10.0
2,33.40000009536743,learn,26599.99990463257,Mon Jun 22 2026 11:42:31 GMT-0400 (Eastern Daylight Time),327053.40000009537,A,bu,I,u,214,3,8133.300000190735,318920.09999990463,9038,WL,A,10.0
2,33.635000228881836,learn,26364.999771118164,Mon Jun 22 2026 11:42:31 GMT-0400 (Eastern Daylight Time),327288.09999990463,A,but,I,t,221,3,8368.0,318920.09999990463,9038,WL,A,10.0
2,33.83400011062622,learn,26165.99988937378,Mon Jun 22 2026 11:42:31 GMT-0400 (Eastern Daylight Time),327486.7000000477,A,butt,I,t,170,3,8566.600000143051,318920.09999990463,9038,WL,A,10.0
2,33.90000009536743,learn,26099.99990463257,Mon Jun 22 2026 11:42:31 GMT-0400 (Eastern Daylight Time),327553.0,A,butto,I,o,45,3,8632.900000095367,318920.09999990463,9038,WL,A,10.0
2,34.98400020599365,learn,25015.999794006348,Mon Jun 22 2026 11:42:31 GMT-0400 (Eastern Daylight Time),328636.59999990463,A,button,I,n,1059,3,9716.5,318920.09999990463,9038,WL,A,10.0
2,35.38300013542175,learn,24616.999864578247,Mon Jun 22 2026 11:42:31 GMT-0400 (Eastern Daylight Time),329036.2999999523,A,buttonenter,I,enter,382,3,10116.200000047684,318920.09999990463,9038,WL,A,10.0
2,35.78400015830994,learn,24215.999841690063,Mon Jun 22 2026 11:42:31 GMT-0400 (Eastern Daylight Time),329436.59999990463,A,k,I,k,385,3,400.0,329036.59999990463,9038,WL,A,11.0
2,36.05000019073486,learn,23949.999809265137,Mon Jun 22 2026 11:42:31 GMT-0400 (Eastern Daylight Time),329703.2999999523,A,ke,I,e,247,3,666.7000000476837,329036.59999990463,9038,WL,A,11.0
2,36.25,learn,23750.0,Mon Jun 22 2026 11:42:31 GMT-0400 (Eastern Daylight Time),329903.40000009537,A,key,I,y,179,3,866.8000001907349,329036.59999990463,9038,WL,A,11.0
2,36.717000007629395,learn,23282.999992370605,Mon Jun 22 2026 11:42:31 GMT-0400 (Eastern Daylight Time),330369.59999990463,A,keyenter,I,enter,442,3,1333.0,329036.59999990463,9038,WL,A,11.0
2,48.41700005531311,learn,11582.99994468689,Mon Jun 22 2026 11:42:31 GMT-0400 (Eastern Daylight Time),342070.09999990463,A,r,I,r,11694,3,11700.199999809265,330369.90000009537,9038,WL,A,12.0
2,48.60000014305115,learn,11399.999856948853,Mon Jun 22 2026 11:42:31 GMT-0400 (Eastern Daylight Time),342253.40000009537,A,re,I,e,156,3,11883.5,330369.90000009537,9038,WL,A,12.0
2,48.866000175476074,learn,11133.999824523926,Mon Jun 22 2026 11:42:31 GMT-0400 (Eastern Daylight Time),342519.40000009537,A,rea,I,a,246,3,12149.5,330369.90000009537,9038,WL,A,12.0
2,49.15000009536743,learn,10849.999904632568,Mon Jun 22 2026 11:42:31 GMT-0400 (Eastern Daylight Time),342803.2999999523,A,read,I,d,264,3,12433.399999856949,330369.90000009537,9038,WL,A,12.0
2,49.55000019073486,learn,10449.999809265137,Mon Jun 22 2026 11:42:31 GMT-0400 (Eastern Daylight Time),343202.90000009537,A,readenter,I,enter,377,3,12833.0,330369.90000009537,9038,WL,A,12.0
2,60.01700019836426,learn,-17.000198364257812,Mon Jun 22 2026 11:42:31 GMT-0400 (Eastern Daylight Time),353670.09999990463,A,None,I,None,10460,3,10466.799999952316,343203.2999999523,9038,WL,A,13.0
3,1.6499998569488525,learn,58350.00014305115,Mon Jun 22 2026 11:42:31 GMT-0400 (Eastern Daylight Time),433320.0,A,b,I,b,1631,3,1649.2999999523163,431670.7000000477,9038,WL,A,1.0
3,1.9169998168945312,learn,58083.00018310547,Mon Jun 22 2026 11:42:31 GMT-0400 (Eastern Daylight Time),433586.7000000477,A,bo,I,o,248,3,1916.0,431670.7000000477,9038,WL,A,1.0
3,2.1499998569488525,learn,57850.00014305115,Mon Jun 22 2026 11:42:31 GMT-0400 (Eastern Daylight Time),433819.90000009537,A,boo,I,o,208,3,2149.2000000476837,431670.7000000477,9038,WL,A,1.0
3,2.3999998569488525,learn,57600.00014305115,Mon Jun 22 2026 11:42:31 GMT-0400 (Eastern Daylight Time),434069.90000009537,A,book,I,k,231,3,2399.2000000476837,431670.7000000477,9038,WL,A,1.0
3,3.0160000324249268,learn,56983.99996757507,Mon Jun 22 2026 11:42:31 GMT-0400 (Eastern Daylight Time),434686.2000000477,A,bookenter,I,enter,598,3,3015.5,431670.7000000477,9038,WL,A,1.0
3,3.482999801635742,learn,56517.00019836426,Mon Jun 22 2026 11:42:31 GMT-0400 (Eastern Daylight Time),435153.2000000477,A,f,I,f,448,3,466.60000014305115,434686.59999990463,9038,WL,A,2.0
3,3.615999937057495,learn,56384.000062942505,Mon Jun 22 2026 11:42:31 GMT-0400 (Eastern Daylight Time),435286.5,A,fl,I,l,121,3,599.9000000953674,434686.59999990463,9038,WL,A,2.0
3,3.866999864578247,learn,56133.00013542175,Mon Jun 22 2026 11:42:31 GMT-0400 (Eastern Daylight Time),435536.59999990463,A,flo,I,o,237,3,850.0,434686.59999990463,9038,WL,A,2.0
3,4.0329999923706055,learn,55967.000007629395,Mon Jun 22 2026 11:42:31 GMT-0400 (Eastern Daylight Time),435703.40000009537,A,flow,I,w,148,3,1016.8000001907349,434686.59999990463,9038,WL,A,2.0
3,4.232999801635742,learn,55767.00019836426,Mon Jun 22 2026 11:42:31 GMT-0400 (Eastern Daylight Time),435903.2999999523,A,flowe,I,e,171,3,1216.7000000476837,434686.59999990463,9038,WL,A,2.0
3,4.482999801635742,learn,55517.00019836426,Mon Jun 22 2026 11:42:31 GMT-0400 (Eastern Daylight Time),436153.2999999523,A,flower,I,r,234,3,1466.7000000476837,434686.59999990463,9038,WL,A,2.0
3,4.9659998416900635,learn,55034.00015830994,Mon Jun 22 2026 11:42:31 GMT-0400 (Eastern Daylight Time),436636.2000000477,A,flowerenter,I,enter,457,3,1949.6000001430511,434686.59999990463,9038,WL,A,2.0
3,6.549999952316284,learn,53450.000047683716,Mon Jun 22 2026 11:42:31 GMT-0400 (Eastern Daylight Time),438219.7999999523,A,s,I,s,1570,3,1583.2000000476837,436636.59999990463,9038,WL,A,3.0
3,6.932999849319458,learn,53067.00015068054,Mon Jun 22 2026 11:42:31 GMT-0400 (Eastern Daylight Time),438603.2000000477,A,sl,I,l,358,3,1966.6000001430511,436636.59999990463,9038,WL,A,3.0
3,7.066999912261963,learn,52933.00008773804,Mon Jun 22 2026 11:42:31 GMT-0400 (Eastern Daylight Time),438736.59999990463,A,sla,I,a,112,3,2100.0,436636.59999990463,9038,WL,A,3.0
3,7.599999904632568,learn,52400.00009536743,Mon Jun 22 2026 11:42:31 GMT-0400 (Eastern Daylight Time),439269.90000009537,A,sl,I,backspace,514,3,2633.300000190735,436636.59999990463,9038,WL,A,3.0
3,7.766999959945679,learn,52233.00004005432,Mon Jun 22 2026 11:42:31 GMT-0400 (Eastern Daylight Time),439436.59999990463,A,s,I,backspace,148,3,2800.0,436636.59999990463,9038,WL,A,3.0
3,7.8999998569488525,learn,52100.00014305115,Mon Jun 22 2026 11:42:31 GMT-0400 (Eastern Daylight Time),439569.90000009537,A,,I,backspace,110,3,2933.300000190735,436636.59999990463,9038,WL,A,3.0
3,8.25,learn,51750.0,Mon Jun 22 2026 11:42:31 GMT-0400 (Eastern Daylight Time),439919.90000009537,A,a,I,a,338,3,3283.300000190735,436636.59999990463,9038,WL,A,3.0
3,8.83299994468689,learn,51167.00005531311,Mon Jun 22 2026 11:42:31 GMT-0400 (Eastern Daylight Time),440503.2000000477,A,,I,backspace,570,3,3866.600000143051,436636.59999990463,9038,WL,A,3.0
3,9.08299994468689,learn,50917.00005531311,Mon Jun 22 2026 11:42:31 GMT-0400 (Eastern Daylight Time),440753.2999999523,A,s,I,s,229,3,4116.700000047684,436636.59999990463,9038,WL,A,3.0
3,9.349999904632568,learn,50650.00009536743,Mon Jun 22 2026 11:42:31 GMT-0400 (Eastern Daylight Time),441019.7999999523,A,sa,I,a,242,3,4383.200000047684,436636.59999990463,9038,WL,A,3.0
3,9.516999959945679,learn,50483.00004005432,Mon Jun 22 2026 11:42:31 GMT-0400 (Eastern Daylight Time),441186.59999990463,A,sal,I,l,140,3,4550.0,436636.59999990463,9038,WL,A,3.0
3,9.849999904632568,learn,50150.00009536743,Mon Jun 22 2026 11:42:31 GMT-0400 (Eastern Daylight Time),441519.7999999523,A,salt,I,t,311,3,4883.200000047684,436636.59999990463,9038,WL,A,3.0
3,10.316999912261963,learn,49683.00008773804,Mon Jun 22 2026 11:42:31 GMT-0400 (Eastern Daylight Time),441986.59999990463,A,saltr,I,r,450,3,5350.0,436636.59999990463,9038,WL,A,3.0
3,10.916999816894531,learn,49083.00018310547,Mon Jun 22 2026 11:42:31 GMT-0400 (Eastern Daylight Time),442586.7000000477,A,salt,I,backspace,584,3,5950.100000143051,436636.59999990463,9038,WL,A,3.0
3,11.549999952316284,learn,48450.000047683716,Mon Jun 22 2026 11:42:31 GMT-0400 (Eastern Daylight Time),443219.5,A,saltenter,I,enter,607,3,6582.900000095367,436636.59999990463,9038,WL,A,3.0
3,11.949999809265137,learn,48050.00019073486,Mon Jun 22 2026 11:42:31 GMT-0400 (Eastern Daylight Time),443619.7999999523,A,r,I,r,387,3,400.0,443219.7999999523,9038,WL,A,4.0
3,12.217000007629395,learn,47782.999992370605,Mon Jun 22 2026 11:42:31 GMT-0400 (Eastern Daylight Time),443886.59999990463,A,ru,I,u,246,3,666.7999999523163,443219.7999999523,9038,WL,A,4.0
3,12.766999959945679,learn,47233.00004005432,Mon Jun 22 2026 11:42:31 GMT-0400 (Eastern Daylight Time),444436.7000000477,A,rug,I,g,532,3,1216.9000000953674,443219.7999999523,9038,WL,A,4.0
3,13.149999856948853,learn,46850.00014305115,Mon Jun 22 2026 11:42:31 GMT-0400 (Eastern Daylight Time),444819.59999990463,A,rugenter,I,enter,366,3,1599.7999999523163,443219.7999999523,9038,WL,A,4.0
3,13.516999959945679,learn,46483.00004005432,Mon Jun 22 2026 11:42:31 GMT-0400 (Eastern Daylight Time),445186.59999990463,A,h,I,h,355,3,366.69999980926514,444819.90000009537,9038,WL,A,5.0
3,13.632999897003174,learn,46367.000102996826,Mon Jun 22 2026 11:42:31 GMT-0400 (Eastern Daylight Time),445303.2000000477,A,ha,I,a,105,3,483.2999999523163,444819.90000009537,9038,WL,A,5.0
3,13.916999816894531,learn,46083.00018310547,Mon Jun 22 2026 11:42:31 GMT-0400 (Eastern Daylight Time),445586.59999990463,A,har,I,r,263,3,766.6999998092651,444819.90000009537,9038,WL,A,5.0
3,14.532999992370605,learn,45467.000007629395,Mon Jun 22 2026 11:42:31 GMT-0400 (Eastern Daylight Time),446203.0,A,harp,I,p,591,3,1383.0999999046326,444819.90000009537,9038,WL,A,5.0
3,14.982999801635742,learn,45017.00019836426,Mon Jun 22 2026 11:42:31 GMT-0400 (Eastern Daylight Time),446652.90000009537,A,harpenter,I,enter,432,3,1833.0,444819.90000009537,9038,WL,A,5.0
3,16.66699981689453,learn,43333.00018310547,Mon Jun 22 2026 11:42:31 GMT-0400 (Eastern Daylight Time),448336.59999990463,A,c,I,c,1665,3,1683.3999998569489,446653.2000000477,9038,WL,A,6.0
3,16.899999856948853,learn,43100.00014305115,Mon Jun 22 2026 11:42:31 GMT-0400 (Eastern Daylight Time),448569.90000009537,A,ch,I,h,216,3,1916.7000000476837,446653.2000000477,9038,WL,A,6.0
3,17.16699981689453,learn,42833.00018310547,Mon Jun 22 2026 11:42:31 GMT-0400 (Eastern Daylight Time),448836.59999990463,A,chi,I,i,242,3,2183.399999856949,446653.2000000477,9038,WL,A,6.0
3,17.682999849319458,learn,42317.00015068054,Mon Jun 22 2026 11:42:31 GMT-0400 (Eastern Daylight Time),449353.2000000477,A,chie,I,e,492,3,2700.0,446653.2000000477,9038,WL,A,6.0
3,18.09999990463257,learn,41900.00009536743,Mon Jun 22 2026 11:42:31 GMT-0400 (Eastern Daylight Time),449769.7999999523,A,chi,I,backspace,392,3,3116.5999999046326,446653.2000000477,9038,WL,A,6.0
3,18.382999897003174,learn,41617.000102996826,Mon Jun 22 2026 11:42:31 GMT-0400 (Eastern Daylight Time),450053.40000009537,A,chim,I,m,258,3,3400.2000000476837,446653.2000000477,9038,WL,A,6.0
3,18.51699995994568,learn,41483.00004005432,Mon Jun 22 2026 11:42:31 GMT-0400 (Eastern Daylight Time),450186.59999990463,A,chime,I,e,110,3,3533.399999856949,446653.2000000477,9038,WL,A,6.0
3,18.932999849319458,learn,41067.00015068054,Mon Jun 22 2026 11:42:31 GMT-0400 (Eastern Daylight Time),450603.2999999523,A,chimen,I,n,399,3,3950.0999999046326,446653.2000000477,9038,WL,A,6.0
3,19.549999952316284,learn,40450.000047683716,Mon Jun 22 2026 11:42:31 GMT-0400 (Eastern Daylight Time),451220.0,A,chime,I,backspace,591,3,4566.799999952316,446653.2000000477,9038,WL,A,6.0
3,19.732999801635742,learn,40267.00019836426,Mon Jun 22 2026 11:42:31 GMT-0400 (Eastern Daylight Time),451403.2999999523,A,chim,I,backspace,167,3,4750.099999904633,446653.2000000477,9038,WL,A,6.0
3,20.366999864578247,learn,39633.00013542175,Mon Jun 22 2026 11:42:31 GMT-0400 (Eastern Daylight Time),452036.7000000477,A,chimn,I,n,614,3,5383.5,446653.2000000477,9038,WL,A,6.0
3,20.549999952316284,learn,39450.000047683716,Mon Jun 22 2026 11:42:31 GMT-0400 (Eastern Daylight Time),452219.90000009537,A,chimne,I,e,167,3,5566.700000047684,446653.2000000477,9038,WL,A,6.0
3,20.76699995994568,learn,39233.00004005432,Mon Jun 22 2026 11:42:31 GMT-0400 (Eastern Daylight Time),452436.59999990463,A,chimney,I,y,182,3,5783.399999856949,446653.2000000477,9038,WL,A,6.0
3,21.266000032424927,learn,38733.99996757507,Mon Jun 22 2026 11:42:31 GMT-0400 (Eastern Daylight Time),452936.2000000477,A,chimneyenter,I,enter,478,3,6283.0,446653.2000000477,9038,WL,A,6.0
3,21.732999801635742,learn,38267.00019836426,Mon Jun 22 2026 11:42:31 GMT-0400 (Eastern Daylight Time),453403.2000000477,A,l,I,l,454,3,466.60000014305115,452936.59999990463,9038,WL,A,7.0
3,21.982999801635742,learn,38017.00019836426,Mon Jun 22 2026 11:42:31 GMT-0400 (Eastern Daylight Time),453653.2999999523,A,lo,I,o,222,3,716.7000000476837,452936.59999990463,9038,WL,A,7.0
3,22.116999864578247,learn,37883.00013542175,Mon Jun 22 2026 11:42:31 GMT-0400 (Eastern Daylight Time),453786.59999990463,A,log,I,g,110,3,850.0,452936.59999990463,9038,WL,A,7.0
3,22.58299994468689,learn,37417.00005531311,Mon Jun 22 2026 11:42:31 GMT-0400 (Eastern Daylight Time),454252.7999999523,A,logenter,I,enter,455,3,1316.2000000476837,452936.59999990463,9038,WL,A,7.0
3,25.51699995994568,learn,34483.00004005432,Mon Jun 22 2026 11:42:31 GMT-0400 (Eastern Daylight Time),457186.59999990463,A,m,I,m,2922,3,2933.5999999046326,454253.0,9038,WL,A,8.0
3,25.682999849319458,learn,34317.00015068054,Mon Jun 22 2026 11:42:31 GMT-0400 (Eastern Daylight Time),457353.40000009537,A,me,I,e,144,3,3100.4000000953674,454253.0,9038,WL,A,8.0
3,25.84999990463257,learn,34150.00009536743,Mon Jun 22 2026 11:42:31 GMT-0400 (Eastern Daylight Time),457519.7999999523,A,mea,I,a,138,3,3266.7999999523163,454253.0,9038,WL,A,8.0
3,26.16699981689453,learn,33833.00018310547,Mon Jun 22 2026 11:42:31 GMT-0400 (Eastern Daylight Time),457836.7000000477,A,mead,I,d,291,3,3583.7000000476837,454253.0,9038,WL,A,8.0
3,26.33299994468689,learn,33667.00005531311,Mon Jun 22 2026 11:42:31 GMT-0400 (Eastern Daylight Time),458003.2999999523,A,meado,I,o,142,3,3750.2999999523163,454253.0,9038,WL,A,8.0
3,26.59999990463257,learn,33400.00009536743,Mon Jun 22 2026 11:42:31 GMT-0400 (Eastern Daylight Time),458269.7000000477,A,meadow,I,w,252,3,4016.7000000476837,454253.0,9038,WL,A,8.0
3,27.199999809265137,learn,32800.00019073486,Mon Jun 22 2026 11:42:31 GMT-0400 (Eastern Daylight Time),458869.59999990463,A,meadowenter,I,enter,581,3,4616.599999904633,454253.0,9038,WL,A,8.0
3,28.282999992370605,learn,31717.000007629395,Mon Jun 22 2026 11:42:31 GMT-0400 (Eastern Daylight Time),459953.2000000477,A,t,I,t,1073,3,1083.2999999523163,458869.90000009537,9038,WL,A,9.0
3,28.549999952316284,learn,31450.000047683716,Mon Jun 22 2026 11:42:31 GMT-0400 (Eastern Daylight Time),460220.09999990463,A,tr,I,r,241,3,1350.1999998092651,458869.90000009537,9038,WL,A,9.0
3,28.76699995994568,learn,31233.00004005432,Mon Jun 22 2026 11:42:31 GMT-0400 (Eastern Daylight Time),460436.59999990463,A,tra,I,a,188,3,1566.6999998092651,458869.90000009537,9038,WL,A,9.0
3,28.932999849319458,learn,31067.000150680542,Mon Jun 22 2026 11:42:31 GMT-0400 (Eastern Daylight Time),460603.2000000477,A,trai,I,i,151,3,1733.2999999523163,458869.90000009537,9038,WL,A,9.0
3,29.116999864578247,learn,30883.000135421753,Mon Jun 22 2026 11:42:31 GMT-0400 (Eastern Daylight Time),460786.5,A,train,I,n,152,3,1916.5999999046326,458869.90000009537,9038,WL,A,9.0
3,29.482999801635742,learn,30517.000198364258,Mon Jun 22 2026 11:42:31 GMT-0400 (Eastern Daylight Time),461152.90000009537,A,trainenter,I,enter,345,3,2283.0,458869.90000009537,9038,WL,A,9.0
3,41.64999985694885,learn,18350.000143051147,Mon Jun 22 2026 11:42:31 GMT-0400 (Eastern Daylight Time),473320.09999990463,A,f,I,f,12149,3,12166.899999856949,461153.2000000477,9038,WL,A,10.0
3,41.86699986457825,learn,18133.000135421753,Mon Jun 22 2026 11:42:31 GMT-0400 (Eastern Daylight Time),473536.5,A,fi,I,i,194,3,12383.299999952316,461153.2000000477,9038,WL,A,10.0
3,42.19999980926514,learn,17800.000190734863,Mon Jun 22 2026 11:42:31 GMT-0400 (Eastern Daylight Time),473869.7999999523,A,fin,I,n,306,3,12716.599999904633,461153.2000000477,9038,WL,A,10.0
3,42.282999992370605,learn,17717.000007629395,Mon Jun 22 2026 11:42:31 GMT-0400 (Eastern Daylight Time),473953.09999990463,A,fing,I,g,61,3,12799.899999856949,461153.2000000477,9038,WL,A,10.0
3,42.532999992370605,learn,17467.000007629395,Mon Jun 22 2026 11:42:31 GMT-0400 (Eastern Daylight Time),474203.2999999523,A,finge,I,e,234,3,13050.099999904633,461153.2000000477,9038,WL,A,10.0
3,42.64999985694885,learn,17350.000143051147,Mon Jun 22 2026 11:42:31 GMT-0400 (Eastern Daylight Time),474320.0,A,finger,I,r,96,3,13166.799999952316,461153.2000000477,9038,WL,A,10.0
3,43.115999937057495,learn,16884.000062942505,Mon Jun 22 2026 11:42:31 GMT-0400 (Eastern Daylight Time),474786.2999999523,A,fingerenter,I,enter,433,3,13633.099999904633,461153.2000000477,9038,WL,A,10.0
3,58.96599984169006,learn,1034.0001583099365,Mon Jun 22 2026 11:42:31 GMT-0400 (Eastern Daylight Time),490636.5,A,h,I,h,15828,3,15849.900000095367,474786.59999990463,9038,WL,A,11.0
3,59.11699986457825,learn,883.0001354217529,Mon Jun 22 2026 11:42:31 GMT-0400 (Eastern Daylight Time),490786.59999990463,A,ha,I,a,132,3,16000.0,474786.59999990463,9038,WL,A,11.0
3,59.39999985694885,learn,600.0001430511475,Mon Jun 22 2026 11:42:31 GMT-0400 (Eastern Daylight Time),491069.90000009537,A,har,I,r,257,3,16283.300000190735,474786.59999990463,9038,WL,A,11.0
3,59.69999980926514,learn,300.0001907348633,Mon Jun 22 2026 11:42:31 GMT-0400 (Eastern Daylight Time),491369.90000009537,A,harp,I,p,285,3,16583.300000190735,474786.59999990463,9038,WL,A,11.0
3,60.01699995994568,learn,-16.99995994567871,Mon Jun 22 2026 11:42:31 GMT-0400 (Eastern Daylight Time),491686.7999999523,A,harpNone,I,None,305,3,16900.200000047684,474786.59999990463,9038,WL,A,11.0
4,1.0329999923706055,learn,58967.000007629395,Mon Jun 22 2026 11:42:31 GMT-0400 (Eastern Daylight Time),561503.2000000477,A,g,I,g,1023,3,1032.6000001430511,560470.5999999046,9038,WL,A,1.0
4,1.2660000324249268,learn,58733.99996757507,Mon Jun 22 2026 11:42:31 GMT-0400 (Eastern Daylight Time),561736.4000000954,A,go,I,o,211,3,1265.8000001907349,560470.5999999046,9038,WL,A,1.0
4,1.5829999446868896,learn,58417.00005531311,Mon Jun 22 2026 11:42:31 GMT-0400 (Eastern Daylight Time),562053.2000000477,A,gol,I,l,292,3,1582.6000001430511,560470.5999999046,9038,WL,A,1.0
4,2.116999864578247,learn,57883.00013542175,Mon Jun 22 2026 11:42:31 GMT-0400 (Eastern Daylight Time),562586.5,A,gold,I,d,510,3,2115.9000000953674,560470.5999999046,9038,WL,A,1.0
4,2.632999897003174,learn,57367.000102996826,Mon Jun 22 2026 11:42:31 GMT-0400 (Eastern Daylight Time),563102.9000000954,A,goldenter,I,enter,494,3,2632.300000190735,560470.5999999046,9038,WL,A,1.0
4,3.116999864578247,learn,56883.00013542175,Mon Jun 22 2026 11:42:31 GMT-0400 (Eastern Daylight Time),563586.5,A,k,I,k,472,3,483.2999999523163,563103.2000000477,9038,WL,A,2.0
4,3.299999952316284,learn,56700.000047683716,Mon Jun 22 2026 11:42:31 GMT-0400 (Eastern Daylight Time),563770.0,A,ke,I,e,161,3,666.7999999523163,563103.2000000477,9038,WL,A,2.0
4,3.565999984741211,learn,56434.00001525879,Mon Jun 22 2026 11:42:31 GMT-0400 (Eastern Daylight Time),564036.0999999046,A,key,I,y,248,3,932.8999998569489,563103.2000000477,9038,WL,A,2.0
4,4.065999984741211,learn,55934.00001525879,Mon Jun 22 2026 11:42:31 GMT-0400 (Eastern Daylight Time),564536.2000000477,A,keyenter,I,enter,490,3,1433.0,563103.2000000477,9038,WL,A,2.0
4,4.432999849319458,learn,55567.00015068054,Mon Jun 22 2026 11:42:31 GMT-0400 (Eastern Daylight Time),564903.2000000477,A,r,I,r,358,3,366.60000014305115,564536.5999999046,9038,WL,A,3.0
4,4.615999937057495,learn,55384.000062942505,Mon Jun 22 2026 11:42:31 GMT-0400 (Eastern Daylight Time),565086.5,A,ra,I,a,164,3,549.9000000953674,564536.5999999046,9038,WL,A,3.0
4,4.849999904632568,learn,55150.00009536743,Mon Jun 22 2026 11:42:31 GMT-0400 (Eastern Daylight Time),565319.9000000954,A,rat,I,t,211,3,783.3000001907349,564536.5999999046,9038,WL,A,3.0
4,5.0,learn,55000.0,Mon Jun 22 2026 11:42:31 GMT-0400 (Eastern Daylight Time),565469.7999999523,A,ratt,I,t,138,3,933.2000000476837,564536.5999999046,9038,WL,A,3.0
4,5.116999864578247,learn,54883.00013542175,Mon Jun 22 2026 11:42:31 GMT-0400 (Eastern Daylight Time),565586.7999999523,A,rattl,I,l,85,3,1050.2000000476837,564536.5999999046,9038,WL,A,3.0
4,5.299999952316284,learn,54700.000047683716,Mon Jun 22 2026 11:42:31 GMT-0400 (Eastern Daylight Time),565770.0,A,rattle,I,e,152,3,1233.4000000953674,564536.5999999046,9038,WL,A,3.0
4,5.549999952316284,learn,54450.000047683716,Mon Jun 22 2026 11:42:31 GMT-0400 (Eastern Daylight Time),566019.4000000954,A,rattleenter,I,enter,224,3,1482.8000001907349,564536.5999999046,9038,WL,A,3.0
4,6.516999959945679,learn,53483.00004005432,Mon Jun 22 2026 11:42:31 GMT-0400 (Eastern Daylight Time),566986.5,A,m,I,m,947,3,966.7000000476837,566019.7999999523,9038,WL,A,4.0
4,6.599999904632568,learn,53400.00009536743,Mon Jun 22 2026 11:42:31 GMT-0400 (Eastern Daylight Time),567069.7000000477,A,me,I,e,62,3,1049.9000000953674,566019.7999999523,9038,WL,A,4.0
4,6.7829999923706055,learn,53217.000007629395,Mon Jun 22 2026 11:42:31 GMT-0400 (Eastern Daylight Time),567253.2000000477,A,mea,I,a,161,3,1233.4000000953674,566019.7999999523,9038,WL,A,4.0
4,7.049999952316284,learn,52950.000047683716,Mon Jun 22 2026 11:42:31 GMT-0400 (Eastern Daylight Time),567519.7999999523,A,mead,I,d,239,3,1500.0,566019.7999999523,9038,WL,A,4.0
4,7.2170000076293945,learn,52782.999992370605,Mon Jun 22 2026 11:42:31 GMT-0400 (Eastern Daylight Time),567686.5,A,meado,I,o,148,3,1666.7000000476837,566019.7999999523,9038,WL,A,4.0
4,7.466000080108643,learn,52533.99991989136,Mon Jun 22 2026 11:42:31 GMT-0400 (Eastern Daylight Time),567936.5,A,meadow,I,w,229,3,1916.7000000476837,566019.7999999523,9038,WL,A,4.0
4,7.882999897003174,learn,52117.000102996826,Mon Jun 22 2026 11:42:31 GMT-0400 (Eastern Daylight Time),568352.9000000954,A,meadowenter,I,enter,401,3,2333.100000143051,566019.7999999523,9038,WL,A,4.0
4,8.182999849319458,learn,51817.00015068054,Mon Jun 22 2026 11:42:31 GMT-0400 (Eastern Daylight Time),568653.4000000954,A,h,I,h,278,3,300.2000000476837,568353.2000000477,9038,WL,A,5.0
4,8.315999984741211,learn,51684.00001525879,Mon Jun 22 2026 11:42:31 GMT-0400 (Eastern Daylight Time),568786.4000000954,A,ha,I,a,110,3,433.2000000476837,568353.2000000477,9038,WL,A,5.0
4,8.532999992370605,learn,51467.000007629395,Mon Jun 22 2026 11:42:31 GMT-0400 (Eastern Daylight Time),569003.2999999523,A,har,I,r,184,3,650.0999999046326,568353.2000000477,9038,WL,A,5.0
4,8.882999897003174,learn,51117.000102996826,Mon Jun 22 2026 11:42:31 GMT-0400 (Eastern Daylight Time),569353.2000000477,A,harp,I,p,335,3,1000.0,568353.2000000477,9038,WL,A,5.0
4,9.849999904632568,learn,50150.00009536743,Mon Jun 22 2026 11:42:31 GMT-0400 (Eastern Daylight Time),570319.5999999046,A,harpenter,I,enter,945,3,1966.3999998569489,568353.2000000477,9038,WL,A,5.0
4,11.799999952316284,learn,48200.000047683716,Mon Jun 22 2026 11:42:31 GMT-0400 (Eastern Daylight Time),572270.0,A,c,I,c,1935,3,1950.0999999046326,570319.9000000954,9038,WL,A,6.0
4,12.16700005531311,learn,47832.99994468689,Mon Jun 22 2026 11:42:31 GMT-0400 (Eastern Daylight Time),572636.5,A,ch,I,h,340,3,2316.5999999046326,570319.9000000954,9038,WL,A,6.0
4,12.41599988937378,learn,47584.00011062622,Mon Jun 22 2026 11:42:31 GMT-0400 (Eastern Daylight Time),572886.4000000954,A,chi,I,i,231,3,2566.5,570319.9000000954,9038,WL,A,6.0
4,12.766999959945679,learn,47233.00004005432,Mon Jun 22 2026 11:42:31 GMT-0400 (Eastern Daylight Time),573236.5999999046,A,chim,I,m,317,3,2916.699999809265,570319.9000000954,9038,WL,A,6.0
4,13.58299994468689,learn,46417.00005531311,Mon Jun 22 2026 11:42:31 GMT-0400 (Eastern Daylight Time),574053.2999999523,A,chimn,I,n,788,3,3733.399999856949,570319.9000000954,9038,WL,A,6.0
4,13.983000040054321,learn,46016.99995994568,Mon Jun 22 2026 11:42:31 GMT-0400 (Eastern Daylight Time),574452.9000000954,A,chimny,I,y,380,3,4133.0,570319.9000000954,9038,WL,A,6.0
4,14.432999849319458,learn,45567.00015068054,Mon Jun 22 2026 11:42:31 GMT-0400 (Eastern Daylight Time),574903.4000000954,A,chimn,I,backspace,433,3,4583.5,570319.9000000954,9038,WL,A,6.0
4,14.549999952316284,learn,45450.000047683716,Mon Jun 22 2026 11:42:31 GMT-0400 (Eastern Daylight Time),575019.9000000954,A,chimne,I,e,89,3,4700.0,570319.9000000954,9038,WL,A,6.0
4,14.75,learn,45250.0,Mon Jun 22 2026 11:42:31 GMT-0400 (Eastern Daylight Time),575219.9000000954,A,chimney,I,y,168,3,4900.0,570319.9000000954,9038,WL,A,6.0
4,15.366999864578247,learn,44633.00013542175,Mon Jun 22 2026 11:42:31 GMT-0400 (Eastern Daylight Time),575836.5,A,chimneyl,I,l,599,3,5516.599999904633,570319.9000000954,9038,WL,A,6.0
4,15.950000047683716,learn,44049.999952316284,Mon Jun 22 2026 11:42:31 GMT-0400 (Eastern Daylight Time),576419.9000000954,A,chimney,I,backspace,558,3,6100.0,570319.9000000954,9038,WL,A,6.0
4,16.700000047683716,learn,43299.999952316284,Mon Jun 22 2026 11:42:31 GMT-0400 (Eastern Daylight Time),577169.5999999046,A,chimneyenter,I,enter,724,3,6849.699999809265,570319.9000000954,9038,WL,A,6.0
4,17.115999937057495,learn,42884.000062942505,Mon Jun 22 2026 11:42:31 GMT-0400 (Eastern Daylight Time),577586.4000000954,A,l,I,l,404,3,416.30000019073486,577170.0999999046,9038,WL,A,7.0
4,17.366999864578247,learn,42633.00013542175,Mon Jun 22 2026 11:42:31 GMT-0400 (Eastern Daylight Time),577836.5,A,lo,I,o,225,3,666.4000000953674,577170.0999999046,9038,WL,A,7.0
4,17.48300004005432,learn,42516.99995994568,Mon Jun 22 2026 11:42:31 GMT-0400 (Eastern Daylight Time),577953.2000000477,A,log,I,g,94,3,783.1000001430511,577170.0999999046,9038,WL,A,7.0
4,18.06599998474121,learn,41934.00001525879,Mon Jun 22 2026 11:42:31 GMT-0400 (Eastern Daylight Time),578536.2999999523,A,logenter,I,enter,558,3,1366.2000000476837,577170.0999999046,9038,WL,A,7.0
4,18.5,learn,41500.0,Mon Jun 22 2026 11:42:31 GMT-0400 (Eastern Daylight Time),578969.7999999523,A,g,I,g,414,3,433.2000000476837,578536.5999999046,9038,WL,A,8.0
4,18.58299994468689,learn,41417.00005531311,Mon Jun 22 2026 11:42:31 GMT-0400 (Eastern Daylight Time),579052.7999999523,A,go,I,o,73,3,516.2000000476837,578536.5999999046,9038,WL,A,8.0
4,18.932999849319458,learn,41067.00015068054,Mon Jun 22 2026 11:42:31 GMT-0400 (Eastern Daylight Time),579403.2999999523,A,god,I,d,326,3,866.7000000476837,578536.5999999046,9038,WL,A,8.0
4,19.649999856948853,learn,40350.00014305115,Mon Jun 22 2026 11:42:31 GMT-0400 (Eastern Daylight Time),580119.7999999523,A,go,I,backspace,695,3,1583.2000000476837,578536.5999999046,9038,WL,A,8.0
4,19.98300004005432,learn,40016.99995994568,Mon Jun 22 2026 11:42:31 GMT-0400 (Eastern Daylight Time),580453.4000000954,A,gol,I,l,305,3,1916.8000001907349,578536.5999999046,9038,WL,A,8.0
4,20.382999897003174,learn,39617.000102996826,Mon Jun 22 2026 11:42:31 GMT-0400 (Eastern Daylight Time),580853.4000000954,A,gold,I,d,389,3,2316.800000190735,578536.5999999046,9038,WL,A,8.0
4,20.75,learn,39250.0,Mon Jun 22 2026 11:42:31 GMT-0400 (Eastern Daylight Time),581219.5,A,goldenter,I,enter,349,3,2682.9000000953674,578536.5999999046,9038,WL,A,8.0
4,21.700000047683716,learn,38299.999952316284,Mon Jun 22 2026 11:42:31 GMT-0400 (Eastern Daylight Time),582170.0,A,b,I,b,938,3,950.2000000476837,581219.7999999523,9038,WL,A,9.0
4,21.950000047683716,learn,38049.999952316284,Mon Jun 22 2026 11:42:31 GMT-0400 (Eastern Daylight Time),582419.9000000954,A,bo,I,o,225,3,1200.1000001430511,581219.7999999523,9038,WL,A,9.0
4,22.149999856948853,learn,37850.00014305115,Mon Jun 22 2026 11:42:31 GMT-0400 (Eastern Daylight Time),582619.7999999523,A,boo,I,o,183,3,1400.0,581219.7999999523,9038,WL,A,9.0
4,22.566999912261963,learn,37433.00008773804,Mon Jun 22 2026 11:42:31 GMT-0400 (Eastern Daylight Time),583036.5,A,book,I,k,391,3,1816.7000000476837,581219.7999999523,9038,WL,A,9.0
4,22.899999856948853,learn,37100.00014305115,Mon Jun 22 2026 11:42:31 GMT-0400 (Eastern Daylight Time),583369.5,A,bookenter,I,enter,318,3,2149.7000000476837,581219.7999999523,9038,WL,A,9.0
4,23.299999952316284,learn,36700.000047683716,Mon Jun 22 2026 11:42:31 GMT-0400 (Eastern Daylight Time),583770.0,A,t,I,t,389,3,400.09999990463257,583369.9000000954,9038,WL,A,10.0
4,23.716000080108643,learn,36283.99991989136,Mon Jun 22 2026 11:42:31 GMT-0400 (Eastern Daylight Time),584186.4000000954,A,tr,I,r,390,3,816.5,583369.9000000954,9038,WL,A,10.0
4,23.932999849319458,learn,36067.00015068054,Mon Jun 22 2026 11:42:31 GMT-0400 (Eastern Daylight Time),584403.2999999523,A,tra,I,a,192,3,1033.3999998569489,583369.9000000954,9038,WL,A,10.0
4,24.09999990463257,learn,35900.00009536743,Mon Jun 22 2026 11:42:31 GMT-0400 (Eastern Daylight Time),584569.9000000954,A,trai,I,i,153,3,1200.0,583369.9000000954,9038,WL,A,10.0
4,24.282999992370605,learn,35717.000007629395,Mon Jun 22 2026 11:42:31 GMT-0400 (Eastern Daylight Time),584753.2000000477,A,train,I,n,167,3,1383.2999999523163,583369.9000000954,9038,WL,A,10.0
4,24.75,learn,35250.0,Mon Jun 22 2026 11:42:31 GMT-0400 (Eastern Daylight Time),585219.4000000954,A,trainenter,I,enter,439,3,1849.5,583369.9000000954,9038,WL,A,10.0
4,25.0,learn,35000.0,Mon Jun 22 2026 11:42:31 GMT-0400 (Eastern Daylight Time),585469.7000000477,A,r,I,r,243,3,249.90000009536743,585219.7999999523,9038,WL,A,11.0
4,25.149999856948853,learn,34850.00014305115,Mon Jun 22 2026 11:42:31 GMT-0400 (Eastern Daylight Time),585620.0999999046,A,ru,I,u,133,3,400.2999999523163,585219.7999999523,9038,WL,A,11.0
4,25.382999897003174,learn,34617.000102996826,Mon Jun 22 2026 11:42:31 GMT-0400 (Eastern Daylight Time),585853.2000000477,A,rug,I,g,215,3,633.4000000953674,585219.7999999523,9038,WL,A,11.0
4,26.16599988937378,learn,33834.00011062622,Mon Jun 22 2026 11:42:31 GMT-0400 (Eastern Daylight Time),586636.2000000477,A,rugenter,I,enter,750,3,1416.4000000953674,585219.7999999523,9038,WL,A,11.0
4,28.75,learn,31250.0,Mon Jun 22 2026 11:42:31 GMT-0400 (Eastern Daylight Time),589219.7999999523,A,f,I,f,2562,3,2583.2999999523163,586636.5,9038,WL,A,12.0
4,29.09999990463257,learn,30900.00009536743,Mon Jun 22 2026 11:42:31 GMT-0400 (Eastern Daylight Time),589569.9000000954,A,fl,I,l,333,3,2933.4000000953674,586636.5,9038,WL,A,12.0
4,29.282999992370605,learn,30717.000007629395,Mon Jun 22 2026 11:42:31 GMT-0400 (Eastern Daylight Time),589753.2000000477,A,flo,I,o,168,3,3116.7000000476837,586636.5,9038,WL,A,12.0
4,29.382999897003174,learn,30617.000102996826,Mon Jun 22 2026 11:42:31 GMT-0400 (Eastern Daylight Time),589853.2000000477,A,flow,I,w,82,3,3216.7000000476837,586636.5,9038,WL,A,12.0
4,29.549999952316284,learn,30450.000047683716,Mon Jun 22 2026 11:42:31 GMT-0400 (Eastern Daylight Time),590020.0,A,flowe,I,e,142,3,3383.5,586636.5,9038,WL,A,12.0
4,29.865999937057495,learn,30134.000062942505,Mon Jun 22 2026 11:42:31 GMT-0400 (Eastern Daylight Time),590336.4000000954,A,flower,I,r,303,3,3699.9000000953674,586636.5,9038,WL,A,12.0
4,30.399999856948853,learn,29600.000143051147,Mon Jun 22 2026 11:42:31 GMT-0400 (Eastern Daylight Time),590869.5,A,flowerenter,I,enter,521,3,4233.0,586636.5,9038,WL,A,12.0
4,30.75,learn,29250.0,Mon Jun 22 2026 11:42:31 GMT-0400 (Eastern Daylight Time),591220.0,A,f,I,f,329,3,350.2000000476837,590869.7999999523,9038,WL,A,13.0
4,30.899999856948853,learn,29100.000143051147,Mon Jun 22 2026 11:42:31 GMT-0400 (Eastern Daylight Time),591369.9000000954,A,fi,I,i,129,3,500.10000014305115,590869.7999999523,9038,WL,A,13.0
4,31.16700005531311,learn,28832.99994468689,Mon Jun 22 2026 11:42:31 GMT-0400 (Eastern Daylight Time),591636.5,A,fin,I,n,241,3,766.7000000476837,590869.7999999523,9038,WL,A,13.0
4,31.34999990463257,learn,28650.00009536743,Mon Jun 22 2026 11:42:31 GMT-0400 (Eastern Daylight Time),591820.0,A,fine,I,e,167,3,950.2000000476837,590869.7999999523,9038,WL,A,13.0
4,31.899999856948853,learn,28100.000143051147,Mon Jun 22 2026 11:42:31 GMT-0400 (Eastern Daylight Time),592370.0,A,fin,I,backspace,519,3,1500.2000000476837,590869.7999999523,9038,WL,A,13.0
4,31.967000007629395,learn,28032.999992370605,Mon Jun 22 2026 11:42:31 GMT-0400 (Eastern Daylight Time),592437.2000000477,A,fing,I,g,40,3,1567.4000000953674,590869.7999999523,9038,WL,A,13.0
4,32.18299984931946,learn,27817.000150680542,Mon Jun 22 2026 11:42:31 GMT-0400 (Eastern Daylight Time),592653.5,A,finge,I,e,207,3,1783.7000000476837,590869.7999999523,9038,WL,A,13.0
4,32.31699991226196,learn,27683.000087738037,Mon Jun 22 2026 11:42:31 GMT-0400 (Eastern Daylight Time),592786.5,A,finger,I,r,102,3,1916.7000000476837,590869.7999999523,9038,WL,A,13.0
4,32.799999952316284,learn,27200.000047683716,Mon Jun 22 2026 11:42:31 GMT-0400 (Eastern Daylight Time),593269.5999999046,A,fingerenter,I,enter,456,3,2399.7999999523163,590869.7999999523,9038,WL,A,13.0
4,60.01699995994568,learn,-16.99995994567871,Mon Jun 22 2026 11:42:31 GMT-0400 (Eastern Daylight Time),620486.7000000477,A,None,I,None,27210,3,27216.700000047684,593270.0,9038,WL,A,14.0
5,0.8340001106262207,learn,60000.0,Mon Jun 22 2026 11:42:31 GMT-0400 (Eastern Daylight Time),698636.7000000477,A,g,I,g,817,3,833.2000000476837,697803.5,9038,WL,A,1.0
5,1.0499999523162842,learn,60000.0,Mon Jun 22 2026 11:42:31 GMT-0400 (Eastern Daylight Time),698853.2000000477,A,go,I,o,188,3,1049.7000000476837,697803.5,9038,WL,A,1.0
5,1.3329999446868896,learn,60000.0,Mon Jun 22 2026 11:42:31 GMT-0400 (Eastern Daylight Time),699136.5,A,gol,I,l,261,3,1333.0,697803.5,9038,WL,A,1.0
5,1.7000000476837158,learn,60000.0,Mon Jun 22 2026 11:42:31 GMT-0400 (Eastern Daylight Time),699503.2999999523,A,gold,I,d,347,3,1699.7999999523163,697803.5,9038,WL,A,1.0
5,2.117000102996826,learn,60000.0,Mon Jun 22 2026 11:42:31 GMT-0400 (Eastern Daylight Time),699919.5999999046,A,goldenter,I,enter,402,3,2116.0999999046326,697803.5,9038,WL,A,1.0
5,2.450000047683716,learn,60000.0,Mon Jun 22 2026 11:42:31 GMT-0400 (Eastern Daylight Time),700253.2000000477,A,k,I,k,318,3,333.2000000476837,699920.0,9038,WL,A,2.0
5,2.75,learn,60000.0,Mon Jun 22 2026 11:42:31 GMT-0400 (Eastern Daylight Time),700553.2999999523,A,ke,I,e,286,3,633.2999999523163,699920.0,9038,WL,A,2.0
5,3.1500000953674316,learn,60000.0,Mon Jun 22 2026 11:42:31 GMT-0400 (Eastern Daylight Time),700953.2999999523,A,key,I,y,377,3,1033.2999999523163,699920.0,9038,WL,A,2.0
5,3.5829999446868896,learn,60000.0,Mon Jun 22 2026 11:42:31 GMT-0400 (Eastern Daylight Time),701386.2999999523,A,keyenter,I,enter,415,3,1466.2999999523163,699920.0,9038,WL,A,2.0
5,3.9670000076293945,learn,60000.0,Mon Jun 22 2026 11:42:31 GMT-0400 (Eastern Daylight Time),701769.7999999523,A,r,I,r,364,3,383.09999990463257,701386.7000000477,9038,WL,A,3.0
5,4.16700005531311,learn,60000.0,Mon Jun 22 2026 11:42:31 GMT-0400 (Eastern Daylight Time),701969.7999999523,A,ra,I,a,186,3,583.0999999046326,701386.7000000477,9038,WL,A,3.0
5,4.367000102996826,learn,60000.0,Mon Jun 22 2026 11:42:31 GMT-0400 (Eastern Daylight Time),702169.9000000954,A,rat,I,t,169,3,783.2000000476837,701386.7000000477,9038,WL,A,3.0
5,4.533999919891357,learn,60000.0,Mon Jun 22 2026 11:42:31 GMT-0400 (Eastern Daylight Time),702336.5999999046,A,ratt,I,t,145,3,949.8999998569489,701386.7000000477,9038,WL,A,3.0
5,4.683000087738037,learn,60000.0,Mon Jun 22 2026 11:42:31 GMT-0400 (Eastern Daylight Time),702486.5,A,rattl,I,l,131,3,1099.7999999523163,701386.7000000477,9038,WL,A,3.0
5,4.883000135421753,learn,60000.0,Mon Jun 22 2026 11:42:31 GMT-0400 (Eastern Daylight Time),702686.4000000954,A,rattle,I,e,172,3,1299.7000000476837,701386.7000000477,9038,WL,A,3.0
5,5.4670000076293945,learn,60000.0,Mon Jun 22 2026 11:42:31 GMT-0400 (Eastern Daylight Time),703269.5,A,rattleenter,I,enter,571,3,1882.7999999523163,701386.7000000477,9038,WL,A,3.0
5,6.599999904632568,learn,60000.0,Mon Jun 22 2026 11:42:31 GMT-0400 (Eastern Daylight Time),704403.0999999046,A,s,I,s,1113,3,1133.2999999523163,703269.7999999523,9038,WL,A,4.0
5,6.766999959945679,learn,60000.0,Mon Jun 22 2026 11:42:31 GMT-0400 (Eastern Daylight Time),704569.9000000954,A,sl,I,l,143,3,1300.1000001430511,703269.7999999523,9038,WL,A,4.0
5,7.016999959945679,learn,60000.0,Mon Jun 22 2026 11:42:31 GMT-0400 (Eastern Daylight Time),704819.9000000954,A,sla,I,a,233,3,1550.1000001430511,703269.7999999523,9038,WL,A,4.0
5,7.383000135421753,learn,60000.0,Mon Jun 22 2026 11:42:31 GMT-0400 (Eastern Daylight Time),705186.5,A,sl,I,backspace,351,3,1916.7000000476837,703269.7999999523,9038,WL,A,4.0
5,7.516999959945679,learn,60000.0,Mon Jun 22 2026 11:42:31 GMT-0400 (Eastern Daylight Time),705319.7999999523,A,s,I,backspace,121,3,2050.0,703269.7999999523,9038,WL,A,4.0
5,7.66700005531311,learn,60000.0,Mon Jun 22 2026 11:42:31 GMT-0400 (Eastern Daylight Time),705469.9000000954,A,sa,I,a,123,3,2200.100000143051,703269.7999999523,9038,WL,A,4.0
5,7.83299994468689,learn,60000.0,Mon Jun 22 2026 11:42:31 GMT-0400 (Eastern Daylight Time),705636.4000000954,A,sal,I,l,133,3,2366.600000143051,703269.7999999523,9038,WL,A,4.0
5,8.049999952316284,learn,60000.0,Mon Jun 22 2026 11:42:31 GMT-0400 (Eastern Daylight Time),705853.2000000477,A,salt,I,t,191,3,2583.4000000953674,703269.7999999523,9038,WL,A,4.0
5,8.383000135421753,learn,60000.0,Mon Jun 22 2026 11:42:31 GMT-0400 (Eastern Daylight Time),706186.2000000477,A,saltenter,I,enter,308,3,2916.4000000953674,703269.7999999523,9038,WL,A,4.0
5,8.700000047683716,learn,60000.0,Mon Jun 22 2026 11:42:31 GMT-0400 (Eastern Daylight Time),706503.2000000477,A,f,I,f,300,3,316.60000014305115,706186.5999999046,9038,WL,A,5.0
5,8.816999912261963,learn,60000.0,Mon Jun 22 2026 11:42:31 GMT-0400 (Eastern Daylight Time),706619.7999999523,A,fi,I,i,89,3,433.2000000476837,706186.5999999046,9038,WL,A,5.0
5,8.983999967575073,learn,60000.0,Mon Jun 22 2026 11:42:31 GMT-0400 (Eastern Daylight Time),706786.5,A,fin,I,n,135,3,599.9000000953674,706186.5999999046,9038,WL,A,5.0
5,9.450000047683716,learn,60000.0,Mon Jun 22 2026 11:42:31 GMT-0400 (Eastern Daylight Time),707253.2999999523,A,fing,I,g,448,3,1066.7000000476837,706186.5999999046,9038,WL,A,5.0
5,9.700000047683716,learn,60000.0,Mon Jun 22 2026 11:42:31 GMT-0400 (Eastern Daylight Time),707503.2000000477,A,finge,I,e,230,3,1316.6000001430511,706186.5999999046,9038,WL,A,5.0
5,9.799999952316284,learn,60000.0,Mon Jun 22 2026 11:42:31 GMT-0400 (Eastern Daylight Time),707603.2999999523,A,finger,I,r,85,3,1416.7000000476837,706186.5999999046,9038,WL,A,5.0
5,10.58299994468689,learn,60000.0,Mon Jun 22 2026 11:42:31 GMT-0400 (Eastern Daylight Time),708386.0999999046,A,fingerenter,I,enter,760,3,2199.5,706186.5999999046,9038,WL,A,5.0
5,10.91700005531311,learn,60000.0,Mon Jun 22 2026 11:42:31 GMT-0400 (Eastern Daylight Time),708719.9000000954,A,b,I,b,324,3,333.40000009536743,708386.5,9038,WL,A,6.0
5,11.117000102996826,learn,60000.0,Mon Jun 22 2026 11:42:31 GMT-0400 (Eastern Daylight Time),708919.7999999523,A,bu,I,u,179,3,533.2999999523163,708386.5,9038,WL,A,6.0
5,11.33299994468689,learn,60000.0,Mon Jun 22 2026 11:42:31 GMT-0400 (Eastern Daylight Time),709136.4000000954,A,but,I,t,196,3,749.9000000953674,708386.5,9038,WL,A,6.0
5,11.532999992370605,learn,60000.0,Mon Jun 22 2026 11:42:31 GMT-0400 (Eastern Daylight Time),709336.4000000954,A,butt,I,t,171,3,949.9000000953674,708386.5,9038,WL,A,6.0
5,11.650000095367432,learn,60000.0,Mon Jun 22 2026 11:42:31 GMT-0400 (Eastern Daylight Time),709453.2999999523,A,butto,I,o,107,3,1066.7999999523163,708386.5,9038,WL,A,6.0
5,11.983000040054321,learn,60000.0,Mon Jun 22 2026 11:42:31 GMT-0400 (Eastern Daylight Time),709786.4000000954,A,button,I,n,302,3,1399.9000000953674,708386.5,9038,WL,A,6.0
5,12.367000102996826,learn,60000.0,Mon Jun 22 2026 11:42:31 GMT-0400 (Eastern Daylight Time),710169.5,A,buttonenter,I,enter,365,3,1783.0,708386.5,9038,WL,A,6.0
5,13.516999959945679,learn,60000.0,Mon Jun 22 2026 11:42:31 GMT-0400 (Eastern Daylight Time),711320.0,A,m,I,m,1133,3,1150.2000000476837,710169.7999999523,9038,WL,A,7.0
5,13.782999992370605,learn,60000.0,Mon Jun 22 2026 11:42:31 GMT-0400 (Eastern Daylight Time),711586.4000000954,A,me,I,e,251,3,1416.6000001430511,710169.7999999523,9038,WL,A,7.0
5,14.016999959945679,learn,60000.0,Mon Jun 22 2026 11:42:31 GMT-0400 (Eastern Daylight Time),711819.9000000954,A,mea,I,a,207,3,1650.1000001430511,710169.7999999523,9038,WL,A,7.0
5,14.316999912261963,learn,60000.0,Mon Jun 22 2026 11:42:31 GMT-0400 (Eastern Daylight Time),712119.9000000954,A,mead,I,d,288,3,1950.1000001430511,710169.7999999523,9038,WL,A,7.0
5,14.5,learn,60000.0,Mon Jun 22 2026 11:42:31 GMT-0400 (Eastern Daylight Time),712303.2000000477,A,meado,I,o,171,3,2133.4000000953674,710169.7999999523,9038,WL,A,7.0
5,14.867000102996826,learn,60000.0,Mon Jun 22 2026 11:42:31 GMT-0400 (Eastern Daylight Time),712669.7999999523,A,meadow,I,w,338,3,2500.0,710169.7999999523,9038,WL,A,7.0
5,15.5,learn,60000.0,Mon Jun 22 2026 11:42:31 GMT-0400 (Eastern Daylight Time),713302.9000000954,A,meadowenter,I,enter,613,3,3133.100000143051,710169.7999999523,9038,WL,A,7.0
5,15.83400011062622,learn,60000.0,Mon Jun 22 2026 11:42:31 GMT-0400 (Eastern Daylight Time),713636.5,A,h,I,h,311,3,333.2999999523163,713303.2000000477,9038,WL,A,8.0
5,15.933000087738037,learn,60000.0,Mon Jun 22 2026 11:42:31 GMT-0400 (Eastern Daylight Time),713736.4000000954,A,ha,I,a,86,3,433.2000000476837,713303.2000000477,9038,WL,A,8.0
5,16.217000007629395,learn,60000.0,Mon Jun 22 2026 11:42:31 GMT-0400 (Eastern Daylight Time),714019.7999999523,A,har,I,r,257,3,716.5999999046326,713303.2000000477,9038,WL,A,8.0
5,16.532999992370605,learn,60000.0,Mon Jun 22 2026 11:42:31 GMT-0400 (Eastern Daylight Time),714336.4000000954,A,harg,I,g,303,3,1033.2000000476837,713303.2000000477,9038,WL,A,8.0
5,16.98300004005432,learn,60000.0,Mon Jun 22 2026 11:42:31 GMT-0400 (Eastern Daylight Time),714786.0999999046,A,hargenter,I,enter,424,3,1482.8999998569489,713303.2000000477,9038,WL,A,8.0
5,21.25,learn,60000.0,Mon Jun 22 2026 11:42:31 GMT-0400 (Eastern Daylight Time),719053.2000000477,A,b,I,b,4252,3,4266.700000047684,714786.5,9038,WL,A,9.0
5,21.433000087738037,learn,60000.0,Mon Jun 22 2026 11:42:31 GMT-0400 (Eastern Daylight Time),719236.2999999523,A,bo,I,o,166,3,4449.799999952316,714786.5,9038,WL,A,9.0
5,21.59999990463257,learn,60000.0,Mon Jun 22 2026 11:42:31 GMT-0400 (Eastern Daylight Time),719403.0999999046,A,boo,I,o,135,3,4616.599999904633,714786.5,9038,WL,A,9.0
5,21.782999992370605,learn,60000.0,Mon Jun 22 2026 11:42:31 GMT-0400 (Eastern Daylight Time),719586.4000000954,A,book,I,k,161,3,4799.900000095367,714786.5,9038,WL,A,9.0
5,22.65000009536743,learn,60000.0,Mon Jun 22 2026 11:42:31 GMT-0400 (Eastern Daylight Time),720453.2999999523,A,bookt,I,t,850,3,5666.799999952316,714786.5,9038,WL,A,9.0
5,22.90000009536743,learn,60000.0,Mon Jun 22 2026 11:42:31 GMT-0400 (Eastern Daylight Time),720703.2000000477,A,booktr,I,r,238,3,5916.700000047684,714786.5,9038,WL,A,9.0
5,23.26699995994568,learn,60000.0,Mon Jun 22 2026 11:42:31 GMT-0400 (Eastern Daylight Time),721069.5,A,bookt,I,backspace,356,3,6283.0,714786.5,9038,WL,A,9.0
5,23.83400011062622,learn,60000.0,Mon Jun 22 2026 11:42:31 GMT-0400 (Eastern Daylight Time),721636.4000000954,A,book,I,backspace,541,3,6849.900000095367,714786.5,9038,WL,A,9.0
5,24.383000135421753,learn,60000.0,Mon Jun 22 2026 11:42:31 GMT-0400 (Eastern Daylight Time),722186.0999999046,A,bookenter,I,enter,523,3,7399.599999904633,714786.5,9038,WL,A,9.0
5,28.566999912261963,learn,60000.0,Mon Jun 22 2026 11:42:31 GMT-0400 (Eastern Daylight Time),726369.7999999523,A,t,I,t,4172,3,4183.299999952316,722186.5,9038,WL,A,10.0
5,28.783999919891357,learn,60000.0,Mon Jun 22 2026 11:42:31 GMT-0400 (Eastern Daylight Time),726586.5,A,tr,I,r,192,3,4400.0,722186.5,9038,WL,A,10.0
5,29.0,learn,60000.0,Mon Jun 22 2026 11:42:31 GMT-0400 (Eastern Daylight Time),726803.2000000477,A,tra,I,a,192,3,4616.700000047684,722186.5,9038,WL,A,10.0
5,29.133000135421753,learn,60000.0,Mon Jun 22 2026 11:42:31 GMT-0400 (Eastern Daylight Time),726936.4000000954,A,trai,I,i,112,3,4749.900000095367,722186.5,9038,WL,A,10.0
5,29.41700005531311,learn,60000.0,Mon Jun 22 2026 11:42:31 GMT-0400 (Eastern Daylight Time),727219.7999999523,A,train,I,n,264,3,5033.299999952316,722186.5,9038,WL,A,10.0
5,29.799999952316284,learn,60000.0,Mon Jun 22 2026 11:42:31 GMT-0400 (Eastern Daylight Time),727602.7999999523,A,trainenter,I,enter,366,3,5416.299999952316,722186.5,9038,WL,A,10.0
5,30.183000087738037,learn,60000.0,Mon Jun 22 2026 11:42:31 GMT-0400 (Eastern Daylight Time),727986.4000000954,A,f,I,f,371,3,383.30000019073486,727603.0999999046,9038,WL,A,11.0
5,30.299999952316284,learn,60000.0,Mon Jun 22 2026 11:42:31 GMT-0400 (Eastern Daylight Time),728103.0999999046,A,fl,I,l,103,3,500.0,727603.0999999046,9038,WL,A,11.0
5,30.5,learn,60000.0,Mon Jun 22 2026 11:42:31 GMT-0400 (Eastern Daylight Time),728303.2000000477,A,flo,I,o,180,3,700.1000001430511,727603.0999999046,9038,WL,A,11.0
5,30.65000009536743,learn,60000.0,Mon Jun 22 2026 11:42:31 GMT-0400 (Eastern Daylight Time),728453.2000000477,A,flow,I,w,132,3,850.1000001430511,727603.0999999046,9038,WL,A,11.0
5,30.76699995994568,learn,60000.0,Mon Jun 22 2026 11:42:31 GMT-0400 (Eastern Daylight Time),728569.7999999523,A,flowe,I,e,100,3,966.7000000476837,727603.0999999046,9038,WL,A,11.0
5,31.01699995994568,learn,60000.0,Mon Jun 22 2026 11:42:31 GMT-0400 (Eastern Daylight Time),728819.7000000477,A,flower,I,r,223,3,1216.6000001430511,727603.0999999046,9038,WL,A,11.0
5,31.467000007629395,learn,60000.0,Mon Jun 22 2026 11:42:31 GMT-0400 (Eastern Daylight Time),729269.5,A,flowerenter,I,enter,428,3,1666.4000000953674,727603.0999999046,9038,WL,A,11.0
5,32.09999990463257,learn,60000.0,Mon Jun 22 2026 11:42:31 GMT-0400 (Eastern Daylight Time),729903.0999999046,A,r,I,r,624,3,633.0999999046326,729270.0,9038,WL,A,12.0
5,32.299999952316284,learn,60000.0,Mon Jun 22 2026 11:42:31 GMT-0400 (Eastern Daylight Time),730103.0999999046,A,ru,I,u,180,3,833.0999999046326,729270.0,9038,WL,A,12.0
5,33.83299994468689,learn,60000.0,Mon Jun 22 2026 11:42:31 GMT-0400 (Eastern Daylight Time),731636.4000000954,A,rug,I,g,1516,3,2366.4000000953674,729270.0,9038,WL,A,12.0
5,34.34999990463257,learn,60000.0,Mon Jun 22 2026 11:42:31 GMT-0400 (Eastern Daylight Time),732152.7000000477,A,rugenter,I,enter,500,3,2882.7000000476837,729270.0,9038,WL,A,12.0
5,38.28399991989136,learn,60000.0,Mon Jun 22 2026 11:42:31 GMT-0400 (Eastern Daylight Time),736086.5,A,b,I,b,3925,3,3933.4000000953674,732153.0999999046,9038,WL,A,13.0
5,38.549999952316284,learn,60000.0,Mon Jun 22 2026 11:42:31 GMT-0400 (Eastern Daylight Time),736353.0,A,bu,I,u,242,3,4199.900000095367,732153.0999999046,9038,WL,A,13.0
5,38.90000009536743,learn,60000.0,Mon Jun 22 2026 11:42:31 GMT-0400 (Eastern Daylight Time),736703.2000000477,A,but,I,t,338,3,4550.100000143051,732153.0999999046,9038,WL,A,13.0
5,39.09999990463257,learn,60000.0,Mon Jun 22 2026 11:42:31 GMT-0400 (Eastern Daylight Time),736903.0999999046,A,butt,I,t,180,3,4750.0,732153.0999999046,9038,WL,A,13.0
5,39.23300004005432,learn,60000.0,Mon Jun 22 2026 11:42:31 GMT-0400 (Eastern Daylight Time),737036.4000000954,A,butto,I,o,108,3,4883.300000190735,732153.0999999046,9038,WL,A,13.0
5,39.51699995994568,learn,60000.0,Mon Jun 22 2026 11:42:31 GMT-0400 (Eastern Daylight Time),737319.7999999523,A,button,I,n,262,3,5166.700000047684,732153.0999999046,9038,WL,A,13.0
5,40.117000102996826,learn,60000.0,Mon Jun 22 2026 11:42:31 GMT-0400 (Eastern Daylight Time),737919.5999999046,A,buttonenter,I,enter,578,3,5766.5,732153.0999999046,9038,WL,A,13.0
5,58.40000009536743,learn,60000.0,Mon Jun 22 2026 11:42:31 GMT-0400 (Eastern Daylight Time),756203.4000000954,A,g,I,g,18263,3,18283.5,737919.9000000954,9038,WL,A,14.0
5,60.25,learn,60000.0,Mon Jun 22 2026 11:42:31 GMT-0400 (Eastern Daylight Time),758053.2999999523,A,,I,backspace,1840,3,20133.39999985695,737919.9000000954,9038,WL,A,14.0
6,1.1990001201629639,distr,58800.999879837036,Mon Jun 22 2026 11:42:31 GMT-0400 (Eastern Daylight Time),838453.2000000477,B,b,I,b,1175,3,1199.2999999523163,837253.9000000954,9038,WL,A,1.0
6,1.4320001602172852,distr,58567.999839782715,Mon Jun 22 2026 11:42:31 GMT-0400 (Eastern Daylight Time),838686.4000000954,B,bo,I,o,212,3,1432.5,837253.9000000954,9038,WL,A,1.0
6,1.5829999446868896,distr,58417.00005531311,Mon Jun 22 2026 11:42:31 GMT-0400 (Eastern Daylight Time),838836.5999999046,B,bow,I,w,125,3,1582.6999998092651,837253.9000000954,9038,WL,A,1.0
6,1.7990000247955322,distr,58200.99997520447,Mon Jun 22 2026 11:42:31 GMT-0400 (Eastern Daylight Time),839053.0999999046,B,bowl,I,l,199,3,1799.1999998092651,837253.9000000954,9038,WL,A,1.0
6,2.2820000648498535,distr,57717.99993515015,Mon Jun 22 2026 11:42:31 GMT-0400 (Eastern Daylight Time),839536.0999999046,B,bowlenter,I,enter,463,3,2282.199999809265,837253.9000000954,9038,WL,A,1.0
6,2.949000120162964,distr,57050.999879837036,Mon Jun 22 2026 11:42:31 GMT-0400 (Eastern Daylight Time),840203.0999999046,B,j,I,j,645,3,666.6999998092651,839536.4000000954,9038,WL,A,2.0
6,3.199000120162964,distr,56800.999879837036,Mon Jun 22 2026 11:42:31 GMT-0400 (Eastern Daylight Time),840453.2000000477,B,ju,I,u,224,3,916.7999999523163,839536.4000000954,9038,WL,A,2.0
6,3.565999984741211,distr,56434.00001525879,Mon Jun 22 2026 11:42:31 GMT-0400 (Eastern Daylight Time),840819.7999999523,B,jud,I,d,350,3,1283.3999998569489,839536.4000000954,9038,WL,A,2.0
6,3.8489999771118164,distr,56151.00002288818,Mon Jun 22 2026 11:42:31 GMT-0400 (Eastern Daylight Time),841103.0,B,judl,I,l,264,3,1566.5999999046326,839536.4000000954,9038,WL,A,2.0
6,4.049000024795532,distr,55950.99997520447,Mon Jun 22 2026 11:42:31 GMT-0400 (Eastern Daylight Time),841303.0,B,judlg,I,g,187,3,1766.5999999046326,839536.4000000954,9038,WL,A,2.0
6,4.299000024795532,distr,55700.99997520447,Mon Jun 22 2026 11:42:31 GMT-0400 (Eastern Daylight Time),841553.0,B,judlge,I,e,228,3,2016.5999999046326,839536.4000000954,9038,WL,A,2.0
6,4.999000072479248,distr,55000.99992752075,Mon Jun 22 2026 11:42:31 GMT-0400 (Eastern Daylight Time),842253.2000000477,B,judlg,I,backspace,681,3,2716.7999999523163,839536.4000000954,9038,WL,A,2.0
6,5.131999969482422,distr,54868.00003051758,Mon Jun 22 2026 11:42:31 GMT-0400 (Eastern Daylight Time),842386.4000000954,B,judl,I,backspace,118,3,2850.0,839536.4000000954,9038,WL,A,2.0
6,5.2829999923706055,distr,54717.000007629395,Mon Jun 22 2026 11:42:31 GMT-0400 (Eastern Daylight Time),842536.7000000477,B,jud,I,backspace,120,3,3000.2999999523163,839536.4000000954,9038,WL,A,2.0
6,5.398999929428101,distr,54601.0000705719,Mon Jun 22 2026 11:42:31 GMT-0400 (Eastern Daylight Time),842653.2000000477,B,judg,I,g,82,3,3116.7999999523163,839536.4000000954,9038,WL,A,2.0
6,5.582000017166138,distr,54417.99998283386,Mon Jun 22 2026 11:42:31 GMT-0400 (Eastern Daylight Time),842836.4000000954,B,judge,I,e,166,3,3300.0,839536.4000000954,9038,WL,A,2.0
6,6.016000032424927,distr,53983.99996757507,Mon Jun 22 2026 11:42:31 GMT-0400 (Eastern Daylight Time),843269.5,B,judgeenter,I,enter,405,3,3733.0999999046326,839536.4000000954,9038,WL,A,2.0
6,7.332000017166138,distr,52667.99998283386,Mon Jun 22 2026 11:42:31 GMT-0400 (Eastern Daylight Time),844586.4000000954,B,d,I,d,1304,3,1316.6000001430511,843269.7999999523,9038,WL,A,3.0
6,7.699000120162964,distr,52300.999879837036,Mon Jun 22 2026 11:42:31 GMT-0400 (Eastern Daylight Time),844953.0,B,da,I,a,351,3,1683.2000000476837,843269.7999999523,9038,WL,A,3.0
6,7.898999929428101,distr,52101.0000705719,Mon Jun 22 2026 11:42:31 GMT-0400 (Eastern Daylight Time),845153.0999999046,B,daw,I,w,184,3,1883.2999999523163,843269.7999999523,9038,WL,A,3.0
6,8.23200011253357,distr,51767.99988746643,Mon Jun 22 2026 11:42:31 GMT-0400 (Eastern Daylight Time),845486.4000000954,B,dawn,I,n,320,3,2216.600000143051,843269.7999999523,9038,WL,A,3.0
6,8.73200011253357,distr,51267.99988746643,Mon Jun 22 2026 11:42:31 GMT-0400 (Eastern Daylight Time),845986.0999999046,B,dawnenter,I,enter,482,3,2716.2999999523163,843269.7999999523,9038,WL,A,3.0
6,11.98200011253357,distr,48017.99988746643,Mon Jun 22 2026 11:42:31 GMT-0400 (Eastern Daylight Time),849236.2999999523,B,c,I,c,3228,3,3249.7999999523163,845986.5,9038,WL,A,4.0
6,12.199000120162964,distr,47800.999879837036,Mon Jun 22 2026 11:42:31 GMT-0400 (Eastern Daylight Time),849453.0999999046,B,ch,I,h,197,3,3466.5999999046326,845986.5,9038,WL,A,4.0
6,12.383000135421753,distr,47616.99986457825,Mon Jun 22 2026 11:42:31 GMT-0400 (Eastern Daylight Time),849636.5,B,cha,I,a,157,3,3650.0,845986.5,9038,WL,A,4.0
6,12.516000032424927,distr,47483.99996757507,Mon Jun 22 2026 11:42:31 GMT-0400 (Eastern Daylight Time),849769.7999999523,B,chai,I,i,111,3,3783.2999999523163,845986.5,9038,WL,A,4.0
6,12.733000040054321,distr,47266.99995994568,Mon Jun 22 2026 11:42:31 GMT-0400 (Eastern Daylight Time),849986.5999999046,B,chair,I,r,194,3,4000.0999999046326,845986.5,9038,WL,A,4.0
6,13.249000072479248,distr,46750.99992752075,Mon Jun 22 2026 11:42:31 GMT-0400 (Eastern Daylight Time),850502.7999999523,B,chairenter,I,enter,493,3,4516.299999952316,845986.5,9038,WL,A,4.0
6,15.932000160217285,distr,44067.999839782715,Mon Jun 22 2026 11:42:31 GMT-0400 (Eastern Daylight Time),853186.4000000954,B,c,I,c,2672,3,2683.2000000476837,850503.2000000477,9038,WL,A,5.0
6,16.098999977111816,distr,43901.00002288818,Mon Jun 22 2026 11:42:31 GMT-0400 (Eastern Daylight Time),853353.0999999046,B,co,I,o,150,3,2849.899999856949,850503.2000000477,9038,WL,A,5.0
6,16.299000024795532,distr,43700.99997520447,Mon Jun 22 2026 11:42:31 GMT-0400 (Eastern Daylight Time),853553.0,B,cou,I,u,177,3,3049.7999999523163,850503.2000000477,9038,WL,A,5.0
6,16.6489999294281,distr,43351.0000705719,Mon Jun 22 2026 11:42:31 GMT-0400 (Eastern Daylight Time),853903.0,B,coun,I,n,337,3,3399.7999999523163,850503.2000000477,9038,WL,A,5.0
6,16.782999992370605,distr,43217.000007629395,Mon Jun 22 2026 11:42:31 GMT-0400 (Eastern Daylight Time),854036.5999999046,B,count,I,t,115,3,3533.399999856949,850503.2000000477,9038,WL,A,5.0
6,17.06599998474121,distr,42934.00001525879,Mon Jun 22 2026 11:42:31 GMT-0400 (Eastern Daylight Time),854319.9000000954,B,county,I,y,252,3,3816.7000000476837,850503.2000000477,9038,WL,A,5.0
6,17.582000017166138,distr,42417.99998283386,Mon Jun 22 2026 11:42:31 GMT-0400 (Eastern Daylight Time),854835.7999999523,B,countyenter,I,enter,505,3,4332.599999904633,850503.2000000477,9038,WL,A,5.0
6,26.348999977111816,distr,33651.00002288818,Mon Jun 22 2026 11:42:31 GMT-0400 (Eastern Daylight Time),863603.2000000477,B,i,I,i,8747,3,8767.100000143051,854836.0999999046,9038,WL,A,6.0
6,26.631999969482422,distr,33368.00003051758,Mon Jun 22 2026 11:42:31 GMT-0400 (Eastern Daylight Time),863886.5,B,in,I,n,271,3,9050.400000095367,854836.0999999046,9038,WL,A,6.0
6,26.933000087738037,distr,33066.99991226196,Mon Jun 22 2026 11:42:31 GMT-0400 (Eastern Daylight Time),864186.5,B,ins,I,s,277,3,9350.400000095367,854836.0999999046,9038,WL,A,6.0
6,27.1489999294281,distr,32851.0000705719,Mon Jun 22 2026 11:42:31 GMT-0400 (Eastern Daylight Time),864403.0999999046,B,inse,I,e,200,3,9567.0,854836.0999999046,9038,WL,A,6.0
6,27.449000120162964,distr,32550.999879837036,Mon Jun 22 2026 11:42:31 GMT-0400 (Eastern Daylight Time),864703.0999999046,B,insec,I,c,279,3,9867.0,854836.0999999046,9038,WL,A,6.0
6,27.749000072479248,distr,32250.999927520752,Mon Jun 22 2026 11:42:31 GMT-0400 (Eastern Daylight Time),865003.0999999046,B,insect,I,t,283,3,10167.0,854836.0999999046,9038,WL,A,6.0
6,28.699000120162964,distr,31300.999879837036,Mon Jun 22 2026 11:42:31 GMT-0400 (Eastern Daylight Time),865952.7999999523,B,insectenter,I,enter,935,3,11116.700000047684,854836.0999999046,9038,WL,A,6.0
6,32.598999977111816,distr,27401.000022888184,Mon Jun 22 2026 11:42:31 GMT-0400 (Eastern Daylight Time),869853.0,B,p,I,p,3886,3,3900.0,865953.0,9038,WL,A,7.0
6,32.88300013542175,distr,27116.999864578247,Mon Jun 22 2026 11:42:31 GMT-0400 (Eastern Daylight Time),870136.5999999046,B,po,I,o,261,3,4183.599999904633,865953.0,9038,WL,A,7.0
6,33.01600003242493,distr,26983.999967575073,Mon Jun 22 2026 11:42:31 GMT-0400 (Eastern Daylight Time),870269.5999999046,B,poo,I,o,113,3,4316.599999904633,865953.0,9038,WL,A,7.0
6,34.06599998474121,distr,25934.00001525879,Mon Jun 22 2026 11:42:31 GMT-0400 (Eastern Daylight Time),871319.7000000477,B,pool,I,l,1029,3,5366.700000047684,865953.0,9038,WL,A,7.0
6,34.46500015258789,distr,25534.99984741211,Mon Jun 22 2026 11:42:31 GMT-0400 (Eastern Daylight Time),871719.4000000954,B,poolenter,I,enter,377,3,5766.400000095367,865953.0,9038,WL,A,7.0
6,60.01600003242493,distr,-16.000032424926758,Mon Jun 22 2026 11:42:31 GMT-0400 (Eastern Daylight Time),897269.9000000954,B,None,I,None,25543,3,25550.200000047684,871719.7000000477,9038,WL,A,8.0
7,9.382999897003174,immed,50617.000102996826,Mon Jun 22 2026 11:42:31 GMT-0400 (Eastern Daylight Time),923302.9000000954,A,t,I,t,9365,3,9382.600000143051,913920.2999999523,9038,WL,A,1.0
7,9.649999856948853,immed,50350.00014305115,Mon Jun 22 2026 11:42:31 GMT-0400 (Eastern Daylight Time),923569.7999999523,A,tr,I,r,253,3,9649.5,913920.2999999523,9038,WL,A,1.0
7,10.149999856948853,immed,49850.00014305115,Mon Jun 22 2026 11:42:31 GMT-0400 (Eastern Daylight Time),924069.7999999523,A,trs,I,s,483,3,10149.5,913920.2999999523,9038,WL,A,1.0
7,10.215999841690063,immed,49784.00015830994,Mon Jun 22 2026 11:42:31 GMT-0400 (Eastern Daylight Time),924136.0999999046,A,trsa,I,a,44,3,10215.799999952316,913920.2999999523,9038,WL,A,1.0
7,10.782999992370605,immed,49217.000007629395,Mon Jun 22 2026 11:42:31 GMT-0400 (Eastern Daylight Time),924703.0,A,trs,I,backspace,548,3,10782.700000047684,913920.2999999523,9038,WL,A,1.0
7,11.0,immed,49000.0,Mon Jun 22 2026 11:42:31 GMT-0400 (Eastern Daylight Time),924919.7999999523,A,tr,I,backspace,194,3,10999.5,913920.2999999523,9038,WL,A,1.0
7,11.199999809265137,immed,48800.00019073486,Mon Jun 22 2026 11:42:31 GMT-0400 (Eastern Daylight Time),925119.7999999523,A,t,I,backspace,178,3,11199.5,913920.2999999523,9038,WL,A,1.0
7,11.732999801635742,immed,48267.00019836426,Mon Jun 22 2026 11:42:31 GMT-0400 (Eastern Daylight Time),925653.0,A,,I,backspace,513,3,11732.700000047684,913920.2999999523,9038,WL,A,1.0
7,12.25,immed,47750.0,Mon Jun 22 2026 11:42:31 GMT-0400 (Eastern Daylight Time),926169.7999999523,A,t,I,t,500,3,12249.5,913920.2999999523,9038,WL,A,1.0
7,12.566999912261963,immed,47433.00008773804,Mon Jun 22 2026 11:42:31 GMT-0400 (Eastern Daylight Time),926486.5,A,tr,I,r,294,3,12566.200000047684,913920.2999999523,9038,WL,A,1.0
7,12.75,immed,47250.0,Mon Jun 22 2026 11:42:31 GMT-0400 (Eastern Daylight Time),926669.5999999046,A,tra,I,a,172,3,12749.299999952316,913920.2999999523,9038,WL,A,1.0
7,12.982999801635742,immed,47017.00019836426,Mon Jun 22 2026 11:42:31 GMT-0400 (Eastern Daylight Time),926903.0,A,trai,I,i,221,3,12982.700000047684,913920.2999999523,9038,WL,A,1.0
7,13.282999992370605,immed,46717.000007629395,Mon Jun 22 2026 11:42:31 GMT-0400 (Eastern Daylight Time),927203.0,A,train,I,n,273,3,13282.700000047684,913920.2999999523,9038,WL,A,1.0
7,14.715999841690063,immed,45284.00015830994,Mon Jun 22 2026 11:42:31 GMT-0400 (Eastern Daylight Time),928636.0,A,trainenter,I,enter,1404,3,14715.700000047684,913920.2999999523,9038,WL,A,1.0
7,22.58299994468689,immed,37417.00005531311,Mon Jun 22 2026 11:42:31 GMT-0400 (Eastern Daylight Time),936503.4000000954,A,b,I,b,7850,3,7867.100000143051,928636.2999999523,9038,WL,A,2.0
7,22.816999912261963,immed,37183.00008773804,Mon Jun 22 2026 11:42:31 GMT-0400 (Eastern Daylight Time),936736.5,A,bu,I,u,219,3,8100.200000047684,928636.2999999523,9038,WL,A,2.0
7,23.032999992370605,immed,36967.000007629395,Mon Jun 22 2026 11:42:31 GMT-0400 (Eastern Daylight Time),936953.0,A,but,I,t,195,3,8316.700000047684,928636.2999999523,9038,WL,A,2.0
7,23.25,immed,36750.0,Mon Jun 22 2026 11:42:31 GMT-0400 (Eastern Daylight Time),937169.7000000477,A,butt,I,t,194,3,8533.400000095367,928636.2999999523,9038,WL,A,2.0
7,23.449999809265137,immed,36550.00019073486,Mon Jun 22 2026 11:42:31 GMT-0400 (Eastern Daylight Time),937369.7999999523,A,butto,I,o,176,3,8733.5,928636.2999999523,9038,WL,A,2.0
7,23.882999897003174,immed,36117.000102996826,Mon Jun 22 2026 11:42:31 GMT-0400 (Eastern Daylight Time),937803.0,A,button,I,n,415,3,9166.700000047684,928636.2999999523,9038,WL,A,2.0
7,26.76699995994568,immed,33233.00004005432,Mon Jun 22 2026 11:42:31 GMT-0400 (Eastern Daylight Time),940686.5,A,buttong,I,g,2862,3,12050.200000047684,928636.2999999523,9038,WL,A,2.0
7,26.932999849319458,immed,33067.00015068054,Mon Jun 22 2026 11:42:31 GMT-0400 (Eastern Daylight Time),940853.0,A,buttongo,I,o,145,3,12216.700000047684,928636.2999999523,9038,WL,A,2.0
7,27.199999809265137,immed,32800.00019073486,Mon Jun 22 2026 11:42:31 GMT-0400 (Eastern Daylight Time),941119.5999999046,A,buttongol,I,l,240,3,12483.299999952316,928636.2999999523,9038,WL,A,2.0
7,27.382999897003174,immed,32617.000102996826,Mon Jun 22 2026 11:42:31 GMT-0400 (Eastern Daylight Time),941303.0999999046,A,buttongold,I,d,156,3,12666.799999952316,928636.2999999523,9038,WL,A,2.0
7,28.616999864578247,immed,31383.000135421753,Mon Jun 22 2026 11:42:31 GMT-0400 (Eastern Daylight Time),942536.5,A,buttongol,I,backspace,1203,3,13900.200000047684,928636.2999999523,9038,WL,A,2.0
7,29.282999992370605,immed,30717.000007629395,Mon Jun 22 2026 11:42:31 GMT-0400 (Eastern Daylight Time),943203.2000000477,A,buttongo,I,backspace,648,3,14566.900000095367,928636.2999999523,9038,WL,A,2.0
7,29.532999992370605,immed,30467.000007629395,Mon Jun 22 2026 11:42:31 GMT-0400 (Eastern Daylight Time),943453.0999999046,A,buttong,I,backspace,223,3,14816.799999952316,928636.2999999523,9038,WL,A,2.0
7,29.932999849319458,immed,30067.000150680542,Mon Jun 22 2026 11:42:31 GMT-0400 (Eastern Daylight Time),943853.2999999523,A,button,I,backspace,388,3,15217.0,928636.2999999523,9038,WL,A,2.0
7,30.58299994468689,immed,29417.00005531311,Mon Jun 22 2026 11:42:31 GMT-0400 (Eastern Daylight Time),944502.7999999523,A,buttonenter,I,enter,628,3,15866.5,928636.2999999523,9038,WL,A,2.0
7,32.115999937057495,immed,27884.000062942505,Mon Jun 22 2026 11:42:31 GMT-0400 (Eastern Daylight Time),946036.5,A,g,I,g,1519,3,1533.4000000953674,944503.0999999046,9038,WL,A,3.0
7,32.299999952316284,immed,27700.000047683716,Mon Jun 22 2026 11:42:31 GMT-0400 (Eastern Daylight Time),946219.9000000954,A,go,I,o,166,3,1716.8000001907349,944503.0999999046,9038,WL,A,3.0
7,33.049999952316284,immed,26950.000047683716,Mon Jun 22 2026 11:42:31 GMT-0400 (Eastern Daylight Time),946969.7000000477,A,gol,I,l,727,3,2466.600000143051,944503.0999999046,9038,WL,A,3.0
7,33.31699991226196,immed,26683.000087738037,Mon Jun 22 2026 11:42:31 GMT-0400 (Eastern Daylight Time),947236.5,A,gold,I,d,249,3,2733.4000000953674,944503.0999999046,9038,WL,A,3.0
7,34.06599998474121,immed,25934.00001525879,Mon Jun 22 2026 11:42:31 GMT-0400 (Eastern Daylight Time),947986.0999999046,A,goldenter,I,enter,725,3,3483.0,944503.0999999046,9038,WL,A,3.0
7,34.75,immed,25250.0,Mon Jun 22 2026 11:42:31 GMT-0400 (Eastern Daylight Time),948669.7999999523,A,h,I,h,667,3,683.3999998569489,947986.4000000954,9038,WL,A,4.0
7,34.91699981689453,immed,25083.00018310547,Mon Jun 22 2026 11:42:31 GMT-0400 (Eastern Daylight Time),948836.5,A,ha,I,a,140,3,850.0999999046326,947986.4000000954,9038,WL,A,4.0
7,35.08299994468689,immed,24917.00005531311,Mon Jun 22 2026 11:42:31 GMT-0400 (Eastern Daylight Time),949003.0999999046,A,har,I,r,150,3,1016.6999998092651,947986.4000000954,9038,WL,A,4.0
7,35.43299984931946,immed,24567.000150680542,Mon Jun 22 2026 11:42:31 GMT-0400 (Eastern Daylight Time),949353.0999999046,A,harp,I,p,334,3,1366.6999998092651,947986.4000000954,9038,WL,A,4.0
7,35.83299994468689,immed,24167.00005531311,Mon Jun 22 2026 11:42:31 GMT-0400 (Eastern Daylight Time),949752.7999999523,A,harpenter,I,enter,385,3,1766.3999998569489,947986.4000000954,9038,WL,A,4.0
7,55.59999990463257,immed,4400.000095367432,Mon Jun 22 2026 11:42:31 GMT-0400 (Eastern Daylight Time),969519.7000000477,A,f,I,f,19757,3,19766.60000014305,949753.0999999046,9038,WL,A,5.0
7,56.282999992370605,immed,3717.0000076293945,Mon Jun 22 2026 11:42:31 GMT-0400 (Eastern Daylight Time),970203.2000000477,A,fi,I,i,658,3,20450.10000014305,949753.0999999046,9038,WL,A,5.0
7,57.16699981689453,immed,2833.0001831054688,Mon Jun 22 2026 11:42:31 GMT-0400 (Eastern Daylight Time),971086.5,A,fin,I,n,871,3,21333.400000095367,949753.0999999046,9038,WL,A,5.0
7,57.39999985694885,immed,2600.0001430511475,Mon Jun 22 2026 11:42:31 GMT-0400 (Eastern Daylight Time),971319.7999999523,A,fing,I,g,211,3,21566.700000047684,949753.0999999046,9038,WL,A,5.0
7,57.64999985694885,immed,2350.0001430511475,Mon Jun 22 2026 11:42:31 GMT-0400 (Eastern Daylight Time),971569.7999999523,A,finge,I,e,234,3,21816.700000047684,949753.0999999046,9038,WL,A,5.0
7,57.73299980163574,immed,2267.000198364258,Mon Jun 22 2026 11:42:31 GMT-0400 (Eastern Daylight Time),971653.0,A,finger,I,r,64,3,21899.900000095367,949753.0999999046,9038,WL,A,5.0
7,58.299999952316284,immed,1700.0000476837158,Mon Jun 22 2026 11:42:31 GMT-0400 (Eastern Daylight Time),972219.4000000954,A,fingerenter,I,enter,539,3,22466.300000190735,949753.0999999046,9038,WL,A,5.0
7,59.5,immed,500.0,Mon Jun 22 2026 11:42:31 GMT-0400 (Eastern Daylight Time),973419.7999999523,A,s,I,s,1177,3,1200.0,972219.7999999523,9038,WL,A,6.0
7,59.717000007629395,immed,282.99999237060547,Mon Jun 22 2026 11:42:31 GMT-0400 (Eastern Daylight Time),973636.7000000477,A,sa,I,a,205,3,1416.9000000953674,972219.7999999523,9038,WL,A,6.0
7,59.882999897003174,immed,117.00010299682617,Mon Jun 22 2026 11:42:31 GMT-0400 (Eastern Daylight Time),973803.0999999046,A,sal,I,l,150,3,1583.2999999523163,972219.7999999523,9038,WL,A,6.0
7,60.032999992370605,immed,-32.99999237060547,Mon Jun 22 2026 11:42:31 GMT-0400 (Eastern Daylight Time),973953.2000000477,A,salNone,I,None,131,3,1733.4000000953674,972219.7999999523,9038,WL,A,6.0
