acc_sum,block_c,block_dur,condition,correct,correct_response,countdown,datetime,endtime,project,response,response_time,response_time_test1_response,response_time_test2_response,row_sel,same,session_number,start_end,starttime,stim1,stim2,subject_id,task,task_vers,time_test1,time_test2,trial
1,1,0.0,prac,1,z,30000.0,Fri Aug 29 2025 15:13:19 GMT-0500 (Central Daylight Time),43175.09999990463,O,z,1734,,,4,yes,1,3260.5,39914.59999990463,RSM,RSM,7218,LC,C,,,1
2,1,0.0,prac,1,m,30000.0,Fri Aug 29 2025 15:13:19 GMT-0500 (Central Daylight Time),48686.699999809265,O,m,3977,,,3,no,1,5504.0,43182.699999809265,QHZXPC,QHZWPC,7218,LC,C,,,2
3,1,0.0,prac,1,z,30000.0,Fri Aug 29 2025 15:13:19 GMT-0500 (Central Daylight Time),54305.199999809265,O,z,4109,,,6,yes,1,5615.099999904633,48690.09999990463,CSDBFPHXZ,CSDBFPHXZ,7218,LC,C,,,3
3,1,0.0,prac,0,m,30000.0,Fri Aug 29 2025 15:13:19 GMT-0500 (Central Daylight Time),60135.89999985695,O,z,4296,,,5,no,1,5823.299999952316,54312.59999990463,LNDPRSKQB,LNDPRSJQB,7218,LC,C,,,4
4,1,0.0,prac,1,z,30000.0,Fri Aug 29 2025 15:13:19 GMT-0500 (Central Daylight Time),65736.0,O,z,4081,,,2,yes,1,5593.600000143051,60142.39999985695,NBGFSM,NBGFSM,7218,LC,C,,,5
5,1,0.0,prac,1,m,30000.0,Fri Aug 29 2025 15:13:19 GMT-0500 (Central Daylight Time),69582.59999990463,O,m,2309,,,1,no,1,3841.0999999046326,65741.5,RNV,FNV,7218,LC,C,,,6
1,1,2.247999906539917,test,1,m,27752.000093460083,Fri Aug 29 2025 15:13:19 GMT-0500 (Central Daylight Time),84495.0,O,m,2236,2236,,1,no,1,2242.100000143051,82252.89999985695,HCF,RCF,7218,LC,C,79163,,1
1,1,5.497999906539917,test,0,m,24502.000093460083,Fri Aug 29 2025 15:13:19 GMT-0500 (Central Daylight Time),87744.29999995232,O,z,3239,3239,,2,no,1,3245.600000143051,84498.69999980927,QTPRJX,QTPNJX,7218,LC,C,81409,,2
2,1,14.676000118255615,test,1,m,15323.999881744385,Fri Aug 29 2025 15:13:19 GMT-0500 (Central Daylight Time),96923.19999980927,O,m,9173,9173,,3,no,1,9174.699999809265,87748.5,MZDYGVGKQ,MZDYGLBKQ,7218,LC,C,84659,,3
3,1,16.993000030517578,test,1,m,13006.999969482422,Fri Aug 29 2025 15:13:19 GMT-0500 (Central Daylight Time),99239.39999985695,O,m,2293,2293,,4,no,1,2309.2999999523163,96930.09999990463,FQTNMK,JQTNMK,7218,LC,C,93841,,4
4,1,19.509000062942505,test,1,z,10490.999937057495,Fri Aug 29 2025 15:13:19 GMT-0500 (Central Daylight Time),101755.69999980927,O,z,2495,2495,,5,yes,1,2512.2999999523163,99243.39999985695,CLJ,CLJ,7218,LC,C,96154,,5
4,1,23.956000089645386,test,0,m,6043.999910354614,Fri Aug 29 2025 15:13:19 GMT-0500 (Central Daylight Time),106203.09999990463,O,z,4441,4441,,6,no,1,4443.400000095367,101759.69999980927,JGDMNSVPW,JGZMNSVPW,7218,LC,C,98670,,6
5,1,26.789000034332275,test,1,z,3210.9999656677246,Fri Aug 29 2025 15:13:19 GMT-0500 (Central Daylight Time),109035.59999990463,O,z,2824,2824,,7,yes,1,2827.0999999046326,106208.5,FPTVHKCBJ,FPTVHKCBJ,7218,LC,C,103119,,7
6,1,29.23900008201599,test,1,m,760.9999179840088,Fri Aug 29 2025 15:13:19 GMT-0500 (Central Daylight Time),111485.59999990463,O,m,2432,2432,,8,no,1,2445.7000000476837,109039.89999985695,XRPZBS,ZRPBDH,7218,LC,C,105951,,8
6,1,30.00600004196167,test,0,m,-6.000041961669922,Fri Aug 29 2025 15:13:19 GMT-0500 (Central Daylight Time),112252.59999990463,O,None,762,762,,9,no,1,762.5999999046326,111490.0,ZSQ,ZSP,7218,LC,C,108400,,9
1,2,4.297999858856201,test,1,z,25702.0001411438,Fri Aug 29 2025 15:13:19 GMT-0500 (Central Daylight Time),125846.89999985695,O,z,4286,,4286.0,1,yes,1,14356.899999856949,111490.0,PRDBZTYFN,PRDBZTYFN,7218,LC,C,,118465.0,1
1,2,4.631999969482422,test,0,m,25368.000030517578,Fri Aug 29 2025 15:13:19 GMT-0500 (Central Daylight Time),126181.09999990463,O,z,319,,319.0,2,no,1,14691.099999904633,111490.0,NCWJDZ,NCMJDZ,7218,LC,C,,122759.0,2
2,2,7.164999961853027,test,1,m,22835.000038146973,Fri Aug 29 2025 15:13:19 GMT-0500 (Central Daylight Time),128713.5,O,m,2517,,2517.0,3,no,1,17223.5,111490.0,KHW,KBW,7218,LC,C,,123096.0,3
2,2,10.863999843597412,test,0,m,19136.000156402588,Fri Aug 29 2025 15:13:19 GMT-0500 (Central Daylight Time),132413.09999990463,O,z,3685,,3685.0,4,no,1,20923.099999904633,111490.0,ZRBGMF,ZRBCMF,7218,LC,C,,125626.0,4
3,2,12.728999853134155,test,1,m,17271.000146865845,Fri Aug 29 2025 15:13:19 GMT-0500 (Central Daylight Time),134277.29999995232,O,m,1854,,1854.0,5,no,1,22787.299999952316,111490.0,BTH,BYH,7218,LC,C,,129328.0,5
4,2,19.244999885559082,test,1,z,10755.000114440918,Fri Aug 29 2025 15:13:19 GMT-0500 (Central Daylight Time),140793.69999980927,O,z,6496,,6496.0,6,yes,1,29303.699999809265,111490.0,XWKQRYCNZ,XWKQRYCNZ,7218,LC,C,,131191.0,6
5,2,23.125999927520752,test,1,z,6874.000072479248,Fri Aug 29 2025 15:13:19 GMT-0500 (Central Daylight Time),144674.59999990463,O,z,3867,,3867.0,7,yes,1,33184.59999990463,111490.0,HNPDLK,HNPDLK,7218,LC,C,,137709.0,7
5,2,30.00600004196167,test,0,m,-6.000041961669922,Fri Aug 29 2025 15:13:19 GMT-0500 (Central Daylight Time),151554.59999990463,O,None,6875,,6875.0,8,no,1,40064.59999990463,111490.0,WMQTRSGLZ,WMQTRZGLZ,7218,LC,C,,141590.0,8
