Q,Q1,Q2,Q3,Q4,acc_sum,block,block_c,correct,correct_response,datetime,endtime,project,response,response_time,row_sel,session_number,squiggle1,squiggle1x,squiggle1y,squiggle2,squiggle2x,squiggle2y,squiggle3,squiggle3x,squiggle3y,squiggle4,squiggle4x,squiggle4y,start_end,starttime,subject_id,target_congruent,task,task_vers,testsquiggle,testsquigglex,testsquiggley,time_practice_delay,time_practice_fixation,time_practice_stimuli,time_practice_study,time_test_delay,time_test_fixation,time_test_stimuli,time_test_study,trial
1,1,0,0,0,1,prac,1,1,z,Tue Aug 13 2024 14:38:41 GMT-0500 (Central Daylight Time),134183.6000000015,O,z,1991,1,1,16.bmp,-120,-120,17.bmp,120,-120,18.bmp,-120,120,19.bmp,120,120,10808.39999999851,123375.20000000298,7015,yes,SM,B,16.bmp,-120,-120,126470,120443,128487,122454,,,,,1
3,0,0,1,0,2,prac,1,1,m,Tue Aug 13 2024 14:38:41 GMT-0500 (Central Daylight Time),144363.5,O,m,1355,2,1,20.bmp,-120,-120,21.bmp,120,-120,22.bmp,-120,120,23.bmp,120,120,10175.89999999851,134187.6000000015,7015,no,SM,B,23.bmp,-120,120,137283,131256,139299,133267,,,,,2
4,0,0,0,1,3,prac,1,1,m,Tue Aug 13 2024 14:38:41 GMT-0500 (Central Daylight Time),154343.5,O,m,1151,3,1,24.bmp,-120,-120,25.bmp,120,-120,26.bmp,-120,120,27.bmp,120,120,9976.5,144367.0,7015,no,SM,B,24.bmp,120,120,147463,141435,149479,143448,,,,,3
2,0,1,0,0,4,prac,1,1,z,Tue Aug 13 2024 14:38:41 GMT-0500 (Central Daylight Time),164623.5,O,z,1460,4,1,28.bmp,-120,-120,29.bmp,120,-120,30.bmp,-120,120,31.bmp,120,120,10276.60000000149,154346.8999999985,7015,yes,SM,B,29.bmp,120,-120,157443,151415,159459,153428,,,,,4
3,0,0,1,0,5,prac,1,1,z,Tue Aug 13 2024 14:38:41 GMT-0500 (Central Daylight Time),174670.29999999702,O,z,1227,5,1,32.bmp,-120,-120,33.bmp,120,-120,34.bmp,-120,120,35.bmp,120,120,10043.5,164626.79999999702,7015,yes,SM,B,34.bmp,-120,120,167723,161695,169739,163708,,,,,5
1,1,0,0,0,6,prac,1,1,m,Tue Aug 13 2024 14:38:41 GMT-0500 (Central Daylight Time),185467.3999999985,O,m,1980,6,1,36.bmp,-120,-120,37.bmp,120,-120,38.bmp,-120,120,39.bmp,120,120,10793.60000000149,174673.79999999702,7015,no,SM,B,39.bmp,-120,-120,177770,171742,179786,173755,,,,,6
2,0,1,0,0,7,prac,1,1,m,Tue Aug 13 2024 14:38:41 GMT-0500 (Central Daylight Time),195847.3999999985,O,m,1551,7,1,40.bmp,-120,-120,41.bmp,120,-120,42.bmp,-120,120,43.bmp,120,120,10375.89999999851,185471.5,7015,no,SM,B,40.bmp,120,-120,188567,182540,190583,184551,,,,,7
4,0,0,0,1,8,prac,1,1,z,Tue Aug 13 2024 14:38:41 GMT-0500 (Central Daylight Time),206227.3999999985,O,z,1555,8,1,44.bmp,-120,-120,45.bmp,120,-120,46.bmp,-120,120,47.bmp,120,120,10376.19999999553,195851.20000000298,7015,yes,SM,B,47.bmp,120,120,198948,192919,200963,194931,,,,,8
4,0,0,0,1,1,test,1,1,m,Tue Aug 13 2024 14:38:41 GMT-0500 (Central Daylight Time),238333.8999999985,O,m,1304,1,1,48.bmp,-120,-120,49.bmp,120,-120,50.bmp,-120,120,43.bmp,120,120,9360.69999999553,228973.20000000298,7015,yes,SM,B,50.bmp,120,120,198948,192919,200963,194931,232071.0,226041.0,234086.0,228054.0,1
2,0,1,0,0,1,test,1,0,m,Tue Aug 13 2024 14:38:41 GMT-0500 (Central Daylight Time),247447.8999999985,O,z,1052,2,1,1.bmp,-120,-120,2.bmp,120,-120,3.bmp,-120,120,4.bmp,120,120,9110.10000000149,238337.79999999702,7015,yes,SM,B,3.bmp,120,-120,198948,192919,200963,194931,241433.0,235406.0,243450.0,237418.0,2
1,1,0,0,0,2,test,1,1,z,Tue Aug 13 2024 14:38:41 GMT-0500 (Central Daylight Time),256894.5,O,z,1395,3,1,5.bmp,-120,-120,6.bmp,120,-120,7.bmp,-120,120,8.bmp,120,120,9443.39999999851,247451.1000000015,7015,yes,SM,B,5.bmp,-120,-120,198948,192919,200963,194931,250547.0,244519.0,252563.0,246532.0,3
3,0,0,1,0,2,test,1,0,m,Tue Aug 13 2024 14:38:41 GMT-0500 (Central Daylight Time),266958.700000003,O,None,2015,4,1,9.bmp,-120,-120,10.bmp,120,-120,11.bmp,-120,120,12.bmp,120,120,10060.60000000149,256898.1000000015,7015,yes,SM,B,9.bmp,-120,120,198948,192919,200963,194931,259994.0,253966.0,262011.0,255979.0,4
2,0,1,0,0,3,test,1,1,z,Tue Aug 13 2024 14:38:41 GMT-0500 (Central Daylight Time),276605.299999997,O,z,1588,5,1,13.bmp,-120,-120,14.bmp,120,-120,15.bmp,-120,120,16.bmp,120,120,9643.5,266961.799999997,7015,yes,SM,B,14.bmp,120,-120,198948,192919,200963,194931,270058.0,264030.0,272074.0,266043.0,5
3,0,0,1,0,3,test,1,0,z,Tue Aug 13 2024 14:38:41 GMT-0500 (Central Daylight Time),286085.5,O,m,1421,6,1,17.bmp,-120,-120,18.bmp,120,-120,19.bmp,-120,120,20.bmp,120,120,9476.79999999702,276608.700000003,7015,yes,SM,B,19.bmp,-120,120,198948,192919,200963,194931,279705.0,273677.0,281721.0,275689.0,6
4,0,0,0,1,4,test,1,1,z,Tue Aug 13 2024 14:38:41 GMT-0500 (Central Daylight Time),295699.1000000015,O,z,1557,7,1,21.bmp,-120,-120,22.bmp,120,-120,23.bmp,-120,120,24.bmp,120,120,9610.60000000149,286088.5,7015,yes,SM,B,24.bmp,120,120,198948,192919,200963,194931,289185.0,283157.0,291201.0,285170.0,7
2,0,1,0,0,5,test,1,1,m,Tue Aug 13 2024 14:38:41 GMT-0500 (Central Daylight Time),305579.1000000015,O,m,1824,8,1,25.bmp,-120,-120,26.bmp,120,-120,27.bmp,-120,120,28.bmp,120,120,9877.0,295702.1000000015,7015,yes,SM,B,25.bmp,120,-120,198948,192919,200963,194931,298799.0,292770.0,300815.0,294783.0,8
3,0,0,1,0,6,test,1,1,m,Tue Aug 13 2024 14:38:41 GMT-0500 (Central Daylight Time),315592.8999999985,O,m,1951,9,1,29.bmp,-120,-120,30.bmp,120,-120,31.bmp,-120,120,32.bmp,120,120,10010.60000000149,305582.299999997,7015,yes,SM,B,30.bmp,-120,120,198948,192919,200963,194931,308679.0,302651.0,310695.0,304664.0,9
4,0,0,0,1,6,test,1,0,z,Tue Aug 13 2024 14:38:41 GMT-0500 (Central Daylight Time),325057.799999997,O,m,1425,10,1,37.bmp,-120,-120,38.bmp,120,-120,39.bmp,-120,120,40.bmp,120,120,9460.89999999851,315596.8999999985,7015,yes,SM,B,40.bmp,120,120,198948,192919,200963,194931,318692.0,312665.0,320693.0,314677.0,10
3,0,0,1,0,7,test,1,1,z,Tue Aug 13 2024 14:38:41 GMT-0500 (Central Daylight Time),335070.1000000015,O,z,1963,11,1,33.bmp,-120,-120,34.bmp,120,-120,35.bmp,-120,120,36.bmp,120,120,10008.70000000298,325061.3999999985,7015,yes,SM,B,35.bmp,-120,120,198948,192919,200963,194931,328156.0,322130.0,330172.0,324141.0,11
2,0,1,0,0,8,test,1,1,m,Tue Aug 13 2024 14:38:41 GMT-0500 (Central Daylight Time),344383.8999999985,O,m,1252,12,1,41.bmp,-120,-120,42.bmp,120,-120,43.bmp,-120,120,44.bmp,120,120,9310.10000000149,335073.799999997,7015,yes,SM,B,41.bmp,120,-120,198948,192919,200963,194931,338170.0,332142.0,340186.0,334154.0,12
3,0,0,1,0,9,test,1,1,m,Tue Aug 13 2024 14:38:41 GMT-0500 (Central Daylight Time),353897.3999999985,O,m,1458,13,1,45.bmp,-120,-120,46.bmp,120,-120,47.bmp,-120,120,48.bmp,120,120,9510.19999999553,344387.200000003,7015,yes,SM,B,46.bmp,-120,120,198948,192919,200963,194931,347484.0,341455.0,349500.0,343468.0,13
1,1,0,0,0,10,test,1,1,z,Tue Aug 13 2024 14:38:41 GMT-0500 (Central Daylight Time),362911.200000003,O,z,953,14,1,49.bmp,-120,-120,50.bmp,120,-120,4.bmp,-120,120,1.bmp,120,120,9010.40000000596,353900.799999997,7015,yes,SM,B,49.bmp,-120,-120,198948,192919,200963,194931,356997.0,350969.0,359013.0,352982.0,14
4,0,0,0,1,10,test,1,0,m,Tue Aug 13 2024 14:38:41 GMT-0500 (Central Daylight Time),372974.799999997,O,None,2016,15,1,10.bmp,-120,-120,11.bmp,120,-120,12.bmp,-120,120,13.bmp,120,120,10060.59999999404,362914.200000003,7015,yes,SM,B,11.bmp,120,120,198948,192919,200963,194931,366011.0,359982.0,368027.0,361996.0,15
1,1,0,0,0,11,test,1,1,m,Tue Aug 13 2024 14:38:41 GMT-0500 (Central Daylight Time),382221.8999999985,O,m,1188,16,1,2.bmp,-120,-120,3.bmp,120,-120,4.bmp,-120,120,5.bmp,120,120,9243.79999999702,372978.1000000015,7015,yes,SM,B,5.bmp,-120,-120,198948,192919,200963,194931,376074.0,370046.0,378091.0,372059.0,16
3,0,0,1,0,12,test,1,1,m,Tue Aug 13 2024 14:38:41 GMT-0500 (Central Daylight Time),391585.6000000015,O,m,1308,17,1,22.bmp,-120,-120,23.bmp,120,-120,24.bmp,-120,120,25.bmp,120,120,9360.89999999851,382224.700000003,7015,yes,SM,B,22.bmp,-120,120,198948,192919,200963,194931,385322.0,379293.0,387338.0,381306.0,17
1,1,0,0,0,13,test,1,1,z,Tue Aug 13 2024 14:38:41 GMT-0500 (Central Daylight Time),400716.1000000015,O,z,1074,18,1,6.bmp,-120,-120,7.bmp,120,-120,8.bmp,-120,120,9.bmp,120,120,9127.39999999851,391588.700000003,7015,yes,SM,B,6.bmp,-120,-120,198948,192919,200963,194931,394685.0,388657.0,396701.0,390670.0,18
2,0,1,0,0,14,test,1,1,z,Tue Aug 13 2024 14:38:41 GMT-0500 (Central Daylight Time),409746.700000003,O,z,983,19,1,26.bmp,-120,-120,27.bmp,120,-120,28.bmp,-120,120,29.bmp,120,120,9027.0,400719.700000003,7015,yes,SM,B,27.bmp,120,-120,198948,192919,200963,194931,403816.0,397788.0,405832.0,399801.0,19
3,0,0,1,0,14,test,1,0,z,Tue Aug 13 2024 14:38:41 GMT-0500 (Central Daylight Time),419810.3999999985,O,None,2016,20,1,30.bmp,-120,-120,31.bmp,120,-120,32.bmp,-120,120,33.bmp,120,120,10060.60000000149,409749.799999997,7015,yes,SM,B,32.bmp,-120,120,198948,192919,200963,194931,412846.0,406818.0,414862.0,408831.0,20
1,1,0,0,0,15,test,1,1,m,Tue Aug 13 2024 14:38:41 GMT-0500 (Central Daylight Time),429074.0,O,m,1208,21,1,14.bmp,-120,-120,15.bmp,120,-120,16.bmp,-120,120,17.bmp,120,120,9260.10000000149,419813.8999999985,7015,yes,SM,B,16.bmp,-120,-120,198948,192919,200963,194931,422910.0,416882.0,424926.0,418894.0,21
4,0,0,0,1,15,test,1,0,z,Tue Aug 13 2024 14:38:41 GMT-0500 (Central Daylight Time),438704.3999999985,O,m,1577,22,1,18.bmp,-120,-120,19.bmp,120,-120,20.bmp,-120,120,21.bmp,120,120,9627.0,429077.3999999985,7015,yes,SM,B,21.bmp,120,120,198948,192919,200963,194931,432174.0,426145.0,434189.0,428158.0,22
1,1,0,0,0,16,test,1,1,m,Tue Aug 13 2024 14:38:41 GMT-0500 (Central Daylight Time),448134.799999997,O,m,1379,23,1,34.bmp,-120,-120,35.bmp,120,-120,36.bmp,-120,120,37.bmp,120,120,9427.39999999851,438707.3999999985,7015,yes,SM,B,37.bmp,-120,-120,198948,192919,200963,194931,441804.0,435776.0,443820.0,437789.0,23
2,0,1,0,0,17,test,1,1,z,Tue Aug 13 2024 14:38:41 GMT-0500 (Central Daylight Time),457131.5,O,z,949,24,1,42.bmp,-120,-120,43.bmp,120,-120,44.bmp,-120,120,45.bmp,120,120,8993.70000000298,448137.799999997,7015,yes,SM,B,43.bmp,120,-120,198948,192919,200963,194931,451234.0,445206.0,453250.0,447219.0,24
4,0,0,0,1,17,test,1,0,m,Tue Aug 13 2024 14:38:41 GMT-0500 (Central Daylight Time),466862.200000003,O,z,1678,25,1,46.bmp,-120,-120,47.bmp,120,-120,48.bmp,-120,120,49.bmp,120,120,9727.40000000596,457134.799999997,7015,yes,SM,B,48.bmp,120,120,198948,192919,200963,194931,460232.0,454203.0,462248.0,456216.0,25
1,1,0,0,0,17,test,1,0,z,Tue Aug 13 2024 14:38:41 GMT-0500 (Central Daylight Time),476242.5,O,m,1332,26,1,38.bmp,-120,-120,39.bmp,120,-120,40.bmp,-120,120,41.bmp,120,120,9377.0,466865.5,7015,yes,SM,B,38.bmp,-120,-120,198948,192919,200963,194931,469962.0,463934.0,471978.0,465947.0,26
4,0,0,0,1,18,test,1,1,z,Tue Aug 13 2024 14:38:41 GMT-0500 (Central Daylight Time),485689.299999997,O,z,1392,27,1,50.bmp,-120,-120,11.bmp,120,-120,1.bmp,-120,120,2.bmp,120,120,9442.5,476246.799999997,7015,yes,SM,B,2.bmp,120,120,198948,192919,200963,194931,479342.0,473315.0,481358.0,475327.0,27
3,0,0,1,0,18,test,1,0,m,Tue Aug 13 2024 14:38:41 GMT-0500 (Central Daylight Time),494886.5,O,z,1136,28,1,3.bmp,-120,-120,4.bmp,120,-120,5.bmp,-120,120,6.bmp,120,120,9194.20000000298,485692.299999997,7015,yes,SM,B,3.bmp,-120,120,198948,192919,200963,194931,488789.0,482763.0,490806.0,484774.0,28
2,0,1,0,0,19,test,1,1,z,Tue Aug 13 2024 14:38:41 GMT-0500 (Central Daylight Time),504083.6000000015,O,z,1141,29,1,7.bmp,-120,-120,8.bmp,120,-120,9.bmp,-120,120,10.bmp,120,120,9193.89999999851,494889.700000003,7015,yes,SM,B,8.bmp,120,-120,198948,192919,200963,194931,497986.0,491958.0,500002.0,493971.0,29
3,0,0,1,0,20,test,1,1,z,Tue Aug 13 2024 14:38:41 GMT-0500 (Central Daylight Time),513514.1000000015,O,z,1367,30,1,11.bmp,-120,-120,12.bmp,120,-120,13.bmp,-120,120,14.bmp,120,120,9427.39999999851,504086.700000003,7015,yes,SM,B,13.bmp,-120,120,198948,192919,200963,194931,507183.0,501155.0,509199.0,503168.0,30
1,1,0,0,0,21,test,1,1,z,Tue Aug 13 2024 14:38:41 GMT-0500 (Central Daylight Time),522594.799999997,O,z,1017,31,1,15.bmp,-120,-120,16.bmp,120,-120,17.bmp,-120,120,18.bmp,120,120,9077.39999999851,513517.3999999985,7015,yes,SM,B,15.bmp,-120,-120,198948,192919,200963,194931,516614.0,510586.0,518630.0,512599.0,31
2,0,1,0,0,22,test,1,1,m,Tue Aug 13 2024 14:38:41 GMT-0500 (Central Daylight Time),532624.700000003,O,m,1968,32,1,19.bmp,-120,-120,20.bmp,120,-120,21.bmp,-120,120,22.bmp,120,120,10026.80000000447,522597.8999999985,7015,yes,SM,B,19.bmp,120,-120,198948,192919,200963,194931,525694.0,519666.0,527710.0,521679.0,32
4,0,0,0,1,23,test,1,1,z,Tue Aug 13 2024 14:38:41 GMT-0500 (Central Daylight Time),541805.299999997,O,z,1131,33,1,31.bmp,-120,-120,32.bmp,120,-120,33.bmp,-120,120,34.bmp,120,120,9177.0,532628.299999997,7015,yes,SM,B,34.bmp,120,120,198948,192919,200963,194931,535724.0,529696.0,537740.0,531709.0,33
2,0,1,0,0,24,test,1,1,z,Tue Aug 13 2024 14:38:41 GMT-0500 (Central Daylight Time),550802.5,O,z,933,34,1,23.bmp,-120,-120,24.bmp,120,-120,25.bmp,-120,120,26.bmp,120,120,8994.20000000298,541808.299999997,7015,yes,SM,B,24.bmp,120,-120,198948,192919,200963,194931,544905.0,538877.0,546921.0,540889.0,34
4,0,0,0,1,25,test,1,1,m,Tue Aug 13 2024 14:38:41 GMT-0500 (Central Daylight Time),560132.6000000015,O,m,1271,35,1,27.bmp,-120,-120,28.bmp,120,-120,29.bmp,-120,120,30.bmp,120,120,9326.39999999851,550806.200000003,7015,yes,SM,B,29.bmp,120,120,198948,192919,200963,194931,553902.0,547874.0,555919.0,549887.0,35
3,0,0,1,0,26,test,1,1,m,Tue Aug 13 2024 14:38:41 GMT-0500 (Central Daylight Time),569363.0,O,m,1181,36,1,35.bmp,-120,-120,36.bmp,120,-120,37.bmp,-120,120,38.bmp,120,120,9227.5,560135.5,7015,yes,SM,B,35.bmp,-120,120,198948,192919,200963,194931,563232.0,557204.0,565249.0,559217.0,36
1,1,0,0,0,27,test,1,1,m,Tue Aug 13 2024 14:38:41 GMT-0500 (Central Daylight Time),578760.299999997,O,m,1343,37,1,39.bmp,-120,-120,40.bmp,120,-120,41.bmp,-120,120,42.bmp,120,120,9394.5,569365.799999997,7015,yes,SM,B,40.bmp,-120,-120,198948,192919,200963,194931,572463.0,566434.0,574479.0,568447.0,37
2,0,1,0,0,28,test,1,1,m,Tue Aug 13 2024 14:38:41 GMT-0500 (Central Daylight Time),587890.6000000015,O,m,1067,38,1,43.bmp,-120,-120,44.bmp,120,-120,45.bmp,-120,120,46.bmp,120,120,9127.20000000298,578763.3999999985,7015,yes,SM,B,45.bmp,120,-120,198948,192919,200963,194931,581860.0,575832.0,583876.0,577845.0,38
4,0,0,0,1,29,test,1,1,z,Tue Aug 13 2024 14:38:41 GMT-0500 (Central Daylight Time),596954.6000000015,O,z,1000,39,1,47.bmp,-120,-120,48.bmp,120,-120,49.bmp,-120,120,50.bmp,120,120,9061.10000000149,587893.5,7015,yes,SM,B,50.bmp,120,120,198948,192919,200963,194931,590990.0,584962.0,593007.0,586975.0,39
3,0,0,1,0,30,test,1,1,m,Tue Aug 13 2024 14:38:41 GMT-0500 (Central Daylight Time),606068.299999997,O,m,1064,40,1,4.bmp,-120,-120,5.bmp,120,-120,6.bmp,-120,120,7.bmp,120,120,9110.69999999553,596957.6000000015,7015,yes,SM,B,5.bmp,-120,120,198948,192919,200963,194931,600054.0,594026.0,602071.0,596039.0,40
1,1,0,0,0,31,test,1,1,z,Tue Aug 13 2024 14:38:41 GMT-0500 (Central Daylight Time),614899.0,O,z,774,41,1,8.bmp,-120,-120,9.bmp,120,-120,10.bmp,-120,120,11.bmp,120,120,8827.60000000149,606071.3999999985,7015,yes,SM,B,8.bmp,-120,-120,198948,192919,200963,194931,609168.0,603140.0,611184.0,605153.0,41
4,0,0,0,1,32,test,1,1,z,Tue Aug 13 2024 14:38:41 GMT-0500 (Central Daylight Time),624096.200000003,O,z,1144,42,1,12.bmp,-120,-120,13.bmp,120,-120,14.bmp,-120,120,15.bmp,120,120,9193.70000000298,614902.5,7015,yes,SM,B,15.bmp,120,120,198948,192919,200963,194931,617999.0,611971.0,620015.0,613983.0,42
1,1,0,0,0,33,test,1,1,z,Tue Aug 13 2024 14:38:41 GMT-0500 (Central Daylight Time),633059.799999997,O,z,915,43,1,16.bmp,-120,-120,17.bmp,120,-120,18.bmp,-120,120,19.bmp,120,120,8960.69999999553,624099.1000000015,7015,yes,SM,B,16.bmp,-120,-120,198948,192919,200963,194931,627195.0,621167.0,629212.0,623180.0,43
4,0,0,0,1,34,test,1,1,m,Tue Aug 13 2024 14:38:41 GMT-0500 (Central Daylight Time),642456.799999997,O,m,1343,44,1,4.bmp,-120,-120,1.bmp,120,-120,2.bmp,-120,120,3.bmp,120,120,9394.5,633062.299999997,7015,yes,SM,B,4.bmp,120,120,198948,192919,200963,194931,636160.0,630131.0,638175.0,632144.0,44
1,1,0,0,0,35,test,1,1,m,Tue Aug 13 2024 14:38:41 GMT-0500 (Central Daylight Time),651920.5,O,m,1409,45,1,28.bmp,-120,-120,29.bmp,120,-120,30.bmp,-120,120,31.bmp,120,120,9460.70000000298,642459.799999997,7015,yes,SM,B,31.bmp,-120,-120,198948,192919,200963,194931,645557.0,639528.0,647573.0,641541.0,45
1,1,0,0,0,36,test,1,1,m,Tue Aug 13 2024 14:38:41 GMT-0500 (Central Daylight Time),661700.700000003,O,m,1738,46,1,20.bmp,-120,-120,21.bmp,120,-120,22.bmp,-120,120,23.bmp,120,120,9777.30000000447,651923.3999999985,7015,yes,SM,B,21.bmp,-120,-120,198948,192919,200963,194931,655006.0,648992.0,657020.0,651005.0,46
3,0,0,1,0,36,test,1,0,z,Tue Aug 13 2024 14:38:41 GMT-0500 (Central Daylight Time),671397.8999999985,O,m,1638,47,1,24.bmp,-120,-120,25.bmp,120,-120,26.bmp,-120,120,27.bmp,120,120,9694.29999999702,661703.6000000015,7015,yes,SM,B,26.bmp,-120,120,198948,192919,200963,194931,664800.0,658772.0,666817.0,660785.0,47
3,0,0,1,0,37,test,1,1,z,Tue Aug 13 2024 14:38:41 GMT-0500 (Central Daylight Time),680528.200000003,O,z,1076,48,1,40.bmp,-120,-120,41.bmp,120,-120,42.bmp,-120,120,43.bmp,120,120,9126.70000000298,671401.5,7015,yes,SM,B,42.bmp,-120,120,198948,192919,200963,194931,674498.0,668470.0,676514.0,670482.0,48
2,0,1,0,0,38,test,1,1,z,Tue Aug 13 2024 14:38:41 GMT-0500 (Central Daylight Time),690092.0,O,z,1506,49,1,36.bmp,-120,-120,37.bmp,120,-120,38.bmp,-120,120,39.bmp,120,120,9560.60000000149,680531.3999999985,7015,yes,SM,B,37.bmp,120,-120,198948,192919,200963,194931,683628.0,677600.0,685644.0,679613.0,49
3,0,0,1,0,39,test,1,1,m,Tue Aug 13 2024 14:38:41 GMT-0500 (Central Daylight Time),699489.1000000015,O,m,1334,50,1,32.bmp,-120,-120,33.bmp,120,-120,34.bmp,-120,120,35.bmp,120,120,9394.20000000298,690094.8999999985,7015,yes,SM,B,32.bmp,-120,120,198948,192919,200963,194931,693191.0,687163.0,695208.0,689176.0,50
2,0,1,0,0,40,test,1,1,z,Tue Aug 13 2024 14:38:41 GMT-0500 (Central Daylight Time),709035.8999999985,O,z,1489,51,1,44.bmp,-120,-120,45.bmp,120,-120,46.bmp,-120,120,47.bmp,120,120,9543.10000000149,699492.799999997,7015,yes,SM,B,45.bmp,120,-120,198948,192919,200963,194931,702589.0,696561.0,704605.0,698573.0,51
4,0,0,0,1,41,test,1,1,m,Tue Aug 13 2024 14:38:41 GMT-0500 (Central Daylight Time),718799.5,O,m,1703,52,1,48.bmp,-120,-120,49.bmp,120,-120,50.bmp,-120,120,31.bmp,120,120,9760.79999999702,709038.700000003,7015,yes,SM,B,48.bmp,120,120,198948,192919,200963,194931,712136.0,706107.0,714152.0,708120.0,52
3,0,0,1,0,41,test,1,0,z,Tue Aug 13 2024 14:38:41 GMT-0500 (Central Daylight Time),728163.5,O,m,1308,53,1,1.bmp,-120,-120,2.bmp,120,-120,3.bmp,-120,120,4.bmp,120,120,9361.0,718802.5,7015,yes,SM,B,3.bmp,-120,120,198948,192919,200963,194931,721899.0,715871.0,723915.0,717884.0,53
1,1,0,0,0,41,test,1,0,m,Tue Aug 13 2024 14:38:41 GMT-0500 (Central Daylight Time),737443.5,O,z,1232,54,1,5.bmp,-120,-120,6.bmp,120,-120,7.bmp,-120,120,8.bmp,120,120,9276.89999999851,728166.6000000015,7015,yes,SM,B,7.bmp,-120,-120,198948,192919,200963,194931,731263.0,725235.0,733279.0,727248.0,54
4,0,0,0,1,42,test,1,1,z,Tue Aug 13 2024 14:38:41 GMT-0500 (Central Daylight Time),747140.6000000015,O,z,1639,55,1,9.bmp,-120,-120,10.bmp,120,-120,11.bmp,-120,120,12.bmp,120,120,9694.39999999851,737446.200000003,7015,yes,SM,B,12.bmp,120,120,198948,192919,200963,194931,740543.0,734514.0,742560.0,736528.0,55
2,0,1,0,0,43,test,1,1,m,Tue Aug 13 2024 14:38:41 GMT-0500 (Central Daylight Time),756504.5,O,m,1326,56,1,13.bmp,-120,-120,14.bmp,120,-120,15.bmp,-120,120,16.bmp,120,120,9356.5,747148.0,7015,yes,SM,B,13.bmp,120,-120,198948,192919,200963,194931,750240.0,744216.0,752241.0,746225.0,56
4,0,0,0,1,43,test,1,0,m,Tue Aug 13 2024 14:38:41 GMT-0500 (Central Daylight Time),766185.0,O,z,1627,57,1,17.bmp,-120,-120,18.bmp,120,-120,19.bmp,-120,120,20.bmp,120,120,9677.60000000149,756507.3999999985,7015,yes,SM,B,18.bmp,120,120,198948,192919,200963,194931,759604.0,753576.0,761620.0,755589.0,57
3,0,0,1,0,44,test,1,1,z,Tue Aug 13 2024 14:38:41 GMT-0500 (Central Daylight Time),775592.700000003,O,z,1218,58,1,21.bmp,-120,-120,22.bmp,120,-120,23.bmp,-120,120,24.bmp,120,120,9405.0,766187.700000003,7015,yes,SM,B,23.bmp,-120,120,198948,192919,200963,194931,769284.0,763256.0,771301.0,765270.0,58
2,0,1,0,0,44,test,1,0,m,Tue Aug 13 2024 14:38:41 GMT-0500 (Central Daylight Time),784712.299999997,O,z,1069,59,1,25.bmp,-120,-120,26.bmp,120,-120,27.bmp,-120,120,28.bmp,120,120,9116.79999999702,775595.5,7015,yes,SM,B,28.bmp,120,-120,198948,192919,200963,194931,778681.0,772664.0,780698.0,774666.0,59
1,1,0,0,0,45,test,1,1,z,Tue Aug 13 2024 14:38:41 GMT-0500 (Central Daylight Time),793942.799999997,O,z,1179,60,1,29.bmp,-120,-120,30.bmp,120,-120,31.bmp,-120,120,32.bmp,120,120,9227.69999999553,784715.1000000015,7015,yes,SM,B,29.bmp,-120,-120,198948,192919,200963,194931,787812.0,781783.0,789828.0,783797.0,60
2,0,1,0,0,45,test,1,0,z,Tue Aug 13 2024 14:38:41 GMT-0500 (Central Daylight Time),804006.1000000015,O,None,2015,61,1,33.bmp,-120,-120,34.bmp,120,-120,35.bmp,-120,120,36.bmp,120,120,10060.5,793945.6000000015,7015,yes,SM,B,34.bmp,120,-120,198948,192919,200963,194931,797042.0,791014.0,799059.0,793027.0,61
4,0,0,0,1,46,test,1,1,z,Tue Aug 13 2024 14:38:41 GMT-0500 (Central Daylight Time),813469.8999999985,O,z,1405,62,1,41.bmp,-120,-120,42.bmp,120,-120,43.bmp,-120,120,44.bmp,120,120,9460.89999999851,804009.0,7015,yes,SM,B,44.bmp,120,120,198948,192919,200963,194931,807106.0,801077.0,809122.0,803090.0,62
1,1,0,0,0,46,test,1,0,m,Tue Aug 13 2024 14:38:41 GMT-0500 (Central Daylight Time),822716.700000003,O,z,1196,63,1,45.bmp,-120,-120,46.bmp,120,-120,47.bmp,-120,120,48.bmp,120,120,9239.80000000447,813476.8999999985,7015,yes,SM,B,45.bmp,-120,120,198948,192919,200963,194931,816569.0,810545.0,818586.0,812554.0,63
2,0,1,0,0,47,test,1,1,z,Tue Aug 13 2024 14:38:41 GMT-0500 (Central Daylight Time),832330.700000003,O,z,1565,64,1,49.bmp,-120,-120,50.bmp,120,-120,12.bmp,-120,120,1.bmp,120,120,9608.70000000298,822722.0,7015,yes,SM,B,50.bmp,120,-120,198948,192919,200963,194931,825817.0,819790.0,827833.0,821801.0,64
4,0,0,0,1,47,test,1,0,m,Tue Aug 13 2024 14:38:41 GMT-0500 (Central Daylight Time),841760.8999999985,O,z,1377,65,1,2.bmp,-120,-120,3.bmp,120,-120,4.bmp,-120,120,5.bmp,120,120,9427.5,832333.3999999985,7015,yes,SM,B,4.bmp,120,120,198948,192919,200963,194931,835430.0,829402.0,837446.0,831415.0,65
3,0,0,1,0,48,test,1,1,m,Tue Aug 13 2024 14:38:41 GMT-0500 (Central Daylight Time),850907.8999999985,O,m,1098,66,1,6.bmp,-120,-120,7.bmp,120,-120,8.bmp,-120,120,9.bmp,120,120,9144.19999999553,841763.700000003,7015,yes,SM,B,9.bmp,-120,120,198948,192919,200963,194931,844861.0,838832.0,846877.0,840845.0,66
2,0,1,0,0,48,test,1,0,m,Tue Aug 13 2024 14:38:41 GMT-0500 (Central Daylight Time),860538.5,O,z,1566,67,1,37.bmp,-120,-120,38.bmp,120,-120,39.bmp,-120,120,40.bmp,120,120,9627.79999999702,850910.700000003,7015,yes,SM,B,39.bmp,120,-120,198948,192919,200963,194931,854008.0,847979.0,856024.0,849993.0,67
3,0,0,1,0,48,test,1,0,z,Tue Aug 13 2024 14:38:41 GMT-0500 (Central Daylight Time),870601.8999999985,O,None,2015,68,1,10.bmp,-120,-120,11.bmp,120,-120,12.bmp,-120,120,13.bmp,120,120,10060.60000000149,860541.299999997,7015,yes,SM,B,12.bmp,-120,120,198948,192919,200963,194931,863640.0,857610.0,865655.0,859623.0,68
1,1,0,0,0,48,test,1,0,m,Tue Aug 13 2024 14:38:41 GMT-0500 (Central Daylight Time),880282.299999997,O,z,1616,69,1,14.bmp,-120,-120,15.bmp,120,-120,16.bmp,-120,120,17.bmp,120,120,9677.39999999851,870604.8999999985,7015,yes,SM,B,15.bmp,-120,-120,198948,192919,200963,194931,873701.0,867673.0,875718.0,869686.0,69
2,0,1,0,0,49,test,1,1,m,Tue Aug 13 2024 14:38:41 GMT-0500 (Central Daylight Time),889829.299999997,O,m,1497,70,1,18.bmp,-120,-120,19.bmp,120,-120,20.bmp,-120,120,21.bmp,120,120,9544.09999999404,880285.200000003,7015,yes,SM,B,20.bmp,120,-120,198948,192919,200963,194931,883382.0,877353.0,885398.0,879367.0,70
4,0,0,0,1,50,test,1,1,z,Tue Aug 13 2024 14:38:41 GMT-0500 (Central Daylight Time),898943.200000003,O,z,1053,71,1,22.bmp,-120,-120,23.bmp,120,-120,24.bmp,-120,120,25.bmp,120,120,9111.20000000298,889832.0,7015,yes,SM,B,25.bmp,120,120,198948,192919,200963,194931,892929.0,886900.0,894945.0,888913.0,71
1,1,0,0,0,51,test,1,1,z,Tue Aug 13 2024 14:38:41 GMT-0500 (Central Daylight Time),907923.5,O,z,924,72,1,26.bmp,-120,-120,27.bmp,120,-120,28.bmp,-120,120,29.bmp,120,120,8977.60000000149,898945.8999999985,7015,yes,SM,B,26.bmp,-120,-120,198948,192919,200963,194931,902043.0,896014.0,904059.0,898027.0,72
2,0,1,0,0,52,test,1,1,z,Tue Aug 13 2024 14:38:41 GMT-0500 (Central Daylight Time),917920.299999997,O,z,1944,73,1,30.bmp,-120,-120,31.bmp,120,-120,32.bmp,-120,120,33.bmp,120,120,9994.09999999404,907926.200000003,7015,yes,SM,B,31.bmp,120,-120,198948,192919,200963,194931,911023.0,904994.0,913039.0,907008.0,73
4,0,0,0,1,53,test,1,1,m,Tue Aug 13 2024 14:38:41 GMT-0500 (Central Daylight Time),927500.700000003,O,m,1522,74,1,34.bmp,-120,-120,35.bmp,120,-120,36.bmp,-120,120,37.bmp,120,120,9577.40000000596,917923.299999997,7015,yes,SM,B,36.bmp,120,120,198948,192919,200963,194931,921020.0,914991.0,923036.0,917005.0,74
2,0,1,0,0,54,test,1,1,m,Tue Aug 13 2024 14:38:41 GMT-0500 (Central Daylight Time),937247.700000003,O,m,1694,75,1,38.bmp,-120,-120,39.bmp,120,-120,40.bmp,-120,120,41.bmp,120,120,9743.60000000149,927504.1000000015,7015,yes,SM,B,41.bmp,120,-120,198948,192919,200963,194931,930601.0,924572.0,932617.0,926585.0,75
1,1,0,0,0,55,test,1,1,z,Tue Aug 13 2024 14:38:41 GMT-0500 (Central Daylight Time),946261.5,O,z,956,76,1,42.bmp,-120,-120,43.bmp,120,-120,44.bmp,-120,120,45.bmp,120,120,9010.79999999702,937250.700000003,7015,yes,SM,B,42.bmp,-120,-120,198948,192919,200963,194931,940347.0,934319.0,942363.0,936332.0,76
3,0,0,1,0,56,test,1,1,z,Tue Aug 13 2024 14:38:41 GMT-0500 (Central Daylight Time),955325.5,O,z,1006,77,1,50.bmp,-120,-120,11.bmp,120,-120,1.bmp,-120,120,2.bmp,120,120,9060.0,946265.5,7015,yes,SM,B,1.bmp,-120,120,198948,192919,200963,194931,949361.0,943334.0,951377.0,945347.0,77
1,1,0,0,0,57,test,1,1,m,Tue Aug 13 2024 14:38:41 GMT-0500 (Central Daylight Time),964539.1000000015,O,m,1166,78,1,46.bmp,-120,-120,47.bmp,120,-120,48.bmp,-120,120,49.bmp,120,120,9210.39999999851,955328.700000003,7015,yes,SM,B,47.bmp,-120,-120,198948,192919,200963,194931,958425.0,952397.0,960441.0,954410.0,78
4,0,0,0,1,58,test,1,1,m,Tue Aug 13 2024 14:38:41 GMT-0500 (Central Daylight Time),973786.6000000015,O,m,1183,79,1,7.bmp,-120,-120,8.bmp,120,-120,9.bmp,-120,120,10.bmp,120,120,9244.10000000149,964542.5,7015,yes,SM,B,7.bmp,120,120,198948,192919,200963,194931,967639.0,961611.0,969655.0,963623.0,79
3,0,0,1,0,59,test,1,1,m,Tue Aug 13 2024 14:38:41 GMT-0500 (Central Daylight Time),983150.0,O,m,1304,80,1,3.bmp,-120,-120,4.bmp,120,-120,5.bmp,-120,120,6.bmp,120,120,9359.79999999702,973790.200000003,7015,yes,SM,B,6.bmp,-120,120,198948,192919,200963,194931,976886.0,970858.0,978902.0,972870.0,80
