block_c,block_dur,condition,countdown,datetime,endtime,list,multichar_response,project,response,response_time,session_number,start_end,starttime,subject_id,task,task_vers,trial
,,,,Fri Dec 05 2025 14:51:14 GMT-0600 (Central Standard Time),,,,O,space,605,1,,,7708,WL,A,
prac,,0,,Fri Dec 05 2025 14:51:14 GMT-0600 (Central Standard Time),,NA,b,O,b,3082,1,,,7708,WL,A,1.0
prac,,0,,Fri Dec 05 2025 14:51:14 GMT-0600 (Central Standard Time),,NA,bo,O,o,180,1,,,7708,WL,A,1.0
prac,,0,,Fri Dec 05 2025 14:51:14 GMT-0600 (Central Standard Time),,NA,boo,O,o,326,1,,,7708,WL,A,1.0
prac,,0,,Fri Dec 05 2025 14:51:14 GMT-0600 (Central Standard Time),,NA,boos,O,s,423,1,,,7708,WL,A,1.0
prac,,0,,Fri Dec 05 2025 14:51:14 GMT-0600 (Central Standard Time),,NA,boost,O,t,167,1,,,7708,WL,A,1.0
prac,,0,,Fri Dec 05 2025 14:51:14 GMT-0600 (Central Standard Time),,NA,boostenter,O,enter,1880,1,,,7708,WL,A,1.0
1,2.132999897003174,learn,57867.000102996826,Fri Dec 05 2025 14:51:14 GMT-0600 (Central Standard Time),159284.79999995232,A,c,O,c,2107,1,2132.7999999523163,157152.0,7708,WL,A,1.0
1,2.4830000400543213,learn,57516.99995994568,Fri Dec 05 2025 14:51:14 GMT-0600 (Central Standard Time),159634.5,A,ci,O,i,308,1,2482.5,157152.0,7708,WL,A,1.0
1,2.7160000801086426,learn,57283.99991989136,Fri Dec 05 2025 14:51:14 GMT-0600 (Central Standard Time),159867.60000002384,A,cim,O,m,188,1,2715.600000023842,157152.0,7708,WL,A,1.0
1,3.2160000801086426,learn,56783.99991989136,Fri Dec 05 2025 14:51:14 GMT-0600 (Central Standard Time),160367.60000002384,A,cimn,O,n,457,1,3215.600000023842,157152.0,7708,WL,A,1.0
1,3.7820000648498535,learn,56217.99993515015,Fri Dec 05 2025 14:51:14 GMT-0600 (Central Standard Time),160933.39999997616,A,cim,O,backspace,521,1,3781.399999976158,157152.0,7708,WL,A,1.0
1,3.9660000801086426,learn,56033.99991989136,Fri Dec 05 2025 14:51:14 GMT-0600 (Central Standard Time),161117.29999995232,A,ci,O,backspace,158,1,3965.2999999523163,157152.0,7708,WL,A,1.0
1,4.148999929428101,learn,55851.0000705719,Fri Dec 05 2025 14:51:14 GMT-0600 (Central Standard Time),161300.70000004768,A,c,O,backspace,150,1,4148.700000047684,157152.0,7708,WL,A,1.0
1,4.348999977111816,learn,55651.00002288818,Fri Dec 05 2025 14:51:14 GMT-0600 (Central Standard Time),161500.20000004768,A,,O,backspace,161,1,4348.200000047684,157152.0,7708,WL,A,1.0
1,5.0980000495910645,learn,54901.999950408936,Fri Dec 05 2025 14:51:14 GMT-0600 (Central Standard Time),162249.60000002384,A,c,O,c,723,1,5097.600000023842,157152.0,7708,WL,A,1.0
1,5.2809998989105225,learn,54719.00010108948,Fri Dec 05 2025 14:51:14 GMT-0600 (Central Standard Time),162432.79999995232,A,ch,O,h,162,1,5280.799999952316,157152.0,7708,WL,A,1.0
1,5.447999954223633,learn,54552.00004577637,Fri Dec 05 2025 14:51:14 GMT-0600 (Central Standard Time),162599.20000004768,A,chi,O,i,136,1,5447.200000047684,157152.0,7708,WL,A,1.0
1,5.697999954223633,learn,54302.00004577637,Fri Dec 05 2025 14:51:14 GMT-0600 (Central Standard Time),162850.0,A,chim,O,m,226,1,5698.0,157152.0,7708,WL,A,1.0
1,6.0309998989105225,learn,53969.00010108948,Fri Dec 05 2025 14:51:14 GMT-0600 (Central Standard Time),163182.70000004768,A,chiml,O,l,300,1,6030.700000047684,157152.0,7708,WL,A,1.0
1,6.38100004196167,learn,53618.99995803833,Fri Dec 05 2025 14:51:14 GMT-0600 (Central Standard Time),163532.20000004768,A,chim,O,backspace,326,1,6380.200000047684,157152.0,7708,WL,A,1.0
1,6.664999961853027,learn,53335.00003814697,Fri Dec 05 2025 14:51:14 GMT-0600 (Central Standard Time),163816.29999995232,A,chimn,O,n,267,1,6664.299999952316,157152.0,7708,WL,A,1.0
1,6.88100004196167,learn,53118.99995803833,Fri Dec 05 2025 14:51:14 GMT-0600 (Central Standard Time),164032.5,A,chimne,O,e,179,1,6880.5,157152.0,7708,WL,A,1.0
1,7.065000057220459,learn,52934.99994277954,Fri Dec 05 2025 14:51:14 GMT-0600 (Central Standard Time),164216.29999995232,A,chimney,O,y,157,1,7064.299999952316,157152.0,7708,WL,A,1.0
1,7.879999876022339,learn,52120.00012397766,Fri Dec 05 2025 14:51:14 GMT-0600 (Central Standard Time),165031.70000004768,A,chimneyenter,O,enter,782,1,7879.700000047684,157152.0,7708,WL,A,1.0
1,10.763000011444092,learn,49236.99998855591,Fri Dec 05 2025 14:51:14 GMT-0600 (Central Standard Time),167914.89999997616,A,r,O,r,2869,1,2882.7999999523163,165032.10000002384,7708,WL,A,2.0
1,10.912999868392944,learn,49087.000131607056,Fri Dec 05 2025 14:51:14 GMT-0600 (Central Standard Time),168065.0,A,ru,O,u,119,1,3032.899999976158,165032.10000002384,7708,WL,A,2.0
1,11.180000066757202,learn,48819.9999332428,Fri Dec 05 2025 14:51:14 GMT-0600 (Central Standard Time),168331.70000004768,A,rug,O,g,231,1,3299.600000023842,165032.10000002384,7708,WL,A,2.0
1,11.69599986076355,learn,48304.00013923645,Fri Dec 05 2025 14:51:14 GMT-0600 (Central Standard Time),168847.10000002384,A,rugenter,O,enter,475,1,3815.0,165032.10000002384,7708,WL,A,2.0
1,12.345999956130981,learn,47654.00004386902,Fri Dec 05 2025 14:51:14 GMT-0600 (Central Standard Time),169497.5,A,g,O,g,636,1,650.1000000238419,168847.39999997616,7708,WL,A,3.0
1,12.478999853134155,learn,47521.000146865845,Fri Dec 05 2025 14:51:14 GMT-0600 (Central Standard Time),169630.10000002384,A,go,O,o,101,1,782.7000000476837,168847.39999997616,7708,WL,A,3.0
1,12.744999885559082,learn,47255.00011444092,Fri Dec 05 2025 14:51:14 GMT-0600 (Central Standard Time),169896.70000004768,A,gol,O,l,247,1,1049.3000000715256,168847.39999997616,7708,WL,A,3.0
1,12.963000059127808,learn,47036.99994087219,Fri Dec 05 2025 14:51:14 GMT-0600 (Central Standard Time),170114.20000004768,A,gold,O,d,201,1,1266.8000000715256,168847.39999997616,7708,WL,A,3.0
1,13.394999980926514,learn,46605.000019073486,Fri Dec 05 2025 14:51:14 GMT-0600 (Central Standard Time),170546.5,A,goldenter,O,enter,391,1,1699.1000000238419,168847.39999997616,7708,WL,A,3.0
1,18.812000036239624,learn,41187.999963760376,Fri Dec 05 2025 14:51:14 GMT-0600 (Central Standard Time),175962.39999997616,A,r,O,r,5394,1,5415.699999928474,170546.70000004768,7708,WL,A,4.0
1,18.960999965667725,learn,41039.000034332275,Fri Dec 05 2025 14:51:14 GMT-0600 (Central Standard Time),176111.70000004768,A,ru,O,u,113,1,5565.0,170546.70000004768,7708,WL,A,4.0
1,19.32800006866455,learn,40671.99993133545,Fri Dec 05 2025 14:51:14 GMT-0600 (Central Standard Time),176479.10000002384,A,rug,O,g,343,1,5932.399999976158,170546.70000004768,7708,WL,A,4.0
1,19.64400005340576,learn,40355.99994659424,Fri Dec 05 2025 14:51:14 GMT-0600 (Central Standard Time),176794.39999997616,A,rugenter,O,enter,279,1,6247.699999928474,170546.70000004768,7708,WL,A,4.0
1,22.47699999809265,learn,37523.00000190735,Fri Dec 05 2025 14:51:14 GMT-0600 (Central Standard Time),179627.5,A,f,O,f,2819,1,2832.7999999523163,176794.70000004768,7708,WL,A,5.0
1,22.55900001525879,learn,37440.99998474121,Fri Dec 05 2025 14:51:14 GMT-0600 (Central Standard Time),179710.10000002384,A,fi,O,i,57,1,2915.399999976158,176794.70000004768,7708,WL,A,5.0
1,22.7260000705719,learn,37273.9999294281,Fri Dec 05 2025 14:51:14 GMT-0600 (Central Standard Time),179877.29999995232,A,fin,O,n,158,1,3082.5999999046326,176794.70000004768,7708,WL,A,5.0
1,23.210000038146973,learn,36789.99996185303,Fri Dec 05 2025 14:51:14 GMT-0600 (Central Standard Time),180360.79999995232,A,fing,O,g,449,1,3566.0999999046326,176794.70000004768,7708,WL,A,5.0
1,23.425999879837036,learn,36574.000120162964,Fri Dec 05 2025 14:51:14 GMT-0600 (Central Standard Time),180577.20000004768,A,finge,O,e,182,1,3782.5,176794.70000004768,7708,WL,A,5.0
1,23.55999994277954,learn,36440.00005722046,Fri Dec 05 2025 14:51:14 GMT-0600 (Central Standard Time),180710.70000004768,A,finger,O,r,96,1,3916.0,176794.70000004768,7708,WL,A,5.0
1,23.858999967575073,learn,36141.00003242493,Fri Dec 05 2025 14:51:14 GMT-0600 (Central Standard Time),181009.70000004768,A,fingerenter,O,enter,258,1,4215.0,176794.70000004768,7708,WL,A,5.0
1,27.191999912261963,learn,32808.00008773804,Fri Dec 05 2025 14:51:14 GMT-0600 (Central Standard Time),184342.5,A,f,O,f,3322,1,3332.5,181010.0,7708,WL,A,6.0
1,27.307999849319458,learn,32692.000150680542,Fri Dec 05 2025 14:51:14 GMT-0600 (Central Standard Time),184459.29999995232,A,fl,O,l,93,1,3449.2999999523163,181010.0,7708,WL,A,6.0
1,27.524999856948853,learn,32475.000143051147,Fri Dec 05 2025 14:51:14 GMT-0600 (Central Standard Time),184675.60000002384,A,flo,O,o,193,1,3665.600000023842,181010.0,7708,WL,A,6.0
1,27.674999952316284,learn,32325.000047683716,Fri Dec 05 2025 14:51:14 GMT-0600 (Central Standard Time),184826.20000004768,A,flow,O,w,122,1,3816.2000000476837,181010.0,7708,WL,A,6.0
1,27.807999849319458,learn,32192.000150680542,Fri Dec 05 2025 14:51:14 GMT-0600 (Central Standard Time),184959.20000004768,A,flowe,O,e,105,1,3949.2000000476837,181010.0,7708,WL,A,6.0
1,28.007999897003174,learn,31992.000102996826,Fri Dec 05 2025 14:51:14 GMT-0600 (Central Standard Time),185159.20000004768,A,flower,O,r,164,1,4149.200000047684,181010.0,7708,WL,A,6.0
1,28.341000080108643,learn,31658.999919891357,Fri Dec 05 2025 14:51:14 GMT-0600 (Central Standard Time),185491.70000004768,A,flowerenter,O,enter,299,1,4481.700000047684,181010.0,7708,WL,A,6.0
1,60.014999866485596,learn,-14.999866485595703,Fri Dec 05 2025 14:51:14 GMT-0600 (Central Standard Time),217165.60000002384,A,None,O,None,31667,1,31673.600000023842,185492.0,7708,WL,A,7.0
2,2.382999897003174,learn,57617.000102996826,Fri Dec 05 2025 14:51:14 GMT-0600 (Central Standard Time),304420.2000000477,A,c,O,c,2351,1,2382.2000000476837,302038.0,7708,WL,A,1.0
2,2.5320000648498535,learn,57467.99993515015,Fri Dec 05 2025 14:51:14 GMT-0600 (Central Standard Time),304569.7999999523,A,ci,O,i,111,1,2531.7999999523163,302038.0,7708,WL,A,1.0
2,2.7990000247955322,learn,57200.99997520447,Fri Dec 05 2025 14:51:14 GMT-0600 (Central Standard Time),304836.7999999523,A,cim,O,m,243,1,2798.7999999523163,302038.0,7708,WL,A,1.0
2,3.4819998741149902,learn,56518.00012588501,Fri Dec 05 2025 14:51:14 GMT-0600 (Central Standard Time),305518.89999997616,A,ci,O,backspace,646,1,3480.899999976158,302038.0,7708,WL,A,1.0
2,3.7149999141693115,learn,56285.00008583069,Fri Dec 05 2025 14:51:14 GMT-0600 (Central Standard Time),305752.2999999523,A,c,O,backspace,212,1,3714.2999999523163,302038.0,7708,WL,A,1.0
2,4.4649999141693115,learn,55535.00008583069,Fri Dec 05 2025 14:51:14 GMT-0600 (Central Standard Time),306502.7000000477,A,ch,O,h,741,1,4464.700000047684,302038.0,7708,WL,A,1.0
2,4.615000009536743,learn,55384.99999046326,Fri Dec 05 2025 14:51:14 GMT-0600 (Central Standard Time),306652.2000000477,A,chi,O,i,116,1,4614.200000047684,302038.0,7708,WL,A,1.0
2,4.832000017166138,learn,55167.99998283386,Fri Dec 05 2025 14:51:14 GMT-0600 (Central Standard Time),306869.2000000477,A,chim,O,m,202,1,4831.200000047684,302038.0,7708,WL,A,1.0
2,5.098999977111816,learn,54901.00002288818,Fri Dec 05 2025 14:51:14 GMT-0600 (Central Standard Time),307136.0,A,chimn,O,n,237,1,5098.0,302038.0,7708,WL,A,1.0
2,5.264999866485596,learn,54735.000133514404,Fri Dec 05 2025 14:51:14 GMT-0600 (Central Standard Time),307302.5,A,chimne,O,e,137,1,5264.5,302038.0,7708,WL,A,1.0
2,5.499000072479248,learn,54500.99992752075,Fri Dec 05 2025 14:51:14 GMT-0600 (Central Standard Time),307536.2000000477,A,chimney,O,y,207,1,5498.200000047684,302038.0,7708,WL,A,1.0
2,6.164000034332275,learn,53835.999965667725,Fri Dec 05 2025 14:51:14 GMT-0600 (Central Standard Time),308201.39999997616,A,chimneyenter,O,enter,624,1,6163.399999976158,302038.0,7708,WL,A,1.0
2,6.680999994277954,learn,53319.000005722046,Fri Dec 05 2025 14:51:14 GMT-0600 (Central Standard Time),308718.7000000477,A,k,O,k,508,1,517.1000000238419,308201.60000002384,7708,WL,A,2.0
2,6.832000017166138,learn,53167.99998283386,Fri Dec 05 2025 14:51:14 GMT-0600 (Central Standard Time),308869.0,A,ke,O,e,115,1,667.3999999761581,308201.60000002384,7708,WL,A,2.0
2,7.0980000495910645,learn,52901.999950408936,Fri Dec 05 2025 14:51:14 GMT-0600 (Central Standard Time),309135.39999997616,A,key,O,y,237,1,933.7999999523163,308201.60000002384,7708,WL,A,2.0
2,7.513999938964844,learn,52486.000061035156,Fri Dec 05 2025 14:51:14 GMT-0600 (Central Standard Time),309550.89999997616,A,keyenter,O,enter,381,1,1349.2999999523163,308201.60000002384,7708,WL,A,2.0
2,7.88100004196167,learn,52118.99995803833,Fri Dec 05 2025 14:51:14 GMT-0600 (Central Standard Time),309918.5,A,r,O,r,359,1,367.2999999523163,309551.2000000477,7708,WL,A,3.0
2,8.080999851226807,learn,51919.00014877319,Fri Dec 05 2025 14:51:14 GMT-0600 (Central Standard Time),310118.2000000477,A,ra,O,a,165,1,567.0,309551.2000000477,7708,WL,A,3.0
2,8.313999891281128,learn,51686.00010871887,Fri Dec 05 2025 14:51:14 GMT-0600 (Central Standard Time),310351.5,A,rat,O,t,206,1,800.2999999523163,309551.2000000477,7708,WL,A,3.0
2,8.598000049591064,learn,51401.999950408936,Fri Dec 05 2025 14:51:14 GMT-0600 (Central Standard Time),310635.0,A,ratt,O,t,259,1,1083.7999999523163,309551.2000000477,7708,WL,A,3.0
2,8.813999891281128,learn,51186.00010871887,Fri Dec 05 2025 14:51:14 GMT-0600 (Central Standard Time),310851.7000000477,A,rattl,O,l,175,1,1300.5,309551.2000000477,7708,WL,A,3.0
2,9.013999938964844,learn,50986.000061035156,Fri Dec 05 2025 14:51:14 GMT-0600 (Central Standard Time),311051.2999999523,A,rattle,O,e,166,1,1500.0999999046326,309551.2000000477,7708,WL,A,3.0
2,9.52999997138977,learn,50470.00002861023,Fri Dec 05 2025 14:51:14 GMT-0600 (Central Standard Time),311566.89999997616,A,rattleenter,O,enter,489,1,2015.6999999284744,309551.2000000477,7708,WL,A,3.0
2,10.096999883651733,learn,49903.00011634827,Fri Dec 05 2025 14:51:14 GMT-0600 (Central Standard Time),312133.89999997616,A,k,O,k,560,1,566.6999999284744,311567.2000000477,7708,WL,A,4.0
2,10.230000019073486,learn,49769.999980926514,Fri Dec 05 2025 14:51:14 GMT-0600 (Central Standard Time),312267.0,A,ke,O,e,103,1,699.7999999523163,311567.2000000477,7708,WL,A,4.0
2,10.54699993133545,learn,49453.00006866455,Fri Dec 05 2025 14:51:14 GMT-0600 (Central Standard Time),312584.10000002384,A,key,O,y,292,1,1016.8999999761581,311567.2000000477,7708,WL,A,4.0
2,11.078999996185303,learn,48921.0000038147,Fri Dec 05 2025 14:51:14 GMT-0600 (Central Standard Time),313116.2999999523,A,keyenter,O,enter,505,1,1549.0999999046326,311567.2000000477,7708,WL,A,4.0
2,12.296000003814697,learn,47703.9999961853,Fri Dec 05 2025 14:51:14 GMT-0600 (Central Standard Time),314333.2000000477,A,f,O,f,1210,1,1216.6000000238419,313116.60000002384,7708,WL,A,5.0
2,12.463000059127808,learn,47536.99994087219,Fri Dec 05 2025 14:51:14 GMT-0600 (Central Standard Time),314500.0,A,fl,O,l,133,1,1383.3999999761581,313116.60000002384,7708,WL,A,5.0
2,12.662999868392944,learn,47337.000131607056,Fri Dec 05 2025 14:51:14 GMT-0600 (Central Standard Time),314700.2000000477,A,flo,O,o,177,1,1583.6000000238419,313116.60000002384,7708,WL,A,5.0
2,12.812000036239624,learn,47187.999963760376,Fri Dec 05 2025 14:51:14 GMT-0600 (Central Standard Time),314849.2000000477,A,flow,O,w,110,1,1732.6000000238419,313116.60000002384,7708,WL,A,5.0
2,12.996000051498413,learn,47003.99994850159,Fri Dec 05 2025 14:51:14 GMT-0600 (Central Standard Time),315033.60000002384,A,flowe,O,e,158,1,1917.0,313116.60000002384,7708,WL,A,5.0
2,13.19599986076355,learn,46804.00013923645,Fri Dec 05 2025 14:51:14 GMT-0600 (Central Standard Time),315233.39999997616,A,flower,O,r,160,1,2116.7999999523163,313116.60000002384,7708,WL,A,5.0
2,13.944999933242798,learn,46055.0000667572,Fri Dec 05 2025 14:51:14 GMT-0600 (Central Standard Time),315982.0,A,flowerenter,O,enter,718,1,2865.399999976158,313116.60000002384,7708,WL,A,5.0
2,14.84500002861023,learn,45154.99997138977,Fri Dec 05 2025 14:51:14 GMT-0600 (Central Standard Time),316882.60000002384,A,b,O,b,887,1,900.2000000476837,315982.39999997616,7708,WL,A,6.0
2,15.044999837875366,learn,44955.000162124634,Fri Dec 05 2025 14:51:14 GMT-0600 (Central Standard Time),317082.5,A,bo,O,o,167,1,1100.1000000238419,315982.39999997616,7708,WL,A,6.0
2,15.228999853134155,learn,44771.000146865845,Fri Dec 05 2025 14:51:14 GMT-0600 (Central Standard Time),317266.39999997616,A,boo,O,o,156,1,1284.0,315982.39999997616,7708,WL,A,6.0
2,15.494999885559082,learn,44505.00011444092,Fri Dec 05 2025 14:51:14 GMT-0600 (Central Standard Time),317532.5,A,book,O,k,246,1,1550.1000000238419,315982.39999997616,7708,WL,A,6.0
2,16.626999855041504,learn,43373.000144958496,Fri Dec 05 2025 14:51:14 GMT-0600 (Central Standard Time),318664.60000002384,A,bookenter,O,enter,1104,1,2682.2000000476837,315982.39999997616,7708,WL,A,6.0
2,21.192999839782715,learn,38807.000160217285,Fri Dec 05 2025 14:51:14 GMT-0600 (Central Standard Time),323229.89999997616,A,a,O,a,4557,1,4565.0,318664.89999997616,7708,WL,A,7.0
2,21.491999864578247,learn,38508.00013542175,Fri Dec 05 2025 14:51:14 GMT-0600 (Central Standard Time),323529.60000002384,A,ap,O,p,275,1,4864.700000047684,318664.89999997616,7708,WL,A,7.0
2,21.743000030517578,learn,38256.99996948242,Fri Dec 05 2025 14:51:14 GMT-0600 (Central Standard Time),323780.2999999523,A,app,O,p,235,1,5115.399999976158,318664.89999997616,7708,WL,A,7.0
2,21.993000030517578,learn,38006.99996948242,Fri Dec 05 2025 14:51:14 GMT-0600 (Central Standard Time),324030.5,A,appl,O,l,232,1,5365.600000023842,318664.89999997616,7708,WL,A,7.0
2,22.14400005340576,learn,37855.99994659424,Fri Dec 05 2025 14:51:14 GMT-0600 (Central Standard Time),324181.7000000477,A,apple,O,e,136,1,5516.800000071526,318664.89999997616,7708,WL,A,7.0
2,22.424999952316284,learn,37575.000047683716,Fri Dec 05 2025 14:51:14 GMT-0600 (Central Standard Time),324462.7999999523,A,appleenter,O,enter,252,1,5797.899999976158,318664.89999997616,7708,WL,A,7.0
2,26.924999952316284,learn,33075.000047683716,Fri Dec 05 2025 14:51:14 GMT-0600 (Central Standard Time),328962.39999997616,A,r,O,r,4487,1,4499.399999976158,324463.0,7708,WL,A,8.0
2,27.073999881744385,learn,32926.000118255615,Fri Dec 05 2025 14:51:14 GMT-0600 (Central Standard Time),329111.2999999523,A,ru,O,u,119,1,4648.299999952316,324463.0,7708,WL,A,8.0
2,27.323999881744385,learn,32676.000118255615,Fri Dec 05 2025 14:51:14 GMT-0600 (Central Standard Time),329361.7999999523,A,rug,O,g,224,1,4898.799999952316,324463.0,7708,WL,A,8.0
2,27.573999881744385,learn,32426.000118255615,Fri Dec 05 2025 14:51:14 GMT-0600 (Central Standard Time),329611.0,A,rugenter,O,enter,229,1,5148.0,324463.0,7708,WL,A,8.0
2,34.40599989891052,learn,25594.000101089478,Fri Dec 05 2025 14:51:14 GMT-0600 (Central Standard Time),336442.89999997616,A,g,O,g,6811,1,6831.699999928474,329611.2000000477,7708,WL,A,9.0
2,34.5550000667572,learn,25444.999933242798,Fri Dec 05 2025 14:51:14 GMT-0600 (Central Standard Time),336592.7000000477,A,go,O,o,118,1,6981.5,329611.2000000477,7708,WL,A,9.0
2,34.83899998664856,learn,25161.00001335144,Fri Dec 05 2025 14:51:14 GMT-0600 (Central Standard Time),336876.39999997616,A,gol,O,l,267,1,7265.199999928474,329611.2000000477,7708,WL,A,9.0
2,35.105000019073486,learn,24894.999980926514,Fri Dec 05 2025 14:51:14 GMT-0600 (Central Standard Time),337142.60000002384,A,gold,O,d,239,1,7531.399999976158,329611.2000000477,7708,WL,A,9.0
2,35.40499997138977,learn,24595.00002861023,Fri Dec 05 2025 14:51:14 GMT-0600 (Central Standard Time),337442.5,A,goldenter,O,enter,267,1,7831.299999952316,329611.2000000477,7708,WL,A,9.0
2,60.014999866485596,learn,-14.999866485595703,Fri Dec 05 2025 14:51:14 GMT-0600 (Central Standard Time),362051.2999999523,A,None,O,None,24602,1,24608.5,337442.7999999523,7708,WL,A,10.0
3,0.748999834060669,learn,59251.00016593933,Fri Dec 05 2025 14:51:14 GMT-0600 (Central Standard Time),429712.2999999523,A,t,O,t,720,1,749.1999999284744,428963.10000002384,7708,WL,A,1.0
3,0.9819998741149902,learn,59018.00012588501,Fri Dec 05 2025 14:51:14 GMT-0600 (Central Standard Time),429944.7999999523,A,tr,O,r,198,1,981.6999999284744,428963.10000002384,7708,WL,A,1.0
3,1.1659998893737793,learn,58834.00011062622,Fri Dec 05 2025 14:51:14 GMT-0600 (Central Standard Time),430128.7999999523,A,tra,O,a,168,1,1165.6999999284744,428963.10000002384,7708,WL,A,1.0
3,1.315999984741211,learn,58684.00001525879,Fri Dec 05 2025 14:51:14 GMT-0600 (Central Standard Time),430278.7000000477,A,trai,O,i,114,1,1315.6000000238419,428963.10000002384,7708,WL,A,1.0
3,1.5159997940063477,learn,58484.00020599365,Fri Dec 05 2025 14:51:14 GMT-0600 (Central Standard Time),430479.0,A,train,O,n,178,1,1515.8999999761581,428963.10000002384,7708,WL,A,1.0
3,2.7990000247955322,learn,57200.99997520447,Fri Dec 05 2025 14:51:14 GMT-0600 (Central Standard Time),431762.39999997616,A,trainenter,O,enter,1243,1,2799.2999999523163,428963.10000002384,7708,WL,A,1.0
3,3.498999834060669,learn,56501.00016593933,Fri Dec 05 2025 14:51:14 GMT-0600 (Central Standard Time),432461.7000000477,A,m,O,m,684,1,699.0,431762.7000000477,7708,WL,A,2.0
3,3.748999834060669,learn,56251.00016593933,Fri Dec 05 2025 14:51:14 GMT-0600 (Central Standard Time),432711.5,A,me,O,e,213,1,948.7999999523163,431762.7000000477,7708,WL,A,2.0
3,4.115000009536743,learn,55884.99999046326,Fri Dec 05 2025 14:51:14 GMT-0600 (Central Standard Time),433077.7999999523,A,met,O,t,339,1,1315.0999999046326,431762.7000000477,7708,WL,A,2.0
3,4.347999811172485,learn,55652.000188827515,Fri Dec 05 2025 14:51:14 GMT-0600 (Central Standard Time),433310.7000000477,A,meta,O,a,204,1,1548.0,431762.7000000477,7708,WL,A,2.0
3,4.5309998989105225,learn,55469.00010108948,Fri Dec 05 2025 14:51:14 GMT-0600 (Central Standard Time),433494.2000000477,A,metal,O,l,161,1,1731.5,431762.7000000477,7708,WL,A,2.0
3,4.914999961853027,learn,55085.00003814697,Fri Dec 05 2025 14:51:14 GMT-0600 (Central Standard Time),433877.7999999523,A,metalenter,O,enter,349,1,2115.0999999046326,431762.7000000477,7708,WL,A,2.0
3,5.281999826431274,learn,54718.000173568726,Fri Dec 05 2025 14:51:14 GMT-0600 (Central Standard Time),434244.7000000477,A,h,O,h,360,1,366.60000002384186,433878.10000002384,7708,WL,A,3.0
3,5.4649999141693115,learn,54535.00008583069,Fri Dec 05 2025 14:51:14 GMT-0600 (Central Standard Time),434427.7000000477,A,ha,O,a,142,1,549.6000000238419,433878.10000002384,7708,WL,A,3.0
3,5.630999803543091,learn,54369.00019645691,Fri Dec 05 2025 14:51:14 GMT-0600 (Central Standard Time),434593.7000000477,A,har,O,r,127,1,715.6000000238419,433878.10000002384,7708,WL,A,3.0
3,5.913999795913696,learn,54086.000204086304,Fri Dec 05 2025 14:51:14 GMT-0600 (Central Standard Time),434877.10000002384,A,harp,O,p,266,1,999.0,433878.10000002384,7708,WL,A,3.0
3,6.379999876022339,learn,53620.00012397766,Fri Dec 05 2025 14:51:14 GMT-0600 (Central Standard Time),435343.0,A,harpenter,O,enter,429,1,1464.8999999761581,433878.10000002384,7708,WL,A,3.0
3,6.797999858856201,learn,53202.0001411438,Fri Dec 05 2025 14:51:14 GMT-0600 (Central Standard Time),435760.7999999523,A,s,O,s,399,1,417.5,435343.2999999523,7708,WL,A,4.0
3,6.980999946594238,learn,53019.00005340576,Fri Dec 05 2025 14:51:14 GMT-0600 (Central Standard Time),435944.10000002384,A,sa,O,a,146,1,600.8000000715256,435343.2999999523,7708,WL,A,4.0
3,7.21399998664856,learn,52786.00001335144,Fri Dec 05 2025 14:51:14 GMT-0600 (Central Standard Time),436177.39999997616,A,sal,O,l,203,1,834.1000000238419,435343.2999999523,7708,WL,A,4.0
3,7.513999938964844,learn,52486.000061035156,Fri Dec 05 2025 14:51:14 GMT-0600 (Central Standard Time),436476.7999999523,A,salt,O,t,274,1,1133.5,435343.2999999523,7708,WL,A,4.0
3,8.062999963760376,learn,51937.000036239624,Fri Dec 05 2025 14:51:14 GMT-0600 (Central Standard Time),437025.60000002384,A,saltenter,O,enter,518,1,1682.3000000715256,435343.2999999523,7708,WL,A,4.0
3,8.396999835968018,learn,51603.00016403198,Fri Dec 05 2025 14:51:14 GMT-0600 (Central Standard Time),437360.2000000477,A,l,O,l,323,1,334.2000000476837,437026.0,7708,WL,A,5.0
3,8.629999876022339,learn,51370.00012397766,Fri Dec 05 2025 14:51:14 GMT-0600 (Central Standard Time),437593.10000002384,A,lo,O,o,203,1,567.1000000238419,437026.0,7708,WL,A,5.0
3,8.88099980354309,learn,51119.00019645691,Fri Dec 05 2025 14:51:14 GMT-0600 (Central Standard Time),437843.5,A,log,O,g,221,1,817.5,437026.0,7708,WL,A,5.0
3,9.461999893188477,learn,50538.00010681152,Fri Dec 05 2025 14:51:14 GMT-0600 (Central Standard Time),438425.2000000477,A,logenter,O,enter,544,1,1399.2000000476837,437026.0,7708,WL,A,5.0
3,9.812999963760376,learn,50187.000036239624,Fri Dec 05 2025 14:51:14 GMT-0600 (Central Standard Time),438775.89999997616,A,c,O,c,333,1,350.39999997615814,438425.5,7708,WL,A,6.0
3,9.912999868392944,learn,50087.000131607056,Fri Dec 05 2025 14:51:14 GMT-0600 (Central Standard Time),438876.0,A,ch,O,h,67,1,450.5,438425.5,7708,WL,A,6.0
3,10.19599986076355,learn,49804.00013923645,Fri Dec 05 2025 14:51:14 GMT-0600 (Central Standard Time),439159.2999999523,A,chi,O,i,249,1,733.7999999523163,438425.5,7708,WL,A,6.0
3,10.396999835968018,learn,49603.00016403198,Fri Dec 05 2025 14:51:14 GMT-0600 (Central Standard Time),439359.7000000477,A,chim,O,m,164,1,934.2000000476837,438425.5,7708,WL,A,6.0
3,10.86299991607666,learn,49137.00008392334,Fri Dec 05 2025 14:51:14 GMT-0600 (Central Standard Time),439826.0,A,chimn,O,n,437,1,1400.5,438425.5,7708,WL,A,6.0
3,11.078999996185303,learn,48921.0000038147,Fri Dec 05 2025 14:51:14 GMT-0600 (Central Standard Time),440041.7000000477,A,chimne,O,e,184,1,1616.2000000476837,438425.5,7708,WL,A,6.0
3,11.328999996185303,learn,48671.0000038147,Fri Dec 05 2025 14:51:14 GMT-0600 (Central Standard Time),440292.2999999523,A,chimney,O,y,233,1,1866.7999999523163,438425.5,7708,WL,A,6.0
3,13.144999980926514,learn,46855.000019073486,Fri Dec 05 2025 14:51:14 GMT-0600 (Central Standard Time),442107.5,A,chimneyenter,O,enter,1776,1,3682.0,438425.5,7708,WL,A,6.0
3,14.744999885559082,learn,45255.00011444092,Fri Dec 05 2025 14:51:14 GMT-0600 (Central Standard Time),443708.0,A,r,O,r,1579,1,1600.2999999523163,442107.7000000477,7708,WL,A,7.0
3,14.911999940872192,learn,45088.00005912781,Fri Dec 05 2025 14:51:14 GMT-0600 (Central Standard Time),443874.5,A,ra,O,a,136,1,1766.7999999523163,442107.7000000477,7708,WL,A,7.0
3,15.16100001335144,learn,44838.99998664856,Fri Dec 05 2025 14:51:14 GMT-0600 (Central Standard Time),444124.2000000477,A,rat,O,t,215,1,2016.5,442107.7000000477,7708,WL,A,7.0
3,15.327999830245972,learn,44672.00016975403,Fri Dec 05 2025 14:51:14 GMT-0600 (Central Standard Time),444290.7000000477,A,ratt,O,t,135,1,2183.0,442107.7000000477,7708,WL,A,7.0
3,15.644999980926514,learn,44355.000019073486,Fri Dec 05 2025 14:51:14 GMT-0600 (Central Standard Time),444607.7000000477,A,rattl,O,l,280,1,2500.0,442107.7000000477,7708,WL,A,7.0
3,15.810999870300293,learn,44189.00012969971,Fri Dec 05 2025 14:51:14 GMT-0600 (Central Standard Time),444773.7000000477,A,rattle,O,e,132,1,2666.0,442107.7000000477,7708,WL,A,7.0
3,16.16100001335144,learn,43838.99998664856,Fri Dec 05 2025 14:51:14 GMT-0600 (Central Standard Time),445123.89999997616,A,rattleenter,O,enter,336,1,3016.1999999284744,442107.7000000477,7708,WL,A,7.0
3,16.42799997329712,learn,43572.00002670288,Fri Dec 05 2025 14:51:14 GMT-0600 (Central Standard Time),445390.60000002384,A,g,O,g,258,1,266.5,445124.10000002384,7708,WL,A,8.0
3,16.64299988746643,learn,43357.00011253357,Fri Dec 05 2025 14:51:14 GMT-0600 (Central Standard Time),445606.39999997616,A,go,O,o,182,1,482.2999999523163,445124.10000002384,7708,WL,A,8.0
3,16.876999855041504,learn,43123.000144958496,Fri Dec 05 2025 14:51:14 GMT-0600 (Central Standard Time),445840.0,A,gol,O,l,213,1,715.8999999761581,445124.10000002384,7708,WL,A,8.0
3,17.0939998626709,learn,42906.0001373291,Fri Dec 05 2025 14:51:14 GMT-0600 (Central Standard Time),446056.89999997616,A,gold,O,d,187,1,932.7999999523163,445124.10000002384,7708,WL,A,8.0
3,17.411999940872192,learn,42588.00005912781,Fri Dec 05 2025 14:51:14 GMT-0600 (Central Standard Time),446374.39999997616,A,goldenter,O,enter,294,1,1250.2999999523163,445124.10000002384,7708,WL,A,8.0
3,18.65999984741211,learn,41340.00015258789,Fri Dec 05 2025 14:51:14 GMT-0600 (Central Standard Time),447623.10000002384,A,f,O,f,1232,1,1248.3999999761581,446374.7000000477,7708,WL,A,9.0
3,18.792999982833862,learn,41207.00001716614,Fri Dec 05 2025 14:51:14 GMT-0600 (Central Standard Time),447755.89999997616,A,fi,O,i,108,1,1381.1999999284744,446374.7000000477,7708,WL,A,9.0
3,19.009999990463257,learn,40990.00000953674,Fri Dec 05 2025 14:51:14 GMT-0600 (Central Standard Time),447973.2999999523,A,fin,O,n,192,1,1598.5999999046326,446374.7000000477,7708,WL,A,9.0
3,19.276000022888184,learn,40723.99997711182,Fri Dec 05 2025 14:51:14 GMT-0600 (Central Standard Time),448238.89999997616,A,fing,O,g,236,1,1864.1999999284744,446374.7000000477,7708,WL,A,9.0
3,19.542999982833862,learn,40457.00001716614,Fri Dec 05 2025 14:51:14 GMT-0600 (Central Standard Time),448505.39999997616,A,finge,O,e,252,1,2130.6999999284744,446374.7000000477,7708,WL,A,9.0
3,19.64299988746643,learn,40357.00011253357,Fri Dec 05 2025 14:51:14 GMT-0600 (Central Standard Time),448605.5,A,finger,O,r,90,1,2230.7999999523163,446374.7000000477,7708,WL,A,9.0
3,19.858999967575073,learn,40141.00003242493,Fri Dec 05 2025 14:51:14 GMT-0600 (Central Standard Time),448821.89999997616,A,fingerenter,O,enter,200,1,2447.1999999284744,446374.7000000477,7708,WL,A,9.0
3,20.259999990463257,learn,39740.00000953674,Fri Dec 05 2025 14:51:14 GMT-0600 (Central Standard Time),449223.10000002384,A,f,O,f,385,1,401.0,448822.10000002384,7708,WL,A,10.0
3,20.425999879837036,learn,39574.000120162964,Fri Dec 05 2025 14:51:14 GMT-0600 (Central Standard Time),449389.39999997616,A,fl,O,l,133,1,567.2999999523163,448822.10000002384,7708,WL,A,10.0
3,20.64299988746643,learn,39357.00011253357,Fri Dec 05 2025 14:51:14 GMT-0600 (Central Standard Time),449605.7999999523,A,flo,O,o,187,1,783.6999999284744,448822.10000002384,7708,WL,A,10.0
3,20.80900001525879,learn,39190.99998474121,Fri Dec 05 2025 14:51:14 GMT-0600 (Central Standard Time),449771.7000000477,A,flow,O,w,141,1,949.6000000238419,448822.10000002384,7708,WL,A,10.0
3,20.908999919891357,learn,39091.00008010864,Fri Dec 05 2025 14:51:14 GMT-0600 (Central Standard Time),449872.10000002384,A,flowe,O,e,80,1,1050.0,448822.10000002384,7708,WL,A,10.0
3,21.14299988746643,learn,38857.00011253357,Fri Dec 05 2025 14:51:14 GMT-0600 (Central Standard Time),450105.7000000477,A,flower,O,r,204,1,1283.6000000238419,448822.10000002384,7708,WL,A,10.0
3,21.674999952316284,learn,38325.000047683716,Fri Dec 05 2025 14:51:14 GMT-0600 (Central Standard Time),450638.0,A,flowerenter,O,enter,500,1,1815.8999999761581,448822.10000002384,7708,WL,A,10.0
3,22.375999927520752,learn,37624.00007247925,Fri Dec 05 2025 14:51:14 GMT-0600 (Central Standard Time),451338.60000002384,A,b,O,b,680,1,700.3000000715256,450638.2999999523,7708,WL,A,11.0
3,22.97499990463257,learn,37025.00009536743,Fri Dec 05 2025 14:51:14 GMT-0600 (Central Standard Time),451937.7000000477,A,bo,O,o,560,1,1299.4000000953674,450638.2999999523,7708,WL,A,11.0
3,23.22599983215332,learn,36774.00016784668,Fri Dec 05 2025 14:51:14 GMT-0600 (Central Standard Time),452188.60000002384,A,boo,O,o,234,1,1550.3000000715256,450638.2999999523,7708,WL,A,11.0
3,23.625,learn,36375.0,Fri Dec 05 2025 14:51:14 GMT-0600 (Central Standard Time),452588.2999999523,A,book,O,k,359,1,1950.0,450638.2999999523,7708,WL,A,11.0
3,24.357999801635742,learn,35642.00019836426,Fri Dec 05 2025 14:51:14 GMT-0600 (Central Standard Time),453320.39999997616,A,bookenter,O,enter,702,1,2682.100000023842,450638.2999999523,7708,WL,A,11.0
3,25.557999849319458,learn,34442.00015068054,Fri Dec 05 2025 14:51:14 GMT-0600 (Central Standard Time),454520.5,A,s,O,s,1188,1,1199.7999999523163,453320.7000000477,7708,WL,A,12.0
3,25.857999801635742,learn,34142.00019836426,Fri Dec 05 2025 14:51:14 GMT-0600 (Central Standard Time),454821.0,A,sa,O,a,285,1,1500.2999999523163,453320.7000000477,7708,WL,A,12.0
3,26.074999809265137,learn,33925.00019073486,Fri Dec 05 2025 14:51:14 GMT-0600 (Central Standard Time),455037.60000002384,A,sal,O,l,181,1,1716.8999999761581,453320.7000000477,7708,WL,A,12.0
3,26.390999794006348,learn,33609.00020599365,Fri Dec 05 2025 14:51:14 GMT-0600 (Central Standard Time),455354.0,A,salt,O,t,279,1,2033.2999999523163,453320.7000000477,7708,WL,A,12.0
3,26.741999864578247,learn,33258.00013542175,Fri Dec 05 2025 14:51:14 GMT-0600 (Central Standard Time),455704.7000000477,A,saltenter,O,enter,315,1,2384.0,453320.7000000477,7708,WL,A,12.0
3,39.436999797821045,learn,20563.000202178955,Fri Dec 05 2025 14:51:14 GMT-0600 (Central Standard Time),468399.60000002384,A,k,O,k,12678,1,12694.700000047684,455704.89999997616,7708,WL,A,13.0
3,39.569000005722046,learn,20430.999994277954,Fri Dec 05 2025 14:51:14 GMT-0600 (Central Standard Time),468532.10000002384,A,ke,O,e,108,1,12827.200000047684,455704.89999997616,7708,WL,A,13.0
3,39.8199999332428,learn,20180.000066757202,Fri Dec 05 2025 14:51:14 GMT-0600 (Central Standard Time),468783.2000000477,A,key,O,y,226,1,13078.300000071526,455704.89999997616,7708,WL,A,13.0
3,40.168999910354614,learn,19831.000089645386,Fri Dec 05 2025 14:51:14 GMT-0600 (Central Standard Time),469132.2999999523,A,keyenter,O,enter,323,1,13427.399999976158,455704.89999997616,7708,WL,A,13.0
3,60.014999866485596,learn,-14.999866485595703,Fri Dec 05 2025 14:51:14 GMT-0600 (Central Standard Time),488977.0,A,None,O,None,19838,1,19844.5,469132.5,7708,WL,A,14.0
4,0.7170000076293945,learn,59282.999992370605,Fri Dec 05 2025 14:51:14 GMT-0600 (Central Standard Time),555404.7999999523,A,m,O,m,690,1,716.0999999046326,554688.7000000477,7708,WL,A,1.0
4,0.8500001430511475,learn,59149.99985694885,Fri Dec 05 2025 14:51:14 GMT-0600 (Central Standard Time),555537.5,A,me,O,e,96,1,848.7999999523163,554688.7000000477,7708,WL,A,1.0
4,1.0,learn,59000.0,Fri Dec 05 2025 14:51:14 GMT-0600 (Central Standard Time),555687.7999999523,A,mea,O,a,125,1,999.0999999046326,554688.7000000477,7708,WL,A,1.0
4,1.2669999599456787,learn,58733.00004005432,Fri Dec 05 2025 14:51:14 GMT-0600 (Central Standard Time),555954.3999999762,A,mead,O,d,235,1,1265.6999999284744,554688.7000000477,7708,WL,A,1.0
4,1.4170000553131104,learn,58582.99994468689,Fri Dec 05 2025 14:51:14 GMT-0600 (Central Standard Time),556104.5,A,meado,O,o,121,1,1415.7999999523163,554688.7000000477,7708,WL,A,1.0
4,1.6670000553131104,learn,58332.99994468689,Fri Dec 05 2025 14:51:14 GMT-0600 (Central Standard Time),556354.3999999762,A,meadow,O,w,210,1,1665.6999999284744,554688.7000000477,7708,WL,A,1.0
4,2.2320001125335693,learn,57767.99988746643,Fri Dec 05 2025 14:51:14 GMT-0600 (Central Standard Time),556919.8999999762,A,meadowenter,O,enter,535,1,2231.1999999284744,554688.7000000477,7708,WL,A,1.0
4,3.2660000324249268,learn,56733.99996757507,Fri Dec 05 2025 14:51:14 GMT-0600 (Central Standard Time),557953.8999999762,A,h,O,h,1014,1,1033.6999999284744,556920.2000000477,7708,WL,A,2.0
4,3.4660000801086426,learn,56533.99991989136,Fri Dec 05 2025 14:51:14 GMT-0600 (Central Standard Time),558153.5,A,ha,O,a,161,1,1233.2999999523163,556920.2000000477,7708,WL,A,2.0
4,3.699000120162964,learn,56300.999879837036,Fri Dec 05 2025 14:51:14 GMT-0600 (Central Standard Time),558386.8999999762,A,har,O,r,203,1,1466.6999999284744,556920.2000000477,7708,WL,A,2.0
4,4.016000032424927,learn,55983.99996757507,Fri Dec 05 2025 14:51:14 GMT-0600 (Central Standard Time),558703.7999999523,A,harp,O,p,290,1,1783.5999999046326,556920.2000000477,7708,WL,A,2.0
4,4.432000160217285,learn,55567.999839782715,Fri Dec 05 2025 14:51:14 GMT-0600 (Central Standard Time),559119.1000000238,A,harpenter,O,enter,387,1,2198.899999976158,556920.2000000477,7708,WL,A,2.0
4,5.016000032424927,learn,54983.99996757507,Fri Dec 05 2025 14:51:14 GMT-0600 (Central Standard Time),559703.1000000238,A,s,O,s,566,1,583.6000000238419,559119.5,7708,WL,A,3.0
4,5.182000160217285,learn,54817.999839782715,Fri Dec 05 2025 14:51:14 GMT-0600 (Central Standard Time),559869.7999999523,A,sa,O,a,132,1,750.2999999523163,559119.5,7708,WL,A,3.0
4,5.348999977111816,learn,54651.00002288818,Fri Dec 05 2025 14:51:14 GMT-0600 (Central Standard Time),560037.0,A,sal,O,l,143,1,917.5,559119.5,7708,WL,A,3.0
4,5.598999977111816,learn,54401.00002288818,Fri Dec 05 2025 14:51:14 GMT-0600 (Central Standard Time),560286.3999999762,A,salt,O,t,214,1,1166.8999999761581,559119.5,7708,WL,A,3.0
4,5.96399998664856,learn,54036.00001335144,Fri Dec 05 2025 14:51:14 GMT-0600 (Central Standard Time),560651.8999999762,A,saltenter,O,enter,339,1,1532.3999999761581,559119.5,7708,WL,A,3.0
4,6.215000152587891,learn,53784.99984741211,Fri Dec 05 2025 14:51:14 GMT-0600 (Central Standard Time),560902.7000000477,A,r,O,r,243,1,250.60000002384186,560652.1000000238,7708,WL,A,4.0
4,6.432000160217285,learn,53567.999839782715,Fri Dec 05 2025 14:51:14 GMT-0600 (Central Standard Time),561119.3999999762,A,ru,O,u,187,1,467.2999999523163,560652.1000000238,7708,WL,A,4.0
4,6.664999961853027,learn,53335.00003814697,Fri Dec 05 2025 14:51:14 GMT-0600 (Central Standard Time),561352.3999999762,A,rug,O,g,204,1,700.2999999523163,560652.1000000238,7708,WL,A,4.0
4,7.414000034332275,learn,52585.999965667725,Fri Dec 05 2025 14:51:14 GMT-0600 (Central Standard Time),562101.5,A,rugenter,O,enter,722,1,1449.3999999761581,560652.1000000238,7708,WL,A,4.0
4,8.430999994277954,learn,51569.000005722046,Fri Dec 05 2025 14:51:14 GMT-0600 (Central Standard Time),563118.7000000477,A,f,O,f,1000,1,1016.9000000953674,562101.7999999523,7708,WL,A,5.0
4,8.63100004196167,learn,51368.99995803833,Fri Dec 05 2025 14:51:14 GMT-0600 (Central Standard Time),563318.6000000238,A,fl,O,l,170,1,1216.8000000715256,562101.7999999523,7708,WL,A,5.0
4,8.831000089645386,learn,51168.999910354614,Fri Dec 05 2025 14:51:14 GMT-0600 (Central Standard Time),563518.3999999762,A,flo,O,o,165,1,1416.6000000238419,562101.7999999523,7708,WL,A,5.0
4,8.998000144958496,learn,51001.999855041504,Fri Dec 05 2025 14:51:14 GMT-0600 (Central Standard Time),563685.2000000477,A,flow,O,w,134,1,1583.4000000953674,562101.7999999523,7708,WL,A,5.0
4,9.19700002670288,learn,50802.99997329712,Fri Dec 05 2025 14:51:14 GMT-0600 (Central Standard Time),563884.7999999523,A,flowe,O,e,178,1,1783.0,562101.7999999523,7708,WL,A,5.0
4,9.380000114440918,learn,50619.99988555908,Fri Dec 05 2025 14:51:14 GMT-0600 (Central Standard Time),564067.7999999523,A,flower,O,r,149,1,1966.0,562101.7999999523,7708,WL,A,5.0
4,9.812999963760376,learn,50187.000036239624,Fri Dec 05 2025 14:51:14 GMT-0600 (Central Standard Time),564500.6000000238,A,flowerenter,O,enter,417,1,2398.8000000715256,562101.7999999523,7708,WL,A,5.0
4,10.19700002670288,learn,49802.99997329712,Fri Dec 05 2025 14:51:14 GMT-0600 (Central Standard Time),564884.5,A,b,O,b,362,1,383.60000002384186,564500.8999999762,7708,WL,A,6.0
4,10.364000082015991,learn,49635.99991798401,Fri Dec 05 2025 14:51:14 GMT-0600 (Central Standard Time),565051.2000000477,A,bo,O,o,127,1,550.3000000715256,564500.8999999762,7708,WL,A,6.0
4,10.547000169754028,learn,49452.99983024597,Fri Dec 05 2025 14:51:14 GMT-0600 (Central Standard Time),565235.0,A,boo,O,o,157,1,734.1000000238419,564500.8999999762,7708,WL,A,6.0
4,10.764000177383423,learn,49235.99982261658,Fri Dec 05 2025 14:51:14 GMT-0600 (Central Standard Time),565451.1000000238,A,book,O,k,185,1,950.2000000476837,564500.8999999762,7708,WL,A,6.0
4,11.479000091552734,learn,48520.999908447266,Fri Dec 05 2025 14:51:14 GMT-0600 (Central Standard Time),566166.7999999523,A,bookenter,O,enter,694,1,1665.8999999761581,564500.8999999762,7708,WL,A,6.0
4,11.913000106811523,learn,48086.99989318848,Fri Dec 05 2025 14:51:14 GMT-0600 (Central Standard Time),566600.7999999523,A,c,O,c,424,1,433.7999999523163,566167.0,7708,WL,A,7.0
4,12.09600019454956,learn,47903.99980545044,Fri Dec 05 2025 14:51:14 GMT-0600 (Central Standard Time),566783.8999999762,A,ch,O,h,153,1,616.8999999761581,566167.0,7708,WL,A,7.0
4,12.347000122070312,learn,47652.99987792969,Fri Dec 05 2025 14:51:14 GMT-0600 (Central Standard Time),567034.3999999762,A,chi,O,i,220,1,867.3999999761581,566167.0,7708,WL,A,7.0
4,12.61300015449524,learn,47386.99984550476,Fri Dec 05 2025 14:51:14 GMT-0600 (Central Standard Time),567300.7999999523,A,chim,O,m,242,1,1133.7999999523163,566167.0,7708,WL,A,7.0
4,13.046000003814697,learn,46953.9999961853,Fri Dec 05 2025 14:51:14 GMT-0600 (Central Standard Time),567733.7999999523,A,chimn,O,n,398,1,1566.7999999523163,566167.0,7708,WL,A,7.0
4,13.196000099182129,learn,46803.99990081787,Fri Dec 05 2025 14:51:14 GMT-0600 (Central Standard Time),567883.1000000238,A,chimne,O,e,128,1,1716.1000000238419,566167.0,7708,WL,A,7.0
4,14.180000066757202,learn,45819.9999332428,Fri Dec 05 2025 14:51:14 GMT-0600 (Central Standard Time),568867.1000000238,A,chimney,O,y,969,1,2700.100000023842,566167.0,7708,WL,A,7.0
4,14.978000164031982,learn,45021.99983596802,Fri Dec 05 2025 14:51:14 GMT-0600 (Central Standard Time),569665.6000000238,A,chimneyenter,O,enter,767,1,3498.600000023842,566167.0,7708,WL,A,7.0
4,16.66100001335144,learn,43338.99998664856,Fri Dec 05 2025 14:51:14 GMT-0600 (Central Standard Time),571349.0,A,m,O,m,1677,1,1683.0,569666.0,7708,WL,A,8.0
4,16.778000116348267,learn,43221.99988365173,Fri Dec 05 2025 14:51:14 GMT-0600 (Central Standard Time),571465.2999999523,A,me,O,e,78,1,1799.2999999523163,569666.0,7708,WL,A,8.0
4,16.92799997329712,learn,43072.00002670288,Fri Dec 05 2025 14:51:14 GMT-0600 (Central Standard Time),571615.7000000477,A,mea,O,a,134,1,1949.7000000476837,569666.0,7708,WL,A,8.0
4,17.195000171661377,learn,42804.99982833862,Fri Dec 05 2025 14:51:14 GMT-0600 (Central Standard Time),571882.6000000238,A,mead,O,d,236,1,2216.600000023842,569666.0,7708,WL,A,8.0
4,17.361999988555908,learn,42638.00001144409,Fri Dec 05 2025 14:51:14 GMT-0600 (Central Standard Time),572049.2000000477,A,meado,O,o,136,1,2383.2000000476837,569666.0,7708,WL,A,8.0
4,17.511000156402588,learn,42488.99984359741,Fri Dec 05 2025 14:51:14 GMT-0600 (Central Standard Time),572198.8999999762,A,meadow,O,w,123,1,2532.899999976158,569666.0,7708,WL,A,8.0
4,17.811000108718872,learn,42188.99989128113,Fri Dec 05 2025 14:51:14 GMT-0600 (Central Standard Time),572498.1000000238,A,meadowenter,O,enter,268,1,2832.100000023842,569666.0,7708,WL,A,8.0
4,23.31000018119812,learn,36689.99981880188,Fri Dec 05 2025 14:51:14 GMT-0600 (Central Standard Time),577997.2000000477,A,g,O,g,5484,1,5498.900000095367,572498.2999999523,7708,WL,A,9.0
4,23.542999982833862,learn,36457.00001716614,Fri Dec 05 2025 14:51:14 GMT-0600 (Central Standard Time),578230.0,A,go,O,o,204,1,5731.700000047684,572498.2999999523,7708,WL,A,9.0
4,23.743000030517578,learn,36256.99996948242,Fri Dec 05 2025 14:51:14 GMT-0600 (Central Standard Time),578430.2999999523,A,gol,O,l,176,1,5932.0,572498.2999999523,7708,WL,A,9.0
4,23.960000038146973,learn,36039.99996185303,Fri Dec 05 2025 14:51:14 GMT-0600 (Central Standard Time),578647.1000000238,A,gold,O,d,185,1,6148.800000071526,572498.2999999523,7708,WL,A,9.0
4,24.258000135421753,learn,35741.99986457825,Fri Dec 05 2025 14:51:14 GMT-0600 (Central Standard Time),578945.8999999762,A,goldenter,O,enter,268,1,6447.600000023842,572498.2999999523,7708,WL,A,9.0
4,26.975000143051147,learn,33024.99985694885,Fri Dec 05 2025 14:51:14 GMT-0600 (Central Standard Time),581662.3999999762,A,a,O,a,2708,1,2716.1999999284744,578946.2000000477,7708,WL,A,10.0
4,27.159000158309937,learn,32840.99984169006,Fri Dec 05 2025 14:51:14 GMT-0600 (Central Standard Time),581846.1000000238,A,ap,O,p,149,1,2899.899999976158,578946.2000000477,7708,WL,A,10.0
4,27.407999992370605,learn,32592.000007629395,Fri Dec 05 2025 14:51:14 GMT-0600 (Central Standard Time),582095.7000000477,A,app,O,p,214,1,3149.5,578946.2000000477,7708,WL,A,10.0
4,27.64199995994568,learn,32358.00004005432,Fri Dec 05 2025 14:51:14 GMT-0600 (Central Standard Time),582329.1000000238,A,appl,O,l,203,1,3382.899999976158,578946.2000000477,7708,WL,A,10.0
4,27.79100012779236,learn,32208.99987220764,Fri Dec 05 2025 14:51:14 GMT-0600 (Central Standard Time),582478.7000000477,A,apple,O,e,124,1,3532.5,578946.2000000477,7708,WL,A,10.0
4,28.057000160217285,learn,31942.999839782715,Fri Dec 05 2025 14:51:14 GMT-0600 (Central Standard Time),582744.7000000477,A,appleenter,O,enter,237,1,3798.5,578946.2000000477,7708,WL,A,10.0
4,28.374000072479248,learn,31625.999927520752,Fri Dec 05 2025 14:51:14 GMT-0600 (Central Standard Time),583061.8999999762,A,f,O,f,310,1,316.89999997615814,582745.0,7708,WL,A,11.0
4,28.54100012779236,learn,31458.99987220764,Fri Dec 05 2025 14:51:14 GMT-0600 (Central Standard Time),583228.7000000477,A,fi,O,i,136,1,483.7000000476837,582745.0,7708,WL,A,11.0
4,28.723999977111816,learn,31276.000022888184,Fri Dec 05 2025 14:51:14 GMT-0600 (Central Standard Time),583411.2999999523,A,fin,O,n,140,1,666.2999999523163,582745.0,7708,WL,A,11.0
4,28.891000032424927,learn,31108.999967575073,Fri Dec 05 2025 14:51:14 GMT-0600 (Central Standard Time),583578.6000000238,A,fing,O,g,137,1,833.6000000238419,582745.0,7708,WL,A,11.0
4,29.124000072479248,learn,30875.999927520752,Fri Dec 05 2025 14:51:14 GMT-0600 (Central Standard Time),583811.7999999523,A,finge,O,e,205,1,1066.7999999523163,582745.0,7708,WL,A,11.0
4,29.258000135421753,learn,30741.999864578247,Fri Dec 05 2025 14:51:14 GMT-0600 (Central Standard Time),583945.3999999762,A,finger,O,r,98,1,1200.3999999761581,582745.0,7708,WL,A,11.0
4,29.490000009536743,learn,30509.999990463257,Fri Dec 05 2025 14:51:14 GMT-0600 (Central Standard Time),584177.5,A,fingerenter,O,enter,202,1,1432.5,582745.0,7708,WL,A,11.0
4,36.205000162124634,learn,23794.999837875366,Fri Dec 05 2025 14:51:14 GMT-0600 (Central Standard Time),590892.8999999762,A,m,O,m,6701,1,6715.100000023842,584177.7999999523,7708,WL,A,12.0
4,36.355000019073486,learn,23644.999980926514,Fri Dec 05 2025 14:51:14 GMT-0600 (Central Standard Time),591042.2999999523,A,me,O,e,113,1,6864.5,584177.7999999523,7708,WL,A,12.0
4,36.57200002670288,learn,23427.99997329712,Fri Dec 05 2025 14:51:14 GMT-0600 (Central Standard Time),591259.7000000477,A,met,O,t,196,1,7081.900000095367,584177.7999999523,7708,WL,A,12.0
4,36.78800010681152,learn,23211.999893188477,Fri Dec 05 2025 14:51:14 GMT-0600 (Central Standard Time),591476.0,A,meta,O,a,176,1,7298.200000047684,584177.7999999523,7708,WL,A,12.0
4,36.9210000038147,learn,23078.999996185303,Fri Dec 05 2025 14:51:14 GMT-0600 (Central Standard Time),591608.7999999523,A,metal,O,l,102,1,7431.0,584177.7999999523,7708,WL,A,12.0
4,37.254000186920166,learn,22745.999813079834,Fri Dec 05 2025 14:51:14 GMT-0600 (Central Standard Time),591941.6000000238,A,metalenter,O,enter,318,1,7763.800000071526,584177.7999999523,7708,WL,A,12.0
4,53.134000062942505,learn,6865.999937057495,Fri Dec 05 2025 14:51:14 GMT-0600 (Central Standard Time),607820.7999999523,A,g,O,g,15855,1,15878.899999976158,591941.8999999762,7708,WL,A,13.0
4,53.33400011062622,learn,6665.999889373779,Fri Dec 05 2025 14:51:14 GMT-0600 (Central Standard Time),608020.7000000477,A,go,O,o,173,1,16078.800000071526,591941.8999999762,7708,WL,A,13.0
4,53.60000014305115,learn,6399.9998569488525,Fri Dec 05 2025 14:51:14 GMT-0600 (Central Standard Time),608287.0,A,gol,O,l,241,1,16345.100000023842,591941.8999999762,7708,WL,A,13.0
4,53.782999992370605,learn,6217.0000076293945,Fri Dec 05 2025 14:51:14 GMT-0600 (Central Standard Time),608470.2000000477,A,gold,O,d,155,1,16528.300000071526,591941.8999999762,7708,WL,A,13.0
4,54.06700015068054,learn,5932.999849319458,Fri Dec 05 2025 14:51:14 GMT-0600 (Central Standard Time),608753.5,A,goldenter,O,enter,245,1,16811.600000023842,591941.8999999762,7708,WL,A,13.0
4,60.015000104904175,learn,-15.000104904174805,Fri Dec 05 2025 14:51:14 GMT-0600 (Central Standard Time),614702.1000000238,A,None,O,None,5943,1,5948.300000071526,608753.7999999523,7708,WL,A,14.0
5,2.0490000247955322,learn,60000.0,Fri Dec 05 2025 14:51:14 GMT-0600 (Central Standard Time),683379.5,A,f,O,f,2013,1,2049.2999999523163,681330.2000000477,7708,WL,A,1.0
5,2.197999954223633,learn,60000.0,Fri Dec 05 2025 14:51:14 GMT-0600 (Central Standard Time),683528.3999999762,A,fl,O,l,112,1,2198.1999999284744,681330.2000000477,7708,WL,A,1.0
5,2.3989999294281006,learn,60000.0,Fri Dec 05 2025 14:51:14 GMT-0600 (Central Standard Time),683729.2999999523,A,flo,O,o,188,1,2399.0999999046326,681330.2000000477,7708,WL,A,1.0
5,2.5820000171661377,learn,60000.0,Fri Dec 05 2025 14:51:14 GMT-0600 (Central Standard Time),683912.5,A,flow,O,w,146,1,2582.2999999523163,681330.2000000477,7708,WL,A,1.0
5,2.697999954223633,learn,60000.0,Fri Dec 05 2025 14:51:14 GMT-0600 (Central Standard Time),684028.2999999523,A,flowe,O,e,92,1,2698.0999999046326,681330.2000000477,7708,WL,A,1.0
5,2.8989999294281006,learn,60000.0,Fri Dec 05 2025 14:51:14 GMT-0600 (Central Standard Time),684229.2000000477,A,flower,O,r,169,1,2899.0,681330.2000000477,7708,WL,A,1.0
5,3.197999954223633,learn,60000.0,Fri Dec 05 2025 14:51:14 GMT-0600 (Central Standard Time),684528.0,A,flowerenter,O,enter,269,1,3197.7999999523163,681330.2000000477,7708,WL,A,1.0
5,3.499000072479248,learn,60000.0,Fri Dec 05 2025 14:51:14 GMT-0600 (Central Standard Time),684829.3999999762,A,b,O,b,294,1,301.10000002384186,684528.2999999523,7708,WL,A,2.0
5,3.765000104904175,learn,60000.0,Fri Dec 05 2025 14:51:14 GMT-0600 (Central Standard Time),685095.5,A,bu,O,u,230,1,567.2000000476837,684528.2999999523,7708,WL,A,2.0
5,4.131999969482422,learn,60000.0,Fri Dec 05 2025 14:51:14 GMT-0600 (Central Standard Time),685461.7000000477,A,but,O,t,331,1,933.4000000953674,684528.2999999523,7708,WL,A,2.0
5,4.332000017166138,learn,60000.0,Fri Dec 05 2025 14:51:14 GMT-0600 (Central Standard Time),685661.7999999523,A,butt,O,t,173,1,1133.5,684528.2999999523,7708,WL,A,2.0
5,4.497999906539917,learn,60000.0,Fri Dec 05 2025 14:51:14 GMT-0600 (Central Standard Time),685828.5,A,butto,O,o,135,1,1300.2000000476837,684528.2999999523,7708,WL,A,2.0
5,4.765000104904175,learn,60000.0,Fri Dec 05 2025 14:51:14 GMT-0600 (Central Standard Time),686094.7999999523,A,button,O,n,237,1,1566.5,684528.2999999523,7708,WL,A,2.0
5,5.315000057220459,learn,60000.0,Fri Dec 05 2025 14:51:14 GMT-0600 (Central Standard Time),686644.7000000477,A,buttonenter,O,enter,531,1,2116.4000000953674,684528.2999999523,7708,WL,A,2.0
5,6.414000034332275,learn,60000.0,Fri Dec 05 2025 14:51:14 GMT-0600 (Central Standard Time),687744.5,A,m,O,m,1089,1,1099.5,686645.0,7708,WL,A,3.0
5,6.531000137329102,learn,60000.0,Fri Dec 05 2025 14:51:14 GMT-0600 (Central Standard Time),687861.0,A,me,O,e,86,1,1216.0,686645.0,7708,WL,A,3.0
5,6.697999954223633,learn,60000.0,Fri Dec 05 2025 14:51:14 GMT-0600 (Central Standard Time),688027.7000000477,A,mea,O,a,135,1,1382.7000000476837,686645.0,7708,WL,A,3.0
5,6.947000026702881,learn,60000.0,Fri Dec 05 2025 14:51:14 GMT-0600 (Central Standard Time),688276.7999999523,A,mead,O,d,215,1,1631.7999999523163,686645.0,7708,WL,A,3.0
5,7.130000114440918,learn,60000.0,Fri Dec 05 2025 14:51:14 GMT-0600 (Central Standard Time),688460.1000000238,A,meado,O,o,166,1,1815.1000000238419,686645.0,7708,WL,A,3.0
5,7.364000082015991,learn,60000.0,Fri Dec 05 2025 14:51:14 GMT-0600 (Central Standard Time),688693.6000000238,A,meadow,O,w,216,1,2048.600000023842,686645.0,7708,WL,A,3.0
5,7.963000059127808,learn,60000.0,Fri Dec 05 2025 14:51:14 GMT-0600 (Central Standard Time),689293.2000000477,A,meadowenter,O,enter,576,1,2648.2000000476837,686645.0,7708,WL,A,3.0
5,8.263999938964844,learn,60000.0,Fri Dec 05 2025 14:51:14 GMT-0600 (Central Standard Time),689593.7999999523,A,f,O,f,281,1,300.39999997615814,689293.3999999762,7708,WL,A,4.0
5,8.430999994277954,learn,60000.0,Fri Dec 05 2025 14:51:14 GMT-0600 (Central Standard Time),689760.8999999762,A,fl,O,l,133,1,467.5,689293.3999999762,7708,WL,A,4.0
5,8.663000106811523,learn,60000.0,Fri Dec 05 2025 14:51:14 GMT-0600 (Central Standard Time),689993.5,A,flo,O,o,203,1,700.1000000238419,689293.3999999762,7708,WL,A,4.0
5,8.864000082015991,learn,60000.0,Fri Dec 05 2025 14:51:14 GMT-0600 (Central Standard Time),690193.7000000477,A,flow,O,w,171,1,900.3000000715256,689293.3999999762,7708,WL,A,4.0
5,8.996000051498413,learn,60000.0,Fri Dec 05 2025 14:51:14 GMT-0600 (Central Standard Time),690326.2000000477,A,flowe,O,e,108,1,1032.8000000715256,689293.3999999762,7708,WL,A,4.0
5,9.246999979019165,learn,60000.0,Fri Dec 05 2025 14:51:14 GMT-0600 (Central Standard Time),690576.8999999762,A,flower,O,r,229,1,1283.5,689293.3999999762,7708,WL,A,4.0
5,10.095999956130981,learn,60000.0,Fri Dec 05 2025 14:51:14 GMT-0600 (Central Standard Time),691425.6000000238,A,flowerenter,O,enter,819,1,2132.2000000476837,689293.3999999762,7708,WL,A,4.0
5,11.11299991607666,learn,60000.0,Fri Dec 05 2025 14:51:14 GMT-0600 (Central Standard Time),692442.8999999762,A,r,O,r,1003,1,1016.8999999761581,691426.0,7708,WL,A,5.0
5,11.312999963760376,learn,60000.0,Fri Dec 05 2025 14:51:14 GMT-0600 (Central Standard Time),692643.1000000238,A,ru,O,u,172,1,1217.1000000238419,691426.0,7708,WL,A,5.0
5,11.61299991607666,learn,60000.0,Fri Dec 05 2025 14:51:14 GMT-0600 (Central Standard Time),692942.7000000477,A,rug,O,g,263,1,1516.7000000476837,691426.0,7708,WL,A,5.0
5,12.477999925613403,learn,60000.0,Fri Dec 05 2025 14:51:14 GMT-0600 (Central Standard Time),693808.2999999523,A,rugenter,O,enter,835,1,2382.2999999523163,691426.0,7708,WL,A,5.0
5,13.446000099182129,learn,60000.0,Fri Dec 05 2025 14:51:14 GMT-0600 (Central Standard Time),694775.7999999523,A,g,O,g,958,1,967.2999999523163,693808.5,7708,WL,A,6.0
5,13.611999988555908,learn,60000.0,Fri Dec 05 2025 14:51:14 GMT-0600 (Central Standard Time),694941.7000000477,A,go,O,o,139,1,1133.2000000476837,693808.5,7708,WL,A,6.0
5,13.845999956130981,learn,60000.0,Fri Dec 05 2025 14:51:14 GMT-0600 (Central Standard Time),695175.7999999523,A,gol,O,l,198,1,1367.2999999523163,693808.5,7708,WL,A,6.0
5,14.01200008392334,learn,60000.0,Fri Dec 05 2025 14:51:14 GMT-0600 (Central Standard Time),695341.7999999523,A,gold,O,d,140,1,1533.2999999523163,693808.5,7708,WL,A,6.0
5,14.361000061035156,learn,60000.0,Fri Dec 05 2025 14:51:14 GMT-0600 (Central Standard Time),695691.0,A,goldenter,O,enter,334,1,1882.5,693808.5,7708,WL,A,6.0
5,15.061000108718872,learn,60000.0,Fri Dec 05 2025 14:51:14 GMT-0600 (Central Standard Time),696391.3999999762,A,f,O,f,691,1,700.1000000238419,695691.2999999523,7708,WL,A,7.0
5,15.212000131607056,learn,60000.0,Fri Dec 05 2025 14:51:14 GMT-0600 (Central Standard Time),696541.8999999762,A,fi,O,i,135,1,850.6000000238419,695691.2999999523,7708,WL,A,7.0
5,15.394999980926514,learn,60000.0,Fri Dec 05 2025 14:51:14 GMT-0600 (Central Standard Time),696725.1000000238,A,fin,O,n,143,1,1033.8000000715256,695691.2999999523,7708,WL,A,7.0
5,15.528000116348267,learn,60000.0,Fri Dec 05 2025 14:51:14 GMT-0600 (Central Standard Time),696858.1000000238,A,fing,O,g,93,1,1166.8000000715256,695691.2999999523,7708,WL,A,7.0
5,15.778000116348267,learn,60000.0,Fri Dec 05 2025 14:51:14 GMT-0600 (Central Standard Time),697108.0,A,finge,O,e,219,1,1416.7000000476837,695691.2999999523,7708,WL,A,7.0
5,15.894000053405762,learn,60000.0,Fri Dec 05 2025 14:51:14 GMT-0600 (Central Standard Time),697224.0,A,finger,O,r,78,1,1532.7000000476837,695691.2999999523,7708,WL,A,7.0
5,16.16000008583069,learn,60000.0,Fri Dec 05 2025 14:51:14 GMT-0600 (Central Standard Time),697490.3999999762,A,fingerenter,O,enter,244,1,1799.1000000238419,695691.2999999523,7708,WL,A,7.0
5,16.977999925613403,learn,60000.0,Fri Dec 05 2025 14:51:14 GMT-0600 (Central Standard Time),698307.6000000238,A,f,O,f,796,1,816.8999999761581,697490.7000000477,7708,WL,A,8.0
5,17.094000101089478,learn,60000.0,Fri Dec 05 2025 14:51:14 GMT-0600 (Central Standard Time),698423.8999999762,A,fl,O,l,78,1,933.1999999284744,697490.7000000477,7708,WL,A,8.0
5,17.311000108718872,learn,60000.0,Fri Dec 05 2025 14:51:14 GMT-0600 (Central Standard Time),698641.2000000477,A,flo,O,o,190,1,1150.5,697490.7000000477,7708,WL,A,8.0
5,17.41000008583069,learn,60000.0,Fri Dec 05 2025 14:51:14 GMT-0600 (Central Standard Time),698740.2000000477,A,flow,O,w,66,1,1249.5,697490.7000000477,7708,WL,A,8.0
5,17.561000108718872,learn,60000.0,Fri Dec 05 2025 14:51:14 GMT-0600 (Central Standard Time),698891.5,A,flowe,O,e,123,1,1400.7999999523163,697490.7000000477,7708,WL,A,8.0
5,17.76099991798401,learn,60000.0,Fri Dec 05 2025 14:51:14 GMT-0600 (Central Standard Time),699090.8999999762,A,flower,O,r,161,1,1600.1999999284744,697490.7000000477,7708,WL,A,8.0
5,18.092999935150146,learn,60000.0,Fri Dec 05 2025 14:51:14 GMT-0600 (Central Standard Time),699423.2000000477,A,flowerenter,O,enter,296,1,1932.5,697490.7000000477,7708,WL,A,8.0
5,21.14199995994568,learn,60000.0,Fri Dec 05 2025 14:51:14 GMT-0600 (Central Standard Time),702472.2000000477,A,s,O,s,3030,1,3048.7000000476837,699423.5,7708,WL,A,9.0
5,21.276000022888184,learn,60000.0,Fri Dec 05 2025 14:51:14 GMT-0600 (Central Standard Time),702605.6000000238,A,sa,O,a,115,1,3182.100000023842,699423.5,7708,WL,A,9.0
5,21.45900011062622,learn,60000.0,Fri Dec 05 2025 14:51:14 GMT-0600 (Central Standard Time),702788.7999999523,A,sal,O,l,166,1,3365.2999999523163,699423.5,7708,WL,A,9.0
5,21.658999919891357,learn,60000.0,Fri Dec 05 2025 14:51:14 GMT-0600 (Central Standard Time),702988.7999999523,A,salt,O,t,192,1,3565.2999999523163,699423.5,7708,WL,A,9.0
5,22.02500009536743,learn,60000.0,Fri Dec 05 2025 14:51:14 GMT-0600 (Central Standard Time),703355.1000000238,A,saltenter,O,enter,345,1,3931.600000023842,699423.5,7708,WL,A,9.0
5,23.79200005531311,learn,60000.0,Fri Dec 05 2025 14:51:14 GMT-0600 (Central Standard Time),705122.2999999523,A,t,O,t,1755,1,1766.8999999761581,703355.3999999762,7708,WL,A,10.0
5,24.04200005531311,learn,60000.0,Fri Dec 05 2025 14:51:14 GMT-0600 (Central Standard Time),705372.2000000477,A,tr,O,r,216,1,2016.8000000715256,703355.3999999762,7708,WL,A,10.0
5,24.191999912261963,learn,60000.0,Fri Dec 05 2025 14:51:14 GMT-0600 (Central Standard Time),705521.7999999523,A,tra,O,a,122,1,2166.399999976158,703355.3999999762,7708,WL,A,10.0
5,24.39199995994568,learn,60000.0,Fri Dec 05 2025 14:51:14 GMT-0600 (Central Standard Time),705722.0,A,trai,O,i,164,1,2366.600000023842,703355.3999999762,7708,WL,A,10.0
5,24.625,learn,60000.0,Fri Dec 05 2025 14:51:14 GMT-0600 (Central Standard Time),705955.3999999762,A,train,O,n,195,1,2600.0,703355.3999999762,7708,WL,A,10.0
5,25.008000135421753,learn,60000.0,Fri Dec 05 2025 14:51:14 GMT-0600 (Central Standard Time),706337.6000000238,A,trainenter,O,enter,351,1,2982.2000000476837,703355.3999999762,7708,WL,A,10.0
5,26.591000080108643,learn,60000.0,Fri Dec 05 2025 14:51:14 GMT-0600 (Central Standard Time),707921.5,A,c,O,c,1571,1,1583.7000000476837,706337.7999999523,7708,WL,A,11.0
5,26.723999977111816,learn,60000.0,Fri Dec 05 2025 14:51:14 GMT-0600 (Central Standard Time),708053.7999999523,A,ch,O,h,108,1,1716.0,706337.7999999523,7708,WL,A,11.0
5,26.891000032424927,learn,60000.0,Fri Dec 05 2025 14:51:14 GMT-0600 (Central Standard Time),708221.3999999762,A,chi,O,i,145,1,1883.6000000238419,706337.7999999523,7708,WL,A,11.0
5,27.122999906539917,learn,60000.0,Fri Dec 05 2025 14:51:14 GMT-0600 (Central Standard Time),708453.2999999523,A,chim,O,m,205,1,2115.5,706337.7999999523,7708,WL,A,11.0
5,27.44099998474121,learn,60000.0,Fri Dec 05 2025 14:51:14 GMT-0600 (Central Standard Time),708771.1000000238,A,chimn,O,n,297,1,2433.3000000715256,706337.7999999523,7708,WL,A,11.0
5,27.657000064849854,learn,60000.0,Fri Dec 05 2025 14:51:14 GMT-0600 (Central Standard Time),708987.7999999523,A,chimne,O,e,185,1,2650.0,706337.7999999523,7708,WL,A,11.0
5,27.806999921798706,learn,60000.0,Fri Dec 05 2025 14:51:14 GMT-0600 (Central Standard Time),709137.0,A,chimney,O,y,119,1,2799.2000000476837,706337.7999999523,7708,WL,A,11.0
5,28.19000005722046,learn,60000.0,Fri Dec 05 2025 14:51:14 GMT-0600 (Central Standard Time),709519.8999999762,A,chimneyenter,O,enter,365,1,3182.100000023842,706337.7999999523,7708,WL,A,11.0
5,34.638999938964844,learn,60000.0,Fri Dec 05 2025 14:51:14 GMT-0600 (Central Standard Time),715968.7000000477,A,k,O,k,6438,1,6448.600000023842,709520.1000000238,7708,WL,A,12.0
5,34.805999994277954,learn,60000.0,Fri Dec 05 2025 14:51:14 GMT-0600 (Central Standard Time),716134.8999999762,A,ke,O,e,139,1,6614.799999952316,709520.1000000238,7708,WL,A,12.0
5,35.055999994277954,learn,60000.0,Fri Dec 05 2025 14:51:14 GMT-0600 (Central Standard Time),716384.8999999762,A,key,O,y,212,1,6864.799999952316,709520.1000000238,7708,WL,A,12.0
5,35.50500011444092,learn,60000.0,Fri Dec 05 2025 14:51:14 GMT-0600 (Central Standard Time),716834.0,A,keyenter,O,enter,417,1,7313.899999976158,709520.1000000238,7708,WL,A,12.0
5,41.187000036239624,learn,60000.0,Fri Dec 05 2025 14:51:14 GMT-0600 (Central Standard Time),722515.8999999762,A,r,O,r,5675,1,5681.600000023842,716834.2999999523,7708,WL,A,13.0
5,41.38700008392334,learn,60000.0,Fri Dec 05 2025 14:51:14 GMT-0600 (Central Standard Time),722716.3999999762,A,ru,O,u,178,1,5882.100000023842,716834.2999999523,7708,WL,A,13.0
5,41.7039999961853,learn,60000.0,Fri Dec 05 2025 14:51:14 GMT-0600 (Central Standard Time),723033.3999999762,A,rug,O,g,279,1,6199.100000023842,716834.2999999523,7708,WL,A,13.0
5,42.05299997329712,learn,60000.0,Fri Dec 05 2025 14:51:14 GMT-0600 (Central Standard Time),723382.0,A,rugenter,O,enter,314,1,6547.700000047684,716834.2999999523,7708,WL,A,13.0
5,48.967000007629395,learn,60000.0,Fri Dec 05 2025 14:51:14 GMT-0600 (Central Standard Time),730296.6000000238,A,t,O,t,6904,1,6914.399999976158,723382.2000000477,7708,WL,A,14.0
5,49.235000133514404,learn,60000.0,Fri Dec 05 2025 14:51:14 GMT-0600 (Central Standard Time),730564.1000000238,A,tr,O,r,245,1,7181.899999976158,723382.2000000477,7708,WL,A,14.0
5,49.43400001525879,learn,60000.0,Fri Dec 05 2025 14:51:14 GMT-0600 (Central Standard Time),730763.7000000477,A,tra,O,a,168,1,7381.5,723382.2000000477,7708,WL,A,14.0
5,49.6010000705719,learn,60000.0,Fri Dec 05 2025 14:51:14 GMT-0600 (Central Standard Time),730930.7999999523,A,trai,O,i,136,1,7548.599999904633,723382.2000000477,7708,WL,A,14.0
5,49.8510000705719,learn,60000.0,Fri Dec 05 2025 14:51:14 GMT-0600 (Central Standard Time),731180.5,A,train,O,n,218,1,7798.299999952316,723382.2000000477,7708,WL,A,14.0
5,50.217000007629395,learn,60000.0,Fri Dec 05 2025 14:51:14 GMT-0600 (Central Standard Time),731545.8999999762,A,trainenter,O,enter,334,1,8163.699999928474,723382.2000000477,7708,WL,A,14.0
5,62.41300010681152,learn,60000.0,Fri Dec 05 2025 14:51:14 GMT-0600 (Central Standard Time),743742.2999999523,A,enter,O,enter,12187,1,12196.099999904633,731546.2000000477,7708,WL,A,15.0
6,0.998999834060669,distr,59001.00016593933,Fri Dec 05 2025 14:51:14 GMT-0600 (Central Standard Time),828915.1000000238,B,b,O,b,970,1,999.1000000238419,827916.0,7708,WL,A,1.0
6,1.1489999294281006,distr,58851.0000705719,Fri Dec 05 2025 14:51:14 GMT-0600 (Central Standard Time),829064.7999999523,B,bo,O,o,124,1,1148.7999999523163,827916.0,7708,WL,A,1.0
6,1.432999849319458,distr,58567.00015068054,Fri Dec 05 2025 14:51:14 GMT-0600 (Central Standard Time),829348.2999999523,B,bot,O,t,247,1,1432.2999999523163,827916.0,7708,WL,A,1.0
6,1.6489999294281006,distr,58351.0000705719,Fri Dec 05 2025 14:51:14 GMT-0600 (Central Standard Time),829565.1000000238,B,bott,O,t,179,1,1649.1000000238419,827916.0,7708,WL,A,1.0
6,1.815999984741211,distr,58184.00001525879,Fri Dec 05 2025 14:51:14 GMT-0600 (Central Standard Time),829731.2000000477,B,bottl,O,l,127,1,1815.2000000476837,827916.0,7708,WL,A,1.0
6,1.9649999141693115,distr,58035.00008583069,Fri Dec 05 2025 14:51:14 GMT-0600 (Central Standard Time),829880.5,B,bottle,O,e,126,1,1964.5,827916.0,7708,WL,A,1.0
6,2.747999906539917,distr,57252.00009346008,Fri Dec 05 2025 14:51:14 GMT-0600 (Central Standard Time),830663.5,B,bottleenter,O,enter,762,1,2747.5,827916.0,7708,WL,A,1.0
6,4.264999866485596,distr,55735.000133514404,Fri Dec 05 2025 14:51:14 GMT-0600 (Central Standard Time),832180.2999999523,B,p,O,p,1495,1,1516.5999999046326,830663.7000000477,7708,WL,A,2.0
6,4.365000009536743,distr,55634.99999046326,Fri Dec 05 2025 14:51:14 GMT-0600 (Central Standard Time),832280.0,B,pe,O,e,63,1,1616.2999999523163,830663.7000000477,7708,WL,A,2.0
6,4.56499981880188,distr,55435.00018119812,Fri Dec 05 2025 14:51:14 GMT-0600 (Central Standard Time),832480.2999999523,B,pea,O,a,175,1,1816.5999999046326,830663.7000000477,7708,WL,A,2.0
6,4.865000009536743,distr,55134.99999046326,Fri Dec 05 2025 14:51:14 GMT-0600 (Central Standard Time),832780.3999999762,B,peac,O,c,269,1,2116.6999999284744,830663.7000000477,7708,WL,A,2.0
6,5.081999778747559,distr,54918.00022125244,Fri Dec 05 2025 14:51:14 GMT-0600 (Central Standard Time),832997.3999999762,B,peach,O,h,193,1,2333.6999999284744,830663.7000000477,7708,WL,A,2.0
6,5.480999946594238,distr,54519.00005340576,Fri Dec 05 2025 14:51:14 GMT-0600 (Central Standard Time),833395.8999999762,B,peachenter,O,enter,355,1,2732.1999999284744,830663.7000000477,7708,WL,A,2.0
6,5.813999891281128,distr,54186.00010871887,Fri Dec 05 2025 14:51:14 GMT-0600 (Central Standard Time),833729.2999999523,B,c,O,c,322,1,333.09999990463257,833396.2000000477,7708,WL,A,3.0
6,6.031999826431274,distr,53968.000173568726,Fri Dec 05 2025 14:51:14 GMT-0600 (Central Standard Time),833946.7999999523,B,ch,O,h,190,1,550.5999999046326,833396.2000000477,7708,WL,A,3.0
6,6.264999866485596,distr,53735.000133514404,Fri Dec 05 2025 14:51:14 GMT-0600 (Central Standard Time),834179.7000000477,B,cha,O,a,193,1,783.5,833396.2000000477,7708,WL,A,3.0
6,6.363999843597412,distr,53636.00015640259,Fri Dec 05 2025 14:51:14 GMT-0600 (Central Standard Time),834279.2999999523,B,chai,O,i,71,1,883.0999999046326,833396.2000000477,7708,WL,A,3.0
6,6.597999811172485,distr,53402.000188827515,Fri Dec 05 2025 14:51:14 GMT-0600 (Central Standard Time),834513.2000000477,B,chair,O,r,209,1,1117.0,833396.2000000477,7708,WL,A,3.0
6,7.346999883651733,distr,52653.00011634827,Fri Dec 05 2025 14:51:14 GMT-0600 (Central Standard Time),835262.0,B,chairenter,O,enter,721,1,1865.7999999523163,833396.2000000477,7708,WL,A,3.0
6,15.411999940872192,distr,44588.00005912781,Fri Dec 05 2025 14:51:14 GMT-0600 (Central Standard Time),843326.7999999523,B,d,O,d,8057,1,8064.599999904633,835262.2000000477,7708,WL,A,4.0
6,15.577999830245972,distr,44422.00016975403,Fri Dec 05 2025 14:51:14 GMT-0600 (Central Standard Time),843492.7999999523,B,da,O,a,148,1,8230.599999904633,835262.2000000477,7708,WL,A,4.0
6,15.911999940872192,distr,44088.00005912781,Fri Dec 05 2025 14:51:14 GMT-0600 (Central Standard Time),843826.8999999762,B,daw,O,w,303,1,8564.699999928474,835262.2000000477,7708,WL,A,4.0
6,16.277999877929688,distr,43722.00012207031,Fri Dec 05 2025 14:51:14 GMT-0600 (Central Standard Time),844193.1000000238,B,dawn,O,n,329,1,8930.899999976158,835262.2000000477,7708,WL,A,4.0
6,16.710999965667725,distr,43289.000034332275,Fri Dec 05 2025 14:51:14 GMT-0600 (Central Standard Time),844625.6000000238,B,dawnenter,O,enter,410,1,9363.399999976158,835262.2000000477,7708,WL,A,4.0
6,17.126999855041504,distr,42873.000144958496,Fri Dec 05 2025 14:51:14 GMT-0600 (Central Standard Time),845042.3999999762,B,j,O,j,404,1,416.39999997615814,844626.0,7708,WL,A,5.0
6,17.360999822616577,distr,42639.00017738342,Fri Dec 05 2025 14:51:14 GMT-0600 (Central Standard Time),845276.2999999523,B,ju,O,u,213,1,650.2999999523163,844626.0,7708,WL,A,5.0
6,17.527999877929688,distr,42472.00012207031,Fri Dec 05 2025 14:51:14 GMT-0600 (Central Standard Time),845442.8999999762,B,jud,O,d,128,1,816.8999999761581,844626.0,7708,WL,A,5.0
6,17.76099991798401,distr,42239.00008201599,Fri Dec 05 2025 14:51:14 GMT-0600 (Central Standard Time),845676.0,B,judg,O,g,195,1,1050.0,844626.0,7708,WL,A,5.0
6,18.01099991798401,distr,41989.00008201599,Fri Dec 05 2025 14:51:14 GMT-0600 (Central Standard Time),845926.2000000477,B,judge,O,e,214,1,1300.2000000476837,844626.0,7708,WL,A,5.0
6,18.342999935150146,distr,41657.00006484985,Fri Dec 05 2025 14:51:14 GMT-0600 (Central Standard Time),846258.2999999523,B,judgeenter,O,enter,292,1,1632.2999999523163,844626.0,7708,WL,A,5.0
6,22.092999935150146,distr,37907.00006484985,Fri Dec 05 2025 14:51:14 GMT-0600 (Central Standard Time),850007.7999999523,B,p,O,p,3740,1,3749.1999999284744,846258.6000000238,7708,WL,A,6.0
6,22.22599983215332,distr,37774.00016784668,Fri Dec 05 2025 14:51:14 GMT-0600 (Central Standard Time),850141.2000000477,B,pe,O,e,101,1,3882.600000023842,846258.6000000238,7708,WL,A,6.0
6,22.375999927520752,distr,37624.00007247925,Fri Dec 05 2025 14:51:14 GMT-0600 (Central Standard Time),850291.1000000238,B,pea,O,a,119,1,4032.5,846258.6000000238,7708,WL,A,6.0
6,22.626999855041504,distr,37373.000144958496,Fri Dec 05 2025 14:51:14 GMT-0600 (Central Standard Time),850541.7000000477,B,peac,O,c,224,1,4283.100000023842,846258.6000000238,7708,WL,A,6.0
6,22.80899977684021,distr,37191.00022315979,Fri Dec 05 2025 14:51:14 GMT-0600 (Central Standard Time),850724.2000000477,B,peach,O,h,152,1,4465.600000023842,846258.6000000238,7708,WL,A,6.0
6,23.174999952316284,distr,36825.000047683716,Fri Dec 05 2025 14:51:14 GMT-0600 (Central Standard Time),851090.1000000238,B,peachenter,O,enter,327,1,4831.5,846258.6000000238,7708,WL,A,6.0
6,28.723999977111816,distr,31276.000022888184,Fri Dec 05 2025 14:51:14 GMT-0600 (Central Standard Time),856638.7999999523,B,p,O,p,5541,1,5548.399999976158,851090.3999999762,7708,WL,A,7.0
6,29.056999921798706,distr,30943.000078201294,Fri Dec 05 2025 14:51:14 GMT-0600 (Central Standard Time),856972.2999999523,B,po,O,o,292,1,5881.899999976158,851090.3999999762,7708,WL,A,7.0
6,29.20699977874756,distr,30793.00022125244,Fri Dec 05 2025 14:51:14 GMT-0600 (Central Standard Time),857122.2000000477,B,poo,O,o,119,1,6031.800000071526,851090.3999999762,7708,WL,A,7.0
6,29.539999961853027,distr,30460.000038146973,Fri Dec 05 2025 14:51:14 GMT-0600 (Central Standard Time),857455.2999999523,B,pool,O,l,313,1,6364.899999976158,851090.3999999762,7708,WL,A,7.0
6,30.372999906539917,distr,29627.000093460083,Fri Dec 05 2025 14:51:14 GMT-0600 (Central Standard Time),858287.6000000238,B,poolenter,O,enter,803,1,7197.200000047684,851090.3999999762,7708,WL,A,7.0
6,30.70699977874756,distr,29293.00022125244,Fri Dec 05 2025 14:51:14 GMT-0600 (Central Standard Time),858621.5,B,c,O,c,327,1,333.60000002384186,858287.8999999762,7708,WL,A,8.0
6,30.889999866485596,distr,29110.000133514404,Fri Dec 05 2025 14:51:14 GMT-0600 (Central Standard Time),858805.0,B,co,O,o,143,1,517.1000000238419,858287.8999999762,7708,WL,A,8.0
6,31.073999881744385,distr,28926.000118255615,Fri Dec 05 2025 14:51:14 GMT-0600 (Central Standard Time),858988.6000000238,B,cou,O,u,153,1,700.7000000476837,858287.8999999762,7708,WL,A,8.0
6,31.305999994277954,distr,28694.000005722046,Fri Dec 05 2025 14:51:14 GMT-0600 (Central Standard Time),859221.2999999523,B,coun,O,n,207,1,933.3999999761581,858287.8999999762,7708,WL,A,8.0
6,31.538999795913696,distr,28461.000204086304,Fri Dec 05 2025 14:51:14 GMT-0600 (Central Standard Time),859453.8999999762,B,count,O,t,205,1,1166.0,858287.8999999762,7708,WL,A,8.0
6,31.721999883651733,distr,28278.000116348267,Fri Dec 05 2025 14:51:14 GMT-0600 (Central Standard Time),859637.1000000238,B,county,O,y,174,1,1349.2000000476837,858287.8999999762,7708,WL,A,8.0
6,32.138999938964844,distr,27861.000061035156,Fri Dec 05 2025 14:51:14 GMT-0600 (Central Standard Time),860053.7000000477,B,countyenter,O,enter,400,1,1765.8000000715256,858287.8999999762,7708,WL,A,8.0
6,53.764999866485596,distr,6235.000133514404,Fri Dec 05 2025 14:51:14 GMT-0600 (Central Standard Time),881680.0,B,enter,O,enter,21617,1,21626.0,860054.0,7708,WL,A,9.0
6,55.19799995422363,distr,4802.000045776367,Fri Dec 05 2025 14:51:14 GMT-0600 (Central Standard Time),883112.7999999523,B,enter,O,enter,1412,1,1432.3999999761581,881680.3999999762,7708,WL,A,10.0
6,58.06399989128113,distr,1936.000108718872,Fri Dec 05 2025 14:51:14 GMT-0600 (Central Standard Time),885978.6000000238,B,enter,O,enter,2844,1,2865.5,883113.1000000238,7708,WL,A,11.0
6,60.013999938964844,distr,-13.99993896484375,Fri Dec 05 2025 14:51:14 GMT-0600 (Central Standard Time),887929.2999999523,B,None,O,None,1945,1,1950.3999999761581,885978.8999999762,7708,WL,A,12.0
7,0.8509998321533203,immed,59149.00016784668,Fri Dec 05 2025 14:51:14 GMT-0600 (Central Standard Time),906955.8999999762,A,r,O,r,828,1,850.3999999761581,906105.5,7708,WL,A,1.0
7,1.0179998874664307,immed,58982.00011253357,Fri Dec 05 2025 14:51:14 GMT-0600 (Central Standard Time),907123.1000000238,A,ru,O,u,144,1,1017.6000000238419,906105.5,7708,WL,A,1.0
7,1.2839999198913574,immed,58716.00008010864,Fri Dec 05 2025 14:51:14 GMT-0600 (Central Standard Time),907389.2999999523,A,rug,O,g,226,1,1283.7999999523163,906105.5,7708,WL,A,1.0
7,1.6999998092651367,immed,58300.00019073486,Fri Dec 05 2025 14:51:14 GMT-0600 (Central Standard Time),907804.7999999523,A,rugenter,O,enter,382,1,1699.2999999523163,906105.5,7708,WL,A,1.0
7,2.5839998722076416,immed,57416.00012779236,Fri Dec 05 2025 14:51:14 GMT-0600 (Central Standard Time),908688.7999999523,A,g,O,g,874,1,883.6999999284744,907805.1000000238,7708,WL,A,2.0
7,2.7170000076293945,immed,57282.999992370605,Fri Dec 05 2025 14:51:14 GMT-0600 (Central Standard Time),908822.2000000477,A,go,O,o,113,1,1017.1000000238419,907805.1000000238,7708,WL,A,2.0
7,2.932999849319458,immed,57067.00015068054,Fri Dec 05 2025 14:51:14 GMT-0600 (Central Standard Time),909038.2000000477,A,gol,O,l,180,1,1233.1000000238419,907805.1000000238,7708,WL,A,2.0
7,3.0829999446868896,immed,56917.00005531311,Fri Dec 05 2025 14:51:14 GMT-0600 (Central Standard Time),909188.7999999523,A,gold,O,d,110,1,1383.6999999284744,907805.1000000238,7708,WL,A,2.0
7,3.381999969482422,immed,56618.00003051758,Fri Dec 05 2025 14:51:14 GMT-0600 (Central Standard Time),909487.6000000238,A,goldenter,O,enter,270,1,1682.5,907805.1000000238,7708,WL,A,2.0
7,5.815999984741211,immed,54184.00001525879,Fri Dec 05 2025 14:51:14 GMT-0600 (Central Standard Time),911921.2000000477,A,b,O,b,2423,1,2433.2000000476837,909488.0,7708,WL,A,3.0
7,5.998999834060669,immed,54001.00016593933,Fri Dec 05 2025 14:51:14 GMT-0600 (Central Standard Time),912104.0,A,bo,O,o,155,1,2616.0,909488.0,7708,WL,A,3.0
7,6.198999881744385,immed,53801.000118255615,Fri Dec 05 2025 14:51:14 GMT-0600 (Central Standard Time),912304.1000000238,A,boo,O,o,166,1,2816.100000023842,909488.0,7708,WL,A,3.0
7,6.431999921798706,immed,53568.000078201294,Fri Dec 05 2025 14:51:14 GMT-0600 (Central Standard Time),912537.3999999762,A,book,O,k,197,1,3049.399999976158,909488.0,7708,WL,A,3.0
7,6.7149999141693115,immed,53285.00008583069,Fri Dec 05 2025 14:51:14 GMT-0600 (Central Standard Time),912819.8999999762,A,bookenter,O,enter,249,1,3331.899999976158,909488.0,7708,WL,A,3.0
7,6.998999834060669,immed,53001.00016593933,Fri Dec 05 2025 14:51:14 GMT-0600 (Central Standard Time),913103.7999999523,A,c,O,c,267,1,283.6999999284744,912820.1000000238,7708,WL,A,4.0
7,7.148999929428101,immed,52851.0000705719,Fri Dec 05 2025 14:51:14 GMT-0600 (Central Standard Time),913253.8999999762,A,ch,O,h,126,1,433.7999999523163,912820.1000000238,7708,WL,A,4.0
7,7.381999969482422,immed,52618.00003051758,Fri Dec 05 2025 14:51:14 GMT-0600 (Central Standard Time),913487.2999999523,A,chi,O,i,206,1,667.1999999284744,912820.1000000238,7708,WL,A,4.0
7,7.615000009536743,immed,52384.99999046326,Fri Dec 05 2025 14:51:14 GMT-0600 (Central Standard Time),913720.7000000477,A,chim,O,m,196,1,900.6000000238419,912820.1000000238,7708,WL,A,4.0
7,7.881999969482422,immed,52118.00003051758,Fri Dec 05 2025 14:51:14 GMT-0600 (Central Standard Time),913986.8999999762,A,chimn,O,n,238,1,1166.7999999523163,912820.1000000238,7708,WL,A,4.0
7,8.080999851226807,immed,51919.00014877319,Fri Dec 05 2025 14:51:14 GMT-0600 (Central Standard Time),914186.6000000238,A,chimne,O,e,169,1,1366.5,912820.1000000238,7708,WL,A,4.0
7,8.281999826431274,immed,51718.000173568726,Fri Dec 05 2025 14:51:14 GMT-0600 (Central Standard Time),914387.1000000238,A,chimney,O,y,176,1,1567.0,912820.1000000238,7708,WL,A,4.0
7,8.646999835968018,immed,51353.00016403198,Fri Dec 05 2025 14:51:14 GMT-0600 (Central Standard Time),914752.7000000477,A,chimneyenter,O,enter,328,1,1932.6000000238419,912820.1000000238,7708,WL,A,4.0
7,11.780999898910522,immed,48219.00010108948,Fri Dec 05 2025 14:51:14 GMT-0600 (Central Standard Time),917886.1000000238,A,g,O,g,3126,1,3133.2000000476837,914752.8999999762,7708,WL,A,5.0
7,11.94700002670288,immed,48052.99997329712,Fri Dec 05 2025 14:51:14 GMT-0600 (Central Standard Time),918052.3999999762,A,go,O,o,134,1,3299.5,914752.8999999762,7708,WL,A,5.0
7,12.146999835968018,immed,47853.00016403198,Fri Dec 05 2025 14:51:14 GMT-0600 (Central Standard Time),918252.2000000477,A,gol,O,l,159,1,3499.3000000715256,914752.8999999762,7708,WL,A,5.0
7,12.346999883651733,immed,47653.00011634827,Fri Dec 05 2025 14:51:14 GMT-0600 (Central Standard Time),918452.0,A,gold,O,d,168,1,3699.100000023842,914752.8999999762,7708,WL,A,5.0
7,12.61299991607666,immed,47387.00008392334,Fri Dec 05 2025 14:51:14 GMT-0600 (Central Standard Time),918717.7999999523,A,goldenter,O,enter,240,1,3964.899999976158,914752.8999999762,7708,WL,A,5.0
7,25.542999982833862,immed,34457.00001716614,Fri Dec 05 2025 14:51:14 GMT-0600 (Central Standard Time),931648.0,A,f,O,f,12912,1,12929.899999976158,918718.1000000238,7708,WL,A,6.0
7,25.658999919891357,immed,34341.00008010864,Fri Dec 05 2025 14:51:14 GMT-0600 (Central Standard Time),931764.0,A,fl,O,l,89,1,13045.899999976158,918718.1000000238,7708,WL,A,6.0
7,25.875999927520752,immed,34124.00007247925,Fri Dec 05 2025 14:51:14 GMT-0600 (Central Standard Time),931981.5,A,flo,O,o,191,1,13263.399999976158,918718.1000000238,7708,WL,A,6.0
7,26.05900001525879,immed,33940.99998474121,Fri Dec 05 2025 14:51:14 GMT-0600 (Central Standard Time),932164.2000000477,A,flow,O,w,142,1,13446.100000023842,918718.1000000238,7708,WL,A,6.0
7,26.174999952316284,immed,33825.000047683716,Fri Dec 05 2025 14:51:14 GMT-0600 (Central Standard Time),932280.5,A,flowe,O,e,87,1,13562.399999976158,918718.1000000238,7708,WL,A,6.0
7,26.408999919891357,immed,33591.00008010864,Fri Dec 05 2025 14:51:14 GMT-0600 (Central Standard Time),932514.1000000238,A,flower,O,r,206,1,13796.0,918718.1000000238,7708,WL,A,6.0
7,26.774999856948853,immed,33225.00014305115,Fri Dec 05 2025 14:51:14 GMT-0600 (Central Standard Time),932880.0,A,flowerenter,O,enter,337,1,14161.899999976158,918718.1000000238,7708,WL,A,6.0
7,30.157999992370605,immed,29842.000007629395,Fri Dec 05 2025 14:51:14 GMT-0600 (Central Standard Time),936262.7999999523,A,b,O,b,3366,1,3382.5999999046326,932880.2000000477,7708,WL,A,7.0
7,30.54099988937378,immed,29459.00011062622,Fri Dec 05 2025 14:51:14 GMT-0600 (Central Standard Time),936646.1000000238,A,bo,O,o,350,1,3765.899999976158,932880.2000000477,7708,WL,A,7.0
7,30.756999969482422,immed,29243.000030517578,Fri Dec 05 2025 14:51:14 GMT-0600 (Central Standard Time),936862.3999999762,A,boo,O,o,194,1,3982.1999999284744,932880.2000000477,7708,WL,A,7.0
7,31.073999881744385,immed,28926.000118255615,Fri Dec 05 2025 14:51:14 GMT-0600 (Central Standard Time),937179.7000000477,A,bood,O,d,285,1,4299.5,932880.2000000477,7708,WL,A,7.0
7,31.639999866485596,immed,28360.000133514404,Fri Dec 05 2025 14:51:14 GMT-0600 (Central Standard Time),937745.7000000477,A,boo,O,backspace,537,1,4865.5,932880.2000000477,7708,WL,A,7.0
7,31.990999937057495,immed,28009.000062942505,Fri Dec 05 2025 14:51:14 GMT-0600 (Central Standard Time),938096.2000000477,A,book,O,k,312,1,5216.0,932880.2000000477,7708,WL,A,7.0
7,32.35699987411499,immed,27643.00012588501,Fri Dec 05 2025 14:51:14 GMT-0600 (Central Standard Time),938461.8999999762,A,bookenter,O,enter,339,1,5581.699999928474,932880.2000000477,7708,WL,A,7.0
7,53.901000022888184,immed,6098.999977111816,Fri Dec 05 2025 14:51:14 GMT-0600 (Central Standard Time),960005.5,A,t,O,t,21538,1,21543.399999976158,938462.1000000238,7708,WL,A,8.0
7,54.16699981689453,immed,5833.000183105469,Fri Dec 05 2025 14:51:14 GMT-0600 (Central Standard Time),960271.7000000477,A,tr,O,r,228,1,21809.600000023842,938462.1000000238,7708,WL,A,8.0
7,54.383999824523926,immed,5616.000175476074,Fri Dec 05 2025 14:51:14 GMT-0600 (Central Standard Time),960488.2000000477,A,tra,O,a,189,1,22026.100000023842,938462.1000000238,7708,WL,A,8.0
7,54.549999952316284,immed,5450.000047683716,Fri Dec 05 2025 14:51:14 GMT-0600 (Central Standard Time),960655.0,A,trai,O,i,139,1,22192.899999976158,938462.1000000238,7708,WL,A,8.0
7,54.799999952316284,immed,5200.000047683716,Fri Dec 05 2025 14:51:14 GMT-0600 (Central Standard Time),960904.7999999523,A,train,O,n,222,1,22442.699999928474,938462.1000000238,7708,WL,A,8.0
7,55.14999985694885,immed,4850.0001430511475,Fri Dec 05 2025 14:51:14 GMT-0600 (Central Standard Time),961254.1000000238,A,trainenter,O,enter,313,1,22792.0,938462.1000000238,7708,WL,A,8.0
7,60.014999866485596,immed,-14.999866485595703,Fri Dec 05 2025 14:51:14 GMT-0600 (Central Standard Time),966119.2999999523,A,None,O,None,4859,1,4865.0,961254.2999999523,7708,WL,A,9.0
