acc_sum,block,block_c,change,condition,correct,correct_response,datetime,endtime,face,project,response,response_time,row_sel,session_number,start_end,starttime,subject_id,task,task_vers,trial
0,prac,1,,1-Back,,,Wed Sep 24 2025 18:32:21 GMT-0500 (Central Daylight Time),,012_o_f_d_a.png,I,space,3010,1,2,,,8060,VNB,C,0
1,prac,1,0.0,1-Back,1.0,m,Wed Sep 24 2025 18:32:21 GMT-0500 (Central Daylight Time),97293.5,022_y_f_n_a.png,I,m,744,2,2,1620.2000000029802,95673.29999999702,8060,VNB,C,1
2,prac,1,0.0,1-Back,1.0,m,Wed Sep 24 2025 18:32:21 GMT-0500 (Central Daylight Time),99042.89999999106,014_m_m_h_a.png,I,m,869,3,2,1740.2999999970198,97302.59999999404,8060,VNB,C,2
3,prac,1,0.0,1-Back,1.0,m,Wed Sep 24 2025 18:32:21 GMT-0500 (Central Daylight Time),100475.79999999702,025_y_m_d_a.png,I,m,553,4,2,1423.7000000029802,99052.09999999404,8060,VNB,C,3
4,prac,1,0.0,1-Back,1.0,m,Wed Sep 24 2025 18:32:21 GMT-0500 (Central Daylight Time),102058.59999999404,012_o_f_n_a.png,I,m,693,5,2,1574.7000000029802,100483.89999999106,8060,VNB,C,4
5,prac,1,1.0,1-Back,1.0,z,Wed Sep 24 2025 18:32:21 GMT-0500 (Central Daylight Time),103558.0,025_y_m_n_a.png,I,z,633,6,2,1488.9000000059605,102069.09999999404,8060,VNB,C,5
6,prac,1,0.0,1-Back,1.0,m,Wed Sep 24 2025 18:32:21 GMT-0500 (Central Daylight Time),105057.59999999404,015_o_m_h_a.png,I,m,610,7,2,1490.7999999970198,103566.79999999702,8060,VNB,C,6
7,prac,1,0.0,1-Back,1.0,m,Wed Sep 24 2025 18:32:21 GMT-0500 (Central Daylight Time),106525.0,019_m_f_d_a.png,I,m,570,8,2,1459.0,105066.0,8060,VNB,C,7
8,prac,1,1.0,1-Back,1.0,z,Wed Sep 24 2025 18:32:21 GMT-0500 (Central Daylight Time),108056.59999999404,022_y_f_d_a.png,I,z,632,9,2,1520.5999999940395,106536.0,8060,VNB,C,8
9,prac,1,0.0,1-Back,1.0,m,Wed Sep 24 2025 18:32:21 GMT-0500 (Central Daylight Time),109539.59999999404,014_m_m_n_a.png,I,m,600,10,2,1474.2000000029802,108065.39999999106,8060,VNB,C,9
10,prac,1,0.0,1-Back,1.0,m,Wed Sep 24 2025 18:32:21 GMT-0500 (Central Daylight Time),110955.79999999702,012_o_f_h_a.png,I,m,532,11,2,1408.0,109547.79999999702,8060,VNB,C,10
11,prac,1,0.0,1-Back,1.0,m,Wed Sep 24 2025 18:32:21 GMT-0500 (Central Daylight Time),112355.29999999702,025_y_m_d_a.png,I,m,519,12,2,1389.4000000059605,110965.89999999106,8060,VNB,C,11
0,test,1,0.0,1-Back,,,Wed Sep 24 2025 18:32:21 GMT-0500 (Central Daylight Time),112355.29999999702,022_y_f_d_a.png,I,space,7009,1,2,1389.4000000059605,110965.89999999106,8060,VNB,C,0
1,test,1,0.0,1-Back,1.0,m,Wed Sep 24 2025 18:32:21 GMT-0500 (Central Daylight Time),129466.59999999404,019_m_f_n_a.png,I,m,655,2,2,1676.5,127790.09999999404,8060,VNB,C,1
2,test,1,0.0,1-Back,1.0,m,Wed Sep 24 2025 18:32:21 GMT-0500 (Central Daylight Time),131132.79999999702,015_o_m_h_a.png,I,m,643,3,2,1659.7999999970198,129473.0,8060,VNB,C,2
3,test,1,1.0,1-Back,1.0,z,Wed Sep 24 2025 18:32:21 GMT-0500 (Central Daylight Time),132782.39999999106,014_m_m_h_a.png,I,z,624,4,2,1642.8999999910593,131139.5,8060,VNB,C,3
4,test,1,0.0,1-Back,1.0,m,Wed Sep 24 2025 18:32:21 GMT-0500 (Central Daylight Time),134315.0,012_o_f_n_a.png,I,m,503,5,2,1526.6000000089407,132788.39999999106,8060,VNB,C,4
5,test,1,0.0,1-Back,1.0,m,Wed Sep 24 2025 18:32:21 GMT-0500 (Central Daylight Time),135931.19999998808,025_y_m_d_a.png,I,m,594,6,2,1610.8999999910593,134320.29999999702,8060,VNB,C,5
6,test,1,1.0,1-Back,1.0,z,Wed Sep 24 2025 18:32:21 GMT-0500 (Central Daylight Time),137664.0,019_m_f_d_a.png,I,z,714,7,2,1727.7000000029802,135936.29999999702,8060,VNB,C,6
7,test,1,0.0,1-Back,1.0,m,Wed Sep 24 2025 18:32:21 GMT-0500 (Central Daylight Time),139247.09999999404,022_y_f_h_a.png,I,m,558,8,2,1577.4000000059605,137669.69999998808,8060,VNB,C,7
8,test,1,0.0,1-Back,1.0,m,Wed Sep 24 2025 18:32:21 GMT-0500 (Central Daylight Time),140846.29999999702,015_o_m_n_a.png,I,m,566,9,2,1592.7000000029802,139253.59999999404,8060,VNB,C,8
9,test,1,0.0,1-Back,1.0,m,Wed Sep 24 2025 18:32:21 GMT-0500 (Central Daylight Time),142478.89999999106,025_y_m_h_a.png,I,m,607,10,2,1626.0999999940395,140852.79999999702,8060,VNB,C,9
10,test,1,0.0,1-Back,1.0,m,Wed Sep 24 2025 18:32:21 GMT-0500 (Central Daylight Time),144028.69999998808,015_o_m_d_a.png,I,m,518,11,2,1544.2999999970198,142484.39999999106,8060,VNB,C,10
11,test,1,1.0,1-Back,1.0,z,Wed Sep 24 2025 18:32:21 GMT-0500 (Central Daylight Time),145778.09999999404,012_o_f_d_a.png,I,z,729,12,2,1743.7000000029802,144034.39999999106,8060,VNB,C,11
12,test,1,0.0,1-Back,1.0,m,Wed Sep 24 2025 18:32:21 GMT-0500 (Central Daylight Time),147377.69999998808,014_m_m_n_a.png,I,m,579,13,2,1594.2999999970198,145783.39999999106,8060,VNB,C,12
13,test,1,1.0,1-Back,1.0,z,Wed Sep 24 2025 18:32:21 GMT-0500 (Central Daylight Time),149126.79999999702,022_y_f_n_a.png,I,z,732,14,2,1742.9000000059605,147383.89999999106,8060,VNB,C,13
14,test,1,0.0,1-Back,1.0,m,Wed Sep 24 2025 18:32:21 GMT-0500 (Central Daylight Time),150593.29999999702,019_m_f_h_a.png,I,m,446,15,2,1460.7000000029802,149132.59999999404,8060,VNB,C,14
15,test,1,0.0,1-Back,1.0,m,Wed Sep 24 2025 18:32:21 GMT-0500 (Central Daylight Time),152159.29999999702,014_m_m_d_a.png,I,m,549,16,2,1560.7000000029802,150598.59999999404,8060,VNB,C,15
16,test,1,0.0,1-Back,1.0,m,Wed Sep 24 2025 18:32:21 GMT-0500 (Central Daylight Time),153742.19999998808,025_y_m_n_a.png,I,m,557,17,2,1577.5999999940395,152164.59999999404,8060,VNB,C,16
17,test,1,0.0,1-Back,1.0,m,Wed Sep 24 2025 18:32:21 GMT-0500 (Central Daylight Time),155241.79999999702,012_o_f_h_a.png,I,m,471,18,2,1493.5,153748.29999999702,8060,VNB,C,17
0,test,2,0.0,1-Back,,,Wed Sep 24 2025 18:32:21 GMT-0500 (Central Daylight Time),155241.79999999702,025_y_m_n_a.png,I,space,1355,1,2,1493.5,153748.29999999702,8060,VNB,C,0
1,test,2,0.0,1-Back,1.0,m,Wed Sep 24 2025 18:32:21 GMT-0500 (Central Daylight Time),160223.59999999404,022_y_f_h_a.png,I,m,574,2,2,1594.2999999970198,158629.29999999702,8060,VNB,C,1
2,test,2,1.0,1-Back,1.0,m,Wed Sep 24 2025 18:32:21 GMT-0500 (Central Daylight Time),161789.79999999702,015_o_m_n_a.png,I,m,542,3,2,1559.6000000089407,160230.19999998808,8060,VNB,C,2
3,test,2,0.0,1-Back,1.0,m,Wed Sep 24 2025 18:32:21 GMT-0500 (Central Daylight Time),163389.69999998808,019_m_f_d_a.png,I,m,577,4,2,1594.0999999940395,161795.59999999404,8060,VNB,C,3
4,test,2,0.0,1-Back,1.0,z,Wed Sep 24 2025 18:32:21 GMT-0500 (Central Daylight Time),164922.19999998808,014_m_m_d_a.png,I,z,513,5,2,1527.0999999940395,163395.09999999404,8060,VNB,C,4
5,test,2,0.0,1-Back,1.0,m,Wed Sep 24 2025 18:32:21 GMT-0500 (Central Daylight Time),166554.79999999702,025_y_m_h_a.png,I,m,604,6,2,1625.6000000089407,164929.19999998808,8060,VNB,C,5
6,test,2,1.0,1-Back,1.0,z,Wed Sep 24 2025 18:32:21 GMT-0500 (Central Daylight Time),168187.79999999702,012_o_f_h_a.png,I,z,611,7,2,1627.4000000059605,166560.39999999106,8060,VNB,C,6
7,test,2,0.0,1-Back,1.0,m,Wed Sep 24 2025 18:32:21 GMT-0500 (Central Daylight Time),169720.5,019_m_f_n_a.png,I,m,505,8,2,1526.9000000059605,168193.59999999404,8060,VNB,C,7
8,test,2,0.0,1-Back,1.0,m,Wed Sep 24 2025 18:32:21 GMT-0500 (Central Daylight Time),171503.39999999106,022_y_f_d_a.png,I,m,756,9,2,1776.5999999940395,169726.79999999702,8060,VNB,C,8
9,test,2,0.0,1-Back,1.0,m,Wed Sep 24 2025 18:32:21 GMT-0500 (Central Daylight Time),173069.5,014_m_m_n_a.png,I,m,542,10,2,1560.6000000089407,171508.89999999106,8060,VNB,C,9
10,test,2,1.0,1-Back,1.0,m,Wed Sep 24 2025 18:32:21 GMT-0500 (Central Daylight Time),174669.09999999404,019_m_f_h_a.png,I,m,568,11,2,1594.5,173074.59999999404,8060,VNB,C,10
11,test,2,0.0,1-Back,1.0,z,Wed Sep 24 2025 18:32:21 GMT-0500 (Central Daylight Time),176318.79999999702,015_o_m_h_a.png,I,z,625,12,2,1644.5,174674.29999999702,8060,VNB,C,11
12,test,2,0.0,1-Back,1.0,m,Wed Sep 24 2025 18:32:21 GMT-0500 (Central Daylight Time),177834.79999999702,025_y_m_d_a.png,I,m,487,13,2,1510.2999999970198,176324.5,8060,VNB,C,12
13,test,2,0.0,1-Back,1.0,m,Wed Sep 24 2025 18:32:21 GMT-0500 (Central Daylight Time),179467.5,012_o_f_n_a.png,I,m,611,14,2,1627.2000000029802,177840.29999999702,8060,VNB,C,13
14,test,2,0.0,1-Back,1.0,z,Wed Sep 24 2025 18:32:21 GMT-0500 (Central Daylight Time),181083.59999999404,022_y_f_n_a.png,I,z,595,15,2,1609.7999999970198,179473.79999999702,8060,VNB,C,14
15,test,2,1.0,1-Back,1.0,m,Wed Sep 24 2025 18:32:21 GMT-0500 (Central Daylight Time),182599.59999999404,014_m_m_h_a.png,I,m,499,16,2,1509.9000000059605,181089.69999998808,8060,VNB,C,15
16,test,2,0.0,1-Back,1.0,m,Wed Sep 24 2025 18:32:21 GMT-0500 (Central Daylight Time),184332.79999999702,012_o_f_d_a.png,I,m,710,17,2,1727.4000000059605,182605.39999999106,8060,VNB,C,16
17,test,2,1.0,1-Back,1.0,z,Wed Sep 24 2025 18:32:21 GMT-0500 (Central Daylight Time),186216.09999999404,015_o_m_d_a.png,I,z,865,18,2,1877.7999999970198,184338.29999999702,8060,VNB,C,17
0,test,3,1.0,1-Back,,,Wed Sep 24 2025 18:32:21 GMT-0500 (Central Daylight Time),186216.09999999404,012_o_f_h_a.png,I,space,1182,1,2,1877.7999999970198,184338.29999999702,8060,VNB,C,0
1,test,3,0.0,1-Back,1.0,m,Wed Sep 24 2025 18:32:21 GMT-0500 (Central Daylight Time),192030.19999998808,019_m_f_d_a.png,I,m,1466,2,2,2492.7999999970198,189537.39999999106,8060,VNB,C,1
2,test,3,1.0,1-Back,1.0,m,Wed Sep 24 2025 18:32:21 GMT-0500 (Central Daylight Time),193729.59999999404,014_m_m_n_a.png,I,m,671,3,2,1693.7999999970198,192035.79999999702,8060,VNB,C,2
3,test,3,0.0,1-Back,1.0,z,Wed Sep 24 2025 18:32:21 GMT-0500 (Central Daylight Time),195262.69999998808,012_o_f_n_a.png,I,z,501,4,2,1527.0,193735.69999998808,8060,VNB,C,3
4,test,3,1.0,1-Back,1.0,m,Wed Sep 24 2025 18:32:21 GMT-0500 (Central Daylight Time),196895.39999999106,015_o_m_d_a.png,I,m,600,5,2,1626.5,195268.89999999106,8060,VNB,C,4
5,test,3,0.0,1-Back,1.0,m,Wed Sep 24 2025 18:32:21 GMT-0500 (Central Daylight Time),198461.59999999404,022_y_f_h_a.png,I,m,542,6,2,1559.9000000059605,196901.69999998808,8060,VNB,C,5
6,test,3,0.0,1-Back,1.0,z,Wed Sep 24 2025 18:32:21 GMT-0500 (Central Daylight Time),200027.79999999702,025_y_m_h_a.png,I,z,536,7,2,1560.7000000029802,198467.09999999404,8060,VNB,C,6
7,test,3,0.0,1-Back,1.0,m,Wed Sep 24 2025 18:32:21 GMT-0500 (Central Daylight Time),201477.19999998808,019_m_f_n_a.png,I,m,426,8,2,1443.2999999970198,200033.89999999106,8060,VNB,C,7
8,test,3,0.0,1-Back,1.0,m,Wed Sep 24 2025 18:32:21 GMT-0500 (Central Daylight Time),203026.79999999702,022_y_f_d_a.png,I,m,528,9,2,1543.7000000029802,201483.09999999404,8060,VNB,C,8
9,test,3,1.0,1-Back,1.0,m,Wed Sep 24 2025 18:32:21 GMT-0500 (Central Daylight Time),204859.59999999404,015_o_m_n_a.png,I,m,802,10,2,1827.4000000059605,203032.19999998808,8060,VNB,C,9
9,test,3,0.0,1-Back,0.0,m,Wed Sep 24 2025 18:32:21 GMT-0500 (Central Daylight Time),206459.09999999404,014_m_m_h_a.png,I,z,571,11,2,1592.5999999940395,204866.5,8060,VNB,C,10
10,test,3,0.0,1-Back,1.0,z,Wed Sep 24 2025 18:32:21 GMT-0500 (Central Daylight Time),208158.59999999404,019_m_f_h_a.png,I,z,666,12,2,1693.7999999970198,206464.79999999702,8060,VNB,C,11
11,test,3,1.0,1-Back,1.0,m,Wed Sep 24 2025 18:32:21 GMT-0500 (Central Daylight Time),209874.5,012_o_f_d_a.png,I,m,687,13,2,1708.800000011921,208165.69999998808,8060,VNB,C,12
11,test,3,0.0,1-Back,0.0,z,Wed Sep 24 2025 18:32:21 GMT-0500 (Central Daylight Time),211507.29999999702,014_m_m_d_a.png,I,m,611,14,2,1627.2000000029802,209880.09999999404,8060,VNB,C,13
12,test,3,0.0,1-Back,1.0,m,Wed Sep 24 2025 18:32:21 GMT-0500 (Central Daylight Time),213173.5,025_y_m_n_a.png,I,m,642,15,2,1660.6000000089407,211512.89999999106,8060,VNB,C,14
13,test,3,1.0,1-Back,1.0,m,Wed Sep 24 2025 18:32:21 GMT-0500 (Central Daylight Time),215056.39999999106,015_o_m_h_a.png,I,m,857,16,2,1877.5999999940395,213178.79999999702,8060,VNB,C,15
14,test,3,0.0,1-Back,1.0,m,Wed Sep 24 2025 18:32:21 GMT-0500 (Central Daylight Time),216755.89999999106,025_y_m_d_a.png,I,m,670,17,2,1694.2000000029802,215061.69999998808,8060,VNB,C,16
15,test,3,1.0,1-Back,1.0,m,Wed Sep 24 2025 18:32:21 GMT-0500 (Central Daylight Time),218338.59999999404,022_y_f_n_a.png,I,m,554,18,2,1576.7999999970198,216761.79999999702,8060,VNB,C,17
0,test,4,1.0,1-Back,,,Wed Sep 24 2025 18:32:21 GMT-0500 (Central Daylight Time),218338.59999999404,014_m_m_d_a.png,I,space,1100,1,2,1576.7999999970198,216761.79999999702,8060,VNB,C,0
1,test,4,0.0,1-Back,1.0,z,Wed Sep 24 2025 18:32:21 GMT-0500 (Central Daylight Time),223203.69999998808,015_o_m_d_a.png,I,z,710,2,2,1726.8999999910593,221476.79999999702,8060,VNB,C,1
2,test,4,0.0,1-Back,1.0,m,Wed Sep 24 2025 18:32:21 GMT-0500 (Central Daylight Time),224753.39999999106,025_y_m_h_a.png,I,m,521,3,2,1543.3999999910593,223210.0,8060,VNB,C,2
3,test,4,0.0,1-Back,1.0,m,Wed Sep 24 2025 18:32:21 GMT-0500 (Central Daylight Time),226319.39999999106,019_m_f_n_a.png,I,m,540,4,2,1559.8999999910593,224759.5,8060,VNB,C,3
4,test,4,1.0,1-Back,1.0,m,Wed Sep 24 2025 18:32:21 GMT-0500 (Central Daylight Time),227869.19999998808,012_o_f_h_a.png,I,m,519,5,2,1544.3999999910593,226324.79999999702,8060,VNB,C,4
5,test,4,0.0,1-Back,1.0,m,Wed Sep 24 2025 18:32:21 GMT-0500 (Central Daylight Time),229435.09999999404,014_m_m_n_a.png,I,m,544,6,2,1560.7999999970198,227874.29999999702,8060,VNB,C,5
6,test,4,0.0,1-Back,1.0,m,Wed Sep 24 2025 18:32:21 GMT-0500 (Central Daylight Time),231168.5,025_y_m_d_a.png,I,m,707,7,2,1727.6000000089407,229440.89999999106,8060,VNB,C,6
7,test,4,1.0,1-Back,1.0,z,Wed Sep 24 2025 18:32:21 GMT-0500 (Central Daylight Time),232700.79999999702,022_y_f_d_a.png,I,z,501,8,2,1525.6000000089407,231175.19999998808,8060,VNB,C,7
8,test,4,0.0,1-Back,1.0,m,Wed Sep 24 2025 18:32:21 GMT-0500 (Central Daylight Time),234200.19999998808,019_m_f_h_a.png,I,m,473,9,2,1494.0,232706.19999998808,8060,VNB,C,8
9,test,4,0.0,1-Back,1.0,z,Wed Sep 24 2025 18:32:21 GMT-0500 (Central Daylight Time),235766.29999999702,015_o_m_h_a.png,I,z,542,10,2,1559.2000000029802,234207.09999999404,8060,VNB,C,9
10,test,4,1.0,1-Back,1.0,m,Wed Sep 24 2025 18:32:21 GMT-0500 (Central Daylight Time),237349.09999999404,012_o_f_n_a.png,I,m,550,11,2,1575.0999999940395,235774.0,8060,VNB,C,10
11,test,4,0.0,1-Back,1.0,m,Wed Sep 24 2025 18:32:21 GMT-0500 (Central Daylight Time),238865.69999998808,019_m_f_d_a.png,I,m,488,12,2,1511.0,237354.69999998808,8060,VNB,C,11
12,test,4,0.0,1-Back,1.0,m,Wed Sep 24 2025 18:32:21 GMT-0500 (Central Daylight Time),240415.0,022_y_f_n_a.png,I,m,517,13,2,1542.9000000059605,238872.09999999404,8060,VNB,C,12
13,test,4,0.0,1-Back,1.0,m,Wed Sep 24 2025 18:32:21 GMT-0500 (Central Daylight Time),241931.29999999702,012_o_f_d_a.png,I,m,495,14,2,1511.1000000089407,240420.19999998808,8060,VNB,C,13
14,test,4,0.0,1-Back,1.0,m,Wed Sep 24 2025 18:32:21 GMT-0500 (Central Daylight Time),243830.59999999404,022_y_f_h_a.png,I,m,867,15,2,1894.0,241936.59999999404,8060,VNB,C,14
15,test,4,1.0,1-Back,1.0,z,Wed Sep 24 2025 18:32:21 GMT-0500 (Central Daylight Time),245430.0,014_m_m_h_a.png,I,z,567,16,2,1593.5,243836.5,8060,VNB,C,15
16,test,4,0.0,1-Back,1.0,m,Wed Sep 24 2025 18:32:21 GMT-0500 (Central Daylight Time),247013.0,015_o_m_n_a.png,I,m,559,17,2,1576.7000000029802,245436.29999999702,8060,VNB,C,16
17,test,4,1.0,1-Back,1.0,z,Wed Sep 24 2025 18:32:21 GMT-0500 (Central Daylight Time),248696.89999999106,025_y_m_n_a.png,I,z,665,18,2,1678.2999999970198,247018.59999999404,8060,VNB,C,17
0,test,5,1.0,1-Back,,,Wed Sep 24 2025 18:32:21 GMT-0500 (Central Daylight Time),248696.89999999106,015_o_m_n_a.png,I,space,1014,1,2,1678.2999999970198,247018.59999999404,8060,VNB,C,0
1,test,5,1.0,1-Back,1.0,m,Wed Sep 24 2025 18:32:21 GMT-0500 (Central Daylight Time),253927.59999999404,012_o_f_h_a.png,I,m,1166,2,2,2193.7999999970198,251733.79999999702,8060,VNB,C,1
2,test,5,0.0,1-Back,1.0,m,Wed Sep 24 2025 18:32:21 GMT-0500 (Central Daylight Time),255510.29999999702,025_y_m_d_a.png,I,m,557,3,2,1577.4000000059605,253932.89999999106,8060,VNB,C,2
2,test,5,0.0,1-Back,0.0,z,Wed Sep 24 2025 18:32:21 GMT-0500 (Central Daylight Time),257259.79999999702,015_o_m_d_a.png,I,m,719,4,2,1743.2999999970198,255516.5,8060,VNB,C,3
3,test,5,0.0,1-Back,1.0,m,Wed Sep 24 2025 18:32:21 GMT-0500 (Central Daylight Time),258909.09999999404,019_m_f_h_a.png,I,m,618,5,2,1642.5999999940395,257266.5,8060,VNB,C,4
4,test,5,0.0,1-Back,1.0,m,Wed Sep 24 2025 18:32:21 GMT-0500 (Central Daylight Time),260608.29999999702,022_y_f_n_a.png,I,m,680,6,2,1693.2000000029802,258915.09999999404,8060,VNB,C,5
5,test,5,1.0,1-Back,1.0,z,Wed Sep 24 2025 18:32:21 GMT-0500 (Central Daylight Time),262274.799999997,012_o_f_n_a.png,I,z,645,7,2,1660.9000000059605,260613.89999999106,8060,VNB,C,6
6,test,5,0.0,1-Back,1.0,m,Wed Sep 24 2025 18:32:21 GMT-0500 (Central Daylight Time),263907.59999999404,019_m_f_d_a.png,I,m,603,8,2,1626.5999999940395,262281.0,8060,VNB,C,7
7,test,5,0.0,1-Back,1.0,m,Wed Sep 24 2025 18:32:21 GMT-0500 (Central Daylight Time),265407.1999999881,025_y_m_h_a.png,I,m,483,9,2,1493.8999999910593,263913.299999997,8060,VNB,C,8
8,test,5,0.0,1-Back,1.0,m,Wed Sep 24 2025 18:32:21 GMT-0500 (Central Daylight Time),267073.299999997,022_y_f_d_a.png,I,m,646,10,2,1661.4000000059605,265411.89999999106,8060,VNB,C,9
9,test,5,0.0,1-Back,1.0,m,Wed Sep 24 2025 18:32:21 GMT-0500 (Central Daylight Time),268855.89999999106,014_m_m_n_a.png,I,m,765,11,2,1776.3999999910593,267079.5,8060,VNB,C,10
10,test,5,1.0,1-Back,1.0,z,Wed Sep 24 2025 18:32:21 GMT-0500 (Central Daylight Time),270422.39999999106,019_m_f_n_a.png,I,z,549,12,2,1561.2999999970198,268861.09999999404,8060,VNB,C,11
11,test,5,0.0,1-Back,1.0,m,Wed Sep 24 2025 18:32:21 GMT-0500 (Central Daylight Time),271921.6999999881,015_o_m_h_a.png,I,m,479,13,2,1493.5,270428.1999999881,8060,VNB,C,12
12,test,5,0.0,1-Back,1.0,z,Wed Sep 24 2025 18:32:21 GMT-0500 (Central Daylight Time),273404.6999999881,014_m_m_h_a.png,I,z,460,14,2,1477.7999999970198,271926.89999999106,8060,VNB,C,13
13,test,5,1.0,1-Back,1.0,m,Wed Sep 24 2025 18:32:21 GMT-0500 (Central Daylight Time),274921.0,012_o_f_d_a.png,I,m,498,15,2,1510.7000000029802,273410.299999997,8060,VNB,C,14
14,test,5,0.0,1-Back,1.0,m,Wed Sep 24 2025 18:32:21 GMT-0500 (Central Daylight Time),276737.0,025_y_m_n_a.png,I,m,797,16,2,1809.1000000089407,274927.89999999106,8060,VNB,C,15
15,test,5,0.0,1-Back,1.0,m,Wed Sep 24 2025 18:32:21 GMT-0500 (Central Daylight Time),278253.09999999404,022_y_f_h_a.png,I,m,492,17,2,1511.2000000029802,276741.89999999106,8060,VNB,C,16
16,test,5,0.0,1-Back,1.0,m,Wed Sep 24 2025 18:32:21 GMT-0500 (Central Daylight Time),279802.5,014_m_m_d_a.png,I,m,520,18,2,1543.800000011921,278258.6999999881,8060,VNB,C,17
0,prac,1,0.0,2-Back,,,Wed Sep 24 2025 18:32:21 GMT-0500 (Central Daylight Time),279802.5,019_m_f_n_a.png,I,space,3177,1,2,1543.800000011921,278258.6999999881,8060,VNB,C,0
0,prac,1,0.0,2-Back,,,Wed Sep 24 2025 18:32:21 GMT-0500 (Central Daylight Time),279802.5,012_o_f_h_a.png,I,space,3177,2,2,1543.800000011921,278258.6999999881,8060,VNB,C,0
1,prac,1,0.0,2-Back,1.0,m,Wed Sep 24 2025 18:32:21 GMT-0500 (Central Daylight Time),399298.59999999404,015_o_m_d_a.png,I,m,909,3,2,1789.2999999970198,397509.299999997,8060,VNB,C,1
2,prac,1,1.0,2-Back,1.0,z,Wed Sep 24 2025 18:32:21 GMT-0500 (Central Daylight Time),400864.799999997,014_m_m_h_a.png,I,z,686,4,2,1558.1000000089407,399306.6999999881,8060,VNB,C,2
2,prac,1,0.0,2-Back,0.0,m,Wed Sep 24 2025 18:32:21 GMT-0500 (Central Daylight Time),402671.89999999106,022_y_f_n_a.png,I,z,791,5,2,1796.8999999910593,400875.0,8060,VNB,C,3
2,prac,1,1.0,2-Back,0.0,z,Wed Sep 24 2025 18:32:21 GMT-0500 (Central Daylight Time),404713.5,015_o_m_h_a.png,I,m,1251,6,2,2030.800000011921,402682.6999999881,8060,VNB,C,4
3,prac,1,1.0,2-Back,1.0,z,Wed Sep 24 2025 18:32:21 GMT-0500 (Central Daylight Time),406763.0,025_y_m_n_a.png,I,z,1170,7,2,2038.300000011921,404724.6999999881,8060,VNB,C,5
4,prac,1,0.0,2-Back,1.0,m,Wed Sep 24 2025 18:32:21 GMT-0500 (Central Daylight Time),408479.09999999404,019_m_f_d_a.png,I,m,821,8,2,1707.0999999940395,406772.0,8060,VNB,C,6
5,prac,1,0.0,2-Back,1.0,m,Wed Sep 24 2025 18:32:21 GMT-0500 (Central Daylight Time),410245.6999999881,012_o_f_d_a.png,I,m,881,9,2,1759.0999999940395,408486.59999999404,8060,VNB,C,7
6,prac,1,0.0,2-Back,1.0,m,Wed Sep 24 2025 18:32:21 GMT-0500 (Central Daylight Time),411711.299999997,014_m_m_h_a.png,I,m,688,10,2,1457.7000000029802,410253.59999999404,8060,VNB,C,8
7,prac,1,1.0,2-Back,1.0,z,Wed Sep 24 2025 18:32:21 GMT-0500 (Central Daylight Time),413360.5,022_y_f_d_a.png,I,z,758,11,2,1641.9000000059605,411718.59999999404,8060,VNB,C,9
8,prac,1,0.0,2-Back,1.0,m,Wed Sep 24 2025 18:32:21 GMT-0500 (Central Daylight Time),415443.5,015_o_m_n_a.png,I,m,1174,12,2,2072.6000000089407,413370.89999999106,8060,VNB,C,10
0,test,1,0.0,2-Back,,,Wed Sep 24 2025 18:32:21 GMT-0500 (Central Daylight Time),415443.5,025_y_m_h_a.png,I,space,15638,1,2,2072.6000000089407,413370.89999999106,8060,VNB,C,0
0,test,1,0.0,2-Back,,,Wed Sep 24 2025 18:32:21 GMT-0500 (Central Daylight Time),415443.5,012_o_f_n_a.png,I,space,15638,2,2,2072.6000000089407,413370.89999999106,8060,VNB,C,0
1,test,1,0.0,2-Back,1.0,z,Wed Sep 24 2025 18:32:21 GMT-0500 (Central Daylight Time),444651.0,015_o_m_h_a.png,I,z,720,3,2,1744.1000000089407,442906.89999999106,8060,VNB,C,1
2,test,1,0.0,2-Back,1.0,m,Wed Sep 24 2025 18:32:21 GMT-0500 (Central Daylight Time),446350.1999999881,019_m_f_d_a.png,I,m,682,4,2,1693.3999999910593,444656.799999997,8060,VNB,C,2
3,test,1,1.0,2-Back,1.0,m,Wed Sep 24 2025 18:32:21 GMT-0500 (Central Daylight Time),448049.89999999106,025_y_m_n_a.png,I,m,672,5,2,1694.2000000029802,446355.6999999881,8060,VNB,C,3
4,test,1,0.0,2-Back,1.0,z,Wed Sep 24 2025 18:32:21 GMT-0500 (Central Daylight Time),449582.799999997,022_y_f_d_a.png,I,z,517,6,2,1527.1000000089407,448055.6999999881,8060,VNB,C,4
4,test,1,0.0,2-Back,0.0,m,Wed Sep 24 2025 18:32:21 GMT-0500 (Central Daylight Time),451248.89999999106,014_m_m_h_a.png,I,z,647,7,2,1661.0999999940395,449587.799999997,8060,VNB,C,5
5,test,1,1.0,2-Back,1.0,m,Wed Sep 24 2025 18:32:21 GMT-0500 (Central Daylight Time),453098.1999999881,022_y_f_n_a.png,I,m,821,8,2,1843.5,451254.6999999881,8060,VNB,C,6
6,test,1,0.0,2-Back,1.0,z,Wed Sep 24 2025 18:32:21 GMT-0500 (Central Daylight Time),454664.39999999106,012_o_f_h_a.png,I,z,547,9,2,1560.8999999910593,453103.5,8060,VNB,C,7
7,test,1,0.0,2-Back,1.0,m,Wed Sep 24 2025 18:32:21 GMT-0500 (Central Daylight Time),456347.299999997,015_o_m_d_a.png,I,m,654,10,2,1677.7000000029802,454669.59999999404,8060,VNB,C,8
8,test,1,1.0,2-Back,1.0,m,Wed Sep 24 2025 18:32:21 GMT-0500 (Central Daylight Time),458363.299999997,014_m_m_d_a.png,I,m,986,11,2,2010.9000000059605,456352.39999999106,8060,VNB,C,9
8,test,1,0.0,2-Back,0.0,m,Wed Sep 24 2025 18:32:21 GMT-0500 (Central Daylight Time),460412.6999999881,019_m_f_n_a.png,I,z,1017,12,2,2044.2999999970198,458368.39999999106,8060,VNB,C,10
9,test,1,0.0,2-Back,1.0,m,Wed Sep 24 2025 18:32:21 GMT-0500 (Central Daylight Time),462328.59999999404,022_y_f_h_a.png,I,m,897,13,2,1910.2999999970198,460418.299999997,8060,VNB,C,11
10,test,1,0.0,2-Back,1.0,z,Wed Sep 24 2025 18:32:21 GMT-0500 (Central Daylight Time),463894.89999999106,014_m_m_n_a.png,I,z,534,14,2,1559.8999999910593,462335.0,8060,VNB,C,12
11,test,1,0.0,2-Back,1.0,m,Wed Sep 24 2025 18:32:21 GMT-0500 (Central Daylight Time),465894.299999997,025_y_m_d_a.png,I,m,966,15,2,1994.4000000059605,463899.89999999106,8060,VNB,C,13
11,test,1,1.0,2-Back,0.0,m,Wed Sep 24 2025 18:32:21 GMT-0500 (Central Daylight Time),467710.39999999106,019_m_f_h_a.png,I,z,784,16,2,1810.3999999910593,465900.0,8060,VNB,C,14
11,test,1,0.0,2-Back,0.0,z,Wed Sep 24 2025 18:32:21 GMT-0500 (Central Daylight Time),469859.59999999404,012_o_f_d_a.png,I,m,1128,17,2,2144.0999999940395,467715.5,8060,VNB,C,15
12,test,1,0.0,2-Back,1.0,m,Wed Sep 24 2025 18:32:21 GMT-0500 (Central Daylight Time),471959.6999999881,015_o_m_n_a.png,I,m,1074,18,2,2094.5,469865.1999999881,8060,VNB,C,16
0,test,2,0.0,2-Back,,,Wed Sep 24 2025 18:32:21 GMT-0500 (Central Daylight Time),471959.6999999881,014_m_m_h_a.png,I,space,3926,1,2,2094.5,469865.1999999881,8060,VNB,C,0
0,test,2,0.0,2-Back,,,Wed Sep 24 2025 18:32:21 GMT-0500 (Central Daylight Time),471959.6999999881,022_y_f_n_a.png,I,space,3926,2,2,2094.5,469865.1999999881,8060,VNB,C,0
1,test,2,1.0,2-Back,1.0,z,Wed Sep 24 2025 18:32:21 GMT-0500 (Central Daylight Time),482639.39999999106,012_o_f_h_a.png,I,z,498,3,2,1510.7999999970198,481128.59999999404,8060,VNB,C,1
2,test,2,0.0,2-Back,1.0,m,Wed Sep 24 2025 18:32:21 GMT-0500 (Central Daylight Time),484272.1999999881,015_o_m_d_a.png,I,m,606,4,2,1627.199999988079,482645.0,8060,VNB,C,2
3,test,2,0.0,2-Back,1.0,m,Wed Sep 24 2025 18:32:21 GMT-0500 (Central Daylight Time),486054.59999999404,019_m_f_d_a.png,I,m,750,5,2,1777.0,484277.59999999404,8060,VNB,C,3
3,test,2,0.0,2-Back,0.0,m,Wed Sep 24 2025 18:32:21 GMT-0500 (Central Daylight Time),487837.1999999881,025_y_m_h_a.png,I,z,751,6,2,1777.699999988079,486059.5,8060,VNB,C,4
4,test,2,0.0,2-Back,1.0,m,Wed Sep 24 2025 18:32:21 GMT-0500 (Central Daylight Time),489720.0,012_o_f_n_a.png,I,m,856,7,2,1877.300000011921,487842.6999999881,8060,VNB,C,5
5,test,2,1.0,2-Back,1.0,z,Wed Sep 24 2025 18:32:21 GMT-0500 (Central Daylight Time),491352.799999997,015_o_m_h_a.png,I,z,605,8,2,1627.0,489725.799999997,8060,VNB,C,6
6,test,2,0.0,2-Back,1.0,m,Wed Sep 24 2025 18:32:21 GMT-0500 (Central Daylight Time),492935.5,022_y_f_d_a.png,I,m,557,9,2,1576.800000011921,491358.6999999881,8060,VNB,C,7
7,test,2,0.0,2-Back,1.0,m,Wed Sep 24 2025 18:32:21 GMT-0500 (Central Daylight Time),494768.59999999404,025_y_m_d_a.png,I,m,805,10,2,1827.7000000029802,492940.89999999106,8060,VNB,C,8
7,test,2,0.0,2-Back,0.0,m,Wed Sep 24 2025 18:32:21 GMT-0500 (Central Daylight Time),496468.09999999404,014_m_m_n_a.png,I,z,669,11,2,1693.5999999940395,494774.5,8060,VNB,C,9
7,test,2,0.0,2-Back,0.0,m,Wed Sep 24 2025 18:32:21 GMT-0500 (Central Daylight Time),498500.799999997,019_m_f_h_a.png,I,z,1001,12,2,2026.7999999970198,496474.0,8060,VNB,C,10
8,test,2,1.0,2-Back,1.0,z,Wed Sep 24 2025 18:32:21 GMT-0500 (Central Daylight Time),500366.6999999881,015_o_m_n_a.png,I,z,841,13,2,1860.5999999940395,498506.09999999404,8060,VNB,C,11
9,test,2,0.0,2-Back,1.0,m,Wed Sep 24 2025 18:32:21 GMT-0500 (Central Daylight Time),501999.5,012_o_f_d_a.png,I,m,607,14,2,1627.5,500372.0,8060,VNB,C,12
10,test,2,0.0,2-Back,1.0,m,Wed Sep 24 2025 18:32:21 GMT-0500 (Central Daylight Time),503699.1999999881,022_y_f_h_a.png,I,m,670,15,2,1693.699999988079,502005.5,8060,VNB,C,13
11,test,2,0.0,2-Back,1.0,z,Wed Sep 24 2025 18:32:21 GMT-0500 (Central Daylight Time),505182.0,014_m_m_d_a.png,I,z,458,16,2,1477.4000000059605,503704.59999999404,8060,VNB,C,14
12,test,2,0.0,2-Back,1.0,m,Wed Sep 24 2025 18:32:21 GMT-0500 (Central Daylight Time),506948.0,025_y_m_n_a.png,I,m,743,17,2,1760.9000000059605,505187.09999999404,8060,VNB,C,15
13,test,2,1.0,2-Back,1.0,m,Wed Sep 24 2025 18:32:21 GMT-0500 (Central Daylight Time),509347.299999997,019_m_f_n_a.png,I,m,1370,18,2,2393.2999999970198,506954.0,8060,VNB,C,16
0,test,3,1.0,2-Back,,,Wed Sep 24 2025 18:32:21 GMT-0500 (Central Daylight Time),509347.299999997,015_o_m_n_a.png,I,space,3354,1,2,2393.2999999970198,506954.0,8060,VNB,C,0
0,test,3,1.0,2-Back,,,Wed Sep 24 2025 18:32:21 GMT-0500 (Central Daylight Time),509347.299999997,012_o_f_d_a.png,I,space,3354,2,2,2393.2999999970198,506954.0,8060,VNB,C,0
1,test,3,0.0,2-Back,1.0,m,Wed Sep 24 2025 18:32:21 GMT-0500 (Central Daylight Time),519510.6999999881,022_y_f_h_a.png,I,m,724,3,2,1743.5,517767.1999999881,8060,VNB,C,1
1,test,3,0.0,2-Back,0.0,z,Wed Sep 24 2025 18:32:21 GMT-0500 (Central Daylight Time),521477.59999999404,019_m_f_d_a.png,I,m,935,4,2,1962.0,519515.59999999404,8060,VNB,C,2
2,test,3,1.0,2-Back,1.0,m,Wed Sep 24 2025 18:32:21 GMT-0500 (Central Daylight Time),523126.5,025_y_m_n_a.png,I,m,625,5,2,1643.9000000059605,521482.59999999404,8060,VNB,C,3
3,test,3,0.0,2-Back,1.0,m,Wed Sep 24 2025 18:32:21 GMT-0500 (Central Daylight Time),525127.5,015_o_m_h_a.png,I,m,975,6,2,1995.4000000059605,523132.09999999404,8060,VNB,C,4
4,test,3,0.0,2-Back,1.0,z,Wed Sep 24 2025 18:32:21 GMT-0500 (Central Daylight Time),527025.099999994,022_y_f_n_a.png,I,z,872,7,2,1892.0,525133.099999994,8060,VNB,C,5
5,test,3,1.0,2-Back,1.0,m,Wed Sep 24 2025 18:32:21 GMT-0500 (Central Daylight Time),528708.0,014_m_m_d_a.png,I,m,652,8,2,1677.6000000089407,527030.3999999911,8060,VNB,C,6
6,test,3,0.0,2-Back,1.0,m,Wed Sep 24 2025 18:32:21 GMT-0500 (Central Daylight Time),530373.8999999911,025_y_m_d_a.png,I,m,642,9,2,1660.7999999970198,528713.099999994,8060,VNB,C,7
7,test,3,0.0,2-Back,1.0,m,Wed Sep 24 2025 18:32:21 GMT-0500 (Central Daylight Time),532106.8999999911,012_o_f_h_a.png,I,m,703,10,2,1728.0,530378.8999999911,8060,VNB,C,8
8,test,3,1.0,2-Back,1.0,m,Wed Sep 24 2025 18:32:21 GMT-0500 (Central Daylight Time),534142.099999994,019_m_f_n_a.png,I,m,1011,11,2,2030.2000000029802,532111.8999999911,8060,VNB,C,9
9,test,3,1.0,2-Back,1.0,z,Wed Sep 24 2025 18:32:21 GMT-0500 (Central Daylight Time),535705.6999999881,014_m_m_h_a.png,I,z,547,12,2,1557.5,534148.1999999881,8060,VNB,C,10
10,test,3,0.0,2-Back,1.0,m,Wed Sep 24 2025 18:32:21 GMT-0500 (Central Daylight Time),537338.5,022_y_f_d_a.png,I,m,604,13,2,1626.2000000029802,535712.299999997,8060,VNB,C,11
11,test,3,0.0,2-Back,1.0,m,Wed Sep 24 2025 18:32:21 GMT-0500 (Central Daylight Time),539304.5,012_o_f_n_a.png,I,m,939,14,2,1960.0,537344.5,8060,VNB,C,12
12,test,3,0.0,2-Back,1.0,z,Wed Sep 24 2025 18:32:21 GMT-0500 (Central Daylight Time),540937.3999999911,015_o_m_d_a.png,I,z,605,15,2,1627.0,539310.3999999911,8060,VNB,C,13
13,test,3,1.0,2-Back,1.0,m,Wed Sep 24 2025 18:32:21 GMT-0500 (Central Daylight Time),542853.3999999911,019_m_f_h_a.png,I,m,884,16,2,1909.2999999970198,540944.099999994,8060,VNB,C,14
14,test,3,0.0,2-Back,1.0,m,Wed Sep 24 2025 18:32:21 GMT-0500 (Central Daylight Time),545169.3999999911,014_m_m_n_a.png,I,m,1296,17,2,2310.8999999910593,542858.5,8060,VNB,C,15
15,test,3,0.0,2-Back,1.0,z,Wed Sep 24 2025 18:32:21 GMT-0500 (Central Daylight Time),547068.799999997,025_y_m_h_a.png,I,z,869,18,2,1894.0,545174.799999997,8060,VNB,C,16
0,test,4,0.0,2-Back,,,Wed Sep 24 2025 18:32:21 GMT-0500 (Central Daylight Time),547068.799999997,019_m_f_n_a.png,I,space,3361,1,2,1894.0,545174.799999997,8060,VNB,C,0
0,test,4,0.0,2-Back,,,Wed Sep 24 2025 18:32:21 GMT-0500 (Central Daylight Time),547068.799999997,015_o_m_n_a.png,I,space,3361,2,2,1894.0,545174.799999997,8060,VNB,C,0
1,test,4,1.0,2-Back,1.0,m,Wed Sep 24 2025 18:32:21 GMT-0500 (Central Daylight Time),557482.1999999881,025_y_m_h_a.png,I,m,771,3,2,1794.5,555687.6999999881,8060,VNB,C,1
2,test,4,1.0,2-Back,1.0,m,Wed Sep 24 2025 18:32:21 GMT-0500 (Central Daylight Time),559231.299999997,012_o_f_d_a.png,I,m,731,4,2,1743.7999999970198,557487.5,8060,VNB,C,2
3,test,4,0.0,2-Back,1.0,z,Wed Sep 24 2025 18:32:21 GMT-0500 (Central Daylight Time),560814.299999997,015_o_m_h_a.png,I,z,566,5,2,1578.0,559236.299999997,8060,VNB,C,3
4,test,4,0.0,2-Back,1.0,m,Wed Sep 24 2025 18:32:21 GMT-0500 (Central Daylight Time),562431.3999999911,014_m_m_n_a.png,I,m,599,6,2,1611.3999999910593,560820.0,8060,VNB,C,4
5,test,4,0.0,2-Back,1.0,m,Wed Sep 24 2025 18:32:21 GMT-0500 (Central Daylight Time),564263.3999999911,019_m_f_d_a.png,I,m,807,7,2,1825.5999999940395,562437.799999997,8060,VNB,C,5
6,test,4,0.0,2-Back,1.0,z,Wed Sep 24 2025 18:32:21 GMT-0500 (Central Daylight Time),566412.6999999881,022_y_f_n_a.png,I,z,1126,8,2,2143.0999999940395,564269.599999994,8060,VNB,C,6
7,test,4,1.0,2-Back,1.0,m,Wed Sep 24 2025 18:32:21 GMT-0500 (Central Daylight Time),568162.0,012_o_f_h_a.png,I,m,712,9,2,1743.2000000029802,566418.799999997,8060,VNB,C,7
8,test,4,0.0,2-Back,1.0,m,Wed Sep 24 2025 18:32:21 GMT-0500 (Central Daylight Time),569778.299999997,014_m_m_h_a.png,I,m,595,10,2,1610.5,568167.799999997,8060,VNB,C,8
9,test,4,0.0,2-Back,1.0,m,Wed Sep 24 2025 18:32:21 GMT-0500 (Central Daylight Time),571544.5,022_y_f_d_a.png,I,m,739,11,2,1760.300000011921,569784.1999999881,8060,VNB,C,9
10,test,4,0.0,2-Back,1.0,m,Wed Sep 24 2025 18:32:21 GMT-0500 (Central Daylight Time),573277.0,025_y_m_n_a.png,I,m,701,12,2,1727.300000011921,571549.6999999881,8060,VNB,C,10
11,test,4,0.0,2-Back,1.0,z,Wed Sep 24 2025 18:32:21 GMT-0500 (Central Daylight Time),574960.099999994,015_o_m_d_a.png,I,z,664,13,2,1676.9000000059605,573283.1999999881,8060,VNB,C,11
12,test,4,1.0,2-Back,1.0,m,Wed Sep 24 2025 18:32:21 GMT-0500 (Central Daylight Time),576742.8999999911,019_m_f_h_a.png,I,m,766,14,2,1777.5,574965.3999999911,8060,VNB,C,12
13,test,4,1.0,2-Back,1.0,m,Wed Sep 24 2025 18:32:21 GMT-0500 (Central Daylight Time),578975.1999999881,022_y_f_h_a.png,I,m,1207,15,2,2226.5,576748.6999999881,8060,VNB,C,13
14,test,4,0.0,2-Back,1.0,m,Wed Sep 24 2025 18:32:21 GMT-0500 (Central Daylight Time),580624.799999997,012_o_f_n_a.png,I,m,631,16,2,1644.5,578980.299999997,8060,VNB,C,14
15,test,4,0.0,2-Back,1.0,m,Wed Sep 24 2025 18:32:21 GMT-0500 (Central Daylight Time),582340.799999997,025_y_m_d_a.png,I,m,684,17,2,1710.5,580630.299999997,8060,VNB,C,15
16,test,4,1.0,2-Back,1.0,m,Wed Sep 24 2025 18:32:21 GMT-0500 (Central Daylight Time),584290.1999999881,014_m_m_d_a.png,I,m,928,18,2,1942.699999988079,582347.5,8060,VNB,C,16
0,test,5,1.0,2-Back,,,Wed Sep 24 2025 18:32:21 GMT-0500 (Central Daylight Time),584290.1999999881,022_y_f_d_a.png,I,space,1404,1,2,1942.699999988079,582347.5,8060,VNB,C,0
0,test,5,1.0,2-Back,,,Wed Sep 24 2025 18:32:21 GMT-0500 (Central Daylight Time),584290.1999999881,012_o_f_h_a.png,I,space,1404,2,2,1942.699999988079,582347.5,8060,VNB,C,0
1,test,5,1.0,2-Back,1.0,z,Wed Sep 24 2025 18:32:21 GMT-0500 (Central Daylight Time),592621.0,015_o_m_d_a.png,I,z,640,3,2,1660.7000000029802,590960.299999997,8060,VNB,C,1
2,test,5,1.0,2-Back,1.0,m,Wed Sep 24 2025 18:32:21 GMT-0500 (Central Daylight Time),594437.299999997,019_m_f_n_a.png,I,m,784,4,2,1810.0,592627.299999997,8060,VNB,C,2
3,test,5,0.0,2-Back,1.0,m,Wed Sep 24 2025 18:32:21 GMT-0500 (Central Daylight Time),596137.6999999881,014_m_m_h_a.png,I,m,681,5,2,1695.0,594442.6999999881,8060,VNB,C,3
4,test,5,0.0,2-Back,1.0,z,Wed Sep 24 2025 18:32:21 GMT-0500 (Central Daylight Time),597719.5,022_y_f_n_a.png,I,z,565,6,2,1576.4000000059605,596143.099999994,8060,VNB,C,4
5,test,5,0.0,2-Back,1.0,m,Wed Sep 24 2025 18:32:21 GMT-0500 (Central Daylight Time),599435.6999999881,012_o_f_d_a.png,I,m,686,7,2,1709.8999999910593,597725.799999997,8060,VNB,C,5
5,test,5,0.0,2-Back,0.0,m,Wed Sep 24 2025 18:32:21 GMT-0500 (Central Daylight Time),601151.799999997,015_o_m_h_a.png,I,z,690,8,2,1711.0,599440.799999997,8060,VNB,C,6
5,test,5,1.0,2-Back,0.0,z,Wed Sep 24 2025 18:32:21 GMT-0500 (Central Daylight Time),603050.8999999911,019_m_f_d_a.png,I,m,879,9,2,1894.5,601156.3999999911,8060,VNB,C,7
6,test,5,0.0,2-Back,1.0,m,Wed Sep 24 2025 18:32:21 GMT-0500 (Central Daylight Time),604917.099999994,025_y_m_n_a.png,I,m,834,10,2,1858.7999999970198,603058.299999997,8060,VNB,C,8
7,test,5,0.0,2-Back,1.0,m,Wed Sep 24 2025 18:32:21 GMT-0500 (Central Daylight Time),606516.8999999911,014_m_m_n_a.png,I,m,568,11,2,1595.8999999910593,604921.0,8060,VNB,C,9
8,test,5,0.0,2-Back,1.0,m,Wed Sep 24 2025 18:32:21 GMT-0500 (Central Daylight Time),608099.6999999881,022_y_f_h_a.png,I,m,552,12,2,1578.3999999910593,606521.299999997,8060,VNB,C,10
8,test,5,0.0,2-Back,0.0,m,Wed Sep 24 2025 18:32:21 GMT-0500 (Central Daylight Time),609817.299999997,025_y_m_d_a.png,I,z,699,13,2,1711.5,608105.799999997,8060,VNB,C,11
9,test,5,1.0,2-Back,1.0,z,Wed Sep 24 2025 18:32:21 GMT-0500 (Central Daylight Time),611748.5,019_m_f_h_a.png,I,z,902,14,2,1927.0,609821.5,8060,VNB,C,12
10,test,5,0.0,2-Back,1.0,m,Wed Sep 24 2025 18:32:21 GMT-0500 (Central Daylight Time),613781.1999999881,015_o_m_n_a.png,I,m,1010,15,2,2029.0,611752.1999999881,8060,VNB,C,13
11,test,5,0.0,2-Back,1.0,m,Wed Sep 24 2025 18:32:21 GMT-0500 (Central Daylight Time),615897.099999994,014_m_m_d_a.png,I,m,1088,16,2,2111.9000000059605,613785.1999999881,8060,VNB,C,14
12,test,5,0.0,2-Back,1.0,z,Wed Sep 24 2025 18:32:21 GMT-0500 (Central Daylight Time),617596.799999997,012_o_f_n_a.png,I,z,676,17,2,1695.9000000059605,615900.8999999911,8060,VNB,C,15
13,test,5,1.0,2-Back,1.0,m,Wed Sep 24 2025 18:32:21 GMT-0500 (Central Daylight Time),619230.299999997,025_y_m_h_a.png,I,m,600,18,2,1629.4000000059605,617600.8999999911,8060,VNB,C,16
