acc_sum,block,block_c,change,condition,correct,correct_response,datetime,endtime,face,project,response,response_time,row_sel,session_number,start_end,starttime,subject_id,task,task_vers,trial
0,prac,1,,1-Back,,,Fri Mar 27 2026 09:29:04 GMT-0500 (Central Daylight Time),,050_m_f_n_a.png,O,space,14669,1,1,,,7788,NNB,A,0
1,prac,1,0.0,1-Back,1.0,m,Fri Mar 27 2026 09:29:04 GMT-0500 (Central Daylight Time),196787.80000019073,063_y_f_n_a.png,O,m,851,2,1,1655.5,195132.30000019073,7788,NNB,A,1
2,prac,1,1.0,1-Back,1.0,z,Fri Mar 27 2026 09:29:04 GMT-0500 (Central Daylight Time),199071.80000019073,063_y_f_n_a.png,O,z,1498,3,1,2278.7000000476837,196793.10000014305,7788,NNB,A,2
3,prac,1,0.0,1-Back,1.0,m,Fri Mar 27 2026 09:29:04 GMT-0500 (Central Daylight Time),200822.60000014305,053_o_m_n_a.png,O,m,954,4,1,1743.4000000953674,199079.20000004768,7788,NNB,A,3
4,prac,1,0.0,1-Back,1.0,m,Fri Mar 27 2026 09:29:04 GMT-0500 (Central Daylight Time),202955.40000009537,058_m_m_n_a.png,O,m,1344,5,1,2123.7999999523163,200831.60000014305,7788,NNB,A,4
5,prac,1,1.0,1-Back,1.0,z,Fri Mar 27 2026 09:29:04 GMT-0500 (Central Daylight Time),204520.20000004768,058_m_m_n_a.png,O,z,775,6,1,1556.7000000476837,202963.5,7788,NNB,A,5
6,prac,1,0.0,1-Back,1.0,m,Fri Mar 27 2026 09:29:04 GMT-0500 (Central Daylight Time),206135.80000019073,047_o_f_n_a.png,O,m,840,7,1,1605.2000000476837,204530.60000014305,7788,NNB,A,6
7,prac,1,0.0,1-Back,1.0,m,Fri Mar 27 2026 09:29:04 GMT-0500 (Central Daylight Time),207869.80000019073,045_m_m_n_a.png,O,m,948,8,1,1725.8000001907349,206144.0,7788,NNB,A,7
8,prac,1,0.0,1-Back,1.0,m,Fri Mar 27 2026 09:29:04 GMT-0500 (Central Daylight Time),209435.80000019073,050_m_f_n_a.png,O,m,775,9,1,1557.8000001907349,207878.0,7788,NNB,A,8
9,prac,1,1.0,1-Back,1.0,z,Fri Mar 27 2026 09:29:04 GMT-0500 (Central Daylight Time),210951.30000019073,050_m_f_n_a.png,O,z,740,10,1,1507.7000000476837,209443.60000014305,7788,NNB,A,9
10,prac,1,0.0,1-Back,1.0,m,Fri Mar 27 2026 09:29:04 GMT-0500 (Central Daylight Time),212934.80000019073,053_o_m_n_a.png,O,m,1206,11,1,1973.0,210961.80000019073,7788,NNB,A,10
11,prac,1,0.0,1-Back,1.0,m,Fri Mar 27 2026 09:29:04 GMT-0500 (Central Daylight Time),214599.80000019073,010_y_f_n_a.png,O,m,837,12,1,1655.8000001907349,212944.0,7788,NNB,A,11
0,test,1,0.0,1-Back,,,Fri Mar 27 2026 09:29:04 GMT-0500 (Central Daylight Time),214599.80000019073,063_y_f_n_a.png,O,space,13535,1,1,1655.8000001907349,212944.0,7788,NNB,A,0
1,test,1,0.0,1-Back,1.0,m,Fri Mar 27 2026 09:29:04 GMT-0500 (Central Daylight Time),259984.80000019073,043_m_f_n_a.png,O,m,476,2,1,1488.4000000953674,258496.40000009537,7788,NNB,A,1
2,test,1,0.0,1-Back,1.0,m,Fri Mar 27 2026 09:29:04 GMT-0500 (Central Daylight Time),261853.40000009537,010_y_f_n_a.png,O,m,843,3,1,1863.4000000953674,259990.0,7788,NNB,A,2
3,test,1,1.0,1-Back,1.0,z,Fri Mar 27 2026 09:29:04 GMT-0500 (Central Daylight Time),263418.5,010_y_f_n_a.png,O,z,536,4,1,1555.6999998092651,261862.80000019073,7788,NNB,A,3
4,test,1,0.0,1-Back,1.0,m,Fri Mar 27 2026 09:29:04 GMT-0500 (Central Daylight Time),265333.40000009537,043_m_f_n_a.png,O,m,898,5,1,1905.9000000953674,263427.5,7788,NNB,A,4
5,test,1,0.0,1-Back,1.0,m,Fri Mar 27 2026 09:29:04 GMT-0500 (Central Daylight Time),267116.7000000477,053_o_m_n_a.png,O,m,750,6,1,1774.8999998569489,265341.80000019073,7788,NNB,A,5
6,test,1,1.0,1-Back,1.0,z,Fri Mar 27 2026 09:29:04 GMT-0500 (Central Daylight Time),268915.60000014305,053_o_m_n_a.png,O,z,767,7,1,1792.4000000953674,267123.2000000477,7788,NNB,A,6
7,test,1,0.0,1-Back,1.0,m,Fri Mar 27 2026 09:29:04 GMT-0500 (Central Daylight Time),270999.5,058_m_m_n_a.png,O,m,1056,8,1,2077.5,268922.0,7788,NNB,A,7
8,test,1,0.0,1-Back,1.0,m,Fri Mar 27 2026 09:29:04 GMT-0500 (Central Daylight Time),272831.5,047_o_f_n_a.png,O,m,804,9,1,1824.0999999046326,271007.40000009537,7788,NNB,A,8
9,test,1,0.0,1-Back,1.0,m,Fri Mar 27 2026 09:29:04 GMT-0500 (Central Daylight Time),274581.10000014305,058_m_m_n_a.png,O,m,725,10,1,1743.5,272837.60000014305,7788,NNB,A,9
10,test,1,0.0,1-Back,1.0,m,Fri Mar 27 2026 09:29:04 GMT-0500 (Central Daylight Time),276396.90000009537,041_y_m_n_a.png,O,m,789,11,1,1808.9000000953674,274588.0,7788,NNB,A,10
11,test,1,1.0,1-Back,1.0,z,Fri Mar 27 2026 09:29:04 GMT-0500 (Central Daylight Time),278197.30000019073,041_y_m_n_a.png,O,z,775,12,1,1792.6000001430511,276404.7000000477,7788,NNB,A,11
12,test,1,0.0,1-Back,1.0,m,Fri Mar 27 2026 09:29:04 GMT-0500 (Central Daylight Time),280129.10000014305,044_o_f_n_a.png,O,m,911,13,1,1924.7999999523163,278204.30000019073,7788,NNB,A,12
13,test,1,1.0,1-Back,1.0,z,Fri Mar 27 2026 09:29:04 GMT-0500 (Central Daylight Time),282045.5,044_o_f_n_a.png,O,z,898,14,1,1908.5,280137.0,7788,NNB,A,13
14,test,1,0.0,1-Back,1.0,m,Fri Mar 27 2026 09:29:04 GMT-0500 (Central Daylight Time),284011.90000009537,008_y_m_n_a.png,O,m,935,15,1,1960.7999999523163,282051.10000014305,7788,NNB,A,14
15,test,1,0.0,1-Back,1.0,m,Fri Mar 27 2026 09:29:04 GMT-0500 (Central Daylight Time),285793.80000019073,050_m_f_n_a.png,O,m,751,16,1,1774.4000000953674,284019.40000009537,7788,NNB,A,15
16,test,1,0.0,1-Back,1.0,m,Fri Mar 27 2026 09:29:04 GMT-0500 (Central Daylight Time),287543.7000000477,046_o_m_n_a.png,O,m,729,17,1,1742.0,285801.7000000477,7788,NNB,A,16
17,test,1,0.0,1-Back,1.0,m,Fri Mar 27 2026 09:29:04 GMT-0500 (Central Daylight Time),289293.5,050_m_f_n_a.png,O,m,716,18,1,1742.5,287551.0,7788,NNB,A,17
0,test,2,0.0,1-Back,,,Fri Mar 27 2026 09:29:04 GMT-0500 (Central Daylight Time),289293.5,058_m_m_n_a.png,O,space,6622,1,1,1742.5,287551.0,7788,NNB,A,0
1,test,2,0.0,1-Back,1.0,m,Fri Mar 27 2026 09:29:04 GMT-0500 (Central Daylight Time),299472.7000000477,043_m_f_n_a.png,O,m,499,2,1,1523.7999999523163,297948.90000009537,7788,NNB,A,1
2,test,2,1.0,1-Back,1.0,z,Fri Mar 27 2026 09:29:04 GMT-0500 (Central Daylight Time),301772.7000000477,043_m_f_n_a.png,O,z,1276,3,1,2294.0,299478.7000000477,7788,NNB,A,2
3,test,2,0.0,1-Back,1.0,m,Fri Mar 27 2026 09:29:04 GMT-0500 (Central Daylight Time),303704.60000014305,058_m_m_n_a.png,O,m,904,4,1,1925.4000000953674,301779.2000000477,7788,NNB,A,3
4,test,2,0.0,1-Back,1.0,m,Fri Mar 27 2026 09:29:04 GMT-0500 (Central Daylight Time),305637.7000000477,041_y_m_n_a.png,O,m,907,5,1,1925.5,303712.2000000477,7788,NNB,A,4
5,test,2,0.0,1-Back,1.0,m,Fri Mar 27 2026 09:29:04 GMT-0500 (Central Daylight Time),307387.40000009537,063_y_f_n_a.png,O,m,718,6,1,1743.0,305644.40000009537,7788,NNB,A,5
6,test,2,1.0,1-Back,1.0,z,Fri Mar 27 2026 09:29:04 GMT-0500 (Central Daylight Time),309169.5,063_y_f_n_a.png,O,z,750,7,1,1775.2999999523163,307394.2000000477,7788,NNB,A,6
7,test,2,0.0,1-Back,1.0,m,Fri Mar 27 2026 09:29:04 GMT-0500 (Central Daylight Time),311036.7000000477,041_y_m_n_a.png,O,m,835,8,1,1859.3999998569489,309177.30000019073,7788,NNB,A,7
8,test,2,0.0,1-Back,1.0,m,Fri Mar 27 2026 09:29:04 GMT-0500 (Central Daylight Time),312886.0,044_o_f_n_a.png,O,m,834,9,1,1840.6999998092651,311045.30000019073,7788,NNB,A,8
9,test,2,0.0,1-Back,1.0,m,Fri Mar 27 2026 09:29:04 GMT-0500 (Central Daylight Time),314584.40000009537,045_m_m_n_a.png,O,m,674,10,1,1692.5999999046326,312891.80000019073,7788,NNB,A,9
9,test,2,1.0,1-Back,0.0,z,Fri Mar 27 2026 09:29:04 GMT-0500 (Central Daylight Time),316784.10000014305,045_m_m_n_a.png,O,m,1168,11,1,2191.9000000953674,314592.2000000477,7788,NNB,A,10
10,test,2,0.0,1-Back,1.0,m,Fri Mar 27 2026 09:29:04 GMT-0500 (Central Daylight Time),318699.7000000477,044_o_f_n_a.png,O,m,882,12,1,1912.0999999046326,316787.60000014305,7788,NNB,A,11
11,test,2,0.0,1-Back,1.0,m,Fri Mar 27 2026 09:29:04 GMT-0500 (Central Daylight Time),320532.5,047_o_f_n_a.png,O,m,807,13,1,1825.3999998569489,318707.10000014305,7788,NNB,A,12
12,test,2,0.0,1-Back,1.0,m,Fri Mar 27 2026 09:29:04 GMT-0500 (Central Daylight Time),322383.5,053_o_m_n_a.png,O,m,833,14,1,1844.2999999523163,320539.2000000477,7788,NNB,A,13
13,test,2,0.0,1-Back,1.0,m,Fri Mar 27 2026 09:29:04 GMT-0500 (Central Daylight Time),324214.80000019073,046_o_m_n_a.png,O,m,803,15,1,1825.4000000953674,322389.40000009537,7788,NNB,A,14
14,test,2,1.0,1-Back,1.0,z,Fri Mar 27 2026 09:29:04 GMT-0500 (Central Daylight Time),326096.40000009537,046_o_m_n_a.png,O,z,860,16,1,1873.7000000476837,324222.7000000477,7788,NNB,A,15
15,test,2,0.0,1-Back,1.0,m,Fri Mar 27 2026 09:29:04 GMT-0500 (Central Daylight Time),327930.40000009537,008_y_m_n_a.png,O,m,809,17,1,1829.5999999046326,326100.80000019073,7788,NNB,A,16
16,test,2,1.0,1-Back,1.0,z,Fri Mar 27 2026 09:29:04 GMT-0500 (Central Daylight Time),330163.80000019073,008_y_m_n_a.png,O,z,1201,18,1,2226.9000000953674,327936.90000009537,7788,NNB,A,17
0,test,3,1.0,1-Back,,,Fri Mar 27 2026 09:29:04 GMT-0500 (Central Daylight Time),330163.80000019073,010_y_f_n_a.png,O,space,14816,1,1,2226.9000000953674,327936.90000009537,7788,NNB,A,0
1,test,3,0.0,1-Back,1.0,m,Fri Mar 27 2026 09:29:04 GMT-0500 (Central Daylight Time),348924.0,046_o_m_n_a.png,O,m,841,2,1,1863.5,347060.5,7788,NNB,A,1
2,test,3,1.0,1-Back,1.0,z,Fri Mar 27 2026 09:29:04 GMT-0500 (Central Daylight Time),350707.5,046_o_m_n_a.png,O,z,751,3,1,1776.0,348931.5,7788,NNB,A,2
3,test,3,0.0,1-Back,1.0,m,Fri Mar 27 2026 09:29:04 GMT-0500 (Central Daylight Time),352390.7000000477,050_m_f_n_a.png,O,m,666,4,1,1676.3999998569489,350714.30000019073,7788,NNB,A,3
4,test,3,1.0,1-Back,1.0,z,Fri Mar 27 2026 09:29:04 GMT-0500 (Central Daylight Time),354307.0,050_m_f_n_a.png,O,z,893,5,1,1909.2999999523163,352397.7000000477,7788,NNB,A,4
5,test,3,0.0,1-Back,1.0,m,Fri Mar 27 2026 09:29:04 GMT-0500 (Central Daylight Time),356071.30000019073,044_o_f_n_a.png,O,m,736,6,1,1757.7000000476837,354313.60000014305,7788,NNB,A,5
6,test,3,0.0,1-Back,1.0,m,Fri Mar 27 2026 09:29:04 GMT-0500 (Central Daylight Time),357971.10000014305,041_y_m_n_a.png,O,m,877,7,1,1893.7000000476837,356077.40000009537,7788,NNB,A,6
7,test,3,0.0,1-Back,1.0,m,Fri Mar 27 2026 09:29:04 GMT-0500 (Central Daylight Time),360019.90000009537,044_o_f_n_a.png,O,m,1016,8,1,2041.5999999046326,357978.30000019073,7788,NNB,A,7
8,test,3,0.0,1-Back,1.0,m,Fri Mar 27 2026 09:29:04 GMT-0500 (Central Daylight Time),361770.40000009537,008_y_m_n_a.png,O,m,721,9,1,1742.4000000953674,360028.0,7788,NNB,A,8
9,test,3,1.0,1-Back,1.0,z,Fri Mar 27 2026 09:29:04 GMT-0500 (Central Daylight Time),363668.40000009537,008_y_m_n_a.png,O,z,874,10,1,1890.0,361778.40000009537,7788,NNB,A,9
10,test,3,0.0,1-Back,1.0,m,Fri Mar 27 2026 09:29:04 GMT-0500 (Central Daylight Time),365768.90000009537,043_m_f_n_a.png,O,m,1071,11,1,2093.5999999046326,363675.30000019073,7788,NNB,A,10
11,test,3,0.0,1-Back,1.0,m,Fri Mar 27 2026 09:29:04 GMT-0500 (Central Daylight Time),367533.90000009537,063_y_f_n_a.png,O,m,745,12,1,1756.0,365777.90000009537,7788,NNB,A,11
12,test,3,1.0,1-Back,1.0,z,Fri Mar 27 2026 09:29:04 GMT-0500 (Central Daylight Time),369099.5,063_y_f_n_a.png,O,z,540,13,1,1557.2999999523163,367542.2000000477,7788,NNB,A,12
13,test,3,0.0,1-Back,1.0,m,Fri Mar 27 2026 09:29:04 GMT-0500 (Central Daylight Time),370882.90000009537,043_m_f_n_a.png,O,m,759,14,1,1776.4000000953674,369106.5,7788,NNB,A,13
14,test,3,0.0,1-Back,1.0,m,Fri Mar 27 2026 09:29:04 GMT-0500 (Central Daylight Time),372649.80000019073,058_m_m_n_a.png,O,m,736,15,1,1758.6000001430511,370891.2000000477,7788,NNB,A,14
15,test,3,1.0,1-Back,1.0,z,Fri Mar 27 2026 09:29:04 GMT-0500 (Central Daylight Time),374449.30000019073,058_m_m_n_a.png,O,z,769,16,1,1789.7000000476837,372659.60000014305,7788,NNB,A,15
16,test,3,0.0,1-Back,1.0,m,Fri Mar 27 2026 09:29:04 GMT-0500 (Central Daylight Time),376199.0,047_o_f_n_a.png,O,m,721,17,1,1742.0999999046326,374456.90000009537,7788,NNB,A,16
17,test,3,1.0,1-Back,1.0,z,Fri Mar 27 2026 09:29:04 GMT-0500 (Central Daylight Time),378015.7000000477,047_o_f_n_a.png,O,z,789,18,1,1808.7999999523163,376206.90000009537,7788,NNB,A,17
0,test,4,1.0,1-Back,,,Fri Mar 27 2026 09:29:04 GMT-0500 (Central Daylight Time),378015.7000000477,050_m_f_n_a.png,O,space,4366,1,1,1808.7999999523163,376206.90000009537,7788,NNB,A,0
1,test,4,0.0,1-Back,1.0,m,Fri Mar 27 2026 09:29:04 GMT-0500 (Central Daylight Time),386077.90000009537,046_o_m_n_a.png,O,m,636,2,1,1658.2000000476837,384419.7000000477,7788,NNB,A,1
2,test,4,0.0,1-Back,1.0,m,Fri Mar 27 2026 09:29:04 GMT-0500 (Central Daylight Time),388211.2000000477,050_m_f_n_a.png,O,m,1104,3,1,2126.399999856949,386084.80000019073,7788,NNB,A,2
3,test,4,0.0,1-Back,1.0,m,Fri Mar 27 2026 09:29:04 GMT-0500 (Central Daylight Time),390111.0,044_o_f_n_a.png,O,m,872,4,1,1893.0,388218.0,7788,NNB,A,3
4,test,4,1.0,1-Back,1.0,z,Fri Mar 27 2026 09:29:04 GMT-0500 (Central Daylight Time),391860.60000014305,044_o_f_n_a.png,O,z,732,5,1,1742.2999999523163,390118.30000019073,7788,NNB,A,4
5,test,4,0.0,1-Back,1.0,m,Fri Mar 27 2026 09:29:04 GMT-0500 (Central Daylight Time),393627.0,063_y_f_n_a.png,O,m,734,6,1,1758.0999999046326,391868.90000009537,7788,NNB,A,5
6,test,4,0.0,1-Back,1.0,m,Fri Mar 27 2026 09:29:04 GMT-0500 (Central Daylight Time),395392.80000019073,041_y_m_n_a.png,O,m,744,7,1,1760.5,393632.30000019073,7788,NNB,A,6
7,test,4,1.0,1-Back,1.0,z,Fri Mar 27 2026 09:29:04 GMT-0500 (Central Daylight Time),397208.0,041_y_m_n_a.png,O,z,783,8,1,1808.1999998092651,395399.80000019073,7788,NNB,A,7
8,test,4,0.0,1-Back,1.0,m,Fri Mar 27 2026 09:29:04 GMT-0500 (Central Daylight Time),399007.10000014305,063_y_f_n_a.png,O,m,780,9,1,1793.5,397213.60000014305,7788,NNB,A,8
9,test,4,0.0,1-Back,1.0,m,Fri Mar 27 2026 09:29:04 GMT-0500 (Central Daylight Time),400974.40000009537,045_m_m_n_a.png,O,m,939,10,1,1961.5,399012.90000009537,7788,NNB,A,9
10,test,4,1.0,1-Back,1.0,z,Fri Mar 27 2026 09:29:04 GMT-0500 (Central Daylight Time),402573.90000009537,045_m_m_n_a.png,O,z,581,11,1,1591.7999999523163,400982.10000014305,7788,NNB,A,10
11,test,4,0.0,1-Back,1.0,m,Fri Mar 27 2026 09:29:04 GMT-0500 (Central Daylight Time),404324.80000019073,047_o_f_n_a.png,O,m,733,12,1,1744.9000000953674,402579.90000009537,7788,NNB,A,11
12,test,4,0.0,1-Back,1.0,m,Fri Mar 27 2026 09:29:04 GMT-0500 (Central Daylight Time),405989.10000014305,053_o_m_n_a.png,O,m,642,13,1,1657.2000000476837,404331.90000009537,7788,NNB,A,12
13,test,4,0.0,1-Back,1.0,m,Fri Mar 27 2026 09:29:04 GMT-0500 (Central Daylight Time),407721.10000014305,047_o_f_n_a.png,O,m,700,14,1,1726.0,405995.10000014305,7788,NNB,A,13
14,test,4,0.0,1-Back,1.0,m,Fri Mar 27 2026 09:29:04 GMT-0500 (Central Daylight Time),409404.80000019073,010_y_f_n_a.png,O,m,660,15,1,1676.7000000476837,407728.10000014305,7788,NNB,A,14
15,test,4,1.0,1-Back,1.0,z,Fri Mar 27 2026 09:29:04 GMT-0500 (Central Daylight Time),411203.90000009537,010_y_f_n_a.png,O,z,775,16,1,1794.2000000476837,409409.7000000477,7788,NNB,A,15
16,test,4,0.0,1-Back,1.0,m,Fri Mar 27 2026 09:29:04 GMT-0500 (Central Daylight Time),413003.0,043_m_f_n_a.png,O,m,775,17,1,1793.2999999523163,411209.7000000477,7788,NNB,A,16
17,test,4,1.0,1-Back,1.0,z,Fri Mar 27 2026 09:29:04 GMT-0500 (Central Daylight Time),414821.40000009537,043_m_f_n_a.png,O,z,800,18,1,1810.2000000476837,413011.2000000477,7788,NNB,A,17
0,test,5,1.0,1-Back,,,Fri Mar 27 2026 09:29:04 GMT-0500 (Central Daylight Time),414821.40000009537,053_o_m_n_a.png,O,space,2903,1,1,1810.2000000476837,413011.2000000477,7788,NNB,A,0
0,test,5,1.0,1-Back,0.0,z,Fri Mar 27 2026 09:29:04 GMT-0500 (Central Daylight Time),421617.40000009537,053_o_m_n_a.png,O,m,835,2,1,1857.7000000476837,419759.7000000477,7788,NNB,A,1
1,test,5,0.0,1-Back,1.0,m,Fri Mar 27 2026 09:29:04 GMT-0500 (Central Daylight Time),423701.5,063_y_f_n_a.png,O,m,1065,3,1,2076.699999809265,421624.80000019073,7788,NNB,A,2
2,test,5,0.0,1-Back,1.0,m,Fri Mar 27 2026 09:29:04 GMT-0500 (Central Daylight Time),425849.2000000477,041_y_m_n_a.png,O,m,1127,4,1,2142.5999999046326,423706.60000014305,7788,NNB,A,3
3,test,5,0.0,1-Back,1.0,m,Fri Mar 27 2026 09:29:04 GMT-0500 (Central Daylight Time),427999.7000000477,063_y_f_n_a.png,O,m,1133,5,1,2145.399999856949,425854.30000019073,7788,NNB,A,4
4,test,5,0.0,1-Back,1.0,m,Fri Mar 27 2026 09:29:04 GMT-0500 (Central Daylight Time),429948.0,058_m_m_n_a.png,O,m,926,6,1,1941.2999999523163,428006.7000000477,7788,NNB,A,5
4,test,5,1.0,1-Back,0.0,z,Fri Mar 27 2026 09:29:04 GMT-0500 (Central Daylight Time),432397.40000009537,058_m_m_n_a.png,O,m,1423,7,1,2441.2999999523163,429956.10000014305,7788,NNB,A,6
5,test,5,0.0,1-Back,1.0,m,Fri Mar 27 2026 09:29:04 GMT-0500 (Central Daylight Time),434415.10000014305,010_y_f_n_a.png,O,m,1000,8,1,2012.0,432403.10000014305,7788,NNB,A,7
6,test,5,0.0,1-Back,1.0,m,Fri Mar 27 2026 09:29:04 GMT-0500 (Central Daylight Time),436130.10000014305,008_y_m_n_a.png,O,m,693,9,1,1709.1000001430511,434421.0,7788,NNB,A,8
7,test,5,0.0,1-Back,1.0,m,Fri Mar 27 2026 09:29:04 GMT-0500 (Central Daylight Time),438397.10000014305,010_y_f_n_a.png,O,m,1250,10,1,2262.2000000476837,436134.90000009537,7788,NNB,A,9
8,test,5,0.0,1-Back,1.0,m,Fri Mar 27 2026 09:29:04 GMT-0500 (Central Daylight Time),440427.60000014305,047_o_f_n_a.png,O,m,1007,11,1,2024.7999999523163,438402.80000019073,7788,NNB,A,10
9,test,5,1.0,1-Back,1.0,z,Fri Mar 27 2026 09:29:04 GMT-0500 (Central Daylight Time),442310.60000014305,047_o_f_n_a.png,O,z,856,12,1,1875.4000000953674,440435.2000000477,7788,NNB,A,11
10,test,5,0.0,1-Back,1.0,m,Fri Mar 27 2026 09:29:04 GMT-0500 (Central Daylight Time),444359.80000019073,046_o_m_n_a.png,O,m,1019,13,1,2043.1000001430511,442316.7000000477,7788,NNB,A,12
11,test,5,0.0,1-Back,1.0,m,Fri Mar 27 2026 09:29:04 GMT-0500 (Central Daylight Time),446509.60000014305,050_m_f_n_a.png,O,m,1132,14,1,2143.600000143051,444366.0,7788,NNB,A,13
12,test,5,1.0,1-Back,1.0,z,Fri Mar 27 2026 09:29:04 GMT-0500 (Central Daylight Time),448144.0,050_m_f_n_a.png,O,z,619,15,1,1629.1999998092651,446514.80000019073,7788,NNB,A,14
13,test,5,0.0,1-Back,1.0,m,Fri Mar 27 2026 09:29:04 GMT-0500 (Central Daylight Time),450025.40000009537,046_o_m_n_a.png,O,m,862,16,1,1876.7999999523163,448148.60000014305,7788,NNB,A,15
14,test,5,0.0,1-Back,1.0,m,Fri Mar 27 2026 09:29:04 GMT-0500 (Central Daylight Time),452108.40000009537,043_m_f_n_a.png,O,m,1050,17,1,2076.0,450032.40000009537,7788,NNB,A,16
15,test,5,0.0,1-Back,1.0,m,Fri Mar 27 2026 09:29:04 GMT-0500 (Central Daylight Time),453808.2000000477,045_m_m_n_a.png,O,m,666,18,1,1692.3999998569489,452115.80000019073,7788,NNB,A,17
0,prac,1,0.0,2-Back,,,Fri Mar 27 2026 09:29:04 GMT-0500 (Central Daylight Time),453808.2000000477,008_y_m_n_a.png,O,space,21742,1,1,1692.3999998569489,452115.80000019073,7788,NNB,A,0
0,prac,1,0.0,2-Back,,,Fri Mar 27 2026 09:29:04 GMT-0500 (Central Daylight Time),453808.2000000477,043_m_f_n_a.png,O,space,21742,2,1,1692.3999998569489,452115.80000019073,7788,NNB,A,0
1,prac,1,1.0,2-Back,1.0,m,Fri Mar 27 2026 09:29:04 GMT-0500 (Central Daylight Time),654828.2000000477,046_o_m_n_a.png,O,m,1505,3,1,2276.0999999046326,652552.100000143,7788,NNB,A,1
2,prac,1,0.0,2-Back,1.0,m,Fri Mar 27 2026 09:29:04 GMT-0500 (Central Daylight Time),656676.8000001907,047_o_f_n_a.png,O,m,1042,4,1,1840.2000000476837,654836.600000143,7788,NNB,A,2
3,prac,1,0.0,2-Back,1.0,z,Fri Mar 27 2026 09:29:04 GMT-0500 (Central Daylight Time),658409.8000001907,046_o_m_n_a.png,O,z,951,5,1,1725.0,656684.8000001907,7788,NNB,A,3
4,prac,1,1.0,2-Back,1.0,z,Fri Mar 27 2026 09:29:04 GMT-0500 (Central Daylight Time),660659.4000000954,047_o_f_n_a.png,O,z,1457,6,1,2240.2000000476837,658419.2000000477,7788,NNB,A,4
5,prac,1,0.0,2-Back,1.0,m,Fri Mar 27 2026 09:29:04 GMT-0500 (Central Daylight Time),662674.8000001907,045_m_m_n_a.png,O,m,1222,7,1,2007.6000001430511,660667.2000000477,7788,NNB,A,5
6,prac,1,0.0,2-Back,1.0,m,Fri Mar 27 2026 09:29:04 GMT-0500 (Central Daylight Time),664323.600000143,053_o_m_n_a.png,O,m,845,8,1,1642.7999999523163,662680.8000001907,7788,NNB,A,6
7,prac,1,0.0,2-Back,1.0,m,Fri Mar 27 2026 09:29:04 GMT-0500 (Central Daylight Time),666073.7000000477,010_y_f_n_a.png,O,m,915,9,1,1741.5999999046326,664332.100000143,7788,NNB,A,7
8,prac,1,1.0,2-Back,1.0,z,Fri Mar 27 2026 09:29:04 GMT-0500 (Central Daylight Time),667855.5,053_o_m_n_a.png,O,z,994,10,1,1773.2999999523163,666082.2000000477,7788,NNB,A,8
9,prac,1,0.0,2-Back,1.0,m,Fri Mar 27 2026 09:29:04 GMT-0500 (Central Daylight Time),669689.5,063_y_f_n_a.png,O,m,1017,11,1,1825.0,667864.5,7788,NNB,A,9
10,prac,1,0.0,2-Back,1.0,m,Fri Mar 27 2026 09:29:04 GMT-0500 (Central Daylight Time),671387.9000000954,045_m_m_n_a.png,O,m,915,12,1,1690.7999999523163,669697.100000143,7788,NNB,A,10
0,test,1,0.0,2-Back,,,Fri Mar 27 2026 09:29:04 GMT-0500 (Central Daylight Time),671387.9000000954,041_y_m_n_a.png,O,space,48502,1,1,1690.7999999523163,669697.100000143,7788,NNB,A,0
0,test,1,0.0,2-Back,,,Fri Mar 27 2026 09:29:04 GMT-0500 (Central Daylight Time),671387.9000000954,041_y_m_n_a.png,O,space,48502,2,1,1690.7999999523163,669697.100000143,7788,NNB,A,0
1,test,1,0.0,2-Back,1.0,m,Fri Mar 27 2026 09:29:04 GMT-0500 (Central Daylight Time),793915.7000000477,047_o_f_n_a.png,O,m,876,3,1,1890.7999999523163,792024.9000000954,7788,NNB,A,1
2,test,1,0.0,2-Back,1.0,m,Fri Mar 27 2026 09:29:04 GMT-0500 (Central Daylight Time),795731.3000001907,058_m_m_n_a.png,O,m,792,4,1,1808.9000000953674,793922.4000000954,7788,NNB,A,2
3,test,1,1.0,2-Back,1.0,z,Fri Mar 27 2026 09:29:04 GMT-0500 (Central Daylight Time),797647.8000001907,047_o_f_n_a.png,O,z,882,5,1,1909.9000000953674,795737.9000000954,7788,NNB,A,3
4,test,1,0.0,2-Back,1.0,m,Fri Mar 27 2026 09:29:04 GMT-0500 (Central Daylight Time),799680.8000001907,063_y_f_n_a.png,O,m,999,6,1,2026.8000001907349,797654.0,7788,NNB,A,4
4,test,1,0.0,2-Back,0.0,m,Fri Mar 27 2026 09:29:04 GMT-0500 (Central Daylight Time),801896.4000000954,058_m_m_n_a.png,O,z,1199,7,1,2209.7999999523163,799686.600000143,7788,NNB,A,5
5,test,1,1.0,2-Back,1.0,z,Fri Mar 27 2026 09:29:04 GMT-0500 (Central Daylight Time),803979.9000000954,063_y_f_n_a.png,O,z,1050,8,1,2076.4000000953674,801903.5,7788,NNB,A,6
6,test,1,0.0,2-Back,1.0,m,Fri Mar 27 2026 09:29:04 GMT-0500 (Central Daylight Time),805977.3000001907,008_y_m_n_a.png,O,m,975,9,1,1989.9000000953674,803987.4000000954,7788,NNB,A,7
7,test,1,0.0,2-Back,1.0,m,Fri Mar 27 2026 09:29:04 GMT-0500 (Central Daylight Time),808077.9000000954,044_o_f_n_a.png,O,m,1076,10,1,2094.9000000953674,805983.0,7788,NNB,A,8
8,test,1,1.0,2-Back,1.0,z,Fri Mar 27 2026 09:29:04 GMT-0500 (Central Daylight Time),810493.4000000954,008_y_m_n_a.png,O,z,1384,11,1,2411.0999999046326,808082.3000001907,7788,NNB,A,9
9,test,1,0.0,2-Back,1.0,m,Fri Mar 27 2026 09:29:04 GMT-0500 (Central Daylight Time),812494.0,043_m_f_n_a.png,O,m,984,12,1,1992.5,810501.5,7788,NNB,A,10
10,test,1,0.0,2-Back,1.0,m,Fri Mar 27 2026 09:29:04 GMT-0500 (Central Daylight Time),815192.9000000954,043_m_f_n_a.png,O,m,1677,13,1,2691.5999999046326,812501.3000001907,7788,NNB,A,11
11,test,1,0.0,2-Back,1.0,m,Fri Mar 27 2026 09:29:04 GMT-0500 (Central Daylight Time),817275.7000000477,046_o_m_n_a.png,O,m,1050,14,1,2077.7000000476837,815198.0,7788,NNB,A,12
11,test,1,0.0,2-Back,0.0,m,Fri Mar 27 2026 09:29:04 GMT-0500 (Central Daylight Time),820073.8000001907,044_o_f_n_a.png,O,z,1777,15,1,2792.2000000476837,817281.600000143,7788,NNB,A,13
12,test,1,1.0,2-Back,1.0,z,Fri Mar 27 2026 09:29:04 GMT-0500 (Central Daylight Time),822506.8000001907,046_o_m_n_a.png,O,z,1402,16,1,2427.4000000953674,820079.4000000954,7788,NNB,A,14
13,test,1,0.0,2-Back,1.0,m,Fri Mar 27 2026 09:29:04 GMT-0500 (Central Daylight Time),824855.3000001907,050_m_f_n_a.png,O,m,1321,17,1,2342.100000143051,822513.2000000477,7788,NNB,A,15
14,test,1,0.0,2-Back,1.0,m,Fri Mar 27 2026 09:29:04 GMT-0500 (Central Daylight Time),826939.3000001907,045_m_m_n_a.png,O,m,1053,18,1,2079.2000000476837,824860.100000143,7788,NNB,A,16
0,test,2,0.0,2-Back,,,Fri Mar 27 2026 09:29:04 GMT-0500 (Central Daylight Time),826939.3000001907,045_m_m_n_a.png,O,space,8931,1,1,2079.2000000476837,824860.100000143,7788,NNB,A,0
0,test,2,0.0,2-Back,,,Fri Mar 27 2026 09:29:04 GMT-0500 (Central Daylight Time),826939.3000001907,010_y_f_n_a.png,O,space,8931,2,1,2079.2000000476837,824860.100000143,7788,NNB,A,0
1,test,2,1.0,2-Back,1.0,z,Fri Mar 27 2026 09:29:04 GMT-0500 (Central Daylight Time),842799.2000000477,045_m_m_n_a.png,O,z,804,3,1,1821.5999999046326,840977.600000143,7788,NNB,A,1
2,test,2,0.0,2-Back,1.0,m,Fri Mar 27 2026 09:29:04 GMT-0500 (Central Daylight Time),844615.0,050_m_f_n_a.png,O,m,786,4,1,1808.5,842806.5,7788,NNB,A,2
2,test,2,0.0,2-Back,0.0,m,Fri Mar 27 2026 09:29:04 GMT-0500 (Central Daylight Time),846598.7000000477,010_y_f_n_a.png,O,z,951,5,1,1977.0999999046326,844621.600000143,7788,NNB,A,3
3,test,2,0.0,2-Back,1.0,m,Fri Mar 27 2026 09:29:04 GMT-0500 (Central Daylight Time),848814.7000000477,046_o_m_n_a.png,O,m,1187,6,1,2208.7999999523163,846605.9000000954,7788,NNB,A,4
3,test,2,0.0,2-Back,0.0,m,Fri Mar 27 2026 09:29:04 GMT-0500 (Central Daylight Time),851297.600000143,063_y_f_n_a.png,O,z,1453,7,1,2475.2999999523163,848822.3000001907,7788,NNB,A,5
4,test,2,1.0,2-Back,1.0,z,Fri Mar 27 2026 09:29:04 GMT-0500 (Central Daylight Time),853596.3000001907,046_o_m_n_a.png,O,z,1265,8,1,2290.600000143051,851305.7000000477,7788,NNB,A,6
5,test,2,0.0,2-Back,1.0,m,Fri Mar 27 2026 09:29:04 GMT-0500 (Central Daylight Time),855580.2000000477,008_y_m_n_a.png,O,m,950,9,1,1977.5999999046326,853602.600000143,7788,NNB,A,7
6,test,2,0.0,2-Back,1.0,m,Fri Mar 27 2026 09:29:04 GMT-0500 (Central Daylight Time),857944.2000000477,008_y_m_n_a.png,O,m,1337,10,1,2359.5999999046326,855584.600000143,7788,NNB,A,8
7,test,2,0.0,2-Back,1.0,m,Fri Mar 27 2026 09:29:04 GMT-0500 (Central Daylight Time),860162.0,043_m_f_n_a.png,O,m,1199,11,1,2212.2999999523163,857949.7000000477,7788,NNB,A,9
8,test,2,0.0,2-Back,1.0,m,Fri Mar 27 2026 09:29:04 GMT-0500 (Central Daylight Time),862360.3000001907,010_y_f_n_a.png,O,m,1178,12,1,2192.600000143051,860167.7000000477,7788,NNB,A,10
9,test,2,1.0,2-Back,1.0,z,Fri Mar 27 2026 09:29:04 GMT-0500 (Central Daylight Time),864292.8000001907,043_m_f_n_a.png,O,z,907,13,1,1924.5,862368.3000001907,7788,NNB,A,11
10,test,2,0.0,2-Back,1.0,m,Fri Mar 27 2026 09:29:04 GMT-0500 (Central Daylight Time),866309.8000001907,053_o_m_n_a.png,O,m,997,14,1,2009.0,864300.8000001907,7788,NNB,A,12
11,test,2,0.0,2-Back,1.0,m,Fri Mar 27 2026 09:29:04 GMT-0500 (Central Daylight Time),868542.5,053_o_m_n_a.png,O,m,1206,15,1,2224.7999999523163,866317.7000000477,7788,NNB,A,13
12,test,2,0.0,2-Back,1.0,m,Fri Mar 27 2026 09:29:04 GMT-0500 (Central Daylight Time),870674.4000000954,044_o_f_n_a.png,O,m,1109,16,1,2125.5,868548.9000000954,7788,NNB,A,14
13,test,2,0.0,2-Back,1.0,m,Fri Mar 27 2026 09:29:04 GMT-0500 (Central Daylight Time),872707.2000000477,058_m_m_n_a.png,O,m,999,17,1,2026.2000000476837,870681.0,7788,NNB,A,15
14,test,2,1.0,2-Back,1.0,z,Fri Mar 27 2026 09:29:04 GMT-0500 (Central Daylight Time),874673.5,044_o_f_n_a.png,O,z,934,18,1,1960.3999998569489,872713.100000143,7788,NNB,A,16
0,test,3,1.0,2-Back,,,Fri Mar 27 2026 09:29:04 GMT-0500 (Central Daylight Time),874673.5,041_y_m_n_a.png,O,space,6850,1,1,1960.3999998569489,872713.100000143,7788,NNB,A,0
0,test,3,1.0,2-Back,,,Fri Mar 27 2026 09:29:04 GMT-0500 (Central Daylight Time),874673.5,041_y_m_n_a.png,O,space,6850,2,1,1960.3999998569489,872713.100000143,7788,NNB,A,0
1,test,3,0.0,2-Back,1.0,m,Fri Mar 27 2026 09:29:04 GMT-0500 (Central Daylight Time),888418.8000001907,044_o_f_n_a.png,O,m,792,3,1,1808.7000000476837,886610.100000143,7788,NNB,A,1
2,test,3,0.0,2-Back,1.0,m,Fri Mar 27 2026 09:29:04 GMT-0500 (Central Daylight Time),890452.7000000477,045_m_m_n_a.png,O,m,1001,4,1,2026.8999998569489,888425.8000001907,7788,NNB,A,2
3,test,3,1.0,2-Back,1.0,z,Fri Mar 27 2026 09:29:04 GMT-0500 (Central Daylight Time),892482.9000000954,044_o_f_n_a.png,O,z,999,5,1,2023.0999999046326,890459.8000001907,7788,NNB,A,3
4,test,3,0.0,2-Back,1.0,m,Fri Mar 27 2026 09:29:04 GMT-0500 (Central Daylight Time),894550.3000001907,008_y_m_n_a.png,O,m,1038,6,1,2064.800000190735,892485.5,7788,NNB,A,4
5,test,3,0.0,2-Back,1.0,m,Fri Mar 27 2026 09:29:04 GMT-0500 (Central Daylight Time),896665.9000000954,045_m_m_n_a.png,O,m,1095,7,1,2111.0999999046326,894554.8000001907,7788,NNB,A,5
6,test,3,1.0,2-Back,1.0,z,Fri Mar 27 2026 09:29:04 GMT-0500 (Central Daylight Time),898649.2000000477,008_y_m_n_a.png,O,z,953,8,1,1975.7000000476837,896673.5,7788,NNB,A,6
7,test,3,0.0,2-Back,1.0,m,Fri Mar 27 2026 09:29:04 GMT-0500 (Central Daylight Time),900699.0,010_y_f_n_a.png,O,m,1026,9,1,2043.5999999046326,898655.4000000954,7788,NNB,A,7
8,test,3,0.0,2-Back,1.0,m,Fri Mar 27 2026 09:29:04 GMT-0500 (Central Daylight Time),902580.3000001907,058_m_m_n_a.png,O,m,855,10,1,1876.1000001430511,900704.2000000477,7788,NNB,A,8
9,test,3,1.0,2-Back,1.0,z,Fri Mar 27 2026 09:29:04 GMT-0500 (Central Daylight Time),904381.7000000477,010_y_f_n_a.png,O,z,775,11,1,1797.0,902584.7000000477,7788,NNB,A,9
10,test,3,1.0,2-Back,1.0,z,Fri Mar 27 2026 09:29:04 GMT-0500 (Central Daylight Time),906630.2000000477,058_m_m_n_a.png,O,z,1224,12,1,2244.2999999523163,904385.9000000954,7788,NNB,A,10
11,test,3,0.0,2-Back,1.0,m,Fri Mar 27 2026 09:29:04 GMT-0500 (Central Daylight Time),908594.7000000477,044_o_f_n_a.png,O,m,932,13,1,1958.0999999046326,906636.600000143,7788,NNB,A,11
12,test,3,0.0,2-Back,1.0,m,Fri Mar 27 2026 09:29:04 GMT-0500 (Central Daylight Time),910460.7000000477,050_m_f_n_a.png,O,m,837,14,1,1862.0,908598.7000000477,7788,NNB,A,12
13,test,3,0.0,2-Back,1.0,m,Fri Mar 27 2026 09:29:04 GMT-0500 (Central Daylight Time),912529.9000000954,046_o_m_n_a.png,O,m,1047,15,1,2066.5999999046326,910463.3000001907,7788,NNB,A,13
14,test,3,1.0,2-Back,1.0,z,Fri Mar 27 2026 09:29:04 GMT-0500 (Central Daylight Time),914594.600000143,050_m_f_n_a.png,O,z,1036,16,1,2057.600000143051,912537.0,7788,NNB,A,14
15,test,3,0.0,2-Back,1.0,m,Fri Mar 27 2026 09:29:04 GMT-0500 (Central Daylight Time),916677.5,047_o_f_n_a.png,O,m,1060,17,1,2078.0999999046326,914599.4000000954,7788,NNB,A,15
16,test,3,0.0,2-Back,1.0,m,Fri Mar 27 2026 09:29:04 GMT-0500 (Central Daylight Time),918975.100000143,047_o_f_n_a.png,O,m,1270,18,1,2291.5,916683.600000143,7788,NNB,A,16
0,test,4,0.0,2-Back,,,Fri Mar 27 2026 09:29:04 GMT-0500 (Central Daylight Time),918975.100000143,053_o_m_n_a.png,O,space,18788,1,1,2291.5,916683.600000143,7788,NNB,A,0
0,test,4,0.0,2-Back,,,Fri Mar 27 2026 09:29:04 GMT-0500 (Central Daylight Time),918975.100000143,063_y_f_n_a.png,O,space,18788,2,1,2291.5,916683.600000143,7788,NNB,A,0
1,test,4,1.0,2-Back,1.0,z,Fri Mar 27 2026 09:29:04 GMT-0500 (Central Daylight Time),944753.0,053_o_m_n_a.png,O,z,872,3,1,1892.7999999523163,942860.2000000477,7788,NNB,A,1
2,test,4,1.0,2-Back,1.0,z,Fri Mar 27 2026 09:29:04 GMT-0500 (Central Daylight Time),946600.100000143,063_y_f_n_a.png,O,z,815,4,1,1840.0,944760.100000143,7788,NNB,A,2
3,test,4,0.0,2-Back,1.0,m,Fri Mar 27 2026 09:29:04 GMT-0500 (Central Daylight Time),948533.600000143,044_o_f_n_a.png,O,m,899,5,1,1926.5,946607.100000143,7788,NNB,A,3
4,test,4,0.0,2-Back,1.0,m,Fri Mar 27 2026 09:29:04 GMT-0500 (Central Daylight Time),950584.7000000477,044_o_f_n_a.png,O,m,1028,6,1,2045.7000000476837,948539.0,7788,NNB,A,4
5,test,4,0.0,2-Back,1.0,m,Fri Mar 27 2026 09:29:04 GMT-0500 (Central Daylight Time),952480.8000001907,043_m_f_n_a.png,O,m,874,7,1,1890.0,950590.8000001907,7788,NNB,A,5
6,test,4,0.0,2-Back,1.0,m,Fri Mar 27 2026 09:29:04 GMT-0500 (Central Daylight Time),954398.4000000954,008_y_m_n_a.png,O,m,892,8,1,1912.9000000953674,952485.5,7788,NNB,A,6
7,test,4,1.0,2-Back,1.0,z,Fri Mar 27 2026 09:29:04 GMT-0500 (Central Daylight Time),956480.9000000954,043_m_f_n_a.png,O,z,1062,9,1,2076.2999999523163,954404.600000143,7788,NNB,A,7
8,test,4,0.0,2-Back,1.0,m,Fri Mar 27 2026 09:29:04 GMT-0500 (Central Daylight Time),958513.600000143,058_m_m_n_a.png,O,m,1002,10,1,2027.1000001430511,956486.5,7788,NNB,A,8
9,test,4,0.0,2-Back,1.0,m,Fri Mar 27 2026 09:29:04 GMT-0500 (Central Daylight Time),960428.9000000954,008_y_m_n_a.png,O,m,899,11,1,1911.4000000953674,958517.5,7788,NNB,A,9
10,test,4,0.0,2-Back,1.0,m,Fri Mar 27 2026 09:29:04 GMT-0500 (Central Daylight Time),962344.9000000954,047_o_f_n_a.png,O,m,894,12,1,1911.4000000953674,960433.5,7788,NNB,A,10
11,test,4,0.0,2-Back,1.0,m,Fri Mar 27 2026 09:29:04 GMT-0500 (Central Daylight Time),964327.4000000954,041_y_m_n_a.png,O,m,954,13,1,1975.7000000476837,962351.7000000477,7788,NNB,A,11
12,test,4,1.0,2-Back,1.0,z,Fri Mar 27 2026 09:29:04 GMT-0500 (Central Daylight Time),966327.600000143,047_o_f_n_a.png,O,z,979,14,1,1991.6000001430511,964336.0,7788,NNB,A,12
13,test,4,1.0,2-Back,1.0,z,Fri Mar 27 2026 09:29:04 GMT-0500 (Central Daylight Time),968576.8000001907,041_y_m_n_a.png,O,z,1220,15,1,2243.7000000476837,966333.100000143,7788,NNB,A,13
14,test,4,0.0,2-Back,1.0,m,Fri Mar 27 2026 09:29:04 GMT-0500 (Central Daylight Time),970440.8000001907,045_m_m_n_a.png,O,m,842,16,1,1858.5,968582.3000001907,7788,NNB,A,14
15,test,4,0.0,2-Back,1.0,m,Fri Mar 27 2026 09:29:04 GMT-0500 (Central Daylight Time),972375.2000000477,050_m_f_n_a.png,O,m,900,17,1,1931.7999999523163,970443.4000000954,7788,NNB,A,15
16,test,4,1.0,2-Back,1.0,z,Fri Mar 27 2026 09:29:04 GMT-0500 (Central Daylight Time),974574.8000001907,045_m_m_n_a.png,O,z,1182,18,1,2193.300000190735,972381.5,7788,NNB,A,16
0,test,5,1.0,2-Back,,,Fri Mar 27 2026 09:29:04 GMT-0500 (Central Daylight Time),974574.8000001907,041_y_m_n_a.png,O,space,6620,1,1,2193.300000190735,972381.5,7788,NNB,A,0
0,test,5,1.0,2-Back,,,Fri Mar 27 2026 09:29:04 GMT-0500 (Central Daylight Time),974574.8000001907,050_m_f_n_a.png,O,space,6620,2,1,2193.300000190735,972381.5,7788,NNB,A,0
1,test,5,1.0,2-Back,1.0,z,Fri Mar 27 2026 09:29:04 GMT-0500 (Central Daylight Time),988220.600000143,041_y_m_n_a.png,O,z,948,3,1,1957.6000001430511,986263.0,7788,NNB,A,1
2,test,5,1.0,2-Back,1.0,z,Fri Mar 27 2026 09:29:04 GMT-0500 (Central Daylight Time),990020.9000000954,050_m_f_n_a.png,O,z,768,4,1,1794.5999999046326,988226.3000001907,7788,NNB,A,2
3,test,5,0.0,2-Back,1.0,m,Fri Mar 27 2026 09:29:04 GMT-0500 (Central Daylight Time),992035.0,047_o_f_n_a.png,O,m,985,5,1,2007.0999999046326,990027.9000000954,7788,NNB,A,3
4,test,5,0.0,2-Back,1.0,m,Fri Mar 27 2026 09:29:04 GMT-0500 (Central Daylight Time),994285.5,041_y_m_n_a.png,O,m,1231,6,1,2247.199999809265,992038.3000001907,7788,NNB,A,4
5,test,5,0.0,2-Back,1.0,m,Fri Mar 27 2026 09:29:04 GMT-0500 (Central Daylight Time),996201.600000143,010_y_f_n_a.png,O,m,894,7,1,1912.0,994289.600000143,7788,NNB,A,5
5,test,5,0.0,2-Back,0.0,m,Fri Mar 27 2026 09:29:04 GMT-0500 (Central Daylight Time),998408.5,047_o_f_n_a.png,O,z,1191,8,1,2201.0,996207.5,7788,NNB,A,6
6,test,5,1.0,2-Back,1.0,z,Fri Mar 27 2026 09:29:04 GMT-0500 (Central Daylight Time),1000535.100000143,010_y_f_n_a.png,O,z,1115,9,1,2124.2000000476837,998410.9000000954,7788,NNB,A,7
7,test,5,0.0,2-Back,1.0,m,Fri Mar 27 2026 09:29:04 GMT-0500 (Central Daylight Time),1002599.2000000477,046_o_m_n_a.png,O,m,1038,10,1,2060.399999856949,1000538.8000001907,7788,NNB,A,8
8,test,5,0.0,2-Back,1.0,m,Fri Mar 27 2026 09:29:04 GMT-0500 (Central Daylight Time),1004531.9000000954,043_m_f_n_a.png,O,m,909,11,1,1926.2999999523163,1002605.600000143,7788,NNB,A,9
9,test,5,0.0,2-Back,1.0,m,Fri Mar 27 2026 09:29:04 GMT-0500 (Central Daylight Time),1006481.600000143,058_m_m_n_a.png,O,m,927,12,1,1942.7999999523163,1004538.8000001907,7788,NNB,A,10
9,test,5,0.0,2-Back,0.0,m,Fri Mar 27 2026 09:29:04 GMT-0500 (Central Daylight Time),1008580.9000000954,046_o_m_n_a.png,O,z,1074,13,1,2091.7999999523163,1006489.100000143,7788,NNB,A,11
10,test,5,1.0,2-Back,1.0,z,Fri Mar 27 2026 09:29:04 GMT-0500 (Central Daylight Time),1010795.0,058_m_m_n_a.png,O,z,1190,14,1,2206.5,1008588.5,7788,NNB,A,12
11,test,5,0.0,2-Back,1.0,m,Fri Mar 27 2026 09:29:04 GMT-0500 (Central Daylight Time),1012912.4000000954,063_y_f_n_a.png,O,m,1094,15,1,2113.5999999046326,1010798.8000001907,7788,NNB,A,13
12,test,5,0.0,2-Back,1.0,m,Fri Mar 27 2026 09:29:04 GMT-0500 (Central Daylight Time),1014796.2000000477,053_o_m_n_a.png,O,m,851,16,1,1877.3999998569489,1012918.8000001907,7788,NNB,A,14
12,test,5,0.0,2-Back,0.0,m,Fri Mar 27 2026 09:29:04 GMT-0500 (Central Daylight Time),1016711.600000143,043_m_f_n_a.png,O,z,887,17,1,1906.7999999523163,1014804.8000001907,7788,NNB,A,15
13,test,5,1.0,2-Back,1.0,z,Fri Mar 27 2026 09:29:04 GMT-0500 (Central Daylight Time),1018760.5,053_o_m_n_a.png,O,z,1019,18,1,2041.5,1016719.0,7788,NNB,A,16
