Number,acc_sum,block,block_c,block_cond,con_img,correct,correct_response,datetime,endtime,jitter,project,response,response_time,row_sel,session_number,start_end,starttime,subject_id,task,task_vers,trial
7,1,prac,1,A,circle.png,1,m,Fri Feb 20 2026 13:02:32 GMT-0600 (Central Standard Time),57794.5,1700,O,m,987,6,,3461.5,54333.0,,NTS,A,1
9,2,prac,1,A,circle.png,1,m,Fri Feb 20 2026 13:02:32 GMT-0600 (Central Standard Time),60842.59999999404,1500,O,m,752,8,,3040.699999988079,57801.90000000596,,NTS,A,2
6,3,prac,1,A,circle.png,1,m,Fri Feb 20 2026 13:02:32 GMT-0600 (Central Standard Time),64375.29999998212,1900,O,m,831,5,,3525.5,60849.79999998212,,NTS,A,3
1,4,prac,1,A,circle.png,1,z,Fri Feb 20 2026 13:02:32 GMT-0600 (Central Standard Time),67041.69999998808,1000,O,z,881,1,,2659.0999999940395,64382.59999999404,,NTS,A,4
2,5,prac,1,A,circle.png,1,z,Fri Feb 20 2026 13:02:32 GMT-0600 (Central Standard Time),70974.29999998212,2000,O,z,1132,2,,3925.699999988079,67048.59999999404,,NTS,A,5
3,6,prac,1,A,circle.png,1,z,Fri Feb 20 2026 13:02:32 GMT-0600 (Central Standard Time),73771.90000000596,1200,O,z,802,3,,2790.9000000059605,70981.0,,NTS,A,6
4,7,prac,1,A,circle.png,1,z,Fri Feb 20 2026 13:02:32 GMT-0600 (Central Standard Time),76786.90000000596,1400,O,z,828,4,,3008.600000023842,73778.29999998212,,NTS,A,7
8,8,prac,1,A,circle.png,1,m,Fri Feb 20 2026 13:02:32 GMT-0600 (Central Standard Time),80002.69999998808,1600,O,m,829,7,,3209.2999999821186,76793.40000000596,,NTS,A,8
6,9,prac,1,A,circle.png,1,m,Fri Feb 20 2026 13:02:32 GMT-0600 (Central Standard Time),83734.79999998212,1900,O,m,1040,5,,3725.2999999821186,80009.5,,NTS,A,9
7,10,prac,1,A,circle.png,1,m,Fri Feb 20 2026 13:02:32 GMT-0600 (Central Standard Time),87533.09999999404,1700,O,m,1298,6,,3793.0,83740.09999999404,,NTS,A,10
1,11,prac,1,A,circle.png,1,z,Fri Feb 20 2026 13:02:32 GMT-0600 (Central Standard Time),90065.59999999404,1000,O,z,737,1,,2525.199999988079,87540.40000000596,,NTS,A,11
3,12,prac,1,A,circle.png,1,z,Fri Feb 20 2026 13:02:32 GMT-0600 (Central Standard Time),92798.69999998808,1200,O,z,741,3,,2724.2999999821186,90074.40000000596,,NTS,A,12
3,1,prac,1,B,triangle.png,1,z,Fri Feb 20 2026 13:02:32 GMT-0600 (Central Standard Time),137334.5,1600,O,z,1134,3,,3507.5,133827.0,,NTS,A,1
1,2,prac,1,B,triangle.png,1,z,Fri Feb 20 2026 13:02:32 GMT-0600 (Central Standard Time),140900.5,1900,O,z,877,1,,3559.0999999940395,137341.40000000596,,NTS,A,2
9,3,prac,1,B,triangle.png,1,z,Fri Feb 20 2026 13:02:32 GMT-0600 (Central Standard Time),144165.40000000596,1400,O,z,1075,8,,3258.100000023842,140907.29999998212,,NTS,A,3
8,4,prac,1,B,triangle.png,1,m,Fri Feb 20 2026 13:02:32 GMT-0600 (Central Standard Time),147198.40000000596,1200,O,m,1034,7,,3026.300000011921,144172.09999999404,,NTS,A,4
6,5,prac,1,B,triangle.png,1,m,Fri Feb 20 2026 13:02:32 GMT-0600 (Central Standard Time),149829.29999998212,1000,O,m,841,5,,2625.2999999821186,147204.0,,NTS,A,5
9,5,prac,1,B,triangle.png,0,z,Fri Feb 20 2026 13:02:32 GMT-0600 (Central Standard Time),153529.40000000596,1400,O,None,1515,8,,3694.7000000178814,149834.69999998808,,NTS,A,6
1,6,prac,1,B,triangle.png,1,z,Fri Feb 20 2026 13:02:32 GMT-0600 (Central Standard Time),156946.79999998212,1900,O,z,737,1,,3410.899999976158,153535.90000000596,,NTS,A,7
2,7,prac,1,B,triangle.png,1,m,Fri Feb 20 2026 13:02:32 GMT-0600 (Central Standard Time),160210.59999999404,1700,O,m,794,2,,3258.0999999940395,156952.5,,NTS,A,8
7,8,prac,1,B,triangle.png,1,z,Fri Feb 20 2026 13:02:32 GMT-0600 (Central Standard Time),163959.29999998212,2000,O,z,967,6,,3743.399999976158,160215.90000000596,,NTS,A,9
4,9,prac,1,B,triangle.png,1,m,Fri Feb 20 2026 13:02:32 GMT-0600 (Central Standard Time),167025.0,1500,O,m,765,4,,3060.5,163964.5,,NTS,A,10
3,10,prac,1,B,triangle.png,1,z,Fri Feb 20 2026 13:02:32 GMT-0600 (Central Standard Time),169924.59999999404,1600,O,z,526,3,,2893.4000000059605,167031.19999998808,,NTS,A,11
6,11,prac,1,B,triangle.png,1,m,Fri Feb 20 2026 13:02:32 GMT-0600 (Central Standard Time),172239.90000000596,1000,O,m,530,5,,2311.300000011921,169928.59999999404,,NTS,A,12
8,1,test,1,A,circle.png,1,m,Fri Feb 20 2026 13:02:32 GMT-0600 (Central Standard Time),190150.79999998212,1600,O,m,1259,7,,2879.699999988079,187271.09999999404,,NTS,A,1
6,2,test,1,A,circle.png,1,m,Fri Feb 20 2026 13:02:32 GMT-0600 (Central Standard Time),192883.0,1900,O,m,812,5,,2721.5,190161.5,,NTS,A,2
1,3,test,1,A,circle.png,1,z,Fri Feb 20 2026 13:02:32 GMT-0600 (Central Standard Time),194801.29999998212,1000,O,z,885,1,,1914.199999988079,192887.09999999404,,NTS,A,3
4,3,test,1,A,circle.png,0,z,Fri Feb 20 2026 13:02:32 GMT-0600 (Central Standard Time),196765.5,1400,O,m,542,4,,1959.5999999940395,194805.90000000596,,NTS,A,4
7,4,test,1,A,circle.png,1,m,Fri Feb 20 2026 13:02:32 GMT-0600 (Central Standard Time),199930.79999998212,1700,O,m,1449,6,,3158.399999976158,196772.40000000596,,NTS,A,5
9,5,test,1,A,circle.png,1,m,Fri Feb 20 2026 13:02:32 GMT-0600 (Central Standard Time),202430.09999999404,1500,O,m,971,8,,2495.4000000059605,199934.69999998808,,NTS,A,6
6,6,test,1,A,circle.png,1,m,Fri Feb 20 2026 13:02:32 GMT-0600 (Central Standard Time),205095.59999999404,1900,O,m,741,5,,2662.5999999940395,202433.0,,NTS,A,7
7,7,test,1,A,circle.png,1,m,Fri Feb 20 2026 13:02:32 GMT-0600 (Central Standard Time),207444.69999998808,1700,O,m,629,6,,2343.4000000059605,205101.29999998212,,NTS,A,8
1,8,test,1,A,circle.png,1,z,Fri Feb 20 2026 13:02:32 GMT-0600 (Central Standard Time),209161.59999999404,1000,O,z,689,1,,1710.4000000059605,207451.19999998808,,NTS,A,9
8,9,test,1,A,circle.png,1,m,Fri Feb 20 2026 13:02:32 GMT-0600 (Central Standard Time),211777.79999998212,1600,O,m,997,7,,2611.5,209166.29999998212,,NTS,A,10
2,10,test,1,A,circle.png,1,z,Fri Feb 20 2026 13:02:32 GMT-0600 (Central Standard Time),214676.29999998212,2000,O,z,871,2,,2892.399999976158,211783.90000000596,,NTS,A,11
8,11,test,1,A,circle.png,1,m,Fri Feb 20 2026 13:02:32 GMT-0600 (Central Standard Time),217242.90000000596,1600,O,m,947,7,,2563.5,214679.40000000596,,NTS,A,12
3,12,test,1,A,circle.png,1,z,Fri Feb 20 2026 13:02:32 GMT-0600 (Central Standard Time),219257.5,1200,O,z,787,3,,2009.5999999940395,217247.90000000596,,NTS,A,13
9,13,test,1,A,circle.png,1,m,Fri Feb 20 2026 13:02:32 GMT-0600 (Central Standard Time),221424.69999998808,1500,O,m,651,8,,2162.4000000059605,219262.29999998212,,NTS,A,14
4,14,test,1,A,circle.png,1,z,Fri Feb 20 2026 13:02:32 GMT-0600 (Central Standard Time),223956.59999999404,1400,O,z,1102,4,,2526.699999988079,221429.90000000596,,NTS,A,15
3,15,test,1,A,circle.png,1,z,Fri Feb 20 2026 13:02:32 GMT-0600 (Central Standard Time),226338.79999998212,1200,O,z,1156,3,,2378.0,223960.79999998212,,NTS,A,16
1,16,test,1,A,circle.png,1,z,Fri Feb 20 2026 13:02:32 GMT-0600 (Central Standard Time),227921.0,1000,O,z,553,1,,1579.0,226342.0,,NTS,A,17
4,17,test,1,A,circle.png,1,z,Fri Feb 20 2026 13:02:32 GMT-0600 (Central Standard Time),230037.5,1400,O,z,693,4,,2113.0999999940395,227924.40000000596,,NTS,A,18
1,18,test,1,A,circle.png,1,z,Fri Feb 20 2026 13:02:32 GMT-0600 (Central Standard Time),231753.5,1000,O,z,690,1,,1710.300000011921,230043.19999998808,,NTS,A,19
2,19,test,1,A,circle.png,1,z,Fri Feb 20 2026 13:02:32 GMT-0600 (Central Standard Time),234370.19999998808,2000,O,z,598,2,,2614.0999999940395,231756.09999999404,,NTS,A,20
3,20,test,1,A,circle.png,1,z,Fri Feb 20 2026 13:02:32 GMT-0600 (Central Standard Time),236153.40000000596,1200,O,z,566,3,,1778.0,234375.40000000596,,NTS,A,21
9,21,test,1,A,circle.png,1,m,Fri Feb 20 2026 13:02:32 GMT-0600 (Central Standard Time),238318.69999998808,1500,O,m,634,8,,2160.5999999940395,236158.09999999404,,NTS,A,22
6,22,test,1,A,circle.png,1,m,Fri Feb 20 2026 13:02:32 GMT-0600 (Central Standard Time),241116.59999999404,1900,O,m,867,5,,2794.0999999940395,238322.5,,NTS,A,23
2,23,test,1,A,circle.png,1,z,Fri Feb 20 2026 13:02:32 GMT-0600 (Central Standard Time),243767.19999998808,2000,O,z,626,2,,2647.2999999821186,241119.90000000596,,NTS,A,24
8,1,test,1,B,triangle.png,1,m,Fri Feb 20 2026 13:02:32 GMT-0600 (Central Standard Time),253996.79999998212,1700,O,m,828,15,,2542.5999999940395,251454.19999998808,,NTS,A,1
3,2,test,1,B,triangle.png,1,z,Fri Feb 20 2026 13:02:32 GMT-0600 (Central Standard Time),256496.0,1600,O,z,873,3,,2495.5,254000.5,,NTS,A,2
2,3,test,1,B,triangle.png,1,m,Fri Feb 20 2026 13:02:32 GMT-0600 (Central Standard Time),259478.79999998212,1700,O,m,1251,2,,2979.0,256499.79999998212,,NTS,A,3
1,4,test,1,B,triangle.png,1,z,Fri Feb 20 2026 13:02:32 GMT-0600 (Central Standard Time),261728.0,1400,O,z,833,9,,2244.9000000059605,259483.09999999404,,NTS,A,4
7,5,test,1,B,triangle.png,1,z,Fri Feb 20 2026 13:02:32 GMT-0600 (Central Standard Time),264927.1999999881,2000,O,z,1167,6,,3196.5,261730.69999998808,,NTS,A,5
3,6,test,1,B,triangle.png,1,z,Fri Feb 20 2026 13:02:32 GMT-0600 (Central Standard Time),267425.59999999404,1600,O,z,873,3,,2493.0999999940395,264932.5,,NTS,A,6
9,7,test,1,B,triangle.png,1,z,Fri Feb 20 2026 13:02:32 GMT-0600 (Central Standard Time),270108.09999999404,1900,O,z,762,16,,2678.0999999940395,267430.0,,NTS,A,7
1,8,test,1,B,triangle.png,1,z,Fri Feb 20 2026 13:02:32 GMT-0600 (Central Standard Time),272191.5,1400,O,z,659,9,,2079.5,270112.0,,NTS,A,8
8,9,test,1,B,triangle.png,1,m,Fri Feb 20 2026 13:02:32 GMT-0600 (Central Standard Time),274041.2999999821,1200,O,m,624,7,,1845.7999999821186,272195.5,,NTS,A,9
2,10,test,1,B,triangle.png,1,m,Fri Feb 20 2026 13:02:32 GMT-0600 (Central Standard Time),276058.1999999881,1200,O,m,800,10,,2012.9000000059605,274045.2999999821,,NTS,A,10
4,11,test,1,B,triangle.png,1,m,Fri Feb 20 2026 13:02:32 GMT-0600 (Central Standard Time),277589.0,1000,O,m,511,12,,1527.4000000059605,276061.59999999404,,NTS,A,11
4,12,test,1,B,triangle.png,1,m,Fri Feb 20 2026 13:02:32 GMT-0600 (Central Standard Time),279738.59999999404,1500,O,m,628,4,,2146.5,277592.09999999404,,NTS,A,12
8,13,test,1,B,triangle.png,1,m,Fri Feb 20 2026 13:02:32 GMT-0600 (Central Standard Time),282171.40000000596,1200,O,m,1212,7,,2429.7000000178814,279741.6999999881,,NTS,A,13
3,14,test,1,B,triangle.png,1,z,Fri Feb 20 2026 13:02:32 GMT-0600 (Central Standard Time),284819.5,2000,O,z,620,11,,2643.9000000059605,282175.59999999404,,NTS,A,14
4,15,test,1,B,triangle.png,1,m,Fri Feb 20 2026 13:02:32 GMT-0600 (Central Standard Time),286885.7999999821,1000,O,m,1034,12,,2062.0,284823.7999999821,,NTS,A,15
2,16,test,1,B,triangle.png,1,m,Fri Feb 20 2026 13:02:32 GMT-0600 (Central Standard Time),289152.0,1200,O,m,1041,10,,2260.5999999940395,286891.40000000596,,NTS,A,16
6,17,test,1,B,triangle.png,1,m,Fri Feb 20 2026 13:02:32 GMT-0600 (Central Standard Time),291318.7999999821,1000,O,m,1143,5,,2162.5,289156.2999999821,,NTS,A,17
7,18,test,1,B,triangle.png,1,z,Fri Feb 20 2026 13:02:32 GMT-0600 (Central Standard Time),293701.09999999404,1600,O,z,755,14,,2377.699999988079,291323.40000000596,,NTS,A,18
8,19,test,1,B,triangle.png,1,m,Fri Feb 20 2026 13:02:32 GMT-0600 (Central Standard Time),295999.6999999881,1700,O,m,565,15,,2294.0,293705.6999999881,,NTS,A,19
3,20,test,1,B,triangle.png,1,z,Fri Feb 20 2026 13:02:32 GMT-0600 (Central Standard Time),298766.59999999404,2000,O,z,735,11,,2763.0,296003.59999999404,,NTS,A,20
9,20,test,1,B,triangle.png,0,z,Fri Feb 20 2026 13:02:32 GMT-0600 (Central Standard Time),301699.1999999881,1400,O,None,1515,8,,2927.7999999821186,298771.40000000596,,NTS,A,21
6,21,test,1,B,triangle.png,1,m,Fri Feb 20 2026 13:02:32 GMT-0600 (Central Standard Time),304447.6999999881,1500,O,m,1216,13,,2742.699999988079,301705.0,,NTS,A,22
1,22,test,1,B,triangle.png,1,z,Fri Feb 20 2026 13:02:32 GMT-0600 (Central Standard Time),306945.90000000596,1900,O,z,571,1,,2494.5,304451.40000000596,,NTS,A,23
7,23,test,1,B,triangle.png,1,z,Fri Feb 20 2026 13:02:32 GMT-0600 (Central Standard Time),309817.2999999821,1600,O,z,1251,14,,2868.0999999940395,306949.1999999881,,NTS,A,24
9,1,prac,1,C,circle.png,1,m,Fri Feb 20 2026 13:02:32 GMT-0600 (Central Standard Time),373625.7999999821,1900,O,m,1453,8,,4142.5999999940395,369483.1999999881,,NTS,A,1
2,1,prac,1,C,triangle.png,0,m,Fri Feb 20 2026 13:02:32 GMT-0600 (Central Standard Time),377507.40000000596,1600,O,None,1501,2,,3873.4000000059605,373634.0,,NTS,A,2
6,1,prac,1,C,circle.png,0,m,Fri Feb 20 2026 13:02:32 GMT-0600 (Central Standard Time),381806.09999999404,2000,O,None,1517,5,,4293.699999988079,377512.40000000596,,NTS,A,3
8,1,prac,1,C,triangle.png,0,m,Fri Feb 20 2026 13:02:32 GMT-0600 (Central Standard Time),385122.90000000596,1400,O,z,1144,7,,3310.7000000178814,381812.1999999881,,NTS,A,4
7,2,prac,1,C,triangle.png,1,z,Fri Feb 20 2026 13:02:32 GMT-0600 (Central Standard Time),388121.5,1200,O,z,1020,6,,2994.300000011921,385127.1999999881,,NTS,A,5
9,3,prac,1,C,circle.png,1,m,Fri Feb 20 2026 13:02:32 GMT-0600 (Central Standard Time),391553.2999999821,1900,O,m,747,8,,3426.5999999940395,388126.6999999881,,NTS,A,6
1,3,prac,1,C,circle.png,0,z,Fri Feb 20 2026 13:02:32 GMT-0600 (Central Standard Time),395137.1999999881,1700,O,m,1106,1,,3579.9000000059605,391557.2999999821,,NTS,A,7
2,4,prac,1,C,triangle.png,1,m,Fri Feb 20 2026 13:02:32 GMT-0600 (Central Standard Time),398551.5,1600,O,m,1016,2,,3409.4000000059605,395142.09999999404,,NTS,A,8
8,5,prac,1,C,triangle.png,1,m,Fri Feb 20 2026 13:02:32 GMT-0600 (Central Standard Time),401483.40000000596,1400,O,m,741,7,,2928.0,398555.40000000596,,NTS,A,9
4,6,prac,1,C,circle.png,1,z,Fri Feb 20 2026 13:02:32 GMT-0600 (Central Standard Time),404432.7999999821,1000,O,z,1153,4,,2944.0,401488.7999999821,,NTS,A,10
4,7,prac,1,C,circle.png,1,z,Fri Feb 20 2026 13:02:32 GMT-0600 (Central Standard Time),407599.0,1000,O,z,1365,4,,3161.5,404437.5,,NTS,A,11
3,8,prac,1,C,triangle.png,1,z,Fri Feb 20 2026 13:02:32 GMT-0600 (Central Standard Time),411330.6999999881,1500,O,z,1453,3,,3725.7999999821186,407604.90000000596,,NTS,A,12
3,1,prac,2,C,triangle.png,1,z,Fri Feb 20 2026 13:02:32 GMT-0600 (Central Standard Time),421776.59999999404,1500,O,z,1479,3,,3760.0999999940395,418016.5,,NTS,A,1
8,2,prac,2,C,triangle.png,1,m,Fri Feb 20 2026 13:02:32 GMT-0600 (Central Standard Time),424976.6999999881,1400,O,m,1007,7,,3195.199999988079,421781.5,,NTS,A,2
8,3,prac,2,C,triangle.png,1,m,Fri Feb 20 2026 13:02:32 GMT-0600 (Central Standard Time),427708.09999999404,1400,O,m,542,7,,2727.5999999940395,424980.5,,NTS,A,3
9,3,prac,2,C,circle.png,0,m,Fri Feb 20 2026 13:02:32 GMT-0600 (Central Standard Time),431541.1999999881,1900,O,z,1143,8,,3829.199999988079,427712.0,,NTS,A,4
1,4,prac,2,C,circle.png,1,z,Fri Feb 20 2026 13:02:32 GMT-0600 (Central Standard Time),435273.0,1700,O,z,1246,1,,3724.7000000178814,431548.2999999821,,NTS,A,5
9,5,prac,2,C,circle.png,1,m,Fri Feb 20 2026 13:02:32 GMT-0600 (Central Standard Time),439037.5,1900,O,m,1082,8,,3759.5,435278.0,,NTS,A,6
7,5,prac,2,C,triangle.png,0,z,Fri Feb 20 2026 13:02:32 GMT-0600 (Central Standard Time),442537.6999999881,1200,O,None,1516,6,,3492.0999999940395,439045.59999999404,,NTS,A,7
2,5,prac,2,C,triangle.png,0,m,Fri Feb 20 2026 13:02:32 GMT-0600 (Central Standard Time),445401.5,1600,O,z,470,2,,2856.5999999940395,442544.90000000596,,NTS,A,8
6,5,prac,2,C,circle.png,0,m,Fri Feb 20 2026 13:02:32 GMT-0600 (Central Standard Time),449701.2999999821,2000,O,None,1515,5,,4295.699999988079,445405.59999999404,,NTS,A,9
3,5,prac,2,C,triangle.png,0,z,Fri Feb 20 2026 13:02:32 GMT-0600 (Central Standard Time),453484.90000000596,1500,O,None,1512,3,,3776.5,449708.40000000596,,NTS,A,10
4,5,prac,2,C,circle.png,0,z,Fri Feb 20 2026 13:02:32 GMT-0600 (Central Standard Time),456433.09999999404,1000,O,m,1171,4,,2938.9000000059605,453494.1999999881,,NTS,A,11
1,6,prac,2,C,circle.png,1,z,Fri Feb 20 2026 13:02:32 GMT-0600 (Central Standard Time),460081.7999999821,1700,O,z,1163,1,,3640.0999999940395,456441.6999999881,,NTS,A,12
7,0,prac,3,C,triangle.png,0,z,Fri Feb 20 2026 13:02:32 GMT-0600 (Central Standard Time),470029.09999999404,1200,O,None,1501,6,,3476.4000000059605,466552.6999999881,,NTS,A,1
9,1,prac,3,C,circle.png,1,m,Fri Feb 20 2026 13:02:32 GMT-0600 (Central Standard Time),473959.40000000596,1900,O,m,1247,8,,3923.800000011921,470035.59999999404,,NTS,A,2
1,1,prac,3,C,circle.png,0,z,Fri Feb 20 2026 13:02:32 GMT-0600 (Central Standard Time),477126.40000000596,1700,O,m,682,1,,3163.5,473962.90000000596,,NTS,A,3
2,2,prac,3,C,triangle.png,1,m,Fri Feb 20 2026 13:02:32 GMT-0600 (Central Standard Time),480326.1999999881,1600,O,m,802,2,,3193.0999999940395,477133.09999999404,,NTS,A,4
8,3,prac,3,C,triangle.png,1,m,Fri Feb 20 2026 13:02:32 GMT-0600 (Central Standard Time),483157.2999999821,1400,O,m,640,7,,2825.0,480332.2999999821,,NTS,A,5
2,4,prac,3,C,triangle.png,1,m,Fri Feb 20 2026 13:02:32 GMT-0600 (Central Standard Time),486956.7999999821,1600,O,m,1417,2,,3792.5,483164.2999999821,,NTS,A,6
3,5,prac,3,C,triangle.png,1,z,Fri Feb 20 2026 13:02:32 GMT-0600 (Central Standard Time),490438.59999999404,1500,O,z,1199,3,,3476.300000011921,486962.2999999821,,NTS,A,7
7,6,prac,3,C,triangle.png,1,z,Fri Feb 20 2026 13:02:32 GMT-0600 (Central Standard Time),493305.2999999821,1200,O,z,898,6,,2859.199999988079,490446.09999999404,,NTS,A,8
9,7,prac,3,C,circle.png,1,m,Fri Feb 20 2026 13:02:32 GMT-0600 (Central Standard Time),496920.6999999881,1900,O,m,924,8,,3609.2999999821186,493311.40000000596,,NTS,A,9
6,8,prac,3,C,circle.png,1,m,Fri Feb 20 2026 13:02:32 GMT-0600 (Central Standard Time),501034.7999999821,2000,O,m,1318,5,,4107.5,496927.2999999821,,NTS,A,10
8,9,prac,3,C,triangle.png,1,m,Fri Feb 20 2026 13:02:32 GMT-0600 (Central Standard Time),503935.5,1400,O,m,701,7,,2895.9000000059605,501039.59999999404,,NTS,A,11
4,9,prac,3,C,circle.png,0,z,Fri Feb 20 2026 13:02:32 GMT-0600 (Central Standard Time),507233.5,1000,O,None,1514,4,,3292.800000011921,503940.6999999881,,NTS,A,12
3,1,test,1,C,triangle.png,1,z,Fri Feb 20 2026 13:02:32 GMT-0600 (Central Standard Time),519162.40000000596,1200,O,z,872,3,,2093.800000011921,517068.59999999404,,NTS,A,1
9,2,test,1,C,circle.png,1,m,Fri Feb 20 2026 13:02:32 GMT-0600 (Central Standard Time),521612.09999999404,1500,O,m,929,8,,2446.300000011921,519165.7999999821,,NTS,A,2
6,3,test,1,C,triangle.png,1,m,Fri Feb 20 2026 13:02:32 GMT-0600 (Central Standard Time),523545.59999999404,1000,O,m,908,13,,1928.5,521617.09999999404,,NTS,A,3
4,4,test,1,C,triangle.png,1,m,Fri Feb 20 2026 13:02:32 GMT-0600 (Central Standard Time),526027.0,1500,O,m,954,20,,2476.7000000178814,523550.2999999821,,NTS,A,4
7,4,test,1,C,circle.png,0,m,Fri Feb 20 2026 13:02:32 GMT-0600 (Central Standard Time),529093.0,2000,O,z,1034,14,,3062.300000011921,526030.6999999881,,NTS,A,5
8,5,test,1,C,triangle.png,1,m,Fri Feb 20 2026 13:02:32 GMT-0600 (Central Standard Time),531626.400000006,1600,O,m,908,7,,2529.4000000059605,529097.0,,NTS,A,6
9,5,test,1,C,triangle.png,0,z,Fri Feb 20 2026 13:02:32 GMT-0600 (Central Standard Time),534557.1999999881,1400,O,None,1514,16,,2926.2999999821186,531630.900000006,,NTS,A,7
4,6,test,1,C,triangle.png,1,m,Fri Feb 20 2026 13:02:32 GMT-0600 (Central Standard Time),537023.2999999821,1500,O,m,934,12,,2461.0999999940395,534562.1999999881,,NTS,A,8
2,7,test,1,C,triangle.png,1,m,Fri Feb 20 2026 13:02:32 GMT-0600 (Central Standard Time),540090.599999994,2000,O,m,1049,2,,3063.199999988079,537027.400000006,,NTS,A,9
2,8,test,1,C,circle.png,1,z,Fri Feb 20 2026 13:02:32 GMT-0600 (Central Standard Time),542856.5,1700,O,z,1049,18,,2760.9000000059605,540095.599999994,,NTS,A,10
1,9,test,1,C,circle.png,1,z,Fri Feb 20 2026 13:02:32 GMT-0600 (Central Standard Time),544621.1999999881,1000,O,z,744,1,,1762.0,542859.1999999881,,NTS,A,11
4,10,test,1,C,circle.png,1,z,Fri Feb 20 2026 13:02:32 GMT-0600 (Central Standard Time),546821.2999999821,1400,O,z,780,4,,2196.2999999821186,544625.0,,NTS,A,12
3,11,test,1,C,circle.png,1,z,Fri Feb 20 2026 13:02:32 GMT-0600 (Central Standard Time),548920.900000006,1600,O,z,484,11,,2096.2000000178814,546824.6999999881,,NTS,A,13
6,12,test,1,C,circle.png,1,m,Fri Feb 20 2026 13:02:32 GMT-0600 (Central Standard Time),551969.900000006,1900,O,m,1124,21,,3045.600000023842,548924.2999999821,,NTS,A,14
8,13,test,1,C,circle.png,1,m,Fri Feb 20 2026 13:02:32 GMT-0600 (Central Standard Time),554084.599999994,1200,O,m,885,15,,2112.199999988079,551972.400000006,,NTS,A,15
6,14,test,1,C,circle.png,1,m,Fri Feb 20 2026 13:02:32 GMT-0600 (Central Standard Time),556784.7999999821,1900,O,m,783,5,,2695.399999976158,554089.400000006,,NTS,A,16
1,15,test,1,C,triangle.png,1,z,Fri Feb 20 2026 13:02:32 GMT-0600 (Central Standard Time),559932.400000006,1900,O,z,1228,9,,3144.2000000178814,556788.1999999881,,NTS,A,17
7,16,test,1,C,triangle.png,1,z,Fri Feb 20 2026 13:02:32 GMT-0600 (Central Standard Time),562698.900000006,1700,O,z,1039,22,,2761.7000000178814,559937.1999999881,,NTS,A,18
9,17,test,1,C,circle.png,1,m,Fri Feb 20 2026 13:02:32 GMT-0600 (Central Standard Time),565264.2999999821,1500,O,m,1040,24,,2557.5,562706.7999999821,,NTS,A,19
2,17,test,1,C,circle.png,0,z,Fri Feb 20 2026 13:02:32 GMT-0600 (Central Standard Time),567930.5,1700,O,m,931,10,,2660.9000000059605,565269.599999994,,NTS,A,20
8,18,test,1,C,triangle.png,1,m,Fri Feb 20 2026 13:02:32 GMT-0600 (Central Standard Time),570395.400000006,1600,O,m,836,23,,2459.300000011921,567936.099999994,,NTS,A,21
7,19,test,1,C,triangle.png,1,z,Fri Feb 20 2026 13:02:32 GMT-0600 (Central Standard Time),573363.599999994,1700,O,z,1249,6,,2965.4000000059605,570398.1999999881,,NTS,A,22
1,20,test,1,C,triangle.png,1,z,Fri Feb 20 2026 13:02:32 GMT-0600 (Central Standard Time),576344.099999994,1900,O,z,1050,17,,2975.300000011921,573368.7999999821,,NTS,A,23
3,20,test,1,C,circle.png,0,z,Fri Feb 20 2026 13:02:32 GMT-0600 (Central Standard Time),579476.5,1600,O,None,1515,19,,3126.0999999940395,576350.400000006,,NTS,A,24
3,0,test,2,C,circle.png,0,z,Fri Feb 20 2026 13:02:32 GMT-0600 (Central Standard Time),586741.400000006,1600,O,None,1515,11,,3130.300000011921,583611.099999994,,NTS,A,1
9,1,test,2,C,circle.png,1,m,Fri Feb 20 2026 13:02:32 GMT-0600 (Central Standard Time),589289.900000006,1500,O,m,1016,8,,2543.100000023842,586746.7999999821,,NTS,A,2
4,2,test,2,C,triangle.png,1,m,Fri Feb 20 2026 13:02:32 GMT-0600 (Central Standard Time),591689.5,1500,O,m,873,12,,2393.2000000178814,589296.2999999821,,NTS,A,3
1,2,test,2,C,triangle.png,0,z,Fri Feb 20 2026 13:02:32 GMT-0600 (Central Standard Time),595122.1999999881,1900,O,None,1516,9,,3428.699999988079,591693.5,,NTS,A,4
6,3,test,2,C,circle.png,1,m,Fri Feb 20 2026 13:02:32 GMT-0600 (Central Standard Time),597869.2999999821,1900,O,m,816,5,,2741.899999976158,595127.400000006,,NTS,A,5
6,4,test,2,C,triangle.png,1,m,Fri Feb 20 2026 13:02:32 GMT-0600 (Central Standard Time),600286.400000006,1000,O,m,1386,13,,2413.9000000059605,597872.5,,NTS,A,6
2,4,test,2,C,circle.png,0,z,Fri Feb 20 2026 13:02:32 GMT-0600 (Central Standard Time),603519.1999999881,1700,O,None,1516,18,,3226.9000000059605,600292.2999999821,,NTS,A,7
3,4,test,2,C,triangle.png,0,z,Fri Feb 20 2026 13:02:32 GMT-0600 (Central Standard Time),606235.1999999881,1200,O,None,1501,3,,2712.2999999821186,603522.900000006,,NTS,A,8
4,5,test,2,C,triangle.png,1,m,Fri Feb 20 2026 13:02:32 GMT-0600 (Central Standard Time),609184.1999999881,1500,O,m,1433,20,,2943.699999988079,606240.5,,NTS,A,9
7,5,test,2,C,triangle.png,0,z,Fri Feb 20 2026 13:02:32 GMT-0600 (Central Standard Time),612417.0,1700,O,None,1517,6,,3229.0999999940395,609187.900000006,,NTS,A,10
1,5,test,2,C,circle.png,0,z,Fri Feb 20 2026 13:02:32 GMT-0600 (Central Standard Time),614949.0,1000,O,None,1516,1,,2525.5,612423.5,,NTS,A,11
2,6,test,2,C,triangle.png,1,m,Fri Feb 20 2026 13:02:32 GMT-0600 (Central Standard Time),617748.099999994,2000,O,m,778,2,,2795.199999988079,614952.900000006,,NTS,A,12
6,7,test,2,C,triangle.png,1,m,Fri Feb 20 2026 13:02:32 GMT-0600 (Central Standard Time),619848.599999994,1000,O,m,1075,21,,2097.300000011921,617751.2999999821,,NTS,A,13
7,7,test,2,C,circle.png,0,m,Fri Feb 20 2026 13:02:32 GMT-0600 (Central Standard Time),623379.5,2000,O,None,1514,14,,3527.7000000178814,619851.7999999821,,NTS,A,14
9,7,test,2,C,triangle.png,0,z,Fri Feb 20 2026 13:02:32 GMT-0600 (Central Standard Time),626311.2999999821,1400,O,None,1515,16,,2926.899999976158,623384.400000006,,NTS,A,15
2,7,test,2,C,circle.png,0,z,Fri Feb 20 2026 13:02:32 GMT-0600 (Central Standard Time),628962.599999994,1700,O,m,915,10,,2646.199999988079,626316.400000006,,NTS,A,16
4,7,test,2,C,circle.png,0,z,Fri Feb 20 2026 13:02:32 GMT-0600 (Central Standard Time),631895.099999994,1400,O,None,1518,4,,2926.800000011921,628968.2999999821,,NTS,A,17
8,8,test,2,C,circle.png,1,m,Fri Feb 20 2026 13:02:32 GMT-0600 (Central Standard Time),633976.5,1200,O,m,866,23,,2076.5999999940395,631899.900000006,,NTS,A,18
9,8,test,2,C,triangle.png,0,z,Fri Feb 20 2026 13:02:32 GMT-0600 (Central Standard Time),636908.5,1400,O,None,1514,24,,2928.2000000178814,633980.2999999821,,NTS,A,19
8,9,test,2,C,triangle.png,1,m,Fri Feb 20 2026 13:02:32 GMT-0600 (Central Standard Time),639208.0,1600,O,m,683,7,,2296.0,636912.0,,NTS,A,20
7,10,test,2,C,circle.png,1,m,Fri Feb 20 2026 13:02:32 GMT-0600 (Central Standard Time),642523.599999994,2000,O,m,1299,22,,3311.199999988079,639212.400000006,,NTS,A,21
3,10,test,2,C,circle.png,0,z,Fri Feb 20 2026 13:02:32 GMT-0600 (Central Standard Time),645656.099999994,1600,O,None,1516,19,,3129.0,642527.099999994,,NTS,A,22
1,10,test,2,C,triangle.png,0,z,Fri Feb 20 2026 13:02:32 GMT-0600 (Central Standard Time),649088.0,1900,O,None,1515,17,,3428.800000011921,645659.1999999881,,NTS,A,23
8,11,test,2,C,circle.png,1,m,Fri Feb 20 2026 13:02:32 GMT-0600 (Central Standard Time),651287.400000006,1200,O,m,981,15,,2192.100000023842,649095.2999999821,,NTS,A,24
3,1,test,3,C,triangle.png,1,z,Fri Feb 20 2026 13:02:32 GMT-0600 (Central Standard Time),657934.599999994,1200,O,z,775,19,,1995.300000011921,655939.2999999821,,NTS,A,1
7,2,test,3,C,triangle.png,1,z,Fri Feb 20 2026 13:02:32 GMT-0600 (Central Standard Time),660683.6999999881,1700,O,z,1019,6,,2744.5,657939.1999999881,,NTS,A,2
2,3,test,3,C,triangle.png,1,m,Fri Feb 20 2026 13:02:32 GMT-0600 (Central Standard Time),663765.6999999881,2000,O,m,1059,18,,3076.4000000059605,660689.2999999821,,NTS,A,3
8,4,test,3,C,triangle.png,1,m,Fri Feb 20 2026 13:02:32 GMT-0600 (Central Standard Time),666032.5,1600,O,m,633,7,,2263.0999999940395,663769.400000006,,NTS,A,4
9,5,test,3,C,circle.png,1,m,Fri Feb 20 2026 13:02:32 GMT-0600 (Central Standard Time),668980.099999994,1500,O,m,1426,24,,2941.9000000059605,666038.1999999881,,NTS,A,5
9,6,test,3,C,circle.png,1,m,Fri Feb 20 2026 13:02:32 GMT-0600 (Central Standard Time),671146.7999999821,1500,O,m,637,8,,2163.5999999940395,668983.1999999881,,NTS,A,6
1,7,test,3,C,circle.png,1,z,Fri Feb 20 2026 13:02:32 GMT-0600 (Central Standard Time),673413.6999999881,1000,O,z,1245,1,,2260.7999999821186,671152.900000006,,NTS,A,7
6,8,test,3,C,circle.png,1,m,Fri Feb 20 2026 13:02:32 GMT-0600 (Central Standard Time),676445.1999999881,1900,O,m,1111,21,,3026.5999999940395,673418.599999994,,NTS,A,8
6,9,test,3,C,triangle.png,1,m,Fri Feb 20 2026 13:02:32 GMT-0600 (Central Standard Time),678328.2999999821,1000,O,m,847,13,,1878.3999999761581,676449.900000006,,NTS,A,9
2,9,test,3,C,circle.png,0,z,Fri Feb 20 2026 13:02:32 GMT-0600 (Central Standard Time),681094.1999999881,1700,O,m,1034,10,,2759.4000000059605,678334.7999999821,,NTS,A,10
3,10,test,3,C,circle.png,1,z,Fri Feb 20 2026 13:02:32 GMT-0600 (Central Standard Time),683710.900000006,1600,O,z,985,11,,2612.600000023842,681098.2999999821,,NTS,A,11
4,10,test,3,C,triangle.png,0,m,Fri Feb 20 2026 13:02:32 GMT-0600 (Central Standard Time),686741.900000006,1500,O,None,1515,12,,3025.9000000059605,683716.0,,NTS,A,12
8,11,test,3,C,circle.png,1,m,Fri Feb 20 2026 13:02:32 GMT-0600 (Central Standard Time),689158.099999994,1200,O,m,1192,15,,2413.300000011921,686744.7999999821,,NTS,A,13
1,12,test,3,C,triangle.png,1,z,Fri Feb 20 2026 13:02:32 GMT-0600 (Central Standard Time),691841.400000006,1900,O,z,763,9,,2678.300000011921,689163.099999994,,NTS,A,14
4,13,test,3,C,circle.png,1,z,Fri Feb 20 2026 13:02:32 GMT-0600 (Central Standard Time),694407.900000006,1400,O,z,1133,20,,2559.800000011921,691848.099999994,,NTS,A,15
8,14,test,3,C,triangle.png,1,m,Fri Feb 20 2026 13:02:32 GMT-0600 (Central Standard Time),696857.099999994,1600,O,m,825,23,,2444.0999999940395,694413.0,,NTS,A,16
3,15,test,3,C,triangle.png,1,z,Fri Feb 20 2026 13:02:32 GMT-0600 (Central Standard Time),699355.5,1200,O,z,1282,3,,2494.2000000178814,696861.2999999821,,NTS,A,17
2,16,test,3,C,triangle.png,1,m,Fri Feb 20 2026 13:02:32 GMT-0600 (Central Standard Time),702137.900000006,2000,O,m,756,2,,2777.800000011921,699360.099999994,,NTS,A,18
6,17,test,3,C,circle.png,1,m,Fri Feb 20 2026 13:02:32 GMT-0600 (Central Standard Time),704719.1999999881,1900,O,m,658,5,,2576.5,702142.6999999881,,NTS,A,19
7,18,test,3,C,circle.png,1,m,Fri Feb 20 2026 13:02:32 GMT-0600 (Central Standard Time),708185.400000006,2000,O,m,1439,14,,3460.600000023842,704724.7999999821,,NTS,A,20
1,19,test,3,C,circle.png,1,z,Fri Feb 20 2026 13:02:32 GMT-0600 (Central Standard Time),710036.1999999881,1000,O,z,823,17,,1847.0,708189.1999999881,,NTS,A,21
7,20,test,3,C,triangle.png,1,z,Fri Feb 20 2026 13:02:32 GMT-0600 (Central Standard Time),712834.5,1700,O,z,1073,22,,2794.7000000178814,710039.7999999821,,NTS,A,22
9,20,test,3,C,triangle.png,0,z,Fri Feb 20 2026 13:02:32 GMT-0600 (Central Standard Time),715433.1999999881,1400,O,m,1182,16,,2594.5999999940395,712838.599999994,,NTS,A,23
4,21,test,3,C,circle.png,1,z,Fri Feb 20 2026 13:02:32 GMT-0600 (Central Standard Time),717815.5,1400,O,z,957,4,,2376.4000000059605,715439.099999994,,NTS,A,24
9,1,test,4,C,circle.png,1,m,Fri Feb 20 2026 13:02:32 GMT-0600 (Central Standard Time),729529.5,1500,O,m,1463,24,,2977.2000000178814,726552.2999999821,,NTS,A,1
9,2,test,4,C,triangle.png,1,z,Fri Feb 20 2026 13:02:32 GMT-0600 (Central Standard Time),731895.599999994,1400,O,z,950,16,,2362.5999999940395,729533.0,,NTS,A,2
4,3,test,4,C,triangle.png,1,m,Fri Feb 20 2026 13:02:32 GMT-0600 (Central Standard Time),734760.2999999821,1500,O,m,1349,12,,2860.399999976158,731899.900000006,,NTS,A,3
3,4,test,4,C,triangle.png,1,z,Fri Feb 20 2026 13:02:32 GMT-0600 (Central Standard Time),736976.1999999881,1200,O,z,984,3,,2210.5999999940395,734765.599999994,,NTS,A,4
1,5,test,4,C,circle.png,1,z,Fri Feb 20 2026 13:02:32 GMT-0600 (Central Standard Time),739275.1999999881,1000,O,z,1268,1,,2295.0999999940395,736980.099999994,,NTS,A,5
7,6,test,4,C,triangle.png,1,z,Fri Feb 20 2026 13:02:32 GMT-0600 (Central Standard Time),741976.0,1700,O,z,984,6,,2695.7000000178814,739280.2999999821,,NTS,A,6
8,7,test,4,C,circle.png,1,m,Fri Feb 20 2026 13:02:32 GMT-0600 (Central Standard Time),744458.5,1200,O,m,1254,15,,2478.800000011921,741979.6999999881,,NTS,A,7
6,8,test,4,C,circle.png,1,m,Fri Feb 20 2026 13:02:32 GMT-0600 (Central Standard Time),747139.099999994,1900,O,m,753,5,,2677.0999999940395,744462.0,,NTS,A,8
8,9,test,4,C,triangle.png,1,m,Fri Feb 20 2026 13:02:32 GMT-0600 (Central Standard Time),749672.1999999881,1600,O,m,916,7,,2528.9000000059605,747143.2999999821,,NTS,A,9
7,9,test,4,C,triangle.png,0,z,Fri Feb 20 2026 13:02:32 GMT-0600 (Central Standard Time),752906.0,1700,O,None,1517,22,,3230.9000000059605,749675.099999994,,NTS,A,10
4,10,test,4,C,circle.png,1,z,Fri Feb 20 2026 13:02:32 GMT-0600 (Central Standard Time),755570.6999999881,1400,O,z,1247,20,,2661.2999999821186,752909.400000006,,NTS,A,11
2,11,test,4,C,triangle.png,1,m,Fri Feb 20 2026 13:02:32 GMT-0600 (Central Standard Time),758887.599999994,2000,O,m,1293,2,,3312.5,755575.099999994,,NTS,A,12
1,12,test,4,C,triangle.png,1,z,Fri Feb 20 2026 13:02:32 GMT-0600 (Central Standard Time),761851.2999999821,1900,O,z,1045,9,,2959.0,758892.2999999821,,NTS,A,13
3,13,test,4,C,circle.png,1,z,Fri Feb 20 2026 13:02:32 GMT-0600 (Central Standard Time),764750.5,1600,O,z,1267,11,,2894.800000011921,761855.6999999881,,NTS,A,14
6,14,test,4,C,triangle.png,1,m,Fri Feb 20 2026 13:02:32 GMT-0600 (Central Standard Time),766683.400000006,1000,O,m,913,13,,1927.0,764756.400000006,,NTS,A,15
8,15,test,4,C,triangle.png,1,m,Fri Feb 20 2026 13:02:32 GMT-0600 (Central Standard Time),768965.900000006,1600,O,m,659,23,,2278.9000000059605,766687.0,,NTS,A,16
4,16,test,4,C,circle.png,1,z,Fri Feb 20 2026 13:02:32 GMT-0600 (Central Standard Time),771249.1999999881,1400,O,z,849,4,,2278.9000000059605,768970.2999999821,,NTS,A,17
2,17,test,4,C,circle.png,1,z,Fri Feb 20 2026 13:02:32 GMT-0600 (Central Standard Time),773931.7999999821,1700,O,z,954,10,,2678.7999999821186,771253.0,,NTS,A,18
3,18,test,4,C,triangle.png,1,z,Fri Feb 20 2026 13:02:32 GMT-0600 (Central Standard Time),776065.0,1200,O,z,908,19,,2128.0,773937.0,,NTS,A,19
1,19,test,4,C,circle.png,1,z,Fri Feb 20 2026 13:02:32 GMT-0600 (Central Standard Time),777898.599999994,1000,O,z,817,17,,1830.5,776068.099999994,,NTS,A,20
7,20,test,4,C,circle.png,1,m,Fri Feb 20 2026 13:02:32 GMT-0600 (Central Standard Time),781061.599999994,2000,O,m,1142,14,,3158.800000011921,777902.7999999821,,NTS,A,21
2,21,test,4,C,triangle.png,1,m,Fri Feb 20 2026 13:02:32 GMT-0600 (Central Standard Time),784029.400000006,2000,O,m,936,18,,2964.9000000059605,781064.5,,NTS,A,22
9,22,test,4,C,circle.png,1,m,Fri Feb 20 2026 13:02:32 GMT-0600 (Central Standard Time),786811.400000006,1500,O,m,1263,8,,2777.5,784033.900000006,,NTS,A,23
6,23,test,4,C,circle.png,1,m,Fri Feb 20 2026 13:02:32 GMT-0600 (Central Standard Time),790160.599999994,1900,O,m,1423,21,,3343.800000011921,786816.7999999821,,NTS,A,24
