acc_sum,block,block_c,block_cond,con_img,correct,correct_response,datetime,endtime,face,jitter,line,project,response,response_time,row_sel,session_number,start_end,starttime,subject_id,task,task_vers,trial
0,prac,1,A,haborder.png,0,m,Fri Sep 05 2025 13:48:59 GMT-0500 (Central Daylight Time),53847.300000190735,CFD-BM-034-035-HC.jpg,1700,solid,O,None,1514,1,1,3999.5,49847.800000190735,7202,ATS,C,1
1,prac,1,A,haborder.png,1,m,Fri Sep 05 2025 13:48:59 GMT-0500 (Central Daylight Time),56696.2000002861,CFD-WF-013-009-HC.jpg,1500,solid,O,m,560,11,1,6848.400000095367,49847.800000190735,7202,ATS,C,2
2,prac,1,A,haborder.png,1,z,Fri Sep 05 2025 13:48:59 GMT-0500 (Central Daylight Time),59628.800000190735,CFD-WF-037-016-A.jpg,1600,solid,O,z,555,10,1,9781.0,49847.800000190735,7202,ATS,C,3
3,prac,1,A,haborder.png,1,z,Fri Sep 05 2025 13:48:59 GMT-0500 (Central Daylight Time),62045.60000038147,CFD-BF-002-018-A.jpg,1200,solid,O,z,422,6,1,12197.800000190735,49847.800000190735,7202,ATS,C,4
4,prac,1,A,haborder.png,1,m,Fri Sep 05 2025 13:48:59 GMT-0500 (Central Daylight Time),65277.10000038147,CFD-WM-035-036-HC.jpg,1700,solid,O,m,732,9,1,15429.300000190735,49847.800000190735,7202,ATS,C,5
5,prac,1,A,haborder.png,1,z,Fri Sep 05 2025 13:48:59 GMT-0500 (Central Daylight Time),67627.10000038147,CFD-WF-023-013-A.jpg,1000,solid,O,z,567,12,1,17779.300000190735,49847.800000190735,7202,ATS,C,6
5,prac,1,A,haborder.png,0,m,Fri Sep 05 2025 13:48:59 GMT-0500 (Central Daylight Time),70443.30000019073,CFD-BM-022-004-HC.jpg,1500,solid,O,z,526,3,1,20595.5,49847.800000190735,7202,ATS,C,7
6,prac,1,A,haborder.png,1,m,Fri Sep 05 2025 13:48:59 GMT-0500 (Central Daylight Time),74023.7000002861,CFD-BF-019-004-HC.jpg,2000,solid,O,m,795,5,1,24175.900000095367,49847.800000190735,7202,ATS,C,8
7,prac,1,A,haborder.png,1,m,Fri Sep 05 2025 13:48:59 GMT-0500 (Central Daylight Time),76789.7000002861,CFD-WM-028-005-HC.jpg,1400,solid,O,m,587,7,1,26941.900000095367,49847.800000190735,7202,ATS,C,9
8,prac,1,A,haborder.png,1,z,Fri Sep 05 2025 13:48:59 GMT-0500 (Central Daylight Time),79838.40000009537,CFD-BM-043-014-A.jpg,1600,solid,O,z,666,2,1,29990.599999904633,49847.800000190735,7202,ATS,C,10
9,prac,1,A,haborder.png,1,z,Fri Sep 05 2025 13:48:59 GMT-0500 (Central Daylight Time),82289.60000038147,CFD-BF-031-020-A.jpg,1000,solid,O,z,669,4,1,32441.800000190735,49847.800000190735,7202,ATS,C,11
10,prac,1,A,haborder.png,1,z,Fri Sep 05 2025 13:48:59 GMT-0500 (Central Daylight Time),85937.7000002861,CFD-WM-036-018-A.jpg,1900,solid,O,z,952,8,1,36089.90000009537,49847.800000190735,7202,ATS,C,12
1,prac,1,B,mfborder.png,1,m,Fri Sep 05 2025 13:48:59 GMT-0500 (Central Daylight Time),112642.80000019073,CFD-BM-021-026-A.jpg,1600,2,O,m,1391,dash,1,3778.699999809265,108864.10000038147,7202,ATS,C,1
2,prac,1,B,mfborder.png,1,z,Fri Sep 05 2025 13:48:59 GMT-0500 (Central Daylight Time),115510.90000009537,CFD-BF-042-031-HC.jpg,1500,3,O,z,571,dash,1,6646.799999713898,108864.10000038147,7202,ATS,C,2
3,prac,1,B,mfborder.png,1,m,Fri Sep 05 2025 13:48:59 GMT-0500 (Central Daylight Time),118807.30000019073,CFD-BM-043-014-A.jpg,2000,5,O,m,514,dash,1,9943.199999809265,108864.10000038147,7202,ATS,C,3
4,prac,1,B,mfborder.png,1,z,Fri Sep 05 2025 13:48:59 GMT-0500 (Central Daylight Time),122008.90000009537,CFD-WF-001-010-HC.jpg,1900,8,O,z,528,dash,1,13144.799999713898,108864.10000038147,7202,ATS,C,4
5,prac,1,B,mfborder.png,1,z,Fri Sep 05 2025 13:48:59 GMT-0500 (Central Daylight Time),124757.80000019073,CFD-BF-019-004-HC.jpg,1400,7,O,z,555,dash,1,15893.699999809265,108864.10000038147,7202,ATS,C,5
6,prac,1,B,mfborder.png,1,m,Fri Sep 05 2025 13:48:59 GMT-0500 (Central Daylight Time),127725.10000038147,CFD-WM-035-036-HC.jpg,1600,10,O,m,551,dash,1,18861.0,108864.10000038147,7202,ATS,C,6
7,prac,1,B,mfborder.png,1,z,Fri Sep 05 2025 13:48:59 GMT-0500 (Central Daylight Time),130056.0,CFD-WF-013-009-HC.jpg,1000,12,O,z,545,dash,1,21191.89999961853,108864.10000038147,7202,ATS,C,7
8,prac,1,B,mfborder.png,1,m,Fri Sep 05 2025 13:48:59 GMT-0500 (Central Daylight Time),132555.90000009537,CFD-WM-034-040-A.jpg,1200,6,O,m,508,dash,1,23691.799999713898,108864.10000038147,7202,ATS,C,8
9,prac,1,B,mfborder.png,1,z,Fri Sep 05 2025 13:48:59 GMT-0500 (Central Daylight Time),135471.5,CFD-WF-037-016-A.jpg,1500,11,O,z,628,dash,1,26607.39999961853,108864.10000038147,7202,ATS,C,9
10,prac,1,B,mfborder.png,1,z,Fri Sep 05 2025 13:48:59 GMT-0500 (Central Daylight Time),137903.40000009537,CFD-BF-031-020-A.jpg,1000,4,O,z,649,dash,1,29039.299999713898,108864.10000038147,7202,ATS,C,10
11,prac,1,B,mfborder.png,1,m,Fri Sep 05 2025 13:48:59 GMT-0500 (Central Daylight Time),140887.10000038147,CFD-WM-036-018-A.jpg,1700,9,O,m,504,dash,1,32023.0,108864.10000038147,7202,ATS,C,11
12,prac,1,B,mfborder.png,1,m,Fri Sep 05 2025 13:48:59 GMT-0500 (Central Daylight Time),144036.2000002861,CFD-BM-022-004-HC.jpg,1700,1,O,m,658,dash,1,35172.09999990463,108864.10000038147,7202,ATS,C,12
1,test,1,A,haborder.png,1,m,Fri Sep 05 2025 13:48:59 GMT-0500 (Central Daylight Time),160929.2000002861,CFD-WM-028-005-HC.jpg,1400,solid,O,m,561,7,1,1982.5,158946.7000002861,7202,ATS,C,1
2,test,1,A,haborder.png,1,z,Fri Sep 05 2025 13:48:59 GMT-0500 (Central Daylight Time),162947.0,CFD-WF-037-016-A.jpg,1600,solid,O,z,394,10,1,4000.2999997138977,158946.7000002861,7202,ATS,C,2
3,test,1,A,haborder.png,1,m,Fri Sep 05 2025 13:48:59 GMT-0500 (Central Daylight Time),164862.7000002861,CFD-WM-028-005-HC.jpg,1400,solid,O,m,490,7,1,5916.0,158946.7000002861,7202,ATS,C,3
3,test,1,A,haborder.png,0,z,Fri Sep 05 2025 13:48:59 GMT-0500 (Central Daylight Time),167378.10000038147,CFD-WM-036-018-A.jpg,1900,solid,O,m,586,8,1,8431.400000095367,158946.7000002861,7202,ATS,C,4
4,test,1,A,haborder.png,1,m,Fri Sep 05 2025 13:48:59 GMT-0500 (Central Daylight Time),169742.10000038147,CFD-WM-035-036-HC.jpg,1700,solid,O,m,637,9,1,10795.400000095367,158946.7000002861,7202,ATS,C,5
5,test,1,A,haborder.png,1,z,Fri Sep 05 2025 13:48:59 GMT-0500 (Central Daylight Time),171575.80000019073,CFD-BF-031-020-A.jpg,1000,solid,O,z,814,4,1,12629.099999904633,158946.7000002861,7202,ATS,C,6
6,test,1,A,haborder.png,1,m,Fri Sep 05 2025 13:48:59 GMT-0500 (Central Daylight Time),174041.60000038147,CFD-WM-035-036-HC.jpg,1700,solid,O,m,743,9,1,15094.900000095367,158946.7000002861,7202,ATS,C,7
7,test,1,A,haborder.png,1,m,Fri Sep 05 2025 13:48:59 GMT-0500 (Central Daylight Time),176325.2000002861,CFD-BM-034-035-HC.jpg,1700,solid,O,m,566,1,1,17378.5,158946.7000002861,7202,ATS,C,8
8,test,1,A,haborder.png,1,z,Fri Sep 05 2025 13:48:59 GMT-0500 (Central Daylight Time),178724.7000002861,CFD-BM-043-014-A.jpg,1600,solid,O,z,767,2,1,19778.0,158946.7000002861,7202,ATS,C,9
9,test,1,A,haborder.png,1,m,Fri Sep 05 2025 13:48:59 GMT-0500 (Central Daylight Time),181623.2000002861,CFD-BF-019-004-HC.jpg,2000,solid,O,m,871,5,1,22676.5,158946.7000002861,7202,ATS,C,10
10,test,1,A,haborder.png,1,m,Fri Sep 05 2025 13:48:59 GMT-0500 (Central Daylight Time),184038.7000002861,CFD-BM-022-004-HC.jpg,1500,solid,O,m,885,3,1,25092.0,158946.7000002861,7202,ATS,C,11
11,test,1,A,haborder.png,1,z,Fri Sep 05 2025 13:48:59 GMT-0500 (Central Daylight Time),186255.10000038147,CFD-WF-037-016-A.jpg,1600,solid,O,z,593,10,1,27308.400000095367,158946.7000002861,7202,ATS,C,12
12,test,1,A,haborder.png,1,z,Fri Sep 05 2025 13:48:59 GMT-0500 (Central Daylight Time),188570.5,CFD-WM-036-018-A.jpg,1900,solid,O,z,384,8,1,29623.799999713898,158946.7000002861,7202,ATS,C,13
13,test,1,A,haborder.png,1,z,Fri Sep 05 2025 13:48:59 GMT-0500 (Central Daylight Time),190436.80000019073,CFD-WF-023-013-A.jpg,1000,solid,O,z,833,12,1,31490.099999904633,158946.7000002861,7202,ATS,C,14
14,test,1,A,haborder.png,1,m,Fri Sep 05 2025 13:48:59 GMT-0500 (Central Daylight Time),193302.90000009537,CFD-BF-019-004-HC.jpg,2000,solid,O,m,834,5,1,34356.199999809265,158946.7000002861,7202,ATS,C,15
15,test,1,A,haborder.png,1,z,Fri Sep 05 2025 13:48:59 GMT-0500 (Central Daylight Time),195151.0,CFD-BF-031-020-A.jpg,1000,solid,O,z,827,4,1,36204.2999997139,158946.7000002861,7202,ATS,C,16
16,test,1,A,haborder.png,1,m,Fri Sep 05 2025 13:48:59 GMT-0500 (Central Daylight Time),197884.90000009537,CFD-BM-034-035-HC.jpg,1700,solid,O,m,1009,1,1,38938.199999809265,158946.7000002861,7202,ATS,C,17
17,test,1,A,haborder.png,1,z,Fri Sep 05 2025 13:48:59 GMT-0500 (Central Daylight Time),200133.0,CFD-BM-043-014-A.jpg,1600,solid,O,z,618,2,1,41186.2999997139,158946.7000002861,7202,ATS,C,18
18,test,1,A,haborder.png,1,z,Fri Sep 05 2025 13:48:59 GMT-0500 (Central Daylight Time),201816.7000002861,CFD-WF-023-013-A.jpg,1000,solid,O,z,665,12,1,42870.0,158946.7000002861,7202,ATS,C,19
19,test,1,A,haborder.png,1,m,Fri Sep 05 2025 13:48:59 GMT-0500 (Central Daylight Time),203865.40000009537,CFD-WF-013-009-HC.jpg,1500,solid,O,m,521,11,1,44918.699999809265,158946.7000002861,7202,ATS,C,20
20,test,1,A,haborder.png,1,z,Fri Sep 05 2025 13:48:59 GMT-0500 (Central Daylight Time),205965.80000019073,CFD-BF-002-018-A.jpg,1200,solid,O,z,869,6,1,47019.09999990463,158946.7000002861,7202,ATS,C,21
21,test,1,A,haborder.png,1,m,Fri Sep 05 2025 13:48:59 GMT-0500 (Central Daylight Time),208230.90000009537,CFD-BM-022-004-HC.jpg,1500,solid,O,m,733,3,1,49284.199999809265,158946.7000002861,7202,ATS,C,22
22,test,1,A,haborder.png,1,z,Fri Sep 05 2025 13:48:59 GMT-0500 (Central Daylight Time),210012.90000009537,CFD-BF-002-018-A.jpg,1200,solid,O,z,551,6,1,51066.199999809265,158946.7000002861,7202,ATS,C,23
23,test,1,A,haborder.png,1,m,Fri Sep 05 2025 13:48:59 GMT-0500 (Central Daylight Time),212279.2000002861,CFD-WF-013-009-HC.jpg,1500,solid,O,m,738,11,1,53332.5,158946.7000002861,7202,ATS,C,24
1,test,1,B,mfborder.png,1,m,Fri Sep 05 2025 13:48:59 GMT-0500 (Central Daylight Time),226774.90000009537,CFD-WM-035-036-HC.jpg,1600,dash,O,m,599,10,1,2215.199999809265,224559.7000002861,7202,ATS,C,1
2,test,1,B,mfborder.png,1,m,Fri Sep 05 2025 13:48:59 GMT-0500 (Central Daylight Time),228708.30000019073,CFD-WM-034-040-A.jpg,1200,dash,O,m,708,6,1,4148.599999904633,224559.7000002861,7202,ATS,C,2
3,test,1,B,mfborder.png,1,m,Fri Sep 05 2025 13:48:59 GMT-0500 (Central Daylight Time),231390.90000009537,CFD-WM-036-018-A.jpg,1700,dash,O,m,950,9,1,6831.199999809265,224559.7000002861,7202,ATS,C,3
4,test,1,B,mfborder.png,1,m,Fri Sep 05 2025 13:48:59 GMT-0500 (Central Daylight Time),234123.10000038147,CFD-BM-021-026-A.jpg,1600,dash,O,m,1101,2,1,9563.400000095367,224559.7000002861,7202,ATS,C,4
5,test,1,B,mfborder.png,1,z,Fri Sep 05 2025 13:48:59 GMT-0500 (Central Daylight Time),235655.5,CFD-WF-013-009-HC.jpg,1000,dash,O,z,505,12,1,11095.799999713898,224559.7000002861,7202,ATS,C,5
6,test,1,B,mfborder.png,1,m,Fri Sep 05 2025 13:48:59 GMT-0500 (Central Daylight Time),238221.5,CFD-BM-022-004-HC.jpg,1700,dash,O,m,834,1,1,13661.799999713898,224559.7000002861,7202,ATS,C,6
7,test,1,B,mfborder.png,1,m,Fri Sep 05 2025 13:48:59 GMT-0500 (Central Daylight Time),240770.60000038147,CFD-BM-043-014-A.jpg,2000,dash,O,m,518,5,1,16210.900000095367,224559.7000002861,7202,ATS,C,7
8,test,1,B,mfborder.png,1,m,Fri Sep 05 2025 13:48:59 GMT-0500 (Central Daylight Time),242919.5,CFD-WM-035-036-HC.jpg,1600,dash,O,m,528,10,1,18359.799999713898,224559.7000002861,7202,ATS,C,8
9,test,1,B,mfborder.png,1,z,Fri Sep 05 2025 13:48:59 GMT-0500 (Central Daylight Time),244419.30000019073,CFD-BF-031-020-A.jpg,1000,dash,O,z,478,4,1,19859.599999904633,224559.7000002861,7202,ATS,C,9
10,test,1,B,mfborder.png,1,m,Fri Sep 05 2025 13:48:59 GMT-0500 (Central Daylight Time),246586.0,CFD-BM-022-004-HC.jpg,1700,dash,O,m,438,1,1,22026.299999713898,224559.7000002861,7202,ATS,C,10
11,test,1,B,mfborder.png,1,z,Fri Sep 05 2025 13:48:59 GMT-0500 (Central Daylight Time),248151.2000002861,CFD-BF-031-020-A.jpg,1000,dash,O,z,537,4,1,23591.5,224559.7000002861,7202,ATS,C,11
12,test,1,B,mfborder.png,1,z,Fri Sep 05 2025 13:48:59 GMT-0500 (Central Daylight Time),250083.60000038147,CFD-BF-019-004-HC.jpg,1400,dash,O,z,500,7,1,25523.900000095367,224559.7000002861,7202,ATS,C,12
13,test,1,B,mfborder.png,1,z,Fri Sep 05 2025 13:48:59 GMT-0500 (Central Daylight Time),252149.5,CFD-WF-037-016-A.jpg,1500,dash,O,z,538,11,1,27589.799999713898,224559.7000002861,7202,ATS,C,13
14,test,1,B,mfborder.png,1,z,Fri Sep 05 2025 13:48:59 GMT-0500 (Central Daylight Time),254782.5,CFD-WF-001-010-HC.jpg,1900,dash,O,z,705,8,1,30222.799999713898,224559.7000002861,7202,ATS,C,14
15,test,1,B,mfborder.png,1,z,Fri Sep 05 2025 13:48:59 GMT-0500 (Central Daylight Time),256465.30000019073,CFD-WF-013-009-HC.jpg,1000,dash,O,z,636,12,1,31905.599999904633,224559.7000002861,7202,ATS,C,15
16,test,1,B,mfborder.png,1,m,Fri Sep 05 2025 13:48:59 GMT-0500 (Central Daylight Time),258598.0,CFD-BM-021-026-A.jpg,1600,dash,O,m,501,2,1,34038.2999997139,224559.7000002861,7202,ATS,C,16
17,test,1,B,mfborder.png,1,z,Fri Sep 05 2025 13:48:59 GMT-0500 (Central Daylight Time),260747.80000019073,CFD-BF-042-031-HC.jpg,1500,dash,O,z,625,3,1,36188.09999990463,224559.7000002861,7202,ATS,C,17
18,test,1,B,mfborder.png,1,z,Fri Sep 05 2025 13:48:59 GMT-0500 (Central Daylight Time),262830.40000009537,CFD-BF-019-004-HC.jpg,1400,dash,O,z,657,7,1,38270.699999809265,224559.7000002861,7202,ATS,C,18
19,test,1,B,mfborder.png,1,m,Fri Sep 05 2025 13:48:59 GMT-0500 (Central Daylight Time),265246.2000002861,CFD-WM-036-018-A.jpg,1700,dash,O,m,690,9,1,40686.5,224559.7000002861,7202,ATS,C,19
20,test,1,B,mfborder.png,1,z,Fri Sep 05 2025 13:48:59 GMT-0500 (Central Daylight Time),267727.5,CFD-WF-001-010-HC.jpg,1900,dash,O,z,553,8,1,43167.7999997139,224559.7000002861,7202,ATS,C,20
21,test,1,B,mfborder.png,1,z,Fri Sep 05 2025 13:48:59 GMT-0500 (Central Daylight Time),269794.40000009537,CFD-BF-042-031-HC.jpg,1500,dash,O,z,543,3,1,45234.699999809265,224559.7000002861,7202,ATS,C,21
22,test,1,B,mfborder.png,1,m,Fri Sep 05 2025 13:48:59 GMT-0500 (Central Daylight Time),271610.80000019073,CFD-WM-034-040-A.jpg,1200,dash,O,m,583,6,1,47051.09999990463,224559.7000002861,7202,ATS,C,22
23,test,1,B,mfborder.png,1,z,Fri Sep 05 2025 13:48:59 GMT-0500 (Central Daylight Time),273662.0,CFD-WF-037-016-A.jpg,1500,dash,O,z,533,11,1,49102.2999997139,224559.7000002861,7202,ATS,C,23
24,test,1,B,mfborder.png,1,m,Fri Sep 05 2025 13:48:59 GMT-0500 (Central Daylight Time),276311.30000019073,CFD-BM-043-014-A.jpg,2000,dash,O,m,633,5,1,51751.59999990463,224559.7000002861,7202,ATS,C,24
1,prac,1,C,haborder.png,1,m,Fri Sep 05 2025 13:48:59 GMT-0500 (Central Daylight Time),311765.7000002861,CFD-BM-022-004-HC.jpg,1500,solid,O,m,1357,5,1,3649.0,308116.7000002861,7202,ATS,C,1
2,prac,1,C,mfborder.png,1,z,Fri Sep 05 2025 13:48:59 GMT-0500 (Central Daylight Time),315398.10000038147,CFD-WF-013-009-HC.jpg,1600,dash,O,z,1253,5,1,7281.400000095367,308116.7000002861,7202,ATS,C,2
3,prac,1,C,mfborder.png,1,z,Fri Sep 05 2025 13:48:59 GMT-0500 (Central Daylight Time),318463.60000038147,CFD-WF-023-013-A.jpg,1500,solid,O,z,772,5,1,10346.900000095367,308116.7000002861,7202,ATS,C,3
4,prac,1,C,haborder.png,1,m,Fri Sep 05 2025 13:48:59 GMT-0500 (Central Daylight Time),321944.2000002861,CFD-WM-028-005-HC.jpg,1400,solid,O,m,1295,5,1,13827.5,308116.7000002861,7202,ATS,C,4
5,prac,1,C,mfborder.png,1,m,Fri Sep 05 2025 13:48:59 GMT-0500 (Central Daylight Time),325659.60000038147,CFD-BM-034-035-HC.jpg,2000,solid,O,m,919,5,1,17542.900000095367,308116.7000002861,7202,ATS,C,5
6,prac,1,C,mfborder.png,1,m,Fri Sep 05 2025 13:48:59 GMT-0500 (Central Daylight Time),329191.80000019073,CFD-WM-036-018-A.jpg,1700,solid,O,m,1045,5,1,21075.099999904633,308116.7000002861,7202,ATS,C,6
7,prac,1,C,haborder.png,1,m,Fri Sep 05 2025 13:48:59 GMT-0500 (Central Daylight Time),331641.10000038147,CFD-WM-028-005-HC.jpg,1000,dash,O,m,660,5,1,23524.400000095367,308116.7000002861,7202,ATS,C,7
8,prac,1,C,haborder.png,1,z,Fri Sep 05 2025 13:48:59 GMT-0500 (Central Daylight Time),335223.10000038147,CFD-BF-031-020-A.jpg,1900,dash,O,z,885,5,1,27106.400000095367,308116.7000002861,7202,ATS,C,8
9,prac,1,C,haborder.png,1,z,Fri Sep 05 2025 13:48:59 GMT-0500 (Central Daylight Time),338372.40000009537,CFD-BF-002-018-A.jpg,1700,solid,O,z,635,5,1,30255.699999809265,308116.7000002861,7202,ATS,C,9
9,prac,1,C,mfborder.png,0,z,Fri Sep 05 2025 13:48:59 GMT-0500 (Central Daylight Time),341670.60000038147,CFD-BF-019-004-HC.jpg,1000,dash,O,None,1516,5,1,33553.90000009537,308116.7000002861,7202,ATS,C,10
10,prac,1,C,haborder.png,1,z,Fri Sep 05 2025 13:48:59 GMT-0500 (Central Daylight Time),344937.80000019073,CFD-WF-037-016-A.jpg,1600,dash,O,z,893,5,1,36821.09999990463,308116.7000002861,7202,ATS,C,11
11,prac,1,C,mfborder.png,1,m,Fri Sep 05 2025 13:48:59 GMT-0500 (Central Daylight Time),347535.80000019073,CFD-BM-043-014-A.jpg,1200,dash,O,m,611,5,1,39419.09999990463,308116.7000002861,7202,ATS,C,12
1,test,1,C,mfborder.png,1,m,Fri Sep 05 2025 13:48:59 GMT-0500 (Central Daylight Time),357717.10000038147,CFD-WM-034-040-A.jpg,2000,dash,O,m,801,5,1,2832.2000002861023,354884.90000009537,7202,ATS,C,1
2,test,1,C,mfborder.png,1,z,Fri Sep 05 2025 13:48:59 GMT-0500 (Central Daylight Time),360382.40000009537,CFD-BF-031-020-A.jpg,1600,dash,O,z,1048,2,1,5497.5,354884.90000009537,7202,ATS,C,2
3,test,1,C,mfborder.png,1,m,Fri Sep 05 2025 13:48:59 GMT-0500 (Central Daylight Time),362314.90000009537,CFD-BM-022-004-HC.jpg,1200,dash,O,m,709,6,1,7430.0,354884.90000009537,7202,ATS,C,3
4,test,1,C,haborder.png,1,m,Fri Sep 05 2025 13:48:59 GMT-0500 (Central Daylight Time),364765.30000019073,CFD-WF-013-009-HC.jpg,1000,solid,O,m,1417,12,1,9880.400000095367,354884.90000009537,7202,ATS,C,4
5,test,1,C,mfborder.png,1,m,Fri Sep 05 2025 13:48:59 GMT-0500 (Central Daylight Time),367997.2000002861,CFD-WM-034-040-A.jpg,2000,dash,O,m,1206,5,1,13112.300000190735,354884.90000009537,7202,ATS,C,5
6,test,1,C,haborder.png,1,z,Fri Sep 05 2025 13:48:59 GMT-0500 (Central Daylight Time),370446.0,CFD-WM-036-018-A.jpg,1400,solid,O,z,1017,7,1,15561.099999904633,354884.90000009537,7202,ATS,C,6
7,test,1,C,mfborder.png,1,m,Fri Sep 05 2025 13:48:59 GMT-0500 (Central Daylight Time),372429.5,CFD-BM-022-004-HC.jpg,1200,dash,O,m,759,6,1,17544.599999904633,354884.90000009537,7202,ATS,C,7
8,test,1,C,mfborder.png,1,m,Fri Sep 05 2025 13:48:59 GMT-0500 (Central Daylight Time),374245.10000038147,CFD-WM-035-036-HC.jpg,1000,dash,O,m,792,4,1,19360.200000286102,354884.90000009537,7202,ATS,C,8
9,test,1,C,haborder.png,1,z,Fri Sep 05 2025 13:48:59 GMT-0500 (Central Daylight Time),377293.2000002861,CFD-BM-021-026-A.jpg,1700,solid,O,z,1333,9,1,22408.300000190735,354884.90000009537,7202,ATS,C,9
10,test,1,C,mfborder.png,1,z,Fri Sep 05 2025 13:48:59 GMT-0500 (Central Daylight Time),380142.80000019073,CFD-BF-042-031-HC.jpg,1700,dash,O,z,1133,1,1,25257.900000095367,354884.90000009537,7202,ATS,C,10
11,test,1,C,haborder.png,1,z,Fri Sep 05 2025 13:48:59 GMT-0500 (Central Daylight Time),382976.0,CFD-BM-021-026-A.jpg,1700,solid,O,z,1105,9,1,28091.099999904633,354884.90000009537,7202,ATS,C,11
11,test,1,C,haborder.png,0,m,Fri Sep 05 2025 13:48:59 GMT-0500 (Central Daylight Time),386093.2000002861,CFD-BF-019-004-HC.jpg,1600,solid,O,None,1501,10,1,31208.300000190735,354884.90000009537,7202,ATS,C,12
12,test,1,C,haborder.png,1,m,Fri Sep 05 2025 13:48:59 GMT-0500 (Central Daylight Time),387873.5,CFD-WF-013-009-HC.jpg,1000,solid,O,m,761,12,1,32988.59999990463,354884.90000009537,7202,ATS,C,13
13,test,1,C,haborder.png,1,z,Fri Sep 05 2025 13:48:59 GMT-0500 (Central Daylight Time),390623.90000009537,CFD-WM-036-018-A.jpg,1400,solid,O,z,1323,7,1,35739.0,354884.90000009537,7202,ATS,C,14
14,test,1,C,mfborder.png,1,z,Fri Sep 05 2025 13:48:59 GMT-0500 (Central Daylight Time),393170.2000002861,CFD-WF-037-016-A.jpg,1500,dash,O,z,1025,3,1,38285.300000190735,354884.90000009537,7202,ATS,C,15
15,test,1,C,haborder.png,1,m,Fri Sep 05 2025 13:48:59 GMT-0500 (Central Daylight Time),396020.10000038147,CFD-WF-001-010-HC.jpg,1500,solid,O,m,1323,11,1,41135.2000002861,354884.90000009537,7202,ATS,C,16
16,test,1,C,haborder.png,1,m,Fri Sep 05 2025 13:48:59 GMT-0500 (Central Daylight Time),398538.60000038147,CFD-BF-019-004-HC.jpg,1600,solid,O,m,894,10,1,43653.7000002861,354884.90000009537,7202,ATS,C,17
17,test,1,C,haborder.png,1,m,Fri Sep 05 2025 13:48:59 GMT-0500 (Central Daylight Time),400668.80000019073,CFD-WF-001-010-HC.jpg,1500,solid,O,m,607,11,1,45783.90000009537,354884.90000009537,7202,ATS,C,18
18,test,1,C,haborder.png,1,z,Fri Sep 05 2025 13:48:59 GMT-0500 (Central Daylight Time),403536.10000038147,CFD-BM-043-014-A.jpg,1900,solid,O,z,938,8,1,48651.2000002861,354884.90000009537,7202,ATS,C,19
19,test,1,C,mfborder.png,1,m,Fri Sep 05 2025 13:48:59 GMT-0500 (Central Daylight Time),405469.30000019073,CFD-WM-035-036-HC.jpg,1000,dash,O,m,900,4,1,50584.40000009537,354884.90000009537,7202,ATS,C,20
20,test,1,C,mfborder.png,1,z,Fri Sep 05 2025 13:48:59 GMT-0500 (Central Daylight Time),407816.5,CFD-BF-031-020-A.jpg,1600,dash,O,z,720,2,1,52931.59999990463,354884.90000009537,7202,ATS,C,21
20,test,1,C,haborder.png,0,z,Fri Sep 05 2025 13:48:59 GMT-0500 (Central Daylight Time),410583.2000002861,CFD-BM-043-014-A.jpg,1900,solid,O,m,839,8,1,55698.300000190735,354884.90000009537,7202,ATS,C,22
20,test,1,C,mfborder.png,0,z,Fri Sep 05 2025 13:48:59 GMT-0500 (Central Daylight Time),413616.30000019073,CFD-WF-037-016-A.jpg,1500,dash,O,None,1516,3,1,58731.40000009537,354884.90000009537,7202,ATS,C,23
21,test,1,C,mfborder.png,1,z,Fri Sep 05 2025 13:48:59 GMT-0500 (Central Daylight Time),415947.7000002861,CFD-BF-042-031-HC.jpg,1700,dash,O,z,607,1,1,61062.800000190735,354884.90000009537,7202,ATS,C,24
1,test,2,C,haborder.png,1,m,Fri Sep 05 2025 13:48:59 GMT-0500 (Central Daylight Time),421862.2000002861,CFD-WM-028-005-HC.jpg,1500,solid,O,m,989,11,1,2515.0,419347.2000002861,7202,ATS,C,1
2,test,2,C,mfborder.png,1,z,Fri Sep 05 2025 13:48:59 GMT-0500 (Central Daylight Time),424312.40000009537,CFD-BF-019-004-HC.jpg,1500,dash,O,z,921,3,1,4965.199999809265,419347.2000002861,7202,ATS,C,2
3,test,2,C,haborder.png,1,m,Fri Sep 05 2025 13:48:59 GMT-0500 (Central Daylight Time),426378.90000009537,CFD-WM-028-005-HC.jpg,1000,solid,O,m,1035,12,1,7031.699999809265,419347.2000002861,7202,ATS,C,3
4,test,2,C,mfborder.png,1,z,Fri Sep 05 2025 13:48:59 GMT-0500 (Central Daylight Time),428794.60000038147,CFD-WF-023-013-A.jpg,1600,dash,O,z,785,2,1,9447.400000095367,419347.2000002861,7202,ATS,C,4
5,test,2,C,mfborder.png,1,z,Fri Sep 05 2025 13:48:59 GMT-0500 (Central Daylight Time),431176.80000019073,CFD-WF-013-009-HC.jpg,1700,dash,O,z,653,1,1,11829.599999904633,419347.2000002861,7202,ATS,C,5
6,test,2,C,mfborder.png,1,m,Fri Sep 05 2025 13:48:59 GMT-0500 (Central Daylight Time),433360.30000019073,CFD-WM-036-018-A.jpg,1200,dash,O,m,950,6,1,14013.099999904633,419347.2000002861,7202,ATS,C,6
7,test,2,C,mfborder.png,1,m,Fri Sep 05 2025 13:48:59 GMT-0500 (Central Daylight Time),435842.60000038147,CFD-WM-036-018-A.jpg,1200,dash,O,m,1252,6,1,16495.400000095367,419347.2000002861,7202,ATS,C,7
8,test,2,C,mfborder.png,1,m,Fri Sep 05 2025 13:48:59 GMT-0500 (Central Daylight Time),438624.30000019073,CFD-BM-043-014-A.jpg,2000,dash,O,m,762,5,1,19277.099999904633,419347.2000002861,7202,ATS,C,8
9,test,2,C,haborder.png,1,m,Fri Sep 05 2025 13:48:59 GMT-0500 (Central Daylight Time),440740.2000002861,CFD-WM-028-005-HC.jpg,1000,solid,O,m,1085,12,1,21393.0,419347.2000002861,7202,ATS,C,9
10,test,2,C,mfborder.png,1,z,Fri Sep 05 2025 13:48:59 GMT-0500 (Central Daylight Time),443671.90000009537,CFD-BF-019-004-HC.jpg,1500,dash,O,z,1412,3,1,24324.699999809265,419347.2000002861,7202,ATS,C,10
11,test,2,C,mfborder.png,1,z,Fri Sep 05 2025 13:48:59 GMT-0500 (Central Daylight Time),445920.5,CFD-WF-013-009-HC.jpg,1700,dash,O,z,528,1,1,26573.299999713898,419347.2000002861,7202,ATS,C,11
12,test,2,C,haborder.png,1,z,Fri Sep 05 2025 13:48:59 GMT-0500 (Central Daylight Time),448271.10000038147,CFD-BF-031-020-A.jpg,1400,solid,O,z,930,7,1,28923.900000095367,419347.2000002861,7202,ATS,C,12
13,test,2,C,mfborder.png,1,z,Fri Sep 05 2025 13:48:59 GMT-0500 (Central Daylight Time),450836.30000019073,CFD-WF-023-013-A.jpg,1600,dash,O,z,943,2,1,31489.099999904633,419347.2000002861,7202,ATS,C,13
14,test,2,C,mfborder.png,1,m,Fri Sep 05 2025 13:48:59 GMT-0500 (Central Daylight Time),453985.30000019073,CFD-BM-043-014-A.jpg,2000,dash,O,m,1119,5,1,34638.09999990463,419347.2000002861,7202,ATS,C,14
15,test,2,C,mfborder.png,1,m,Fri Sep 05 2025 13:48:59 GMT-0500 (Central Daylight Time),455886.0,CFD-BM-034-035-HC.jpg,1000,dash,O,m,872,4,1,36538.7999997139,419347.2000002861,7202,ATS,C,15
16,test,2,C,haborder.png,1,m,Fri Sep 05 2025 13:48:59 GMT-0500 (Central Daylight Time),458833.30000019073,CFD-BM-022-004-HC.jpg,1600,solid,O,m,1327,10,1,39486.09999990463,419347.2000002861,7202,ATS,C,16
17,test,2,C,haborder.png,1,z,Fri Sep 05 2025 13:48:59 GMT-0500 (Central Daylight Time),461050.60000038147,CFD-BF-031-020-A.jpg,1400,solid,O,z,784,7,1,41703.40000009537,419347.2000002861,7202,ATS,C,17
18,test,2,C,haborder.png,1,m,Fri Sep 05 2025 13:48:59 GMT-0500 (Central Daylight Time),463318.30000019073,CFD-WM-028-005-HC.jpg,1500,solid,O,m,736,11,1,43971.09999990463,419347.2000002861,7202,ATS,C,18
19,test,2,C,haborder.png,1,z,Fri Sep 05 2025 13:48:59 GMT-0500 (Central Daylight Time),466133.30000019073,CFD-BF-002-018-A.jpg,1900,solid,O,z,886,8,1,46786.09999990463,419347.2000002861,7202,ATS,C,19
20,test,2,C,haborder.png,1,z,Fri Sep 05 2025 13:48:59 GMT-0500 (Central Daylight Time),468697.60000038147,CFD-BF-002-018-A.jpg,1900,solid,O,z,635,8,1,49350.40000009537,419347.2000002861,7202,ATS,C,20
21,test,2,C,haborder.png,1,z,Fri Sep 05 2025 13:48:59 GMT-0500 (Central Daylight Time),471313.5,CFD-WF-037-016-A.jpg,1700,solid,O,z,892,9,1,51966.2999997139,419347.2000002861,7202,ATS,C,21
22,test,2,C,haborder.png,1,z,Fri Sep 05 2025 13:48:59 GMT-0500 (Central Daylight Time),473695.40000009537,CFD-WF-037-016-A.jpg,1700,solid,O,z,662,9,1,54348.199999809265,419347.2000002861,7202,ATS,C,22
23,test,2,C,mfborder.png,1,m,Fri Sep 05 2025 13:48:59 GMT-0500 (Central Daylight Time),475462.40000009537,CFD-BM-034-035-HC.jpg,1000,dash,O,m,739,4,1,56115.199999809265,419347.2000002861,7202,ATS,C,23
24,test,2,C,haborder.png,1,m,Fri Sep 05 2025 13:48:59 GMT-0500 (Central Daylight Time),477880.0,CFD-BM-022-004-HC.jpg,1600,solid,O,m,799,10,1,58532.7999997139,419347.2000002861,7202,ATS,C,24
1,test,3,C,mfborder.png,1,z,Fri Sep 05 2025 13:48:59 GMT-0500 (Central Daylight Time),482260.7000002861,CFD-BF-031-020-A.jpg,1600,dash,O,z,1093,2,1,2715.800000190735,479544.90000009537,7202,ATS,C,1
2,test,3,C,mfborder.png,1,m,Fri Sep 05 2025 13:48:59 GMT-0500 (Central Daylight Time),483860.10000038147,CFD-WM-035-036-HC.jpg,1000,dash,O,m,577,4,1,4315.200000286102,479544.90000009537,7202,ATS,C,2
3,test,3,C,mfborder.png,1,z,Fri Sep 05 2025 13:48:59 GMT-0500 (Central Daylight Time),486209.80000019073,CFD-BF-042-031-HC.jpg,1700,dash,O,z,628,1,1,6664.900000095367,479544.90000009537,7202,ATS,C,3
3,test,3,C,haborder.png,0,m,Fri Sep 05 2025 13:48:59 GMT-0500 (Central Daylight Time),489025.0,CFD-BF-019-004-HC.jpg,1600,solid,O,z,1194,10,1,9480.099999904633,479544.90000009537,7202,ATS,C,4
4,test,3,C,mfborder.png,1,m,Fri Sep 05 2025 13:48:59 GMT-0500 (Central Daylight Time),492374.30000019073,CFD-WM-034-040-A.jpg,2000,dash,O,m,1317,5,1,12829.400000095367,479544.90000009537,7202,ATS,C,5
5,test,3,C,haborder.png,1,m,Fri Sep 05 2025 13:48:59 GMT-0500 (Central Daylight Time),494974.2000002861,CFD-WF-001-010-HC.jpg,1500,solid,O,m,1067,11,1,15429.300000190735,479544.90000009537,7202,ATS,C,6
5,test,3,C,mfborder.png,0,m,Fri Sep 05 2025 13:48:59 GMT-0500 (Central Daylight Time),497706.30000019073,CFD-BM-022-004-HC.jpg,1200,dash,O,None,1516,6,1,18161.400000095367,479544.90000009537,7202,ATS,C,7
6,test,3,C,mfborder.png,1,z,Fri Sep 05 2025 13:48:59 GMT-0500 (Central Daylight Time),500223.0,CFD-BF-042-031-HC.jpg,1700,dash,O,z,801,1,1,20678.099999904633,479544.90000009537,7202,ATS,C,8
7,test,3,C,haborder.png,1,m,Fri Sep 05 2025 13:48:59 GMT-0500 (Central Daylight Time),502671.5,CFD-WF-001-010-HC.jpg,1500,solid,O,m,922,11,1,23126.599999904633,479544.90000009537,7202,ATS,C,9
7,test,3,C,mfborder.png,0,m,Fri Sep 05 2025 13:48:59 GMT-0500 (Central Daylight Time),505202.5,CFD-WM-035-036-HC.jpg,1000,dash,O,None,1514,4,1,25657.599999904633,479544.90000009537,7202,ATS,C,10
8,test,3,C,mfborder.png,1,m,Fri Sep 05 2025 13:48:59 GMT-0500 (Central Daylight Time),506935.0,CFD-BM-022-004-HC.jpg,1200,dash,O,m,504,6,1,27390.099999904633,479544.90000009537,7202,ATS,C,11
9,test,3,C,haborder.png,1,z,Fri Sep 05 2025 13:48:59 GMT-0500 (Central Daylight Time),509703.5,CFD-BM-021-026-A.jpg,1700,solid,O,z,1050,9,1,30158.599999904633,479544.90000009537,7202,ATS,C,12
10,test,3,C,haborder.png,1,z,Fri Sep 05 2025 13:48:59 GMT-0500 (Central Daylight Time),511885.10000038147,CFD-WM-036-018-A.jpg,1400,solid,O,z,758,7,1,32340.200000286102,479544.90000009537,7202,ATS,C,13
11,test,3,C,haborder.png,1,z,Fri Sep 05 2025 13:48:59 GMT-0500 (Central Daylight Time),514183.80000019073,CFD-BM-021-026-A.jpg,1700,solid,O,z,581,9,1,34638.90000009537,479544.90000009537,7202,ATS,C,14
12,test,3,C,mfborder.png,1,m,Fri Sep 05 2025 13:48:59 GMT-0500 (Central Daylight Time),516967.7000002861,CFD-WM-034-040-A.jpg,2000,dash,O,m,768,5,1,37422.800000190735,479544.90000009537,7202,ATS,C,15
13,test,3,C,mfborder.png,1,z,Fri Sep 05 2025 13:48:59 GMT-0500 (Central Daylight Time),519183.90000009537,CFD-WF-037-016-A.jpg,1500,dash,O,z,702,3,1,39639.0,479544.90000009537,7202,ATS,C,16
14,test,3,C,haborder.png,1,m,Fri Sep 05 2025 13:48:59 GMT-0500 (Central Daylight Time),521530.30000019073,CFD-WF-013-009-HC.jpg,1000,solid,O,m,1326,12,1,41985.40000009537,479544.90000009537,7202,ATS,C,17
15,test,3,C,haborder.png,1,z,Fri Sep 05 2025 13:48:59 GMT-0500 (Central Daylight Time),523697.60000038147,CFD-WM-036-018-A.jpg,1400,solid,O,z,736,7,1,44152.7000002861,479544.90000009537,7202,ATS,C,18
15,test,3,C,haborder.png,0,m,Fri Sep 05 2025 13:48:59 GMT-0500 (Central Daylight Time),525447.4000000954,CFD-WF-013-009-HC.jpg,1000,solid,O,z,722,12,1,45902.5,479544.90000009537,7202,ATS,C,19
15,test,3,C,haborder.png,0,z,Fri Sep 05 2025 13:48:59 GMT-0500 (Central Daylight Time),528878.8000001907,CFD-BM-043-014-A.jpg,1900,solid,O,None,1515,8,1,49333.90000009537,479544.90000009537,7202,ATS,C,20
16,test,3,C,haborder.png,1,m,Fri Sep 05 2025 13:48:59 GMT-0500 (Central Daylight Time),531744.7000002861,CFD-BF-019-004-HC.jpg,1600,solid,O,m,1248,10,1,52199.800000190735,479544.90000009537,7202,ATS,C,21
17,test,3,C,mfborder.png,1,z,Fri Sep 05 2025 13:48:59 GMT-0500 (Central Daylight Time),534009.4000000954,CFD-WF-037-016-A.jpg,1500,dash,O,z,741,3,1,54464.5,479544.90000009537,7202,ATS,C,22
18,test,3,C,mfborder.png,1,z,Fri Sep 05 2025 13:48:59 GMT-0500 (Central Daylight Time),536460.1000003815,CFD-BF-031-020-A.jpg,1600,dash,O,z,817,2,1,56915.2000002861,479544.90000009537,7202,ATS,C,23
18,test,3,C,haborder.png,0,z,Fri Sep 05 2025 13:48:59 GMT-0500 (Central Daylight Time),539443.4000000954,CFD-BM-043-014-A.jpg,1900,solid,O,m,1061,8,1,59898.5,479544.90000009537,7202,ATS,C,24
1,test,4,C,mfborder.png,1,z,Fri Sep 05 2025 13:48:59 GMT-0500 (Central Daylight Time),544823.8000001907,CFD-BF-019-004-HC.jpg,1500,dash,O,z,854,3,1,2383.199999809265,542440.6000003815,7202,ATS,C,1
2,test,4,C,haborder.png,1,z,Fri Sep 05 2025 13:48:59 GMT-0500 (Central Daylight Time),547589.6000003815,CFD-BF-002-018-A.jpg,1900,solid,O,z,841,8,1,5149.0,542440.6000003815,7202,ATS,C,2
3,test,4,C,mfborder.png,1,z,Fri Sep 05 2025 13:48:59 GMT-0500 (Central Daylight Time),550389.4000000954,CFD-WF-023-013-A.jpg,1600,dash,O,z,1167,2,1,7948.799999713898,542440.6000003815,7202,ATS,C,3
4,test,4,C,haborder.png,1,m,Fri Sep 05 2025 13:48:59 GMT-0500 (Central Daylight Time),552637.6000003815,CFD-WM-028-005-HC.jpg,1500,solid,O,m,722,11,1,10197.0,542440.6000003815,7202,ATS,C,4
5,test,4,C,mfborder.png,1,z,Fri Sep 05 2025 13:48:59 GMT-0500 (Central Daylight Time),554953.5,CFD-WF-023-013-A.jpg,1600,dash,O,z,705,2,1,12512.89999961853,542440.6000003815,7202,ATS,C,5
5,test,4,C,mfborder.png,0,m,Fri Sep 05 2025 13:48:59 GMT-0500 (Central Daylight Time),558202.9000000954,CFD-BM-043-014-A.jpg,2000,dash,O,z,1217,5,1,15762.299999713898,542440.6000003815,7202,ATS,C,6
6,test,4,C,haborder.png,1,m,Fri Sep 05 2025 13:48:59 GMT-0500 (Central Daylight Time),560751.1000003815,CFD-BM-022-004-HC.jpg,1600,solid,O,m,930,10,1,18310.5,542440.6000003815,7202,ATS,C,7
6,test,4,C,mfborder.png,0,m,Fri Sep 05 2025 13:48:59 GMT-0500 (Central Daylight Time),563484.9000000954,CFD-WM-036-018-A.jpg,1200,dash,O,None,1517,6,1,21044.299999713898,542440.6000003815,7202,ATS,C,8
7,test,4,C,mfborder.png,1,z,Fri Sep 05 2025 13:48:59 GMT-0500 (Central Daylight Time),566316.5,CFD-WF-013-009-HC.jpg,1700,dash,O,z,1108,1,1,23875.89999961853,542440.6000003815,7202,ATS,C,9
7,test,4,C,haborder.png,0,z,Fri Sep 05 2025 13:48:59 GMT-0500 (Central Daylight Time),569549.0,CFD-WF-037-016-A.jpg,1700,solid,O,None,1516,9,1,27108.39999961853,542440.6000003815,7202,ATS,C,10
8,test,4,C,mfborder.png,1,m,Fri Sep 05 2025 13:48:59 GMT-0500 (Central Daylight Time),571531.3000001907,CFD-BM-034-035-HC.jpg,1000,dash,O,m,960,4,1,29090.699999809265,542440.6000003815,7202,ATS,C,11
9,test,4,C,haborder.png,1,m,Fri Sep 05 2025 13:48:59 GMT-0500 (Central Daylight Time),573380.9000000954,CFD-WM-028-005-HC.jpg,1000,solid,O,m,825,12,1,30940.299999713898,542440.6000003815,7202,ATS,C,12
10,test,4,C,haborder.png,1,z,Fri Sep 05 2025 13:48:59 GMT-0500 (Central Daylight Time),575746.5,CFD-WF-037-016-A.jpg,1700,solid,O,z,644,9,1,33305.89999961853,542440.6000003815,7202,ATS,C,13
11,test,4,C,mfborder.png,1,m,Fri Sep 05 2025 13:48:59 GMT-0500 (Central Daylight Time),577312.9000000954,CFD-BM-034-035-HC.jpg,1000,dash,O,m,545,4,1,34872.2999997139,542440.6000003815,7202,ATS,C,14
12,test,4,C,haborder.png,1,z,Fri Sep 05 2025 13:48:59 GMT-0500 (Central Daylight Time),579262.1000003815,CFD-BF-031-020-A.jpg,1400,solid,O,z,523,7,1,36821.5,542440.6000003815,7202,ATS,C,15
13,test,4,C,mfborder.png,1,z,Fri Sep 05 2025 13:48:59 GMT-0500 (Central Daylight Time),581561.5,CFD-BF-019-004-HC.jpg,1500,dash,O,z,778,3,1,39120.89999961853,542440.6000003815,7202,ATS,C,16
14,test,4,C,mfborder.png,1,m,Fri Sep 05 2025 13:48:59 GMT-0500 (Central Daylight Time),584344.0,CFD-BM-043-014-A.jpg,2000,dash,O,m,755,5,1,41903.39999961853,542440.6000003815,7202,ATS,C,17
15,test,4,C,haborder.png,1,z,Fri Sep 05 2025 13:48:59 GMT-0500 (Central Daylight Time),586342.8000001907,CFD-BF-031-020-A.jpg,1400,solid,O,z,572,7,1,43902.199999809265,542440.6000003815,7202,ATS,C,18
16,test,4,C,haborder.png,1,m,Fri Sep 05 2025 13:48:59 GMT-0500 (Central Daylight Time),588191.9000000954,CFD-WM-028-005-HC.jpg,1000,solid,O,m,819,12,1,45751.2999997139,542440.6000003815,7202,ATS,C,19
17,test,4,C,haborder.png,1,m,Fri Sep 05 2025 13:48:59 GMT-0500 (Central Daylight Time),590324.9000000954,CFD-WM-028-005-HC.jpg,1500,solid,O,m,606,11,1,47884.2999997139,542440.6000003815,7202,ATS,C,20
18,test,4,C,mfborder.png,1,z,Fri Sep 05 2025 13:48:59 GMT-0500 (Central Daylight Time),592891.4000000954,CFD-WF-013-009-HC.jpg,1700,dash,O,z,842,1,1,50450.7999997139,542440.6000003815,7202,ATS,C,21
18,test,4,C,mfborder.png,0,m,Fri Sep 05 2025 13:48:59 GMT-0500 (Central Daylight Time),595174.9000000954,CFD-WM-036-018-A.jpg,1200,dash,O,z,1058,6,1,52734.2999997139,542440.6000003815,7202,ATS,C,22
19,test,4,C,haborder.png,1,z,Fri Sep 05 2025 13:48:59 GMT-0500 (Central Daylight Time),597889.4000000954,CFD-BF-002-018-A.jpg,1900,solid,O,z,791,8,1,55448.7999997139,542440.6000003815,7202,ATS,C,23
20,test,4,C,haborder.png,1,m,Fri Sep 05 2025 13:48:59 GMT-0500 (Central Daylight Time),600238.6000003815,CFD-BM-022-004-HC.jpg,1600,solid,O,m,731,10,1,57798.0,542440.6000003815,7202,ATS,C,24
