block_c,block_dur,condition,countdown,datetime,endtime,list,multichar_response,project,response,response_time,session_number,start_end,starttime,subject_id,task,task_vers,trial
,,,,Wed May 13 2026 12:27:13 GMT-0400 (Eastern Daylight Time),,,,I,space,526,1,,,9081,WL,A,
prac,,0,,Wed May 13 2026 12:27:13 GMT-0400 (Eastern Daylight Time),,NA,b,I,b,4696,1,,,9081,WL,A,1.0
prac,,0,,Wed May 13 2026 12:27:13 GMT-0400 (Eastern Daylight Time),,NA,bo,I,o,355,1,,,9081,WL,A,1.0
prac,,0,,Wed May 13 2026 12:27:13 GMT-0400 (Eastern Daylight Time),,NA,boo,I,o,194,1,,,9081,WL,A,1.0
prac,,0,,Wed May 13 2026 12:27:13 GMT-0400 (Eastern Daylight Time),,NA,boos,I,s,237,1,,,9081,WL,A,1.0
prac,,0,,Wed May 13 2026 12:27:13 GMT-0400 (Eastern Daylight Time),,NA,boost,I,t,181,1,,,9081,WL,A,1.0
prac,,0,,Wed May 13 2026 12:27:13 GMT-0400 (Eastern Daylight Time),,NA,boostenter,I,enter,1556,1,,,9081,WL,A,1.0
1,1.8999998569488525,learn,58100.00014305115,Wed May 13 2026 12:27:13 GMT-0400 (Eastern Daylight Time),128505.69999999925,A,b,I,b,1878,1,1899.5,126606.19999999925,9081,WL,A,1.0
1,2.232999801635742,learn,57767.00019836426,Wed May 13 2026 12:27:13 GMT-0400 (Eastern Daylight Time),128838.5,A,bo,I,o,320,1,2232.300000000745,126606.19999999925,9081,WL,A,1.0
1,2.3999998569488525,learn,57600.00014305115,Wed May 13 2026 12:27:13 GMT-0400 (Eastern Daylight Time),129005.19999999925,A,boo,I,o,150,1,2399.0,126606.19999999925,9081,WL,A,1.0
1,2.682999849319458,learn,57317.00015068054,Wed May 13 2026 12:27:13 GMT-0400 (Eastern Daylight Time),129288.59999999963,A,book,I,k,260,1,2682.4000000003725,126606.19999999925,9081,WL,A,1.0
1,3.365999937057495,learn,56634.000062942505,Wed May 13 2026 12:27:13 GMT-0400 (Eastern Daylight Time),129971.59999999963,A,bookenter,I,enter,662,1,3365.4000000003725,126606.19999999925,9081,WL,A,1.0
1,5.566999912261963,learn,54433.00008773804,Wed May 13 2026 12:27:13 GMT-0400 (Eastern Daylight Time),132172.0,A,r,I,r,2186,1,2199.800000000745,129972.19999999925,9081,WL,A,2.0
1,5.815999984741211,learn,54184.00001525879,Wed May 13 2026 12:27:13 GMT-0400 (Eastern Daylight Time),132421.89999999944,A,ra,I,a,223,1,2449.7000000001863,129972.19999999925,9081,WL,A,2.0
1,6.065999984741211,learn,53934.00001525879,Wed May 13 2026 12:27:13 GMT-0400 (Eastern Daylight Time),132672.0,A,rat,I,t,235,1,2699.800000000745,129972.19999999925,9081,WL,A,2.0
1,6.732999801635742,learn,53267.00019836426,Wed May 13 2026 12:27:13 GMT-0400 (Eastern Daylight Time),133338.59999999963,A,ratt,I,t,651,1,3366.4000000003725,129972.19999999925,9081,WL,A,2.0
1,7.049999952316284,learn,52950.000047683716,Wed May 13 2026 12:27:13 GMT-0400 (Eastern Daylight Time),133655.5,A,rattl,I,l,297,1,3683.300000000745,129972.19999999925,9081,WL,A,2.0
1,7.182999849319458,learn,52817.00015068054,Wed May 13 2026 12:27:13 GMT-0400 (Eastern Daylight Time),133788.7999999998,A,rattle,I,e,116,1,3816.600000000559,129972.19999999925,9081,WL,A,2.0
1,7.615999937057495,learn,52384.000062942505,Wed May 13 2026 12:27:13 GMT-0400 (Eastern Daylight Time),134221.5,A,rattleenter,I,enter,415,1,4249.300000000745,129972.19999999925,9081,WL,A,2.0
1,9.032999992370605,learn,50967.000007629395,Wed May 13 2026 12:27:13 GMT-0400 (Eastern Daylight Time),135638.39999999944,A,r,I,r,1409,1,1416.5,134221.89999999944,9081,WL,A,3.0
1,9.299999952316284,learn,50700.000047683716,Wed May 13 2026 12:27:13 GMT-0400 (Eastern Daylight Time),135905.2999999998,A,ru,I,u,255,1,1683.4000000003725,134221.89999999944,9081,WL,A,3.0
1,9.549999952316284,learn,50450.000047683716,Wed May 13 2026 12:27:13 GMT-0400 (Eastern Daylight Time),136155.19999999925,A,rug,I,g,224,1,1933.2999999998137,134221.89999999944,9081,WL,A,3.0
1,10.098999977111816,learn,49901.00002288818,Wed May 13 2026 12:27:13 GMT-0400 (Eastern Daylight Time),136704.89999999944,A,rugenter,I,enter,532,1,2483.0,134221.89999999944,9081,WL,A,3.0
1,10.765999794006348,learn,49234.00020599365,Wed May 13 2026 12:27:13 GMT-0400 (Eastern Daylight Time),137371.89999999944,A,f,I,f,654,1,666.5999999996275,136705.2999999998,9081,WL,A,4.0
1,10.91599988937378,learn,49084.00011062622,Wed May 13 2026 12:27:13 GMT-0400 (Eastern Daylight Time),137521.89999999944,A,fl,I,l,135,1,816.5999999996275,136705.2999999998,9081,WL,A,4.0
1,11.132999897003174,learn,48867.000102996826,Wed May 13 2026 12:27:13 GMT-0400 (Eastern Daylight Time),137738.5,A,flo,I,o,196,1,1033.2000000001863,136705.2999999998,9081,WL,A,4.0
1,11.33299994468689,learn,48667.00005531311,Wed May 13 2026 12:27:13 GMT-0400 (Eastern Daylight Time),137938.59999999963,A,flow,I,w,175,1,1233.2999999998137,136705.2999999998,9081,WL,A,4.0
1,11.515999794006348,learn,48484.00020599365,Wed May 13 2026 12:27:13 GMT-0400 (Eastern Daylight Time),138122.0,A,flowe,I,e,161,1,1416.7000000001863,136705.2999999998,9081,WL,A,4.0
1,11.632999897003174,learn,48367.000102996826,Wed May 13 2026 12:27:13 GMT-0400 (Eastern Daylight Time),138238.59999999963,A,flower,I,r,98,1,1533.2999999998137,136705.2999999998,9081,WL,A,4.0
1,12.16599988937378,learn,47834.00011062622,Wed May 13 2026 12:27:13 GMT-0400 (Eastern Daylight Time),138771.5,A,flowerenter,I,enter,508,1,2066.2000000001863,136705.2999999998,9081,WL,A,4.0
1,13.015999794006348,learn,46984.00020599365,Wed May 13 2026 12:27:13 GMT-0400 (Eastern Daylight Time),139621.89999999944,A,t,I,t,827,1,850.0999999996275,138771.7999999998,9081,WL,A,5.0
1,13.282999992370605,learn,46717.000007629395,Wed May 13 2026 12:27:13 GMT-0400 (Eastern Daylight Time),139888.5,A,tr,I,r,246,1,1116.7000000001863,138771.7999999998,9081,WL,A,5.0
1,13.516999959945679,learn,46483.00004005432,Wed May 13 2026 12:27:13 GMT-0400 (Eastern Daylight Time),140122.0,A,tra,I,a,219,1,1350.2000000001863,138771.7999999998,9081,WL,A,5.0
1,13.66599988937378,learn,46334.00011062622,Wed May 13 2026 12:27:13 GMT-0400 (Eastern Daylight Time),140271.89999999944,A,trai,I,i,129,1,1500.0999999996275,138771.7999999998,9081,WL,A,5.0
1,13.816999912261963,learn,46183.00008773804,Wed May 13 2026 12:27:13 GMT-0400 (Eastern Daylight Time),140422.0,A,train,I,n,130,1,1650.2000000001863,138771.7999999998,9081,WL,A,5.0
1,14.265999794006348,learn,45734.00020599365,Wed May 13 2026 12:27:13 GMT-0400 (Eastern Daylight Time),140871.59999999963,A,trainenter,I,enter,429,1,2099.7999999998137,138771.7999999998,9081,WL,A,5.0
1,33.34999990463257,learn,26650.00009536743,Wed May 13 2026 12:27:13 GMT-0400 (Eastern Daylight Time),159955.39999999944,A,a,I,a,19063,1,19083.39999999944,140872.0,9081,WL,A,6.0
1,33.632999897003174,learn,26367.000102996826,Wed May 13 2026 12:27:13 GMT-0400 (Eastern Daylight Time),160238.5,A,ap,I,p,262,1,19366.5,140872.0,9081,WL,A,6.0
1,33.799999952316284,learn,26200.000047683716,Wed May 13 2026 12:27:13 GMT-0400 (Eastern Daylight Time),160405.2999999998,A,app,I,p,150,1,19533.299999999814,140872.0,9081,WL,A,6.0
1,34.049999952316284,learn,25950.000047683716,Wed May 13 2026 12:27:13 GMT-0400 (Eastern Daylight Time),160655.2999999998,A,appl,I,l,229,1,19783.299999999814,140872.0,9081,WL,A,6.0
1,34.19999980926514,learn,25800.000190734863,Wed May 13 2026 12:27:13 GMT-0400 (Eastern Daylight Time),160805.5,A,apple,I,e,124,1,19933.5,140872.0,9081,WL,A,6.0
1,34.41599988937378,learn,25584.00011062622,Wed May 13 2026 12:27:13 GMT-0400 (Eastern Daylight Time),161021.59999999963,A,appleenter,I,enter,203,1,20149.599999999627,140872.0,9081,WL,A,6.0
1,60.01699995994568,learn,-16.99995994567871,Wed May 13 2026 12:27:13 GMT-0400 (Eastern Daylight Time),186622.19999999925,A,None,I,None,25594,1,25600.299999999814,161021.89999999944,9081,WL,A,7.0
2,1.5499999523162842,learn,58450.000047683716,Wed May 13 2026 12:27:13 GMT-0400 (Eastern Daylight Time),261589.0,A,r,I,r,1527,1,1549.800000000745,260039.19999999925,9081,WL,A,1.0
2,1.7669999599456787,learn,58233.00004005432,Wed May 13 2026 12:27:13 GMT-0400 (Eastern Daylight Time),261805.5,A,ra,I,a,199,1,1766.300000000745,260039.19999999925,9081,WL,A,1.0
2,2.1500000953674316,learn,57849.99990463257,Wed May 13 2026 12:27:13 GMT-0400 (Eastern Daylight Time),262188.89999999944,A,rat,I,t,360,1,2149.7000000001863,260039.19999999925,9081,WL,A,1.0
2,2.2840001583099365,learn,57715.99984169006,Wed May 13 2026 12:27:13 GMT-0400 (Eastern Daylight Time),262322.2999999998,A,ratt,I,t,119,1,2283.100000000559,260039.19999999925,9081,WL,A,1.0
2,2.7840001583099365,learn,57215.99984169006,Wed May 13 2026 12:27:13 GMT-0400 (Eastern Daylight Time),262822.39999999944,A,rattl,I,l,488,1,2783.2000000001863,260039.19999999925,9081,WL,A,1.0
2,2.884000062942505,learn,57115.999937057495,Wed May 13 2026 12:27:13 GMT-0400 (Eastern Daylight Time),262922.2999999998,A,rattle,I,e,78,1,2883.100000000559,260039.19999999925,9081,WL,A,1.0
2,3.433000087738037,learn,56566.99991226196,Wed May 13 2026 12:27:13 GMT-0400 (Eastern Daylight Time),263471.89999999944,A,rattleenter,I,enter,536,1,3432.7000000001863,260039.19999999925,9081,WL,A,1.0
2,3.8340001106262207,learn,56165.99988937378,Wed May 13 2026 12:27:13 GMT-0400 (Eastern Daylight Time),263872.19999999925,A,g,I,g,391,1,399.8999999994412,263472.2999999998,9081,WL,A,2.0
2,3.9839999675750732,learn,56016.00003242493,Wed May 13 2026 12:27:13 GMT-0400 (Eastern Daylight Time),264022.2999999998,A,go,I,o,124,1,550.0,263472.2999999998,9081,WL,A,2.0
2,4.184000015258789,learn,55815.99998474121,Wed May 13 2026 12:27:13 GMT-0400 (Eastern Daylight Time),264222.0999999996,A,gol,I,l,183,1,749.7999999998137,263472.2999999998,9081,WL,A,2.0
2,4.2840001583099365,learn,55715.99984169006,Wed May 13 2026 12:27:13 GMT-0400 (Eastern Daylight Time),264322.19999999925,A,gold,I,d,78,1,849.8999999994412,263472.2999999998,9081,WL,A,2.0
2,4.516999959945679,learn,55483.00004005432,Wed May 13 2026 12:27:13 GMT-0400 (Eastern Daylight Time),264555.19999999925,A,goldenter,I,enter,210,1,1082.8999999994412,263472.2999999998,9081,WL,A,2.0
2,4.91700005531311,learn,55082.99994468689,Wed May 13 2026 12:27:13 GMT-0400 (Eastern Daylight Time),264955.5999999996,A,k,I,k,387,1,399.90000000037253,264555.69999999925,9081,WL,A,3.0
2,5.0340001583099365,learn,54965.99984169006,Wed May 13 2026 12:27:13 GMT-0400 (Eastern Daylight Time),265072.19999999925,A,ke,I,e,105,1,516.5,264555.69999999925,9081,WL,A,3.0
2,6.067000150680542,learn,53932.99984931946,Wed May 13 2026 12:27:13 GMT-0400 (Eastern Daylight Time),266105.5999999996,A,key,I,y,1020,1,1549.9000000003725,264555.69999999925,9081,WL,A,3.0
2,6.5329999923706055,learn,53467.000007629395,Wed May 13 2026 12:27:13 GMT-0400 (Eastern Daylight Time),266571.89999999944,A,keyenter,I,enter,450,1,2016.2000000001863,264555.69999999925,9081,WL,A,3.0
2,7.7840001583099365,learn,52215.99984169006,Wed May 13 2026 12:27:13 GMT-0400 (Eastern Daylight Time),267822.5,A,c,I,c,1244,1,1250.2000000001863,266572.2999999998,9081,WL,A,4.0
2,7.9670000076293945,learn,52032.999992370605,Wed May 13 2026 12:27:13 GMT-0400 (Eastern Daylight Time),268005.69999999925,A,ch,I,h,158,1,1433.3999999994412,266572.2999999998,9081,WL,A,4.0
2,8.034000158309937,learn,51965.99984169006,Wed May 13 2026 12:27:13 GMT-0400 (Eastern Daylight Time),268072.0999999996,A,chi,I,i,49,1,1499.7999999998137,266572.2999999998,9081,WL,A,4.0
2,8.233999967575073,learn,51766.00003242493,Wed May 13 2026 12:27:13 GMT-0400 (Eastern Daylight Time),268272.19999999925,A,chin,I,n,178,1,1699.8999999994412,266572.2999999998,9081,WL,A,4.0
2,8.75,learn,51250.0,Wed May 13 2026 12:27:13 GMT-0400 (Eastern Daylight Time),268788.89999999944,A,chi,I,backspace,500,1,2216.5999999996275,266572.2999999998,9081,WL,A,4.0
2,9.16700005531311,learn,50832.99994468689,Wed May 13 2026 12:27:13 GMT-0400 (Eastern Daylight Time),269205.5999999996,A,chim,I,m,394,1,2633.2999999998137,266572.2999999998,9081,WL,A,4.0
2,9.617000102996826,learn,50382.999897003174,Wed May 13 2026 12:27:13 GMT-0400 (Eastern Daylight Time),269655.39999999944,A,chimn,I,n,438,1,3083.0999999996275,266572.2999999998,9081,WL,A,4.0
2,9.784000158309937,learn,50215.99984169006,Wed May 13 2026 12:27:13 GMT-0400 (Eastern Daylight Time),269822.2999999998,A,chimne,I,e,141,1,3250.0,266572.2999999998,9081,WL,A,4.0
2,10.034000158309937,learn,49965.99984169006,Wed May 13 2026 12:27:13 GMT-0400 (Eastern Daylight Time),270072.2999999998,A,chimney,I,y,222,1,3500.0,266572.2999999998,9081,WL,A,4.0
2,10.367000102996826,learn,49632.999897003174,Wed May 13 2026 12:27:13 GMT-0400 (Eastern Daylight Time),270405.19999999925,A,chimneyenter,I,enter,307,1,3832.899999999441,266572.2999999998,9081,WL,A,4.0
2,11.117000102996826,learn,48882.999897003174,Wed May 13 2026 12:27:13 GMT-0400 (Eastern Daylight Time),271155.5,A,b,I,b,738,1,749.9000000003725,270405.5999999996,9081,WL,A,5.0
2,11.367000102996826,learn,48632.999897003174,Wed May 13 2026 12:27:13 GMT-0400 (Eastern Daylight Time),271405.5,A,bo,I,o,234,1,999.9000000003725,270405.5999999996,9081,WL,A,5.0
2,11.516999959945679,learn,48483.00004005432,Wed May 13 2026 12:27:13 GMT-0400 (Eastern Daylight Time),271555.5999999996,A,boo,I,o,119,1,1150.0,270405.5999999996,9081,WL,A,5.0
2,11.799999952316284,learn,48200.000047683716,Wed May 13 2026 12:27:13 GMT-0400 (Eastern Daylight Time),271838.89999999944,A,book,I,k,258,1,1433.2999999998137,270405.5999999996,9081,WL,A,5.0
2,12.100000143051147,learn,47899.99985694885,Wed May 13 2026 12:27:13 GMT-0400 (Eastern Daylight Time),272138.5999999996,A,bookenter,I,enter,277,1,1733.0,270405.5999999996,9081,WL,A,5.0
2,12.516999959945679,learn,47483.00004005432,Wed May 13 2026 12:27:13 GMT-0400 (Eastern Daylight Time),272555.2999999998,A,f,I,f,396,1,416.40000000037253,272138.89999999944,9081,WL,A,6.0
2,12.66700005531311,learn,47332.99994468689,Wed May 13 2026 12:27:13 GMT-0400 (Eastern Daylight Time),272705.5999999996,A,fl,I,l,130,1,566.7000000001863,272138.89999999944,9081,WL,A,6.0
2,12.850000143051147,learn,47149.99985694885,Wed May 13 2026 12:27:13 GMT-0400 (Eastern Daylight Time),272889.0,A,flo,I,o,164,1,750.1000000005588,272138.89999999944,9081,WL,A,6.0
2,12.983999967575073,learn,47016.00003242493,Wed May 13 2026 12:27:13 GMT-0400 (Eastern Daylight Time),273022.39999999944,A,flow,I,w,112,1,883.5,272138.89999999944,9081,WL,A,6.0
2,13.1010000705719,learn,46898.9999294281,Wed May 13 2026 12:27:13 GMT-0400 (Eastern Daylight Time),273139.0999999996,A,flowe,I,e,99,1,1000.2000000001863,272138.89999999944,9081,WL,A,6.0
2,13.217000007629395,learn,46782.999992370605,Wed May 13 2026 12:27:13 GMT-0400 (Eastern Daylight Time),273255.5,A,flower,I,r,98,1,1116.6000000005588,272138.89999999944,9081,WL,A,6.0
2,13.650000095367432,learn,46349.99990463257,Wed May 13 2026 12:27:13 GMT-0400 (Eastern Daylight Time),273688.39999999944,A,flowerenter,I,enter,420,1,1549.5,272138.89999999944,9081,WL,A,6.0
2,14.25,learn,45750.0,Wed May 13 2026 12:27:13 GMT-0400 (Eastern Daylight Time),274288.89999999944,A,h,I,h,591,1,600.0999999996275,273688.7999999998,9081,WL,A,7.0
2,14.434000015258789,learn,45565.99998474121,Wed May 13 2026 12:27:13 GMT-0400 (Eastern Daylight Time),274472.19999999925,A,ha,I,a,170,1,783.3999999994412,273688.7999999998,9081,WL,A,7.0
2,14.516999959945679,learn,45483.00004005432,Wed May 13 2026 12:27:13 GMT-0400 (Eastern Daylight Time),274555.5,A,har,I,r,68,1,866.7000000001863,273688.7999999998,9081,WL,A,7.0
2,14.784000158309937,learn,45215.99984169006,Wed May 13 2026 12:27:13 GMT-0400 (Eastern Daylight Time),274822.0999999996,A,harp,I,p,241,1,1133.2999999998137,273688.7999999998,9081,WL,A,7.0
2,15.317000150680542,learn,44682.99984931946,Wed May 13 2026 12:27:13 GMT-0400 (Eastern Daylight Time),275355.2999999998,A,harpenter,I,enter,517,1,1666.5,273688.7999999998,9081,WL,A,7.0
2,16.26699995994568,learn,43733.00004005432,Wed May 13 2026 12:27:13 GMT-0400 (Eastern Daylight Time),276305.5,A,k,I,k,940,1,949.9000000003725,275355.5999999996,9081,WL,A,8.0
2,16.467000007629395,learn,43532.999992370605,Wed May 13 2026 12:27:13 GMT-0400 (Eastern Daylight Time),276505.5,A,ke,I,e,179,1,1149.9000000003725,275355.5999999996,9081,WL,A,8.0
2,17.18400001525879,learn,42815.99998474121,Wed May 13 2026 12:27:13 GMT-0400 (Eastern Daylight Time),277222.0999999996,A,key,I,y,691,1,1866.5,275355.5999999996,9081,WL,A,8.0
2,17.933000087738037,learn,42066.99991226196,Wed May 13 2026 12:27:13 GMT-0400 (Eastern Daylight Time),277971.89999999944,A,keyenter,I,enter,727,1,2616.2999999998137,275355.5999999996,9081,WL,A,8.0
2,18.367000102996826,learn,41632.999897003174,Wed May 13 2026 12:27:13 GMT-0400 (Eastern Daylight Time),278405.69999999925,A,t,I,t,419,1,433.5,277972.19999999925,9081,WL,A,9.0
2,18.6010000705719,learn,41398.9999294281,Wed May 13 2026 12:27:13 GMT-0400 (Eastern Daylight Time),278639.0,A,tr,I,r,212,1,666.8000000007451,277972.19999999925,9081,WL,A,9.0
2,18.83400011062622,learn,41165.99988937378,Wed May 13 2026 12:27:13 GMT-0400 (Eastern Daylight Time),278872.2999999998,A,tra,I,a,213,1,900.1000000005588,277972.19999999925,9081,WL,A,9.0
2,19.01699995994568,learn,40983.00004005432,Wed May 13 2026 12:27:13 GMT-0400 (Eastern Daylight Time),279055.5,A,trai,I,i,162,1,1083.300000000745,277972.19999999925,9081,WL,A,9.0
2,19.16700005531311,learn,40832.99994468689,Wed May 13 2026 12:27:13 GMT-0400 (Eastern Daylight Time),279205.5999999996,A,train,I,n,127,1,1233.4000000003725,277972.19999999925,9081,WL,A,9.0
2,19.83299994468689,learn,40167.00005531311,Wed May 13 2026 12:27:13 GMT-0400 (Eastern Daylight Time),279871.89999999944,A,trainenter,I,enter,647,1,1899.7000000001863,277972.19999999925,9081,WL,A,9.0
2,26.26699995994568,learn,33733.00004005432,Wed May 13 2026 12:27:13 GMT-0400 (Eastern Daylight Time),286305.69999999925,A,c,I,c,6414,1,6433.399999999441,279872.2999999998,9081,WL,A,10.0
2,27.567000150680542,learn,32432.999849319458,Wed May 13 2026 12:27:13 GMT-0400 (Eastern Daylight Time),287605.5,A,ch,I,h,1275,1,7733.200000000186,279872.2999999998,9081,WL,A,10.0
2,27.733999967575073,learn,32266.000032424927,Wed May 13 2026 12:27:13 GMT-0400 (Eastern Daylight Time),287772.39999999944,A,chi,I,i,143,1,7900.0999999996275,279872.2999999998,9081,WL,A,10.0
2,28.01699995994568,learn,31983.00004005432,Wed May 13 2026 12:27:13 GMT-0400 (Eastern Daylight Time),288055.5,A,chim,I,m,264,1,8183.200000000186,279872.2999999998,9081,WL,A,10.0
2,28.58400011062622,learn,31415.99988937378,Wed May 13 2026 12:27:13 GMT-0400 (Eastern Daylight Time),288622.39999999944,A,chimn,I,n,550,1,8750.099999999627,279872.2999999998,9081,WL,A,10.0
2,28.75,learn,31250.0,Wed May 13 2026 12:27:13 GMT-0400 (Eastern Daylight Time),288789.0,A,chimne,I,e,150,1,8916.700000000186,279872.2999999998,9081,WL,A,10.0
2,28.967000007629395,learn,31032.999992370605,Wed May 13 2026 12:27:13 GMT-0400 (Eastern Daylight Time),289005.5,A,chimney,I,y,198,1,9133.200000000186,279872.2999999998,9081,WL,A,10.0
2,29.467000007629395,learn,30532.999992370605,Wed May 13 2026 12:27:13 GMT-0400 (Eastern Daylight Time),289505.19999999925,A,chimneyenter,I,enter,486,1,9632.899999999441,279872.2999999998,9081,WL,A,10.0
2,34.1010000705719,learn,25898.9999294281,Wed May 13 2026 12:27:13 GMT-0400 (Eastern Daylight Time),294139.0,A,m,I,m,4622,1,4633.4000000003725,289505.5999999996,9081,WL,A,11.0
2,34.200000047683716,learn,25799.999952316284,Wed May 13 2026 12:27:13 GMT-0400 (Eastern Daylight Time),294238.69999999925,A,me,I,e,81,1,4733.0999999996275,289505.5999999996,9081,WL,A,11.0
2,34.384000062942505,learn,25615.999937057495,Wed May 13 2026 12:27:13 GMT-0400 (Eastern Daylight Time),294422.2999999998,A,mea,I,a,159,1,4916.700000000186,289505.5999999996,9081,WL,A,11.0
2,34.651000022888184,learn,25348.999977111816,Wed May 13 2026 12:27:13 GMT-0400 (Eastern Daylight Time),294689.0999999996,A,mead,I,d,239,1,5183.5,289505.5999999996,9081,WL,A,11.0
2,34.867000102996826,learn,25132.999897003174,Wed May 13 2026 12:27:13 GMT-0400 (Eastern Daylight Time),294905.5,A,meado,I,o,195,1,5399.9000000003725,289505.5999999996,9081,WL,A,11.0
2,34.98399996757507,learn,25016.000032424927,Wed May 13 2026 12:27:13 GMT-0400 (Eastern Daylight Time),295022.19999999925,A,meadow,I,w,89,1,5516.5999999996275,289505.5999999996,9081,WL,A,11.0
2,35.66700005531311,learn,24332.99994468689,Wed May 13 2026 12:27:13 GMT-0400 (Eastern Daylight Time),295705.0999999996,A,meadowenter,I,enter,669,1,6199.5,289505.5999999996,9081,WL,A,11.0
2,37.0,learn,23000.0,Wed May 13 2026 12:27:13 GMT-0400 (Eastern Daylight Time),297038.7999999998,A,s,I,s,1327,1,1333.4000000003725,295705.39999999944,9081,WL,A,12.0
2,37.25,learn,22750.0,Wed May 13 2026 12:27:13 GMT-0400 (Eastern Daylight Time),297288.89999999944,A,sa,I,a,238,1,1583.5,295705.39999999944,9081,WL,A,12.0
2,37.41700005531311,learn,22582.99994468689,Wed May 13 2026 12:27:13 GMT-0400 (Eastern Daylight Time),297455.5999999996,A,sal,I,l,156,1,1750.2000000001863,295705.39999999944,9081,WL,A,12.0
2,37.66700005531311,learn,22332.99994468689,Wed May 13 2026 12:27:13 GMT-0400 (Eastern Daylight Time),297705.5,A,salt,I,t,237,1,2000.1000000005588,295705.39999999944,9081,WL,A,12.0
2,38.06700015068054,learn,21932.999849319458,Wed May 13 2026 12:27:13 GMT-0400 (Eastern Daylight Time),298105.19999999925,A,saltenter,I,enter,386,1,2399.7999999998137,295705.39999999944,9081,WL,A,12.0
2,60.01699995994568,learn,-16.99995994567871,Wed May 13 2026 12:27:13 GMT-0400 (Eastern Daylight Time),320055.7999999998,A,None,I,None,21943,1,21950.200000000186,298105.5999999996,9081,WL,A,13.0
3,1.133000135421753,learn,58866.99986457825,Wed May 13 2026 12:27:13 GMT-0400 (Eastern Daylight Time),393122.2999999998,A,f,I,f,1120,1,1132.7999999998137,391989.5,9081,WL,A,1.0
3,1.2330000400543213,learn,58766.99995994568,Wed May 13 2026 12:27:13 GMT-0400 (Eastern Daylight Time),393222.69999999925,A,fi,I,i,92,1,1233.199999999255,391989.5,9081,WL,A,1.0
3,1.315999984741211,learn,58684.00001525879,Wed May 13 2026 12:27:13 GMT-0400 (Eastern Daylight Time),393305.5,A,fin,I,n,62,1,1316.0,391989.5,9081,WL,A,1.0
3,1.4830000400543213,learn,58516.99995994568,Wed May 13 2026 12:27:13 GMT-0400 (Eastern Daylight Time),393472.2999999998,A,fing,I,g,153,1,1482.7999999998137,391989.5,9081,WL,A,1.0
3,1.7000000476837158,learn,58299.999952316284,Wed May 13 2026 12:27:13 GMT-0400 (Eastern Daylight Time),393689.19999999925,A,finge,I,e,195,1,1699.699999999255,391989.5,9081,WL,A,1.0
3,1.7829999923706055,learn,58217.000007629395,Wed May 13 2026 12:27:13 GMT-0400 (Eastern Daylight Time),393772.2999999998,A,finger,I,r,59,1,1782.7999999998137,391989.5,9081,WL,A,1.0
3,2.249000072479248,learn,57750.99992752075,Wed May 13 2026 12:27:13 GMT-0400 (Eastern Daylight Time),394238.69999999925,A,fingerenter,I,enter,455,1,2249.199999999255,391989.5,9081,WL,A,1.0
3,2.633000135421753,learn,57366.99986457825,Wed May 13 2026 12:27:13 GMT-0400 (Eastern Daylight Time),394622.5999999996,A,l,I,l,377,1,383.59999999962747,394239.0,9081,WL,A,2.0
3,2.8330001831054688,learn,57166.99981689453,Wed May 13 2026 12:27:13 GMT-0400 (Eastern Daylight Time),394822.2999999998,A,lo,I,o,175,1,583.2999999998137,394239.0,9081,WL,A,2.0
3,2.950000047683716,learn,57049.999952316284,Wed May 13 2026 12:27:13 GMT-0400 (Eastern Daylight Time),394939.2999999998,A,log,I,g,102,1,700.2999999998137,394239.0,9081,WL,A,2.0
3,3.249000072479248,learn,56750.99992752075,Wed May 13 2026 12:27:13 GMT-0400 (Eastern Daylight Time),395238.7999999998,A,logenter,I,enter,281,1,999.7999999998137,394239.0,9081,WL,A,2.0
3,3.700000047683716,learn,56299.999952316284,Wed May 13 2026 12:27:13 GMT-0400 (Eastern Daylight Time),395689.2999999998,A,b,I,b,440,1,450.20000000018626,395239.0999999996,9081,WL,A,3.0
3,3.950000047683716,learn,56049.999952316284,Wed May 13 2026 12:27:13 GMT-0400 (Eastern Daylight Time),395939.0999999996,A,bu,I,u,233,1,700.0,395239.0999999996,9081,WL,A,3.0
3,4.150000095367432,learn,55849.99990463257,Wed May 13 2026 12:27:13 GMT-0400 (Eastern Daylight Time),396139.19999999925,A,but,I,t,178,1,900.0999999996275,395239.0999999996,9081,WL,A,3.0
3,4.333000183105469,learn,55666.99981689453,Wed May 13 2026 12:27:13 GMT-0400 (Eastern Daylight Time),396322.5999999996,A,butt,I,t,154,1,1083.5,395239.0999999996,9081,WL,A,3.0
3,4.516000032424927,learn,55483.99996757507,Wed May 13 2026 12:27:13 GMT-0400 (Eastern Daylight Time),396505.69999999925,A,butto,I,o,161,1,1266.5999999996275,395239.0999999996,9081,WL,A,3.0
3,4.650000095367432,learn,55349.99990463257,Wed May 13 2026 12:27:13 GMT-0400 (Eastern Daylight Time),396639.0,A,button,I,n,107,1,1399.9000000003725,395239.0999999996,9081,WL,A,3.0
3,4.900000095367432,learn,55099.99990463257,Wed May 13 2026 12:27:13 GMT-0400 (Eastern Daylight Time),396889.39999999944,A,buttonenter,I,enter,230,1,1650.2999999998137,395239.0999999996,9081,WL,A,3.0
3,5.466000080108643,learn,54533.99991989136,Wed May 13 2026 12:27:13 GMT-0400 (Eastern Daylight Time),397455.7999999998,A,t,I,t,558,1,566.0,396889.7999999998,9081,WL,A,4.0
3,5.700000047683716,learn,54299.999952316284,Wed May 13 2026 12:27:13 GMT-0400 (Eastern Daylight Time),397689.19999999925,A,tr,I,r,222,1,799.3999999994412,396889.7999999998,9081,WL,A,4.0
3,5.933000087738037,learn,54066.99991226196,Wed May 13 2026 12:27:13 GMT-0400 (Eastern Daylight Time),397922.5,A,tra,I,a,204,1,1032.7000000001863,396889.7999999998,9081,WL,A,4.0
3,6.083000183105469,learn,53916.99981689453,Wed May 13 2026 12:27:13 GMT-0400 (Eastern Daylight Time),398072.5,A,trai,I,i,139,1,1182.7000000001863,396889.7999999998,9081,WL,A,4.0
3,6.183000087738037,learn,53816.99991226196,Wed May 13 2026 12:27:13 GMT-0400 (Eastern Daylight Time),398172.5999999996,A,train,I,n,75,1,1282.7999999998137,396889.7999999998,9081,WL,A,4.0
3,6.633000135421753,learn,53366.99986457825,Wed May 13 2026 12:27:13 GMT-0400 (Eastern Daylight Time),398622.19999999925,A,trainenter,I,enter,425,1,1732.3999999994412,396889.7999999998,9081,WL,A,4.0
3,6.983000040054321,learn,53016.99995994568,Wed May 13 2026 12:27:13 GMT-0400 (Eastern Daylight Time),398972.39999999944,A,h,I,h,329,1,349.79999999981374,398622.5999999996,9081,WL,A,5.0
3,7.183000087738037,learn,52816.99991226196,Wed May 13 2026 12:27:13 GMT-0400 (Eastern Daylight Time),399172.5,A,ha,I,a,184,1,549.9000000003725,398622.5999999996,9081,WL,A,5.0
3,7.2170000076293945,learn,52782.999992370605,Wed May 13 2026 12:27:13 GMT-0400 (Eastern Daylight Time),399206.19999999925,A,har,I,r,25,1,583.5999999996275,398622.5999999996,9081,WL,A,5.0
3,7.516000032424927,learn,52483.99996757507,Wed May 13 2026 12:27:13 GMT-0400 (Eastern Daylight Time),399505.69999999925,A,harp,I,p,287,1,883.0999999996275,398622.5999999996,9081,WL,A,5.0
3,8.016000032424927,learn,51983.99996757507,Wed May 13 2026 12:27:13 GMT-0400 (Eastern Daylight Time),400005.5999999996,A,harpenter,I,enter,473,1,1383.0,398622.5999999996,9081,WL,A,5.0
3,8.433000087738037,learn,51566.99991226196,Wed May 13 2026 12:27:13 GMT-0400 (Eastern Daylight Time),400422.5999999996,A,m,I,m,411,1,416.79999999981374,400005.7999999998,9081,WL,A,6.0
3,8.583000183105469,learn,51416.99981689453,Wed May 13 2026 12:27:13 GMT-0400 (Eastern Daylight Time),400572.19999999925,A,me,I,e,127,1,566.3999999994412,400005.7999999998,9081,WL,A,6.0
3,8.75,learn,51250.0,Wed May 13 2026 12:27:13 GMT-0400 (Eastern Daylight Time),400739.19999999925,A,mea,I,a,147,1,733.3999999994412,400005.7999999998,9081,WL,A,6.0
3,8.983000040054321,learn,51016.99995994568,Wed May 13 2026 12:27:13 GMT-0400 (Eastern Daylight Time),400972.5,A,mead,I,d,208,1,966.7000000001863,400005.7999999998,9081,WL,A,6.0
3,9.766000032424927,learn,50233.99996757507,Wed May 13 2026 12:27:13 GMT-0400 (Eastern Daylight Time),401755.7999999998,A,meado,I,o,761,1,1750.0,400005.7999999998,9081,WL,A,6.0
3,9.916000127792358,learn,50083.99987220764,Wed May 13 2026 12:27:13 GMT-0400 (Eastern Daylight Time),401905.89999999944,A,meadow,I,w,128,1,1900.0999999996275,400005.7999999998,9081,WL,A,6.0
3,10.249000072479248,learn,49750.99992752075,Wed May 13 2026 12:27:13 GMT-0400 (Eastern Daylight Time),402238.69999999925,A,meadowenter,I,enter,313,1,2232.899999999441,400005.7999999998,9081,WL,A,6.0
3,11.617000102996826,learn,48382.999897003174,Wed May 13 2026 12:27:13 GMT-0400 (Eastern Daylight Time),403606.0,A,r,I,r,1345,1,1366.800000000745,402239.19999999925,9081,WL,A,7.0
3,11.833000183105469,learn,48166.99981689453,Wed May 13 2026 12:27:13 GMT-0400 (Eastern Daylight Time),403822.5,A,ru,I,u,189,1,1583.300000000745,402239.19999999925,9081,WL,A,7.0
3,12.083000183105469,learn,47916.99981689453,Wed May 13 2026 12:27:13 GMT-0400 (Eastern Daylight Time),404072.2999999998,A,rug,I,g,238,1,1833.1000000005588,402239.19999999925,9081,WL,A,7.0
3,12.299000024795532,learn,47700.99997520447,Wed May 13 2026 12:27:13 GMT-0400 (Eastern Daylight Time),404288.89999999944,A,rugenter,I,enter,204,1,2049.7000000001863,402239.19999999925,9081,WL,A,7.0
3,12.683000087738037,learn,47316.99991226196,Wed May 13 2026 12:27:13 GMT-0400 (Eastern Daylight Time),404672.5999999996,A,r,I,r,374,1,383.40000000037253,404289.19999999925,9081,WL,A,8.0
3,12.916000127792358,learn,47083.99987220764,Wed May 13 2026 12:27:13 GMT-0400 (Eastern Daylight Time),404905.69999999925,A,ra,I,a,211,1,616.5,404289.19999999925,9081,WL,A,8.0
3,13.200000047683716,learn,46799.999952316284,Wed May 13 2026 12:27:13 GMT-0400 (Eastern Daylight Time),405189.39999999944,A,rat,I,t,267,1,900.2000000001863,404289.19999999925,9081,WL,A,8.0
3,13.450000047683716,learn,46549.999952316284,Wed May 13 2026 12:27:13 GMT-0400 (Eastern Daylight Time),405439.19999999925,A,ratt,I,t,231,1,1150.0,404289.19999999925,9081,WL,A,8.0
3,13.700000047683716,learn,46299.999952316284,Wed May 13 2026 12:27:13 GMT-0400 (Eastern Daylight Time),405689.19999999925,A,rattl,I,l,228,1,1400.0,404289.19999999925,9081,WL,A,8.0
3,13.833000183105469,learn,46166.99981689453,Wed May 13 2026 12:27:13 GMT-0400 (Eastern Daylight Time),405822.5999999996,A,rattle,I,e,123,1,1533.4000000003725,404289.19999999925,9081,WL,A,8.0
3,14.065999984741211,learn,45934.00001525879,Wed May 13 2026 12:27:13 GMT-0400 (Eastern Daylight Time),406055.5,A,rattleenter,I,enter,211,1,1766.300000000745,404289.19999999925,9081,WL,A,8.0
3,22.200000047683716,learn,37799.999952316284,Wed May 13 2026 12:27:13 GMT-0400 (Eastern Daylight Time),414189.19999999925,A,g,I,g,8120,1,8133.299999999814,406055.89999999944,9081,WL,A,9.0
3,22.40000009536743,learn,37599.99990463257,Wed May 13 2026 12:27:13 GMT-0400 (Eastern Daylight Time),414389.19999999925,A,go,I,o,183,1,8333.299999999814,406055.89999999944,9081,WL,A,9.0
3,22.58300018310547,learn,37416.99981689453,Wed May 13 2026 12:27:13 GMT-0400 (Eastern Daylight Time),414572.2999999998,A,gol,I,l,167,1,8516.400000000373,406055.89999999944,9081,WL,A,9.0
3,22.75,learn,37250.0,Wed May 13 2026 12:27:13 GMT-0400 (Eastern Daylight Time),414739.2999999998,A,gold,I,d,148,1,8683.400000000373,406055.89999999944,9081,WL,A,9.0
3,23.032999992370605,learn,36967.000007629395,Wed May 13 2026 12:27:13 GMT-0400 (Eastern Daylight Time),415022.19999999925,A,goldenter,I,enter,265,1,8966.299999999814,406055.89999999944,9081,WL,A,9.0
3,27.41600012779236,learn,32583.99987220764,Wed May 13 2026 12:27:13 GMT-0400 (Eastern Daylight Time),419405.7999999998,A,f,I,f,4369,1,4383.200000000186,415022.5999999996,9081,WL,A,10.0
3,27.633000135421753,learn,32366.999864578247,Wed May 13 2026 12:27:13 GMT-0400 (Eastern Daylight Time),419622.5999999996,A,fl,I,l,190,1,4600.0,415022.5999999996,9081,WL,A,10.0
3,27.83300018310547,learn,32166.99981689453,Wed May 13 2026 12:27:13 GMT-0400 (Eastern Daylight Time),419822.5999999996,A,flo,I,o,174,1,4800.0,415022.5999999996,9081,WL,A,10.0
3,28.032999992370605,learn,31967.000007629395,Wed May 13 2026 12:27:13 GMT-0400 (Eastern Daylight Time),420022.39999999944,A,flow,I,w,173,1,4999.799999999814,415022.5999999996,9081,WL,A,10.0
3,28.133000135421753,learn,31866.999864578247,Wed May 13 2026 12:27:13 GMT-0400 (Eastern Daylight Time),420122.5999999996,A,flowe,I,e,78,1,5100.0,415022.5999999996,9081,WL,A,10.0
3,28.23300004005432,learn,31766.99995994568,Wed May 13 2026 12:27:13 GMT-0400 (Eastern Daylight Time),420222.69999999925,A,flower,I,r,82,1,5200.0999999996275,415022.5999999996,9081,WL,A,10.0
3,28.56599998474121,learn,31434.00001525879,Wed May 13 2026 12:27:13 GMT-0400 (Eastern Daylight Time),420555.5999999996,A,flowerenter,I,enter,310,1,5533.0,415022.5999999996,9081,WL,A,10.0
3,31.48300004005432,learn,28516.99995994568,Wed May 13 2026 12:27:13 GMT-0400 (Eastern Daylight Time),423472.5,A,b,I,b,2908,1,2916.600000000559,420555.89999999944,9081,WL,A,11.0
3,31.766000032424927,learn,28233.999967575073,Wed May 13 2026 12:27:13 GMT-0400 (Eastern Daylight Time),423755.7999999998,A,bu,I,u,260,1,3199.9000000003725,420555.89999999944,9081,WL,A,11.0
3,32.032999992370605,learn,27967.000007629395,Wed May 13 2026 12:27:13 GMT-0400 (Eastern Daylight Time),424022.5,A,but,I,t,239,1,3466.600000000559,420555.89999999944,9081,WL,A,11.0
3,32.217000007629395,learn,27782.999992370605,Wed May 13 2026 12:27:13 GMT-0400 (Eastern Daylight Time),424206.0,A,butt,I,t,159,1,3650.100000000559,420555.89999999944,9081,WL,A,11.0
3,32.41600012779236,learn,27583.99987220764,Wed May 13 2026 12:27:13 GMT-0400 (Eastern Daylight Time),424406.0,A,butto,I,o,167,1,3850.100000000559,420555.89999999944,9081,WL,A,11.0
3,32.549999952316284,learn,27450.000047683716,Wed May 13 2026 12:27:13 GMT-0400 (Eastern Daylight Time),424539.19999999925,A,button,I,n,117,1,3983.2999999998137,420555.89999999944,9081,WL,A,11.0
3,32.89900016784668,learn,27100.99983215332,Wed May 13 2026 12:27:13 GMT-0400 (Eastern Daylight Time),424888.89999999944,A,buttonenter,I,enter,336,1,4333.0,420555.89999999944,9081,WL,A,11.0
3,37.15000009536743,learn,22849.99990463257,Wed May 13 2026 12:27:13 GMT-0400 (Eastern Daylight Time),429139.2999999998,A,l,I,l,4230,1,4250.0,424889.2999999998,9081,WL,A,12.0
3,37.40000009536743,learn,22599.99990463257,Wed May 13 2026 12:27:13 GMT-0400 (Eastern Daylight Time),429389.2999999998,A,lo,I,o,225,1,4500.0,424889.2999999998,9081,WL,A,12.0
3,37.63300013542175,learn,22366.999864578247,Wed May 13 2026 12:27:13 GMT-0400 (Eastern Daylight Time),429622.69999999925,A,log,I,g,223,1,4733.399999999441,424889.2999999998,9081,WL,A,12.0
3,38.13300013542175,learn,21866.999864578247,Wed May 13 2026 12:27:13 GMT-0400 (Eastern Daylight Time),430122.2999999998,A,logenter,I,enter,469,1,5233.0,424889.2999999998,9081,WL,A,12.0
3,52.60000014305115,learn,7399.9998569488525,Wed May 13 2026 12:27:13 GMT-0400 (Eastern Daylight Time),444589.19999999925,A,c,I,c,14445,1,14466.599999999627,430122.5999999996,9081,WL,A,13.0
3,52.85000014305115,learn,7149.9998569488525,Wed May 13 2026 12:27:13 GMT-0400 (Eastern Daylight Time),444839.2999999998,A,ch,I,h,230,1,14716.700000000186,430122.5999999996,9081,WL,A,13.0
3,53.10000014305115,learn,6899.9998569488525,Wed May 13 2026 12:27:13 GMT-0400 (Eastern Daylight Time),445089.2999999998,A,chi,I,i,230,1,14966.700000000186,430122.5999999996,9081,WL,A,13.0
3,53.41700005531311,learn,6582.99994468689,Wed May 13 2026 12:27:13 GMT-0400 (Eastern Daylight Time),445406.0999999996,A,chim,I,m,293,1,15283.5,430122.5999999996,9081,WL,A,13.0
3,53.98300004005432,learn,6016.999959945679,Wed May 13 2026 12:27:13 GMT-0400 (Eastern Daylight Time),445972.5999999996,A,chimn,I,n,540,1,15850.0,430122.5999999996,9081,WL,A,13.0
3,54.13300013542175,learn,5866.999864578247,Wed May 13 2026 12:27:13 GMT-0400 (Eastern Daylight Time),446122.5,A,chimne,I,e,136,1,15999.900000000373,430122.5999999996,9081,WL,A,13.0
3,54.450000047683716,learn,5549.999952316284,Wed May 13 2026 12:27:13 GMT-0400 (Eastern Daylight Time),446439.19999999925,A,chimnet,I,t,301,1,16316.599999999627,430122.5999999996,9081,WL,A,13.0
3,55.200000047683716,learn,4799.999952316284,Wed May 13 2026 12:27:13 GMT-0400 (Eastern Daylight Time),447189.39999999944,A,chimne,I,backspace,729,1,17066.799999999814,430122.5999999996,9081,WL,A,13.0
3,55.88300013542175,learn,4116.999864578247,Wed May 13 2026 12:27:13 GMT-0400 (Eastern Daylight Time),447872.19999999925,A,chimney,I,y,662,1,17749.599999999627,430122.5999999996,9081,WL,A,13.0
3,56.16600012779236,learn,3833.9998722076416,Wed May 13 2026 12:27:13 GMT-0400 (Eastern Daylight Time),448155.5999999996,A,chimneyenter,I,enter,263,1,18033.0,430122.5999999996,9081,WL,A,13.0
3,60.01600003242493,learn,-16.000032424926758,Wed May 13 2026 12:27:13 GMT-0400 (Eastern Daylight Time),452006.0,A,None,I,None,3843,1,3850.0,448156.0,9081,WL,A,14.0
4,0.93399977684021,learn,59066.00022315979,Wed May 13 2026 12:27:13 GMT-0400 (Eastern Daylight Time),524006.0999999996,A,t,I,t,917,1,932.9000000003725,523073.19999999925,9081,WL,A,1.0
4,1.18399977684021,learn,58816.00022315979,Wed May 13 2026 12:27:13 GMT-0400 (Eastern Daylight Time),524256.0999999996,A,tr,I,r,239,1,1182.9000000003725,523073.19999999925,9081,WL,A,1.0
4,1.4669997692108154,learn,58533.000230789185,Wed May 13 2026 12:27:13 GMT-0400 (Eastern Daylight Time),524539.5,A,tra,I,a,267,1,1466.300000000745,523073.19999999925,9081,WL,A,1.0
4,1.616999864578247,learn,58383.00013542175,Wed May 13 2026 12:27:13 GMT-0400 (Eastern Daylight Time),524689.5,A,trai,I,i,136,1,1616.300000000745,523073.19999999925,9081,WL,A,1.0
4,1.7169997692108154,learn,58283.000230789185,Wed May 13 2026 12:27:13 GMT-0400 (Eastern Daylight Time),524789.2999999998,A,train,I,n,75,1,1716.1000000005588,523073.19999999925,9081,WL,A,1.0
4,2.2339999675750732,learn,57766.00003242493,Wed May 13 2026 12:27:13 GMT-0400 (Eastern Daylight Time),525306.2999999998,A,trainenter,I,enter,493,1,2233.100000000559,523073.19999999925,9081,WL,A,1.0
4,2.93399977684021,learn,57066.00022315979,Wed May 13 2026 12:27:13 GMT-0400 (Eastern Daylight Time),526006.1999999993,A,b,I,b,677,1,699.5999999996275,525306.5999999996,9081,WL,A,2.0
4,3.1499998569488525,learn,56850.00014305115,Wed May 13 2026 12:27:13 GMT-0400 (Eastern Daylight Time),526222.5999999996,A,bu,I,u,206,1,916.0,525306.5999999996,9081,WL,A,2.0
4,3.3999998569488525,learn,56600.00014305115,Wed May 13 2026 12:27:13 GMT-0400 (Eastern Daylight Time),526472.6999999993,A,but,I,t,222,1,1166.0999999996275,525306.5999999996,9081,WL,A,2.0
4,3.549999952316284,learn,56450.000047683716,Wed May 13 2026 12:27:13 GMT-0400 (Eastern Daylight Time),526622.7999999998,A,butt,I,t,132,1,1316.2000000001863,525306.5999999996,9081,WL,A,2.0
4,3.6999998092651367,learn,56300.00019073486,Wed May 13 2026 12:27:13 GMT-0400 (Eastern Daylight Time),526772.8999999994,A,butto,I,o,118,1,1466.2999999998137,525306.5999999996,9081,WL,A,2.0
4,3.799999952316284,learn,56200.000047683716,Wed May 13 2026 12:27:13 GMT-0400 (Eastern Daylight Time),526872.7999999998,A,button,I,n,88,1,1566.2000000001863,525306.5999999996,9081,WL,A,2.0
4,4.132999897003174,learn,55867.000102996826,Wed May 13 2026 12:27:13 GMT-0400 (Eastern Daylight Time),527205.7999999998,A,buttonenter,I,enter,315,1,1899.2000000001863,525306.5999999996,9081,WL,A,2.0
4,4.599999904632568,learn,55400.00009536743,Wed May 13 2026 12:27:13 GMT-0400 (Eastern Daylight Time),527672.6999999993,A,f,I,f,449,1,466.59999999962747,527206.0999999996,9081,WL,A,3.0
4,4.75,learn,55250.0,Wed May 13 2026 12:27:13 GMT-0400 (Eastern Daylight Time),527822.6999999993,A,fl,I,l,123,1,616.5999999996275,527206.0999999996,9081,WL,A,3.0
4,4.949999809265137,learn,55050.00019073486,Wed May 13 2026 12:27:13 GMT-0400 (Eastern Daylight Time),528022.7999999998,A,flo,I,o,174,1,816.7000000001863,527206.0999999996,9081,WL,A,3.0
4,5.049999952316284,learn,54950.000047683716,Wed May 13 2026 12:27:13 GMT-0400 (Eastern Daylight Time),528122.5999999996,A,flow,I,w,86,1,916.5,527206.0999999996,9081,WL,A,3.0
4,5.166999816894531,learn,54833.00018310547,Wed May 13 2026 12:27:13 GMT-0400 (Eastern Daylight Time),528239.1999999993,A,flowe,I,e,101,1,1033.0999999996275,527206.0999999996,9081,WL,A,3.0
4,5.299999952316284,learn,54700.000047683716,Wed May 13 2026 12:27:13 GMT-0400 (Eastern Daylight Time),528372.6999999993,A,flower,I,r,117,1,1166.5999999996275,527206.0999999996,9081,WL,A,3.0
4,5.533999919891357,learn,54466.00008010864,Wed May 13 2026 12:27:13 GMT-0400 (Eastern Daylight Time),528606.5999999996,A,flowerenter,I,enter,206,1,1400.5,527206.0999999996,9081,WL,A,3.0
4,5.883999824523926,learn,54116.000175476074,Wed May 13 2026 12:27:13 GMT-0400 (Eastern Daylight Time),528956.0,A,f,I,f,329,1,349.1000000005588,528606.8999999994,9081,WL,A,4.0
4,5.983999967575073,learn,54016.00003242493,Wed May 13 2026 12:27:13 GMT-0400 (Eastern Daylight Time),529056.0999999996,A,fi,I,i,88,1,449.20000000018626,528606.8999999994,9081,WL,A,4.0
4,6.083999872207642,learn,53916.00012779236,Wed May 13 2026 12:27:13 GMT-0400 (Eastern Daylight Time),529156.2999999998,A,fin,I,n,84,1,549.4000000003725,528606.8999999994,9081,WL,A,4.0
4,6.283999919891357,learn,53716.00008010864,Wed May 13 2026 12:27:13 GMT-0400 (Eastern Daylight Time),529356.0999999996,A,fing,I,g,177,1,749.2000000001863,528606.8999999994,9081,WL,A,4.0
4,6.533999919891357,learn,53466.00008010864,Wed May 13 2026 12:27:13 GMT-0400 (Eastern Daylight Time),529606.0999999996,A,finge,I,e,225,1,999.2000000001863,528606.8999999994,9081,WL,A,4.0
4,6.583999872207642,learn,53416.00012779236,Wed May 13 2026 12:27:13 GMT-0400 (Eastern Daylight Time),529656.5,A,finger,I,r,30,1,1049.6000000005588,528606.8999999994,9081,WL,A,4.0
4,6.816999912261963,learn,53183.00008773804,Wed May 13 2026 12:27:13 GMT-0400 (Eastern Daylight Time),529889.0,A,fingerenter,I,enter,213,1,1282.1000000005588,528606.8999999994,9081,WL,A,4.0
4,7.716999769210815,learn,52283.000230789185,Wed May 13 2026 12:27:13 GMT-0400 (Eastern Daylight Time),530789.5,A,l,I,l,880,1,900.1000000005588,529889.3999999994,9081,WL,A,5.0
4,7.916999816894531,learn,52083.00018310547,Wed May 13 2026 12:27:13 GMT-0400 (Eastern Daylight Time),530989.3999999994,A,lo,I,o,182,1,1100.0,529889.3999999994,9081,WL,A,5.0
4,8.049999952316284,learn,51950.000047683716,Wed May 13 2026 12:27:13 GMT-0400 (Eastern Daylight Time),531122.7999999998,A,log,I,g,104,1,1233.4000000003725,529889.3999999994,9081,WL,A,5.0
4,8.232999801635742,learn,51767.00019836426,Wed May 13 2026 12:27:13 GMT-0400 (Eastern Daylight Time),531305.7999999998,A,logenter,I,enter,170,1,1416.4000000003725,529889.3999999994,9081,WL,A,5.0
4,8.666999816894531,learn,51333.00018310547,Wed May 13 2026 12:27:13 GMT-0400 (Eastern Daylight Time),531739.3999999994,A,s,I,s,422,1,433.20000000018626,531306.1999999993,9081,WL,A,6.0
4,8.883999824523926,learn,51116.000175476074,Wed May 13 2026 12:27:13 GMT-0400 (Eastern Daylight Time),531956.1999999993,A,sa,I,a,193,1,650.0,531306.1999999993,9081,WL,A,6.0
4,8.966999769210815,learn,51033.000230789185,Wed May 13 2026 12:27:13 GMT-0400 (Eastern Daylight Time),532039.2999999998,A,sal,I,l,72,1,733.1000000005588,531306.1999999993,9081,WL,A,6.0
4,9.149999856948853,learn,50850.00014305115,Wed May 13 2026 12:27:13 GMT-0400 (Eastern Daylight Time),532222.7999999998,A,salt,I,t,173,1,916.6000000005588,531306.1999999993,9081,WL,A,6.0
4,9.449999809265137,learn,50550.00019073486,Wed May 13 2026 12:27:13 GMT-0400 (Eastern Daylight Time),532522.5,A,saltenter,I,enter,281,1,1216.300000000745,531306.1999999993,9081,WL,A,6.0
4,10.016999959945679,learn,49983.00004005432,Wed May 13 2026 12:27:13 GMT-0400 (Eastern Daylight Time),533089.5,A,h,I,h,549,1,566.6000000005588,532522.8999999994,9081,WL,A,7.0
4,10.166999816894531,learn,49833.00018310547,Wed May 13 2026 12:27:13 GMT-0400 (Eastern Daylight Time),533239.5,A,ha,I,a,132,1,716.6000000005588,532522.8999999994,9081,WL,A,7.0
4,10.25,learn,49750.0,Wed May 13 2026 12:27:13 GMT-0400 (Eastern Daylight Time),533322.7999999998,A,har,I,r,67,1,799.9000000003725,532522.8999999994,9081,WL,A,7.0
4,10.449999809265137,learn,49550.00019073486,Wed May 13 2026 12:27:13 GMT-0400 (Eastern Daylight Time),533522.8999999994,A,harp,I,p,170,1,1000.0,532522.8999999994,9081,WL,A,7.0
4,10.849999904632568,learn,49150.00009536743,Wed May 13 2026 12:27:13 GMT-0400 (Eastern Daylight Time),533922.3999999994,A,harpenter,I,enter,370,1,1399.5,532522.8999999994,9081,WL,A,7.0
4,11.516999959945679,learn,48483.00004005432,Wed May 13 2026 12:27:13 GMT-0400 (Eastern Daylight Time),534589.5999999996,A,m,I,m,645,1,666.9000000003725,533922.6999999993,9081,WL,A,8.0
4,11.649999856948853,learn,48350.00014305115,Wed May 13 2026 12:27:13 GMT-0400 (Eastern Daylight Time),534722.7999999998,A,me,I,e,109,1,800.1000000005588,533922.6999999993,9081,WL,A,8.0
4,11.849999904632568,learn,48150.00009536743,Wed May 13 2026 12:27:13 GMT-0400 (Eastern Daylight Time),534922.7999999998,A,mea,I,a,170,1,1000.1000000005588,533922.6999999993,9081,WL,A,8.0
4,12.099999904632568,learn,47900.00009536743,Wed May 13 2026 12:27:13 GMT-0400 (Eastern Daylight Time),535172.7999999998,A,mead,I,d,233,1,1250.1000000005588,533922.6999999993,9081,WL,A,8.0
4,12.583999872207642,learn,47416.00012779236,Wed May 13 2026 12:27:13 GMT-0400 (Eastern Daylight Time),535656.0999999996,A,meado,I,o,464,1,1733.4000000003725,533922.6999999993,9081,WL,A,8.0
4,12.733999967575073,learn,47266.00003242493,Wed May 13 2026 12:27:13 GMT-0400 (Eastern Daylight Time),535806.0999999996,A,meadow,I,w,134,1,1883.4000000003725,533922.6999999993,9081,WL,A,8.0
4,13.166999816894531,learn,46833.00018310547,Wed May 13 2026 12:27:13 GMT-0400 (Eastern Daylight Time),536239.0999999996,A,meadowenter,I,enter,414,1,2316.4000000003725,533922.6999999993,9081,WL,A,8.0
4,26.466999769210815,learn,33533.000230789185,Wed May 13 2026 12:27:13 GMT-0400 (Eastern Daylight Time),549539.3999999994,A,a,I,a,13280,1,13299.899999999441,536239.5,9081,WL,A,9.0
4,26.733999967575073,learn,33266.00003242493,Wed May 13 2026 12:27:13 GMT-0400 (Eastern Daylight Time),549806.2999999998,A,ap,I,p,240,1,13566.799999999814,536239.5,9081,WL,A,9.0
4,26.899999856948853,learn,33100.00014305115,Wed May 13 2026 12:27:13 GMT-0400 (Eastern Daylight Time),549972.7999999998,A,app,I,p,143,1,13733.299999999814,536239.5,9081,WL,A,9.0
4,27.16699981689453,learn,32833.00018310547,Wed May 13 2026 12:27:13 GMT-0400 (Eastern Daylight Time),550239.2999999998,A,appl,I,l,248,1,13999.799999999814,536239.5,9081,WL,A,9.0
4,27.33399987220764,learn,32666.00012779236,Wed May 13 2026 12:27:13 GMT-0400 (Eastern Daylight Time),550406.1999999993,A,apple,I,e,141,1,14166.699999999255,536239.5,9081,WL,A,9.0
4,27.533999919891357,learn,32466.000080108643,Wed May 13 2026 12:27:13 GMT-0400 (Eastern Daylight Time),550606.3999999994,A,appleenter,I,enter,175,1,14366.899999999441,536239.5,9081,WL,A,9.0
4,28.133999824523926,learn,31866.000175476074,Wed May 13 2026 12:27:13 GMT-0400 (Eastern Daylight Time),551206.0999999996,A,c,I,c,585,1,599.2999999998137,550606.7999999998,9081,WL,A,10.0
4,28.383999824523926,learn,31616.000175476074,Wed May 13 2026 12:27:13 GMT-0400 (Eastern Daylight Time),551456.0999999996,A,ch,I,h,230,1,849.2999999998137,550606.7999999998,9081,WL,A,10.0
4,28.566999912261963,learn,31433.000087738037,Wed May 13 2026 12:27:13 GMT-0400 (Eastern Daylight Time),551639.5999999996,A,chi,I,i,164,1,1032.7999999998137,550606.7999999998,9081,WL,A,10.0
4,28.799999952316284,learn,31200.000047683716,Wed May 13 2026 12:27:13 GMT-0400 (Eastern Daylight Time),551872.5999999996,A,chim,I,m,215,1,1265.7999999998137,550606.7999999998,9081,WL,A,10.0
4,29.51699995994568,learn,30483.00004005432,Wed May 13 2026 12:27:13 GMT-0400 (Eastern Daylight Time),552589.5,A,chimn,I,n,700,1,1982.7000000001863,550606.7999999998,9081,WL,A,10.0
4,29.68399977684021,learn,30316.00022315979,Wed May 13 2026 12:27:13 GMT-0400 (Eastern Daylight Time),552756.2999999998,A,chimne,I,e,144,1,2149.5,550606.7999999998,9081,WL,A,10.0
4,29.84999990463257,learn,30150.00009536743,Wed May 13 2026 12:27:13 GMT-0400 (Eastern Daylight Time),552922.8999999994,A,chimney,I,y,145,1,2316.0999999996275,550606.7999999998,9081,WL,A,10.0
4,30.26699995994568,learn,29733.00004005432,Wed May 13 2026 12:27:13 GMT-0400 (Eastern Daylight Time),553339.1999999993,A,chimneyenter,I,enter,393,1,2732.399999999441,550606.7999999998,9081,WL,A,10.0
4,39.48399996757507,learn,20516.000032424927,Wed May 13 2026 12:27:13 GMT-0400 (Eastern Daylight Time),562556.2999999998,A,b,I,b,9205,1,9216.799999999814,553339.5,9081,WL,A,11.0
4,39.73399996757507,learn,20266.000032424927,Wed May 13 2026 12:27:13 GMT-0400 (Eastern Daylight Time),562806.1999999993,A,bo,I,o,231,1,9466.699999999255,553339.5,9081,WL,A,11.0
4,39.89999985694885,learn,20100.000143051147,Wed May 13 2026 12:27:13 GMT-0400 (Eastern Daylight Time),562972.7999999998,A,boo,I,o,151,1,9633.299999999814,553339.5,9081,WL,A,11.0
4,40.18399977684021,learn,19816.00022315979,Wed May 13 2026 12:27:13 GMT-0400 (Eastern Daylight Time),563256.1999999993,A,book,I,k,265,1,9916.699999999255,553339.5,9081,WL,A,11.0
4,40.532999992370605,learn,19467.000007629395,Wed May 13 2026 12:27:13 GMT-0400 (Eastern Daylight Time),563605.7999999998,A,bookenter,I,enter,333,1,10266.299999999814,553339.5,9081,WL,A,11.0
4,41.28399991989136,learn,18716.000080108643,Wed May 13 2026 12:27:13 GMT-0400 (Eastern Daylight Time),564356.1999999993,A,t,I,t,730,1,750.0999999996275,563606.0999999996,9081,WL,A,12.0
4,41.51699995994568,learn,18483.00004005432,Wed May 13 2026 12:27:13 GMT-0400 (Eastern Daylight Time),564589.5999999996,A,tr,I,r,207,1,983.5,563606.0999999996,9081,WL,A,12.0
4,41.73299980163574,learn,18267.000198364258,Wed May 13 2026 12:27:13 GMT-0400 (Eastern Daylight Time),564805.7999999998,A,tra,I,a,198,1,1199.7000000001863,563606.0999999996,9081,WL,A,12.0
4,41.91699981689453,learn,18083.00018310547,Wed May 13 2026 12:27:13 GMT-0400 (Eastern Daylight Time),564989.5,A,trai,I,i,170,1,1383.4000000003725,563606.0999999996,9081,WL,A,12.0
4,41.966999769210815,learn,18033.000230789185,Wed May 13 2026 12:27:13 GMT-0400 (Eastern Daylight Time),565039.1999999993,A,train,I,n,39,1,1433.0999999996275,563606.0999999996,9081,WL,A,12.0
4,42.33399987220764,learn,17666.00012779236,Wed May 13 2026 12:27:13 GMT-0400 (Eastern Daylight Time),565406.5,A,trainenter,I,enter,343,1,1800.4000000003725,563606.0999999996,9081,WL,A,12.0
4,51.48399996757507,learn,8516.000032424927,Wed May 13 2026 12:27:13 GMT-0400 (Eastern Daylight Time),574556.2999999998,A,k,I,k,9129,1,9149.5,565406.7999999998,9081,WL,A,13.0
4,51.81699991226196,learn,8183.000087738037,Wed May 13 2026 12:27:13 GMT-0400 (Eastern Daylight Time),574889.5999999996,A,ke,I,e,320,1,9482.799999999814,565406.7999999998,9081,WL,A,13.0
4,52.0,learn,8000.0,Wed May 13 2026 12:27:13 GMT-0400 (Eastern Daylight Time),575072.7999999998,A,key,I,y,171,1,9666.0,565406.7999999998,9081,WL,A,13.0
4,52.282999992370605,learn,7717.0000076293945,Wed May 13 2026 12:27:13 GMT-0400 (Eastern Daylight Time),575356.0,A,keyenter,I,enter,253,1,9949.200000000186,565406.7999999998,9081,WL,A,13.0
4,56.39999985694885,learn,3600.0001430511475,Wed May 13 2026 12:27:13 GMT-0400 (Eastern Daylight Time),579472.8999999994,A,g,I,g,4107,1,4116.700000000186,575356.1999999993,9081,WL,A,14.0
4,56.50099992752075,learn,3499.000072479248,Wed May 13 2026 12:27:13 GMT-0400 (Eastern Daylight Time),579573.0,A,go,I,o,84,1,4216.800000000745,575356.1999999993,9081,WL,A,14.0
4,56.69999980926514,learn,3300.0001907348633,Wed May 13 2026 12:27:13 GMT-0400 (Eastern Daylight Time),579772.7999999998,A,gol,I,l,183,1,4416.600000000559,575356.1999999993,9081,WL,A,14.0
4,56.83399987220764,learn,3166.0001277923584,Wed May 13 2026 12:27:13 GMT-0400 (Eastern Daylight Time),579906.2999999998,A,gold,I,d,119,1,4550.100000000559,575356.1999999993,9081,WL,A,14.0
4,57.08299994468689,learn,2917.0000553131104,Wed May 13 2026 12:27:13 GMT-0400 (Eastern Daylight Time),580155.7999999998,A,goldenter,I,enter,235,1,4799.600000000559,575356.1999999993,9081,WL,A,14.0
4,60.01699995994568,learn,-16.99995994567871,Wed May 13 2026 12:27:13 GMT-0400 (Eastern Daylight Time),583089.7999999998,A,None,I,None,2927,1,2933.600000000559,580156.1999999993,9081,WL,A,15.0
5,1.25,learn,60000.0,Wed May 13 2026 12:27:13 GMT-0400 (Eastern Daylight Time),665006.6999999993,A,f,I,f,1226,1,1249.7999999998137,663756.8999999994,9081,WL,A,1.0
5,1.5,learn,60000.0,Wed May 13 2026 12:27:13 GMT-0400 (Eastern Daylight Time),665256.5,A,fi,I,i,237,1,1499.6000000005588,663756.8999999994,9081,WL,A,1.0
5,1.633000135421753,learn,60000.0,Wed May 13 2026 12:27:13 GMT-0400 (Eastern Daylight Time),665389.6999999993,A,fin,I,n,108,1,1632.7999999998137,663756.8999999994,9081,WL,A,1.0
5,2.117000102996826,learn,60000.0,Wed May 13 2026 12:27:13 GMT-0400 (Eastern Daylight Time),665873.0,A,fing,I,g,471,1,2116.100000000559,663756.8999999994,9081,WL,A,1.0
5,2.317000150680542,learn,60000.0,Wed May 13 2026 12:27:13 GMT-0400 (Eastern Daylight Time),666073.0,A,finge,I,e,188,1,2316.100000000559,663756.8999999994,9081,WL,A,1.0
5,2.450000047683716,learn,60000.0,Wed May 13 2026 12:27:13 GMT-0400 (Eastern Daylight Time),666206.5999999996,A,finger,I,r,104,1,2449.7000000001863,663756.8999999994,9081,WL,A,1.0
5,2.8330001831054688,learn,60000.0,Wed May 13 2026 12:27:13 GMT-0400 (Eastern Daylight Time),666589.3999999994,A,fingerenter,I,enter,356,1,2832.5,663756.8999999994,9081,WL,A,1.0
5,3.2330000400543213,learn,60000.0,Wed May 13 2026 12:27:13 GMT-0400 (Eastern Daylight Time),666989.8999999994,A,k,I,k,386,1,400.20000000018626,666589.6999999993,9081,WL,A,2.0
5,3.4170000553131104,learn,60000.0,Wed May 13 2026 12:27:13 GMT-0400 (Eastern Daylight Time),667173.0999999996,A,ke,I,e,158,1,583.4000000003725,666589.6999999993,9081,WL,A,2.0
5,3.6000001430511475,learn,60000.0,Wed May 13 2026 12:27:13 GMT-0400 (Eastern Daylight Time),667356.6999999993,A,key,I,y,159,1,767.0,666589.6999999993,9081,WL,A,2.0
5,3.933000087738037,learn,60000.0,Wed May 13 2026 12:27:13 GMT-0400 (Eastern Daylight Time),667689.5,A,keyenter,I,enter,320,1,1099.800000000745,666589.6999999993,9081,WL,A,2.0
5,4.200000047683716,learn,60000.0,Wed May 13 2026 12:27:13 GMT-0400 (Eastern Daylight Time),667956.5,A,r,I,r,253,1,266.70000000018626,667689.7999999998,9081,WL,A,3.0
5,4.450000047683716,learn,60000.0,Wed May 13 2026 12:27:13 GMT-0400 (Eastern Daylight Time),668206.5,A,ra,I,a,222,1,516.7000000001863,667689.7999999998,9081,WL,A,3.0
5,4.75,learn,60000.0,Wed May 13 2026 12:27:13 GMT-0400 (Eastern Daylight Time),668506.3999999994,A,rat,I,t,286,1,816.5999999996275,667689.7999999998,9081,WL,A,3.0
5,5.2170000076293945,learn,60000.0,Wed May 13 2026 12:27:13 GMT-0400 (Eastern Daylight Time),668973.0999999996,A,ratt,I,t,441,1,1283.2999999998137,667689.7999999998,9081,WL,A,3.0
5,5.5,learn,60000.0,Wed May 13 2026 12:27:13 GMT-0400 (Eastern Daylight Time),669256.3999999994,A,rattl,I,l,271,1,1566.5999999996275,667689.7999999998,9081,WL,A,3.0
5,5.6000001430511475,learn,60000.0,Wed May 13 2026 12:27:13 GMT-0400 (Eastern Daylight Time),669356.5,A,rattle,I,e,85,1,1666.7000000001863,667689.7999999998,9081,WL,A,3.0
5,5.81600022315979,learn,60000.0,Wed May 13 2026 12:27:13 GMT-0400 (Eastern Daylight Time),669572.7999999998,A,rattleenter,I,enter,190,1,1883.0,667689.7999999998,9081,WL,A,3.0
5,6.1000001430511475,learn,60000.0,Wed May 13 2026 12:27:13 GMT-0400 (Eastern Daylight Time),669856.5,A,g,I,g,275,1,283.30000000074506,669573.1999999993,9081,WL,A,4.0
5,6.233000040054321,learn,60000.0,Wed May 13 2026 12:27:13 GMT-0400 (Eastern Daylight Time),669989.7999999998,A,go,I,o,116,1,416.6000000005588,669573.1999999993,9081,WL,A,4.0
5,6.466000080108643,learn,60000.0,Wed May 13 2026 12:27:13 GMT-0400 (Eastern Daylight Time),670222.8999999994,A,gol,I,l,208,1,649.7000000001863,669573.1999999993,9081,WL,A,4.0
5,6.567000150680542,learn,60000.0,Wed May 13 2026 12:27:13 GMT-0400 (Eastern Daylight Time),670323.0,A,gold,I,d,85,1,749.8000000007451,669573.1999999993,9081,WL,A,4.0
5,6.867000102996826,learn,60000.0,Wed May 13 2026 12:27:13 GMT-0400 (Eastern Daylight Time),670623.0999999996,A,goldenter,I,enter,282,1,1049.9000000003725,669573.1999999993,9081,WL,A,4.0
5,8.282999992370605,learn,60000.0,Wed May 13 2026 12:27:13 GMT-0400 (Eastern Daylight Time),672039.5999999996,A,t,I,t,1409,1,1416.2000000001863,670623.3999999994,9081,WL,A,5.0
5,8.516000032424927,learn,60000.0,Wed May 13 2026 12:27:13 GMT-0400 (Eastern Daylight Time),672273.0,A,tr,I,r,212,1,1649.6000000005588,670623.3999999994,9081,WL,A,5.0
5,8.75,learn,60000.0,Wed May 13 2026 12:27:13 GMT-0400 (Eastern Daylight Time),672506.5,A,tra,I,a,204,1,1883.1000000005588,670623.3999999994,9081,WL,A,5.0
5,8.916000127792358,learn,60000.0,Wed May 13 2026 12:27:13 GMT-0400 (Eastern Daylight Time),672672.8999999994,A,trai,I,i,155,1,2049.5,670623.3999999994,9081,WL,A,5.0
5,9.017000198364258,learn,60000.0,Wed May 13 2026 12:27:13 GMT-0400 (Eastern Daylight Time),672773.1999999993,A,train,I,n,86,1,2149.7999999998137,670623.3999999994,9081,WL,A,5.0
5,9.31600022315979,learn,60000.0,Wed May 13 2026 12:27:13 GMT-0400 (Eastern Daylight Time),673072.8999999994,A,trainenter,I,enter,280,1,2449.5,670623.3999999994,9081,WL,A,5.0
5,10.333000183105469,learn,60000.0,Wed May 13 2026 12:27:13 GMT-0400 (Eastern Daylight Time),674089.8999999994,A,b,I,b,1008,1,1016.7000000001863,673073.1999999993,9081,WL,A,6.0
5,10.600000143051147,learn,60000.0,Wed May 13 2026 12:27:13 GMT-0400 (Eastern Daylight Time),674356.5,A,bo,I,o,241,1,1283.300000000745,673073.1999999993,9081,WL,A,6.0
5,10.767000198364258,learn,60000.0,Wed May 13 2026 12:27:13 GMT-0400 (Eastern Daylight Time),674523.0999999996,A,boo,I,o,151,1,1449.9000000003725,673073.1999999993,9081,WL,A,6.0
5,11.067000150680542,learn,60000.0,Wed May 13 2026 12:27:13 GMT-0400 (Eastern Daylight Time),674823.0999999996,A,book,I,k,282,1,1749.9000000003725,673073.1999999993,9081,WL,A,6.0
5,11.383000135421753,learn,60000.0,Wed May 13 2026 12:27:13 GMT-0400 (Eastern Daylight Time),675139.5,A,bookenter,I,enter,291,1,2066.300000000745,673073.1999999993,9081,WL,A,6.0
5,11.883000135421753,learn,60000.0,Wed May 13 2026 12:27:13 GMT-0400 (Eastern Daylight Time),675639.5999999996,A,m,I,m,492,1,499.90000000037253,675139.6999999993,9081,WL,A,7.0
5,12.06600022315979,learn,60000.0,Wed May 13 2026 12:27:13 GMT-0400 (Eastern Daylight Time),675823.0,A,me,I,e,173,1,683.3000000007451,675139.6999999993,9081,WL,A,7.0
5,12.300000190734863,learn,60000.0,Wed May 13 2026 12:27:13 GMT-0400 (Eastern Daylight Time),676056.3999999994,A,mea,I,a,222,1,916.7000000001863,675139.6999999993,9081,WL,A,7.0
5,12.583000183105469,learn,60000.0,Wed May 13 2026 12:27:13 GMT-0400 (Eastern Daylight Time),676339.8999999994,A,mead,I,d,260,1,1200.2000000001863,675139.6999999993,9081,WL,A,7.0
5,13.050000190734863,learn,60000.0,Wed May 13 2026 12:27:13 GMT-0400 (Eastern Daylight Time),676806.3999999994,A,meado,I,o,441,1,1666.7000000001863,675139.6999999993,9081,WL,A,7.0
5,13.200000047683716,learn,60000.0,Wed May 13 2026 12:27:13 GMT-0400 (Eastern Daylight Time),676956.5,A,meadow,I,w,134,1,1816.800000000745,675139.6999999993,9081,WL,A,7.0
5,13.733000040054321,learn,60000.0,Wed May 13 2026 12:27:13 GMT-0400 (Eastern Daylight Time),677489.5999999996,A,meadowenter,I,enter,512,1,2349.9000000003725,675139.6999999993,9081,WL,A,7.0
5,14.133000135421753,learn,60000.0,Wed May 13 2026 12:27:13 GMT-0400 (Eastern Daylight Time),677889.5,A,h,I,h,390,1,399.40000000037253,677490.0999999996,9081,WL,A,8.0
5,14.350000143051147,learn,60000.0,Wed May 13 2026 12:27:13 GMT-0400 (Eastern Daylight Time),678106.5,A,ha,I,a,203,1,616.4000000003725,677490.0999999996,9081,WL,A,8.0
5,14.483000040054321,learn,60000.0,Wed May 13 2026 12:27:13 GMT-0400 (Eastern Daylight Time),678239.7999999998,A,har,I,r,106,1,749.7000000001863,677490.0999999996,9081,WL,A,8.0
5,14.767000198364258,learn,60000.0,Wed May 13 2026 12:27:13 GMT-0400 (Eastern Daylight Time),678523.0999999996,A,harp,I,p,269,1,1033.0,677490.0999999996,9081,WL,A,8.0
5,15.266000032424927,learn,60000.0,Wed May 13 2026 12:27:13 GMT-0400 (Eastern Daylight Time),679022.7999999998,A,harpenter,I,enter,482,1,1532.7000000001863,677490.0999999996,9081,WL,A,8.0
5,15.583000183105469,learn,60000.0,Wed May 13 2026 12:27:13 GMT-0400 (Eastern Daylight Time),679339.7999999998,A,s,I,s,304,1,316.70000000018626,679023.0999999996,9081,WL,A,9.0
5,15.817000150680542,learn,60000.0,Wed May 13 2026 12:27:13 GMT-0400 (Eastern Daylight Time),679573.0999999996,A,sa,I,a,217,1,550.0,679023.0999999996,9081,WL,A,9.0
5,15.933000087738037,learn,60000.0,Wed May 13 2026 12:27:13 GMT-0400 (Eastern Daylight Time),679689.7999999998,A,sal,I,l,95,1,666.7000000001863,679023.0999999996,9081,WL,A,9.0
5,16.817000150680542,learn,60000.0,Wed May 13 2026 12:27:13 GMT-0400 (Eastern Daylight Time),680573.0,A,salt,I,t,868,1,1549.9000000003725,679023.0999999996,9081,WL,A,9.0
5,17.017000198364258,learn,60000.0,Wed May 13 2026 12:27:13 GMT-0400 (Eastern Daylight Time),680773.2999999998,A,saltenter,I,enter,174,1,1750.2000000001863,679023.0999999996,9081,WL,A,9.0
5,18.58300018310547,learn,60000.0,Wed May 13 2026 12:27:13 GMT-0400 (Eastern Daylight Time),682339.7999999998,A,k,I,k,1546,1,1566.1000000005588,680773.6999999993,9081,WL,A,10.0
5,18.767000198364258,learn,60000.0,Wed May 13 2026 12:27:13 GMT-0400 (Eastern Daylight Time),682523.1999999993,A,ke,I,e,166,1,1749.5,680773.6999999993,9081,WL,A,10.0
5,18.950000047683716,learn,60000.0,Wed May 13 2026 12:27:13 GMT-0400 (Eastern Daylight Time),682706.5,A,key,I,y,154,1,1932.800000000745,680773.6999999993,9081,WL,A,10.0
5,19.25,learn,60000.0,Wed May 13 2026 12:27:13 GMT-0400 (Eastern Daylight Time),683006.0999999996,A,keyenter,I,enter,290,1,2232.4000000003725,680773.6999999993,9081,WL,A,10.0
5,20.032999992370605,learn,60000.0,Wed May 13 2026 12:27:13 GMT-0400 (Eastern Daylight Time),683789.8999999994,A,l,I,l,770,1,783.5,683006.3999999994,9081,WL,A,11.0
5,20.25,learn,60000.0,Wed May 13 2026 12:27:13 GMT-0400 (Eastern Daylight Time),684006.5,A,lo,I,o,199,1,1000.1000000005588,683006.3999999994,9081,WL,A,11.0
5,20.450000047683716,learn,60000.0,Wed May 13 2026 12:27:13 GMT-0400 (Eastern Daylight Time),684206.3999999994,A,log,I,g,176,1,1200.0,683006.3999999994,9081,WL,A,11.0
5,20.683000087738037,learn,60000.0,Wed May 13 2026 12:27:13 GMT-0400 (Eastern Daylight Time),684439.5,A,logenter,I,enter,221,1,1433.1000000005588,683006.3999999994,9081,WL,A,11.0
5,21.717000007629395,learn,60000.0,Wed May 13 2026 12:27:13 GMT-0400 (Eastern Daylight Time),685473.0999999996,A,r,I,r,1025,1,1033.4000000003725,684439.6999999993,9081,WL,A,12.0
5,21.967000007629395,learn,60000.0,Wed May 13 2026 12:27:13 GMT-0400 (Eastern Daylight Time),685723.0999999996,A,ra,I,a,235,1,1283.4000000003725,684439.6999999993,9081,WL,A,12.0
5,22.383000135421753,learn,60000.0,Wed May 13 2026 12:27:13 GMT-0400 (Eastern Daylight Time),686139.7999999998,A,rat,I,t,394,1,1700.1000000005588,684439.6999999993,9081,WL,A,12.0
5,22.58300018310547,learn,60000.0,Wed May 13 2026 12:27:13 GMT-0400 (Eastern Daylight Time),686339.7999999998,A,ratt,I,t,175,1,1900.1000000005588,684439.6999999993,9081,WL,A,12.0
5,22.817000150680542,learn,60000.0,Wed May 13 2026 12:27:13 GMT-0400 (Eastern Daylight Time),686573.0999999996,A,rattl,I,l,202,1,2133.4000000003725,684439.6999999993,9081,WL,A,12.0
5,22.91700005531311,learn,60000.0,Wed May 13 2026 12:27:13 GMT-0400 (Eastern Daylight Time),686673.3999999994,A,rattle,I,e,79,1,2233.7000000001863,684439.6999999993,9081,WL,A,12.0
5,23.183000087738037,learn,60000.0,Wed May 13 2026 12:27:13 GMT-0400 (Eastern Daylight Time),686939.5,A,rattleenter,I,enter,236,1,2499.800000000745,684439.6999999993,9081,WL,A,12.0
5,23.450000047683716,learn,60000.0,Wed May 13 2026 12:27:13 GMT-0400 (Eastern Daylight Time),687206.5,A,a,I,a,253,1,266.70000000018626,686939.7999999998,9081,WL,A,13.0
5,23.800000190734863,learn,60000.0,Wed May 13 2026 12:27:13 GMT-0400 (Eastern Daylight Time),687556.5999999996,A,ap,I,p,334,1,616.7999999998137,686939.7999999998,9081,WL,A,13.0
5,24.0,learn,60000.0,Wed May 13 2026 12:27:13 GMT-0400 (Eastern Daylight Time),687756.5,A,app,I,p,182,1,816.7000000001863,686939.7999999998,9081,WL,A,13.0
5,24.317000150680542,learn,60000.0,Wed May 13 2026 12:27:13 GMT-0400 (Eastern Daylight Time),688073.1999999993,A,appl,I,l,304,1,1133.3999999994412,686939.7999999998,9081,WL,A,13.0
5,24.48300004005432,learn,60000.0,Wed May 13 2026 12:27:13 GMT-0400 (Eastern Daylight Time),688239.7999999998,A,apple,I,e,148,1,1300.0,686939.7999999998,9081,WL,A,13.0
5,24.98300004005432,learn,60000.0,Wed May 13 2026 12:27:13 GMT-0400 (Eastern Daylight Time),688739.3999999994,A,appleenter,I,enter,485,1,1799.5999999996275,686939.7999999998,9081,WL,A,13.0
5,27.350000143051147,learn,60000.0,Wed May 13 2026 12:27:13 GMT-0400 (Eastern Daylight Time),691106.5,A,f,I,f,2356,1,2366.800000000745,688739.6999999993,9081,WL,A,14.0
5,27.466000080108643,learn,60000.0,Wed May 13 2026 12:27:13 GMT-0400 (Eastern Daylight Time),691223.0,A,fi,I,i,106,1,2483.300000000745,688739.6999999993,9081,WL,A,14.0
5,27.532999992370605,learn,60000.0,Wed May 13 2026 12:27:13 GMT-0400 (Eastern Daylight Time),691289.5,A,fin,I,n,46,1,2549.800000000745,688739.6999999993,9081,WL,A,14.0
5,27.73300004005432,learn,60000.0,Wed May 13 2026 12:27:13 GMT-0400 (Eastern Daylight Time),691489.6999999993,A,fing,I,g,181,1,2750.0,688739.6999999993,9081,WL,A,14.0
5,27.950000047683716,learn,60000.0,Wed May 13 2026 12:27:13 GMT-0400 (Eastern Daylight Time),691706.5999999996,A,finge,I,e,188,1,2966.9000000003725,688739.6999999993,9081,WL,A,14.0
5,28.032999992370605,learn,60000.0,Wed May 13 2026 12:27:13 GMT-0400 (Eastern Daylight Time),691789.8999999994,A,finger,I,r,59,1,3050.2000000001863,688739.6999999993,9081,WL,A,14.0
5,28.282999992370605,learn,60000.0,Wed May 13 2026 12:27:13 GMT-0400 (Eastern Daylight Time),692039.5999999996,A,fingerenter,I,enter,224,1,3299.9000000003725,688739.6999999993,9081,WL,A,14.0
5,33.18300008773804,learn,60000.0,Wed May 13 2026 12:27:13 GMT-0400 (Eastern Daylight Time),696940.0,A,c,I,c,4881,1,4900.100000000559,692039.8999999994,9081,WL,A,15.0
5,33.40000009536743,learn,60000.0,Wed May 13 2026 12:27:13 GMT-0400 (Eastern Daylight Time),697156.5999999996,A,ch,I,h,198,1,5116.700000000186,692039.8999999994,9081,WL,A,15.0
5,33.58300018310547,learn,60000.0,Wed May 13 2026 12:27:13 GMT-0400 (Eastern Daylight Time),697339.8999999994,A,chi,I,i,168,1,5300.0,692039.8999999994,9081,WL,A,15.0
5,33.81700015068054,learn,60000.0,Wed May 13 2026 12:27:13 GMT-0400 (Eastern Daylight Time),697573.0999999996,A,chim,I,m,217,1,5533.200000000186,692039.8999999994,9081,WL,A,15.0
5,34.43300008773804,learn,60000.0,Wed May 13 2026 12:27:13 GMT-0400 (Eastern Daylight Time),698189.8999999994,A,chimn,I,n,592,1,6150.0,692039.8999999994,9081,WL,A,15.0
5,34.617000102996826,learn,60000.0,Wed May 13 2026 12:27:13 GMT-0400 (Eastern Daylight Time),698373.0999999996,A,chimne,I,e,167,1,6333.200000000186,692039.8999999994,9081,WL,A,15.0
5,34.80000019073486,learn,60000.0,Wed May 13 2026 12:27:13 GMT-0400 (Eastern Daylight Time),698556.5999999996,A,chimney,I,y,168,1,6516.700000000186,692039.8999999994,9081,WL,A,15.0
5,35.200000047683716,learn,60000.0,Wed May 13 2026 12:27:13 GMT-0400 (Eastern Daylight Time),698956.1999999993,A,chimneyenter,I,enter,370,1,6916.299999999814,692039.8999999994,9081,WL,A,15.0
6,1.4829998016357422,distr,58517.00019836426,Wed May 13 2026 12:27:13 GMT-0400 (Eastern Daylight Time),775006.8999999994,B,p,I,p,1474,1,1482.7999999998137,773524.0999999996,9081,WL,A,1.0
6,1.5999999046325684,distr,58400.00009536743,Wed May 13 2026 12:27:13 GMT-0400 (Eastern Daylight Time),775123.2999999998,B,pe,I,e,104,1,1599.2000000001863,773524.0999999996,9081,WL,A,1.0
6,1.816999912261963,distr,58183.00008773804,Wed May 13 2026 12:27:13 GMT-0400 (Eastern Daylight Time),775340.0,B,pea,I,a,193,1,1815.9000000003725,773524.0999999996,9081,WL,A,1.0
6,2.0829999446868896,distr,57917.00005531311,Wed May 13 2026 12:27:13 GMT-0400 (Eastern Daylight Time),775606.7999999998,B,peac,I,c,249,1,2082.7000000001863,773524.0999999996,9081,WL,A,1.0
6,2.232999801635742,distr,57767.00019836426,Wed May 13 2026 12:27:13 GMT-0400 (Eastern Daylight Time),775756.6999999993,B,peach,I,h,126,1,2232.5999999996275,773524.0999999996,9081,WL,A,1.0
6,2.549999952316284,distr,57450.000047683716,Wed May 13 2026 12:27:13 GMT-0400 (Eastern Daylight Time),776073.0999999996,B,peachenter,I,enter,304,1,2549.0,773524.0999999996,9081,WL,A,1.0
6,3.7829999923706055,distr,56217.000007629395,Wed May 13 2026 12:27:13 GMT-0400 (Eastern Daylight Time),777306.5999999996,B,m,I,m,1214,1,1233.0999999996275,776073.5,9081,WL,A,2.0
6,3.932999849319458,distr,56067.00015068054,Wed May 13 2026 12:27:13 GMT-0400 (Eastern Daylight Time),777456.5999999996,B,me,I,e,130,1,1383.0999999996275,776073.5,9081,WL,A,2.0
6,4.1499998569488525,distr,55850.00014305115,Wed May 13 2026 12:27:13 GMT-0400 (Eastern Daylight Time),777673.3999999994,B,mea,I,a,204,1,1599.8999999994412,776073.5,9081,WL,A,2.0
6,4.366999864578247,distr,55633.00013542175,Wed May 13 2026 12:27:13 GMT-0400 (Eastern Daylight Time),777890.0999999996,B,meal,I,l,194,1,1816.5999999996275,776073.5,9081,WL,A,2.0
6,4.6499998569488525,distr,55350.00014305115,Wed May 13 2026 12:27:13 GMT-0400 (Eastern Daylight Time),778172.8999999994,B,mealenter,I,enter,257,1,2099.399999999441,776073.5,9081,WL,A,2.0
6,5.416999816894531,distr,54583.00018310547,Wed May 13 2026 12:27:13 GMT-0400 (Eastern Daylight Time),778940.0,B,g,I,g,746,1,766.8000000007451,778173.1999999993,9081,WL,A,3.0
6,6.066999912261963,distr,53933.00008773804,Wed May 13 2026 12:27:13 GMT-0400 (Eastern Daylight Time),779590.0999999996,B,gr,I,r,633,1,1416.9000000003725,778173.1999999993,9081,WL,A,3.0
6,6.315999984741211,distr,53684.00001525879,Wed May 13 2026 12:27:13 GMT-0400 (Eastern Daylight Time),779839.8999999994,B,gra,I,a,231,1,1666.7000000001863,778173.1999999993,9081,WL,A,3.0
6,6.515999794006348,distr,53484.00020599365,Wed May 13 2026 12:27:13 GMT-0400 (Eastern Daylight Time),780039.8999999994,B,gran,I,n,189,1,1866.7000000001863,778173.1999999993,9081,WL,A,3.0
6,6.682999849319458,distr,53317.00015068054,Wed May 13 2026 12:27:13 GMT-0400 (Eastern Daylight Time),780206.5999999996,B,grant,I,t,140,1,2033.4000000003725,778173.1999999993,9081,WL,A,3.0
6,6.848999977111816,distr,53151.00002288818,Wed May 13 2026 12:27:13 GMT-0400 (Eastern Daylight Time),780373.0,B,grantenter,I,enter,142,1,2199.800000000745,778173.1999999993,9081,WL,A,3.0
6,7.232999801635742,distr,52767.00019836426,Wed May 13 2026 12:27:13 GMT-0400 (Eastern Daylight Time),780756.8999999994,B,s,I,s,371,1,383.70000000018626,780373.1999999993,9081,WL,A,4.0
6,7.516999959945679,distr,52483.00004005432,Wed May 13 2026 12:27:13 GMT-0400 (Eastern Daylight Time),781040.0,B,se,I,e,271,1,666.8000000007451,780373.1999999993,9081,WL,A,4.0
6,7.75,distr,52250.0,Wed May 13 2026 12:27:13 GMT-0400 (Eastern Daylight Time),781273.2999999998,B,see,I,e,212,1,900.1000000005588,780373.1999999993,9081,WL,A,4.0
6,7.982999801635742,distr,52017.00019836426,Wed May 13 2026 12:27:13 GMT-0400 (Eastern Daylight Time),781506.7999999998,B,seed,I,d,220,1,1133.6000000005588,780373.1999999993,9081,WL,A,4.0
6,8.282999992370605,distr,51717.000007629395,Wed May 13 2026 12:27:13 GMT-0400 (Eastern Daylight Time),781806.1999999993,B,seedenter,I,enter,292,1,1433.0,780373.1999999993,9081,WL,A,4.0
6,8.932999849319458,distr,51067.00015068054,Wed May 13 2026 12:27:13 GMT-0400 (Eastern Daylight Time),782456.5999999996,B,c,I,c,642,1,650.0999999996275,781806.5,9081,WL,A,5.0
6,9.149999856948853,distr,50850.00014305115,Wed May 13 2026 12:27:13 GMT-0400 (Eastern Daylight Time),782673.5,B,ch,I,h,203,1,867.0,781806.5,9081,WL,A,5.0
6,9.33299994468689,distr,50667.00005531311,Wed May 13 2026 12:27:13 GMT-0400 (Eastern Daylight Time),782856.7999999998,B,cha,I,a,155,1,1050.2999999998137,781806.5,9081,WL,A,5.0
6,9.516999959945679,distr,50483.00004005432,Wed May 13 2026 12:27:13 GMT-0400 (Eastern Daylight Time),783040.0,B,chai,I,i,163,1,1233.5,781806.5,9081,WL,A,5.0
6,9.699999809265137,distr,50300.00019073486,Wed May 13 2026 12:27:13 GMT-0400 (Eastern Daylight Time),783223.2999999998,B,chair,I,r,157,1,1416.7999999998137,781806.5,9081,WL,A,5.0
6,9.965999841690063,distr,50034.00015830994,Wed May 13 2026 12:27:13 GMT-0400 (Eastern Daylight Time),783489.6999999993,B,chairenter,I,enter,246,1,1683.199999999255,781806.5,9081,WL,A,5.0
6,12.732999801635742,distr,47267.00019836426,Wed May 13 2026 12:27:13 GMT-0400 (Eastern Daylight Time),786256.8999999994,B,b,I,b,2751,1,2766.899999999441,783490.0,9081,WL,A,6.0
6,12.916999816894531,distr,47083.00018310547,Wed May 13 2026 12:27:13 GMT-0400 (Eastern Daylight Time),786440.0999999996,B,bo,I,o,164,1,2950.0999999996275,783490.0,9081,WL,A,6.0
6,13.08299994468689,distr,46917.00005531311,Wed May 13 2026 12:27:13 GMT-0400 (Eastern Daylight Time),786606.7999999998,B,bow,I,w,134,1,3116.7999999998137,783490.0,9081,WL,A,6.0
6,13.382999897003174,distr,46617.000102996826,Wed May 13 2026 12:27:13 GMT-0400 (Eastern Daylight Time),786906.6999999993,B,bowl,I,l,286,1,3416.699999999255,783490.0,9081,WL,A,6.0
6,13.982999801635742,distr,46017.00019836426,Wed May 13 2026 12:27:13 GMT-0400 (Eastern Daylight Time),787506.3999999994,B,bowlenter,I,enter,585,1,4016.399999999441,783490.0,9081,WL,A,6.0
6,15.116999864578247,distr,44883.00013542175,Wed May 13 2026 12:27:13 GMT-0400 (Eastern Daylight Time),788640.0999999996,B,d,I,d,1118,1,1133.5,787506.5999999996,9081,WL,A,7.0
6,15.449999809265137,distr,44550.00019073486,Wed May 13 2026 12:27:13 GMT-0400 (Eastern Daylight Time),788973.2999999998,B,da,I,a,316,1,1466.7000000001863,787506.5999999996,9081,WL,A,7.0
6,15.782999992370605,distr,44217.000007629395,Wed May 13 2026 12:27:13 GMT-0400 (Eastern Daylight Time),789306.7999999998,B,daw,I,w,312,1,1800.2000000001863,787506.5999999996,9081,WL,A,7.0
6,16.09999990463257,distr,43900.00009536743,Wed May 13 2026 12:27:13 GMT-0400 (Eastern Daylight Time),789623.3999999994,B,dawn,I,n,297,1,2116.7999999998137,787506.5999999996,9081,WL,A,7.0
6,16.649999856948853,distr,43350.00014305115,Wed May 13 2026 12:27:13 GMT-0400 (Eastern Daylight Time),790173.6999999993,B,dawnenter,I,enter,526,1,2667.0999999996275,787506.5999999996,9081,WL,A,7.0
6,19.465999841690063,distr,40534.00015830994,Wed May 13 2026 12:27:13 GMT-0400 (Eastern Daylight Time),792990.0,B,i,I,i,2802,1,2815.9000000003725,790174.0999999996,9081,WL,A,8.0
6,19.58299994468689,distr,40417.00005531311,Wed May 13 2026 12:27:13 GMT-0400 (Eastern Daylight Time),793106.6999999993,B,in,I,n,102,1,2932.5999999996275,790174.0999999996,9081,WL,A,8.0
6,19.949999809265137,distr,40050.00019073486,Wed May 13 2026 12:27:13 GMT-0400 (Eastern Daylight Time),793473.5,B,ins,I,s,353,1,3299.4000000003725,790174.0999999996,9081,WL,A,8.0
6,20.149999856948853,distr,39850.00014305115,Wed May 13 2026 12:27:13 GMT-0400 (Eastern Daylight Time),793673.2999999998,B,inse,I,e,188,1,3499.2000000001863,790174.0999999996,9081,WL,A,8.0
6,20.432999849319458,distr,39567.00015068054,Wed May 13 2026 12:27:13 GMT-0400 (Eastern Daylight Time),793956.7999999998,B,insec,I,c,267,1,3782.7000000001863,790174.0999999996,9081,WL,A,8.0
6,20.682999849319458,distr,39317.00015068054,Wed May 13 2026 12:27:13 GMT-0400 (Eastern Daylight Time),794206.6999999993,B,insect,I,t,224,1,4032.5999999996275,790174.0999999996,9081,WL,A,8.0
6,21.08299994468689,distr,38917.00005531311,Wed May 13 2026 12:27:13 GMT-0400 (Eastern Daylight Time),794606.2999999998,B,insectenter,I,enter,375,1,4432.200000000186,790174.0999999996,9081,WL,A,8.0
6,60.01699995994568,distr,-16.99995994567871,Wed May 13 2026 12:27:13 GMT-0400 (Eastern Daylight Time),833540.2999999998,B,None,I,None,38927,1,38933.700000000186,794606.5999999996,9081,WL,A,9.0
7,1.4839999675750732,immed,58516.00003242493,Wed May 13 2026 12:27:13 GMT-0400 (Eastern Daylight Time),841840.0999999996,A,b,I,b,1474,1,1482.9000000003725,840357.1999999993,9081,WL,A,1.0
7,1.8840000629425049,immed,58115.999937057495,Wed May 13 2026 12:27:13 GMT-0400 (Eastern Daylight Time),842240.1999999993,A,bo,I,o,381,1,1883.0,840357.1999999993,9081,WL,A,1.0
7,2.049999952316284,immed,57950.000047683716,Wed May 13 2026 12:27:13 GMT-0400 (Eastern Daylight Time),842406.7999999998,A,boo,I,o,143,1,2049.600000000559,840357.1999999993,9081,WL,A,1.0
7,2.2839999198913574,immed,57716.00008010864,Wed May 13 2026 12:27:13 GMT-0400 (Eastern Daylight Time),842640.2999999998,A,book,I,k,221,1,2283.100000000559,840357.1999999993,9081,WL,A,1.0
7,2.5999999046325684,immed,57400.00009536743,Wed May 13 2026 12:27:13 GMT-0400 (Eastern Daylight Time),842956.5,A,bookenter,I,enter,291,1,2599.300000000745,840357.1999999993,9081,WL,A,1.0
7,2.884000062942505,immed,57115.999937057495,Wed May 13 2026 12:27:13 GMT-0400 (Eastern Daylight Time),843240.0999999996,A,t,I,t,276,1,283.29999999981374,842956.7999999998,9081,WL,A,2.0
7,3.1499998569488525,immed,56850.00014305115,Wed May 13 2026 12:27:13 GMT-0400 (Eastern Daylight Time),843506.7999999998,A,tr,I,r,250,1,550.0,842956.7999999998,9081,WL,A,2.0
7,3.7170000076293945,immed,56282.999992370605,Wed May 13 2026 12:27:13 GMT-0400 (Eastern Daylight Time),844073.5999999996,A,tra,I,a,551,1,1116.7999999998137,842956.7999999998,9081,WL,A,2.0
7,4.016999959945679,immed,55983.00004005432,Wed May 13 2026 12:27:13 GMT-0400 (Eastern Daylight Time),844373.5999999996,A,trai,I,i,284,1,1416.7999999998137,842956.7999999998,9081,WL,A,2.0
7,4.134000062942505,immed,55865.999937057495,Wed May 13 2026 12:27:13 GMT-0400 (Eastern Daylight Time),844490.1999999993,A,train,I,n,104,1,1533.3999999994412,842956.7999999998,9081,WL,A,2.0
7,4.634000062942505,immed,55365.999937057495,Wed May 13 2026 12:27:13 GMT-0400 (Eastern Daylight Time),844990.0,A,trainenter,I,enter,490,1,2033.2000000001863,842956.7999999998,9081,WL,A,2.0
7,5.083999872207642,immed,54916.00012779236,Wed May 13 2026 12:27:13 GMT-0400 (Eastern Daylight Time),845440.1999999993,A,m,I,m,443,1,449.8999999994412,844990.2999999998,9081,WL,A,3.0
7,5.233999967575073,immed,54766.00003242493,Wed May 13 2026 12:27:13 GMT-0400 (Eastern Daylight Time),845590.1999999993,A,me,I,e,124,1,599.8999999994412,844990.2999999998,9081,WL,A,3.0
7,5.450000047683716,immed,54549.999952316284,Wed May 13 2026 12:27:13 GMT-0400 (Eastern Daylight Time),845806.7999999998,A,mea,I,a,199,1,816.5,844990.2999999998,9081,WL,A,3.0
7,5.733999967575073,immed,54266.00003242493,Wed May 13 2026 12:27:13 GMT-0400 (Eastern Daylight Time),846090.0999999996,A,mead,I,d,270,1,1099.7999999998137,844990.2999999998,9081,WL,A,3.0
7,5.950000047683716,immed,54049.999952316284,Wed May 13 2026 12:27:13 GMT-0400 (Eastern Daylight Time),846306.8999999994,A,meado,I,o,203,1,1316.5999999996275,844990.2999999998,9081,WL,A,3.0
7,6.083999872207642,immed,53916.00012779236,Wed May 13 2026 12:27:13 GMT-0400 (Eastern Daylight Time),846440.0999999996,A,meadow,I,w,111,1,1449.7999999998137,844990.2999999998,9081,WL,A,3.0
7,6.632999897003174,immed,53367.000102996826,Wed May 13 2026 12:27:13 GMT-0400 (Eastern Daylight Time),846989.6999999993,A,meadowenter,I,enter,517,1,1999.3999999994412,844990.2999999998,9081,WL,A,3.0
7,7.0,immed,53000.0,Wed May 13 2026 12:27:13 GMT-0400 (Eastern Daylight Time),847356.8999999994,A,r,I,r,355,1,366.79999999981374,846990.0999999996,9081,WL,A,4.0
7,7.200000047683716,immed,52799.999952316284,Wed May 13 2026 12:27:13 GMT-0400 (Eastern Daylight Time),847556.8999999994,A,ru,I,u,175,1,566.7999999998137,846990.0999999996,9081,WL,A,4.0
7,7.349999904632568,immed,52650.00009536743,Wed May 13 2026 12:27:13 GMT-0400 (Eastern Daylight Time),847706.8999999994,A,rug,I,g,135,1,716.7999999998137,846990.0999999996,9081,WL,A,4.0
7,7.917999982833862,immed,52082.00001716614,Wed May 13 2026 12:27:13 GMT-0400 (Eastern Daylight Time),848274.0,A,rugenter,I,enter,555,1,1283.9000000003725,846990.0999999996,9081,WL,A,4.0
7,9.033999919891357,immed,50966.00008010864,Wed May 13 2026 12:27:13 GMT-0400 (Eastern Daylight Time),849390.3999999994,A,r,I,r,1093,1,1116.0999999996275,848274.2999999998,9081,WL,A,5.0
7,9.25,immed,50750.0,Wed May 13 2026 12:27:13 GMT-0400 (Eastern Daylight Time),849606.8999999994,A,ra,I,a,199,1,1332.5999999996275,848274.2999999998,9081,WL,A,5.0
7,9.5,immed,50500.0,Wed May 13 2026 12:27:13 GMT-0400 (Eastern Daylight Time),849856.7999999998,A,rat,I,t,231,1,1582.5,848274.2999999998,9081,WL,A,5.0
7,9.66700005531311,immed,50332.99994468689,Wed May 13 2026 12:27:13 GMT-0400 (Eastern Daylight Time),850023.5999999996,A,ratt,I,t,150,1,1749.2999999998137,848274.2999999998,9081,WL,A,5.0
7,9.884000062942505,immed,50115.999937057495,Wed May 13 2026 12:27:13 GMT-0400 (Eastern Daylight Time),850240.1999999993,A,rattl,I,l,204,1,1965.8999999994412,848274.2999999998,9081,WL,A,5.0
7,10.016999959945679,immed,49983.00004005432,Wed May 13 2026 12:27:13 GMT-0400 (Eastern Daylight Time),850373.7999999998,A,rattle,I,e,108,1,2099.5,848274.2999999998,9081,WL,A,5.0
7,10.3510000705719,immed,49648.9999294281,Wed May 13 2026 12:27:13 GMT-0400 (Eastern Daylight Time),850707.1999999993,A,rattleenter,I,enter,310,1,2432.899999999441,848274.2999999998,9081,WL,A,5.0
7,13.866999864578247,immed,46133.00013542175,Wed May 13 2026 12:27:13 GMT-0400 (Eastern Daylight Time),854223.6999999993,A,l,I,l,3501,1,3516.2999999998137,850707.3999999994,9081,WL,A,6.0
7,14.083999872207642,immed,45916.00012779236,Wed May 13 2026 12:27:13 GMT-0400 (Eastern Daylight Time),854440.1999999993,A,lo,I,o,203,1,3732.7999999998137,850707.3999999994,9081,WL,A,6.0
7,14.233999967575073,immed,45766.00003242493,Wed May 13 2026 12:27:13 GMT-0400 (Eastern Daylight Time),854590.1999999993,A,log,I,g,125,1,3882.7999999998137,850707.3999999994,9081,WL,A,6.0
7,14.432999849319458,immed,45567.00015068054,Wed May 13 2026 12:27:13 GMT-0400 (Eastern Daylight Time),854789.8999999994,A,logenter,I,enter,175,1,4082.5,850707.3999999994,9081,WL,A,6.0
7,15.349999904632568,immed,44650.00009536743,Wed May 13 2026 12:27:13 GMT-0400 (Eastern Daylight Time),855706.7999999998,A,g,I,g,906,1,916.6000000005588,854790.1999999993,9081,WL,A,7.0
7,15.467000007629395,immed,44532.999992370605,Wed May 13 2026 12:27:13 GMT-0400 (Eastern Daylight Time),855823.2999999998,A,go,I,o,98,1,1033.1000000005588,854790.1999999993,9081,WL,A,7.0
7,15.649999856948853,immed,44350.00014305115,Wed May 13 2026 12:27:13 GMT-0400 (Eastern Daylight Time),856006.8999999994,A,gol,I,l,157,1,1216.7000000001863,854790.1999999993,9081,WL,A,7.0
7,15.783999919891357,immed,44216.00008010864,Wed May 13 2026 12:27:13 GMT-0400 (Eastern Daylight Time),856140.0999999996,A,gold,I,d,104,1,1349.9000000003725,854790.1999999993,9081,WL,A,7.0
7,16.116999864578247,immed,43883.00013542175,Wed May 13 2026 12:27:13 GMT-0400 (Eastern Daylight Time),856473.1999999993,A,goldenter,I,enter,320,1,1683.0,854790.1999999993,9081,WL,A,7.0
7,16.83399987220764,immed,43166.00012779236,Wed May 13 2026 12:27:13 GMT-0400 (Eastern Daylight Time),857190.0999999996,A,s,I,s,703,1,716.5,856473.5999999996,9081,WL,A,8.0
7,17.066999912261963,immed,42933.00008773804,Wed May 13 2026 12:27:13 GMT-0400 (Eastern Daylight Time),857423.5,A,sa,I,a,222,1,949.9000000003725,856473.5999999996,9081,WL,A,8.0
7,17.26699995994568,immed,42733.00004005432,Wed May 13 2026 12:27:13 GMT-0400 (Eastern Daylight Time),857623.2999999998,A,sal,I,l,182,1,1149.7000000001863,856473.5999999996,9081,WL,A,8.0
7,17.450000047683716,immed,42549.999952316284,Wed May 13 2026 12:27:13 GMT-0400 (Eastern Daylight Time),857807.0,A,salt,I,t,165,1,1333.4000000003725,856473.5999999996,9081,WL,A,8.0
7,17.950000047683716,immed,42049.999952316284,Wed May 13 2026 12:27:13 GMT-0400 (Eastern Daylight Time),858306.5,A,saltenter,I,enter,477,1,1832.9000000003725,856473.5999999996,9081,WL,A,8.0
7,18.483999967575073,immed,41516.00003242493,Wed May 13 2026 12:27:13 GMT-0400 (Eastern Daylight Time),858840.1999999993,A,h,I,h,526,1,533.2999999998137,858306.8999999994,9081,WL,A,9.0
7,18.649999856948853,immed,41350.00014305115,Wed May 13 2026 12:27:13 GMT-0400 (Eastern Daylight Time),859006.7999999998,A,ha,I,a,141,1,699.9000000003725,858306.8999999994,9081,WL,A,9.0
7,18.75,immed,41250.0,Wed May 13 2026 12:27:13 GMT-0400 (Eastern Daylight Time),859106.8999999994,A,har,I,r,78,1,800.0,858306.8999999994,9081,WL,A,9.0
7,19.033999919891357,immed,40966.00008010864,Wed May 13 2026 12:27:13 GMT-0400 (Eastern Daylight Time),859390.1999999993,A,harp,I,p,257,1,1083.2999999998137,858306.8999999994,9081,WL,A,9.0
7,19.59999990463257,immed,40400.00009536743,Wed May 13 2026 12:27:13 GMT-0400 (Eastern Daylight Time),859956.5999999996,A,harpenter,I,enter,543,1,1649.7000000001863,858306.8999999994,9081,WL,A,9.0
7,22.366999864578247,immed,37633.00013542175,Wed May 13 2026 12:27:13 GMT-0400 (Eastern Daylight Time),862723.5999999996,A,f,I,f,2748,1,2766.7999999998137,859956.7999999998,9081,WL,A,10.0
7,22.51699995994568,immed,37483.00004005432,Wed May 13 2026 12:27:13 GMT-0400 (Eastern Daylight Time),862873.5999999996,A,fi,I,i,128,1,2916.7999999998137,859956.7999999998,9081,WL,A,10.0
7,22.58299994468689,immed,37417.00005531311,Wed May 13 2026 12:27:13 GMT-0400 (Eastern Daylight Time),862939.7999999998,A,fin,I,n,35,1,2983.0,859956.7999999998,9081,WL,A,10.0
7,22.733999967575073,immed,37266.00003242493,Wed May 13 2026 12:27:13 GMT-0400 (Eastern Daylight Time),863090.7999999998,A,fing,I,g,132,1,3134.0,859956.7999999998,9081,WL,A,10.0
7,22.93400001525879,immed,37065.99998474121,Wed May 13 2026 12:27:13 GMT-0400 (Eastern Daylight Time),863290.0999999996,A,finge,I,e,187,1,3333.2999999998137,859956.7999999998,9081,WL,A,10.0
7,23.01699995994568,immed,36983.00004005432,Wed May 13 2026 12:27:13 GMT-0400 (Eastern Daylight Time),863373.0,A,finger,I,r,59,1,3416.2000000001863,859956.7999999998,9081,WL,A,10.0
7,23.283999919891357,immed,36716.00008010864,Wed May 13 2026 12:27:13 GMT-0400 (Eastern Daylight Time),863640.6999999993,A,fingerenter,I,enter,251,1,3683.899999999441,859956.7999999998,9081,WL,A,10.0
7,27.33399987220764,immed,32666.00012779236,Wed May 13 2026 12:27:13 GMT-0400 (Eastern Daylight Time),867690.0999999996,A,a,I,a,4032,1,4049.0999999996275,863641.0,9081,WL,A,11.0
7,27.58399987220764,immed,32416.00012779236,Wed May 13 2026 12:27:13 GMT-0400 (Eastern Daylight Time),867940.0999999996,A,ap,I,p,235,1,4299.0999999996275,863641.0,9081,WL,A,11.0
7,27.75,immed,32250.0,Wed May 13 2026 12:27:13 GMT-0400 (Eastern Daylight Time),868106.8999999994,A,app,I,p,144,1,4465.899999999441,863641.0,9081,WL,A,11.0
7,28.033999919891357,immed,31966.000080108643,Wed May 13 2026 12:27:13 GMT-0400 (Eastern Daylight Time),868390.1999999993,A,appl,I,l,259,1,4749.199999999255,863641.0,9081,WL,A,11.0
7,28.16700005531311,immed,31832.99994468689,Wed May 13 2026 12:27:13 GMT-0400 (Eastern Daylight Time),868523.6999999993,A,apple,I,e,110,1,4882.699999999255,863641.0,9081,WL,A,11.0
7,28.366999864578247,immed,31633.000135421753,Wed May 13 2026 12:27:13 GMT-0400 (Eastern Daylight Time),868723.1999999993,A,appleenter,I,enter,178,1,5082.199999999255,863641.0,9081,WL,A,11.0
7,28.783999919891357,immed,31216.000080108643,Wed May 13 2026 12:27:13 GMT-0400 (Eastern Daylight Time),869140.3999999994,A,c,I,c,398,1,416.8999999994412,868723.5,9081,WL,A,12.0
7,28.93400001525879,immed,31065.99998474121,Wed May 13 2026 12:27:13 GMT-0400 (Eastern Daylight Time),869290.1999999993,A,ch,I,h,137,1,566.6999999992549,868723.5,9081,WL,A,12.0
7,29.09999990463257,immed,30900.00009536743,Wed May 13 2026 12:27:13 GMT-0400 (Eastern Daylight Time),869457.0,A,chi,I,i,146,1,733.5,868723.5,9081,WL,A,12.0
7,29.16700005531311,immed,30832.99994468689,Wed May 13 2026 12:27:13 GMT-0400 (Eastern Daylight Time),869523.2999999998,A,chim,I,m,37,1,799.7999999998137,868723.5,9081,WL,A,12.0
7,29.717000007629395,immed,30282.999992370605,Wed May 13 2026 12:27:13 GMT-0400 (Eastern Daylight Time),870073.6999999993,A,chimn,I,n,540,1,1350.199999999255,868723.5,9081,WL,A,12.0
7,29.83399987220764,immed,30166.00012779236,Wed May 13 2026 12:27:13 GMT-0400 (Eastern Daylight Time),870190.1999999993,A,chimne,I,e,100,1,1466.699999999255,868723.5,9081,WL,A,12.0
7,30.0,immed,30000.0,Wed May 13 2026 12:27:13 GMT-0400 (Eastern Daylight Time),870356.8999999994,A,chimney,I,y,143,1,1633.3999999994412,868723.5,9081,WL,A,12.0
7,30.318000078201294,immed,29681.999921798706,Wed May 13 2026 12:27:13 GMT-0400 (Eastern Daylight Time),870674.1999999993,A,chimneyenter,I,enter,303,1,1950.699999999255,868723.5,9081,WL,A,12.0
7,44.33399987220764,immed,15666.000127792358,Wed May 13 2026 12:27:13 GMT-0400 (Eastern Daylight Time),884690.2999999998,A,g,I,g,13999,1,14015.900000000373,870674.3999999994,9081,WL,A,13.0
7,44.41700005531311,immed,15582.99994468689,Wed May 13 2026 12:27:13 GMT-0400 (Eastern Daylight Time),884773.6999999993,A,go,I,o,64,1,14099.299999999814,870674.3999999994,9081,WL,A,13.0
7,44.64999985694885,immed,15350.000143051147,Wed May 13 2026 12:27:13 GMT-0400 (Eastern Daylight Time),885007.0,A,gol,I,l,216,1,14332.600000000559,870674.3999999994,9081,WL,A,13.0
7,44.78399991989136,immed,15216.000080108643,Wed May 13 2026 12:27:13 GMT-0400 (Eastern Daylight Time),885140.1999999993,A,gold,I,d,111,1,14465.799999999814,870674.3999999994,9081,WL,A,13.0
7,45.049999952316284,immed,14950.000047683716,Wed May 13 2026 12:27:13 GMT-0400 (Eastern Daylight Time),885406.5,A,goldenter,I,enter,241,1,14732.100000000559,870674.3999999994,9081,WL,A,13.0
7,50.34999990463257,immed,9650.000095367432,Wed May 13 2026 12:27:13 GMT-0400 (Eastern Daylight Time),890706.5999999996,A,b,I,b,5289,1,5299.700000000186,885406.8999999994,9081,WL,A,14.0
7,50.634000062942505,immed,9365.999937057495,Wed May 13 2026 12:27:13 GMT-0400 (Eastern Daylight Time),890990.3999999994,A,bu,I,u,258,1,5583.5,885406.8999999994,9081,WL,A,14.0
7,50.84999990463257,immed,9150.000095367432,Wed May 13 2026 12:27:13 GMT-0400 (Eastern Daylight Time),891206.3999999994,A,but,I,t,191,1,5799.5,885406.8999999994,9081,WL,A,14.0
7,51.01699995994568,immed,8983.000040054321,Wed May 13 2026 12:27:13 GMT-0400 (Eastern Daylight Time),891373.0999999996,A,butt,I,t,144,1,5966.200000000186,885406.8999999994,9081,WL,A,14.0
7,51.16700005531311,immed,8832.99994468689,Wed May 13 2026 12:27:13 GMT-0400 (Eastern Daylight Time),891523.1999999993,A,butto,I,o,130,1,6116.299999999814,885406.8999999994,9081,WL,A,14.0
7,51.282999992370605,immed,8717.000007629395,Wed May 13 2026 12:27:13 GMT-0400 (Eastern Daylight Time),891639.6999999993,A,button,I,n,109,1,6232.799999999814,885406.8999999994,9081,WL,A,14.0
7,51.632999897003174,immed,8367.000102996826,Wed May 13 2026 12:27:13 GMT-0400 (Eastern Daylight Time),891989.8999999994,A,buttonenter,I,enter,336,1,6583.0,885406.8999999994,9081,WL,A,14.0
7,60.01699995994568,immed,-16.99995994567871,Wed May 13 2026 12:27:13 GMT-0400 (Eastern Daylight Time),900373.7999999998,A,None,I,None,8375,1,8383.700000000186,891990.0999999996,9081,WL,A,15.0
