Number,acc_sum,block,block_c,block_cond,con_img,correct,correct_response,datetime,endtime,jitter,project,response,response_time,row_sel,session_number,start_end,starttime,subject_id,task,task_vers,trial
9,0,prac,1,A,circle.png,0,m,Thu Oct 16 2025 16:18:36 GMT-0500 (Central Daylight Time),58634.20000000007,1500,O,None,1513,8,1,3793.600000000093,54840.59999999998,7205,NTS,C,1
4,1,prac,1,A,circle.png,1,z,Thu Oct 16 2025 16:18:36 GMT-0500 (Central Daylight Time),61949.70000000007,1400,O,z,1124,4,1,3308.5,58641.20000000007,7205,NTS,C,2
7,2,prac,1,A,circle.png,1,m,Thu Oct 16 2025 16:18:36 GMT-0500 (Central Daylight Time),65899.09999999998,1700,O,m,1461,6,1,3941.29999999993,61957.80000000005,7205,NTS,C,3
2,3,prac,1,A,circle.png,1,z,Thu Oct 16 2025 16:18:36 GMT-0500 (Central Daylight Time),69881.09999999998,2000,O,z,1182,2,1,3976.29999999993,65904.80000000005,7205,NTS,C,4
9,4,prac,1,A,circle.png,1,m,Thu Oct 16 2025 16:18:36 GMT-0500 (Central Daylight Time),72896.30000000005,1500,O,m,716,8,1,3007.9000000000233,69888.40000000002,7205,NTS,C,5
8,5,prac,1,A,circle.png,1,m,Thu Oct 16 2025 16:18:36 GMT-0500 (Central Daylight Time),76178.59999999998,1600,O,m,890,7,1,3275.1999999999534,72903.40000000002,7205,NTS,C,6
6,6,prac,1,A,circle.png,1,m,Thu Oct 16 2025 16:18:36 GMT-0500 (Central Daylight Time),80211.20000000007,1900,O,m,1346,5,1,4023.3000000000466,76187.90000000002,7205,NTS,C,7
7,7,prac,1,A,circle.png,1,m,Thu Oct 16 2025 16:18:36 GMT-0500 (Central Daylight Time),83609.5,1700,O,m,904,6,1,3389.6999999999534,80219.80000000005,7205,NTS,C,8
3,8,prac,1,A,circle.png,1,z,Thu Oct 16 2025 16:18:36 GMT-0500 (Central Daylight Time),86360.30000000005,1200,O,z,774,3,1,2743.0999999999767,83617.20000000007,7205,NTS,C,9
2,9,prac,1,A,circle.png,1,z,Thu Oct 16 2025 16:18:36 GMT-0500 (Central Daylight Time),89842.70000000007,2000,O,z,707,2,1,3475.600000000093,86367.09999999998,7205,NTS,C,10
1,10,prac,1,A,circle.png,1,z,Thu Oct 16 2025 16:18:36 GMT-0500 (Central Daylight Time),92574.80000000005,1000,O,z,934,1,1,2724.20000000007,89850.59999999998,7205,NTS,C,11
3,11,prac,1,A,circle.png,1,z,Thu Oct 16 2025 16:18:36 GMT-0500 (Central Daylight Time),95573.20000000007,1200,O,z,1010,3,1,2992.8000000000466,92580.40000000002,7205,NTS,C,12
3,0,prac,1,B,triangle.png,0,z,Thu Oct 16 2025 16:18:36 GMT-0500 (Central Daylight Time),121296.5,1600,O,None,1514,3,1,3875.1999999999534,117421.30000000005,7205,NTS,C,1
4,1,prac,1,B,triangle.png,1,m,Thu Oct 16 2025 16:18:36 GMT-0500 (Central Daylight Time),124582.59999999998,1500,O,m,1001,4,1,3276.79999999993,121305.80000000005,7205,NTS,C,2
2,2,prac,1,B,triangle.png,1,m,Thu Oct 16 2025 16:18:36 GMT-0500 (Central Daylight Time),127895.80000000005,1700,O,m,833,2,1,3306.9000000000233,124588.90000000002,7205,NTS,C,3
4,3,prac,1,B,triangle.png,1,m,Thu Oct 16 2025 16:18:36 GMT-0500 (Central Daylight Time),130844.80000000005,1500,O,m,661,4,1,2943.0999999999767,127901.70000000007,7205,NTS,C,4
7,4,prac,1,B,triangle.png,1,z,Thu Oct 16 2025 16:18:36 GMT-0500 (Central Daylight Time),134760.80000000005,2000,O,z,1140,6,1,3910.0999999999767,130850.70000000007,7205,NTS,C,5
9,5,prac,1,B,triangle.png,1,z,Thu Oct 16 2025 16:18:36 GMT-0500 (Central Daylight Time),137909.20000000007,1400,O,z,951,8,1,3142.20000000007,134767.0,7205,NTS,C,6
8,6,prac,1,B,triangle.png,1,m,Thu Oct 16 2025 16:18:36 GMT-0500 (Central Daylight Time),140774.70000000007,1200,O,m,886,7,1,2857.600000000093,137917.09999999998,7205,NTS,C,7
3,7,prac,1,B,triangle.png,1,z,Thu Oct 16 2025 16:18:36 GMT-0500 (Central Daylight Time),143824.90000000002,1600,O,z,668,3,1,3045.0,140779.90000000002,7205,NTS,C,8
1,8,prac,1,B,triangle.png,1,z,Thu Oct 16 2025 16:18:36 GMT-0500 (Central Daylight Time),147923.59999999998,1900,O,z,1415,1,1,4092.5999999999767,143831.0,7205,NTS,C,9
8,9,prac,1,B,triangle.png,1,m,Thu Oct 16 2025 16:18:36 GMT-0500 (Central Daylight Time),150423.40000000002,1200,O,m,503,7,1,2493.5999999999767,147929.80000000005,7205,NTS,C,10
9,10,prac,1,B,triangle.png,1,z,Thu Oct 16 2025 16:18:36 GMT-0500 (Central Daylight Time),153670.40000000002,1400,O,z,1051,8,1,3239.1999999999534,150431.20000000007,7205,NTS,C,11
6,11,prac,1,B,triangle.png,1,m,Thu Oct 16 2025 16:18:36 GMT-0500 (Central Daylight Time),156253.80000000005,1000,O,m,785,5,1,2575.70000000007,153678.09999999998,7205,NTS,C,12
6,1,test,1,A,circle.png,1,m,Thu Oct 16 2025 16:18:36 GMT-0500 (Central Daylight Time),176464.90000000002,1900,O,m,689,5,1,2611.0,173853.90000000002,7205,NTS,C,1
2,2,test,1,A,circle.png,1,z,Thu Oct 16 2025 16:18:36 GMT-0500 (Central Daylight Time),179312.80000000005,2000,O,z,832,2,1,2842.8000000000466,176470.0,7205,NTS,C,2
9,3,test,1,A,circle.png,1,m,Thu Oct 16 2025 16:18:36 GMT-0500 (Central Daylight Time),181712.20000000007,1500,O,m,867,8,1,2396.20000000007,179316.0,7205,NTS,C,3
3,4,test,1,A,circle.png,1,z,Thu Oct 16 2025 16:18:36 GMT-0500 (Central Daylight Time),183694.80000000005,1200,O,z,752,3,1,1978.5999999999767,181716.20000000007,7205,NTS,C,4
8,5,test,1,A,circle.png,1,m,Thu Oct 16 2025 16:18:36 GMT-0500 (Central Daylight Time),186361.20000000007,1600,O,m,1035,7,1,2662.3000000000466,183698.90000000002,7205,NTS,C,5
2,6,test,1,A,circle.png,1,z,Thu Oct 16 2025 16:18:36 GMT-0500 (Central Daylight Time),189109.30000000005,2000,O,z,729,2,1,2742.9000000000233,186366.40000000002,7205,NTS,C,6
6,7,test,1,A,circle.png,1,m,Thu Oct 16 2025 16:18:36 GMT-0500 (Central Daylight Time),191891.70000000007,1900,O,m,862,5,1,2779.0,189112.70000000007,7205,NTS,C,7
1,8,test,1,A,circle.png,1,z,Thu Oct 16 2025 16:18:36 GMT-0500 (Central Daylight Time),193791.90000000002,1000,O,z,876,1,1,1894.4000000000233,191897.5,7205,NTS,C,8
9,9,test,1,A,circle.png,1,m,Thu Oct 16 2025 16:18:36 GMT-0500 (Central Daylight Time),196041.09999999998,1500,O,m,726,8,1,2242.29999999993,193798.80000000005,7205,NTS,C,9
3,10,test,1,A,circle.png,1,z,Thu Oct 16 2025 16:18:36 GMT-0500 (Central Daylight Time),198072.70000000007,1200,O,z,807,3,1,2026.6000000000931,196046.09999999998,7205,NTS,C,10
6,11,test,1,A,circle.png,1,m,Thu Oct 16 2025 16:18:36 GMT-0500 (Central Daylight Time),200708.0,1900,O,m,716,5,1,2629.29999999993,198078.70000000007,7205,NTS,C,11
1,12,test,1,A,circle.png,1,z,Thu Oct 16 2025 16:18:36 GMT-0500 (Central Daylight Time),202358.20000000007,1000,O,z,632,1,1,1644.7000000000698,200713.5,7205,NTS,C,12
3,13,test,1,A,circle.png,1,z,Thu Oct 16 2025 16:18:36 GMT-0500 (Central Daylight Time),204272.90000000002,1200,O,z,684,3,1,1911.9000000000233,202361.0,7205,NTS,C,13
4,14,test,1,A,circle.png,1,z,Thu Oct 16 2025 16:18:36 GMT-0500 (Central Daylight Time),206920.90000000002,1400,O,z,1225,4,1,2642.5,204278.40000000002,7205,NTS,C,14
2,15,test,1,A,circle.png,1,z,Thu Oct 16 2025 16:18:36 GMT-0500 (Central Daylight Time),209702.80000000005,2000,O,z,752,2,1,2777.0,206925.80000000005,7205,NTS,C,15
7,16,test,1,A,circle.png,1,m,Thu Oct 16 2025 16:18:36 GMT-0500 (Central Daylight Time),212201.09999999998,1700,O,m,773,6,1,2494.899999999907,209706.20000000007,7205,NTS,C,16
9,17,test,1,A,circle.png,1,m,Thu Oct 16 2025 16:18:36 GMT-0500 (Central Daylight Time),214602.5,1500,O,m,865,8,1,2397.0,212205.5,7205,NTS,C,17
4,18,test,1,A,circle.png,1,z,Thu Oct 16 2025 16:18:36 GMT-0500 (Central Daylight Time),216767.09999999998,1400,O,z,733,4,1,2162.0,214605.09999999998,7205,NTS,C,18
7,19,test,1,A,circle.png,1,m,Thu Oct 16 2025 16:18:36 GMT-0500 (Central Daylight Time),219082.5,1700,O,m,590,6,1,2310.5999999999767,216771.90000000002,7205,NTS,C,19
4,20,test,1,A,circle.png,1,z,Thu Oct 16 2025 16:18:36 GMT-0500 (Central Daylight Time),221215.90000000002,1400,O,z,701,4,1,2129.9000000000233,219086.0,7205,NTS,C,20
3,21,test,1,A,circle.png,1,z,Thu Oct 16 2025 16:18:36 GMT-0500 (Central Daylight Time),223298.90000000002,1200,O,z,855,3,1,2079.4000000000233,221219.5,7205,NTS,C,21
7,22,test,1,A,circle.png,1,m,Thu Oct 16 2025 16:18:36 GMT-0500 (Central Daylight Time),225679.80000000005,1700,O,m,650,6,1,2376.20000000007,223303.59999999998,7205,NTS,C,22
8,23,test,1,A,circle.png,1,m,Thu Oct 16 2025 16:18:36 GMT-0500 (Central Daylight Time),228129.30000000005,1600,O,m,823,7,1,2444.8000000000466,225684.5,7205,NTS,C,23
7,24,test,1,A,circle.png,1,m,Thu Oct 16 2025 16:18:36 GMT-0500 (Central Daylight Time),230563.20000000007,1700,O,m,713,6,1,2431.100000000093,228132.09999999998,7205,NTS,C,24
7,0,test,1,B,triangle.png,0,z,Thu Oct 16 2025 16:18:36 GMT-0500 (Central Daylight Time),247924.0,1600,O,m,1300,14,1,2911.5999999999767,245012.40000000002,7205,NTS,C,1
9,0,test,1,B,triangle.png,0,z,Thu Oct 16 2025 16:18:36 GMT-0500 (Central Daylight Time),251340.70000000007,1900,O,None,1501,16,1,3413.20000000007,247927.5,7205,NTS,C,2
1,1,test,1,B,triangle.png,1,z,Thu Oct 16 2025 16:18:36 GMT-0500 (Central Daylight Time),254687.09999999998,1900,O,z,1425,1,1,3343.1999999999534,251343.90000000002,7205,NTS,C,3
8,2,test,1,B,triangle.png,1,m,Thu Oct 16 2025 16:18:36 GMT-0500 (Central Daylight Time),257387.30000000005,1700,O,m,972,15,1,2696.9000000000233,254690.40000000002,7205,NTS,C,4
4,3,test,1,B,triangle.png,1,m,Thu Oct 16 2025 16:18:36 GMT-0500 (Central Daylight Time),260252.5,1500,O,m,1338,4,1,2860.9000000000233,257391.59999999998,7205,NTS,C,5
4,4,test,1,B,triangle.png,1,m,Thu Oct 16 2025 16:18:36 GMT-0500 (Central Daylight Time),262551.6,1000,O,m,1273,12,1,2293.5,260258.09999999998,7205,NTS,C,6
7,5,test,1,B,triangle.png,1,z,Thu Oct 16 2025 16:18:36 GMT-0500 (Central Daylight Time),265204.0,1600,O,z,1034,14,1,2649.4000000000233,262554.6,7205,NTS,C,7
2,5,test,1,B,triangle.png,0,m,Thu Oct 16 2025 16:18:36 GMT-0500 (Central Daylight Time),267101.70000000007,1200,O,z,680,10,1,1892.1000000000931,265209.6,7205,NTS,C,8
1,6,test,1,B,triangle.png,1,z,Thu Oct 16 2025 16:18:36 GMT-0500 (Central Daylight Time),269200.4,1400,O,z,668,9,1,2095.5,267104.9,7205,NTS,C,9
7,6,test,1,B,triangle.png,0,z,Thu Oct 16 2025 16:18:36 GMT-0500 (Central Daylight Time),272733.9,2000,O,None,1516,6,1,3529.5,269204.4,7205,NTS,C,10
3,7,test,1,B,triangle.png,1,z,Thu Oct 16 2025 16:18:36 GMT-0500 (Central Daylight Time),275248.5,1600,O,z,892,3,1,2509.4000000000233,272739.1,7205,NTS,C,11
6,8,test,1,B,triangle.png,1,m,Thu Oct 16 2025 16:18:36 GMT-0500 (Central Daylight Time),277367.0,1500,O,m,597,13,1,2113.1999999999534,275253.80000000005,7205,NTS,C,12
2,9,test,1,B,triangle.png,1,m,Thu Oct 16 2025 16:18:36 GMT-0500 (Central Daylight Time),279847.1,1700,O,m,750,2,1,2475.1999999999534,277371.9,7205,NTS,C,13
3,10,test,1,B,triangle.png,1,z,Thu Oct 16 2025 16:18:36 GMT-0500 (Central Daylight Time),282680.30000000005,2000,O,z,810,11,1,2828.0999999999767,279852.20000000007,7205,NTS,C,14
6,11,test,1,B,triangle.png,1,m,Thu Oct 16 2025 16:18:36 GMT-0500 (Central Daylight Time),284879.9,1500,O,m,669,13,1,2196.0,282683.9,7205,NTS,C,15
8,12,test,1,B,triangle.png,1,m,Thu Oct 16 2025 16:18:36 GMT-0500 (Central Daylight Time),286844.20000000007,1200,O,m,746,7,1,1960.1000000000931,284884.1,7205,NTS,C,16
8,13,test,1,B,triangle.png,1,m,Thu Oct 16 2025 16:18:36 GMT-0500 (Central Daylight Time),289143.5,1700,O,m,569,15,1,2295.4000000000233,286848.1,7205,NTS,C,17
6,14,test,1,B,triangle.png,1,m,Thu Oct 16 2025 16:18:36 GMT-0500 (Central Daylight Time),290761.30000000005,1000,O,m,594,5,1,1615.2000000000698,289146.1,7205,NTS,C,18
3,15,test,1,B,triangle.png,1,z,Thu Oct 16 2025 16:18:36 GMT-0500 (Central Daylight Time),293192.5,1600,O,z,807,3,1,2425.79999999993,290766.70000000007,7205,NTS,C,19
9,16,test,1,B,triangle.png,1,z,Thu Oct 16 2025 16:18:36 GMT-0500 (Central Daylight Time),295726.0,1400,O,z,1105,8,1,2529.1999999999534,293196.80000000005,7205,NTS,C,20
2,17,test,1,B,triangle.png,1,m,Thu Oct 16 2025 16:18:36 GMT-0500 (Central Daylight Time),297691.30000000005,1200,O,m,741,10,1,1960.2000000000698,295731.1,7205,NTS,C,21
6,18,test,1,B,triangle.png,1,m,Thu Oct 16 2025 16:18:36 GMT-0500 (Central Daylight Time),299408.30000000005,1000,O,m,693,5,1,1710.2000000000698,297698.1,7205,NTS,C,22
8,19,test,1,B,triangle.png,1,m,Thu Oct 16 2025 16:18:36 GMT-0500 (Central Daylight Time),301207.1,1200,O,m,578,7,1,1793.3999999999069,299413.70000000007,7205,NTS,C,23
4,20,test,1,B,triangle.png,1,m,Thu Oct 16 2025 16:18:36 GMT-0500 (Central Daylight Time),303307.30000000005,1500,O,m,574,4,1,2093.20000000007,301214.1,7205,NTS,C,24
6,0,prac,1,C,circle.png,0,m,Thu Oct 16 2025 16:18:36 GMT-0500 (Central Daylight Time),361488.5,2000,O,None,1517,5,1,4294.400000000023,357194.1,7205,NTS,C,1
7,1,prac,1,C,triangle.png,1,z,Thu Oct 16 2025 16:18:36 GMT-0500 (Central Daylight Time),364903.4,1200,O,z,1440,6,1,3409.5999999999767,361493.80000000005,7205,NTS,C,2
2,1,prac,1,C,triangle.png,0,m,Thu Oct 16 2025 16:18:36 GMT-0500 (Central Daylight Time),368203.9,1600,O,z,918,2,1,3293.5999999999767,364910.30000000005,7205,NTS,C,3
1,2,prac,1,C,circle.png,1,z,Thu Oct 16 2025 16:18:36 GMT-0500 (Central Daylight Time),372167.80000000005,1700,O,z,1484,1,1,3959.0,368208.80000000005,7205,NTS,C,4
4,3,prac,1,C,circle.png,1,z,Thu Oct 16 2025 16:18:36 GMT-0500 (Central Daylight Time),375050.9,1000,O,z,1111,4,1,2876.5999999999767,372174.30000000005,7205,NTS,C,5
9,4,prac,1,C,circle.png,1,m,Thu Oct 16 2025 16:18:36 GMT-0500 (Central Daylight Time),378367.6,1900,O,m,626,8,1,3311.5,375056.1,7205,NTS,C,6
6,4,prac,1,C,circle.png,0,m,Thu Oct 16 2025 16:18:36 GMT-0500 (Central Daylight Time),382665.70000000007,2000,O,None,1516,5,1,4294.0,378371.70000000007,7205,NTS,C,7
8,5,prac,1,C,triangle.png,1,m,Thu Oct 16 2025 16:18:36 GMT-0500 (Central Daylight Time),386296.9,1400,O,m,1449,7,1,3625.0,382671.9,7205,NTS,C,8
1,6,prac,1,C,circle.png,1,z,Thu Oct 16 2025 16:18:36 GMT-0500 (Central Daylight Time),389563.9,1700,O,z,761,1,1,3263.0,386300.9,7205,NTS,C,9
3,7,prac,1,C,triangle.png,1,z,Thu Oct 16 2025 16:18:36 GMT-0500 (Central Daylight Time),393012.0,1500,O,z,1154,3,1,3441.79999999993,389570.20000000007,7205,NTS,C,10
2,8,prac,1,C,triangle.png,1,m,Thu Oct 16 2025 16:18:36 GMT-0500 (Central Daylight Time),396227.0,1600,O,m,823,2,1,3209.5,393017.5,7205,NTS,C,11
9,9,prac,1,C,circle.png,1,m,Thu Oct 16 2025 16:18:36 GMT-0500 (Central Daylight Time),400242.1,1900,O,m,1315,8,1,4009.1999999999534,396232.9,7205,NTS,C,12
8,1,prac,2,C,triangle.png,1,m,Thu Oct 16 2025 16:18:36 GMT-0500 (Central Daylight Time),408571.9,1400,O,m,994,7,1,3174.6999999999534,405397.20000000007,7205,NTS,C,1
2,1,prac,2,C,triangle.png,0,m,Thu Oct 16 2025 16:18:36 GMT-0500 (Central Daylight Time),411873.70000000007,1600,O,z,900,2,1,3297.8000000000466,408575.9,7205,NTS,C,2
7,1,prac,2,C,triangle.png,0,z,Thu Oct 16 2025 16:18:36 GMT-0500 (Central Daylight Time),415370.30000000005,1200,O,None,1515,6,1,3490.9000000000233,411879.4,7205,NTS,C,3
9,2,prac,2,C,circle.png,1,m,Thu Oct 16 2025 16:18:36 GMT-0500 (Central Daylight Time),419252.5,1900,O,m,1186,8,1,3873.9000000000233,415378.6,7205,NTS,C,4
3,3,prac,2,C,triangle.png,1,z,Thu Oct 16 2025 16:18:36 GMT-0500 (Central Daylight Time),422569.0,1500,O,z,1017,3,1,3309.29999999993,419259.70000000007,7205,NTS,C,5
3,4,prac,2,C,triangle.png,1,z,Thu Oct 16 2025 16:18:36 GMT-0500 (Central Daylight Time),425584.6,1500,O,z,732,3,1,3006.899999999907,422577.70000000007,7205,NTS,C,6
7,5,prac,2,C,triangle.png,1,z,Thu Oct 16 2025 16:18:36 GMT-0500 (Central Daylight Time),428984.9,1200,O,z,1418,6,1,3394.4000000000233,425590.5,7205,NTS,C,7
8,6,prac,2,C,triangle.png,1,m,Thu Oct 16 2025 16:18:36 GMT-0500 (Central Daylight Time),432115.5,1400,O,m,945,7,1,3123.0,428992.5,7205,NTS,C,8
6,7,prac,2,C,circle.png,1,m,Thu Oct 16 2025 16:18:36 GMT-0500 (Central Daylight Time),435547.4,2000,O,m,637,5,1,3423.0999999999767,432124.30000000005,7205,NTS,C,9
1,8,prac,2,C,circle.png,1,z,Thu Oct 16 2025 16:18:36 GMT-0500 (Central Daylight Time),439062.9,1700,O,z,1025,1,1,3503.6999999999534,435559.20000000007,7205,NTS,C,10
6,9,prac,2,C,circle.png,1,m,Thu Oct 16 2025 16:18:36 GMT-0500 (Central Daylight Time),442878.9,2000,O,m,1017,5,1,3808.4000000000233,439070.5,7205,NTS,C,11
4,10,prac,2,C,circle.png,1,z,Thu Oct 16 2025 16:18:36 GMT-0500 (Central Daylight Time),445528.70000000007,1000,O,z,851,4,1,2642.3000000000466,442886.4,7205,NTS,C,12
3,0,prac,3,C,triangle.png,0,z,Thu Oct 16 2025 16:18:36 GMT-0500 (Central Daylight Time),452574.9,1500,O,None,1515,3,1,3794.1999999999534,448780.70000000007,7205,NTS,C,1
1,0,prac,3,C,circle.png,0,z,Thu Oct 16 2025 16:18:36 GMT-0500 (Central Daylight Time),456574.5,1700,O,None,1514,1,1,3991.0,452583.5,7205,NTS,C,2
3,0,prac,3,C,triangle.png,0,z,Thu Oct 16 2025 16:18:36 GMT-0500 (Central Daylight Time),460372.70000000007,1500,O,None,1516,3,1,3793.3000000000466,456579.4,7205,NTS,C,3
8,0,prac,3,C,triangle.png,0,m,Thu Oct 16 2025 16:18:36 GMT-0500 (Central Daylight Time),464071.9,1400,O,None,1515,7,1,3694.0,460377.9,7205,NTS,C,4
1,0,prac,3,C,circle.png,0,z,Thu Oct 16 2025 16:18:36 GMT-0500 (Central Daylight Time),468072.4,1700,O,None,1516,1,1,3995.4000000000233,464077.0,7205,NTS,C,5
2,0,prac,3,C,triangle.png,0,m,Thu Oct 16 2025 16:18:36 GMT-0500 (Central Daylight Time),471953.5,1600,O,None,1502,2,1,3872.1999999999534,468081.30000000005,7205,NTS,C,6
9,0,prac,3,C,circle.png,0,m,Thu Oct 16 2025 16:18:36 GMT-0500 (Central Daylight Time),476151.0,1900,O,None,1517,8,1,4191.599999999977,471959.4,7205,NTS,C,7
6,0,prac,3,C,circle.png,0,m,Thu Oct 16 2025 16:18:36 GMT-0500 (Central Daylight Time),480451.9,2000,O,None,1516,5,1,4295.599999999977,476156.30000000005,7205,NTS,C,8
2,0,prac,3,C,triangle.png,0,m,Thu Oct 16 2025 16:18:36 GMT-0500 (Central Daylight Time),484348.70000000007,1600,O,None,1512,2,1,3891.70000000007,480457.0,7205,NTS,C,9
4,0,prac,3,C,circle.png,0,z,Thu Oct 16 2025 16:18:36 GMT-0500 (Central Daylight Time),487649.20000000007,1000,O,None,1516,4,1,3296.8000000000466,484352.4,7205,NTS,C,10
8,0,prac,3,C,triangle.png,0,m,Thu Oct 16 2025 16:18:36 GMT-0500 (Central Daylight Time),491346.5,1400,O,None,1516,7,1,3691.6999999999534,487654.80000000005,7205,NTS,C,11
7,0,prac,3,C,triangle.png,0,z,Thu Oct 16 2025 16:18:36 GMT-0500 (Central Daylight Time),494847.1,1200,O,None,1516,6,1,3496.1999999999534,491350.9,7205,NTS,C,12
7,0,test,1,C,triangle.png,0,z,Thu Oct 16 2025 16:18:36 GMT-0500 (Central Daylight Time),506758.9,1700,O,None,1516,6,1,3229.0,503529.9,7205,NTS,C,1
8,1,test,1,C,triangle.png,1,m,Thu Oct 16 2025 16:18:36 GMT-0500 (Central Daylight Time),509524.5,1600,O,m,1138,23,1,2759.5999999999767,506764.9,7205,NTS,C,2
6,1,test,1,C,triangle.png,0,m,Thu Oct 16 2025 16:18:36 GMT-0500 (Central Daylight Time),512056.4,1000,O,None,1516,13,1,2529.0999999999767,509527.30000000005,7205,NTS,C,3
4,2,test,1,C,triangle.png,1,m,Thu Oct 16 2025 16:18:36 GMT-0500 (Central Daylight Time),514456.5,1500,O,m,869,20,1,2394.4000000000233,512062.1,7205,NTS,C,4
6,2,test,1,C,circle.png,0,m,Thu Oct 16 2025 16:18:36 GMT-0500 (Central Daylight Time),517888.70000000007,1900,O,None,1514,21,1,3427.9000000000233,514460.80000000005,7205,NTS,C,5
1,3,test,1,C,triangle.png,1,z,Thu Oct 16 2025 16:18:36 GMT-0500 (Central Daylight Time),520802.6,1900,O,z,989,17,1,2910.0,517892.6,7205,NTS,C,6
9,4,test,1,C,circle.png,1,m,Thu Oct 16 2025 16:18:36 GMT-0500 (Central Daylight Time),523553.20000000007,1500,O,m,1218,8,1,2747.3000000000466,520805.9,7205,NTS,C,7
6,5,test,1,C,circle.png,1,m,Thu Oct 16 2025 16:18:36 GMT-0500 (Central Daylight Time),526701.4,1900,O,m,1220,5,1,3143.5999999999767,523557.80000000005,7205,NTS,C,8
3,6,test,1,C,circle.png,1,z,Thu Oct 16 2025 16:18:36 GMT-0500 (Central Daylight Time),529157.5,1600,O,z,827,19,1,2450.6999999999534,526706.8,7205,NTS,C,9
8,7,test,1,C,triangle.png,1,m,Thu Oct 16 2025 16:18:36 GMT-0500 (Central Daylight Time),531650.4,1600,O,m,875,7,1,2490.0,529160.4,7205,NTS,C,10
7,8,test,1,C,triangle.png,1,z,Thu Oct 16 2025 16:18:36 GMT-0500 (Central Daylight Time),534732.7999999999,1700,O,z,1353,22,1,3077.1999999999534,531655.6,7205,NTS,C,11
1,9,test,1,C,triangle.png,1,z,Thu Oct 16 2025 16:18:36 GMT-0500 (Central Daylight Time),537331.2000000001,1900,O,z,671,9,1,2592.8000000000466,534738.4,7205,NTS,C,12
4,10,test,1,C,triangle.png,1,m,Thu Oct 16 2025 16:18:36 GMT-0500 (Central Daylight Time),539899.4,1500,O,m,1040,12,1,2563.5,537335.9,7205,NTS,C,13
2,11,test,1,C,triangle.png,1,m,Thu Oct 16 2025 16:18:36 GMT-0500 (Central Daylight Time),543013.7999999999,2000,O,m,1085,2,1,3108.5,539905.2999999999,7205,NTS,C,14
3,12,test,1,C,circle.png,1,z,Thu Oct 16 2025 16:18:36 GMT-0500 (Central Daylight Time),545495.2999999999,1600,O,z,851,11,1,2476.5999999998603,543018.7000000001,7205,NTS,C,15
1,13,test,1,C,circle.png,1,z,Thu Oct 16 2025 16:18:36 GMT-0500 (Central Daylight Time),547261.2999999999,1000,O,z,744,1,1,1762.5999999998603,545498.7000000001,7205,NTS,C,16
9,14,test,1,C,triangle.png,1,z,Thu Oct 16 2025 16:18:36 GMT-0500 (Central Daylight Time),550077.4,1400,O,z,1393,16,1,2810.899999999907,547266.5000000001,7205,NTS,C,17
4,14,test,1,C,circle.png,0,z,Thu Oct 16 2025 16:18:36 GMT-0500 (Central Daylight Time),552459.6,1400,O,m,954,4,1,2377.1999999999534,550082.4,7205,NTS,C,18
2,14,test,1,C,circle.png,0,z,Thu Oct 16 2025 16:18:36 GMT-0500 (Central Daylight Time),555692.4,1700,O,None,1515,18,1,3228.0,552464.4,7205,NTS,C,19
7,15,test,1,C,circle.png,1,m,Thu Oct 16 2025 16:18:36 GMT-0500 (Central Daylight Time),558591.1,2000,O,m,868,14,1,2893.5,555697.6,7205,NTS,C,20
2,16,test,1,C,circle.png,1,z,Thu Oct 16 2025 16:18:36 GMT-0500 (Central Daylight Time),561092.7999999999,1700,O,z,782,10,1,2496.2999999998137,558596.5000000001,7205,NTS,C,21
8,17,test,1,C,circle.png,1,m,Thu Oct 16 2025 16:18:36 GMT-0500 (Central Daylight Time),563073.6,1200,O,m,765,15,1,1977.6999999999534,561095.9,7205,NTS,C,22
9,18,test,1,C,circle.png,1,m,Thu Oct 16 2025 16:18:36 GMT-0500 (Central Daylight Time),565389.0000000001,1500,O,m,787,24,1,2311.4000000001397,563077.6,7205,NTS,C,23
3,19,test,1,C,triangle.png,1,z,Thu Oct 16 2025 16:18:36 GMT-0500 (Central Daylight Time),567421.7999999999,1200,O,z,803,3,1,2030.5,565391.2999999999,7205,NTS,C,24
6,0,test,2,C,triangle.png,0,m,Thu Oct 16 2025 16:18:36 GMT-0500 (Central Daylight Time),573420.5000000001,1000,O,None,1515,21,1,2528.4000000001397,570892.1,7205,NTS,C,1
3,1,test,2,C,triangle.png,1,z,Thu Oct 16 2025 16:18:36 GMT-0500 (Central Daylight Time),575319.1,1200,O,z,677,3,1,1893.8999999999069,573425.2000000001,7205,NTS,C,2
4,2,test,2,C,triangle.png,1,m,Thu Oct 16 2025 16:18:36 GMT-0500 (Central Daylight Time),577786.9,1500,O,m,933,12,1,2461.5,575325.4,7205,NTS,C,3
4,3,test,2,C,circle.png,1,z,Thu Oct 16 2025 16:18:36 GMT-0500 (Central Daylight Time),580369.1,1400,O,z,1166,4,1,2578.5,577790.6,7205,NTS,C,4
9,4,test,2,C,circle.png,1,m,Thu Oct 16 2025 16:18:36 GMT-0500 (Central Daylight Time),582534.7999999999,1500,O,m,637,8,1,2162.899999999907,580371.9,7205,NTS,C,5
3,5,test,2,C,circle.png,1,z,Thu Oct 16 2025 16:18:36 GMT-0500 (Central Daylight Time),584901.5000000001,1600,O,z,750,19,1,2361.8000000000466,582539.7000000001,7205,NTS,C,6
8,6,test,2,C,circle.png,1,m,Thu Oct 16 2025 16:18:36 GMT-0500 (Central Daylight Time),586965.7000000001,1200,O,m,838,15,1,2060.0,584905.7000000001,7205,NTS,C,7
1,7,test,2,C,circle.png,1,z,Thu Oct 16 2025 16:18:36 GMT-0500 (Central Daylight Time),588732.2999999999,1000,O,z,738,1,1,1759.6999999999534,586972.6,7205,NTS,C,8
4,7,test,2,C,triangle.png,0,m,Thu Oct 16 2025 16:18:36 GMT-0500 (Central Daylight Time),591764.2999999999,1500,O,None,1515,20,1,3026.399999999907,588737.9,7205,NTS,C,9
1,8,test,2,C,triangle.png,1,z,Thu Oct 16 2025 16:18:36 GMT-0500 (Central Daylight Time),594314.0000000001,1900,O,z,632,17,1,2545.7000000001863,591768.2999999999,7205,NTS,C,10
9,8,test,2,C,triangle.png,0,z,Thu Oct 16 2025 16:18:36 GMT-0500 (Central Daylight Time),597062.2000000001,1400,O,m,1326,24,1,2744.3000000000466,594317.9,7205,NTS,C,11
3,9,test,2,C,circle.png,1,z,Thu Oct 16 2025 16:18:36 GMT-0500 (Central Daylight Time),599989.2999999999,1600,O,z,1297,11,1,2923.7999999998137,597065.5000000001,7205,NTS,C,12
2,9,test,2,C,triangle.png,0,m,Thu Oct 16 2025 16:18:36 GMT-0500 (Central Daylight Time),603512.0000000001,2000,O,None,1517,2,1,3519.100000000093,599992.9,7205,NTS,C,13
9,9,test,2,C,triangle.png,0,z,Thu Oct 16 2025 16:18:36 GMT-0500 (Central Daylight Time),606427.7000000001,1400,O,None,1501,16,1,2912.6999999999534,603515.0000000001,7205,NTS,C,14
8,10,test,2,C,triangle.png,1,m,Thu Oct 16 2025 16:18:36 GMT-0500 (Central Daylight Time),608960.2000000001,1600,O,m,902,7,1,2528.8000000000466,606431.4,7205,NTS,C,15
6,10,test,2,C,circle.png,0,m,Thu Oct 16 2025 16:18:36 GMT-0500 (Central Daylight Time),612224.5000000001,1900,O,z,1335,5,1,3260.5,608964.0000000001,7205,NTS,C,16
2,10,test,2,C,circle.png,0,z,Thu Oct 16 2025 16:18:36 GMT-0500 (Central Daylight Time),615458.4,1700,O,None,1517,10,1,3229.8000000000466,612228.6,7205,NTS,C,17
7,11,test,2,C,circle.png,1,m,Thu Oct 16 2025 16:18:36 GMT-0500 (Central Daylight Time),618672.9,2000,O,m,1192,22,1,3209.399999999907,615463.5000000001,7205,NTS,C,18
2,12,test,2,C,circle.png,1,z,Thu Oct 16 2025 16:18:36 GMT-0500 (Central Daylight Time),621105.0000000001,1700,O,z,709,18,1,2429.0,618676.0000000001,7205,NTS,C,19
6,13,test,2,C,triangle.png,1,m,Thu Oct 16 2025 16:18:36 GMT-0500 (Central Daylight Time),623425.7000000001,1000,O,m,1298,13,1,2316.5,621109.2000000001,7205,NTS,C,20
7,14,test,2,C,triangle.png,1,z,Thu Oct 16 2025 16:18:36 GMT-0500 (Central Daylight Time),625919.4,1700,O,z,768,6,1,2490.6999999999534,623428.7000000001,7205,NTS,C,21
1,15,test,2,C,triangle.png,1,z,Thu Oct 16 2025 16:18:36 GMT-0500 (Central Daylight Time),628887.2999999999,1900,O,z,1035,9,1,2964.899999999907,625922.4,7205,NTS,C,22
8,16,test,2,C,circle.png,1,m,Thu Oct 16 2025 16:18:36 GMT-0500 (Central Daylight Time),631102.0000000001,1200,O,m,986,23,1,2210.8000000000466,628891.2000000001,7205,NTS,C,23
7,17,test,2,C,circle.png,1,m,Thu Oct 16 2025 16:18:36 GMT-0500 (Central Daylight Time),634133.4,2000,O,m,1009,14,1,3026.8000000000466,631106.6,7205,NTS,C,24
6,1,test,3,C,circle.png,1,m,Thu Oct 16 2025 16:18:36 GMT-0500 (Central Daylight Time),639915.2000000001,1900,O,m,1373,5,1,3290.0,636625.2000000001,7205,NTS,C,1
4,2,test,3,C,circle.png,1,z,Thu Oct 16 2025 16:18:36 GMT-0500 (Central Daylight Time),642132.0000000001,1400,O,z,790,4,1,2213.100000000093,639918.9,7205,NTS,C,2
3,2,test,3,C,triangle.png,0,z,Thu Oct 16 2025 16:18:36 GMT-0500 (Central Daylight Time),644865.2999999999,1200,O,None,1514,3,1,2730.5999999998603,642134.7000000001,7205,NTS,C,3
9,3,test,3,C,circle.png,1,m,Thu Oct 16 2025 16:18:36 GMT-0500 (Central Daylight Time),647102.1,1500,O,m,708,8,1,2232.0999999998603,644870.0000000001,7205,NTS,C,4
7,4,test,3,C,triangle.png,1,z,Thu Oct 16 2025 16:18:36 GMT-0500 (Central Daylight Time),650095.7999999999,1700,O,z,1277,6,1,2989.7999999998137,647106.0000000001,7205,NTS,C,5
1,5,test,3,C,circle.png,1,z,Thu Oct 16 2025 16:18:36 GMT-0500 (Central Daylight Time),652345.7000000001,1000,O,z,1233,1,1,2245.600000000093,650100.1,7205,NTS,C,6
4,5,test,3,C,circle.png,0,z,Thu Oct 16 2025 16:18:36 GMT-0500 (Central Daylight Time),655278.0000000001,1400,O,None,1516,20,1,2929.0,652349.0000000001,7205,NTS,C,7
7,6,test,3,C,triangle.png,1,z,Thu Oct 16 2025 16:18:36 GMT-0500 (Central Daylight Time),658459.7999999999,1700,O,z,1466,22,1,3174.6999999999534,655285.1,7205,NTS,C,8
6,7,test,3,C,circle.png,1,m,Thu Oct 16 2025 16:18:36 GMT-0500 (Central Daylight Time),661625.7999999999,1900,O,m,1249,21,1,3158.7999999998137,658467.0000000001,7205,NTS,C,9
4,7,test,3,C,triangle.png,0,m,Thu Oct 16 2025 16:18:36 GMT-0500 (Central Daylight Time),664174.6,1500,O,z,1019,12,1,2544.5,661630.1,7205,NTS,C,10
2,7,test,3,C,circle.png,0,z,Thu Oct 16 2025 16:18:36 GMT-0500 (Central Daylight Time),667406.7000000001,1700,O,None,1516,10,1,3226.4000000001397,664180.2999999999,7205,NTS,C,11
6,8,test,3,C,triangle.png,1,m,Thu Oct 16 2025 16:18:36 GMT-0500 (Central Daylight Time),669739.5000000001,1000,O,m,1313,13,1,2324.4000000001397,667415.1,7205,NTS,C,12
9,9,test,3,C,triangle.png,1,z,Thu Oct 16 2025 16:18:36 GMT-0500 (Central Daylight Time),672171.7999999999,1400,O,z,1013,16,1,2425.7999999998137,669746.0000000001,7205,NTS,C,13
8,9,test,3,C,triangle.png,0,m,Thu Oct 16 2025 16:18:36 GMT-0500 (Central Daylight Time),675304.1,1600,O,None,1515,7,1,3125.0999999998603,672179.0000000001,7205,NTS,C,14
3,10,test,3,C,triangle.png,1,z,Thu Oct 16 2025 16:18:36 GMT-0500 (Central Daylight Time),677520.7000000001,1200,O,z,992,19,1,2209.4000000001397,675311.2999999999,7205,NTS,C,15
1,11,test,3,C,circle.png,1,z,Thu Oct 16 2025 16:18:36 GMT-0500 (Central Daylight Time),679469.4,1000,O,z,920,17,1,1941.1000000000931,677528.2999999999,7205,NTS,C,16
7,12,test,3,C,circle.png,1,m,Thu Oct 16 2025 16:18:36 GMT-0500 (Central Daylight Time),682452.0000000001,2000,O,m,964,14,1,2976.9000000001397,679475.1,7205,NTS,C,17
8,13,test,3,C,triangle.png,1,m,Thu Oct 16 2025 16:18:36 GMT-0500 (Central Daylight Time),685301.7999999999,1600,O,m,1220,23,1,2843.5,682458.2999999999,7205,NTS,C,18
1,14,test,3,C,triangle.png,1,z,Thu Oct 16 2025 16:18:36 GMT-0500 (Central Daylight Time),688167.4,1900,O,z,935,9,1,2861.1999999999534,685306.2000000001,7205,NTS,C,19
2,14,test,3,C,triangle.png,0,m,Thu Oct 16 2025 16:18:36 GMT-0500 (Central Daylight Time),691699.7000000001,2000,O,None,1516,18,1,3525.600000000093,688174.1,7205,NTS,C,20
3,15,test,3,C,circle.png,1,z,Thu Oct 16 2025 16:18:36 GMT-0500 (Central Daylight Time),694631.5000000001,1600,O,z,1301,11,1,2925.9000000001397,691705.6,7205,NTS,C,21
9,16,test,3,C,circle.png,1,m,Thu Oct 16 2025 16:18:36 GMT-0500 (Central Daylight Time),697397.2999999999,1500,O,m,1245,24,1,2761.2999999998137,694636.0000000001,7205,NTS,C,22
2,17,test,3,C,triangle.png,1,m,Thu Oct 16 2025 16:18:36 GMT-0500 (Central Daylight Time),700746.5000000001,2000,O,m,1316,2,1,3346.8000000000466,697399.7000000001,7205,NTS,C,23
8,18,test,3,C,circle.png,1,m,Thu Oct 16 2025 16:18:36 GMT-0500 (Central Daylight Time),703096.6,1200,O,m,1118,15,1,2345.5,700751.1,7205,NTS,C,24
3,0,test,4,C,triangle.png,0,z,Thu Oct 16 2025 16:18:36 GMT-0500 (Central Daylight Time),707361.5000000001,1200,O,m,1415,19,1,2642.4000000001397,704719.1,7205,NTS,C,1
3,0,test,4,C,triangle.png,0,z,Thu Oct 16 2025 16:18:36 GMT-0500 (Central Daylight Time),709276.9,1200,O,m,687,3,1,1909.5,707367.4,7205,NTS,C,2
8,1,test,4,C,triangle.png,1,m,Thu Oct 16 2025 16:18:36 GMT-0500 (Central Daylight Time),712359.2000000001,1600,O,m,1461,23,1,3079.8000000000466,709279.4,7205,NTS,C,3
2,1,test,4,C,triangle.png,0,m,Thu Oct 16 2025 16:18:36 GMT-0500 (Central Daylight Time),715891.6,2000,O,None,1516,2,1,3529.0,712362.6,7205,NTS,C,4
9,1,test,4,C,circle.png,0,m,Thu Oct 16 2025 16:18:36 GMT-0500 (Central Daylight Time),718806.7999999999,1500,O,z,1385,8,1,2912.0999999998603,715894.7000000001,7205,NTS,C,5
2,1,test,4,C,triangle.png,0,m,Thu Oct 16 2025 16:18:36 GMT-0500 (Central Daylight Time),722340.1,2000,O,None,1516,18,1,3529.5,718810.6,7205,NTS,C,6
6,2,test,4,C,circle.png,1,m,Thu Oct 16 2025 16:18:36 GMT-0500 (Central Daylight Time),725671.2999999999,1900,O,m,1401,21,1,3324.899999999907,722346.4,7205,NTS,C,7
1,3,test,4,C,circle.png,1,z,Thu Oct 16 2025 16:18:36 GMT-0500 (Central Daylight Time),727907.5000000001,1000,O,z,1210,17,1,2232.7000000001863,725674.7999999999,7205,NTS,C,8
4,4,test,4,C,circle.png,1,z,Thu Oct 16 2025 16:18:36 GMT-0500 (Central Daylight Time),730603.1,1400,O,z,1281,20,1,2692.8000000000466,727910.2999999999,7205,NTS,C,9
8,5,test,4,C,circle.png,1,m,Thu Oct 16 2025 16:18:36 GMT-0500 (Central Daylight Time),732786.9,1200,O,m,958,15,1,2179.6999999999534,730607.2000000001,7205,NTS,C,10
6,6,test,4,C,triangle.png,1,m,Thu Oct 16 2025 16:18:36 GMT-0500 (Central Daylight Time),735035.2000000001,1000,O,m,1231,13,1,2244.600000000093,732790.6,7205,NTS,C,11
6,7,test,4,C,circle.png,1,m,Thu Oct 16 2025 16:18:36 GMT-0500 (Central Daylight Time),738201.4,1900,O,m,1242,5,1,3160.5,735040.9,7205,NTS,C,12
9,7,test,4,C,triangle.png,0,z,Thu Oct 16 2025 16:18:36 GMT-0500 (Central Daylight Time),741133.4,1400,O,None,1515,16,1,2928.0,738205.4,7205,NTS,C,13
3,8,test,4,C,circle.png,1,z,Thu Oct 16 2025 16:18:36 GMT-0500 (Central Daylight Time),744048.6,1600,O,z,1291,11,1,2911.0,741137.6,7205,NTS,C,14
8,8,test,4,C,triangle.png,0,m,Thu Oct 16 2025 16:18:36 GMT-0500 (Central Daylight Time),746899.2000000001,1600,O,z,1226,7,1,2848.100000000093,744051.1,7205,NTS,C,15
7,8,test,4,C,triangle.png,0,z,Thu Oct 16 2025 16:18:36 GMT-0500 (Central Daylight Time),749763.7000000001,1700,O,m,1133,22,1,2860.4000000001397,746903.2999999999,7205,NTS,C,16
2,9,test,4,C,circle.png,1,z,Thu Oct 16 2025 16:18:36 GMT-0500 (Central Daylight Time),752712.6,1700,O,z,1217,10,1,2944.899999999907,749767.7000000001,7205,NTS,C,17
4,9,test,4,C,circle.png,0,z,Thu Oct 16 2025 16:18:36 GMT-0500 (Central Daylight Time),755646.5000000001,1400,O,None,1516,4,1,2929.7000000001863,752716.7999999999,7205,NTS,C,18
1,10,test,4,C,circle.png,1,z,Thu Oct 16 2025 16:18:36 GMT-0500 (Central Daylight Time),757427.9,1000,O,z,750,1,1,1777.8000000000466,755650.1,7205,NTS,C,19
7,11,test,4,C,triangle.png,1,z,Thu Oct 16 2025 16:18:36 GMT-0500 (Central Daylight Time),760462.1,1700,O,z,1316,6,1,3029.899999999907,757432.2000000001,7205,NTS,C,20
7,12,test,4,C,circle.png,1,m,Thu Oct 16 2025 16:18:36 GMT-0500 (Central Daylight Time),763743.2999999999,2000,O,m,1260,14,1,3277.5,760465.7999999999,7205,NTS,C,21
4,12,test,4,C,triangle.png,0,m,Thu Oct 16 2025 16:18:36 GMT-0500 (Central Daylight Time),766493.2000000001,1500,O,z,1224,12,1,2746.3000000000466,763746.9,7205,NTS,C,22
1,12,test,4,C,triangle.png,0,z,Thu Oct 16 2025 16:18:36 GMT-0500 (Central Daylight Time),769924.7999999999,1900,O,None,1516,9,1,3427.5,766497.2999999999,7205,NTS,C,23
9,13,test,4,C,circle.png,1,m,Thu Oct 16 2025 16:18:36 GMT-0500 (Central Daylight Time),772490.7000000001,1500,O,m,1041,24,1,2562.1999999999534,769928.5000000001,7205,NTS,C,24
