acc_sum,block,block_c,change,condition,correct,correct_response,datetime,endtime,face,project,response,response_time,row_sel,session_number,start_end,starttime,subject_id,task,task_vers,trial
0,prac,1,,1-Back,,,Thu Jan 15 2026 08:50:05 GMT-0600 (Central Standard Time),,050_m_f_n_a.png,O,space,8791,1,1,,,7743,NNB,A,0
0,prac,1,0.0,1-Back,0.0,m,Thu Jan 15 2026 08:50:05 GMT-0600 (Central Standard Time),114886.0,063_y_f_n_a.png,O,z,982,2,1,1781.2000000476837,113104.79999995232,7743,NNB,A,1
0,prac,1,1.0,1-Back,0.0,z,Thu Jan 15 2026 08:50:05 GMT-0600 (Central Standard Time),117669.0,063_y_f_n_a.png,O,None,2004,3,1,2768.9000000953674,114900.09999990463,7743,NNB,A,2
1,prac,1,0.0,1-Back,1.0,m,Thu Jan 15 2026 08:50:05 GMT-0600 (Central Standard Time),119666.79999995232,053_o_m_n_a.png,O,m,1200,4,1,1988.2999999523163,117678.5,7743,NNB,A,3
2,prac,1,0.0,1-Back,1.0,m,Thu Jan 15 2026 08:50:05 GMT-0600 (Central Standard Time),121283.79999995232,058_m_m_n_a.png,O,m,831,5,1,1605.7999999523163,119678.0,7743,NNB,A,4
3,prac,1,1.0,1-Back,1.0,z,Thu Jan 15 2026 08:50:05 GMT-0600 (Central Standard Time),122817.79999995232,058_m_m_n_a.png,O,z,744,6,1,1520.0,121297.79999995232,7743,NNB,A,5
4,prac,1,0.0,1-Back,1.0,m,Thu Jan 15 2026 08:50:05 GMT-0600 (Central Standard Time),124599.70000004768,047_o_f_n_a.png,O,m,1004,7,1,1769.9000000953674,122829.79999995232,7743,NNB,A,6
4,prac,1,0.0,1-Back,0.0,m,Thu Jan 15 2026 08:50:05 GMT-0600 (Central Standard Time),126282.70000004768,045_m_m_n_a.png,O,z,896,8,1,1672.7000000476837,124610.0,7743,NNB,A,7
5,prac,1,0.0,1-Back,1.0,m,Thu Jan 15 2026 08:50:05 GMT-0600 (Central Standard Time),128315.90000009537,050_m_f_n_a.png,O,m,1250,9,1,2020.2000000476837,126295.70000004768,7743,NNB,A,8
6,prac,1,1.0,1-Back,1.0,z,Thu Jan 15 2026 08:50:05 GMT-0600 (Central Standard Time),130064.79999995232,050_m_f_n_a.png,O,z,953,10,1,1735.8999998569489,128328.90000009537,7743,NNB,A,9
7,prac,1,0.0,1-Back,1.0,m,Thu Jan 15 2026 08:50:05 GMT-0600 (Central Standard Time),131748.29999995232,053_o_m_n_a.png,O,m,902,11,1,1672.5999999046326,130075.70000004768,7743,NNB,A,10
7,prac,1,0.0,1-Back,0.0,m,Thu Jan 15 2026 08:50:05 GMT-0600 (Central Standard Time),133348.79999995232,010_y_f_n_a.png,O,z,781,12,1,1589.5999999046326,131759.20000004768,7743,NNB,A,11
0,prac,2,0.0,1-Back,,,Thu Jan 15 2026 08:50:05 GMT-0600 (Central Standard Time),133348.79999995232,050_m_f_n_a.png,O,a,2527,1,1,1589.5999999046326,131759.20000004768,7743,NNB,A,0
1,prac,2,0.0,1-Back,1.0,m,Thu Jan 15 2026 08:50:05 GMT-0600 (Central Standard Time),140745.29999995232,063_y_f_n_a.png,O,m,1029,2,1,1804.7000000476837,138940.59999990463,7743,NNB,A,1
2,prac,2,1.0,1-Back,1.0,z,Thu Jan 15 2026 08:50:05 GMT-0600 (Central Standard Time),142594.90000009537,063_y_f_n_a.png,O,z,1055,3,1,1838.4000000953674,140756.5,7743,NNB,A,2
3,prac,2,0.0,1-Back,1.0,m,Thu Jan 15 2026 08:50:05 GMT-0600 (Central Standard Time),144510.79999995232,053_o_m_n_a.png,O,m,1121,4,1,1904.0999999046326,142606.70000004768,7743,NNB,A,3
4,prac,2,0.0,1-Back,1.0,m,Thu Jan 15 2026 08:50:05 GMT-0600 (Central Standard Time),146360.09999990463,058_m_m_n_a.png,O,m,1054,5,1,1837.5,144522.59999990463,7743,NNB,A,4
5,prac,2,1.0,1-Back,1.0,z,Thu Jan 15 2026 08:50:05 GMT-0600 (Central Standard Time),147925.79999995232,058_m_m_n_a.png,O,z,783,6,1,1555.0999999046326,146370.70000004768,7743,NNB,A,5
6,prac,2,0.0,1-Back,1.0,m,Thu Jan 15 2026 08:50:05 GMT-0600 (Central Standard Time),149676.40000009537,047_o_f_n_a.png,O,m,970,7,1,1740.7000000476837,147935.70000004768,7743,NNB,A,6
6,prac,2,0.0,1-Back,0.0,m,Thu Jan 15 2026 08:50:05 GMT-0600 (Central Standard Time),151242.79999995232,045_m_m_n_a.png,O,z,793,8,1,1554.3999998569489,149688.40000009537,7743,NNB,A,7
6,prac,2,0.0,1-Back,0.0,m,Thu Jan 15 2026 08:50:05 GMT-0600 (Central Standard Time),154025.0,050_m_f_n_a.png,O,None,2005,9,1,2772.0999999046326,151252.90000009537,7743,NNB,A,8
6,prac,2,1.0,1-Back,0.0,z,Thu Jan 15 2026 08:50:05 GMT-0600 (Central Standard Time),156691.09999990463,050_m_f_n_a.png,O,m,1894,10,1,2655.2999999523163,154035.79999995232,7743,NNB,A,9
7,prac,2,0.0,1-Back,1.0,m,Thu Jan 15 2026 08:50:05 GMT-0600 (Central Standard Time),158556.40000009537,053_o_m_n_a.png,O,m,1086,11,1,1856.1000001430511,156700.29999995232,7743,NNB,A,10
8,prac,2,0.0,1-Back,1.0,m,Thu Jan 15 2026 08:50:05 GMT-0600 (Central Standard Time),160672.90000009537,010_y_f_n_a.png,O,m,1324,12,1,2107.100000143051,158565.79999995232,7743,NNB,A,11
0,prac,3,0.0,1-Back,,,Thu Jan 15 2026 08:50:05 GMT-0600 (Central Standard Time),160672.90000009537,050_m_f_n_a.png,O,a,2260,1,1,2107.100000143051,158565.79999995232,7743,NNB,A,0
1,prac,3,0.0,1-Back,1.0,m,Thu Jan 15 2026 08:50:05 GMT-0600 (Central Standard Time),167571.0,063_y_f_n_a.png,O,m,812,2,1,1590.7000000476837,165980.29999995232,7743,NNB,A,1
2,prac,3,1.0,1-Back,1.0,z,Thu Jan 15 2026 08:50:05 GMT-0600 (Central Standard Time),169751.90000009537,063_y_f_n_a.png,O,z,1404,3,1,2171.0,167580.90000009537,7743,NNB,A,2
3,prac,3,0.0,1-Back,1.0,m,Thu Jan 15 2026 08:50:05 GMT-0600 (Central Standard Time),171418.40000009537,053_o_m_n_a.png,O,m,887,4,1,1655.8000001907349,169762.59999990463,7743,NNB,A,3
4,prac,3,0.0,1-Back,1.0,m,Thu Jan 15 2026 08:50:05 GMT-0600 (Central Standard Time),173100.29999995232,058_m_m_n_a.png,O,m,902,5,1,1672.0999999046326,171428.20000004768,7743,NNB,A,4
5,prac,3,1.0,1-Back,1.0,z,Thu Jan 15 2026 08:50:05 GMT-0600 (Central Standard Time),174566.79999995232,058_m_m_n_a.png,O,z,674,6,1,1456.2999999523163,173110.5,7743,NNB,A,5
6,prac,3,0.0,1-Back,1.0,m,Thu Jan 15 2026 08:50:05 GMT-0600 (Central Standard Time),176218.5,047_o_f_n_a.png,O,m,886,7,1,1639.5999999046326,174578.90000009537,7743,NNB,A,6
7,prac,3,0.0,1-Back,1.0,m,Thu Jan 15 2026 08:50:05 GMT-0600 (Central Standard Time),177966.90000009537,045_m_m_n_a.png,O,m,963,8,1,1737.6000001430511,176229.29999995232,7743,NNB,A,7
8,prac,3,0.0,1-Back,1.0,m,Thu Jan 15 2026 08:50:05 GMT-0600 (Central Standard Time),179998.0,050_m_f_n_a.png,O,m,1255,9,1,2019.4000000953674,177978.59999990463,7743,NNB,A,8
9,prac,3,1.0,1-Back,1.0,z,Thu Jan 15 2026 08:50:05 GMT-0600 (Central Standard Time),181499.70000004768,050_m_f_n_a.png,O,z,713,10,1,1491.0,180008.70000004768,7743,NNB,A,9
10,prac,3,0.0,1-Back,1.0,m,Thu Jan 15 2026 08:50:05 GMT-0600 (Central Standard Time),183113.29999995232,053_o_m_n_a.png,O,m,836,11,1,1603.3999998569489,181509.90000009537,7743,NNB,A,10
10,prac,3,0.0,1-Back,0.0,m,Thu Jan 15 2026 08:50:05 GMT-0600 (Central Standard Time),184715.79999995232,010_y_f_n_a.png,O,z,824,12,1,1593.0,183122.79999995232,7743,NNB,A,11
0,test,1,0.0,1-Back,,,Thu Jan 15 2026 08:50:05 GMT-0600 (Central Standard Time),184715.79999995232,063_y_f_n_a.png,O,space,4244,1,1,1593.0,183122.79999995232,7743,NNB,A,0
1,test,1,0.0,1-Back,1.0,m,Thu Jan 15 2026 08:50:05 GMT-0600 (Central Standard Time),200592.20000004768,043_m_f_n_a.png,O,m,835,2,1,1855.2999999523163,198736.90000009537,7743,NNB,A,1
2,test,1,0.0,1-Back,1.0,m,Thu Jan 15 2026 08:50:05 GMT-0600 (Central Standard Time),202243.20000004768,010_y_f_n_a.png,O,m,615,3,1,1642.0,200601.20000004768,7743,NNB,A,2
3,test,1,1.0,1-Back,1.0,z,Thu Jan 15 2026 08:50:05 GMT-0600 (Central Standard Time),203875.20000004768,010_y_f_n_a.png,O,z,605,4,1,1622.4000000953674,202252.79999995232,7743,NNB,A,3
4,test,1,0.0,1-Back,1.0,m,Thu Jan 15 2026 08:50:05 GMT-0600 (Central Standard Time),205690.40000009537,043_m_f_n_a.png,O,m,789,5,1,1805.0,203885.40000009537,7743,NNB,A,4
5,test,1,0.0,1-Back,1.0,m,Thu Jan 15 2026 08:50:05 GMT-0600 (Central Standard Time),207440.20000004768,053_o_m_n_a.png,O,m,724,6,1,1739.2999999523163,205700.90000009537,7743,NNB,A,5
6,test,1,1.0,1-Back,1.0,z,Thu Jan 15 2026 08:50:05 GMT-0600 (Central Standard Time),209172.70000004768,053_o_m_n_a.png,O,z,705,7,1,1722.2000000476837,207450.5,7743,NNB,A,6
7,test,1,0.0,1-Back,1.0,m,Thu Jan 15 2026 08:50:05 GMT-0600 (Central Standard Time),210822.09999990463,058_m_m_n_a.png,O,m,629,8,1,1639.7999999523163,209182.29999995232,7743,NNB,A,7
7,test,1,0.0,1-Back,0.0,m,Thu Jan 15 2026 08:50:05 GMT-0600 (Central Standard Time),212522.59999990463,047_o_f_n_a.png,O,z,683,9,1,1693.0,210829.59999990463,7743,NNB,A,8
8,test,1,0.0,1-Back,1.0,m,Thu Jan 15 2026 08:50:05 GMT-0600 (Central Standard Time),214620.40000009537,058_m_m_n_a.png,O,m,1079,10,1,2089.600000143051,212530.79999995232,7743,NNB,A,9
9,test,1,0.0,1-Back,1.0,m,Thu Jan 15 2026 08:50:05 GMT-0600 (Central Standard Time),216604.29999995232,041_y_m_n_a.png,O,m,958,11,1,1974.0,214630.29999995232,7743,NNB,A,10
10,test,1,1.0,1-Back,1.0,z,Thu Jan 15 2026 08:50:05 GMT-0600 (Central Standard Time),218203.5,041_y_m_n_a.png,O,z,574,12,1,1589.2999999523163,216614.20000004768,7743,NNB,A,11
11,test,1,0.0,1-Back,1.0,m,Thu Jan 15 2026 08:50:05 GMT-0600 (Central Standard Time),219936.40000009537,044_o_f_n_a.png,O,m,701,13,1,1725.5,218210.90000009537,7743,NNB,A,12
12,test,1,1.0,1-Back,1.0,z,Thu Jan 15 2026 08:50:05 GMT-0600 (Central Standard Time),221886.5,044_o_f_n_a.png,O,z,929,14,1,1940.5,219946.0,7743,NNB,A,13
13,test,1,0.0,1-Back,1.0,m,Thu Jan 15 2026 08:50:05 GMT-0600 (Central Standard Time),223767.29999995232,008_y_m_n_a.png,O,m,849,15,1,1873.3999998569489,221893.90000009537,7743,NNB,A,14
13,test,1,0.0,1-Back,0.0,m,Thu Jan 15 2026 08:50:05 GMT-0600 (Central Standard Time),225568.0,050_m_f_n_a.png,O,z,776,16,1,1795.2000000476837,223772.79999995232,7743,NNB,A,15
14,test,1,0.0,1-Back,1.0,m,Thu Jan 15 2026 08:50:05 GMT-0600 (Central Standard Time),227900.09999990463,046_o_m_n_a.png,O,m,1306,17,1,2321.7999999523163,225578.29999995232,7743,NNB,A,16
15,test,1,0.0,1-Back,1.0,m,Thu Jan 15 2026 08:50:05 GMT-0600 (Central Standard Time),229649.59999990463,050_m_f_n_a.png,O,m,725,18,1,1739.0,227910.59999990463,7743,NNB,A,17
0,test,2,0.0,1-Back,,,Thu Jan 15 2026 08:50:05 GMT-0600 (Central Standard Time),229649.59999990463,058_m_m_n_a.png,O,space,3431,1,1,1739.0,227910.59999990463,7743,NNB,A,0
1,test,2,0.0,1-Back,1.0,m,Thu Jan 15 2026 08:50:05 GMT-0600 (Central Standard Time),236882.29999995232,043_m_f_n_a.png,O,m,745,2,1,1756.8999998569489,235125.40000009537,7743,NNB,A,1
2,test,2,1.0,1-Back,1.0,z,Thu Jan 15 2026 08:50:05 GMT-0600 (Central Standard Time),238696.20000004768,043_m_f_n_a.png,O,z,792,3,1,1802.2999999523163,236893.90000009537,7743,NNB,A,2
3,test,2,0.0,1-Back,1.0,m,Thu Jan 15 2026 08:50:05 GMT-0600 (Central Standard Time),240564.70000004768,058_m_m_n_a.png,O,m,849,4,1,1857.7999999523163,238706.90000009537,7743,NNB,A,3
4,test,2,0.0,1-Back,1.0,m,Thu Jan 15 2026 08:50:05 GMT-0600 (Central Standard Time),242295.09999990463,041_y_m_n_a.png,O,m,701,5,1,1720.0999999046326,240575.0,7743,NNB,A,4
5,test,2,0.0,1-Back,1.0,m,Thu Jan 15 2026 08:50:05 GMT-0600 (Central Standard Time),243962.40000009537,063_y_f_n_a.png,O,m,633,6,1,1658.6000001430511,242303.79999995232,7743,NNB,A,5
6,test,2,1.0,1-Back,1.0,z,Thu Jan 15 2026 08:50:05 GMT-0600 (Central Standard Time),245711.0,063_y_f_n_a.png,O,z,727,7,1,1737.2999999523163,243973.70000004768,7743,NNB,A,6
7,test,2,0.0,1-Back,1.0,m,Thu Jan 15 2026 08:50:05 GMT-0600 (Central Standard Time),247476.90000009537,041_y_m_n_a.png,O,m,746,8,1,1754.4000000953674,245722.5,7743,NNB,A,7
8,test,2,0.0,1-Back,1.0,m,Thu Jan 15 2026 08:50:05 GMT-0600 (Central Standard Time),249193.29999995232,044_o_f_n_a.png,O,m,682,9,1,1704.8999998569489,247488.40000009537,7743,NNB,A,8
9,test,2,0.0,1-Back,1.0,m,Thu Jan 15 2026 08:50:05 GMT-0600 (Central Standard Time),251093.79999995232,045_m_m_n_a.png,O,m,880,10,1,1888.7000000476837,249205.09999990463,7743,NNB,A,9
10,test,2,1.0,1-Back,1.0,z,Thu Jan 15 2026 08:50:05 GMT-0600 (Central Standard Time),252859.09999990463,045_m_m_n_a.png,O,z,748,11,1,1756.5,251102.59999990463,7743,NNB,A,10
11,test,2,0.0,1-Back,1.0,m,Thu Jan 15 2026 08:50:05 GMT-0600 (Central Standard Time),254575.70000004768,044_o_f_n_a.png,O,m,695,12,1,1707.2000000476837,252868.5,7743,NNB,A,11
12,test,2,0.0,1-Back,1.0,m,Thu Jan 15 2026 08:50:05 GMT-0600 (Central Standard Time),256677.59999990463,047_o_f_n_a.png,O,m,1067,13,1,2091.199999809265,254586.40000009537,7743,NNB,A,12
13,test,2,0.0,1-Back,1.0,m,Thu Jan 15 2026 08:50:05 GMT-0600 (Central Standard Time),258473.59999990463,053_o_m_n_a.png,O,m,775,14,1,1785.0999999046326,256688.5,7743,NNB,A,13
14,test,2,0.0,1-Back,1.0,m,Thu Jan 15 2026 08:50:05 GMT-0600 (Central Standard Time),260323.20000004768,046_o_m_n_a.png,O,m,823,15,1,1840.1000001430511,258483.09999990463,7743,NNB,A,14
15,test,2,1.0,1-Back,1.0,z,Thu Jan 15 2026 08:50:05 GMT-0600 (Central Standard Time),262056.40000009537,046_o_m_n_a.png,O,z,704,16,1,1722.2000000476837,260334.20000004768,7743,NNB,A,15
16,test,2,0.0,1-Back,1.0,m,Thu Jan 15 2026 08:50:05 GMT-0600 (Central Standard Time),263740.0,008_y_m_n_a.png,O,m,656,17,1,1672.7999999523163,262067.20000004768,7743,NNB,A,16
17,test,2,1.0,1-Back,1.0,z,Thu Jan 15 2026 08:50:05 GMT-0600 (Central Standard Time),265654.2999999523,008_y_m_n_a.png,O,z,893,18,1,1904.5999999046326,263749.7000000477,7743,NNB,A,17
0,test,3,1.0,1-Back,,,Thu Jan 15 2026 08:50:05 GMT-0600 (Central Standard Time),265654.2999999523,010_y_f_n_a.png,O,space,2060,1,1,1904.5999999046326,263749.7000000477,7743,NNB,A,0
1,test,3,0.0,1-Back,1.0,m,Thu Jan 15 2026 08:50:05 GMT-0600 (Central Standard Time),271454.2000000477,046_o_m_n_a.png,O,m,637,2,1,1656.7000000476837,269797.5,7743,NNB,A,1
2,test,3,1.0,1-Back,1.0,z,Thu Jan 15 2026 08:50:05 GMT-0600 (Central Standard Time),273118.7000000477,046_o_m_n_a.png,O,z,637,3,1,1654.6000001430511,271464.09999990463,7743,NNB,A,2
3,test,3,0.0,1-Back,1.0,m,Thu Jan 15 2026 08:50:05 GMT-0600 (Central Standard Time),274985.09999990463,050_m_f_n_a.png,O,m,841,4,1,1859.2999999523163,273125.7999999523,7743,NNB,A,3
4,test,3,1.0,1-Back,1.0,z,Thu Jan 15 2026 08:50:05 GMT-0600 (Central Standard Time),276600.7000000477,050_m_f_n_a.png,O,z,589,5,1,1605.6000001430511,274995.09999990463,7743,NNB,A,4
5,test,3,0.0,1-Back,1.0,m,Thu Jan 15 2026 08:50:05 GMT-0600 (Central Standard Time),278334.40000009537,044_o_f_n_a.png,O,m,712,6,1,1724.3000001907349,276610.09999990463,7743,NNB,A,5
6,test,3,0.0,1-Back,1.0,m,Thu Jan 15 2026 08:50:05 GMT-0600 (Central Standard Time),279866.7999999523,041_y_m_n_a.png,O,m,505,7,1,1520.8999998569489,278345.90000009537,7743,NNB,A,6
7,test,3,0.0,1-Back,1.0,m,Thu Jan 15 2026 08:50:05 GMT-0600 (Central Standard Time),281416.7000000477,044_o_f_n_a.png,O,m,525,8,1,1539.0,279877.7000000477,7743,NNB,A,7
8,test,3,0.0,1-Back,1.0,m,Thu Jan 15 2026 08:50:05 GMT-0600 (Central Standard Time),283031.7999999523,008_y_m_n_a.png,O,m,584,9,1,1606.5,281425.2999999523,7743,NNB,A,8
9,test,3,1.0,1-Back,1.0,z,Thu Jan 15 2026 08:50:05 GMT-0600 (Central Standard Time),284615.0,008_y_m_n_a.png,O,z,560,10,1,1572.7999999523163,283042.2000000477,7743,NNB,A,9
10,test,3,0.0,1-Back,1.0,m,Thu Jan 15 2026 08:50:05 GMT-0600 (Central Standard Time),286231.09999990463,043_m_f_n_a.png,O,m,584,11,1,1607.2999999523163,284623.7999999523,7743,NNB,A,10
11,test,3,0.0,1-Back,1.0,m,Thu Jan 15 2026 08:50:05 GMT-0600 (Central Standard Time),287815.2000000477,063_y_f_n_a.png,O,m,561,12,1,1575.2000000476837,286240.0,7743,NNB,A,11
12,test,3,1.0,1-Back,1.0,z,Thu Jan 15 2026 08:50:05 GMT-0600 (Central Standard Time),289397.7000000477,063_y_f_n_a.png,O,z,554,13,1,1574.7999999523163,287822.90000009537,7743,NNB,A,12
13,test,3,0.0,1-Back,1.0,m,Thu Jan 15 2026 08:50:05 GMT-0600 (Central Standard Time),291047.5,043_m_f_n_a.png,O,m,620,14,1,1640.7999999523163,289406.7000000477,7743,NNB,A,13
14,test,3,0.0,1-Back,1.0,m,Thu Jan 15 2026 08:50:05 GMT-0600 (Central Standard Time),292645.59999990463,058_m_m_n_a.png,O,m,577,15,1,1588.0,291057.59999990463,7743,NNB,A,14
15,test,3,1.0,1-Back,1.0,z,Thu Jan 15 2026 08:50:05 GMT-0600 (Central Standard Time),294312.7000000477,058_m_m_n_a.png,O,z,642,16,1,1657.9000000953674,292654.7999999523,7743,NNB,A,15
16,test,3,0.0,1-Back,1.0,m,Thu Jan 15 2026 08:50:05 GMT-0600 (Central Standard Time),296028.40000009537,047_o_f_n_a.png,O,m,681,17,1,1706.2000000476837,294322.2000000477,7743,NNB,A,16
17,test,3,1.0,1-Back,1.0,z,Thu Jan 15 2026 08:50:05 GMT-0600 (Central Standard Time),297812.2999999523,047_o_f_n_a.png,O,z,766,18,1,1773.8999998569489,296038.40000009537,7743,NNB,A,17
0,test,4,1.0,1-Back,,,Thu Jan 15 2026 08:50:05 GMT-0600 (Central Standard Time),297812.2999999523,050_m_f_n_a.png,O,space,1832,1,1,1773.8999998569489,296038.40000009537,7743,NNB,A,0
1,test,4,0.0,1-Back,1.0,m,Thu Jan 15 2026 08:50:05 GMT-0600 (Central Standard Time),303259.2999999523,046_o_m_n_a.png,O,m,575,2,1,1588.2999999523163,301671.0,7743,NNB,A,1
2,test,4,0.0,1-Back,1.0,m,Thu Jan 15 2026 08:50:05 GMT-0600 (Central Standard Time),305142.59999990463,050_m_f_n_a.png,O,m,853,3,1,1873.0999999046326,303269.5,7743,NNB,A,2
3,test,4,0.0,1-Back,1.0,m,Thu Jan 15 2026 08:50:05 GMT-0600 (Central Standard Time),306842.2999999523,044_o_f_n_a.png,O,m,684,4,1,1690.2999999523163,305152.0,7743,NNB,A,3
4,test,4,1.0,1-Back,1.0,z,Thu Jan 15 2026 08:50:05 GMT-0600 (Central Standard Time),308608.0,044_o_f_n_a.png,O,z,743,5,1,1757.2999999523163,306850.7000000477,7743,NNB,A,4
5,test,4,0.0,1-Back,1.0,m,Thu Jan 15 2026 08:50:05 GMT-0600 (Central Standard Time),310172.7999999523,063_y_f_n_a.png,O,m,537,6,1,1554.5,308618.2999999523,7743,NNB,A,5
6,test,4,0.0,1-Back,1.0,m,Thu Jan 15 2026 08:50:05 GMT-0600 (Central Standard Time),311856.7000000477,041_y_m_n_a.png,O,m,650,7,1,1677.2000000476837,310179.5,7743,NNB,A,6
7,test,4,1.0,1-Back,1.0,z,Thu Jan 15 2026 08:50:05 GMT-0600 (Central Standard Time),313606.7999999523,041_y_m_n_a.png,O,z,719,8,1,1740.5,311866.2999999523,7743,NNB,A,7
8,test,4,0.0,1-Back,1.0,m,Thu Jan 15 2026 08:50:05 GMT-0600 (Central Standard Time),315305.0,063_y_f_n_a.png,O,m,672,9,1,1687.9000000953674,313617.09999990463,7743,NNB,A,8
9,test,4,0.0,1-Back,1.0,m,Thu Jan 15 2026 08:50:05 GMT-0600 (Central Standard Time),316971.09999990463,045_m_m_n_a.png,O,m,639,10,1,1657.3999998569489,315313.7000000477,7743,NNB,A,9
10,test,4,1.0,1-Back,1.0,z,Thu Jan 15 2026 08:50:05 GMT-0600 (Central Standard Time),318721.0,045_m_m_n_a.png,O,z,725,11,1,1741.2000000476837,316979.7999999523,7743,NNB,A,10
11,test,4,0.0,1-Back,1.0,m,Thu Jan 15 2026 08:50:05 GMT-0600 (Central Standard Time),320420.2999999523,047_o_f_n_a.png,O,m,672,12,1,1691.5,318728.7999999523,7743,NNB,A,11
12,test,4,0.0,1-Back,1.0,m,Thu Jan 15 2026 08:50:05 GMT-0600 (Central Standard Time),321971.09999990463,053_o_m_n_a.png,O,m,526,13,1,1541.0999999046326,320430.0,7743,NNB,A,12
13,test,4,0.0,1-Back,1.0,m,Thu Jan 15 2026 08:50:05 GMT-0600 (Central Standard Time),323769.5,047_o_f_n_a.png,O,m,775,14,1,1786.4000000953674,321983.09999990463,7743,NNB,A,13
14,test,4,0.0,1-Back,1.0,m,Thu Jan 15 2026 08:50:05 GMT-0600 (Central Standard Time),325436.40000009537,010_y_f_n_a.png,O,m,640,15,1,1657.6000001430511,323778.7999999523,7743,NNB,A,14
15,test,4,1.0,1-Back,1.0,z,Thu Jan 15 2026 08:50:05 GMT-0600 (Central Standard Time),327135.40000009537,010_y_f_n_a.png,O,z,666,16,1,1687.8000001907349,325447.59999990463,7743,NNB,A,15
16,test,4,0.0,1-Back,1.0,m,Thu Jan 15 2026 08:50:05 GMT-0600 (Central Standard Time),328803.40000009537,043_m_f_n_a.png,O,m,650,17,1,1661.3000001907349,327142.09999990463,7743,NNB,A,16
17,test,4,1.0,1-Back,1.0,z,Thu Jan 15 2026 08:50:05 GMT-0600 (Central Standard Time),330500.59999990463,043_m_f_n_a.png,O,z,671,18,1,1689.7999999523163,328810.7999999523,7743,NNB,A,17
0,test,5,1.0,1-Back,,,Thu Jan 15 2026 08:50:05 GMT-0600 (Central Standard Time),330500.59999990463,053_o_m_n_a.png,O,space,1589,1,1,1689.7999999523163,328810.7999999523,7743,NNB,A,0
0,test,5,1.0,1-Back,0.0,z,Thu Jan 15 2026 08:50:05 GMT-0600 (Central Standard Time),335665.59999990463,053_o_m_n_a.png,O,m,523,2,1,1542.0999999046326,334123.5,7743,NNB,A,1
1,test,5,0.0,1-Back,1.0,m,Thu Jan 15 2026 08:50:05 GMT-0600 (Central Standard Time),337599.7999999523,063_y_f_n_a.png,O,m,902,3,1,1923.7000000476837,335676.09999990463,7743,NNB,A,2
2,test,5,0.0,1-Back,1.0,m,Thu Jan 15 2026 08:50:05 GMT-0600 (Central Standard Time),339580.90000009537,041_y_m_n_a.png,O,m,963,4,1,1974.7000000476837,337606.2000000477,7743,NNB,A,3
3,test,5,0.0,1-Back,1.0,m,Thu Jan 15 2026 08:50:05 GMT-0600 (Central Standard Time),341447.7000000477,063_y_f_n_a.png,O,m,844,5,1,1859.7999999523163,339587.90000009537,7743,NNB,A,4
4,test,5,0.0,1-Back,1.0,m,Thu Jan 15 2026 08:50:05 GMT-0600 (Central Standard Time),343180.2000000477,058_m_m_n_a.png,O,m,704,6,1,1721.2999999523163,341458.90000009537,7743,NNB,A,5
5,test,5,1.0,1-Back,1.0,z,Thu Jan 15 2026 08:50:05 GMT-0600 (Central Standard Time),344762.90000009537,058_m_m_n_a.png,O,z,557,7,1,1573.1000001430511,343189.7999999523,7743,NNB,A,6
6,test,5,0.0,1-Back,1.0,m,Thu Jan 15 2026 08:50:05 GMT-0600 (Central Standard Time),346379.0,010_y_f_n_a.png,O,m,597,8,1,1605.0999999046326,344773.90000009537,7743,NNB,A,7
7,test,5,0.0,1-Back,1.0,m,Thu Jan 15 2026 08:50:05 GMT-0600 (Central Standard Time),348048.40000009537,008_y_m_n_a.png,O,m,645,9,1,1662.5,346385.90000009537,7743,NNB,A,8
8,test,5,0.0,1-Back,1.0,m,Thu Jan 15 2026 08:50:05 GMT-0600 (Central Standard Time),349764.90000009537,010_y_f_n_a.png,O,m,686,10,1,1705.3000001907349,348059.59999990463,7743,NNB,A,9
9,test,5,0.0,1-Back,1.0,m,Thu Jan 15 2026 08:50:05 GMT-0600 (Central Standard Time),351529.7000000477,047_o_f_n_a.png,O,m,736,11,1,1758.7999999523163,349770.90000009537,7743,NNB,A,10
10,test,5,1.0,1-Back,1.0,z,Thu Jan 15 2026 08:50:05 GMT-0600 (Central Standard Time),353044.7999999523,047_o_f_n_a.png,O,z,498,12,1,1505.3999998569489,351539.40000009537,7743,NNB,A,11
11,test,5,0.0,1-Back,1.0,m,Thu Jan 15 2026 08:50:05 GMT-0600 (Central Standard Time),354609.7999999523,046_o_m_n_a.png,O,m,534,13,1,1552.5,353057.2999999523,7743,NNB,A,12
12,test,5,0.0,1-Back,1.0,m,Thu Jan 15 2026 08:50:05 GMT-0600 (Central Standard Time),356209.0,050_m_f_n_a.png,O,m,565,14,1,1590.9000000953674,354618.09999990463,7743,NNB,A,13
13,test,5,1.0,1-Back,1.0,z,Thu Jan 15 2026 08:50:05 GMT-0600 (Central Standard Time),357924.09999990463,050_m_f_n_a.png,O,z,687,15,1,1704.7999999523163,356219.2999999523,7743,NNB,A,14
14,test,5,0.0,1-Back,1.0,m,Thu Jan 15 2026 08:50:05 GMT-0600 (Central Standard Time),359608.7999999523,046_o_m_n_a.png,O,m,652,16,1,1675.5999999046326,357933.2000000477,7743,NNB,A,15
15,test,5,0.0,1-Back,1.0,m,Thu Jan 15 2026 08:50:05 GMT-0600 (Central Standard Time),361207.0,043_m_f_n_a.png,O,m,576,17,1,1588.0,359619.0,7743,NNB,A,16
16,test,5,0.0,1-Back,1.0,m,Thu Jan 15 2026 08:50:05 GMT-0600 (Central Standard Time),362857.2999999523,045_m_m_n_a.png,O,m,625,18,1,1640.5999999046326,361216.7000000477,7743,NNB,A,17
0,prac,1,0.0,2-Back,,,Thu Jan 15 2026 08:50:05 GMT-0600 (Central Standard Time),362857.2999999523,008_y_m_n_a.png,O,space,6225,1,1,1640.5999999046326,361216.7000000477,7743,NNB,A,0
0,prac,1,0.0,2-Back,,,Thu Jan 15 2026 08:50:05 GMT-0600 (Central Standard Time),362857.2999999523,043_m_f_n_a.png,O,space,6225,2,1,1640.5999999046326,361216.7000000477,7743,NNB,A,0
1,prac,1,1.0,2-Back,1.0,m,Thu Jan 15 2026 08:50:05 GMT-0600 (Central Standard Time),616660.0,046_o_m_n_a.png,O,m,1084,3,1,1873.4000000953674,614786.5999999046,7743,NNB,A,1
2,prac,1,0.0,2-Back,1.0,m,Thu Jan 15 2026 08:50:05 GMT-0600 (Central Standard Time),618909.2000000477,047_o_f_n_a.png,O,m,1409,4,1,2237.0,616672.2000000477,7743,NNB,A,2
3,prac,1,0.0,2-Back,1.0,z,Thu Jan 15 2026 08:50:05 GMT-0600 (Central Standard Time),621408.4000000954,046_o_m_n_a.png,O,z,1705,5,1,2487.7000000476837,618920.7000000477,7743,NNB,A,3
4,prac,1,1.0,2-Back,1.0,z,Thu Jan 15 2026 08:50:05 GMT-0600 (Central Standard Time),623691.5999999046,047_o_f_n_a.png,O,z,1493,6,1,2272.199999809265,621419.4000000954,7743,NNB,A,4
4,prac,1,0.0,2-Back,0.0,m,Thu Jan 15 2026 08:50:05 GMT-0600 (Central Standard Time),626507.2000000477,045_m_m_n_a.png,O,None,2014,7,1,2804.7999999523163,623702.4000000954,7743,NNB,A,5
5,prac,1,0.0,2-Back,1.0,m,Thu Jan 15 2026 08:50:05 GMT-0600 (Central Standard Time),628556.2000000477,053_o_m_n_a.png,O,m,1239,8,1,2038.0,626518.2000000477,7743,NNB,A,6
5,prac,1,0.0,2-Back,0.0,m,Thu Jan 15 2026 08:50:05 GMT-0600 (Central Standard Time),630554.5999999046,010_y_f_n_a.png,O,z,1221,9,1,1986.2999999523163,628568.2999999523,7743,NNB,A,7
5,prac,1,1.0,2-Back,0.0,z,Thu Jan 15 2026 08:50:05 GMT-0600 (Central Standard Time),632906.7999999523,053_o_m_n_a.png,O,m,1557,10,1,2343.399999856949,630563.4000000954,7743,NNB,A,8
5,prac,1,0.0,2-Back,0.0,m,Thu Jan 15 2026 08:50:05 GMT-0600 (Central Standard Time),635721.9000000954,063_y_f_n_a.png,O,None,2014,11,1,2801.2000000476837,632920.7000000477,7743,NNB,A,9
6,prac,1,0.0,2-Back,1.0,m,Thu Jan 15 2026 08:50:05 GMT-0600 (Central Standard Time),638021.2999999523,045_m_m_n_a.png,O,m,1524,12,1,2287.7000000476837,635733.5999999046,7743,NNB,A,10
0,prac,2,0.0,2-Back,,,Thu Jan 15 2026 08:50:05 GMT-0600 (Central Standard Time),638021.2999999523,008_y_m_n_a.png,O,a,10647,1,1,2287.7000000476837,635733.5999999046,7743,NNB,A,0
0,prac,2,0.0,2-Back,,,Thu Jan 15 2026 08:50:05 GMT-0600 (Central Standard Time),638021.2999999523,043_m_f_n_a.png,O,a,10647,2,1,2287.7000000476837,635733.5999999046,7743,NNB,A,0
1,prac,2,1.0,2-Back,1.0,m,Thu Jan 15 2026 08:50:05 GMT-0600 (Central Standard Time),655615.9000000954,046_o_m_n_a.png,O,m,1088,3,1,1871.3000001907349,653744.5999999046,7743,NNB,A,1
2,prac,2,0.0,2-Back,1.0,m,Thu Jan 15 2026 08:50:05 GMT-0600 (Central Standard Time),657696.0,047_o_f_n_a.png,O,m,1292,4,1,2065.9000000953674,655630.0999999046,7743,NNB,A,2
3,prac,2,0.0,2-Back,1.0,z,Thu Jan 15 2026 08:50:05 GMT-0600 (Central Standard Time),659862.0999999046,046_o_m_n_a.png,O,z,1384,5,1,2156.5999999046326,657705.5,7743,NNB,A,3
4,prac,2,1.0,2-Back,1.0,z,Thu Jan 15 2026 08:50:05 GMT-0600 (Central Standard Time),661913.0999999046,047_o_f_n_a.png,O,z,1274,6,1,2042.7999999523163,659870.2999999523,7743,NNB,A,4
5,prac,2,0.0,2-Back,1.0,m,Thu Jan 15 2026 08:50:05 GMT-0600 (Central Standard Time),663845.7000000477,045_m_m_n_a.png,O,m,1147,7,1,1920.0,661925.7000000477,7743,NNB,A,5
6,prac,2,0.0,2-Back,1.0,m,Thu Jan 15 2026 08:50:05 GMT-0600 (Central Standard Time),665644.9000000954,053_o_m_n_a.png,O,m,1016,8,1,1787.7000000476837,663857.2000000477,7743,NNB,A,6
7,prac,2,0.0,2-Back,1.0,m,Thu Jan 15 2026 08:50:05 GMT-0600 (Central Standard Time),667728.2000000477,010_y_f_n_a.png,O,m,1296,9,1,2070.9000000953674,665657.2999999523,7743,NNB,A,7
8,prac,2,1.0,2-Back,1.0,z,Thu Jan 15 2026 08:50:05 GMT-0600 (Central Standard Time),669626.7000000477,053_o_m_n_a.png,O,z,1137,10,1,1888.2000000476837,667738.5,7743,NNB,A,8
9,prac,2,0.0,2-Back,1.0,m,Thu Jan 15 2026 08:50:05 GMT-0600 (Central Standard Time),672025.2000000477,063_y_f_n_a.png,O,m,1568,11,1,2387.4000000953674,669637.7999999523,7743,NNB,A,9
10,prac,2,0.0,2-Back,1.0,m,Thu Jan 15 2026 08:50:05 GMT-0600 (Central Standard Time),673909.7999999523,045_m_m_n_a.png,O,m,1114,12,1,1877.7999999523163,672032.0,7743,NNB,A,10
0,test,1,0.0,2-Back,,,Thu Jan 15 2026 08:50:05 GMT-0600 (Central Standard Time),673909.7999999523,041_y_m_n_a.png,O,space,4266,1,1,1877.7999999523163,672032.0,7743,NNB,A,0
0,test,1,0.0,2-Back,,,Thu Jan 15 2026 08:50:05 GMT-0600 (Central Standard Time),673909.7999999523,041_y_m_n_a.png,O,space,4266,2,1,1877.7999999523163,672032.0,7743,NNB,A,0
1,test,1,0.0,2-Back,1.0,m,Thu Jan 15 2026 08:50:05 GMT-0600 (Central Standard Time),694450.9000000954,047_o_f_n_a.png,O,m,982,3,1,1985.5,692465.4000000954,7743,NNB,A,1
2,test,1,0.0,2-Back,1.0,m,Thu Jan 15 2026 08:50:05 GMT-0600 (Central Standard Time),696851.5999999046,058_m_m_n_a.png,O,m,1363,4,1,2392.399999856949,694459.2000000477,7743,NNB,A,2
3,test,1,1.0,2-Back,1.0,z,Thu Jan 15 2026 08:50:05 GMT-0600 (Central Standard Time),699017.2000000477,047_o_f_n_a.png,O,z,1146,5,1,2153.5,696863.7000000477,7743,NNB,A,3
4,test,1,0.0,2-Back,1.0,m,Thu Jan 15 2026 08:50:05 GMT-0600 (Central Standard Time),701132.4000000954,063_y_f_n_a.png,O,m,1095,6,1,2103.9000000953674,699028.5,7743,NNB,A,4
5,test,1,0.0,2-Back,1.0,m,Thu Jan 15 2026 08:50:05 GMT-0600 (Central Standard Time),703731.5999999046,058_m_m_n_a.png,O,m,1580,7,1,2588.199999809265,701143.4000000954,7743,NNB,A,5
5,test,1,1.0,2-Back,0.0,z,Thu Jan 15 2026 08:50:05 GMT-0600 (Central Standard Time),705932.0,063_y_f_n_a.png,O,m,1166,8,1,2194.4000000953674,703737.5999999046,7743,NNB,A,6
5,test,1,0.0,2-Back,0.0,m,Thu Jan 15 2026 08:50:05 GMT-0600 (Central Standard Time),708967.2999999523,008_y_m_n_a.png,O,None,2019,9,1,3024.7999999523163,705942.5,7743,NNB,A,7
6,test,1,0.0,2-Back,1.0,m,Thu Jan 15 2026 08:50:05 GMT-0600 (Central Standard Time),711446.0999999046,044_o_f_n_a.png,O,m,1459,10,1,2469.5,708976.5999999046,7743,NNB,A,8
7,test,1,1.0,2-Back,1.0,z,Thu Jan 15 2026 08:50:05 GMT-0600 (Central Standard Time),713595.7000000477,008_y_m_n_a.png,O,z,1116,11,1,2139.7000000476837,711456.0,7743,NNB,A,9
8,test,1,0.0,2-Back,1.0,m,Thu Jan 15 2026 08:50:05 GMT-0600 (Central Standard Time),715944.5999999046,043_m_f_n_a.png,O,m,1326,12,1,2339.0,713605.5999999046,7743,NNB,A,10
8,test,1,0.0,2-Back,0.0,m,Thu Jan 15 2026 08:50:05 GMT-0600 (Central Standard Time),718045.2999999523,043_m_f_n_a.png,O,z,1070,13,1,2090.7999999523163,715954.5,7743,NNB,A,11
9,test,1,0.0,2-Back,1.0,m,Thu Jan 15 2026 08:50:05 GMT-0600 (Central Standard Time),720828.4000000954,046_o_m_n_a.png,O,m,1758,14,1,2771.2000000476837,718057.2000000477,7743,NNB,A,12
9,test,1,0.0,2-Back,0.0,m,Thu Jan 15 2026 08:50:05 GMT-0600 (Central Standard Time),723408.5999999046,044_o_f_n_a.png,O,z,1563,15,1,2567.5999999046326,720841.0,7743,NNB,A,13
9,test,1,1.0,2-Back,0.0,z,Thu Jan 15 2026 08:50:05 GMT-0600 (Central Standard Time),726441.4000000954,046_o_m_n_a.png,O,None,2015,16,1,3021.4000000953674,723420.0,7743,NNB,A,14
10,test,1,0.0,2-Back,1.0,m,Thu Jan 15 2026 08:50:05 GMT-0600 (Central Standard Time),728707.9000000954,050_m_f_n_a.png,O,m,1238,17,1,2255.600000143051,726452.2999999523,7743,NNB,A,15
11,test,1,0.0,2-Back,1.0,m,Thu Jan 15 2026 08:50:05 GMT-0600 (Central Standard Time),731473.5,045_m_m_n_a.png,O,m,1749,18,1,2755.0,728718.5,7743,NNB,A,16
0,test,2,0.0,2-Back,,,Thu Jan 15 2026 08:50:05 GMT-0600 (Central Standard Time),731473.5,045_m_m_n_a.png,O,space,2784,1,1,2755.0,728718.5,7743,NNB,A,0
0,test,2,0.0,2-Back,,,Thu Jan 15 2026 08:50:05 GMT-0600 (Central Standard Time),731473.5,010_y_f_n_a.png,O,space,2784,2,1,2755.0,728718.5,7743,NNB,A,0
1,test,2,1.0,2-Back,1.0,z,Thu Jan 15 2026 08:50:05 GMT-0600 (Central Standard Time),741321.4000000954,045_m_m_n_a.png,O,z,927,3,1,1938.1000001430511,739383.2999999523,7743,NNB,A,1
2,test,2,0.0,2-Back,1.0,m,Thu Jan 15 2026 08:50:05 GMT-0600 (Central Standard Time),743436.7000000477,050_m_f_n_a.png,O,m,1096,4,1,2103.5,741333.2000000477,7743,NNB,A,2
2,test,2,0.0,2-Back,0.0,m,Thu Jan 15 2026 08:50:05 GMT-0600 (Central Standard Time),746134.0,010_y_f_n_a.png,O,z,1669,5,1,2686.0,743448.0,7743,NNB,A,3
3,test,2,0.0,2-Back,1.0,m,Thu Jan 15 2026 08:50:05 GMT-0600 (Central Standard Time),748418.5999999046,046_o_m_n_a.png,O,m,1256,6,1,2277.0,746141.5999999046,7743,NNB,A,4
4,test,2,0.0,2-Back,1.0,m,Thu Jan 15 2026 08:50:05 GMT-0600 (Central Standard Time),751016.5999999046,063_y_f_n_a.png,O,m,1573,7,1,2590.699999809265,748425.9000000954,7743,NNB,A,5
5,test,2,1.0,2-Back,1.0,z,Thu Jan 15 2026 08:50:05 GMT-0600 (Central Standard Time),753266.5999999046,046_o_m_n_a.png,O,z,1215,8,1,2238.199999809265,751028.4000000954,7743,NNB,A,6
6,test,2,0.0,2-Back,1.0,m,Thu Jan 15 2026 08:50:05 GMT-0600 (Central Standard Time),755698.2000000477,008_y_m_n_a.png,O,m,1406,9,1,2420.2999999523163,753277.9000000954,7743,NNB,A,7
7,test,2,0.0,2-Back,1.0,m,Thu Jan 15 2026 08:50:05 GMT-0600 (Central Standard Time),758082.5999999046,008_y_m_n_a.png,O,m,1367,10,1,2373.5,755709.0999999046,7743,NNB,A,8
8,test,2,0.0,2-Back,1.0,m,Thu Jan 15 2026 08:50:05 GMT-0600 (Central Standard Time),760513.7000000477,043_m_f_n_a.png,O,m,1398,11,1,2422.100000143051,758091.5999999046,7743,NNB,A,9
8,test,2,0.0,2-Back,0.0,m,Thu Jan 15 2026 08:50:05 GMT-0600 (Central Standard Time),763547.4000000954,010_y_f_n_a.png,O,None,2014,12,1,3022.2000000476837,760525.2000000477,7743,NNB,A,10
8,test,2,1.0,2-Back,0.0,z,Thu Jan 15 2026 08:50:05 GMT-0600 (Central Standard Time),766094.7999999523,043_m_f_n_a.png,O,m,1527,13,1,2536.0,763558.7999999523,7743,NNB,A,11
9,test,2,0.0,2-Back,1.0,m,Thu Jan 15 2026 08:50:05 GMT-0600 (Central Standard Time),768044.4000000954,053_o_m_n_a.png,O,m,919,14,1,1937.4000000953674,766107.0,7743,NNB,A,12
10,test,2,0.0,2-Back,1.0,m,Thu Jan 15 2026 08:50:05 GMT-0600 (Central Standard Time),770276.9000000954,053_o_m_n_a.png,O,m,1211,15,1,2220.7000000476837,768056.2000000477,7743,NNB,A,13
11,test,2,0.0,2-Back,1.0,m,Thu Jan 15 2026 08:50:05 GMT-0600 (Central Standard Time),772593.5999999046,044_o_f_n_a.png,O,m,1292,16,1,2305.7999999523163,770287.7999999523,7743,NNB,A,14
12,test,2,0.0,2-Back,1.0,m,Thu Jan 15 2026 08:50:05 GMT-0600 (Central Standard Time),774859.0,058_m_m_n_a.png,O,m,1247,17,1,2254.7000000476837,772604.2999999523,7743,NNB,A,15
13,test,2,1.0,2-Back,1.0,z,Thu Jan 15 2026 08:50:05 GMT-0600 (Central Standard Time),776975.7000000477,044_o_f_n_a.png,O,z,1094,18,1,2106.7000000476837,774869.0,7743,NNB,A,16
0,test,3,1.0,2-Back,,,Thu Jan 15 2026 08:50:05 GMT-0600 (Central Standard Time),776975.7000000477,041_y_m_n_a.png,O,space,3074,1,1,2106.7000000476837,774869.0,7743,NNB,A,0
0,test,3,1.0,2-Back,,,Thu Jan 15 2026 08:50:05 GMT-0600 (Central Standard Time),776975.7000000477,041_y_m_n_a.png,O,space,3074,2,1,2106.7000000476837,774869.0,7743,NNB,A,0
1,test,3,0.0,2-Back,1.0,m,Thu Jan 15 2026 08:50:05 GMT-0600 (Central Standard Time),786906.5999999046,044_o_f_n_a.png,O,m,749,3,1,1772.1999998092651,785134.4000000954,7743,NNB,A,1
1,test,3,0.0,2-Back,0.0,m,Thu Jan 15 2026 08:50:05 GMT-0600 (Central Standard Time),789938.7999999523,045_m_m_n_a.png,O,None,2017,4,1,3022.2999999523163,786916.5,7743,NNB,A,2
2,test,3,1.0,2-Back,1.0,z,Thu Jan 15 2026 08:50:05 GMT-0600 (Central Standard Time),792571.0999999046,044_o_f_n_a.png,O,z,1607,5,1,2622.5,789948.5999999046,7743,NNB,A,3
3,test,3,0.0,2-Back,1.0,m,Thu Jan 15 2026 08:50:05 GMT-0600 (Central Standard Time),794903.4000000954,008_y_m_n_a.png,O,m,1302,6,1,2322.300000190735,792581.0999999046,7743,NNB,A,4
3,test,3,0.0,2-Back,0.0,m,Thu Jan 15 2026 08:50:05 GMT-0600 (Central Standard Time),796969.7999999523,045_m_m_n_a.png,O,z,1043,7,1,2056.5,794913.2999999523,7743,NNB,A,5
3,test,3,1.0,2-Back,0.0,z,Thu Jan 15 2026 08:50:05 GMT-0600 (Central Standard Time),799284.4000000954,008_y_m_n_a.png,O,m,1285,8,1,2304.2000000476837,796980.2000000477,7743,NNB,A,6
4,test,3,0.0,2-Back,1.0,m,Thu Jan 15 2026 08:50:05 GMT-0600 (Central Standard Time),801384.7999999523,010_y_f_n_a.png,O,m,1076,9,1,2091.399999856949,799293.4000000954,7743,NNB,A,7
5,test,3,0.0,2-Back,1.0,m,Thu Jan 15 2026 08:50:05 GMT-0600 (Central Standard Time),804100.4000000954,058_m_m_n_a.png,O,m,1688,10,1,2704.800000190735,801395.5999999046,7743,NNB,A,8
6,test,3,1.0,2-Back,1.0,z,Thu Jan 15 2026 08:50:05 GMT-0600 (Central Standard Time),806233.2999999523,010_y_f_n_a.png,O,z,1099,11,1,2125.2999999523163,804108.0,7743,NNB,A,9
7,test,3,1.0,2-Back,1.0,z,Thu Jan 15 2026 08:50:05 GMT-0600 (Central Standard Time),808798.5999999046,058_m_m_n_a.png,O,z,1536,12,1,2553.7999999523163,806244.7999999523,7743,NNB,A,10
8,test,3,0.0,2-Back,1.0,m,Thu Jan 15 2026 08:50:05 GMT-0600 (Central Standard Time),811015.9000000954,044_o_f_n_a.png,O,m,1195,13,1,2206.9000000953674,808809.0,7743,NNB,A,11
9,test,3,0.0,2-Back,1.0,m,Thu Jan 15 2026 08:50:05 GMT-0600 (Central Standard Time),813264.5999999046,050_m_f_n_a.png,O,m,1219,14,1,2237.5,811027.0999999046,7743,NNB,A,12
10,test,3,0.0,2-Back,1.0,m,Thu Jan 15 2026 08:50:05 GMT-0600 (Central Standard Time),815312.5,046_o_m_n_a.png,O,m,1016,15,1,2037.4000000953674,813275.0999999046,7743,NNB,A,13
11,test,3,1.0,2-Back,1.0,z,Thu Jan 15 2026 08:50:05 GMT-0600 (Central Standard Time),817462.7999999523,050_m_f_n_a.png,O,z,1126,16,1,2140.5999999046326,815322.2000000477,7743,NNB,A,14
12,test,3,0.0,2-Back,1.0,m,Thu Jan 15 2026 08:50:05 GMT-0600 (Central Standard Time),819796.9000000954,047_o_f_n_a.png,O,m,1315,17,1,2325.0,817471.9000000954,7743,NNB,A,15
13,test,3,0.0,2-Back,1.0,m,Thu Jan 15 2026 08:50:05 GMT-0600 (Central Standard Time),821577.9000000954,047_o_f_n_a.png,O,m,749,18,1,1773.9000000953674,819804.0,7743,NNB,A,16
0,test,4,0.0,2-Back,,,Thu Jan 15 2026 08:50:05 GMT-0600 (Central Standard Time),821577.9000000954,053_o_m_n_a.png,O,space,1999,1,1,1773.9000000953674,819804.0,7743,NNB,A,0
0,test,4,0.0,2-Back,,,Thu Jan 15 2026 08:50:05 GMT-0600 (Central Standard Time),821577.9000000954,063_y_f_n_a.png,O,space,1999,2,1,1773.9000000953674,819804.0,7743,NNB,A,0
1,test,4,1.0,2-Back,1.0,z,Thu Jan 15 2026 08:50:05 GMT-0600 (Central Standard Time),830792.4000000954,053_o_m_n_a.png,O,z,1078,3,1,2086.100000143051,828706.2999999523,7743,NNB,A,1
1,test,4,1.0,2-Back,0.0,z,Thu Jan 15 2026 08:50:05 GMT-0600 (Central Standard Time),832875.9000000954,063_y_f_n_a.png,O,m,1064,4,1,2070.600000143051,830805.2999999523,7743,NNB,A,2
2,test,4,0.0,2-Back,1.0,m,Thu Jan 15 2026 08:50:05 GMT-0600 (Central Standard Time),834889.9000000954,044_o_f_n_a.png,O,m,989,5,1,2003.5,832886.4000000954,7743,NNB,A,3
3,test,4,0.0,2-Back,1.0,m,Thu Jan 15 2026 08:50:05 GMT-0600 (Central Standard Time),836974.0,044_o_f_n_a.png,O,m,1060,6,1,2073.7999999523163,834900.2000000477,7743,NNB,A,4
4,test,4,0.0,2-Back,1.0,m,Thu Jan 15 2026 08:50:05 GMT-0600 (Central Standard Time),839522.5999999046,043_m_f_n_a.png,O,m,1531,7,1,2536.5,836986.0999999046,7743,NNB,A,5
5,test,4,0.0,2-Back,1.0,m,Thu Jan 15 2026 08:50:05 GMT-0600 (Central Standard Time),841472.5,008_y_m_n_a.png,O,m,920,8,1,1938.7000000476837,839533.7999999523,7743,NNB,A,6
6,test,4,1.0,2-Back,1.0,z,Thu Jan 15 2026 08:50:05 GMT-0600 (Central Standard Time),843673.7000000477,043_m_f_n_a.png,O,z,1178,9,1,2190.7000000476837,841483.0,7743,NNB,A,7
7,test,4,0.0,2-Back,1.0,m,Thu Jan 15 2026 08:50:05 GMT-0600 (Central Standard Time),846122.0,058_m_m_n_a.png,O,m,1433,10,1,2437.0999999046326,843684.9000000954,7743,NNB,A,8
8,test,4,0.0,2-Back,1.0,m,Thu Jan 15 2026 08:50:05 GMT-0600 (Central Standard Time),848503.2999999523,008_y_m_n_a.png,O,m,1353,11,1,2372.5,846130.7999999523,7743,NNB,A,9
9,test,4,0.0,2-Back,1.0,m,Thu Jan 15 2026 08:50:05 GMT-0600 (Central Standard Time),850668.5,047_o_f_n_a.png,O,m,1138,12,1,2152.5999999046326,848515.9000000954,7743,NNB,A,10
10,test,4,0.0,2-Back,1.0,m,Thu Jan 15 2026 08:50:05 GMT-0600 (Central Standard Time),853004.5,041_y_m_n_a.png,O,m,1300,13,1,2323.9000000953674,850680.5999999046,7743,NNB,A,11
11,test,4,1.0,2-Back,1.0,z,Thu Jan 15 2026 08:50:05 GMT-0600 (Central Standard Time),855717.0,047_o_f_n_a.png,O,z,1670,14,1,2699.4000000953674,853017.5999999046,7743,NNB,A,12
11,test,4,1.0,2-Back,0.0,z,Thu Jan 15 2026 08:50:05 GMT-0600 (Central Standard Time),857815.7000000477,041_y_m_n_a.png,O,m,1076,15,1,2088.7999999523163,855726.9000000954,7743,NNB,A,13
11,test,4,0.0,2-Back,0.0,m,Thu Jan 15 2026 08:50:05 GMT-0600 (Central Standard Time),860849.4000000954,045_m_m_n_a.png,O,None,2014,16,1,3022.9000000953674,857826.5,7743,NNB,A,14
12,test,4,0.0,2-Back,1.0,m,Thu Jan 15 2026 08:50:05 GMT-0600 (Central Standard Time),862814.5999999046,050_m_f_n_a.png,O,m,945,17,1,1955.2999999523163,860859.2999999523,7743,NNB,A,15
12,test,4,1.0,2-Back,0.0,z,Thu Jan 15 2026 08:50:05 GMT-0600 (Central Standard Time),865347.5,045_m_m_n_a.png,O,m,1512,18,1,2522.4000000953674,862825.0999999046,7743,NNB,A,16
0,test,5,1.0,2-Back,,,Thu Jan 15 2026 08:50:05 GMT-0600 (Central Standard Time),865347.5,041_y_m_n_a.png,O,space,2166,1,1,2522.4000000953674,862825.0999999046,7743,NNB,A,0
0,test,5,1.0,2-Back,,,Thu Jan 15 2026 08:50:05 GMT-0600 (Central Standard Time),865347.5,050_m_f_n_a.png,O,space,2166,2,1,2522.4000000953674,862825.0999999046,7743,NNB,A,0
1,test,5,1.0,2-Back,1.0,z,Thu Jan 15 2026 08:50:05 GMT-0600 (Central Standard Time),874578.7999999523,041_y_m_n_a.png,O,z,982,3,1,2005.8999998569489,872572.9000000954,7743,NNB,A,1
2,test,5,1.0,2-Back,1.0,z,Thu Jan 15 2026 08:50:05 GMT-0600 (Central Standard Time),876810.4000000954,050_m_f_n_a.png,O,z,1207,4,1,2222.7000000476837,874587.7000000477,7743,NNB,A,2
3,test,5,0.0,2-Back,1.0,m,Thu Jan 15 2026 08:50:05 GMT-0600 (Central Standard Time),879226.5,047_o_f_n_a.png,O,m,1390,5,1,2406.7999999523163,876819.7000000477,7743,NNB,A,3
4,test,5,0.0,2-Back,1.0,m,Thu Jan 15 2026 08:50:05 GMT-0600 (Central Standard Time),881591.7999999523,041_y_m_n_a.png,O,m,1343,6,1,2354.5999999046326,879237.2000000477,7743,NNB,A,4
5,test,5,0.0,2-Back,1.0,m,Thu Jan 15 2026 08:50:05 GMT-0600 (Central Standard Time),883657.2000000477,010_y_f_n_a.png,O,m,1033,7,1,2051.7999999523163,881605.4000000954,7743,NNB,A,5
5,test,5,0.0,2-Back,0.0,m,Thu Jan 15 2026 08:50:05 GMT-0600 (Central Standard Time),885708.5999999046,047_o_f_n_a.png,O,z,1031,8,1,2039.0999999046326,883669.5,7743,NNB,A,6
5,test,5,1.0,2-Back,0.0,z,Thu Jan 15 2026 08:50:05 GMT-0600 (Central Standard Time),888489.9000000954,010_y_f_n_a.png,O,m,1759,9,1,2770.0,885719.9000000954,7743,NNB,A,7
6,test,5,0.0,2-Back,1.0,m,Thu Jan 15 2026 08:50:05 GMT-0600 (Central Standard Time),890839.0999999046,046_o_m_n_a.png,O,m,1326,10,1,2338.0999999046326,888501.0,7743,NNB,A,8
7,test,5,0.0,2-Back,1.0,m,Thu Jan 15 2026 08:50:05 GMT-0600 (Central Standard Time),892905.7000000477,043_m_f_n_a.png,O,m,1041,11,1,2055.7000000476837,890850.0,7743,NNB,A,9
8,test,5,0.0,2-Back,1.0,m,Thu Jan 15 2026 08:50:05 GMT-0600 (Central Standard Time),894971.9000000954,058_m_m_n_a.png,O,m,1048,12,1,2054.300000190735,892917.5999999046,7743,NNB,A,10
8,test,5,0.0,2-Back,0.0,m,Thu Jan 15 2026 08:50:05 GMT-0600 (Central Standard Time),897120.5,046_o_m_n_a.png,O,z,1127,13,1,2138.0,894982.5,7743,NNB,A,11
8,test,5,1.0,2-Back,0.0,z,Thu Jan 15 2026 08:50:05 GMT-0600 (Central Standard Time),899353.2000000477,058_m_m_n_a.png,O,m,1201,14,1,2224.100000143051,897129.0999999046,7743,NNB,A,12
9,test,5,0.0,2-Back,1.0,m,Thu Jan 15 2026 08:50:05 GMT-0600 (Central Standard Time),901452.2999999523,063_y_f_n_a.png,O,m,1073,15,1,2090.7999999523163,899361.5,7743,NNB,A,13
10,test,5,0.0,2-Back,1.0,m,Thu Jan 15 2026 08:50:05 GMT-0600 (Central Standard Time),903335.5999999046,053_o_m_n_a.png,O,m,861,16,1,1875.3999998569489,901460.2000000477,7743,NNB,A,14
10,test,5,0.0,2-Back,0.0,m,Thu Jan 15 2026 08:50:05 GMT-0600 (Central Standard Time),905220.7000000477,043_m_f_n_a.png,O,z,868,17,1,1874.4000000953674,903346.2999999523,7743,NNB,A,15
10,test,5,1.0,2-Back,0.0,z,Thu Jan 15 2026 08:50:05 GMT-0600 (Central Standard Time),906967.7000000477,053_o_m_n_a.png,O,m,717,18,1,1738.4000000953674,905229.2999999523,7743,NNB,A,16
