acc_sum,block,block_c,condition,correct,correct_response,datetime,endtime,flanker,jitter,project,response,response_test_buffer_response,response_test_target_response,response_time,response_time_test_buffer_response,response_time_test_target_response,row_sel,session_number,start_end,starttime,subject_id,target,task,task_vers,time_test_buffer,time_test_buffer_response,time_test_constants,time_test_flanker,time_test_jitter,time_test_logger,time_test_target,time_test_target_response,time_test_variables,trial
0,prac,1,inc,0,m,Tue May 20 2025 17:42:46 GMT-0500 (Central Daylight Time),178791.10000002384,cherry,900,I,None,,,1815,,,10,2,4977.300000071526,173813.79999995232,8018,copper,NF,C,,,,,,,,,,1
0,prac,1,inc,0,m,Tue May 20 2025 17:42:46 GMT-0500 (Central Daylight Time),181490.19999992847,plum,1100,I,z,,,297,,,16,2,2692.899999976158,178797.29999995232,8018,lead,NF,C,,,,,,,,,,2
1,prac,1,inc,1,z,Tue May 20 2025 17:42:46 GMT-0500 (Central Daylight Time),184572.60000002384,cobalt,1100,I,z,,,677,,,4,2,3078.100000023842,181494.5,8018,raisin,NF,C,,,,,,,,,,3
2,prac,1,inc,1,z,Tue May 20 2025 17:42:46 GMT-0500 (Central Daylight Time),187288.39999997616,iron,900,I,z,,,506,,,6,2,2711.5,184576.89999997616,8018,pear,NF,C,,,,,,,,,,4
3,prac,1,con,1,m,Tue May 20 2025 17:42:46 GMT-0500 (Central Daylight Time),190020.69999992847,gold,800,I,m,,,626,,,13,2,2727.6999999284744,187293.0,8018,gold,NF,C,,,,,,,,,,5
4,prac,1,con,1,m,Tue May 20 2025 17:42:46 GMT-0500 (Central Daylight Time),192570.10000002384,bronze,800,I,m,,,447,,,9,2,2544.7000000476837,190025.39999997616,8018,bronze,NF,C,,,,,,,,,,6
5,prac,1,inc,1,z,Tue May 20 2025 17:42:46 GMT-0500 (Central Daylight Time),195536.0,lead,1100,I,z,,,566,,,8,2,2961.8000000715256,192574.19999992847,8018,plum,NF,C,,,,,,,,,,7
6,prac,1,con,1,z,Tue May 20 2025 17:42:46 GMT-0500 (Central Daylight Time),198451.5,orange,1000,I,z,,,612,,,3,2,2911.5,195540.0,8018,orange,NF,C,,,,,,,,,,8
7,prac,1,con,1,m,Tue May 20 2025 17:42:46 GMT-0500 (Central Daylight Time),201200.60000002384,zinc,1000,I,m,,,447,,,15,2,2744.7000000476837,198455.89999997616,8018,zinc,NF,C,,,,,,,,,,9
8,prac,1,con,1,z,Tue May 20 2025 17:42:46 GMT-0500 (Central Daylight Time),203883.19999992847,banana,800,I,z,,,570,,,1,2,2678.0,201205.19999992847,8018,banana,NF,C,,,,,,,,,,10
9,prac,1,con,1,z,Tue May 20 2025 17:42:46 GMT-0500 (Central Daylight Time),206748.69999992847,kiwi,1000,I,z,,,553,,,7,2,2860.6999999284744,203888.0,8018,kiwi,NF,C,,,,,,,,,,11
10,prac,1,inc,1,m,Tue May 20 2025 17:42:46 GMT-0500 (Central Daylight Time),209714.69999992847,raisin,1100,I,m,,,555,,,12,2,2961.5999999046326,206753.10000002384,8018,cobalt,NF,C,,,,,,,,,,12
11,prac,1,inc,1,m,Tue May 20 2025 17:42:46 GMT-0500 (Central Daylight Time),212447.19999992847,pear,900,I,m,,,517,,,14,2,2728.5,209718.69999992847,8018,iron,NF,C,,,,,,,,,,13
12,prac,1,con,1,m,Tue May 20 2025 17:42:46 GMT-0500 (Central Daylight Time),215146.29999995232,silver,1000,I,m,,,397,,,11,2,2694.2999999523163,212452.0,8018,silver,NF,C,,,,,,,,,,14
13,prac,1,con,1,z,Tue May 20 2025 17:42:46 GMT-0500 (Central Daylight Time),217695.60000002384,lime,800,I,z,,,441,,,5,2,2544.8000000715256,215150.79999995232,8018,lime,NF,C,,,,,,,,,,15
13,prac,1,inc,0,z,Tue May 20 2025 17:42:46 GMT-0500 (Central Daylight Time),220311.39999997616,copper,900,I,m,,,399,,,2,2,2611.600000023842,217699.79999995232,8018,cherry,NF,C,,,,,,,,,,16
1,test,1,con,1,z,Tue May 20 2025 17:42:46 GMT-0500 (Central Daylight Time),240238.60000002384,lime,800,I,z,z,None,419,220.0,199.0,33,2,1762.9000000953674,238475.69999992847,8018,lime,NF,C,234658,234658,233129,233942,233129,234892,234459,234459,234892,1
2,test,1,con,1,z,Tue May 20 2025 17:42:46 GMT-0500 (Central Daylight Time),242454.29999995232,cherry,1100,I,z,z,None,569,370.0,199.0,12,2,2211.0,240243.29999995232,8018,cherry,NF,C,236724,236724,234896,236008,234897,237107,236525,236525,237107,2
2,test,1,inc,0,m,Tue May 20 2025 17:42:46 GMT-0500 (Central Daylight Time),246086.69999992847,raisin,1100,I,None,None,None,1799,1799.0,200.0,96,2,3627.899999976158,242458.79999995232,8018,cobalt,NF,C,238940,238941,237112,238224,237112,240740,238740,238740,240740,3
2,test,1,inc,0,m,Tue May 20 2025 17:42:46 GMT-0500 (Central Daylight Time),249619.0,kiwi,1000,I,None,None,None,1799,1799.0,199.0,103,2,3528.2000000476837,246090.79999995232,8018,gold,NF,C,242473,242473,240744,241757,240744,244272,242273,242273,244272,4
3,test,1,con,1,z,Tue May 20 2025 17:42:46 GMT-0500 (Central Daylight Time),251668.10000002384,lime,1100,I,z,z,None,405,205.0,200.0,36,2,2045.0,249623.10000002384,8018,lime,NF,C,246105,246105,244276,245389,244277,246321,245905,245905,246321,5
3,test,1,inc,0,m,Tue May 20 2025 17:42:46 GMT-0500 (Central Daylight Time),255100.39999997616,pear,900,I,None,None,None,1799,1799.0,200.0,102,2,3428.2000000476837,251672.19999992847,8018,gold,NF,C,247954,247954,246325,247238,246326,249753,247754,247754,249753,6
3,test,1,inc,0,m,Tue May 20 2025 17:42:46 GMT-0500 (Central Daylight Time),258432.79999995232,lime,800,I,None,None,None,1799,1799.0,199.0,117,2,3328.399999976158,255104.39999997616,8018,zinc,NF,C,251287,251287,249757,250570,249758,253086,251087,251087,253086,7
3,test,1,con,0,m,Tue May 20 2025 17:42:46 GMT-0500 (Central Daylight Time),261965.0,cobalt,1000,I,None,None,None,1799,1799.0,200.0,91,2,3528.0,258437.0,8018,cobalt,NF,C,254819,254819,253090,254102,253090,256618,254619,254619,256618,8
3,test,1,inc,0,m,Tue May 20 2025 17:42:46 GMT-0500 (Central Daylight Time),265297.60000002384,banana,800,I,None,None,None,1799,1799.0,200.0,85,2,3328.3000000715256,261969.29999995232,8018,silver,NF,C,258151,258151,256622,257435,256623,259951,257951,257951,259951,9
3,test,1,con,0,m,Tue May 20 2025 17:42:46 GMT-0500 (Central Daylight Time),268929.39999997616,zinc,1100,I,None,None,None,1799,1799.0,199.0,116,2,3627.7000000476837,265301.6999999285,8018,zinc,NF,C,261783,261783,259955,261067,259955,263582,261584,261584,263582,10
4,test,1,con,1,z,Tue May 20 2025 17:42:46 GMT-0500 (Central Daylight Time),270845.5,cherry,1000,I,z,z,None,369,170.0,199.0,11,2,1911.5,268934.0,8018,cherry,NF,C,265316,265316,263587,264599,263587,265499,265116,265116,265498,11
5,test,1,con,1,z,Tue May 20 2025 17:42:46 GMT-0500 (Central Daylight Time),272895.1999999285,kiwi,1000,I,z,z,None,518,319.0,199.0,51,2,2045.6999999284744,270849.5,8018,kiwi,NF,C,267215,267215,265502,266515,265503,267548,267016,267016,267548,12
6,test,1,con,1,z,Tue May 20 2025 17:42:46 GMT-0500 (Central Daylight Time),274944.10000002384,plum,1100,I,z,z,None,401,201.0,200.0,60,2,2044.9000000953674,272899.1999999285,8018,plum,NF,C,269381,269381,267552,268664,267553,269597,269181,269181,269597,13
7,test,1,inc,1,z,Tue May 20 2025 17:42:46 GMT-0500 (Central Daylight Time),276926.7999999523,iron,900,I,z,z,None,536,336.0,200.0,54,2,1978.6000000238419,274948.1999999285,8018,kiwi,NF,C,271230,271230,269601,270514,269602,271580,271030,271030,271580,14
8,test,1,inc,1,z,Tue May 20 2025 17:42:46 GMT-0500 (Central Daylight Time),278843.0,bronze,800,I,z,z,None,581,381.0,200.0,5,2,1912.1000000238419,276930.89999997616,8018,banana,NF,C,273113,273113,271584,272397,271584,273496,272913,272913,273496,15
8,test,1,con,0,m,Tue May 20 2025 17:42:46 GMT-0500 (Central Daylight Time),280609.2999999523,silver,800,I,z,z,None,432,233.0,199.0,81,2,1762.5,278846.7999999523,8018,silver,NF,C,275029,275029,273500,274313,273500,275262,274830,274830,275262,16
8,test,1,con,0,m,Tue May 20 2025 17:42:46 GMT-0500 (Central Daylight Time),284257.89999997616,lead,1100,I,None,None,None,1815,1815.0,200.0,124,2,3644.7000000476837,280613.1999999285,8018,lead,NF,C,277096,277096,275266,276379,275267,278911,276895,276895,278911,17
8,test,1,inc,0,m,Tue May 20 2025 17:42:46 GMT-0500 (Central Daylight Time),287890.1999999285,plum,1100,I,None,None,None,1799,1799.0,199.0,120,2,3628.2999999523163,284261.89999997616,8018,zinc,NF,C,280744,280744,278915,280028,278915,282543,280545,280545,282543,18
9,test,1,inc,1,z,Tue May 20 2025 17:42:46 GMT-0500 (Central Daylight Time),289939.5,copper,900,I,z,z,None,614,414.0,200.0,6,2,2045.3999999761581,287894.10000002384,8018,banana,NF,C,284176,284176,282547,283460,282548,284593,283976,283976,284593,19
10,test,1,con,1,z,Tue May 20 2025 17:42:46 GMT-0500 (Central Daylight Time),292188.89999997616,lime,1000,I,z,z,None,704,505.0,199.0,35,2,2245.5,289943.39999997616,8018,lime,NF,C,286325,286325,284596,285609,284597,286842,286126,286126,286842,20
10,test,1,inc,0,m,Tue May 20 2025 17:42:46 GMT-0500 (Central Daylight Time),295521.10000002384,lime,800,I,None,None,None,1799,1799.0,199.0,125,2,3327.9000000953674,292193.1999999285,8018,lead,NF,C,288375,288375,286846,287659,286847,290174,288175,288175,290174,21
10,test,1,con,0,m,Tue May 20 2025 17:42:46 GMT-0500 (Central Daylight Time),299153.1999999285,iron,1100,I,None,None,None,1799,1799.0,200.0,108,2,3626.7999999523163,295526.39999997616,8018,iron,NF,C,292007,292007,290179,291291,290180,293806,291807,291807,293806,22
10,test,1,con,0,m,Tue May 20 2025 17:42:46 GMT-0500 (Central Daylight Time),302685.5,gold,1000,I,None,None,None,1799,1799.0,199.0,99,2,3528.5,299157.0,8018,gold,NF,C,295540,295540,293810,294823,293810,297339,295340,295340,297339,23
11,test,1,inc,1,z,Tue May 20 2025 17:42:46 GMT-0500 (Central Daylight Time),304751.5,copper,900,I,z,z,None,617,418.0,199.0,14,2,2061.600000023842,302689.89999997616,8018,cherry,NF,C,298972,298972,297343,298255,297343,299405,298772,298772,299405,24
11,test,1,inc,0,m,Tue May 20 2025 17:42:46 GMT-0500 (Central Daylight Time),308283.89999997616,orange,1000,I,None,None,None,1799,1799.0,199.0,87,2,3528.5,304755.39999997616,8018,silver,NF,C,301137,301138,299408,300421,299409,302937,300938,300938,302937,25
11,test,1,inc,0,m,Tue May 20 2025 17:42:46 GMT-0500 (Central Daylight Time),311716.0,cherry,900,I,None,None,None,1799,1799.0,200.0,70,2,3427.899999976158,308288.10000002384,8018,bronze,NF,C,304570,304570,302941,303854,302942,306369,304370,304370,306369,26
12,test,1,inc,1,z,Tue May 20 2025 17:42:46 GMT-0500 (Central Daylight Time),313748.60000002384,bronze,800,I,z,z,None,688,488.0,200.0,29,2,2028.5,311720.10000002384,8018,raisin,NF,C,307902,307902,306373,307186,306373,308402,307702,307702,308402,27
13,test,1,inc,1,z,Tue May 20 2025 17:42:46 GMT-0500 (Central Daylight Time),315881.1999999285,iron,900,I,z,z,None,699,499.0,200.0,38,2,2128.5999999046326,313752.60000002384,8018,lime,NF,C,310035,310035,308406,309318,308406,310534,309835,309835,310534,28
13,test,1,con,0,m,Tue May 20 2025 17:42:46 GMT-0500 (Central Daylight Time),319413.39999997616,iron,1000,I,None,None,None,1799,1799.0,205.0,107,2,3528.600000023842,315884.7999999523,8018,iron,NF,C,312267,312267,310538,311551,310538,314067,312062,312062,314066,29
13,test,1,con,0,m,Tue May 20 2025 17:42:46 GMT-0500 (Central Daylight Time),322846.0,lead,900,I,None,None,None,1799,1799.0,200.0,122,2,3428.5,319417.5,8018,lead,NF,C,315700,315700,314071,314983,314071,317499,315500,315500,317499,30
13,test,1,con,0,m,Tue May 20 2025 17:42:46 GMT-0500 (Central Daylight Time),326178.1999999285,copper,800,I,None,None,None,1799,1799.0,200.0,73,2,3328.399999976158,322849.7999999523,8018,copper,NF,C,319032,319032,317503,318316,317503,320831,318832,318832,320831,31
13,test,1,inc,0,m,Tue May 20 2025 17:42:46 GMT-0500 (Central Daylight Time),329610.39999997616,pear,900,I,None,None,None,1799,1799.0,200.0,118,2,3428.399999976158,326182.0,8018,zinc,NF,C,322464,322464,320835,321748,320836,324263,322264,322264,324263,32
13,test,1,con,0,m,Tue May 20 2025 17:42:46 GMT-0500 (Central Daylight Time),333042.7999999523,gold,900,I,None,None,None,1799,1799.0,199.0,98,2,3428.399999976158,329614.39999997616,8018,gold,NF,C,325897,325897,324267,325180,324268,327696,325697,325697,327696,33
14,test,1,con,1,z,Tue May 20 2025 17:42:46 GMT-0500 (Central Daylight Time),335042.2999999523,orange,1000,I,z,z,None,456,257.0,199.0,19,2,1995.6000000238419,333046.6999999285,8018,orange,NF,C,329429,329429,327700,328712,327700,329695,329229,329229,329695,34
15,test,1,inc,1,z,Tue May 20 2025 17:42:46 GMT-0500 (Central Daylight Time),337158.10000002384,iron,900,I,z,z,None,678,478.0,200.0,46,2,2111.2000000476837,335046.89999997616,8018,pear,NF,C,331328,331328,329700,330612,329700,331811,331128,331128,331811,35
16,test,1,con,1,z,Tue May 20 2025 17:42:46 GMT-0500 (Central Daylight Time),339307.2999999523,banana,1100,I,z,z,None,506,306.0,200.0,4,2,2145.399999976158,337161.89999997616,8018,banana,NF,C,333644,333644,331815,332928,331815,333960,333444,333444,333960,36
16,test,1,con,0,m,Tue May 20 2025 17:42:46 GMT-0500 (Central Daylight Time),342639.7999999523,iron,800,I,None,None,None,1799,1799.0,199.0,105,2,3328.5,339311.2999999523,8018,iron,NF,C,335494,335494,333964,334777,333965,337293,335294,335294,337293,37
17,test,1,con,1,z,Tue May 20 2025 17:42:46 GMT-0500 (Central Daylight Time),344439.10000002384,orange,800,I,z,z,None,460,260.0,200.0,17,2,1795.5,342643.60000002384,8018,orange,NF,C,338826,338826,337297,338109,337297,339092,338626,338626,339092,38
18,test,1,inc,1,z,Tue May 20 2025 17:42:46 GMT-0500 (Central Daylight Time),346421.7999999523,bronze,800,I,z,z,None,636,437.0,199.0,13,2,1978.8999999761581,344442.89999997616,8018,cherry,NF,C,340625,340625,339096,339909,339096,341075,340425,340426,341075,39
18,test,1,inc,0,m,Tue May 20 2025 17:42:46 GMT-0500 (Central Daylight Time),349853.89999997616,cherry,900,I,None,None,None,1799,1799.0,200.0,78,2,3428.0,346425.89999997616,8018,copper,NF,C,342708,342708,341079,341992,341079,344507,342508,342508,344507,40
18,test,1,inc,0,m,Tue May 20 2025 17:42:46 GMT-0500 (Central Daylight Time),353386.2999999523,kiwi,1000,I,None,None,None,1799,1799.0,200.0,119,2,3528.6999999284744,349857.60000002384,8018,zinc,NF,C,346240,346240,344511,345524,344511,348039,346040,346040,348039,41
19,test,1,inc,1,z,Tue May 20 2025 17:42:46 GMT-0500 (Central Daylight Time),355318.89999997616,gold,800,I,z,z,None,593,394.0,199.0,37,2,1928.7000000476837,353390.1999999285,8018,lime,NF,C,349572,349572,348043,348856,348044,349972,349372,349373,349972,42
19,test,1,con,0,m,Tue May 20 2025 17:42:46 GMT-0500 (Central Daylight Time),358851.39999997616,copper,1000,I,None,None,None,1799,1799.0,200.0,75,2,3528.7999999523163,355322.60000002384,8018,copper,NF,C,351705,351705,349976,350989,349976,353504,351505,351505,353504,43
20,test,1,inc,1,z,Tue May 20 2025 17:42:46 GMT-0500 (Central Daylight Time),360933.89999997616,iron,900,I,z,z,None,635,436.0,199.0,62,2,2078.7999999523163,358855.10000002384,8018,plum,NF,C,355138,355138,353508,354421,353508,355587,354938,354938,355587,44
21,test,1,con,1,z,Tue May 20 2025 17:42:46 GMT-0500 (Central Daylight Time),363149.89999997616,orange,900,I,z,z,None,778,578.0,200.0,18,2,2212.0,360937.89999997616,8018,orange,NF,C,357220,357220,355591,356504,355591,357803,357020,357020,357803,45
21,test,1,con,0,m,Tue May 20 2025 17:42:46 GMT-0500 (Central Daylight Time),366899.0,gold,1100,I,None,None,None,1799,1799.0,199.0,100,2,3745.3000000715256,363153.6999999285,8018,gold,NF,C,359753,359753,357807,359049,357807,361552,359553,359553,361552,46
21,test,1,con,0,m,Tue May 20 2025 17:42:46 GMT-0500 (Central Daylight Time),370331.0,zinc,900,I,None,None,None,1799,1799.0,200.0,114,2,3427.899999976158,366903.10000002384,8018,zinc,NF,C,363185,363185,361556,362468,361556,364984,362985,362985,364984,47
22,test,1,inc,1,z,Tue May 20 2025 17:42:46 GMT-0500 (Central Daylight Time),372246.7999999523,gold,800,I,z,z,None,568,369.0,199.0,45,2,1912.0,370334.7999999523,8018,pear,NF,C,366517,366517,364988,365801,364988,366900,366318,366318,366900,48
23,test,1,inc,1,z,Tue May 20 2025 17:42:46 GMT-0500 (Central Daylight Time),374362.89999997616,zinc,1000,I,z,z,None,573,373.0,200.0,55,2,2112.5,372250.39999997616,8018,kiwi,NF,C,368633,368633,366903,367917,366904,369016,368433,368433,369016,49
23,test,1,con,0,m,Tue May 20 2025 17:42:46 GMT-0500 (Central Daylight Time),377695.39999997616,cobalt,800,I,None,None,None,1799,1799.0,200.0,89,2,3328.600000023842,374366.7999999523,8018,cobalt,NF,C,370549,370549,369020,369833,369020,372348,370349,370349,372348,50
24,test,1,inc,1,z,Tue May 20 2025 17:42:46 GMT-0500 (Central Daylight Time),379628.0,gold,800,I,z,z,None,596,397.0,199.0,53,2,1928.7000000476837,377699.2999999523,8018,kiwi,NF,C,373881,373881,372352,373165,372353,374281,373682,373682,374281,51
24,test,1,con,0,m,Tue May 20 2025 17:42:46 GMT-0500 (Central Daylight Time),381577.39999997616,zinc,800,I,z,z,None,608,408.0,200.0,113,2,1945.5,379631.89999997616,8018,zinc,NF,C,375814,375814,374285,375098,374285,376230,375614,375614,376230,52
25,test,1,inc,1,z,Tue May 20 2025 17:42:46 GMT-0500 (Central Daylight Time),383643.5,copper,900,I,z,z,None,621,422.0,199.0,22,2,2062.2000000476837,381581.2999999523,8018,orange,NF,C,377864,377864,376234,377147,376235,378297,377664,377664,378297,53
25,test,1,inc,0,m,Tue May 20 2025 17:42:46 GMT-0500 (Central Daylight Time),386975.6999999285,lime,800,I,None,None,None,1800,1800.0,199.0,109,2,3328.2999999523163,383647.39999997616,8018,iron,NF,C,379829,379829,378300,379113,378301,381629,379630,379630,381629,54
26,test,1,inc,1,z,Tue May 20 2025 17:42:46 GMT-0500 (Central Daylight Time),389225.0,zinc,1000,I,z,z,None,600,400.0,200.0,47,2,2245.399999976158,386979.60000002384,8018,pear,NF,C,383462,383462,381633,382756,381633,383878,383262,383262,383878,55
26,test,1,con,0,m,Tue May 20 2025 17:42:46 GMT-0500 (Central Daylight Time),392557.39999997616,bronze,800,I,None,None,None,1799,1799.0,200.0,65,2,3328.2999999523163,389229.10000002384,8018,bronze,NF,C,385411,385411,383882,384695,383882,387211,385211,385211,387210,56
27,test,1,inc,1,z,Tue May 20 2025 17:42:46 GMT-0500 (Central Daylight Time),394706.60000002384,zinc,1000,I,z,z,None,614,415.0,199.0,63,2,2145.3000000715256,392561.2999999523,8018,plum,NF,C,388943,388943,387214,388227,387215,389360,388744,388744,389360,57
28,test,1,con,1,z,Tue May 20 2025 17:42:46 GMT-0500 (Central Daylight Time),396805.89999997616,plum,1000,I,z,z,None,560,361.0,199.0,59,2,2095.7000000476837,394710.1999999285,8018,plum,NF,C,391093,391093,389363,390376,389364,391459,390893,390893,391459,58
28,test,1,con,0,m,Tue May 20 2025 17:42:46 GMT-0500 (Central Daylight Time),400238.2999999523,copper,900,I,None,None,None,1799,1799.0,200.0,74,2,3428.399999976158,396809.89999997616,8018,copper,NF,C,393092,393092,391463,392376,391463,394891,392892,392892,394891,59
29,test,1,con,1,z,Tue May 20 2025 17:42:46 GMT-0500 (Central Daylight Time),402354.1999999285,raisin,1100,I,z,z,None,474,274.0,200.0,28,2,2112.0999999046326,400242.10000002384,8018,raisin,NF,C,396724,396724,394895,396008,394895,397007,396524,396524,397007,60
29,test,1,inc,0,m,Tue May 20 2025 17:42:46 GMT-0500 (Central Daylight Time),405886.6999999285,kiwi,1000,I,None,None,None,1800,1800.0,200.0,127,2,3528.5999999046326,402358.10000002384,8018,lead,NF,C,398740,398740,397011,398024,397011,400540,398540,398540,400540,61
30,test,1,inc,1,z,Tue May 20 2025 17:42:46 GMT-0500 (Central Daylight Time),408135.60000002384,cobalt,1100,I,z,z,None,599,400.0,199.0,32,2,2245.0,405890.60000002384,8018,raisin,NF,C,402373,402373,400544,401656,400544,402789,402173,402173,402789,62
31,test,1,con,1,z,Tue May 20 2025 17:42:46 GMT-0500 (Central Daylight Time),410118.2999999523,banana,800,I,z,z,None,635,436.0,199.0,1,2,1978.6999999284744,408139.60000002384,8018,banana,NF,C,404322,404322,402793,403606,402793,404771,404122,404122,404771,63
32,test,1,inc,1,z,Tue May 20 2025 17:42:46 GMT-0500 (Central Daylight Time),412351.10000002384,lead,1100,I,z,z,None,584,369.0,215.0,56,2,2229.2000000476837,410121.89999997616,8018,kiwi,NF,C,406621,406621,404775,405888,404775,407004,406406,406406,407004,64
33,test,1,con,1,z,Tue May 20 2025 17:42:46 GMT-0500 (Central Daylight Time),414183.6999999285,cherry,800,I,z,z,None,493,293.0,200.0,9,2,1828.7999999523163,412354.89999997616,8018,cherry,NF,C,408537,408537,407008,407821,407008,408837,408337,408337,408837,65
33,test,1,inc,0,m,Tue May 20 2025 17:42:46 GMT-0500 (Central Daylight Time),417816.1999999285,raisin,1100,I,None,None,None,1799,1799.0,200.0,72,2,3628.5999999046326,414187.60000002384,8018,bronze,NF,C,410670,410670,408841,409954,408841,412469,410470,410470,412469,66
34,test,1,inc,1,z,Tue May 20 2025 17:42:46 GMT-0500 (Central Daylight Time),419832.10000002384,copper,900,I,z,z,None,568,368.0,200.0,30,2,2012.1000000238419,417820.0,8018,raisin,NF,C,414102,414102,412473,413386,412473,414485,413902,413902,414485,67
34,test,1,con,0,m,Tue May 20 2025 17:42:46 GMT-0500 (Central Daylight Time),423364.5,silver,1000,I,None,None,None,1799,1799.0,199.0,83,2,3528.399999976158,419836.10000002384,8018,silver,NF,C,416218,416218,414489,415502,414490,418018,416019,416019,418018,68
35,test,1,con,1,z,Tue May 20 2025 17:42:46 GMT-0500 (Central Daylight Time),425596.89999997616,orange,1100,I,z,z,None,586,387.0,199.0,20,2,2228.5,423368.39999997616,8018,orange,NF,C,419851,419851,418021,419134,418022,420250,419651,419651,420250,69
35,test,1,inc,0,m,Tue May 20 2025 17:42:46 GMT-0500 (Central Daylight Time),429229.10000002384,plum,1100,I,None,None,None,1799,1799.0,200.0,104,2,3628.4000000953674,425600.6999999285,8018,gold,NF,C,422083,422083,420254,421367,420254,423882,421883,421883,423882,70
36,test,1,con,1,z,Tue May 20 2025 17:42:46 GMT-0500 (Central Daylight Time),431163.0,kiwi,800,I,z,z,None,598,399.0,199.0,49,2,1930.0,429233.0,8018,kiwi,NF,C,425415,425415,423886,424699,423886,425816,425216,425216,425816,71
36,test,1,con,0,m,Tue May 20 2025 17:42:46 GMT-0500 (Central Daylight Time),434794.2999999523,cobalt,1100,I,None,None,None,1799,1799.0,200.0,92,2,3627.399999976158,431166.89999997616,8018,cobalt,NF,C,427648,427648,425820,426931,425820,429447,427448,427448,429447,72
37,test,1,inc,1,z,Tue May 20 2025 17:42:46 GMT-0500 (Central Daylight Time),436860.1999999285,silver,1000,I,z,z,None,530,330.0,200.0,7,2,2062.1999999284744,434798.0,8018,banana,NF,C,431180,431180,429451,430464,429451,431513,430980,430980,431513,73
38,test,1,inc,1,z,Tue May 20 2025 17:42:46 GMT-0500 (Central Daylight Time),438892.7999999523,silver,1000,I,z,z,None,488,288.0,200.0,31,2,2028.6000000238419,436864.1999999285,8018,raisin,NF,C,433246,433246,431517,432530,431518,433546,433046,433046,433546,74
38,test,1,con,0,m,Tue May 20 2025 17:42:46 GMT-0500 (Central Daylight Time),442425.0,zinc,1000,I,None,None,None,1799,1799.0,200.0,115,2,3528.0,438897.0,8018,zinc,NF,C,435279,435279,433550,434562,433550,437078,435079,435079,437078,75
38,test,1,inc,0,m,Tue May 20 2025 17:42:46 GMT-0500 (Central Daylight Time),445857.1999999285,pear,900,I,None,None,None,1799,1799.0,200.0,110,2,3428.5,442428.6999999285,8018,iron,NF,C,438711,438711,437082,437995,437082,440510,438511,438511,440510,76
39,test,1,con,1,z,Tue May 20 2025 17:42:46 GMT-0500 (Central Daylight Time),447956.7999999523,pear,1100,I,z,z,None,462,262.0,200.0,44,2,2095.600000023842,445861.1999999285,8018,pear,NF,C,442343,442344,440514,441627,440515,442610,442143,442143,442610,77
40,test,1,con,1,z,Tue May 20 2025 17:42:46 GMT-0500 (Central Daylight Time),449822.7999999523,pear,800,I,z,z,None,527,327.0,200.0,41,2,1862.3999999761581,447960.39999997616,8018,pear,NF,C,444143,444143,442613,443427,442614,444476,443943,443943,444476,78
40,test,1,inc,0,m,Tue May 20 2025 17:42:46 GMT-0500 (Central Daylight Time),453155.0,lime,800,I,None,None,None,1799,1799.0,200.0,101,2,3328.2000000476837,449826.7999999523,8018,gold,NF,C,446009,446009,444480,445292,444480,447808,445809,445809,447808,79
41,test,1,con,1,z,Tue May 20 2025 17:42:46 GMT-0500 (Central Daylight Time),455037.6999999285,lime,900,I,z,z,None,445,245.0,200.0,34,2,1878.8999999761581,453158.7999999523,8018,lime,NF,C,449441,449441,447812,448725,447812,449691,449241,449241,449691,80
41,test,1,inc,0,m,Tue May 20 2025 17:42:46 GMT-0500 (Central Daylight Time),458670.10000002384,plum,1100,I,None,None,None,1799,1799.0,199.0,128,2,3628.7000000476837,455041.39999997616,8018,lead,NF,C,451524,451524,449694,450807,449695,453323,451324,451324,453323,81
41,test,1,con,0,m,Tue May 20 2025 17:42:46 GMT-0500 (Central Daylight Time),462102.39999997616,bronze,900,I,None,None,None,1799,1799.0,200.0,66,2,3428.2999999523163,458674.10000002384,8018,bronze,NF,C,454956,454956,453327,454240,453327,456755,454756,454756,456755,82
42,test,1,con,1,z,Tue May 20 2025 17:42:46 GMT-0500 (Central Daylight Time),464301.5,pear,1000,I,z,z,None,653,454.0,199.0,43,2,2195.3000000715256,462106.1999999285,8018,pear,NF,C,458488,458488,456759,457772,456759,458955,458289,458289,458955,83
43,test,1,con,1,z,Tue May 20 2025 17:42:46 GMT-0500 (Central Daylight Time),466350.6999999285,banana,900,I,z,z,None,601,402.0,199.0,2,2,2044.7999999523163,464305.89999997616,8018,banana,NF,C,460588,460588,458959,459871,458959,461004,460388,460388,461004,84
43,test,1,con,0,m,Tue May 20 2025 17:42:46 GMT-0500 (Central Daylight Time),469683.5,gold,800,I,None,None,None,1799,1799.0,200.0,97,2,3328.899999976158,466354.60000002384,8018,gold,NF,C,462537,462537,461008,461821,461008,464337,462337,462337,464337,85
43,test,1,con,0,m,Tue May 20 2025 17:42:46 GMT-0500 (Central Daylight Time),473115.7999999523,cobalt,900,I,None,None,None,1800,1800.0,200.0,90,2,3428.399999976158,469687.39999997616,8018,cobalt,NF,C,465969,465969,464340,465253,464341,467769,465769,465769,467769,86
44,test,1,inc,1,z,Tue May 20 2025 17:42:46 GMT-0500 (Central Daylight Time),475298.1999999285,cobalt,1100,I,z,z,None,540,340.0,200.0,16,2,2178.7999999523163,473119.39999997616,8018,cherry,NF,C,469602,469602,467772,468885,467773,469951,469401,469401,469951,87
44,test,1,con,0,m,Tue May 20 2025 17:42:46 GMT-0500 (Central Daylight Time),477564.0,lead,1000,I,z,z,None,730,530.0,200.0,123,2,2262.100000023842,475301.89999997616,8018,lead,NF,C,471684,471684,469955,470968,469955,472217,471484,471484,472217,88
45,test,1,inc,1,z,Tue May 20 2025 17:42:46 GMT-0500 (Central Daylight Time),479913.2999999523,zinc,1000,I,z,z,None,816,616.0,200.0,39,2,2345.5,477567.7999999523,8018,lime,NF,C,473950,473950,472221,473234,472221,474566,473750,473750,474566,89
45,test,1,inc,0,m,Tue May 20 2025 17:42:46 GMT-0500 (Central Daylight Time),483245.60000002384,banana,800,I,None,None,None,1799,1799.0,199.0,69,2,3328.5,479917.10000002384,8018,bronze,NF,C,476100,476100,474570,475383,474570,477899,475900,475900,477899,90
46,test,1,inc,1,z,Tue May 20 2025 17:42:46 GMT-0500 (Central Daylight Time),485428.5,lead,1100,I,z,z,None,545,346.0,199.0,48,2,2179.100000023842,483249.39999997616,8018,pear,NF,C,479732,479732,477902,479015,477903,480082,479532,479532,480081,91
46,test,1,con,0,m,Tue May 20 2025 17:42:46 GMT-0500 (Central Daylight Time),488860.60000002384,silver,900,I,None,None,None,1800,1800.0,200.0,82,2,3428.3000000715256,485432.2999999523,8018,silver,NF,C,481714,481714,480085,480998,480086,483514,481514,481514,483514,92
46,test,1,inc,0,m,Tue May 20 2025 17:42:46 GMT-0500 (Central Daylight Time),492409.39999997616,orange,1000,I,None,None,None,1815,1815.0,199.0,71,2,3544.899999976158,488864.5,8018,bronze,NF,C,485247,485247,483518,484530,483518,487062,485047,485047,487062,93
46,test,1,con,0,m,Tue May 20 2025 17:42:46 GMT-0500 (Central Daylight Time),495741.6999999285,lead,800,I,None,None,None,1799,1799.0,200.0,121,2,3328.0,492413.6999999285,8018,lead,NF,C,488595,488596,487067,487879,487067,490395,488395,488395,490395,94
47,test,1,con,1,z,Tue May 20 2025 17:42:46 GMT-0500 (Central Daylight Time),497657.89999997616,raisin,800,I,z,z,None,574,374.0,200.0,25,2,1912.7000000476837,495745.1999999285,8018,raisin,NF,C,491928,491928,490398,491212,490399,492311,491728,491728,492311,95
48,test,1,con,1,z,Tue May 20 2025 17:42:46 GMT-0500 (Central Daylight Time),499457.10000002384,plum,800,I,z,z,None,450,250.0,200.0,57,2,1795.6000000238419,497661.5,8018,plum,NF,C,493844,493844,492315,493127,492315,494110,493644,493644,494110,96
49,test,1,inc,1,z,Tue May 20 2025 17:42:46 GMT-0500 (Central Daylight Time),501939.89999997616,cobalt,1100,I,z,z,None,839,639.0,200.0,24,2,2479.2000000476837,499460.6999999285,8018,orange,NF,C,495943,495943,494114,495227,494114,496593,495743,495743,496593,97
50,test,1,con,1,z,Tue May 20 2025 17:42:46 GMT-0500 (Central Daylight Time),503822.2999999523,plum,900,I,z,z,None,443,244.0,199.0,58,2,1878.6999999284744,501943.60000002384,8018,plum,NF,C,498226,498226,496597,497509,496597,498475,498026,498026,498475,98
50,test,1,inc,0,m,Tue May 20 2025 17:42:46 GMT-0500 (Central Daylight Time),507254.7999999523,pear,900,I,None,None,None,1799,1799.0,199.0,126,2,3428.5,503826.2999999523,8018,lead,NF,C,500109,500109,498479,499393,498480,501908,499909,499909,501908,99
51,test,1,inc,1,z,Tue May 20 2025 17:42:46 GMT-0500 (Central Daylight Time),509137.39999997616,bronze,800,I,z,z,None,565,366.0,199.0,21,2,1878.8999999761581,507258.5,8018,orange,NF,C,503424,503424,501912,502724,501912,503790,503225,503225,503790,100
52,test,1,inc,1,z,Tue May 20 2025 17:42:46 GMT-0500 (Central Daylight Time),511253.39999997616,silver,1000,I,z,z,None,577,378.0,199.0,15,2,2112.2000000476837,509141.1999999285,8018,cherry,NF,C,505524,505524,503794,504807,503795,505906,505324,505324,505906,101
52,test,1,inc,0,m,Tue May 20 2025 17:42:46 GMT-0500 (Central Daylight Time),514885.39999997616,plum,1100,I,None,None,None,1799,1799.0,199.0,112,2,3628.2000000476837,511257.1999999285,8018,iron,NF,C,507739,507739,505910,507023,505910,509539,507540,507540,509538,102
53,test,1,con,1,z,Tue May 20 2025 17:42:46 GMT-0500 (Central Daylight Time),516768.5,kiwi,900,I,z,z,None,433,234.0,199.0,50,2,1879.1000000238419,514889.39999997616,8018,kiwi,NF,C,511172,511172,509542,510455,509543,511422,510972,510972,511422,103
54,test,1,inc,1,z,Tue May 20 2025 17:42:46 GMT-0500 (Central Daylight Time),518851.0,silver,1000,I,z,z,None,548,348.0,200.0,23,2,2078.8000000715256,516772.1999999285,8018,orange,NF,C,513154,513154,511425,512438,511425,513504,512954,512954,513504,104
55,test,1,con,1,z,Tue May 20 2025 17:42:46 GMT-0500 (Central Daylight Time),520867.10000002384,banana,1000,I,z,z,None,480,280.0,200.0,3,2,2012.4000000953674,518854.6999999285,8018,banana,NF,C,515238,515238,513508,514521,513508,515520,515037,515037,515520,105
55,test,1,inc,0,m,Tue May 20 2025 17:42:46 GMT-0500 (Central Daylight Time),524316.2999999523,cherry,900,I,None,None,None,1815,1815.0,199.0,94,2,3445.2999999523163,520871.0,8018,cobalt,NF,C,517153,517154,515524,516437,515524,518969,516954,516954,518969,106
56,test,1,con,1,z,Tue May 20 2025 17:42:46 GMT-0500 (Central Daylight Time),526382.1999999285,raisin,900,I,z,z,None,628,428.0,200.0,26,2,2062.1999999284744,524320.0,8018,raisin,NF,C,520602,520602,518973,519886,518973,521035,520402,520402,521035,107
56,test,1,con,0,m,Tue May 20 2025 17:42:46 GMT-0500 (Central Daylight Time),530014.3999999762,silver,1100,I,None,None,None,1799,1799.0,200.0,84,2,3627.7999999523163,526386.6000000238,8018,silver,NF,C,522868,522868,521040,522151,521040,524667,522668,522668,524667,108
56,test,1,con,0,m,Tue May 20 2025 17:42:46 GMT-0500 (Central Daylight Time),533462.7999999523,iron,900,I,None,None,None,1815,1815.0,199.0,106,2,3444.399999976158,530018.3999999762,8018,iron,NF,C,526301,526301,524671,525584,524672,528116,526101,526101,528116,109
56,test,1,inc,0,m,Tue May 20 2025 17:42:46 GMT-0500 (Central Daylight Time),536812.2999999523,banana,800,I,None,None,None,1815,1815.0,200.0,93,2,3345.600000023842,533466.6999999285,8018,cobalt,NF,C,529649,529650,528120,528933,528120,531465,529449,529449,531465,110
57,test,1,con,1,z,Tue May 20 2025 17:42:46 GMT-0500 (Central Daylight Time),538911.3999999762,kiwi,1100,I,z,z,None,452,252.0,200.0,52,2,2094.899999976158,536816.5,8018,kiwi,NF,C,533298,533298,531470,532582,531470,533564,533098,533098,533564,111
58,test,1,con,1,z,Tue May 20 2025 17:42:46 GMT-0500 (Central Daylight Time),540977.5,raisin,1000,I,z,z,None,515,316.0,199.0,27,2,2062.100000023842,538915.3999999762,8018,raisin,NF,C,535298,535298,533568,534581,533569,535631,535098,535098,535630,112
59,test,1,inc,1,z,Tue May 20 2025 17:42:46 GMT-0500 (Central Daylight Time),542960.1999999285,gold,800,I,z,z,None,633,434.0,199.0,61,2,1978.6999999284744,540981.5,8018,plum,NF,C,537164,537164,535635,536447,535635,537613,536964,536964,537613,113
60,test,1,con,1,z,Tue May 20 2025 17:42:46 GMT-0500 (Central Daylight Time),544809.5,cherry,900,I,z,z,None,415,216.0,199.0,10,2,1845.5,542964.0,8018,cherry,NF,C,539246,539246,537617,538531,537617,539463,539046,539047,539463,114
61,test,1,inc,1,z,Tue May 20 2025 17:42:46 GMT-0500 (Central Daylight Time),547075.6000000238,lead,1100,I,z,z,None,621,422.0,199.0,64,2,2262.600000023842,544813.0,8018,plum,NF,C,541296,541296,539466,540579,539466,541729,541096,541096,541729,115
61,test,1,con,0,m,Tue May 20 2025 17:42:46 GMT-0500 (Central Daylight Time),550607.7999999523,bronze,1000,I,None,None,None,1799,1799.0,199.0,67,2,3528.399999976158,547079.3999999762,8018,bronze,NF,C,543462,543462,541732,542745,541733,545261,543262,543262,545261,116
61,test,1,inc,0,m,Tue May 20 2025 17:42:46 GMT-0500 (Central Daylight Time),554256.6000000238,raisin,1100,I,None,None,None,1815,1815.0,200.0,80,2,3645.0,550611.6000000238,8018,copper,NF,C,547095,547095,545265,546377,545265,548910,546894,546894,548910,117
61,test,1,inc,0,m,Tue May 20 2025 17:42:46 GMT-0500 (Central Daylight Time),557589.1000000238,banana,800,I,None,None,None,1799,1799.0,200.0,77,2,3328.7000000476837,554260.3999999762,8018,copper,NF,C,550443,550443,548913,549726,548914,552242,550243,550243,552242,118
61,test,1,inc,0,m,Tue May 20 2025 17:42:46 GMT-0500 (Central Daylight Time),561121.2999999523,orange,1000,I,None,None,None,1799,1799.0,200.0,79,2,3528.600000023842,557592.6999999285,8018,copper,NF,C,553975,553975,552246,553259,552246,555774,553775,553775,555774,119
62,test,1,inc,1,z,Tue May 20 2025 17:42:46 GMT-0500 (Central Daylight Time),563370.3999999762,cobalt,1100,I,z,z,None,614,415.0,199.0,8,2,2245.2000000476837,561125.1999999285,8018,banana,NF,C,557607,557607,555778,556891,555779,558024,557407,557408,558023,120
62,test,1,inc,0,m,Tue May 20 2025 17:42:46 GMT-0500 (Central Daylight Time),566802.6999999285,cherry,900,I,None,None,None,1800,1800.0,199.0,86,2,3428.5999999046326,563374.1000000238,8018,silver,NF,C,559656,559656,558027,558940,558027,561456,559457,559457,561456,121
62,test,1,inc,0,m,Tue May 20 2025 17:42:46 GMT-0500 (Central Daylight Time),570434.8999999762,raisin,1100,I,None,None,None,1799,1799.0,199.0,88,2,3628.600000023842,566806.2999999523,8018,silver,NF,C,563289,563289,561459,562572,561460,565088,563090,563090,565088,122
62,test,1,inc,0,m,Tue May 20 2025 17:42:46 GMT-0500 (Central Daylight Time),573967.1999999285,kiwi,1000,I,None,None,None,1799,1799.0,200.0,111,2,3528.5,570438.6999999285,8018,iron,NF,C,566821,566821,565092,566104,565092,568620,566621,566621,568620,123
62,test,1,con,0,m,Tue May 20 2025 17:42:46 GMT-0500 (Central Daylight Time),577599.6000000238,bronze,1100,I,None,None,None,1800,1800.0,200.0,68,2,3628.5,573971.1000000238,8018,bronze,NF,C,570453,570453,568624,569737,568624,572253,570253,570253,572253,124
62,test,1,con,0,m,Tue May 20 2025 17:42:46 GMT-0500 (Central Daylight Time),581231.5,copper,1100,I,None,None,None,1800,1800.0,199.0,76,2,3628.2000000476837,577603.2999999523,8018,copper,NF,C,574085,574085,572256,573369,572257,575885,573886,573886,575885,125
62,test,1,inc,0,m,Tue May 20 2025 17:42:46 GMT-0500 (Central Daylight Time),584763.7999999523,orange,1000,I,None,None,None,1799,1799.0,199.0,95,2,3528.2999999523163,581235.5,8018,cobalt,NF,C,577618,577618,575889,576901,575889,579417,577418,577418,579417,126
63,test,1,con,1,z,Tue May 20 2025 17:42:46 GMT-0500 (Central Daylight Time),586663.1000000238,pear,900,I,z,z,None,460,260.0,200.0,42,2,1895.5,584767.6000000238,8018,pear,NF,C,581050,581050,579421,580333,579421,581316,580850,580850,581316,127
64,test,1,inc,1,z,Tue May 20 2025 17:42:46 GMT-0500 (Central Daylight Time),588929.1999999285,lead,1100,I,z,z,None,632,433.0,199.0,40,2,2262.5,586666.6999999285,8018,lime,NF,C,583149,583149,581320,582433,581320,583582,582950,582950,583582,128
