acc_sum,block,block_c,condition,correct,correct_response,datetime,endtime,flanker,jitter,project,response,response_test_buffer_response,response_test_target_response,response_time,response_time_test_buffer_response,response_time_test_target_response,row_sel,session_number,start_end,starttime,subject_id,target,task,task_vers,time_test_buffer,time_test_buffer_response,time_test_constants,time_test_flanker,time_test_jitter,time_test_logger,time_test_target,time_test_target_response,time_test_variables,trial
1,prac,1,inc,1,z,Fri Mar 06 2026 14:44:56 GMT-0600 (Central Standard Time),152655.29999998212,napkin,1100,O,z,,,1367,,,12,,3778.399999976158,148876.90000000596,7755,friend,AF,B,,,,,,,,,,1
2,prac,1,inc,1,z,Fri Mar 06 2026 14:44:56 GMT-0600 (Central Standard Time),155688.59999999404,rock,900,O,z,,,818,,,10,,3029.5,152659.09999999404,7755,kind,AF,B,,,,,,,,,,2
3,prac,1,inc,1,z,Fri Mar 06 2026 14:44:56 GMT-0600 (Central Standard Time),158736.40000000596,film,900,O,z,,,857,,,14,,3042.7000000178814,155693.69999998808,7755,hate,AF,B,,,,,,,,,,3
4,prac,1,inc,1,z,Fri Mar 06 2026 14:44:56 GMT-0600 (Central Standard Time),162252.5,window,1100,O,z,,,1127,,,16,,3512.300000011921,158740.19999998808,7755,temper,AF,B,,,,,,,,,,4
4,prac,1,con,0,z,Fri Mar 06 2026 14:44:56 GMT-0600 (Central Standard Time),165607.69999998808,brutal,800,O,m,,,1265,,,13,,3351.0999999940395,162256.59999999404,7755,brutal,AF,B,,,,,,,,,,5
5,prac,1,con,1,z,Fri Mar 06 2026 14:44:56 GMT-0600 (Central Standard Time),168799.69999998808,love,1000,O,z,,,883,,,11,,3188.4000000059605,165611.29999998212,7755,love,AF,B,,,,,,,,,,6
6,prac,1,inc,1,m,Fri Mar 06 2026 14:44:56 GMT-0600 (Central Standard Time),171981.90000000596,hate,1100,O,m,,,769,,,4,,3178.4000000059605,168803.5,7755,film,AF,B,,,,,,,,,,7
7,prac,1,con,1,m,Fri Mar 06 2026 14:44:56 GMT-0600 (Central Standard Time),175014.29999998212,step,800,O,m,,,919,,,1,,3029.199999988079,171985.09999999404,7755,step,AF,B,,,,,,,,,,8
8,prac,1,con,1,m,Fri Mar 06 2026 14:44:56 GMT-0600 (Central Standard Time),178196.40000000596,bell,1000,O,m,,,870,,,3,,3178.7000000178814,175017.69999998808,7755,bell,AF,B,,,,,,,,,,9
9,prac,1,inc,1,m,Fri Mar 06 2026 14:44:56 GMT-0600 (Central Standard Time),181429.90000000596,brutal,1100,O,m,,,820,,,8,,3229.7000000178814,178200.19999998808,7755,window,AF,B,,,,,,,,,,10
10,prac,1,con,1,m,Fri Mar 06 2026 14:44:56 GMT-0600 (Central Standard Time),184827.90000000596,remote,1000,O,m,,,1096,,,7,,3394.600000023842,181433.29999998212,7755,remote,AF,B,,,,,,,,,,11
11,prac,1,con,1,z,Fri Mar 06 2026 14:44:56 GMT-0600 (Central Standard Time),188060.90000000596,rage,1000,O,z,,,921,,,15,,3229.7000000178814,184831.19999998808,7755,rage,AF,B,,,,,,,,,,12
12,prac,1,con,1,z,Fri Mar 06 2026 14:44:56 GMT-0600 (Central Standard Time),190942.59999999404,elated,800,O,z,,,777,,,9,,2878.800000011921,188063.79999998212,7755,elated,AF,B,,,,,,,,,,13
13,prac,1,inc,1,m,Fri Mar 06 2026 14:44:56 GMT-0600 (Central Standard Time),194092.0,elated,900,O,m,,,945,,,6,,3146.300000011921,190945.69999998808,7755,napkin,AF,B,,,,,,,,,,14
14,prac,1,inc,1,m,Fri Mar 06 2026 14:44:56 GMT-0600 (Central Standard Time),197158.19999998808,kind,900,O,m,,,860,,,2,,3063.0,194095.19999998808,7755,rock,AF,B,,,,,,,,,,15
15,prac,1,con,1,m,Fri Mar 06 2026 14:44:56 GMT-0600 (Central Standard Time),200023.0,jacket,800,O,m,,,760,,,5,,2861.5999999940395,197161.40000000596,7755,jacket,AF,B,,,,,,,,,,16
1,test,1,con,1,z,Fri Mar 06 2026 14:44:56 GMT-0600 (Central Standard Time),221616.29999998212,love,1000,O,z,z,None,718,517.0,201.0,19,,2262.2999999821186,219354.0,7755,love,AF,B,217298,217298,215567,216581,215567,217829,217096,217096,217829,1
2,test,1,inc,1,z,Fri Mar 06 2026 14:44:56 GMT-0600 (Central Standard Time),224065.59999999404,film,1100,O,z,z,None,799,600.0,199.0,56,,2446.199999988079,221619.40000000596,7755,rage,AF,B,219663,219663,217832,218946,217833,220279,219463,219463,220279,2
3,test,1,con,1,m,Fri Mar 06 2026 14:44:56 GMT-0600 (Central Standard Time),226298.79999998212,rock,1100,O,m,m,None,598,383.0,215.0,76,,2230.399999976158,224068.40000000596,7755,rock,AF,B,222128,222128,220281,221396,220282,222512,221913,221913,222512,3
4,test,1,con,1,m,Fri Mar 06 2026 14:44:56 GMT-0600 (Central Standard Time),228647.19999998808,film,1000,O,m,m,None,802,602.0,200.0,91,,2345.5,226301.69999998808,7755,film,AF,B,224245,224245,222515,223528,222515,224860,224044,224044,224860,4
5,test,1,inc,1,z,Fri Mar 06 2026 14:44:56 GMT-0600 (Central Standard Time),231030.29999998212,remote,1000,O,z,z,None,845,646.0,199.0,7,,2380.199999988079,228650.09999999404,7755,elated,AF,B,226593,226593,224863,225877,224863,227243,226394,226394,227243,5
6,test,1,con,1,z,Fri Mar 06 2026 14:44:56 GMT-0600 (Central Standard Time),233245.40000000596,elated,1100,O,z,z,None,579,379.0,200.0,4,,2212.2000000178814,231033.19999998808,7755,elated,AF,B,229076,229076,227246,228360,227247,229459,228876,228876,229458,6
7,test,1,inc,1,z,Fri Mar 06 2026 14:44:56 GMT-0600 (Central Standard Time),235462.0,step,800,O,z,z,None,877,678.0,199.0,45,,2213.5999999940395,233248.40000000596,7755,hate,AF,B,230993,230993,229461,230276,229462,231675,230793,230793,231675,7
8,test,1,con,1,z,Fri Mar 06 2026 14:44:56 GMT-0600 (Central Standard Time),237494.19999998808,friend,800,O,z,z,None,702,503.0,199.0,25,,2029.2999999821186,235464.90000000596,7755,friend,AF,B,233192,233192,231678,232491,231678,233707,232992,232992,233707,8
9,test,1,con,1,m,Fri Mar 06 2026 14:44:56 GMT-0600 (Central Standard Time),239895.90000000596,jacket,1000,O,m,m,None,855,655.0,200.0,99,,2398.7000000178814,237497.19999998808,7755,jacket,AF,B,235441,235441,233710,234725,233710,236109,235241,235241,236109,9
10,test,1,inc,1,z,Fri Mar 06 2026 14:44:56 GMT-0600 (Central Standard Time),242293.29999998212,remote,1000,O,z,z,None,862,646.0,216.0,63,,2392.399999976158,239900.90000000596,7755,temper,AF,B,237857,237857,236114,237124,236114,238506,237641,237641,238506,10
11,test,1,con,1,z,Fri Mar 06 2026 14:44:56 GMT-0600 (Central Standard Time),244443.0,friend,900,O,z,z,None,707,492.0,215.0,26,,2146.5999999940395,242296.40000000596,7755,friend,AF,B,240156,240156,238509,239423,238510,240656,239941,239941,240656,11
12,test,1,con,1,z,Fri Mar 06 2026 14:44:56 GMT-0600 (Central Standard Time),246558.09999999404,temper,900,O,z,z,None,668,453.0,215.0,58,,2111.9000000059605,244446.19999998808,7755,temper,AF,B,242305,242306,240659,241572,240659,242771,242090,242090,242771,12
13,test,1,con,1,z,Fri Mar 06 2026 14:44:56 GMT-0600 (Central Standard Time),248691.40000000596,kind,800,O,z,z,None,790,588.0,202.0,9,,2130.4000000059605,246561.0,7755,kind,AF,B,244308,244308,242774,243589,242774,244904,244105,244105,244904,13
14,test,1,con,1,z,Fri Mar 06 2026 14:44:56 GMT-0600 (Central Standard Time),250990.19999998808,kind,1000,O,z,z,None,762,563.0,199.0,11,,2295.9000000059605,248694.29999998212,7755,kind,AF,B,246637,246637,244907,245921,244908,247203,246438,246438,247203,14
15,test,1,inc,1,z,Fri Mar 06 2026 14:44:56 GMT-0600 (Central Standard Time),253440.29999998212,film,1100,O,z,z,None,811,610.0,201.0,24,,2447.0999999940395,250993.19999998808,7755,love,AF,B,249037,249037,247206,248320,247206,249653,248836,248836,249653,15
16,test,1,inc,1,m,Fri Mar 06 2026 14:44:56 GMT-0600 (Central Standard Time),255605.59999999404,brutal,900,O,m,m,None,723,522.0,201.0,110,,2161.5,253444.09999999404,7755,napkin,AF,B,251286,251286,249657,250569,249657,251819,251085,251085,251819,16
17,test,1,con,1,m,Fri Mar 06 2026 14:44:56 GMT-0600 (Central Standard Time),257920.59999999404,step,900,O,m,m,None,875,676.0,199.0,66,,2312.0999999940395,255608.5,7755,step,AF,B,253451,253451,251822,252735,251822,254134,253252,253252,254134,17
18,test,1,con,1,z,Fri Mar 06 2026 14:44:56 GMT-0600 (Central Standard Time),260188.0,elated,900,O,z,z,None,833,620.0,213.0,2,,2264.7000000178814,257923.29999998212,7755,elated,AF,B,255771,255771,254136,255052,254137,256401,255557,255557,256401,18
19,test,1,con,1,z,Fri Mar 06 2026 14:44:56 GMT-0600 (Central Standard Time),262437.1999999881,hate,900,O,z,z,None,805,606.0,199.0,42,,2245.699999988079,260191.5,7755,hate,AF,B,258033,258033,256405,257318,256405,258650,257834,257834,258650,19
20,test,1,inc,1,m,Fri Mar 06 2026 14:44:56 GMT-0600 (Central Standard Time),264518.90000000596,rage,800,O,m,m,None,744,544.0,200.0,93,,2079.0,262439.90000000596,7755,film,AF,B,260183,260183,258653,259467,258653,260732,259983,259983,260732,20
21,test,1,con,1,m,Fri Mar 06 2026 14:44:56 GMT-0600 (Central Standard Time),266903.6999999881,napkin,1000,O,m,m,None,851,652.0,199.0,107,,2381.2999999821186,264522.40000000596,7755,napkin,AF,B,262451,262451,260735,261749,260736,263117,262251,262251,263117,21
22,test,1,inc,1,m,Fri Mar 06 2026 14:44:56 GMT-0600 (Central Standard Time),269152.40000000596,kind,900,O,m,m,None,810,610.0,200.0,94,,2245.5,266906.90000000596,7755,film,AF,B,264749,264749,263120,264033,263120,265365,264549,264549,265365,22
23,test,1,inc,1,m,Fri Mar 06 2026 14:44:56 GMT-0600 (Central Standard Time),271317.59999999404,elated,800,O,m,m,None,836,622.0,214.0,109,,2162.0,269155.59999999404,7755,napkin,AF,B,266898,266898,265369,266180,265369,267531,266684,266684,267531,23
24,test,1,inc,1,m,Fri Mar 06 2026 14:44:56 GMT-0600 (Central Standard Time),273417.40000000596,elated,800,O,m,m,None,766,567.0,199.0,125,,2095.100000023842,271322.2999999821,7755,window,AF,B,269048,269048,267535,268347,267536,269630,268848,268848,269630,24
25,test,1,con,1,m,Fri Mar 06 2026 14:44:56 GMT-0600 (Central Standard Time),275716.7999999821,napkin,1100,O,m,m,None,656,455.0,201.0,108,,2294.699999988079,273422.09999999404,7755,napkin,AF,B,271464,271464,269635,270747,269635,271930,271262,271262,271930,25
26,test,1,con,1,m,Fri Mar 06 2026 14:44:56 GMT-0600 (Central Standard Time),277849.2999999821,jacket,900,O,m,m,None,693,494.0,199.0,98,,2128.699999988079,275720.59999999404,7755,jacket,AF,B,273562,273562,271934,272847,271934,274062,273363,273363,274062,26
27,test,1,inc,1,z,Fri Mar 06 2026 14:44:56 GMT-0600 (Central Standard Time),279998.0,rock,900,O,z,z,None,704,504.0,200.0,14,,2144.800000011921,277853.1999999881,7755,kind,AF,B,275695,275695,274066,274979,274066,276211,275495,275495,276211,27
28,test,1,con,1,z,Fri Mar 06 2026 14:44:56 GMT-0600 (Central Standard Time),282297.90000000596,rage,1000,O,z,z,None,756,555.0,201.0,51,,2296.2000000178814,280001.6999999881,7755,rage,AF,B,277945,277945,276215,277228,276215,278511,277743,277743,278511,28
28,test,1,con,0,m,Fri Mar 06 2026 14:44:56 GMT-0600 (Central Standard Time),284947.09999999404,remote,900,O,z,z,None,1215,1016.0,199.0,114,,2644.199999988079,282302.90000000596,7755,remote,AF,B,280144,280144,278516,279427,278516,281160,279944,279944,281160,29
29,test,1,inc,1,m,Fri Mar 06 2026 14:44:56 GMT-0600 (Central Standard Time),287162.5,love,1000,O,m,m,None,674,474.0,200.0,95,,2210.7000000178814,284951.7999999821,7755,film,AF,B,282893,282893,281165,282177,281165,283376,282693,282693,283376,30
30,test,1,inc,1,z,Fri Mar 06 2026 14:44:56 GMT-0600 (Central Standard Time),289411.90000000596,napkin,900,O,z,z,None,812,613.0,199.0,30,,2243.600000023842,287168.2999999821,7755,friend,AF,B,285010,285010,283381,284292,283382,285625,284810,284810,285625,31
31,test,1,con,1,m,Fri Mar 06 2026 14:44:56 GMT-0600 (Central Standard Time),291745.90000000596,napkin,800,O,m,m,None,992,777.0,215.0,105,,2331.300000011921,289414.59999999404,7755,napkin,AF,B,287175,287175,285628,286442,285628,287959,286960,286960,287959,32
32,test,1,con,1,m,Fri Mar 06 2026 14:44:56 GMT-0600 (Central Standard Time),293677.0,window,800,O,m,m,None,589,388.0,201.0,121,,1923.2000000178814,291753.7999999821,7755,window,AF,B,289492,289492,287967,288776,287967,289890,289290,289290,289890,33
33,test,1,inc,1,z,Fri Mar 06 2026 14:44:56 GMT-0600 (Central Standard Time),295993.40000000596,rock,900,O,z,z,None,876,674.0,202.0,46,,2310.800000011921,293682.59999999404,7755,hate,AF,B,291526,291526,289896,290807,289896,292206,291323,291323,292206,34
34,test,1,inc,1,z,Fri Mar 06 2026 14:44:56 GMT-0600 (Central Standard Time),298325.7999999821,bell,1000,O,z,z,None,788,588.0,200.0,15,,2327.0999999940395,295998.6999999881,7755,kind,AF,B,293940,293940,292212,293223,292212,294539,293740,293740,294539,35
35,test,1,inc,1,z,Fri Mar 06 2026 14:44:56 GMT-0600 (Central Standard Time),300791.5,window,1100,O,z,z,None,825,610.0,215.0,64,,2459.4000000059605,298332.09999999404,7755,temper,AF,B,296390,296390,294545,295656,294545,297005,296174,296174,297004,36
36,test,1,inc,1,m,Fri Mar 06 2026 14:44:56 GMT-0600 (Central Standard Time),303274.09999999404,friend,1100,O,m,m,None,857,656.0,201.0,104,,2474.699999988079,300799.40000000596,7755,jacket,AF,B,298824,298824,297012,298121,297013,299487,298622,298622,299487,37
37,test,1,inc,1,z,Fri Mar 06 2026 14:44:56 GMT-0600 (Central Standard Time),305440.0,jacket,800,O,z,z,None,826,627.0,199.0,29,,2162.2000000178814,303277.7999999821,7755,friend,AF,B,301021,301021,299491,300304,299491,301653,300821,300821,301653,38
37,test,1,con,0,m,Fri Mar 06 2026 14:44:56 GMT-0600 (Central Standard Time),307639.0,remote,800,O,z,z,None,860,645.0,215.0,113,,2193.300000011921,305445.6999999881,7755,remote,AF,B,303202,303202,301659,302471,301659,303852,302987,302987,303852,39
38,test,1,con,1,m,Fri Mar 06 2026 14:44:56 GMT-0600 (Central Standard Time),309856.40000000596,step,1000,O,m,m,None,679,480.0,199.0,67,,2210.5,307645.90000000596,7755,step,AF,B,305584,305584,303859,304869,303859,306069,305385,305385,306069,40
39,test,1,con,1,m,Fri Mar 06 2026 14:44:56 GMT-0600 (Central Standard Time),312105.09999999404,rock,900,O,m,m,None,803,603.0,200.0,74,,2245.800000011921,309859.2999999821,7755,rock,AF,B,307701,307701,306072,306985,306073,308318,307501,307501,308318,41
40,test,1,con,1,z,Fri Mar 06 2026 14:44:56 GMT-0600 (Central Standard Time),314654.09999999404,hate,1100,O,z,z,None,911,712.0,199.0,44,,2544.5,312109.59999999404,7755,hate,AF,B,310151,310152,308323,309435,308323,310867,309952,309952,310867,42
41,test,1,inc,1,m,Fri Mar 06 2026 14:44:56 GMT-0600 (Central Standard Time),316920.0,rage,800,O,m,m,None,917,717.0,200.0,85,,2261.7000000178814,314658.2999999821,7755,bell,AF,B,312402,312402,310871,311684,310872,313133,312201,312201,313133,43
42,test,1,inc,1,m,Fri Mar 06 2026 14:44:56 GMT-0600 (Central Standard Time),319303.7999999821,friend,1100,O,m,m,None,737,537.0,200.0,128,,2379.0,316924.7999999821,7755,window,AF,B,314967,314967,313138,314251,313138,315517,314766,314766,315517,44
43,test,1,con,1,m,Fri Mar 06 2026 14:44:56 GMT-0600 (Central Standard Time),321401.7999999821,bell,1000,O,m,m,None,567,367.0,200.0,83,,2093.7999999821186,319308.0,7755,bell,AF,B,317233,317233,315521,316532,315521,317615,317033,317033,317615,45
44,test,1,con,1,m,Fri Mar 06 2026 14:44:56 GMT-0600 (Central Standard Time),323801.1999999881,rock,1000,O,m,m,None,860,659.0,201.0,75,,2396.199999988079,321405.0,7755,rock,AF,B,319349,319349,317618,318631,317618,320014,319148,319148,320014,46
45,test,1,con,1,m,Fri Mar 06 2026 14:44:56 GMT-0600 (Central Standard Time),325617.1999999881,rock,800,O,m,m,None,464,250.0,214.0,73,,1812.2999999821186,323804.90000000596,7755,rock,AF,B,321565,321565,320018,320832,320018,321830,321350,321351,321830,47
46,test,1,inc,1,m,Fri Mar 06 2026 14:44:56 GMT-0600 (Central Standard Time),327849.6999999881,temper,1000,O,m,m,None,691,492.0,199.0,103,,2228.7999999821186,325620.90000000596,7755,jacket,AF,B,323564,323564,321834,322846,321834,324063,323364,323364,324063,48
47,test,1,inc,1,z,Fri Mar 06 2026 14:44:56 GMT-0600 (Central Standard Time),330187.0,jacket,800,O,z,z,None,987,787.0,200.0,37,,2333.5,327853.5,7755,brutal,AF,B,325596,325596,324067,324881,324067,326400,325396,325396,326400,49
48,test,1,inc,1,z,Fri Mar 06 2026 14:44:56 GMT-0600 (Central Standard Time),332267.1999999881,napkin,900,O,z,z,None,643,427.0,216.0,38,,2075.7999999821186,330191.40000000596,7755,brutal,AF,B,328045,328045,326404,327311,326405,328480,327829,327829,328480,50
49,test,1,con,1,m,Fri Mar 06 2026 14:44:56 GMT-0600 (Central Standard Time),334281.6999999881,step,800,O,m,m,None,667,467.0,200.0,65,,2005.0,332276.6999999881,7755,step,AF,B,330012,330012,328490,329296,328490,330495,329812,329812,330495,51
50,test,1,con,1,z,Fri Mar 06 2026 14:44:56 GMT-0600 (Central Standard Time),336564.90000000596,brutal,1100,O,z,z,None,649,447.0,202.0,36,,2278.4000000059605,334286.5,7755,brutal,AF,B,332330,332330,330500,331612,330500,332778,332128,332128,332778,52
51,test,1,inc,1,z,Fri Mar 06 2026 14:44:56 GMT-0600 (Central Standard Time),338962.90000000596,window,1100,O,z,z,None,766,566.0,200.0,32,,2390.800000011921,336572.09999999404,7755,friend,AF,B,334610,334610,332785,333895,332785,335176,334410,334410,335176,53
52,test,1,inc,1,m,Fri Mar 06 2026 14:44:56 GMT-0600 (Central Standard Time),341230.1999999881,love,1000,O,m,m,None,723,522.0,201.0,79,,2264.5,338965.6999999881,7755,rock,AF,B,336910,336910,335179,336193,335179,337443,336709,336709,337443,54
53,test,1,inc,1,m,Fri Mar 06 2026 14:44:56 GMT-0600 (Central Standard Time),343311.5,rage,800,O,m,m,None,734,534.0,200.0,77,,2077.4000000059605,341234.09999999404,7755,rock,AF,B,338977,338977,337447,338259,337447,339525,338777,338777,339525,55
54,test,1,con,1,m,Fri Mar 06 2026 14:44:56 GMT-0600 (Central Standard Time),345562.40000000596,bell,1100,O,m,m,None,609,408.0,201.0,84,,2246.100000023842,343316.2999999821,7755,bell,AF,B,341359,341359,339529,340642,339530,341776,341158,341158,341775,56
55,test,1,inc,1,z,Fri Mar 06 2026 14:44:56 GMT-0600 (Central Standard Time),347810.59999999404,bell,1000,O,z,z,None,708,508.0,200.0,23,,2243.300000011921,345567.2999999821,7755,love,AF,B,343508,343508,341780,342792,341781,344024,343308,343308,344024,57
56,test,1,inc,1,m,Fri Mar 06 2026 14:44:56 GMT-0600 (Central Standard Time),350127.09999999404,hate,1100,O,m,m,None,668,454.0,214.0,80,,2310.5,347816.59999999404,7755,rock,AF,B,345874,345874,344030,345141,344030,346340,345660,345660,346340,58
57,test,1,con,1,m,Fri Mar 06 2026 14:44:56 GMT-0600 (Central Standard Time),352176.59999999404,bell,800,O,m,m,None,710,510.0,200.0,81,,2045.699999988079,350130.90000000596,7755,bell,AF,B,347874,347874,346344,347156,346344,348390,347673,347673,348390,59
58,test,1,inc,1,z,Fri Mar 06 2026 14:44:56 GMT-0600 (Central Standard Time),354473.7999999821,window,1100,O,z,z,None,674,474.0,200.0,40,,2292.699999988079,352181.09999999404,7755,brutal,AF,B,350205,350205,348394,349504,348394,350687,350005,350005,350687,60
59,test,1,con,1,z,Fri Mar 06 2026 14:44:56 GMT-0600 (Central Standard Time),356925.09999999404,temper,1100,O,z,z,None,832,632.0,200.0,60,,2448.199999988079,354476.90000000596,7755,temper,AF,B,352506,352506,350690,351803,350690,353138,352305,352305,353138,61
60,test,1,inc,1,m,Fri Mar 06 2026 14:44:56 GMT-0600 (Central Standard Time),359072.6999999881,temper,1000,O,m,m,None,608,408.0,200.0,111,,2144.199999988079,356928.5,7755,napkin,AF,B,354872,354872,353142,354154,353142,355286,354671,354671,355286,62
61,test,1,con,1,m,Fri Mar 06 2026 14:44:56 GMT-0600 (Central Standard Time),361423.09999999404,jacket,1100,O,m,m,None,702,503.0,199.0,100,,2346.4000000059605,359076.6999999881,7755,jacket,AF,B,357120,357120,355290,356403,355290,357636,356920,356920,357636,63
62,test,1,con,1,z,Fri Mar 06 2026 14:44:56 GMT-0600 (Central Standard Time),363838.59999999404,kind,1100,O,z,z,None,770,571.0,199.0,12,,2410.800000011921,361427.7999999821,7755,kind,AF,B,359469,359469,357641,358752,357641,360052,359270,359270,360052,64
63,test,1,con,1,m,Fri Mar 06 2026 14:44:56 GMT-0600 (Central Standard Time),365955.59999999404,film,800,O,m,m,None,782,583.0,199.0,89,,2110.9000000059605,363844.6999999881,7755,film,AF,B,361569,361569,360058,360866,360058,362169,361370,361370,362169,65
64,test,1,con,1,m,Fri Mar 06 2026 14:44:56 GMT-0600 (Central Standard Time),368020.7999999821,window,1000,O,m,m,None,530,315.0,215.0,123,,2059.399999976158,365961.40000000596,7755,window,AF,B,363917,363917,362174,363184,362175,364234,363701,363701,364234,66
65,test,1,con,1,z,Fri Mar 06 2026 14:44:56 GMT-0600 (Central Standard Time),370288.40000000596,temper,1000,O,z,z,None,737,537.0,200.0,59,,2265.2000000178814,368023.1999999881,7755,temper,AF,B,365950,365951,364236,365249,364236,366501,365750,365750,366501,67
66,test,1,inc,1,m,Fri Mar 06 2026 14:44:56 GMT-0600 (Central Standard Time),372585.2999999821,hate,1100,O,m,m,None,658,458.0,200.0,72,,2293.0999999940395,370292.1999999881,7755,step,AF,B,368334,368334,366505,367617,366506,368798,368133,368133,368798,68
67,test,1,inc,1,z,Fri Mar 06 2026 14:44:56 GMT-0600 (Central Standard Time),374918.1999999881,window,1100,O,z,z,None,695,495.0,200.0,8,,2326.5999999940395,372591.59999999404,7755,elated,AF,B,370633,370633,368805,369916,368805,371131,370432,370432,371131,69
68,test,1,inc,1,m,Fri Mar 06 2026 14:44:56 GMT-0600 (Central Standard Time),377100.6999999881,brutal,900,O,m,m,None,738,538.0,200.0,102,,2178.7999999821186,374921.90000000596,7755,jacket,AF,B,372765,372765,371135,372049,371135,373314,372565,372565,373314,70
69,test,1,con,1,m,Fri Mar 06 2026 14:44:56 GMT-0600 (Central Standard Time),378951.59999999404,jacket,800,O,m,m,None,501,302.0,199.0,97,,1848.0,377103.59999999404,7755,jacket,AF,B,374847,374847,373317,374129,373317,375165,374647,374647,375165,71
70,test,1,con,1,z,Fri Mar 06 2026 14:44:56 GMT-0600 (Central Standard Time),380900.0,rage,800,O,z,z,None,606,390.0,216.0,49,,1942.800000011921,378957.1999999881,7755,rage,AF,B,376714,376714,375170,375981,375170,377113,376498,376498,377113,72
71,test,1,inc,1,z,Fri Mar 06 2026 14:44:56 GMT-0600 (Central Standard Time),383015.40000000596,rock,900,O,z,z,None,679,479.0,200.0,22,,2111.100000023842,380904.2999999821,7755,love,AF,B,378746,378746,377117,378029,377118,379228,378546,378546,379228,73
72,test,1,inc,1,z,Fri Mar 06 2026 14:44:56 GMT-0600 (Central Standard Time),385316.6999999881,film,1100,O,z,z,None,663,449.0,214.0,48,,2295.7999999821186,383020.90000000596,7755,hate,AF,B,381079,381079,379234,380346,379234,381530,380864,380864,381530,74
73,test,1,inc,1,z,Fri Mar 06 2026 14:44:56 GMT-0600 (Central Standard Time),387364.7999999821,jacket,800,O,z,z,None,729,530.0,199.0,61,,2043.0,385321.7999999821,7755,temper,AF,B,383046,383046,381535,382345,381535,383578,382846,382846,383578,75
73,test,1,inc,0,m,Fri Mar 06 2026 14:44:56 GMT-0600 (Central Standard Time),389679.90000000596,friend,1100,O,z,z,None,667,468.0,199.0,120,,2310.600000023842,387369.2999999821,7755,remote,AF,B,385411,385411,383582,384693,383583,385893,385211,385211,385893,76
74,test,1,con,1,z,Fri Mar 06 2026 14:44:56 GMT-0600 (Central Standard Time),391912.1999999881,elated,1000,O,z,z,None,691,492.0,199.0,3,,2225.5999999940395,389686.59999999404,7755,elated,AF,B,387627,387627,385900,386910,385900,388125,387427,387427,388125,77
75,test,1,inc,1,m,Fri Mar 06 2026 14:44:56 GMT-0600 (Central Standard Time),394143.90000000596,love,1000,O,m,m,None,691,491.0,200.0,71,,2227.7000000178814,391916.1999999881,7755,step,AF,B,389860,389860,388129,389143,388129,390357,389659,389659,390357,78
76,test,1,con,1,z,Fri Mar 06 2026 14:44:56 GMT-0600 (Central Standard Time),396179.09999999404,temper,800,O,z,z,None,699,500.0,199.0,57,,2032.0999999940395,394147.0,7755,temper,AF,B,391876,391876,390360,391175,390360,392392,391676,391676,392392,79
77,test,1,inc,1,m,Fri Mar 06 2026 14:44:56 GMT-0600 (Central Standard Time),398376.90000000596,love,1000,O,m,m,None,673,474.0,199.0,87,,2192.9000000059605,396184.0,7755,bell,AF,B,394109,394109,392397,393409,392397,394590,393910,393910,394590,80
78,test,1,inc,1,m,Fri Mar 06 2026 14:44:56 GMT-0600 (Central Standard Time),400409.5,elated,800,O,m,m,None,682,482.0,200.0,101,,2028.800000011921,398380.6999999881,7755,jacket,AF,B,396125,396125,394594,395408,394594,396623,395924,395924,396623,81
79,test,1,con,1,z,Fri Mar 06 2026 14:44:56 GMT-0600 (Central Standard Time),402678.6999999881,kind,900,O,z,z,None,820,619.0,201.0,10,,2265.699999988079,400413.0,7755,kind,AF,B,398258,398258,396626,397543,396626,398892,398057,398057,398892,82
79,test,1,inc,0,m,Fri Mar 06 2026 14:44:56 GMT-0600 (Central Standard Time),404908.59999999404,temper,1000,O,z,z,None,681,466.0,215.0,119,,2223.0,402685.59999999404,7755,remote,AF,B,400640,400640,398899,399908,398899,401122,400424,400424,401122,83
80,test,1,con,1,z,Fri Mar 06 2026 14:44:56 GMT-0600 (Central Standard Time),406907.59999999404,elated,800,O,z,z,None,658,458.0,200.0,1,,1993.300000011921,404914.2999999821,7755,elated,AF,B,402653,402653,401127,401938,401128,403121,402453,402453,403121,84
81,test,1,inc,1,m,Fri Mar 06 2026 14:44:56 GMT-0600 (Central Standard Time),409256.7999999821,friend,1100,O,m,m,None,701,502.0,199.0,112,,2346.399999976158,406910.40000000596,7755,napkin,AF,B,404953,404953,403123,404237,403124,405470,404753,404753,405470,85
81,test,1,con,0,m,Fri Mar 06 2026 14:44:56 GMT-0600 (Central Standard Time),411640.59999999404,remote,1100,O,z,z,None,736,535.0,201.0,116,,2381.0999999940395,409259.5,7755,remote,AF,B,407305,407305,405473,406587,405473,407854,407104,407104,407854,86
82,test,1,inc,1,z,Fri Mar 06 2026 14:44:56 GMT-0600 (Central Standard Time),413887.7999999821,bell,1000,O,z,z,None,716,517.0,199.0,47,,2242.399999976158,411645.40000000596,7755,hate,AF,B,409570,409570,407858,408869,407859,410101,409371,409371,410101,87
83,test,1,inc,1,m,Fri Mar 06 2026 14:44:56 GMT-0600 (Central Standard Time),415939.5,rage,800,O,m,m,None,708,509.0,199.0,69,,2048.7000000178814,413890.7999999821,7755,step,AF,B,411636,411636,410104,410920,410104,412153,411437,411437,412153,88
84,test,1,con,1,m,Fri Mar 06 2026 14:44:56 GMT-0600 (Central Standard Time),418055.6999999881,bell,900,O,m,m,None,678,479.0,199.0,82,,2111.0999999940395,415944.59999999404,7755,bell,AF,B,413785,413785,412158,413070,412158,414269,413585,413585,414269,89
85,test,1,inc,1,z,Fri Mar 06 2026 14:44:56 GMT-0600 (Central Standard Time),420037.7999999821,step,800,O,z,z,None,632,432.0,200.0,53,,1977.8999999761581,418059.90000000596,7755,rage,AF,B,415802,415802,414273,415086,414273,416251,415601,415601,416251,90
86,test,1,con,1,m,Fri Mar 06 2026 14:44:56 GMT-0600 (Central Standard Time),422371.40000000596,window,1100,O,m,m,None,701,502.0,199.0,124,,2327.600000023842,420043.7999999821,7755,window,AF,B,418066,418066,416257,417365,416257,418584,417867,417867,418584,91
87,test,1,inc,1,m,Fri Mar 06 2026 14:44:56 GMT-0600 (Central Standard Time),424685.7999999821,hate,1100,O,m,m,None,678,479.0,199.0,96,,2308.0,422377.7999999821,7755,film,AF,B,420417,420417,418591,419703,418591,420899,420217,420217,420899,92
87,test,1,con,0,m,Fri Mar 06 2026 14:44:56 GMT-0600 (Central Standard Time),427004.2999999821,remote,1000,O,z,z,None,781,567.0,214.0,115,,2312.0999999940395,424692.1999999881,7755,remote,AF,B,422649,422649,420905,421919,420906,423217,422434,422435,423217,93
88,test,1,con,1,z,Fri Mar 06 2026 14:44:56 GMT-0600 (Central Standard Time),429118.1999999881,love,1100,O,z,z,None,480,280.0,200.0,20,,2109.699999988079,427008.5,7755,love,AF,B,425048,425048,423222,424332,423222,425331,424847,424847,425331,94
89,test,1,inc,1,m,Fri Mar 06 2026 14:44:56 GMT-0600 (Central Standard Time),431233.59999999404,temper,1000,O,m,m,None,574,374.0,200.0,127,,2111.5999999940395,429122.0,7755,window,AF,B,427065,427065,425335,426348,425335,427447,426865,426865,427447,95
90,test,1,con,1,m,Fri Mar 06 2026 14:44:56 GMT-0600 (Central Standard Time),433249.6999999881,film,900,O,m,m,None,567,367.0,200.0,90,,2012.9000000059605,431236.7999999821,7755,film,AF,B,429081,429081,427450,428364,427450,429463,428881,428881,429463,96
91,test,1,inc,1,z,Fri Mar 06 2026 14:44:56 GMT-0600 (Central Standard Time),435582.6999999881,film,1100,O,z,z,None,686,487.0,199.0,16,,2328.0,433254.6999999881,7755,kind,AF,B,431297,431297,429468,430580,429468,431796,431097,431097,431796,97
92,test,1,con,1,z,Fri Mar 06 2026 14:44:56 GMT-0600 (Central Standard Time),437481.90000000596,love,800,O,z,z,None,574,375.0,199.0,17,,1894.6000000238419,435587.2999999821,7755,love,AF,B,433313,433313,431800,432612,431801,433695,433114,433114,433695,98
93,test,1,con,1,z,Fri Mar 06 2026 14:44:56 GMT-0600 (Central Standard Time),439365.0,hate,800,O,z,z,None,540,340.0,200.0,41,,1879.0999999940395,437485.90000000596,7755,hate,AF,B,435228,435228,433699,434511,433699,435578,435028,435028,435578,99
94,test,1,inc,1,z,Fri Mar 06 2026 14:44:56 GMT-0600 (Central Standard Time),441497.2999999821,napkin,900,O,z,z,None,693,494.0,199.0,62,,2127.0,439370.2999999821,7755,temper,AF,B,437210,437210,435583,436495,435584,437710,437011,437011,437710,100
95,test,1,con,1,z,Fri Mar 06 2026 14:44:56 GMT-0600 (Central Standard Time),443596.1999999881,rage,1100,O,z,z,None,456,256.0,200.0,52,,2094.0,441502.1999999881,7755,rage,AF,B,439544,439544,437715,438826,437715,439809,439343,439343,439809,101
95,test,1,inc,0,m,Fri Mar 06 2026 14:44:56 GMT-0600 (Central Standard Time),445596.0,brutal,900,O,z,z,None,573,357.0,216.0,118,,1995.2000000178814,443600.7999999821,7755,remote,AF,B,441443,441443,439814,440726,439814,441809,441227,441227,441809,102
96,test,1,inc,1,z,Fri Mar 06 2026 14:44:56 GMT-0600 (Central Standard Time),447812.90000000596,remote,1000,O,z,z,None,678,465.0,213.0,39,,2213.2000000178814,445599.6999999881,7755,brutal,AF,B,443559,443559,441813,442826,441813,444026,443345,443345,444026,103
97,test,1,con,1,z,Fri Mar 06 2026 14:44:56 GMT-0600 (Central Standard Time),449927.5,friend,1100,O,z,z,None,490,270.0,220.0,28,,2107.800000011921,447819.6999999881,7755,friend,AF,B,445866,445866,444033,445142,444033,446141,445646,445646,446141,104
98,test,1,con,1,m,Fri Mar 06 2026 14:44:56 GMT-0600 (Central Standard Time),451960.5,window,900,O,m,m,None,609,409.0,200.0,122,,2027.4000000059605,449933.09999999404,7755,window,AF,B,447759,447759,446146,447057,446146,448174,447558,447558,448174,105
99,test,1,con,1,z,Fri Mar 06 2026 14:44:56 GMT-0600 (Central Standard Time),453926.40000000596,rage,900,O,z,z,None,527,327.0,200.0,50,,1960.5,451965.90000000596,7755,rage,AF,B,449809,449809,448179,449091,448179,450139,449609,449609,450139,106
100,test,1,inc,1,z,Fri Mar 06 2026 14:44:56 GMT-0600 (Central Standard Time),456043.7999999821,jacket,800,O,z,z,None,775,575.0,200.0,5,,2113.5999999940395,453930.1999999881,7755,elated,AF,B,451673,451673,450143,450956,450143,452257,451473,451473,452257,107
101,test,1,inc,1,m,Fri Mar 06 2026 14:44:56 GMT-0600 (Central Standard Time),458542.0,brutal,900,O,m,m,None,1077,863.0,214.0,126,,2493.5999999940395,456048.40000000596,7755,window,AF,B,453890,453890,452261,453172,452262,454755,453675,453675,454755,108
101,test,1,inc,0,m,Fri Mar 06 2026 14:44:56 GMT-0600 (Central Standard Time),460590.5,elated,800,O,z,z,None,711,510.0,201.0,117,,2043.5999999940395,458546.90000000596,7755,remote,AF,B,456289,456289,454760,455572,454761,456804,456088,456088,456804,109
102,test,1,con,1,m,Fri Mar 06 2026 14:44:56 GMT-0600 (Central Standard Time),462990.40000000596,step,1100,O,m,m,None,754,539.0,215.0,68,,2395.9000000059605,460594.5,7755,step,AF,B,458653,458653,456808,457922,456808,459203,458438,458438,459203,110
103,test,1,inc,1,m,Fri Mar 06 2026 14:44:56 GMT-0600 (Central Standard Time),464990.0,kind,900,O,m,m,None,555,355.0,200.0,78,,1994.5,462995.5,7755,rock,AF,B,460837,460837,459209,460121,459209,461203,460637,460637,461203,111
104,test,1,con,1,z,Fri Mar 06 2026 14:44:56 GMT-0600 (Central Standard Time),467208.6999999881,hate,1000,O,z,z,None,672,473.0,199.0,43,,2214.4000000059605,464994.2999999821,7755,hate,AF,B,462934,462934,461207,462220,461208,463422,462735,462735,463422,112
105,test,1,inc,1,z,Fri Mar 06 2026 14:44:56 GMT-0600 (Central Standard Time),469372.0,rock,900,O,z,z,None,732,516.0,216.0,54,,2160.0,467212.0,7755,rage,AF,B,465069,465069,463425,464335,463425,465585,464853,464853,465585,113
106,test,1,con,1,m,Fri Mar 06 2026 14:44:56 GMT-0600 (Central Standard Time),471405.09999999404,napkin,900,O,m,m,None,590,389.0,201.0,106,,2028.4000000059605,469376.6999999881,7755,napkin,AF,B,467219,467219,465590,466501,465590,467618,467018,467018,467618,114
107,test,1,inc,1,m,Fri Mar 06 2026 14:44:56 GMT-0600 (Central Standard Time),473686.7999999821,kind,900,O,m,m,None,859,655.0,204.0,70,,2278.2999999821186,471408.5,7755,step,AF,B,469240,469240,467622,468534,467622,469900,469035,469035,469900,115
108,test,1,inc,1,m,Fri Mar 06 2026 14:44:56 GMT-0600 (Central Standard Time),475637.40000000596,kind,900,O,m,m,None,507,306.0,201.0,86,,1946.9000000059605,473690.5,7755,bell,AF,B,471534,471534,469904,470817,469904,471851,471333,471333,471850,116
109,test,1,inc,1,z,Fri Mar 06 2026 14:44:56 GMT-0600 (Central Standard Time),477602.5,step,800,O,z,z,None,624,423.0,201.0,21,,1961.5999999940395,475640.90000000596,7755,love,AF,B,473385,473385,471854,472667,471854,473816,473184,473184,473816,117
110,test,1,inc,1,z,Fri Mar 06 2026 14:44:56 GMT-0600 (Central Standard Time),479853.09999999404,remote,1000,O,z,z,None,701,502.0,199.0,31,,2246.9000000059605,477606.1999999881,7755,friend,AF,B,475548,475548,473819,474833,473819,476066,475349,475349,476066,118
111,test,1,inc,1,z,Fri Mar 06 2026 14:44:56 GMT-0600 (Central Standard Time),481986.1999999881,napkin,900,O,z,z,None,700,497.0,203.0,6,,2129.0999999940395,479857.09999999404,7755,elated,AF,B,477686,477686,476070,476981,476070,478199,477482,477482,478199,119
112,test,1,con,1,z,Fri Mar 06 2026 14:44:56 GMT-0600 (Central Standard Time),484034.0,love,900,O,z,z,None,599,400.0,199.0,18,,2042.5,481991.5,7755,love,AF,B,479831,479831,478205,479115,478205,480247,479632,479632,480247,120
113,test,1,inc,1,z,Fri Mar 06 2026 14:44:56 GMT-0600 (Central Standard Time),486034.59999999404,step,800,O,z,z,None,669,469.0,200.0,13,,1996.0999999940395,484038.5,7755,kind,AF,B,481763,481763,480252,481062,480252,482248,481563,481563,482248,121
114,test,1,con,1,z,Fri Mar 06 2026 14:44:56 GMT-0600 (Central Standard Time),488067.09999999404,brutal,800,O,z,z,None,684,485.0,199.0,33,,2027.4000000059605,486039.6999999881,7755,brutal,AF,B,483780,483780,482253,483063,482253,484280,483579,483580,484280,122
115,test,1,con,1,z,Fri Mar 06 2026 14:44:56 GMT-0600 (Central Standard Time),490048.09999999404,brutal,1000,O,z,z,None,444,244.0,200.0,35,,1977.0999999940395,488071.0,7755,brutal,AF,B,486012,486012,484284,485296,484284,486261,485812,485812,486261,123
116,test,1,con,1,z,Fri Mar 06 2026 14:44:56 GMT-0600 (Central Standard Time),491947.6999999881,brutal,900,O,z,z,None,481,281.0,200.0,34,,1895.5,490052.1999999881,7755,brutal,AF,B,487879,487879,486265,487177,486266,488161,487678,487678,488161,124
117,test,1,inc,1,m,Fri Mar 06 2026 14:44:56 GMT-0600 (Central Standard Time),494214.5,hate,1100,O,m,m,None,614,400.0,214.0,88,,2262.0999999940395,491952.40000000596,7755,bell,AF,B,490011,490011,488165,489278,488166,490428,489796,489796,490428,125
118,test,1,con,1,z,Fri Mar 06 2026 14:44:56 GMT-0600 (Central Standard Time),496480.90000000596,friend,1000,O,z,z,None,735,535.0,200.0,27,,2263.100000023842,494217.7999999821,7755,friend,AF,B,492144,492144,490431,491443,490431,492694,491944,491944,492694,126
119,test,1,con,1,m,Fri Mar 06 2026 14:44:56 GMT-0600 (Central Standard Time),498696.2999999821,film,1100,O,m,m,None,577,378.0,199.0,92,,2212.2999999821186,496484.0,7755,film,AF,B,494526,494526,492697,493810,492697,494909,494327,494327,494909,127
120,test,1,inc,1,z,Fri Mar 06 2026 14:44:56 GMT-0600 (Central Standard Time),501012.5,bell,1000,O,z,z,None,771,556.0,215.0,55,,2312.4000000059605,498700.09999999404,7755,rage,AF,B,496658,496659,494913,495927,494913,497226,496442,496443,497225,128
