block_c,block_dur,condition,countdown,datetime,endtime,list,multichar_response,project,response,response_time,session_number,start_end,starttime,subject_id,task,task_vers,trial
,,,,Wed Sep 10 2025 17:15:28 GMT-0500 (Central Daylight Time),,,,O,space,391,1,,,7171,WL,A,
prac,,0,,Wed Sep 10 2025 17:15:28 GMT-0500 (Central Daylight Time),,NA,b,O,b,604,1,,,7171,WL,A,1.0
prac,,0,,Wed Sep 10 2025 17:15:28 GMT-0500 (Central Daylight Time),,NA,bo,O,o,238,1,,,7171,WL,A,1.0
prac,,0,,Wed Sep 10 2025 17:15:28 GMT-0500 (Central Daylight Time),,NA,boo,O,o,165,1,,,7171,WL,A,1.0
prac,,0,,Wed Sep 10 2025 17:15:28 GMT-0500 (Central Daylight Time),,NA,boos,O,s,303,1,,,7171,WL,A,1.0
prac,,0,,Wed Sep 10 2025 17:15:28 GMT-0500 (Central Daylight Time),,NA,boost,O,t,443,1,,,7171,WL,A,1.0
prac,,0,,Wed Sep 10 2025 17:15:28 GMT-0500 (Central Daylight Time),,NA,boostenter,O,enter,10784,1,,,7171,WL,A,1.0
1,1.4819998741149902,learn,58518.00012588501,Wed Sep 10 2025 17:15:28 GMT-0500 (Central Daylight Time),166812.19999998808,A,b,O,b,1467,1,1482.699999988079,165329.5,7171,WL,A,1.0
1,1.6489999294281006,learn,58351.0000705719,Wed Sep 10 2025 17:15:28 GMT-0500 (Central Daylight Time),166978.80000001192,A,bo,O,o,150,1,1649.300000011921,165329.5,7171,WL,A,1.0
1,1.8320000171661377,learn,58167.99998283386,Wed Sep 10 2025 17:15:28 GMT-0500 (Central Daylight Time),167161.90000003576,A,boo,O,o,170,1,1832.4000000357628,165329.5,7171,WL,A,1.0
1,1.998999834060669,learn,58001.00016593933,Wed Sep 10 2025 17:15:28 GMT-0500 (Central Daylight Time),167328.5,A,book,O,k,146,1,1999.0,165329.5,7171,WL,A,1.0
1,2.248999834060669,learn,57751.00016593933,Wed Sep 10 2025 17:15:28 GMT-0500 (Central Daylight Time),167578.10000002384,A,bookenter,O,enter,242,1,2248.600000023842,165329.5,7171,WL,A,1.0
1,2.7699999809265137,learn,57230.000019073486,Wed Sep 10 2025 17:15:28 GMT-0500 (Central Daylight Time),168099.40000003576,A,f,O,f,507,1,521.0,167578.40000003576,7171,WL,A,2.0
1,2.865000009536743,learn,57134.99999046326,Wed Sep 10 2025 17:15:28 GMT-0500 (Central Daylight Time),168194.30000001192,A,fl,O,l,80,1,615.8999999761581,167578.40000003576,7171,WL,A,2.0
1,3.0319998264312744,learn,56968.000173568726,Wed Sep 10 2025 17:15:28 GMT-0500 (Central Daylight Time),168361.40000003576,A,flo,O,o,154,1,783.0,167578.40000003576,7171,WL,A,2.0
1,3.197999954223633,learn,56802.00004577637,Wed Sep 10 2025 17:15:28 GMT-0500 (Central Daylight Time),168528.0,A,flow,O,w,146,1,949.5999999642372,167578.40000003576,7171,WL,A,2.0
1,3.2809998989105225,learn,56719.00010108948,Wed Sep 10 2025 17:15:28 GMT-0500 (Central Daylight Time),168610.90000003576,A,flowe,O,e,77,1,1032.5,167578.40000003576,7171,WL,A,2.0
1,3.4149999618530273,learn,56585.00003814697,Wed Sep 10 2025 17:15:28 GMT-0500 (Central Daylight Time),168744.40000003576,A,flower,O,r,120,1,1166.0,167578.40000003576,7171,WL,A,2.0
1,3.747999906539917,learn,56252.00009346008,Wed Sep 10 2025 17:15:28 GMT-0500 (Central Daylight Time),169077.90000003576,A,flowerenter,O,enter,323,1,1499.5,167578.40000003576,7171,WL,A,2.0
1,4.431999921798706,learn,55568.000078201294,Wed Sep 10 2025 17:15:28 GMT-0500 (Central Daylight Time),169761.19999998808,A,t,O,t,670,1,682.7999999523163,169078.40000003576,7171,WL,A,3.0
1,4.516000032424927,learn,55483.99996757507,Wed Sep 10 2025 17:15:28 GMT-0500 (Central Daylight Time),169845.60000002384,A,tr,O,r,67,1,767.1999999880791,169078.40000003576,7171,WL,A,3.0
1,4.615000009536743,learn,55384.99999046326,Wed Sep 10 2025 17:15:28 GMT-0500 (Central Daylight Time),169944.40000003576,A,tra,O,a,86,1,866.0,169078.40000003576,7171,WL,A,3.0
1,4.747999906539917,learn,55252.00009346008,Wed Sep 10 2025 17:15:28 GMT-0500 (Central Daylight Time),170077.90000003576,A,trai,O,i,116,1,999.5,169078.40000003576,7171,WL,A,3.0
1,4.8480000495910645,learn,55151.999950408936,Wed Sep 10 2025 17:15:28 GMT-0500 (Central Daylight Time),170177.69999998808,A,train,O,n,86,1,1099.2999999523163,169078.40000003576,7171,WL,A,3.0
1,5.180999994277954,learn,54819.000005722046,Wed Sep 10 2025 17:15:28 GMT-0500 (Central Daylight Time),170511.0,A,trainenter,O,enter,322,1,1432.5999999642372,169078.40000003576,7171,WL,A,3.0
1,5.63100004196167,learn,54368.99995803833,Wed Sep 10 2025 17:15:28 GMT-0500 (Central Daylight Time),170960.69999998808,A,r,O,r,437,1,449.39999997615814,170511.30000001192,7171,WL,A,4.0
1,5.830999851226807,learn,54169.00014877319,Wed Sep 10 2025 17:15:28 GMT-0500 (Central Daylight Time),171160.5,A,ru,O,u,188,1,649.1999999880791,170511.30000001192,7171,WL,A,4.0
1,5.980999946594238,learn,54019.00005340576,Wed Sep 10 2025 17:15:28 GMT-0500 (Central Daylight Time),171310.60000002384,A,rug,O,g,140,1,799.3000000119209,170511.30000001192,7171,WL,A,4.0
1,6.13100004196167,learn,53868.99995803833,Wed Sep 10 2025 17:15:28 GMT-0500 (Central Daylight Time),171460.30000001192,A,rugenter,O,enter,134,1,949.0,170511.30000001192,7171,WL,A,4.0
1,6.430999994277954,learn,53569.000005722046,Wed Sep 10 2025 17:15:28 GMT-0500 (Central Daylight Time),171760.30000001192,A,m,O,m,280,1,299.80000001192093,171460.5,7171,WL,A,5.0
1,6.513999938964844,learn,53486.000061035156,Wed Sep 10 2025 17:15:28 GMT-0500 (Central Daylight Time),171843.69999998808,A,me,O,e,76,1,383.19999998807907,171460.5,7171,WL,A,5.0
1,6.63100004196167,learn,53368.99995803833,Wed Sep 10 2025 17:15:28 GMT-0500 (Central Daylight Time),171960.40000003576,A,mea,O,a,96,1,499.9000000357628,171460.5,7171,WL,A,5.0
1,6.796999931335449,learn,53203.00006866455,Wed Sep 10 2025 17:15:28 GMT-0500 (Central Daylight Time),172126.80000001192,A,meas,O,s,148,1,666.3000000119209,171460.5,7171,WL,A,5.0
1,7.5299999713897705,learn,52470.00002861023,Wed Sep 10 2025 17:15:28 GMT-0500 (Central Daylight Time),172859.90000003576,A,mea,O,backspace,717,1,1399.4000000357628,171460.5,7171,WL,A,5.0
1,7.679999828338623,learn,52320.00017166138,Wed Sep 10 2025 17:15:28 GMT-0500 (Central Daylight Time),173009.90000003576,A,mead,O,d,136,1,1549.4000000357628,171460.5,7171,WL,A,5.0
1,7.846999883651733,learn,52153.00011634827,Wed Sep 10 2025 17:15:28 GMT-0500 (Central Daylight Time),173176.60000002384,A,meado,O,o,146,1,1716.1000000238419,171460.5,7171,WL,A,5.0
1,7.947000026702881,learn,52052.99997329712,Wed Sep 10 2025 17:15:28 GMT-0500 (Central Daylight Time),173276.5,A,meadow,O,w,84,1,1816.0,171460.5,7171,WL,A,5.0
1,8.179999828338623,learn,51820.00017166138,Wed Sep 10 2025 17:15:28 GMT-0500 (Central Daylight Time),173509.69999998808,A,meadowenter,O,enter,223,1,2049.199999988079,171460.5,7171,WL,A,5.0
1,8.86299991607666,learn,51137.00008392334,Wed Sep 10 2025 17:15:28 GMT-0500 (Central Daylight Time),174192.69999998808,A,s,O,s,663,1,682.6999999880791,173510.0,7171,WL,A,6.0
1,8.94700002670288,learn,51052.99997329712,Wed Sep 10 2025 17:15:28 GMT-0500 (Central Daylight Time),174276.30000001192,A,sa,O,a,67,1,766.3000000119209,173510.0,7171,WL,A,6.0
1,9.079999923706055,learn,50920.000076293945,Wed Sep 10 2025 17:15:28 GMT-0500 (Central Daylight Time),174409.60000002384,A,sal,O,l,120,1,899.6000000238419,173510.0,7171,WL,A,6.0
1,9.230000019073486,learn,50769.999980926514,Wed Sep 10 2025 17:15:28 GMT-0500 (Central Daylight Time),174559.40000003576,A,salt,O,t,130,1,1049.4000000357628,173510.0,7171,WL,A,6.0
1,9.379999876022339,learn,50620.00012397766,Wed Sep 10 2025 17:15:28 GMT-0500 (Central Daylight Time),174709.40000003576,A,saltenter,O,enter,133,1,1199.4000000357628,173510.0,7171,WL,A,6.0
1,9.54699993133545,learn,50453.00006866455,Wed Sep 10 2025 17:15:28 GMT-0500 (Central Daylight Time),174876.19999998808,A,f,O,f,159,1,166.39999997615814,174709.80000001192,7171,WL,A,7.0
1,9.629999876022339,learn,50370.00012397766,Wed Sep 10 2025 17:15:28 GMT-0500 (Central Daylight Time),174959.69999998808,A,fi,O,i,73,1,249.89999997615814,174709.80000001192,7171,WL,A,7.0
1,9.730000019073486,learn,50269.999980926514,Wed Sep 10 2025 17:15:28 GMT-0500 (Central Daylight Time),175059.30000001192,A,fin,O,n,93,1,349.5,174709.80000001192,7171,WL,A,7.0
1,9.829999923706055,learn,50170.000076293945,Wed Sep 10 2025 17:15:28 GMT-0500 (Central Daylight Time),175159.40000003576,A,fing,O,g,81,1,449.60000002384186,174709.80000001192,7171,WL,A,7.0
1,10.013000011444092,learn,49986.99998855591,Wed Sep 10 2025 17:15:28 GMT-0500 (Central Daylight Time),175342.69999998808,A,finge,O,e,173,1,632.8999999761581,174709.80000001192,7171,WL,A,7.0
1,10.095999956130981,learn,49904.00004386902,Wed Sep 10 2025 17:15:28 GMT-0500 (Central Daylight Time),175425.69999998808,A,finger,O,r,62,1,715.8999999761581,174709.80000001192,7171,WL,A,7.0
1,10.19599986076355,learn,49804.00013923645,Wed Sep 10 2025 17:15:28 GMT-0500 (Central Daylight Time),175525.90000003576,A,fingerenter,O,enter,92,1,816.1000000238419,174709.80000001192,7171,WL,A,7.0
1,10.36299991607666,learn,49637.00008392334,Wed Sep 10 2025 17:15:28 GMT-0500 (Central Daylight Time),175692.60000002384,A,a,O,a,150,1,166.4000000357628,175526.19999998808,7171,WL,A,8.0
1,10.61299991607666,learn,49387.00008392334,Wed Sep 10 2025 17:15:28 GMT-0500 (Central Daylight Time),175942.40000003576,A,ap,O,p,233,1,416.2000000476837,175526.19999998808,7171,WL,A,8.0
1,10.728999853134155,learn,49271.000146865845,Wed Sep 10 2025 17:15:28 GMT-0500 (Central Daylight Time),176058.80000001192,A,app,O,p,110,1,532.6000000238419,175526.19999998808,7171,WL,A,8.0
1,11.095999956130981,learn,48904.00004386902,Wed Sep 10 2025 17:15:28 GMT-0500 (Central Daylight Time),176425.69999998808,A,appl,O,l,354,1,899.5,175526.19999998808,7171,WL,A,8.0
1,11.296000003814697,learn,48703.9999961853,Wed Sep 10 2025 17:15:28 GMT-0500 (Central Daylight Time),176625.5,A,apple,O,e,195,1,1099.300000011921,175526.19999998808,7171,WL,A,8.0
1,11.578999996185303,learn,48421.0000038147,Wed Sep 10 2025 17:15:28 GMT-0500 (Central Daylight Time),176908.69999998808,A,appleenter,O,enter,267,1,1382.5,175526.19999998808,7171,WL,A,8.0
1,12.529000043869019,learn,47470.99995613098,Wed Sep 10 2025 17:15:28 GMT-0500 (Central Daylight Time),177858.40000003576,A,l,O,l,936,1,949.4000000357628,176909.0,7171,WL,A,9.0
1,12.69599986076355,learn,47304.00013923645,Wed Sep 10 2025 17:15:28 GMT-0500 (Central Daylight Time),178025.30000001192,A,lo,O,o,162,1,1116.300000011921,176909.0,7171,WL,A,9.0
1,12.812000036239624,learn,47187.999963760376,Wed Sep 10 2025 17:15:28 GMT-0500 (Central Daylight Time),178141.5,A,log,O,g,99,1,1232.5,176909.0,7171,WL,A,9.0
1,12.996000051498413,learn,47003.99994850159,Wed Sep 10 2025 17:15:28 GMT-0500 (Central Daylight Time),178325.10000002384,A,logenter,O,enter,175,1,1416.1000000238419,176909.0,7171,WL,A,9.0
1,13.244999885559082,learn,46755.00011444092,Wed Sep 10 2025 17:15:28 GMT-0500 (Central Daylight Time),178575.0,A,k,O,k,232,1,249.5,178325.5,7171,WL,A,10.0
1,13.34500002861023,learn,46654.99997138977,Wed Sep 10 2025 17:15:28 GMT-0500 (Central Daylight Time),178674.90000003576,A,ke,O,e,93,1,349.4000000357628,178325.5,7171,WL,A,10.0
1,13.562000036239624,learn,46437.999963760376,Wed Sep 10 2025 17:15:28 GMT-0500 (Central Daylight Time),178891.5,A,key,O,y,211,1,566.0,178325.5,7171,WL,A,10.0
1,13.77999997138977,learn,46220.00002861023,Wed Sep 10 2025 17:15:28 GMT-0500 (Central Daylight Time),179109.19999998808,A,keyenter,O,enter,201,1,783.6999999880791,178325.5,7171,WL,A,10.0
1,13.944999933242798,learn,46055.0000667572,Wed Sep 10 2025 17:15:28 GMT-0500 (Central Daylight Time),179274.69999998808,A,r,O,r,152,1,165.19999998807907,179109.5,7171,WL,A,11.0
1,14.044999837875366,learn,45955.000162124634,Wed Sep 10 2025 17:15:28 GMT-0500 (Central Daylight Time),179374.69999998808,A,ra,O,a,82,1,265.19999998807907,179109.5,7171,WL,A,11.0
1,14.17799997329712,learn,45822.00002670288,Wed Sep 10 2025 17:15:28 GMT-0500 (Central Daylight Time),179508.0,A,rat,O,t,118,1,398.5,179109.5,7171,WL,A,11.0
1,14.312000036239624,learn,45687.999963760376,Wed Sep 10 2025 17:15:28 GMT-0500 (Central Daylight Time),179641.40000003576,A,ratt,O,t,112,1,531.9000000357628,179109.5,7171,WL,A,11.0
1,14.42799997329712,learn,45572.00002670288,Wed Sep 10 2025 17:15:28 GMT-0500 (Central Daylight Time),179757.80000001192,A,rattl,O,l,99,1,648.3000000119209,179109.5,7171,WL,A,11.0
1,14.513000011444092,learn,45486.99998855591,Wed Sep 10 2025 17:15:28 GMT-0500 (Central Daylight Time),179842.30000001192,A,rattle,O,e,72,1,732.8000000119209,179109.5,7171,WL,A,11.0
1,14.628000020980835,learn,45371.999979019165,Wed Sep 10 2025 17:15:28 GMT-0500 (Central Daylight Time),179958.0,A,rattleenter,O,enter,106,1,848.5,179109.5,7171,WL,A,11.0
1,15.444999933242798,learn,44555.0000667572,Wed Sep 10 2025 17:15:28 GMT-0500 (Central Daylight Time),180774.5,A,g,O,g,799,1,816.1999999880791,179958.30000001192,7171,WL,A,12.0
1,15.543999910354614,learn,44456.000089645386,Wed Sep 10 2025 17:15:28 GMT-0500 (Central Daylight Time),180874.0,A,go,O,o,94,1,915.6999999880791,179958.30000001192,7171,WL,A,12.0
1,15.710999965667725,learn,44289.000034332275,Wed Sep 10 2025 17:15:28 GMT-0500 (Central Daylight Time),181040.90000003576,A,gol,O,l,155,1,1082.6000000238419,179958.30000001192,7171,WL,A,12.0
1,15.827999830245972,learn,44172.00016975403,Wed Sep 10 2025 17:15:28 GMT-0500 (Central Daylight Time),181157.5,A,gold,O,d,99,1,1199.199999988079,179958.30000001192,7171,WL,A,12.0
1,15.977999925613403,learn,44022.0000743866,Wed Sep 10 2025 17:15:28 GMT-0500 (Central Daylight Time),181307.5,A,goldenter,O,enter,136,1,1349.199999988079,179958.30000001192,7171,WL,A,12.0
1,20.592999935150146,learn,39407.00006484985,Wed Sep 10 2025 17:15:28 GMT-0500 (Central Daylight Time),185922.30000001192,A,c,O,c,4609,1,4614.399999976158,181307.90000003576,7171,WL,A,13.0
1,20.72599983215332,learn,39274.00016784668,Wed Sep 10 2025 17:15:28 GMT-0500 (Central Daylight Time),186055.90000003576,A,ch,O,h,122,1,4748.0,181307.90000003576,7171,WL,A,13.0
1,20.90999984741211,learn,39090.00015258789,Wed Sep 10 2025 17:15:28 GMT-0500 (Central Daylight Time),186239.0,A,chi,O,i,165,1,4931.099999964237,181307.90000003576,7171,WL,A,13.0
1,21.109999895095825,learn,38890.000104904175,Wed Sep 10 2025 17:15:28 GMT-0500 (Central Daylight Time),186439.19999998808,A,chim,O,m,182,1,5131.299999952316,181307.90000003576,7171,WL,A,13.0
1,21.493000030517578,learn,38506.99996948242,Wed Sep 10 2025 17:15:28 GMT-0500 (Central Daylight Time),186822.30000001192,A,chimn,O,n,373,1,5514.399999976158,181307.90000003576,7171,WL,A,13.0
1,21.608999967575073,learn,38391.00003242493,Wed Sep 10 2025 17:15:28 GMT-0500 (Central Daylight Time),186939.0,A,chimne,O,e,102,1,5631.099999964237,181307.90000003576,7171,WL,A,13.0
1,21.80900001525879,learn,38190.99998474121,Wed Sep 10 2025 17:15:28 GMT-0500 (Central Daylight Time),187138.90000003576,A,chimney,O,y,185,1,5831.0,181307.90000003576,7171,WL,A,13.0
1,21.97599983215332,learn,38024.00016784668,Wed Sep 10 2025 17:15:28 GMT-0500 (Central Daylight Time),187305.30000001192,A,chimneyenter,O,enter,153,1,5997.399999976158,181307.90000003576,7171,WL,A,13.0
1,28.60699987411499,learn,31393.00012588501,Wed Sep 10 2025 17:15:28 GMT-0500 (Central Daylight Time),193936.80000001192,A,h,O,h,6620,1,6631.199999988079,187305.60000002384,7171,WL,A,14.0
1,28.69099998474121,learn,31309.00001525879,Wed Sep 10 2025 17:15:28 GMT-0500 (Central Daylight Time),194020.19999998808,A,ha,O,a,68,1,6714.599999964237,187305.60000002384,7171,WL,A,14.0
1,28.806999921798706,learn,31193.000078201294,Wed Sep 10 2025 17:15:28 GMT-0500 (Central Daylight Time),194136.5,A,har,O,r,97,1,6830.899999976158,187305.60000002384,7171,WL,A,14.0
1,28.94099998474121,learn,31059.00001525879,Wed Sep 10 2025 17:15:28 GMT-0500 (Central Daylight Time),194270.19999998808,A,harp,O,p,116,1,6964.599999964237,187305.60000002384,7171,WL,A,14.0
1,29.10699987411499,learn,30893.00012588501,Wed Sep 10 2025 17:15:28 GMT-0500 (Central Daylight Time),194436.5,A,harpenter,O,enter,150,1,7130.899999976158,187305.60000002384,7171,WL,A,14.0
1,56.63100004196167,learn,3368.99995803833,Wed Sep 10 2025 17:15:28 GMT-0500 (Central Daylight Time),221961.30000001192,A,enter,O,enter,27504,1,27524.5,194436.80000001192,7171,WL,A,15.0
2,0.4830000400543213,learn,59516.99995994568,Wed Sep 10 2025 17:15:28 GMT-0500 (Central Daylight Time),290973.0,A,b,O,b,475,1,483.19999998807907,290489.8000000119,7171,WL,A,1.0
2,0.6660001277923584,learn,59333.99987220764,Wed Sep 10 2025 17:15:28 GMT-0500 (Central Daylight Time),291156.3000000119,A,bo,O,o,167,1,666.5,290489.8000000119,7171,WL,A,1.0
2,0.8159999847412109,learn,59184.00001525879,Wed Sep 10 2025 17:15:28 GMT-0500 (Central Daylight Time),291306.3000000119,A,boo,O,o,136,1,816.5,290489.8000000119,7171,WL,A,1.0
2,0.9160001277923584,learn,59083.99987220764,Wed Sep 10 2025 17:15:28 GMT-0500 (Central Daylight Time),291406.1999999881,A,book,O,k,90,1,916.3999999761581,290489.8000000119,7171,WL,A,1.0
2,1.1160001754760742,learn,58883.999824523926,Wed Sep 10 2025 17:15:28 GMT-0500 (Central Daylight Time),291606.5,A,bookenter,O,enter,183,1,1116.699999988079,290489.8000000119,7171,WL,A,1.0
2,1.315999984741211,learn,58684.00001525879,Wed Sep 10 2025 17:15:28 GMT-0500 (Central Daylight Time),291806.1999999881,A,f,O,f,190,1,199.39999997615814,291606.8000000119,7171,WL,A,2.0
2,1.4160001277923584,learn,58583.99987220764,Wed Sep 10 2025 17:15:28 GMT-0500 (Central Daylight Time),291905.8000000119,A,fl,O,l,94,1,299.0,291606.8000000119,7171,WL,A,2.0
2,1.5989999771118164,learn,58401.00002288818,Wed Sep 10 2025 17:15:28 GMT-0500 (Central Daylight Time),292089.1999999881,A,flo,O,o,172,1,482.39999997615814,291606.8000000119,7171,WL,A,2.0
2,1.7829999923706055,learn,58217.000007629395,Wed Sep 10 2025 17:15:28 GMT-0500 (Central Daylight Time),292272.5,A,flow,O,w,163,1,665.6999999880791,291606.8000000119,7171,WL,A,2.0
2,1.883000135421753,learn,58116.99986457825,Wed Sep 10 2025 17:15:28 GMT-0500 (Central Daylight Time),292372.8000000119,A,flowe,O,e,85,1,766.0,291606.8000000119,7171,WL,A,2.0
2,1.999000072479248,learn,58000.99992752075,Wed Sep 10 2025 17:15:28 GMT-0500 (Central Daylight Time),292489.1999999881,A,flower,O,r,104,1,882.3999999761581,291606.8000000119,7171,WL,A,2.0
2,2.1660001277923584,learn,57833.99987220764,Wed Sep 10 2025 17:15:28 GMT-0500 (Central Daylight Time),292655.8000000119,A,flowerenter,O,enter,156,1,1049.0,291606.8000000119,7171,WL,A,2.0
2,2.382000207901001,learn,57617.999792099,Wed Sep 10 2025 17:15:28 GMT-0500 (Central Daylight Time),292872.40000003576,A,t,O,t,197,1,216.30000001192093,292656.10000002384,7171,WL,A,3.0
2,2.449000120162964,learn,57550.999879837036,Wed Sep 10 2025 17:15:28 GMT-0500 (Central Daylight Time),292939.3000000119,A,tr,O,r,52,1,283.19999998807907,292656.10000002384,7171,WL,A,3.0
2,2.5320000648498535,learn,57467.99993515015,Wed Sep 10 2025 17:15:28 GMT-0500 (Central Daylight Time),293022.40000003576,A,tra,O,a,73,1,366.30000001192093,292656.10000002384,7171,WL,A,3.0
2,2.617000102996826,learn,57382.999897003174,Wed Sep 10 2025 17:15:28 GMT-0500 (Central Daylight Time),293106.8000000119,A,trai,O,i,78,1,450.69999998807907,292656.10000002384,7171,WL,A,3.0
2,2.699000120162964,learn,57300.999879837036,Wed Sep 10 2025 17:15:28 GMT-0500 (Central Daylight Time),293189.0,A,train,O,n,74,1,532.8999999761581,292656.10000002384,7171,WL,A,3.0
2,2.9160001277923584,learn,57083.99987220764,Wed Sep 10 2025 17:15:28 GMT-0500 (Central Daylight Time),293405.5,A,trainenter,O,enter,200,1,749.3999999761581,292656.10000002384,7171,WL,A,3.0
2,3.199000120162964,learn,56800.999879837036,Wed Sep 10 2025 17:15:28 GMT-0500 (Central Daylight Time),293689.0,A,r,O,r,263,1,283.0999999642372,293405.90000003576,7171,WL,A,4.0
2,3.4150002002716064,learn,56584.99979972839,Wed Sep 10 2025 17:15:28 GMT-0500 (Central Daylight Time),293905.3000000119,A,ru,O,u,204,1,499.39999997615814,293405.90000003576,7171,WL,A,4.0
2,3.5820000171661377,learn,56417.99998283386,Wed Sep 10 2025 17:15:28 GMT-0500 (Central Daylight Time),294072.10000002384,A,rug,O,g,148,1,666.1999999880791,293405.90000003576,7171,WL,A,4.0
2,3.8320000171661377,learn,56167.99998283386,Wed Sep 10 2025 17:15:28 GMT-0500 (Central Daylight Time),294322.0,A,rugenter,O,enter,237,1,916.0999999642372,293405.90000003576,7171,WL,A,4.0
2,4.182000160217285,learn,55817.999839782715,Wed Sep 10 2025 17:15:28 GMT-0500 (Central Daylight Time),294672.0,A,m,O,m,340,1,349.69999998807907,294322.3000000119,7171,WL,A,5.0
2,4.265000104904175,learn,55734.999895095825,Wed Sep 10 2025 17:15:28 GMT-0500 (Central Daylight Time),294755.3000000119,A,me,O,e,69,1,433.0,294322.3000000119,7171,WL,A,5.0
2,4.348999977111816,learn,55651.00002288818,Wed Sep 10 2025 17:15:28 GMT-0500 (Central Daylight Time),294838.6999999881,A,mea,O,a,65,1,516.3999999761581,294322.3000000119,7171,WL,A,5.0
2,4.498000144958496,learn,55501.999855041504,Wed Sep 10 2025 17:15:28 GMT-0500 (Central Daylight Time),294988.3000000119,A,mead,O,d,134,1,666.0,294322.3000000119,7171,WL,A,5.0
2,4.632000207901001,learn,55367.999792099,Wed Sep 10 2025 17:15:28 GMT-0500 (Central Daylight Time),295121.8000000119,A,meado,O,o,121,1,799.5,294322.3000000119,7171,WL,A,5.0
2,4.88100004196167,learn,55118.99995803833,Wed Sep 10 2025 17:15:28 GMT-0500 (Central Daylight Time),295371.40000003576,A,meadow,O,w,242,1,1049.1000000238419,294322.3000000119,7171,WL,A,5.0
2,5.065000057220459,learn,54934.99994277954,Wed Sep 10 2025 17:15:28 GMT-0500 (Central Daylight Time),295555.10000002384,A,meadowenter,O,enter,170,1,1232.800000011921,294322.3000000119,7171,WL,A,5.0
2,5.448000192642212,learn,54551.99980735779,Wed Sep 10 2025 17:15:28 GMT-0500 (Central Daylight Time),295937.90000003576,A,c,O,c,377,1,382.5,295555.40000003576,7171,WL,A,6.0
2,5.581000089645386,learn,54418.999910354614,Wed Sep 10 2025 17:15:28 GMT-0500 (Central Daylight Time),296071.1999999881,A,ch,O,h,115,1,515.7999999523163,295555.40000003576,7171,WL,A,6.0
2,5.680999994277954,learn,54319.000005722046,Wed Sep 10 2025 17:15:28 GMT-0500 (Central Daylight Time),296171.3000000119,A,chi,O,i,85,1,615.8999999761581,295555.40000003576,7171,WL,A,6.0
2,5.8480000495910645,learn,54151.999950408936,Wed Sep 10 2025 17:15:28 GMT-0500 (Central Daylight Time),296337.6999999881,A,chim,O,m,161,1,782.2999999523163,295555.40000003576,7171,WL,A,6.0
2,6.04800009727478,learn,53951.99990272522,Wed Sep 10 2025 17:15:28 GMT-0500 (Central Daylight Time),296537.60000002384,A,chimn,O,n,195,1,982.1999999880791,295555.40000003576,7171,WL,A,6.0
2,6.182000160217285,learn,53817.999839782715,Wed Sep 10 2025 17:15:28 GMT-0500 (Central Daylight Time),296671.6999999881,A,chimne,O,e,115,1,1116.2999999523163,295555.40000003576,7171,WL,A,6.0
2,6.38100004196167,learn,53618.99995803833,Wed Sep 10 2025 17:15:28 GMT-0500 (Central Daylight Time),296871.1999999881,A,chimney,O,y,190,1,1315.7999999523163,295555.40000003576,7171,WL,A,6.0
2,6.515000104904175,learn,53484.999895095825,Wed Sep 10 2025 17:15:28 GMT-0500 (Central Daylight Time),297004.60000002384,A,chimneyenter,O,enter,127,1,1449.199999988079,295555.40000003576,7171,WL,A,6.0
2,7.21399998664856,learn,52786.00001335144,Wed Sep 10 2025 17:15:28 GMT-0500 (Central Daylight Time),297704.40000003576,A,s,O,s,680,1,699.4000000357628,297005.0,7171,WL,A,7.0
2,7.314000129699707,learn,52685.99987030029,Wed Sep 10 2025 17:15:28 GMT-0500 (Central Daylight Time),297804.3000000119,A,sa,O,a,93,1,799.3000000119209,297005.0,7171,WL,A,7.0
2,7.46399998664856,learn,52536.00001335144,Wed Sep 10 2025 17:15:28 GMT-0500 (Central Daylight Time),297954.0,A,sal,O,l,130,1,949.0,297005.0,7171,WL,A,7.0
2,7.63100004196167,learn,52368.99995803833,Wed Sep 10 2025 17:15:28 GMT-0500 (Central Daylight Time),298120.8000000119,A,salt,O,t,146,1,1115.800000011921,297005.0,7171,WL,A,7.0
2,7.731000185012817,learn,52268.99981498718,Wed Sep 10 2025 17:15:28 GMT-0500 (Central Daylight Time),298220.8000000119,A,saltenter,O,enter,92,1,1215.800000011921,297005.0,7171,WL,A,7.0
2,8.19700002670288,learn,51802.99997329712,Wed Sep 10 2025 17:15:28 GMT-0500 (Central Daylight Time),298687.1999999881,A,f,O,f,456,1,465.89999997615814,298221.3000000119,7171,WL,A,8.0
2,8.330000162124634,learn,51669.999837875366,Wed Sep 10 2025 17:15:28 GMT-0500 (Central Daylight Time),298820.3000000119,A,fi,O,i,126,1,599.0,298221.3000000119,7171,WL,A,8.0
2,8.397000074386597,learn,51602.9999256134,Wed Sep 10 2025 17:15:28 GMT-0500 (Central Daylight Time),298887.10000002384,A,fin,O,n,56,1,665.8000000119209,298221.3000000119,7171,WL,A,8.0
2,8.581000089645386,learn,51418.999910354614,Wed Sep 10 2025 17:15:28 GMT-0500 (Central Daylight Time),299070.6999999881,A,fing,O,g,174,1,849.3999999761581,298221.3000000119,7171,WL,A,8.0
2,8.746999979019165,learn,51253.000020980835,Wed Sep 10 2025 17:15:28 GMT-0500 (Central Daylight Time),299237.0,A,finge,O,e,159,1,1015.6999999880791,298221.3000000119,7171,WL,A,8.0
2,8.830000162124634,learn,51169.999837875366,Wed Sep 10 2025 17:15:28 GMT-0500 (Central Daylight Time),299320.5,A,finger,O,r,64,1,1099.199999988079,298221.3000000119,7171,WL,A,8.0
2,8.914000034332275,learn,51085.999965667725,Wed Sep 10 2025 17:15:28 GMT-0500 (Central Daylight Time),299403.8000000119,A,fingerenter,O,enter,76,1,1182.5,298221.3000000119,7171,WL,A,8.0
2,9.097000122070312,learn,50902.99987792969,Wed Sep 10 2025 17:15:28 GMT-0500 (Central Daylight Time),299587.0,A,a,O,a,169,1,182.89999997615814,299404.10000002384,7171,WL,A,9.0
2,9.230000019073486,learn,50769.999980926514,Wed Sep 10 2025 17:15:28 GMT-0500 (Central Daylight Time),299720.3000000119,A,ap,O,p,122,1,316.19999998807907,299404.10000002384,7171,WL,A,9.0
2,9.364000082015991,learn,50635.99991798401,Wed Sep 10 2025 17:15:28 GMT-0500 (Central Daylight Time),299853.5,A,app,O,p,124,1,449.39999997615814,299404.10000002384,7171,WL,A,9.0
2,9.44700002670288,learn,50552.99997329712,Wed Sep 10 2025 17:15:28 GMT-0500 (Central Daylight Time),299936.90000003576,A,appl,O,l,71,1,532.8000000119209,299404.10000002384,7171,WL,A,9.0
2,9.813000202178955,learn,50186.999797821045,Wed Sep 10 2025 17:15:28 GMT-0500 (Central Daylight Time),300303.40000003576,A,apple,O,e,357,1,899.3000000119209,299404.10000002384,7171,WL,A,9.0
2,10.11300015449524,learn,49886.99984550476,Wed Sep 10 2025 17:15:28 GMT-0500 (Central Daylight Time),300603.5,A,appleenter,O,enter,293,1,1199.3999999761581,299404.10000002384,7171,WL,A,9.0
2,10.480000019073486,learn,49519.999980926514,Wed Sep 10 2025 17:15:28 GMT-0500 (Central Daylight Time),300970.1999999881,A,b,O,b,354,1,366.39999997615814,300603.8000000119,7171,WL,A,10.0
2,10.580000162124634,learn,49419.999837875366,Wed Sep 10 2025 17:15:28 GMT-0500 (Central Daylight Time),301069.6999999881,A,bu,O,u,90,1,465.89999997615814,300603.8000000119,7171,WL,A,10.0
2,10.696000099182129,learn,49303.99990081787,Wed Sep 10 2025 17:15:28 GMT-0500 (Central Daylight Time),301186.10000002384,A,but,O,t,111,1,582.3000000119209,300603.8000000119,7171,WL,A,10.0
2,10.84600019454956,learn,49153.99980545044,Wed Sep 10 2025 17:15:28 GMT-0500 (Central Daylight Time),301336.5,A,butt,O,t,139,1,732.6999999880791,300603.8000000119,7171,WL,A,10.0
2,10.963000059127808,learn,49036.99994087219,Wed Sep 10 2025 17:15:28 GMT-0500 (Central Daylight Time),301452.90000003576,A,butto,O,o,100,1,849.1000000238419,300603.8000000119,7171,WL,A,10.0
2,11.063000202178955,learn,48936.999797821045,Wed Sep 10 2025 17:15:28 GMT-0500 (Central Daylight Time),301553.10000002384,A,button,O,n,88,1,949.3000000119209,300603.8000000119,7171,WL,A,10.0
2,11.546000003814697,learn,48453.9999961853,Wed Sep 10 2025 17:15:28 GMT-0500 (Central Daylight Time),302036.0,A,buttonenter,O,enter,477,1,1432.199999988079,300603.8000000119,7171,WL,A,10.0
2,12.246000051498413,learn,47753.99994850159,Wed Sep 10 2025 17:15:28 GMT-0500 (Central Daylight Time),302736.0,A,l,O,l,681,1,699.8000000119209,302036.1999999881,7171,WL,A,11.0
2,12.413000106811523,learn,47586.99989318848,Wed Sep 10 2025 17:15:28 GMT-0500 (Central Daylight Time),302902.6999999881,A,lo,O,o,149,1,866.5,302036.1999999881,7171,WL,A,11.0
2,12.61300015449524,learn,47386.99984550476,Wed Sep 10 2025 17:15:28 GMT-0500 (Central Daylight Time),303102.60000002384,A,log,O,g,190,1,1066.4000000357628,302036.1999999881,7171,WL,A,11.0
2,12.796000003814697,learn,47203.9999961853,Wed Sep 10 2025 17:15:28 GMT-0500 (Central Daylight Time),303286.10000002384,A,logenter,O,enter,166,1,1249.9000000357628,302036.1999999881,7171,WL,A,11.0
2,13.046000003814697,learn,46953.9999961853,Wed Sep 10 2025 17:15:28 GMT-0500 (Central Daylight Time),303535.8000000119,A,k,O,k,231,1,249.30000001192093,303286.5,7171,WL,A,12.0
2,13.129000186920166,learn,46870.999813079834,Wed Sep 10 2025 17:15:28 GMT-0500 (Central Daylight Time),303619.0,A,ke,O,e,77,1,332.5,303286.5,7171,WL,A,12.0
2,13.34600019454956,learn,46653.99980545044,Wed Sep 10 2025 17:15:28 GMT-0500 (Central Daylight Time),303835.6999999881,A,key,O,y,202,1,549.1999999880791,303286.5,7171,WL,A,12.0
2,13.84500002861023,learn,46154.99997138977,Wed Sep 10 2025 17:15:28 GMT-0500 (Central Daylight Time),304335.40000003576,A,keyenter,O,enter,481,1,1048.9000000357628,303286.5,7171,WL,A,12.0
2,14.578999996185303,learn,45421.0000038147,Wed Sep 10 2025 17:15:28 GMT-0500 (Central Daylight Time),305068.5,A,r,O,r,725,1,732.8000000119209,304335.6999999881,7171,WL,A,13.0
2,14.662000179290771,learn,45337.99982070923,Wed Sep 10 2025 17:15:28 GMT-0500 (Central Daylight Time),305151.8000000119,A,ra,O,a,72,1,816.1000000238419,304335.6999999881,7171,WL,A,13.0
2,14.812000036239624,learn,45187.999963760376,Wed Sep 10 2025 17:15:28 GMT-0500 (Central Daylight Time),305301.90000003576,A,rat,O,t,141,1,966.2000000476837,304335.6999999881,7171,WL,A,13.0
2,14.978000164031982,learn,45021.99983596802,Wed Sep 10 2025 17:15:28 GMT-0500 (Central Daylight Time),305468.40000003576,A,ratt,O,t,150,1,1132.7000000476837,304335.6999999881,7171,WL,A,13.0
2,15.078999996185303,learn,44921.0000038147,Wed Sep 10 2025 17:15:28 GMT-0500 (Central Daylight Time),305568.90000003576,A,rattl,O,l,96,1,1233.2000000476837,304335.6999999881,7171,WL,A,13.0
2,15.212000131607056,learn,44787.999868392944,Wed Sep 10 2025 17:15:28 GMT-0500 (Central Daylight Time),305701.6999999881,A,rattle,O,e,117,1,1366.0,304335.6999999881,7171,WL,A,13.0
2,15.412000179290771,learn,44587.99982070923,Wed Sep 10 2025 17:15:28 GMT-0500 (Central Daylight Time),305901.6999999881,A,rattleenter,O,enter,192,1,1566.0,304335.6999999881,7171,WL,A,13.0
2,15.695000171661377,learn,44304.99982833862,Wed Sep 10 2025 17:15:28 GMT-0500 (Central Daylight Time),306185.10000002384,A,g,O,g,263,1,283.0,305902.10000002384,7171,WL,A,14.0
2,15.928000211715698,learn,44071.9997882843,Wed Sep 10 2025 17:15:28 GMT-0500 (Central Daylight Time),306418.0,A,go,O,o,228,1,515.8999999761581,305902.10000002384,7171,WL,A,14.0
2,16.16100001335144,learn,43838.99998664856,Wed Sep 10 2025 17:15:28 GMT-0500 (Central Daylight Time),306651.3000000119,A,gol,O,l,220,1,749.1999999880791,305902.10000002384,7171,WL,A,14.0
2,16.378000020980835,learn,43621.999979019165,Wed Sep 10 2025 17:15:28 GMT-0500 (Central Daylight Time),306867.6999999881,A,gold,O,d,210,1,965.5999999642372,305902.10000002384,7171,WL,A,14.0
2,16.545000076293945,learn,43454.999923706055,Wed Sep 10 2025 17:15:28 GMT-0500 (Central Daylight Time),307035.0,A,goldenter,O,enter,153,1,1132.8999999761581,305902.10000002384,7171,WL,A,14.0
2,23.77500009536743,learn,36224.99990463257,Wed Sep 10 2025 17:15:28 GMT-0500 (Central Daylight Time),314265.5,A,h,O,h,7226,1,7230.099999964237,307035.40000003576,7171,WL,A,15.0
2,23.942000150680542,learn,36057.99984931946,Wed Sep 10 2025 17:15:28 GMT-0500 (Central Daylight Time),314432.3000000119,A,ha,O,a,147,1,7396.899999976158,307035.40000003576,7171,WL,A,15.0
2,24.026000022888184,learn,35973.99997711182,Wed Sep 10 2025 17:15:28 GMT-0500 (Central Daylight Time),314515.6999999881,A,har,O,r,68,1,7480.299999952316,307035.40000003576,7171,WL,A,15.0
2,24.109000205993652,learn,35890.99979400635,Wed Sep 10 2025 17:15:28 GMT-0500 (Central Daylight Time),314599.1999999881,A,harp,O,p,65,1,7563.799999952316,307035.40000003576,7171,WL,A,15.0
2,24.276000022888184,learn,35723.99997711182,Wed Sep 10 2025 17:15:28 GMT-0500 (Central Daylight Time),314765.90000003576,A,harpenter,O,enter,150,1,7730.5,307035.40000003576,7171,WL,A,15.0
3,0.4660000801086426,learn,59533.99991989136,Wed Sep 10 2025 17:15:28 GMT-0500 (Central Daylight Time),384160.60000002384,A,b,O,b,456,1,466.5,383694.10000002384,7171,WL,A,1.0
3,0.6160001754760742,learn,59383.999824523926,Wed Sep 10 2025 17:15:28 GMT-0500 (Central Daylight Time),384310.5,A,bo,O,o,140,1,616.3999999761581,383694.10000002384,7171,WL,A,1.0
3,0.8000001907348633,learn,59199.99980926514,Wed Sep 10 2025 17:15:28 GMT-0500 (Central Daylight Time),384493.8000000119,A,boo,O,o,167,1,799.6999999880791,383694.10000002384,7171,WL,A,1.0
3,0.8660001754760742,learn,59133.999824523926,Wed Sep 10 2025 17:15:28 GMT-0500 (Central Daylight Time),384560.1999999881,A,book,O,k,47,1,866.0999999642372,383694.10000002384,7171,WL,A,1.0
3,1.0830001831054688,learn,58916.99981689453,Wed Sep 10 2025 17:15:28 GMT-0500 (Central Daylight Time),384776.8000000119,A,bookenter,O,enter,196,1,1082.699999988079,383694.10000002384,7171,WL,A,1.0
3,1.2330000400543213,learn,58766.99995994568,Wed Sep 10 2025 17:15:28 GMT-0500 (Central Daylight Time),384926.90000003576,A,f,O,f,132,1,149.70000004768372,384777.1999999881,7171,WL,A,2.0
3,1.315999984741211,learn,58684.00001525879,Wed Sep 10 2025 17:15:28 GMT-0500 (Central Daylight Time),385009.90000003576,A,fl,O,l,77,1,232.70000004768372,384777.1999999881,7171,WL,A,2.0
3,1.5,learn,58500.0,Wed Sep 10 2025 17:15:28 GMT-0500 (Central Daylight Time),385194.6999999881,A,flo,O,o,163,1,417.5,384777.1999999881,7171,WL,A,2.0
3,1.6660001277923584,learn,58333.99987220764,Wed Sep 10 2025 17:15:28 GMT-0500 (Central Daylight Time),385360.1999999881,A,flow,O,w,146,1,583.0,384777.1999999881,7171,WL,A,2.0
3,1.7660000324249268,learn,58233.99996757507,Wed Sep 10 2025 17:15:28 GMT-0500 (Central Daylight Time),385460.0,A,flowe,O,e,85,1,682.8000000119209,384777.1999999881,7171,WL,A,2.0
3,1.8990001678466797,learn,58100.99983215332,Wed Sep 10 2025 17:15:28 GMT-0500 (Central Daylight Time),385593.1999999881,A,flower,O,r,113,1,816.0,384777.1999999881,7171,WL,A,2.0
3,2.2660000324249268,learn,57733.99996757507,Wed Sep 10 2025 17:15:28 GMT-0500 (Central Daylight Time),385960.10000002384,A,flowerenter,O,enter,355,1,1182.9000000357628,384777.1999999881,7171,WL,A,2.0
3,2.5490000247955322,learn,57450.99997520447,Wed Sep 10 2025 17:15:28 GMT-0500 (Central Daylight Time),386243.10000002384,A,t,O,t,270,1,282.69999998807907,385960.40000003576,7171,WL,A,3.0
3,2.616000175476074,learn,57383.999824523926,Wed Sep 10 2025 17:15:28 GMT-0500 (Central Daylight Time),386309.90000003576,A,tr,O,r,58,1,349.5,385960.40000003576,7171,WL,A,3.0
3,2.7160000801086426,learn,57283.99991989136,Wed Sep 10 2025 17:15:28 GMT-0500 (Central Daylight Time),386409.6999999881,A,tra,O,a,79,1,449.2999999523163,385960.40000003576,7171,WL,A,3.0
3,2.749000072479248,learn,57250.99992752075,Wed Sep 10 2025 17:15:28 GMT-0500 (Central Daylight Time),386443.10000002384,A,trai,O,i,19,1,482.69999998807907,385960.40000003576,7171,WL,A,3.0
3,2.815999984741211,learn,57184.00001525879,Wed Sep 10 2025 17:15:28 GMT-0500 (Central Daylight Time),386509.90000003576,A,train,O,n,58,1,549.5,385960.40000003576,7171,WL,A,3.0
3,2.9820001125335693,learn,57017.99988746643,Wed Sep 10 2025 17:15:28 GMT-0500 (Central Daylight Time),386676.5,A,trainenter,O,enter,159,1,716.0999999642372,385960.40000003576,7171,WL,A,3.0
3,3.1650002002716064,learn,56834.99979972839,Wed Sep 10 2025 17:15:28 GMT-0500 (Central Daylight Time),386859.6999999881,A,r,O,r,176,1,182.89999997615814,386676.8000000119,7171,WL,A,4.0
3,3.3320000171661377,learn,56667.99998283386,Wed Sep 10 2025 17:15:28 GMT-0500 (Central Daylight Time),387026.40000003576,A,ru,O,u,154,1,349.60000002384186,386676.8000000119,7171,WL,A,4.0
3,3.432000160217285,learn,56567.999839782715,Wed Sep 10 2025 17:15:28 GMT-0500 (Central Daylight Time),387126.40000003576,A,rug,O,g,90,1,449.60000002384186,386676.8000000119,7171,WL,A,4.0
3,3.5990002155303955,learn,56400.999784469604,Wed Sep 10 2025 17:15:28 GMT-0500 (Central Daylight Time),387293.10000002384,A,rugenter,O,enter,152,1,616.3000000119209,386676.8000000119,7171,WL,A,4.0
3,3.8490002155303955,learn,56150.999784469604,Wed Sep 10 2025 17:15:28 GMT-0500 (Central Daylight Time),387542.90000003576,A,m,O,m,232,1,249.5,387293.40000003576,7171,WL,A,5.0
3,3.8990001678466797,learn,56100.99983215332,Wed Sep 10 2025 17:15:28 GMT-0500 (Central Daylight Time),387592.90000003576,A,me,O,e,38,1,299.5,387293.40000003576,7171,WL,A,5.0
3,3.9820001125335693,learn,56017.99988746643,Wed Sep 10 2025 17:15:28 GMT-0500 (Central Daylight Time),387675.90000003576,A,mea,O,a,76,1,382.5,387293.40000003576,7171,WL,A,5.0
3,4.182000160217285,learn,55817.999839782715,Wed Sep 10 2025 17:15:28 GMT-0500 (Central Daylight Time),387876.1999999881,A,mead,O,d,194,1,582.7999999523163,387293.40000003576,7171,WL,A,5.0
3,4.332000017166138,learn,55667.99998283386,Wed Sep 10 2025 17:15:28 GMT-0500 (Central Daylight Time),388026.0,A,meado,O,o,130,1,732.5999999642372,387293.40000003576,7171,WL,A,5.0
3,4.531000137329102,learn,55468.9998626709,Wed Sep 10 2025 17:15:28 GMT-0500 (Central Daylight Time),388225.90000003576,A,meadow,O,w,186,1,932.5,387293.40000003576,7171,WL,A,5.0
3,4.9150002002716064,learn,55084.99979972839,Wed Sep 10 2025 17:15:28 GMT-0500 (Central Daylight Time),388609.3000000119,A,meadowenter,O,enter,363,1,1315.8999999761581,387293.40000003576,7171,WL,A,5.0
3,5.648000001907349,learn,54351.99999809265,Wed Sep 10 2025 17:15:28 GMT-0500 (Central Daylight Time),389342.1999999881,A,h,O,h,723,1,732.5,388609.6999999881,7171,WL,A,6.0
3,5.748000144958496,learn,54251.999855041504,Wed Sep 10 2025 17:15:28 GMT-0500 (Central Daylight Time),389441.90000003576,A,ha,O,a,95,1,832.2000000476837,388609.6999999881,7171,WL,A,6.0
3,5.8480000495910645,learn,54151.999950408936,Wed Sep 10 2025 17:15:28 GMT-0500 (Central Daylight Time),389542.1999999881,A,har,O,r,83,1,932.5,388609.6999999881,7171,WL,A,6.0
3,6.014000177383423,learn,53985.99982261658,Wed Sep 10 2025 17:15:28 GMT-0500 (Central Daylight Time),389708.6999999881,A,harp,O,p,160,1,1099.0,388609.6999999881,7171,WL,A,6.0
3,6.432000160217285,learn,53567.999839782715,Wed Sep 10 2025 17:15:28 GMT-0500 (Central Daylight Time),390126.40000003576,A,harpenter,O,enter,400,1,1516.7000000476837,388609.6999999881,7171,WL,A,6.0
3,8.097000122070312,learn,51902.99987792969,Wed Sep 10 2025 17:15:28 GMT-0500 (Central Daylight Time),391791.6999999881,A,s,O,s,1646,1,1664.7999999523163,390126.90000003576,7171,WL,A,7.0
3,8.180000066757202,learn,51819.9999332428,Wed Sep 10 2025 17:15:28 GMT-0500 (Central Daylight Time),391874.5,A,sa,O,a,77,1,1747.5999999642372,390126.90000003576,7171,WL,A,7.0
3,8.397000074386597,learn,51602.9999256134,Wed Sep 10 2025 17:15:28 GMT-0500 (Central Daylight Time),392091.3000000119,A,sal,O,l,203,1,1964.3999999761581,390126.90000003576,7171,WL,A,7.0
3,8.547000169754028,learn,51452.99983024597,Wed Sep 10 2025 17:15:28 GMT-0500 (Central Daylight Time),392241.5,A,salt,O,t,138,1,2114.599999964237,390126.90000003576,7171,WL,A,7.0
3,8.730000019073486,learn,51269.999980926514,Wed Sep 10 2025 17:15:28 GMT-0500 (Central Daylight Time),392424.5,A,saltenter,O,enter,171,1,2297.599999964237,390126.90000003576,7171,WL,A,7.0
3,9.480000019073486,learn,50519.999980926514,Wed Sep 10 2025 17:15:28 GMT-0500 (Central Daylight Time),393174.40000003576,A,f,O,f,732,1,749.5,392424.90000003576,7171,WL,A,8.0
3,9.630000114440918,learn,50369.99988555908,Wed Sep 10 2025 17:15:28 GMT-0500 (Central Daylight Time),393324.6999999881,A,fi,O,i,143,1,899.7999999523163,392424.90000003576,7171,WL,A,8.0
3,9.69700002670288,learn,50302.99997329712,Wed Sep 10 2025 17:15:28 GMT-0500 (Central Daylight Time),393391.0,A,fin,O,n,48,1,966.0999999642372,392424.90000003576,7171,WL,A,8.0
3,9.746999979019165,learn,50253.000020980835,Wed Sep 10 2025 17:15:28 GMT-0500 (Central Daylight Time),393441.10000002384,A,fing,O,g,38,1,1016.1999999880791,392424.90000003576,7171,WL,A,8.0
3,9.896000146865845,learn,50103.999853134155,Wed Sep 10 2025 17:15:28 GMT-0500 (Central Daylight Time),393590.8000000119,A,finge,O,e,141,1,1165.8999999761581,392424.90000003576,7171,WL,A,8.0
3,9.980000019073486,learn,50019.999980926514,Wed Sep 10 2025 17:15:28 GMT-0500 (Central Daylight Time),393673.90000003576,A,finger,O,r,71,1,1249.0,392424.90000003576,7171,WL,A,8.0
3,10.063000202178955,learn,49936.999797821045,Wed Sep 10 2025 17:15:28 GMT-0500 (Central Daylight Time),393757.5,A,fingerenter,O,enter,67,1,1332.5999999642372,392424.90000003576,7171,WL,A,8.0
3,10.180000066757202,learn,49819.9999332428,Wed Sep 10 2025 17:15:28 GMT-0500 (Central Daylight Time),393874.0,A,a,O,a,103,1,116.09999996423721,393757.90000003576,7171,WL,A,9.0
3,10.580000162124634,learn,49419.999837875366,Wed Sep 10 2025 17:15:28 GMT-0500 (Central Daylight Time),394274.10000002384,A,ap,O,p,387,1,516.1999999880791,393757.90000003576,7171,WL,A,9.0
3,10.730000019073486,learn,49269.999980926514,Wed Sep 10 2025 17:15:28 GMT-0500 (Central Daylight Time),394424.10000002384,A,app,O,p,139,1,666.1999999880791,393757.90000003576,7171,WL,A,9.0
3,10.813000202178955,learn,49186.999797821045,Wed Sep 10 2025 17:15:28 GMT-0500 (Central Daylight Time),394507.40000003576,A,appl,O,l,69,1,749.5,393757.90000003576,7171,WL,A,9.0
3,10.979000091552734,learn,49020.999908447266,Wed Sep 10 2025 17:15:28 GMT-0500 (Central Daylight Time),394673.8000000119,A,apple,O,e,154,1,915.8999999761581,393757.90000003576,7171,WL,A,9.0
3,11.430000066757202,learn,48569.9999332428,Wed Sep 10 2025 17:15:28 GMT-0500 (Central Daylight Time),395123.90000003576,A,appleenter,O,enter,435,1,1366.0,393757.90000003576,7171,WL,A,9.0
3,12.446000099182129,learn,47553.99990081787,Wed Sep 10 2025 17:15:28 GMT-0500 (Central Daylight Time),396140.0,A,c,O,c,1001,1,1015.8000000119209,395124.1999999881,7171,WL,A,10.0
3,12.578999996185303,learn,47421.0000038147,Wed Sep 10 2025 17:15:28 GMT-0500 (Central Daylight Time),396273.10000002384,A,ch,O,h,119,1,1148.9000000357628,395124.1999999881,7171,WL,A,10.0
3,12.828999996185303,learn,47171.0000038147,Wed Sep 10 2025 17:15:28 GMT-0500 (Central Daylight Time),396522.8000000119,A,chi,O,i,243,1,1398.6000000238419,395124.1999999881,7171,WL,A,10.0
3,13.045000076293945,learn,46954.999923706055,Wed Sep 10 2025 17:15:28 GMT-0500 (Central Daylight Time),396739.6999999881,A,chim,O,m,202,1,1615.5,395124.1999999881,7171,WL,A,10.0
3,13.26200008392334,learn,46737.99991607666,Wed Sep 10 2025 17:15:28 GMT-0500 (Central Daylight Time),396956.40000003576,A,chimn,O,n,210,1,1832.2000000476837,395124.1999999881,7171,WL,A,10.0
3,13.379000186920166,learn,46620.999813079834,Wed Sep 10 2025 17:15:28 GMT-0500 (Central Daylight Time),397073.1999999881,A,chimne,O,e,96,1,1949.0,395124.1999999881,7171,WL,A,10.0
3,13.59500002861023,learn,46404.99997138977,Wed Sep 10 2025 17:15:28 GMT-0500 (Central Daylight Time),397289.8000000119,A,chimney,O,y,205,1,2165.600000023842,395124.1999999881,7171,WL,A,10.0
3,14.078999996185303,learn,45921.0000038147,Wed Sep 10 2025 17:15:28 GMT-0500 (Central Daylight Time),397773.10000002384,A,chimneyenter,O,enter,476,1,2648.900000035763,395124.1999999881,7171,WL,A,10.0
3,14.945000171661377,learn,45054.99982833862,Wed Sep 10 2025 17:15:28 GMT-0500 (Central Daylight Time),398639.3000000119,A,b,O,b,857,1,865.8999999761581,397773.40000003576,7171,WL,A,11.0
3,15.01200008392334,learn,44987.99991607666,Wed Sep 10 2025 17:15:28 GMT-0500 (Central Daylight Time),398706.10000002384,A,bu,O,u,53,1,932.6999999880791,397773.40000003576,7171,WL,A,11.0
3,15.128000020980835,learn,44871.999979019165,Wed Sep 10 2025 17:15:28 GMT-0500 (Central Daylight Time),398822.60000002384,A,but,O,t,98,1,1049.199999988079,397773.40000003576,7171,WL,A,11.0
3,15.245000123977661,learn,44754.99987602234,Wed Sep 10 2025 17:15:28 GMT-0500 (Central Daylight Time),398939.10000002384,A,butt,O,t,110,1,1165.699999988079,397773.40000003576,7171,WL,A,11.0
3,15.361000061035156,learn,44638.999938964844,Wed Sep 10 2025 17:15:28 GMT-0500 (Central Daylight Time),399055.90000003576,A,butto,O,o,98,1,1282.5,397773.40000003576,7171,WL,A,11.0
3,15.428000211715698,learn,44571.9997882843,Wed Sep 10 2025 17:15:28 GMT-0500 (Central Daylight Time),399122.60000002384,A,button,O,n,53,1,1349.199999988079,397773.40000003576,7171,WL,A,11.0
3,15.811000108718872,learn,44188.99989128113,Wed Sep 10 2025 17:15:28 GMT-0500 (Central Daylight Time),399505.3000000119,A,buttonenter,O,enter,378,1,1731.8999999761581,397773.40000003576,7171,WL,A,11.0
3,16.111000061035156,learn,43888.999938964844,Wed Sep 10 2025 17:15:28 GMT-0500 (Central Daylight Time),399805.6999999881,A,l,O,l,293,1,300.19999998807907,399505.5,7171,WL,A,12.0
3,16.261000156402588,learn,43738.99984359741,Wed Sep 10 2025 17:15:28 GMT-0500 (Central Daylight Time),399955.60000002384,A,lo,O,o,143,1,450.10000002384186,399505.5,7171,WL,A,12.0
3,16.41100001335144,learn,43588.99998664856,Wed Sep 10 2025 17:15:28 GMT-0500 (Central Daylight Time),400105.40000003576,A,log,O,g,129,1,599.9000000357628,399505.5,7171,WL,A,12.0
3,16.544000148773193,learn,43455.99985122681,Wed Sep 10 2025 17:15:28 GMT-0500 (Central Daylight Time),400238.60000002384,A,logenter,O,enter,123,1,733.1000000238419,399505.5,7171,WL,A,12.0
3,16.761000156402588,learn,43238.99984359741,Wed Sep 10 2025 17:15:28 GMT-0500 (Central Daylight Time),400455.5,A,k,O,k,198,1,216.5,400239.0,7171,WL,A,13.0
3,16.861000061035156,learn,43138.999938964844,Wed Sep 10 2025 17:15:28 GMT-0500 (Central Daylight Time),400555.1999999881,A,ke,O,e,85,1,316.19999998807907,400239.0,7171,WL,A,13.0
3,17.028000116348267,learn,42971.99988365173,Wed Sep 10 2025 17:15:28 GMT-0500 (Central Daylight Time),400721.90000003576,A,key,O,y,162,1,482.9000000357628,400239.0,7171,WL,A,13.0
3,17.1780002117157,learn,42821.9997882843,Wed Sep 10 2025 17:15:28 GMT-0500 (Central Daylight Time),400871.90000003576,A,keyenter,O,enter,139,1,632.9000000357628,400239.0,7171,WL,A,13.0
3,17.91100001335144,learn,42088.99998664856,Wed Sep 10 2025 17:15:28 GMT-0500 (Central Daylight Time),401605.3000000119,A,r,O,r,718,1,733.0,400872.3000000119,7171,WL,A,14.0
3,18.027000188827515,learn,41972.999811172485,Wed Sep 10 2025 17:15:28 GMT-0500 (Central Daylight Time),401721.6999999881,A,ra,O,a,95,1,849.3999999761581,400872.3000000119,7171,WL,A,14.0
3,18.094000101089478,learn,41905.99989891052,Wed Sep 10 2025 17:15:28 GMT-0500 (Central Daylight Time),401788.5,A,rat,O,t,58,1,916.1999999880791,400872.3000000119,7171,WL,A,14.0
3,18.22699999809265,learn,41773.00000190735,Wed Sep 10 2025 17:15:28 GMT-0500 (Central Daylight Time),401921.60000002384,A,ratt,O,t,112,1,1049.300000011921,400872.3000000119,7171,WL,A,14.0
3,18.427000045776367,learn,41572.99995422363,Wed Sep 10 2025 17:15:28 GMT-0500 (Central Daylight Time),402121.5,A,rattl,O,l,187,1,1249.199999988079,400872.3000000119,7171,WL,A,14.0
3,18.56000018119812,learn,41439.99981880188,Wed Sep 10 2025 17:15:28 GMT-0500 (Central Daylight Time),402254.6999999881,A,rattle,O,e,123,1,1382.3999999761581,400872.3000000119,7171,WL,A,14.0
3,18.74400019645691,learn,41255.99980354309,Wed Sep 10 2025 17:15:28 GMT-0500 (Central Daylight Time),402438.0,A,rattleenter,O,enter,166,1,1565.699999988079,400872.3000000119,7171,WL,A,14.0
3,18.97699999809265,learn,41023.00000190735,Wed Sep 10 2025 17:15:28 GMT-0500 (Central Daylight Time),402671.60000002384,A,g,O,g,216,1,233.30000001192093,402438.3000000119,7171,WL,A,15.0
3,19.06000018119812,learn,40939.99981880188,Wed Sep 10 2025 17:15:28 GMT-0500 (Central Daylight Time),402754.40000003576,A,go,O,o,78,1,316.10000002384186,402438.3000000119,7171,WL,A,15.0
3,19.243000030517578,learn,40756.99996948242,Wed Sep 10 2025 17:15:28 GMT-0500 (Central Daylight Time),402937.8000000119,A,gol,O,l,172,1,499.5,402438.3000000119,7171,WL,A,15.0
3,19.427000045776367,learn,40572.99995422363,Wed Sep 10 2025 17:15:28 GMT-0500 (Central Daylight Time),403121.1999999881,A,gold,O,d,163,1,682.8999999761581,402438.3000000119,7171,WL,A,15.0
3,19.5770001411438,learn,40422.9998588562,Wed Sep 10 2025 17:15:28 GMT-0500 (Central Daylight Time),403271.10000002384,A,goldenter,O,enter,139,1,832.8000000119209,402438.3000000119,7171,WL,A,15.0
4,0.5160000324249268,learn,59483.99996757507,Wed Sep 10 2025 17:15:28 GMT-0500 (Central Daylight Time),470150.1999999881,A,b,O,b,500,1,516.3999999761581,469633.8000000119,7171,WL,A,1.0
4,0.6659998893737793,learn,59334.00011062622,Wed Sep 10 2025 17:15:28 GMT-0500 (Central Daylight Time),470300.10000002384,A,bo,O,o,142,1,666.3000000119209,469633.8000000119,7171,WL,A,1.0
4,0.8499999046325684,learn,59150.00009536743,Wed Sep 10 2025 17:15:28 GMT-0500 (Central Daylight Time),470483.40000003576,A,boo,O,o,170,1,849.6000000238419,469633.8000000119,7171,WL,A,1.0
4,0.9159998893737793,learn,59084.00011062622,Wed Sep 10 2025 17:15:28 GMT-0500 (Central Daylight Time),470550.1999999881,A,book,O,k,49,1,916.3999999761581,469633.8000000119,7171,WL,A,1.0
4,1.1159999370574951,learn,58884.000062942505,Wed Sep 10 2025 17:15:28 GMT-0500 (Central Daylight Time),470750.3000000119,A,bookenter,O,enter,191,1,1116.5,469633.8000000119,7171,WL,A,1.0
4,1.2829999923706055,learn,58717.000007629395,Wed Sep 10 2025 17:15:28 GMT-0500 (Central Daylight Time),470916.60000002384,A,f,O,f,158,1,166.0,470750.60000002384,7171,WL,A,2.0
4,1.3819999694824219,learn,58618.00003051758,Wed Sep 10 2025 17:15:28 GMT-0500 (Central Daylight Time),471016.3000000119,A,fl,O,l,88,1,265.69999998807907,470750.60000002384,7171,WL,A,2.0
4,1.5490000247955322,learn,58450.99997520447,Wed Sep 10 2025 17:15:28 GMT-0500 (Central Daylight Time),471183.3000000119,A,flo,O,o,149,1,432.69999998807907,470750.60000002384,7171,WL,A,2.0
4,1.682999849319458,learn,58317.00015068054,Wed Sep 10 2025 17:15:28 GMT-0500 (Central Daylight Time),471316.5,A,flow,O,w,126,1,565.8999999761581,470750.60000002384,7171,WL,A,2.0
4,1.749000072479248,learn,58250.99992752075,Wed Sep 10 2025 17:15:28 GMT-0500 (Central Daylight Time),471383.3000000119,A,flowe,O,e,56,1,632.6999999880791,470750.60000002384,7171,WL,A,2.0
4,1.8329999446868896,learn,58167.00005531311,Wed Sep 10 2025 17:15:28 GMT-0500 (Central Daylight Time),471466.40000003576,A,flower,O,r,79,1,715.8000000119209,470750.60000002384,7171,WL,A,2.0
4,1.999000072479248,learn,58000.99992752075,Wed Sep 10 2025 17:15:28 GMT-0500 (Central Daylight Time),471633.10000002384,A,flowerenter,O,enter,147,1,882.5,470750.60000002384,7171,WL,A,2.0
4,2.1489999294281006,learn,57851.0000705719,Wed Sep 10 2025 17:15:28 GMT-0500 (Central Daylight Time),471783.10000002384,A,t,O,t,131,1,149.60000002384186,471633.5,7171,WL,A,3.0
4,2.2160000801086426,learn,57783.99991989136,Wed Sep 10 2025 17:15:28 GMT-0500 (Central Daylight Time),471849.5,A,tr,O,r,53,1,216.0,471633.5,7171,WL,A,3.0
4,2.2990000247955322,learn,57700.99997520447,Wed Sep 10 2025 17:15:28 GMT-0500 (Central Daylight Time),471933.10000002384,A,tra,O,a,68,1,299.60000002384186,471633.5,7171,WL,A,3.0
4,2.365999937057495,learn,57634.000062942505,Wed Sep 10 2025 17:15:28 GMT-0500 (Central Daylight Time),471999.8000000119,A,trai,O,i,56,1,366.30000001192093,471633.5,7171,WL,A,3.0
4,2.4660000801086426,learn,57533.99991989136,Wed Sep 10 2025 17:15:28 GMT-0500 (Central Daylight Time),472099.5,A,train,O,n,86,1,466.0,471633.5,7171,WL,A,3.0
4,2.6659998893737793,learn,57334.00011062622,Wed Sep 10 2025 17:15:28 GMT-0500 (Central Daylight Time),472299.40000003576,A,trainenter,O,enter,193,1,665.9000000357628,471633.5,7171,WL,A,3.0
4,2.815999984741211,learn,57184.00001525879,Wed Sep 10 2025 17:15:28 GMT-0500 (Central Daylight Time),472449.5,A,r,O,r,129,1,149.69999998807907,472299.8000000119,7171,WL,A,4.0
4,2.9489998817443848,learn,57051.000118255615,Wed Sep 10 2025 17:15:28 GMT-0500 (Central Daylight Time),472582.6999999881,A,ru,O,u,116,1,282.89999997615814,472299.8000000119,7171,WL,A,4.0
4,3.0820000171661377,learn,56917.99998283386,Wed Sep 10 2025 17:15:28 GMT-0500 (Central Daylight Time),472716.1999999881,A,rug,O,g,118,1,416.39999997615814,472299.8000000119,7171,WL,A,4.0
4,3.431999921798706,learn,56568.000078201294,Wed Sep 10 2025 17:15:28 GMT-0500 (Central Daylight Time),473065.8000000119,A,rugenter,O,enter,345,1,766.0,472299.8000000119,7171,WL,A,4.0
4,3.681999921798706,learn,56318.000078201294,Wed Sep 10 2025 17:15:28 GMT-0500 (Central Daylight Time),473315.6999999881,A,m,O,m,244,1,249.69999998807907,473066.0,7171,WL,A,5.0
4,3.747999906539917,learn,56252.00009346008,Wed Sep 10 2025 17:15:28 GMT-0500 (Central Daylight Time),473382.3000000119,A,me,O,e,49,1,316.30000001192093,473066.0,7171,WL,A,5.0
4,3.8320000171661377,learn,56167.99998283386,Wed Sep 10 2025 17:15:28 GMT-0500 (Central Daylight Time),473465.8000000119,A,mea,O,a,78,1,399.80000001192093,473066.0,7171,WL,A,5.0
4,3.9819998741149902,learn,56018.00012588501,Wed Sep 10 2025 17:15:28 GMT-0500 (Central Daylight Time),473615.90000003576,A,mead,O,d,139,1,549.9000000357628,473066.0,7171,WL,A,5.0
4,4.115000009536743,learn,55884.99999046326,Wed Sep 10 2025 17:15:28 GMT-0500 (Central Daylight Time),473749.0,A,meado,O,o,125,1,683.0,473066.0,7171,WL,A,5.0
4,4.264999866485596,learn,55735.000133514404,Wed Sep 10 2025 17:15:28 GMT-0500 (Central Daylight Time),473899.10000002384,A,meadow,O,w,144,1,833.1000000238419,473066.0,7171,WL,A,5.0
4,4.565000057220459,learn,55434.99994277954,Wed Sep 10 2025 17:15:28 GMT-0500 (Central Daylight Time),474199.3000000119,A,meadowenter,O,enter,282,1,1133.300000011921,473066.0,7171,WL,A,5.0
4,4.921999931335449,learn,55078.00006866455,Wed Sep 10 2025 17:15:28 GMT-0500 (Central Daylight Time),474556.0,A,h,O,h,336,1,356.39999997615814,474199.60000002384,7171,WL,A,6.0
4,4.986000061035156,learn,55013.999938964844,Wed Sep 10 2025 17:15:28 GMT-0500 (Central Daylight Time),474619.5,A,ha,O,a,55,1,419.89999997615814,474199.60000002384,7171,WL,A,6.0
4,5.065000057220459,learn,54934.99994277954,Wed Sep 10 2025 17:15:28 GMT-0500 (Central Daylight Time),474698.40000003576,A,har,O,r,73,1,498.80000001192093,474199.60000002384,7171,WL,A,6.0
4,5.164999961853027,learn,54835.00003814697,Wed Sep 10 2025 17:15:28 GMT-0500 (Central Daylight Time),474798.60000002384,A,harp,O,p,82,1,599.0,474199.60000002384,7171,WL,A,6.0
4,5.4649999141693115,learn,54535.00008583069,Wed Sep 10 2025 17:15:28 GMT-0500 (Central Daylight Time),475098.5,A,harpenter,O,enter,294,1,898.8999999761581,474199.60000002384,7171,WL,A,6.0
4,6.398000001907349,learn,53601.99999809265,Wed Sep 10 2025 17:15:28 GMT-0500 (Central Daylight Time),476031.8000000119,A,s,O,s,914,1,933.0,475098.8000000119,7171,WL,A,7.0
4,6.5309998989105225,learn,53469.00010108948,Wed Sep 10 2025 17:15:28 GMT-0500 (Central Daylight Time),476164.8000000119,A,sa,O,a,117,1,1066.0,475098.8000000119,7171,WL,A,7.0
4,6.63100004196167,learn,53368.99995803833,Wed Sep 10 2025 17:15:28 GMT-0500 (Central Daylight Time),476265.10000002384,A,sal,O,l,79,1,1166.300000011921,475098.8000000119,7171,WL,A,7.0
4,6.764999866485596,learn,53235.000133514404,Wed Sep 10 2025 17:15:28 GMT-0500 (Central Daylight Time),476398.5,A,salt,O,t,116,1,1299.699999988079,475098.8000000119,7171,WL,A,7.0
4,6.864000082015991,learn,53135.99991798401,Wed Sep 10 2025 17:15:28 GMT-0500 (Central Daylight Time),476498.0,A,saltenter,O,enter,94,1,1399.199999988079,475098.8000000119,7171,WL,A,7.0
4,6.997999906539917,learn,53002.00009346008,Wed Sep 10 2025 17:15:28 GMT-0500 (Central Daylight Time),476631.5,A,f,O,f,116,1,133.19999998807907,476498.3000000119,7171,WL,A,8.0
4,7.115000009536743,learn,52884.99999046326,Wed Sep 10 2025 17:15:28 GMT-0500 (Central Daylight Time),476748.40000003576,A,fi,O,i,109,1,250.10000002384186,476498.3000000119,7171,WL,A,8.0
4,7.180999994277954,learn,52819.000005722046,Wed Sep 10 2025 17:15:28 GMT-0500 (Central Daylight Time),476814.8000000119,A,fin,O,n,48,1,316.5,476498.3000000119,7171,WL,A,8.0
4,7.247999906539917,learn,52752.00009346008,Wed Sep 10 2025 17:15:28 GMT-0500 (Central Daylight Time),476881.40000003576,A,fing,O,g,54,1,383.10000002384186,476498.3000000119,7171,WL,A,8.0
4,7.430999994277954,learn,52569.000005722046,Wed Sep 10 2025 17:15:28 GMT-0500 (Central Daylight Time),477064.90000003576,A,finge,O,e,172,1,566.6000000238419,476498.3000000119,7171,WL,A,8.0
4,7.513999938964844,learn,52486.000061035156,Wed Sep 10 2025 17:15:28 GMT-0500 (Central Daylight Time),477148.10000002384,A,finger,O,r,68,1,649.8000000119209,476498.3000000119,7171,WL,A,8.0
4,7.664000034332275,learn,52335.999965667725,Wed Sep 10 2025 17:15:28 GMT-0500 (Central Daylight Time),477298.3000000119,A,fingerenter,O,enter,137,1,800.0,476498.3000000119,7171,WL,A,8.0
4,8.329999923706055,learn,51670.000076293945,Wed Sep 10 2025 17:15:28 GMT-0500 (Central Daylight Time),477964.10000002384,A,a,O,a,651,1,665.6000000238419,477298.5,7171,WL,A,9.0
4,8.44700002670288,learn,51552.99997329712,Wed Sep 10 2025 17:15:28 GMT-0500 (Central Daylight Time),478081.40000003576,A,ap,O,p,105,1,782.9000000357628,477298.5,7171,WL,A,9.0
4,8.596999883651733,learn,51403.00011634827,Wed Sep 10 2025 17:15:28 GMT-0500 (Central Daylight Time),478230.60000002384,A,app,O,p,139,1,932.1000000238419,477298.5,7171,WL,A,9.0
4,8.662999868392944,learn,51337.000131607056,Wed Sep 10 2025 17:15:28 GMT-0500 (Central Daylight Time),478297.3000000119,A,appl,O,l,62,1,998.8000000119209,477298.5,7171,WL,A,9.0
4,8.980000019073486,learn,51019.999980926514,Wed Sep 10 2025 17:15:28 GMT-0500 (Central Daylight Time),478613.8000000119,A,apple,O,e,307,1,1315.300000011921,477298.5,7171,WL,A,9.0
4,9.397000074386597,learn,50602.9999256134,Wed Sep 10 2025 17:15:28 GMT-0500 (Central Daylight Time),479030.40000003576,A,appleenter,O,enter,399,1,1731.9000000357628,477298.5,7171,WL,A,9.0
4,9.713000059127808,learn,50286.99994087219,Wed Sep 10 2025 17:15:28 GMT-0500 (Central Daylight Time),479347.10000002384,A,c,O,c,302,1,316.5,479030.60000002384,7171,WL,A,10.0
4,9.812999963760376,learn,50187.000036239624,Wed Sep 10 2025 17:15:28 GMT-0500 (Central Daylight Time),479446.90000003576,A,ch,O,h,89,1,416.30000001192093,479030.60000002384,7171,WL,A,10.0
4,9.879999876022339,learn,50120.00012397766,Wed Sep 10 2025 17:15:28 GMT-0500 (Central Daylight Time),479513.6999999881,A,chi,O,i,53,1,483.0999999642372,479030.60000002384,7171,WL,A,10.0
4,10.062999963760376,learn,49937.000036239624,Wed Sep 10 2025 17:15:28 GMT-0500 (Central Daylight Time),479697.10000002384,A,chim,O,m,179,1,666.5,479030.60000002384,7171,WL,A,10.0
4,10.246000051498413,learn,49753.99994850159,Wed Sep 10 2025 17:15:28 GMT-0500 (Central Daylight Time),479880.10000002384,A,chimn,O,n,172,1,849.5,479030.60000002384,7171,WL,A,10.0
4,10.329999923706055,learn,49670.000076293945,Wed Sep 10 2025 17:15:28 GMT-0500 (Central Daylight Time),479963.5,A,chimne,O,e,68,1,932.8999999761581,479030.60000002384,7171,WL,A,10.0
4,10.529000043869019,learn,49470.99995613098,Wed Sep 10 2025 17:15:28 GMT-0500 (Central Daylight Time),480163.1999999881,A,chimney,O,y,185,1,1132.5999999642372,479030.60000002384,7171,WL,A,10.0
4,10.996000051498413,learn,49003.99994850159,Wed Sep 10 2025 17:15:28 GMT-0500 (Central Daylight Time),480629.90000003576,A,chimneyenter,O,enter,449,1,1599.300000011921,479030.60000002384,7171,WL,A,10.0
4,11.678999900817871,learn,48321.00009918213,Wed Sep 10 2025 17:15:28 GMT-0500 (Central Daylight Time),481313.10000002384,A,b,O,b,679,1,683.1000000238419,480630.0,7171,WL,A,11.0
4,11.796000003814697,learn,48203.9999961853,Wed Sep 10 2025 17:15:28 GMT-0500 (Central Daylight Time),481429.8000000119,A,bu,O,u,99,1,799.8000000119209,480630.0,7171,WL,A,11.0
4,11.878999948501587,learn,48121.00005149841,Wed Sep 10 2025 17:15:28 GMT-0500 (Central Daylight Time),481512.90000003576,A,but,O,t,70,1,882.9000000357628,480630.0,7171,WL,A,11.0
4,12.029000043869019,learn,47970.99995613098,Wed Sep 10 2025 17:15:28 GMT-0500 (Central Daylight Time),481663.0,A,butt,O,t,132,1,1033.0,480630.0,7171,WL,A,11.0
4,12.111999988555908,learn,47888.00001144409,Wed Sep 10 2025 17:15:28 GMT-0500 (Central Daylight Time),481746.1999999881,A,butto,O,o,70,1,1116.199999988079,480630.0,7171,WL,A,11.0
4,12.178999900817871,learn,47821.00009918213,Wed Sep 10 2025 17:15:28 GMT-0500 (Central Daylight Time),481813.1999999881,A,button,O,n,58,1,1183.199999988079,480630.0,7171,WL,A,11.0
4,12.378999948501587,learn,47621.00005149841,Wed Sep 10 2025 17:15:28 GMT-0500 (Central Daylight Time),482012.8000000119,A,buttonenter,O,enter,183,1,1382.800000011921,480630.0,7171,WL,A,11.0
4,12.645999908447266,learn,47354.000091552734,Wed Sep 10 2025 17:15:28 GMT-0500 (Central Daylight Time),482279.5,A,l,O,l,256,1,266.39999997615814,482013.10000002384,7171,WL,A,12.0
4,12.812000036239624,learn,47187.999963760376,Wed Sep 10 2025 17:15:28 GMT-0500 (Central Daylight Time),482446.10000002384,A,lo,O,o,157,1,433.0,482013.10000002384,7171,WL,A,12.0
4,13.194999933242798,learn,46805.0000667572,Wed Sep 10 2025 17:15:28 GMT-0500 (Central Daylight Time),482829.1999999881,A,log,O,g,366,1,816.0999999642372,482013.10000002384,7171,WL,A,12.0
4,13.545000076293945,learn,46454.999923706055,Wed Sep 10 2025 17:15:28 GMT-0500 (Central Daylight Time),483179.1999999881,A,logenter,O,enter,343,1,1166.0999999642372,482013.10000002384,7171,WL,A,12.0
4,13.744999885559082,learn,46255.00011444092,Wed Sep 10 2025 17:15:28 GMT-0500 (Central Daylight Time),483379.10000002384,A,k,O,k,194,1,199.69999998807907,483179.40000003576,7171,WL,A,13.0
4,13.84500002861023,learn,46154.99997138977,Wed Sep 10 2025 17:15:28 GMT-0500 (Central Daylight Time),483479.10000002384,A,ke,O,e,89,1,299.69999998807907,483179.40000003576,7171,WL,A,13.0
4,14.062000036239624,learn,45937.999963760376,Wed Sep 10 2025 17:15:28 GMT-0500 (Central Daylight Time),483695.90000003576,A,key,O,y,206,1,516.5,483179.40000003576,7171,WL,A,13.0
4,14.562000036239624,learn,45437.999963760376,Wed Sep 10 2025 17:15:28 GMT-0500 (Central Daylight Time),484195.8000000119,A,keyenter,O,enter,485,1,1016.3999999761581,483179.40000003576,7171,WL,A,13.0
4,15.494999885559082,learn,44505.00011444092,Wed Sep 10 2025 17:15:28 GMT-0500 (Central Daylight Time),485129.0,A,r,O,r,913,1,932.8000000119209,484196.1999999881,7171,WL,A,14.0
4,15.59500002861023,learn,44404.99997138977,Wed Sep 10 2025 17:15:28 GMT-0500 (Central Daylight Time),485228.90000003576,A,ra,O,a,84,1,1032.7000000476837,484196.1999999881,7171,WL,A,14.0
4,15.694999933242798,learn,44305.0000667572,Wed Sep 10 2025 17:15:28 GMT-0500 (Central Daylight Time),485328.8000000119,A,rat,O,t,88,1,1132.6000000238419,484196.1999999881,7171,WL,A,14.0
4,15.82800006866455,learn,44171.99993133545,Wed Sep 10 2025 17:15:28 GMT-0500 (Central Daylight Time),485462.3000000119,A,ratt,O,t,125,1,1266.1000000238419,484196.1999999881,7171,WL,A,14.0
4,15.911999940872192,learn,44088.00005912781,Wed Sep 10 2025 17:15:28 GMT-0500 (Central Daylight Time),485546.1999999881,A,rattl,O,l,71,1,1350.0,484196.1999999881,7171,WL,A,14.0
4,16.01200008392334,learn,43987.99991607666,Wed Sep 10 2025 17:15:28 GMT-0500 (Central Daylight Time),485645.5,A,rattle,O,e,91,1,1449.300000011921,484196.1999999881,7171,WL,A,14.0
4,16.111000061035156,learn,43888.999938964844,Wed Sep 10 2025 17:15:28 GMT-0500 (Central Daylight Time),485745.1999999881,A,rattleenter,O,enter,95,1,1549.0,484196.1999999881,7171,WL,A,14.0
4,16.59500002861023,learn,43404.99997138977,Wed Sep 10 2025 17:15:28 GMT-0500 (Central Daylight Time),486228.60000002384,A,g,O,g,476,1,483.19999998807907,485745.40000003576,7171,WL,A,15.0
4,16.694999933242798,learn,43305.0000667572,Wed Sep 10 2025 17:15:28 GMT-0500 (Central Daylight Time),486328.5,A,go,O,o,80,1,583.0999999642372,485745.40000003576,7171,WL,A,15.0
4,16.861000061035156,learn,43138.999938964844,Wed Sep 10 2025 17:15:28 GMT-0500 (Central Daylight Time),486495.0,A,gol,O,l,156,1,749.5999999642372,485745.40000003576,7171,WL,A,15.0
4,16.977999925613403,learn,43022.0000743866,Wed Sep 10 2025 17:15:28 GMT-0500 (Central Daylight Time),486611.8000000119,A,gold,O,d,102,1,866.3999999761581,485745.40000003576,7171,WL,A,15.0
4,17.07800006866455,learn,42921.99993133545,Wed Sep 10 2025 17:15:28 GMT-0500 (Central Daylight Time),486711.6999999881,A,goldenter,O,enter,89,1,966.2999999523163,485745.40000003576,7171,WL,A,15.0
5,0.8499999046325684,learn,60000.0,Wed Sep 10 2025 17:15:28 GMT-0500 (Central Daylight Time),552791.3000000119,A,b,O,b,833,1,850.1000000238419,551941.1999999881,7171,WL,A,1.0
5,1.0499999523162842,learn,60000.0,Wed Sep 10 2025 17:15:28 GMT-0500 (Central Daylight Time),552990.9000000358,A,bo,O,o,189,1,1049.7000000476837,551941.1999999881,7171,WL,A,1.0
5,1.2330000400543213,learn,60000.0,Wed Sep 10 2025 17:15:28 GMT-0500 (Central Daylight Time),553174.3000000119,A,boo,O,o,166,1,1233.1000000238419,551941.1999999881,7171,WL,A,1.0
5,1.3499999046325684,learn,60000.0,Wed Sep 10 2025 17:15:28 GMT-0500 (Central Daylight Time),553290.9000000358,A,book,O,k,110,1,1349.7000000476837,551941.1999999881,7171,WL,A,1.0
5,1.8829998970031738,learn,60000.0,Wed Sep 10 2025 17:15:28 GMT-0500 (Central Daylight Time),553823.9000000358,A,bookenter,O,enter,514,1,1882.7000000476837,551941.1999999881,7171,WL,A,1.0
5,2.0999999046325684,learn,60000.0,Wed Sep 10 2025 17:15:28 GMT-0500 (Central Daylight Time),554040.6999999881,A,f,O,f,205,1,216.39999997615814,553824.3000000119,7171,WL,A,2.0
5,2.200000047683716,learn,60000.0,Wed Sep 10 2025 17:15:28 GMT-0500 (Central Daylight Time),554140.6999999881,A,fl,O,l,84,1,316.39999997615814,553824.3000000119,7171,WL,A,2.0
5,2.365999937057495,learn,60000.0,Wed Sep 10 2025 17:15:28 GMT-0500 (Central Daylight Time),554307.1999999881,A,flo,O,o,152,1,482.89999997615814,553824.3000000119,7171,WL,A,2.0
5,2.5160000324249268,learn,60000.0,Wed Sep 10 2025 17:15:28 GMT-0500 (Central Daylight Time),554457.1000000238,A,flow,O,w,138,1,632.8000000119209,553824.3000000119,7171,WL,A,2.0
5,2.5829999446868896,learn,60000.0,Wed Sep 10 2025 17:15:28 GMT-0500 (Central Daylight Time),554523.9000000358,A,flowe,O,e,59,1,699.6000000238419,553824.3000000119,7171,WL,A,2.0
5,2.683000087738037,learn,60000.0,Wed Sep 10 2025 17:15:28 GMT-0500 (Central Daylight Time),554623.9000000358,A,flower,O,r,90,1,799.6000000238419,553824.3000000119,7171,WL,A,2.0
5,2.8329999446868896,learn,60000.0,Wed Sep 10 2025 17:15:28 GMT-0500 (Central Daylight Time),554773.8000000119,A,flowerenter,O,enter,133,1,949.5,553824.3000000119,7171,WL,A,2.0
5,2.9660000801086426,learn,60000.0,Wed Sep 10 2025 17:15:28 GMT-0500 (Central Daylight Time),554906.9000000358,A,t,O,t,120,1,132.80000001192093,554774.1000000238,7171,WL,A,3.0
5,3.0329999923706055,learn,60000.0,Wed Sep 10 2025 17:15:28 GMT-0500 (Central Daylight Time),554973.6999999881,A,tr,O,r,49,1,199.5999999642372,554774.1000000238,7171,WL,A,3.0
5,3.0999999046325684,learn,60000.0,Wed Sep 10 2025 17:15:28 GMT-0500 (Central Daylight Time),555041.1999999881,A,tra,O,a,55,1,267.0999999642372,554774.1000000238,7171,WL,A,3.0
5,3.1489999294281006,learn,60000.0,Wed Sep 10 2025 17:15:28 GMT-0500 (Central Daylight Time),555090.1999999881,A,trai,O,i,43,1,316.0999999642372,554774.1000000238,7171,WL,A,3.0
5,3.249000072479248,learn,60000.0,Wed Sep 10 2025 17:15:28 GMT-0500 (Central Daylight Time),555190.3000000119,A,train,O,n,84,1,416.19999998807907,554774.1000000238,7171,WL,A,3.0
5,3.5490000247955322,learn,60000.0,Wed Sep 10 2025 17:15:28 GMT-0500 (Central Daylight Time),555490.1999999881,A,trainenter,O,enter,287,1,716.0999999642372,554774.1000000238,7171,WL,A,3.0
5,3.8320000171661377,learn,60000.0,Wed Sep 10 2025 17:15:28 GMT-0500 (Central Daylight Time),555773.1000000238,A,r,O,r,266,1,282.60000002384186,555490.5,7171,WL,A,4.0
5,3.9649999141693115,learn,60000.0,Wed Sep 10 2025 17:15:28 GMT-0500 (Central Daylight Time),555906.3000000119,A,ru,O,u,120,1,415.80000001192093,555490.5,7171,WL,A,4.0
5,4.065999984741211,learn,60000.0,Wed Sep 10 2025 17:15:28 GMT-0500 (Central Daylight Time),556006.6000000238,A,rug,O,g,90,1,516.1000000238419,555490.5,7171,WL,A,4.0
5,4.198999881744385,learn,60000.0,Wed Sep 10 2025 17:15:28 GMT-0500 (Central Daylight Time),556140.0,A,rugenter,O,enter,118,1,649.5,555490.5,7171,WL,A,4.0
5,4.431999921798706,learn,60000.0,Wed Sep 10 2025 17:15:28 GMT-0500 (Central Daylight Time),556373.1000000238,A,m,O,m,224,1,232.4000000357628,556140.6999999881,7171,WL,A,5.0
5,4.516000032424927,learn,60000.0,Wed Sep 10 2025 17:15:28 GMT-0500 (Central Daylight Time),556456.6000000238,A,me,O,e,64,1,315.9000000357628,556140.6999999881,7171,WL,A,5.0
5,4.598999977111816,learn,60000.0,Wed Sep 10 2025 17:15:28 GMT-0500 (Central Daylight Time),556539.8000000119,A,mea,O,a,77,1,399.10000002384186,556140.6999999881,7171,WL,A,5.0
5,4.914999961853027,learn,60000.0,Wed Sep 10 2025 17:15:28 GMT-0500 (Central Daylight Time),556856.4000000358,A,mead,O,d,306,1,715.7000000476837,556140.6999999881,7171,WL,A,5.0
5,5.016000032424927,learn,60000.0,Wed Sep 10 2025 17:15:28 GMT-0500 (Central Daylight Time),556956.6000000238,A,meado,O,o,92,1,815.9000000357628,556140.6999999881,7171,WL,A,5.0
5,5.164999961853027,learn,60000.0,Wed Sep 10 2025 17:15:28 GMT-0500 (Central Daylight Time),557106.1999999881,A,meadow,O,w,129,1,965.5,556140.6999999881,7171,WL,A,5.0
5,5.2820000648498535,learn,60000.0,Wed Sep 10 2025 17:15:28 GMT-0500 (Central Daylight Time),557222.9000000358,A,meadowenter,O,enter,107,1,1082.2000000476837,556140.6999999881,7171,WL,A,5.0
5,5.5320000648498535,learn,60000.0,Wed Sep 10 2025 17:15:28 GMT-0500 (Central Daylight Time),557472.8000000119,A,h,O,h,239,1,249.69999998807907,557223.1000000238,7171,WL,A,6.0
5,5.648999929428101,learn,60000.0,Wed Sep 10 2025 17:15:28 GMT-0500 (Central Daylight Time),557589.6000000238,A,ha,O,a,100,1,366.5,557223.1000000238,7171,WL,A,6.0
5,5.747999906539917,learn,60000.0,Wed Sep 10 2025 17:15:28 GMT-0500 (Central Daylight Time),557689.3000000119,A,har,O,r,79,1,466.19999998807907,557223.1000000238,7171,WL,A,6.0
5,5.881999969482422,learn,60000.0,Wed Sep 10 2025 17:15:28 GMT-0500 (Central Daylight Time),557822.8000000119,A,harp,O,p,117,1,599.6999999880791,557223.1000000238,7171,WL,A,6.0
5,6.2809998989105225,learn,60000.0,Wed Sep 10 2025 17:15:28 GMT-0500 (Central Daylight Time),558222.3000000119,A,harpenter,O,enter,390,1,999.1999999880791,557223.1000000238,7171,WL,A,6.0
5,6.730999946594238,learn,60000.0,Wed Sep 10 2025 17:15:28 GMT-0500 (Central Daylight Time),558672.5,A,s,O,s,430,1,449.80000001192093,558222.6999999881,7171,WL,A,7.0
5,6.865000009536743,learn,60000.0,Wed Sep 10 2025 17:15:28 GMT-0500 (Central Daylight Time),558806.0,A,sa,O,a,125,1,583.3000000119209,558222.6999999881,7171,WL,A,7.0
5,7.013999938964844,learn,60000.0,Wed Sep 10 2025 17:15:28 GMT-0500 (Central Daylight Time),558955.5,A,sal,O,l,136,1,732.8000000119209,558222.6999999881,7171,WL,A,7.0
5,7.164000034332275,learn,60000.0,Wed Sep 10 2025 17:15:28 GMT-0500 (Central Daylight Time),559105.3000000119,A,salt,O,t,145,1,882.6000000238419,558222.6999999881,7171,WL,A,7.0
5,7.447999954223633,learn,60000.0,Wed Sep 10 2025 17:15:28 GMT-0500 (Central Daylight Time),559388.8000000119,A,saltenter,O,enter,268,1,1166.1000000238419,558222.6999999881,7171,WL,A,7.0
5,7.614000082015991,learn,60000.0,Wed Sep 10 2025 17:15:28 GMT-0500 (Central Daylight Time),559555.3000000119,A,f,O,f,160,1,166.10000002384186,559389.1999999881,7171,WL,A,8.0
5,7.71399998664856,learn,60000.0,Wed Sep 10 2025 17:15:28 GMT-0500 (Central Daylight Time),559655.4000000358,A,fi,O,i,89,1,266.2000000476837,559389.1999999881,7171,WL,A,8.0
5,7.797999858856201,learn,60000.0,Wed Sep 10 2025 17:15:28 GMT-0500 (Central Daylight Time),559738.8000000119,A,fin,O,n,70,1,349.60000002384186,559389.1999999881,7171,WL,A,8.0
5,7.88100004196167,learn,60000.0,Wed Sep 10 2025 17:15:28 GMT-0500 (Central Daylight Time),559822.1000000238,A,fing,O,g,74,1,432.9000000357628,559389.1999999881,7171,WL,A,8.0
5,8.081000089645386,learn,60000.0,Wed Sep 10 2025 17:15:28 GMT-0500 (Central Daylight Time),560022.1999999881,A,finge,O,e,191,1,633.0,559389.1999999881,7171,WL,A,8.0
5,8.164000034332275,learn,60000.0,Wed Sep 10 2025 17:15:28 GMT-0500 (Central Daylight Time),560105.1000000238,A,finger,O,r,79,1,715.9000000357628,559389.1999999881,7171,WL,A,8.0
5,8.38100004196167,learn,60000.0,Wed Sep 10 2025 17:15:28 GMT-0500 (Central Daylight Time),560322.0,A,fingerenter,O,enter,213,1,932.8000000119209,559389.1999999881,7171,WL,A,8.0
5,8.579999923706055,learn,60000.0,Wed Sep 10 2025 17:15:28 GMT-0500 (Central Daylight Time),560521.6000000238,A,a,O,a,187,1,199.4000000357628,560322.1999999881,7171,WL,A,9.0
5,8.69700002670288,learn,60000.0,Wed Sep 10 2025 17:15:28 GMT-0500 (Central Daylight Time),560638.6000000238,A,ap,O,p,107,1,316.4000000357628,560322.1999999881,7171,WL,A,9.0
5,8.846999883651733,learn,60000.0,Wed Sep 10 2025 17:15:28 GMT-0500 (Central Daylight Time),560788.6000000238,A,app,O,p,143,1,466.4000000357628,560322.1999999881,7171,WL,A,9.0
5,8.930999994277954,learn,60000.0,Wed Sep 10 2025 17:15:28 GMT-0500 (Central Daylight Time),560871.6999999881,A,appl,O,l,64,1,549.5,560322.1999999881,7171,WL,A,9.0
5,9.19700002670288,learn,60000.0,Wed Sep 10 2025 17:15:28 GMT-0500 (Central Daylight Time),561138.4000000358,A,apple,O,e,254,1,816.2000000476837,560322.1999999881,7171,WL,A,9.0
5,9.79699993133545,learn,60000.0,Wed Sep 10 2025 17:15:28 GMT-0500 (Central Daylight Time),561738.1999999881,A,appleenter,O,enter,587,1,1416.0,560322.1999999881,7171,WL,A,9.0
5,10.346999883651733,learn,60000.0,Wed Sep 10 2025 17:15:28 GMT-0500 (Central Daylight Time),562288.0,A,c,O,c,531,1,549.5,561738.5,7171,WL,A,10.0
5,10.44700002670288,learn,60000.0,Wed Sep 10 2025 17:15:28 GMT-0500 (Central Daylight Time),562387.9000000358,A,ch,O,h,86,1,649.4000000357628,561738.5,7171,WL,A,10.0
5,10.52999997138977,learn,60000.0,Wed Sep 10 2025 17:15:28 GMT-0500 (Central Daylight Time),562471.1999999881,A,chi,O,i,74,1,732.6999999880791,561738.5,7171,WL,A,10.0
5,10.71399998664856,learn,60000.0,Wed Sep 10 2025 17:15:28 GMT-0500 (Central Daylight Time),562654.6999999881,A,chim,O,m,166,1,916.1999999880791,561738.5,7171,WL,A,10.0
5,10.879999876022339,learn,60000.0,Wed Sep 10 2025 17:15:28 GMT-0500 (Central Daylight Time),562821.3000000119,A,chimn,O,n,158,1,1082.800000011921,561738.5,7171,WL,A,10.0
5,10.963000059127808,learn,60000.0,Wed Sep 10 2025 17:15:28 GMT-0500 (Central Daylight Time),562904.5,A,chimne,O,e,71,1,1166.0,561738.5,7171,WL,A,10.0
5,11.162999868392944,learn,60000.0,Wed Sep 10 2025 17:15:28 GMT-0500 (Central Daylight Time),563104.3000000119,A,chimney,O,y,188,1,1365.800000011921,561738.5,7171,WL,A,10.0
5,11.412999868392944,learn,60000.0,Wed Sep 10 2025 17:15:28 GMT-0500 (Central Daylight Time),563354.1999999881,A,chimneyenter,O,enter,245,1,1615.699999988079,561738.5,7171,WL,A,10.0
5,12.963000059127808,learn,60000.0,Wed Sep 10 2025 17:15:28 GMT-0500 (Central Daylight Time),564903.8000000119,A,b,O,b,1531,1,1549.5,563354.3000000119,7171,WL,A,11.0
5,13.078999996185303,learn,60000.0,Wed Sep 10 2025 17:15:28 GMT-0500 (Central Daylight Time),565020.5,A,bu,O,u,101,1,1666.199999988079,563354.3000000119,7171,WL,A,11.0
5,13.145999908447266,learn,60000.0,Wed Sep 10 2025 17:15:28 GMT-0500 (Central Daylight Time),565087.1000000238,A,but,O,t,49,1,1732.800000011921,563354.3000000119,7171,WL,A,11.0
5,13.279000043869019,learn,60000.0,Wed Sep 10 2025 17:15:28 GMT-0500 (Central Daylight Time),565220.5,A,butt,O,t,119,1,1866.199999988079,563354.3000000119,7171,WL,A,11.0
5,13.378999948501587,learn,60000.0,Wed Sep 10 2025 17:15:28 GMT-0500 (Central Daylight Time),565320.6000000238,A,butto,O,o,89,1,1966.300000011921,563354.3000000119,7171,WL,A,11.0
5,13.44599986076355,learn,60000.0,Wed Sep 10 2025 17:15:28 GMT-0500 (Central Daylight Time),565386.8000000119,A,button,O,n,61,1,2032.5,563354.3000000119,7171,WL,A,11.0
5,13.812000036239624,learn,60000.0,Wed Sep 10 2025 17:15:28 GMT-0500 (Central Daylight Time),565753.3000000119,A,buttonenter,O,enter,346,1,2399.0,563354.3000000119,7171,WL,A,11.0
5,14.046000003814697,learn,60000.0,Wed Sep 10 2025 17:15:28 GMT-0500 (Central Daylight Time),565986.6999999881,A,l,O,l,220,1,233.0999999642372,565753.6000000238,7171,WL,A,12.0
5,14.19599986076355,learn,60000.0,Wed Sep 10 2025 17:15:28 GMT-0500 (Central Daylight Time),566137.0,A,lo,O,o,130,1,383.39999997615814,565753.6000000238,7171,WL,A,12.0
5,14.361999988555908,learn,60000.0,Wed Sep 10 2025 17:15:28 GMT-0500 (Central Daylight Time),566303.4000000358,A,log,O,g,156,1,549.8000000119209,565753.6000000238,7171,WL,A,12.0
5,14.546000003814697,learn,60000.0,Wed Sep 10 2025 17:15:28 GMT-0500 (Central Daylight Time),566486.8000000119,A,logenter,O,enter,174,1,733.1999999880791,565753.6000000238,7171,WL,A,12.0
5,14.779000043869019,learn,60000.0,Wed Sep 10 2025 17:15:28 GMT-0500 (Central Daylight Time),566719.9000000358,A,k,O,k,214,1,232.80000001192093,566487.1000000238,7171,WL,A,13.0
5,14.894999980926514,learn,60000.0,Wed Sep 10 2025 17:15:28 GMT-0500 (Central Daylight Time),566836.6000000238,A,ke,O,e,109,1,349.5,566487.1000000238,7171,WL,A,13.0
5,15.095999956130981,learn,60000.0,Wed Sep 10 2025 17:15:28 GMT-0500 (Central Daylight Time),567036.8000000119,A,key,O,y,184,1,549.6999999880791,566487.1000000238,7171,WL,A,13.0
5,15.644999980926514,learn,60000.0,Wed Sep 10 2025 17:15:28 GMT-0500 (Central Daylight Time),567585.9000000358,A,keyenter,O,enter,544,1,1098.800000011921,566487.1000000238,7171,WL,A,13.0
5,15.861999988555908,learn,60000.0,Wed Sep 10 2025 17:15:28 GMT-0500 (Central Daylight Time),567803.0,A,r,O,r,204,1,216.80000001192093,567586.1999999881,7171,WL,A,14.0
5,16.062000036239624,learn,60000.0,Wed Sep 10 2025 17:15:28 GMT-0500 (Central Daylight Time),568004.0,A,ra,O,a,194,1,417.80000001192093,567586.1999999881,7171,WL,A,14.0
5,16.177000045776367,learn,60000.0,Wed Sep 10 2025 17:15:28 GMT-0500 (Central Daylight Time),568119.6000000238,A,rat,O,t,97,1,533.4000000357628,567586.1999999881,7171,WL,A,14.0
5,16.310999870300293,learn,60000.0,Wed Sep 10 2025 17:15:28 GMT-0500 (Central Daylight Time),568252.9000000358,A,ratt,O,t,126,1,666.7000000476837,567586.1999999881,7171,WL,A,14.0
5,16.460000038146973,learn,60000.0,Wed Sep 10 2025 17:15:28 GMT-0500 (Central Daylight Time),568402.6000000238,A,rattl,O,l,137,1,816.4000000357628,567586.1999999881,7171,WL,A,14.0
5,16.560999870300293,learn,60000.0,Wed Sep 10 2025 17:15:28 GMT-0500 (Central Daylight Time),568503.0,A,rattle,O,e,91,1,916.8000000119209,567586.1999999881,7171,WL,A,14.0
5,16.787999868392944,learn,60000.0,Wed Sep 10 2025 17:15:28 GMT-0500 (Central Daylight Time),568730.3000000119,A,rattleenter,O,enter,222,1,1144.1000000238419,567586.1999999881,7171,WL,A,14.0
5,16.93499994277954,learn,60000.0,Wed Sep 10 2025 17:15:28 GMT-0500 (Central Daylight Time),568877.8000000119,A,o,O,o,143,1,147.30000001192093,568730.5,7171,WL,A,15.0
5,17.14299988746643,learn,60000.0,Wed Sep 10 2025 17:15:28 GMT-0500 (Central Daylight Time),569085.6999999881,A,ol,O,l,200,1,355.19999998807907,568730.5,7171,WL,A,15.0
5,17.32699990272522,learn,60000.0,Wed Sep 10 2025 17:15:28 GMT-0500 (Central Daylight Time),569269.1000000238,A,old,O,d,167,1,538.6000000238419,568730.5,7171,WL,A,15.0
5,17.759999990463257,learn,60000.0,Wed Sep 10 2025 17:15:28 GMT-0500 (Central Daylight Time),569702.4000000358,A,ol,O,backspace,416,1,971.9000000357628,568730.5,7171,WL,A,15.0
5,17.927000045776367,learn,60000.0,Wed Sep 10 2025 17:15:28 GMT-0500 (Central Daylight Time),569869.0,A,o,O,backspace,158,1,1138.5,568730.5,7171,WL,A,15.0
5,18.092999935150146,learn,60000.0,Wed Sep 10 2025 17:15:28 GMT-0500 (Central Daylight Time),570035.6999999881,A,,O,backspace,160,1,1305.199999988079,568730.5,7171,WL,A,15.0
5,18.276000022888184,learn,60000.0,Wed Sep 10 2025 17:15:28 GMT-0500 (Central Daylight Time),570218.6000000238,A,g,O,g,177,1,1488.1000000238419,568730.5,7171,WL,A,15.0
5,18.376999855041504,learn,60000.0,Wed Sep 10 2025 17:15:28 GMT-0500 (Central Daylight Time),570318.9000000358,A,go,O,o,90,1,1588.4000000357628,568730.5,7171,WL,A,15.0
5,18.526000022888184,learn,60000.0,Wed Sep 10 2025 17:15:28 GMT-0500 (Central Daylight Time),570468.5,A,gol,O,l,142,1,1738.0,568730.5,7171,WL,A,15.0
5,18.658999919891357,learn,60000.0,Wed Sep 10 2025 17:15:28 GMT-0500 (Central Daylight Time),570601.8000000119,A,gold,O,d,121,1,1871.300000011921,568730.5,7171,WL,A,15.0
5,18.776999950408936,learn,60000.0,Wed Sep 10 2025 17:15:28 GMT-0500 (Central Daylight Time),570718.9000000358,A,goldenter,O,enter,108,1,1988.4000000357628,568730.5,7171,WL,A,15.0
6,0.4660000801086426,distr,59533.99991989136,Wed Sep 10 2025 17:15:28 GMT-0500 (Central Daylight Time),655742.0999999642,B,b,O,b,449,1,465.1999999284744,655276.9000000358,7171,WL,A,1.0
6,0.6159999370574951,distr,59384.000062942505,Wed Sep 10 2025 17:15:28 GMT-0500 (Central Daylight Time),655892.0000000596,B,bo,O,o,133,1,615.1000000238419,655276.9000000358,7171,WL,A,1.0
6,0.7990000247955322,distr,59200.99997520447,Wed Sep 10 2025 17:15:28 GMT-0500 (Central Daylight Time),656075.4000000358,B,bow,O,w,177,1,798.5,655276.9000000358,7171,WL,A,1.0
6,0.9490001201629639,distr,59050.999879837036,Wed Sep 10 2025 17:15:28 GMT-0500 (Central Daylight Time),656225.4000000358,B,bowl,O,l,129,1,948.5,655276.9000000358,7171,WL,A,1.0
6,1.315000057220459,distr,58684.99994277954,Wed Sep 10 2025 17:15:28 GMT-0500 (Central Daylight Time),656591.6999999881,B,bowlenter,O,enter,356,1,1314.7999999523163,655276.9000000358,7171,WL,A,1.0
6,1.5989999771118164,distr,58401.00002288818,Wed Sep 10 2025 17:15:28 GMT-0500 (Central Daylight Time),656875.0999999642,B,d,O,d,277,1,283.0,656592.0999999642,7171,WL,A,2.0
6,1.7149999141693115,distr,58285.00008583069,Wed Sep 10 2025 17:15:28 GMT-0500 (Central Daylight Time),656991.9000000358,B,da,O,a,106,1,399.8000000715256,656592.0999999642,7171,WL,A,2.0
6,2.0980000495910645,distr,57901.999950408936,Wed Sep 10 2025 17:15:28 GMT-0500 (Central Daylight Time),657374.6999999881,B,daw,O,w,374,1,782.6000000238419,656592.0999999642,7171,WL,A,2.0
6,2.3320000171661377,distr,57667.99998283386,Wed Sep 10 2025 17:15:28 GMT-0500 (Central Daylight Time),657608.4000000358,B,dawn,O,n,222,1,1016.3000000715256,656592.0999999642,7171,WL,A,2.0
6,2.8980000019073486,distr,57101.99999809265,Wed Sep 10 2025 17:15:28 GMT-0500 (Central Daylight Time),658174.5999999642,B,dawnenter,O,enter,558,1,1582.5,656592.0999999642,7171,WL,A,2.0
6,3.1649999618530273,distr,56835.00003814697,Wed Sep 10 2025 17:15:28 GMT-0500 (Central Daylight Time),658441.4000000358,B,j,O,j,262,1,266.39999997615814,658175.0000000596,7171,WL,A,3.0
6,3.38100004196167,distr,56618.99995803833,Wed Sep 10 2025 17:15:28 GMT-0500 (Central Daylight Time),658657.5999999642,B,ju,O,u,211,1,482.59999990463257,658175.0000000596,7171,WL,A,3.0
6,3.515000104904175,distr,56484.999895095825,Wed Sep 10 2025 17:15:28 GMT-0500 (Central Daylight Time),658791.0999999642,B,jud,O,d,115,1,616.0999999046326,658175.0000000596,7171,WL,A,3.0
6,3.697999954223633,distr,56302.00004577637,Wed Sep 10 2025 17:15:28 GMT-0500 (Central Daylight Time),658974.3000000119,B,judg,O,g,173,1,799.2999999523163,658175.0000000596,7171,WL,A,3.0
6,3.8480000495910645,distr,56151.999950408936,Wed Sep 10 2025 17:15:28 GMT-0500 (Central Daylight Time),659124.5000000596,B,judge,O,e,135,1,949.5,658175.0000000596,7171,WL,A,3.0
6,3.9809999465942383,distr,56019.00005340576,Wed Sep 10 2025 17:15:28 GMT-0500 (Central Daylight Time),659257.5000000596,B,judgeenter,O,enter,128,1,1082.5,658175.0000000596,7171,WL,A,3.0
6,4.29800009727478,distr,55701.99990272522,Wed Sep 10 2025 17:15:28 GMT-0500 (Central Daylight Time),659574.3000000119,B,g,O,g,308,1,316.5,659257.8000000119,7171,WL,A,4.0
6,4.397000074386597,distr,55602.9999256134,Wed Sep 10 2025 17:15:28 GMT-0500 (Central Daylight Time),659673.6999999881,B,gr,O,r,94,1,415.89999997615814,659257.8000000119,7171,WL,A,4.0
6,4.513999938964844,distr,55486.000061035156,Wed Sep 10 2025 17:15:28 GMT-0500 (Central Daylight Time),659790.6999999881,B,gra,O,a,100,1,532.8999999761581,659257.8000000119,7171,WL,A,4.0
6,4.680999994277954,distr,55319.000005722046,Wed Sep 10 2025 17:15:28 GMT-0500 (Central Daylight Time),659957.4000000358,B,gran,O,n,158,1,699.6000000238419,659257.8000000119,7171,WL,A,4.0
6,4.864000082015991,distr,55135.99991798401,Wed Sep 10 2025 17:15:28 GMT-0500 (Central Daylight Time),660140.6999999881,B,grant,O,t,168,1,882.8999999761581,659257.8000000119,7171,WL,A,4.0
6,5.281000137329102,distr,54718.9998626709,Wed Sep 10 2025 17:15:28 GMT-0500 (Central Daylight Time),660557.1999999881,B,grantenter,O,enter,409,1,1299.3999999761581,659257.8000000119,7171,WL,A,4.0
6,6.5299999713897705,distr,53470.00002861023,Wed Sep 10 2025 17:15:28 GMT-0500 (Central Daylight Time),661806.9000000358,B,i,O,i,1241,1,1249.3999999761581,660557.5000000596,7171,WL,A,5.0
6,6.630000114440918,distr,53369.99988555908,Wed Sep 10 2025 17:15:28 GMT-0500 (Central Daylight Time),661906.9000000358,B,in,O,n,87,1,1349.3999999761581,660557.5000000596,7171,WL,A,5.0
6,6.7799999713897705,distr,53220.00002861023,Wed Sep 10 2025 17:15:28 GMT-0500 (Central Daylight Time),662056.8000000119,B,ins,O,s,130,1,1499.2999999523163,660557.5000000596,7171,WL,A,5.0
6,6.914000034332275,distr,53085.999965667725,Wed Sep 10 2025 17:15:28 GMT-0500 (Central Daylight Time),662190.0999999642,B,inse,O,e,124,1,1632.5999999046326,660557.5000000596,7171,WL,A,5.0
6,7.11299991607666,distr,52887.00008392334,Wed Sep 10 2025 17:15:28 GMT-0500 (Central Daylight Time),662389.9000000358,B,insec,O,c,183,1,1832.3999999761581,660557.5000000596,7171,WL,A,5.0
6,7.414000034332275,distr,52585.999965667725,Wed Sep 10 2025 17:15:28 GMT-0500 (Central Daylight Time),662690.0999999642,B,insect,O,t,287,1,2132.5999999046326,660557.5000000596,7171,WL,A,5.0
6,7.79200005531311,distr,52207.99994468689,Wed Sep 10 2025 17:15:28 GMT-0500 (Central Daylight Time),663068.0000000596,B,insectenter,O,enter,373,1,2510.5,660557.5000000596,7171,WL,A,5.0
6,7.980000019073486,distr,52019.999980926514,Wed Sep 10 2025 17:15:28 GMT-0500 (Central Daylight Time),663256.3000000119,B,p,O,p,177,1,188.0,663068.3000000119,7171,WL,A,6.0
6,8.046000003814697,distr,51953.9999961853,Wed Sep 10 2025 17:15:28 GMT-0500 (Central Daylight Time),663322.9000000358,B,pl,O,l,60,1,254.60000002384186,663068.3000000119,7171,WL,A,6.0
6,8.196000099182129,distr,51803.99990081787,Wed Sep 10 2025 17:15:28 GMT-0500 (Central Daylight Time),663472.8000000119,B,pla,O,a,130,1,404.5,663068.3000000119,7171,WL,A,6.0
6,8.329999923706055,distr,51670.000076293945,Wed Sep 10 2025 17:15:28 GMT-0500 (Central Daylight Time),663606.3000000119,B,plan,O,n,125,1,538.0,663068.3000000119,7171,WL,A,6.0
6,8.546000003814697,distr,51453.9999961853,Wed Sep 10 2025 17:15:28 GMT-0500 (Central Daylight Time),663822.8000000119,B,plane,O,e,207,1,754.5,663068.3000000119,7171,WL,A,6.0
6,8.880000114440918,distr,51119.99988555908,Wed Sep 10 2025 17:15:28 GMT-0500 (Central Daylight Time),664156.1999999881,B,planeenter,O,enter,318,1,1087.8999999761581,663068.3000000119,7171,WL,A,6.0
6,9.279000043869019,distr,50720.99995613098,Wed Sep 10 2025 17:15:28 GMT-0500 (Central Daylight Time),664555.6999999881,B,c,O,c,393,1,399.1999999284744,664156.5000000596,7171,WL,A,7.0
6,9.42900013923645,distr,50570.99986076355,Wed Sep 10 2025 17:15:28 GMT-0500 (Central Daylight Time),664706.0000000596,B,co,O,o,146,1,549.5,664156.5000000596,7171,WL,A,7.0
6,9.529000043869019,distr,50470.99995613098,Wed Sep 10 2025 17:15:28 GMT-0500 (Central Daylight Time),664805.9000000358,B,cou,O,u,91,1,649.3999999761581,664156.5000000596,7171,WL,A,7.0
6,9.729000091552734,distr,50270.999908447266,Wed Sep 10 2025 17:15:28 GMT-0500 (Central Daylight Time),665006.0000000596,B,coun,O,n,192,1,849.5,664156.5000000596,7171,WL,A,7.0
6,9.86299991607666,distr,50137.00008392334,Wed Sep 10 2025 17:15:28 GMT-0500 (Central Daylight Time),665139.0000000596,B,count,O,t,128,1,982.5,664156.5000000596,7171,WL,A,7.0
6,10.029000043869019,distr,49970.99995613098,Wed Sep 10 2025 17:15:28 GMT-0500 (Central Daylight Time),665306.0000000596,B,county,O,y,155,1,1149.5,664156.5000000596,7171,WL,A,7.0
6,10.146000146865845,distr,49853.999853134155,Wed Sep 10 2025 17:15:28 GMT-0500 (Central Daylight Time),665422.1999999881,B,countyenter,O,enter,98,1,1265.6999999284744,664156.5000000596,7171,WL,A,7.0
6,10.361999988555908,distr,49638.00001144409,Wed Sep 10 2025 17:15:28 GMT-0500 (Central Daylight Time),665638.8000000119,B,p,O,p,200,1,216.20000004768372,665422.5999999642,7171,WL,A,8.0
6,10.562000036239624,distr,49437.999963760376,Wed Sep 10 2025 17:15:28 GMT-0500 (Central Daylight Time),665838.6999999881,B,po,O,o,182,1,416.10000002384186,665422.5999999642,7171,WL,A,8.0
6,10.729000091552734,distr,49270.999908447266,Wed Sep 10 2025 17:15:28 GMT-0500 (Central Daylight Time),666005.5000000596,B,poo,O,o,151,1,582.9000000953674,665422.5999999642,7171,WL,A,8.0
6,10.911999940872192,distr,49088.00005912781,Wed Sep 10 2025 17:15:28 GMT-0500 (Central Daylight Time),666189.0000000596,B,pool,O,l,175,1,766.4000000953674,665422.5999999642,7171,WL,A,8.0
6,11.111999988555908,distr,48888.00001144409,Wed Sep 10 2025 17:15:28 GMT-0500 (Central Daylight Time),666388.6999999881,B,poolenter,O,enter,192,1,966.1000000238419,665422.5999999642,7171,WL,A,8.0
6,11.279000043869019,distr,48720.99995613098,Wed Sep 10 2025 17:15:28 GMT-0500 (Central Daylight Time),666555.5000000596,B,s,O,s,160,1,166.5,666389.0000000596,7171,WL,A,9.0
6,11.51200008392334,distr,48487.99991607666,Wed Sep 10 2025 17:15:28 GMT-0500 (Central Daylight Time),666788.6999999881,B,se,O,e,225,1,399.6999999284744,666389.0000000596,7171,WL,A,9.0
6,11.694999933242798,distr,48305.0000667572,Wed Sep 10 2025 17:15:28 GMT-0500 (Central Daylight Time),666971.9000000358,B,see,O,e,169,1,582.8999999761581,666389.0000000596,7171,WL,A,9.0
6,11.911999940872192,distr,48088.00005912781,Wed Sep 10 2025 17:15:28 GMT-0500 (Central Daylight Time),667188.4000000358,B,seed,O,d,201,1,799.3999999761581,666389.0000000596,7171,WL,A,9.0
6,12.045000076293945,distr,47954.999923706055,Wed Sep 10 2025 17:15:28 GMT-0500 (Central Daylight Time),667321.9000000358,B,seedenter,O,enter,120,1,932.8999999761581,666389.0000000596,7171,WL,A,9.0
6,12.245000123977661,distr,47754.99987602234,Wed Sep 10 2025 17:15:28 GMT-0500 (Central Daylight Time),667521.8000000119,B,s,O,s,188,1,199.70000004768372,667322.0999999642,7171,WL,A,10.0
6,12.378999948501587,distr,47621.00005149841,Wed Sep 10 2025 17:15:28 GMT-0500 (Central Daylight Time),667655.1999999881,B,sh,O,h,123,1,333.10000002384186,667322.0999999642,7171,WL,A,10.0
6,12.444999933242798,distr,47555.0000667572,Wed Sep 10 2025 17:15:28 GMT-0500 (Central Daylight Time),667721.6999999881,B,she,O,e,62,1,399.60000002384186,667322.0999999642,7171,WL,A,10.0
6,12.611999988555908,distr,47388.00001144409,Wed Sep 10 2025 17:15:28 GMT-0500 (Central Daylight Time),667888.3000000119,B,shee,O,e,147,1,566.2000000476837,667322.0999999642,7171,WL,A,10.0
6,12.92799997329712,distr,47072.00002670288,Wed Sep 10 2025 17:15:28 GMT-0500 (Central Daylight Time),668204.9000000358,B,sheep,O,p,302,1,882.8000000715256,667322.0999999642,7171,WL,A,10.0
6,13.411999940872192,distr,46588.00005912781,Wed Sep 10 2025 17:15:28 GMT-0500 (Central Daylight Time),668688.0999999642,B,sheepenter,O,enter,471,1,1366.0,667322.0999999642,7171,WL,A,10.0
6,14.144999980926514,distr,45855.000019073486,Wed Sep 10 2025 17:15:28 GMT-0500 (Central Daylight Time),669421.0999999642,B,m,O,m,726,1,732.6999999284744,668688.4000000358,7171,WL,A,11.0
6,14.361000061035156,distr,45638.999938964844,Wed Sep 10 2025 17:15:28 GMT-0500 (Central Daylight Time),669637.6999999881,B,me,O,e,199,1,949.2999999523163,668688.4000000358,7171,WL,A,11.0
6,14.477999925613403,distr,45522.0000743866,Wed Sep 10 2025 17:15:28 GMT-0500 (Central Daylight Time),669754.3000000119,B,mea,O,a,103,1,1065.8999999761581,668688.4000000358,7171,WL,A,11.0
6,14.811000108718872,distr,45188.99989128113,Wed Sep 10 2025 17:15:28 GMT-0500 (Central Daylight Time),670087.5000000596,B,meal,O,l,323,1,1399.1000000238419,668688.4000000358,7171,WL,A,11.0
6,15.260999917984009,distr,44739.00008201599,Wed Sep 10 2025 17:15:28 GMT-0500 (Central Daylight Time),670537.5999999642,B,mealenter,O,enter,437,1,1849.1999999284744,668688.4000000358,7171,WL,A,11.0
6,16.91100001335144,distr,43088.99998664856,Wed Sep 10 2025 17:15:28 GMT-0500 (Central Daylight Time),672187.0000000596,B,j,O,j,1643,1,1649.0,670538.0000000596,7171,WL,A,12.0
6,17.05999994277954,distr,42940.00005722046,Wed Sep 10 2025 17:15:28 GMT-0500 (Central Daylight Time),672336.8000000119,B,ja,O,a,138,1,1798.7999999523163,670538.0000000596,7171,WL,A,12.0
6,17.16000008583069,distr,42839.99991416931,Wed Sep 10 2025 17:15:28 GMT-0500 (Central Daylight Time),672436.6999999881,B,jac,O,c,92,1,1898.6999999284744,670538.0000000596,7171,WL,A,12.0
6,18.042999982833862,distr,41957.00001716614,Wed Sep 10 2025 17:15:28 GMT-0500 (Central Daylight Time),673319.8000000119,B,jack,O,k,864,1,2781.7999999523163,670538.0000000596,7171,WL,A,12.0
6,18.526999950408936,distr,41473.000049591064,Wed Sep 10 2025 17:15:28 GMT-0500 (Central Daylight Time),673803.0999999642,B,jacke,O,e,469,1,3265.0999999046326,670538.0000000596,7171,WL,A,12.0
6,18.66000008583069,distr,41339.99991416931,Wed Sep 10 2025 17:15:28 GMT-0500 (Central Daylight Time),673936.4000000358,B,jacket,O,t,123,1,3398.399999976158,670538.0000000596,7171,WL,A,12.0
6,19.075999975204468,distr,40924.00002479553,Wed Sep 10 2025 17:15:28 GMT-0500 (Central Daylight Time),674352.9000000358,B,jacketenter,O,enter,405,1,3814.899999976158,670538.0000000596,7171,WL,A,12.0
6,21.70900011062622,distr,38290.99988937378,Wed Sep 10 2025 17:15:28 GMT-0500 (Central Daylight Time),676985.4000000358,B,b,O,b,2621,1,2632.2000000476837,674353.1999999881,7171,WL,A,13.0
6,21.858999967575073,distr,38141.00003242493,Wed Sep 10 2025 17:15:28 GMT-0500 (Central Daylight Time),677135.4000000358,B,bo,O,o,140,1,2782.2000000476837,674353.1999999881,7171,WL,A,13.0
6,21.992000102996826,distr,38007.999897003174,Wed Sep 10 2025 17:15:28 GMT-0500 (Central Daylight Time),677268.4000000358,B,bot,O,t,117,1,2915.2000000476837,674353.1999999881,7171,WL,A,13.0
6,22.14199995994568,distr,37858.00004005432,Wed Sep 10 2025 17:15:28 GMT-0500 (Central Daylight Time),677418.4000000358,B,bott,O,t,145,1,3065.2000000476837,674353.1999999881,7171,WL,A,13.0
6,22.30900001525879,distr,37690.99998474121,Wed Sep 10 2025 17:15:28 GMT-0500 (Central Daylight Time),677585.0999999642,B,bottl,O,l,154,1,3231.899999976158,674353.1999999881,7171,WL,A,13.0
6,22.52500009536743,distr,37474.99990463257,Wed Sep 10 2025 17:15:28 GMT-0500 (Central Daylight Time),677801.6999999881,B,bottle,O,e,204,1,3448.5,674353.1999999881,7171,WL,A,13.0
6,22.80900001525879,distr,37190.99998474121,Wed Sep 10 2025 17:15:28 GMT-0500 (Central Daylight Time),678085.0000000596,B,bottleenter,O,enter,275,1,3731.8000000715256,674353.1999999881,7171,WL,A,13.0
6,23.092000007629395,distr,36907.999992370605,Wed Sep 10 2025 17:15:28 GMT-0500 (Central Daylight Time),678368.1999999881,B,p,O,p,264,1,282.89999997615814,678085.3000000119,7171,WL,A,14.0
6,23.20799994468689,distr,36792.00005531311,Wed Sep 10 2025 17:15:28 GMT-0500 (Central Daylight Time),678484.8000000119,B,pe,O,e,110,1,399.5,678085.3000000119,7171,WL,A,14.0
6,23.325000047683716,distr,36674.999952316284,Wed Sep 10 2025 17:15:28 GMT-0500 (Central Daylight Time),678601.3000000119,B,pea,O,a,112,1,516.0,678085.3000000119,7171,WL,A,14.0
6,23.44099998474121,distr,36559.00001525879,Wed Sep 10 2025 17:15:28 GMT-0500 (Central Daylight Time),678717.9000000358,B,peac,O,c,99,1,632.6000000238419,678085.3000000119,7171,WL,A,14.0
6,23.60800004005432,distr,36391.99995994568,Wed Sep 10 2025 17:15:28 GMT-0500 (Central Daylight Time),678884.6999999881,B,peach,O,h,150,1,799.3999999761581,678085.3000000119,7171,WL,A,14.0
6,24.141000032424927,distr,35858.99996757507,Wed Sep 10 2025 17:15:28 GMT-0500 (Central Daylight Time),679417.8000000119,B,peachenter,O,enter,528,1,1332.5,678085.3000000119,7171,WL,A,14.0
6,25.957000017166138,distr,34042.99998283386,Wed Sep 10 2025 17:15:28 GMT-0500 (Central Daylight Time),681233.9000000358,B,c,O,c,1811,1,1815.8999999761581,679418.0000000596,7171,WL,A,15.0
6,26.141000032424927,distr,33858.99996757507,Wed Sep 10 2025 17:15:28 GMT-0500 (Central Daylight Time),681417.4000000358,B,ch,O,h,179,1,1999.3999999761581,679418.0000000596,7171,WL,A,15.0
6,26.240999937057495,distr,33759.000062942505,Wed Sep 10 2025 17:15:28 GMT-0500 (Central Daylight Time),681517.1999999881,B,cha,O,a,83,1,2099.1999999284744,679418.0000000596,7171,WL,A,15.0
6,26.341000080108643,distr,33658.99991989136,Wed Sep 10 2025 17:15:28 GMT-0500 (Central Daylight Time),681617.1999999881,B,chai,O,i,89,1,2199.1999999284744,679418.0000000596,7171,WL,A,15.0
6,26.44099998474121,distr,33559.00001525879,Wed Sep 10 2025 17:15:28 GMT-0500 (Central Daylight Time),681717.0999999642,B,chair,O,r,92,1,2299.0999999046326,679418.0000000596,7171,WL,A,15.0
6,26.556999921798706,distr,33443.000078201294,Wed Sep 10 2025 17:15:28 GMT-0500 (Central Daylight Time),681834.0000000596,B,chairenter,O,enter,105,1,2416.0,679418.0000000596,7171,WL,A,15.0
7,0.6670000553131104,immed,59332.99994468689,Wed Sep 10 2025 17:15:28 GMT-0500 (Central Daylight Time),703193.9000000358,A,b,O,b,646,1,666.6000000238419,702527.3000000119,7171,WL,A,1.0
7,0.9340000152587891,immed,59065.99998474121,Wed Sep 10 2025 17:15:28 GMT-0500 (Central Daylight Time),703460.5000000596,A,bo,O,o,251,1,933.2000000476837,702527.3000000119,7171,WL,A,1.0
7,1.0999999046325684,immed,58900.00009536743,Wed Sep 10 2025 17:15:28 GMT-0500 (Central Daylight Time),703627.1999999881,A,boo,O,o,152,1,1099.8999999761581,702527.3000000119,7171,WL,A,1.0
7,1.2170000076293945,immed,58782.999992370605,Wed Sep 10 2025 17:15:28 GMT-0500 (Central Daylight Time),703743.5999999642,A,book,O,k,106,1,1216.2999999523163,702527.3000000119,7171,WL,A,1.0
7,1.682999849319458,immed,58317.00015068054,Wed Sep 10 2025 17:15:28 GMT-0500 (Central Daylight Time),704210.0999999642,A,bookenter,O,enter,453,1,1682.7999999523163,702527.3000000119,7171,WL,A,1.0
7,2.0329999923706055,immed,57967.000007629395,Wed Sep 10 2025 17:15:28 GMT-0500 (Central Daylight Time),704560.0999999642,A,f,O,f,339,1,349.6999999284744,704210.4000000358,7171,WL,A,2.0
7,2.116999864578247,immed,57883.00013542175,Wed Sep 10 2025 17:15:28 GMT-0500 (Central Daylight Time),704643.8000000119,A,fl,O,l,70,1,433.39999997615814,704210.4000000358,7171,WL,A,2.0
7,2.2839999198913574,immed,57716.00008010864,Wed Sep 10 2025 17:15:28 GMT-0500 (Central Daylight Time),704810.5000000596,A,flo,O,o,161,1,600.1000000238419,704210.4000000358,7171,WL,A,2.0
7,2.4159998893737793,immed,57584.00011062622,Wed Sep 10 2025 17:15:28 GMT-0500 (Central Daylight Time),704943.1999999881,A,flow,O,w,114,1,732.7999999523163,704210.4000000358,7171,WL,A,2.0
7,2.4830000400543213,immed,57516.99995994568,Wed Sep 10 2025 17:15:28 GMT-0500 (Central Daylight Time),705009.6999999881,A,flowe,O,e,46,1,799.2999999523163,704210.4000000358,7171,WL,A,2.0
7,2.549999952316284,immed,57450.000047683716,Wed Sep 10 2025 17:15:28 GMT-0500 (Central Daylight Time),705076.5999999642,A,flower,O,r,52,1,866.1999999284744,704210.4000000358,7171,WL,A,2.0
7,2.682999849319458,immed,57317.00015068054,Wed Sep 10 2025 17:15:28 GMT-0500 (Central Daylight Time),705209.6999999881,A,flowerenter,O,enter,120,1,999.2999999523163,704210.4000000358,7171,WL,A,2.0
7,2.8329999446868896,immed,57167.00005531311,Wed Sep 10 2025 17:15:28 GMT-0500 (Central Daylight Time),705359.8000000119,A,t,O,t,131,1,149.79999995231628,705210.0000000596,7171,WL,A,3.0
7,2.8999998569488525,immed,57100.00014305115,Wed Sep 10 2025 17:15:28 GMT-0500 (Central Daylight Time),705426.5000000596,A,tr,O,r,53,1,216.5,705210.0000000596,7171,WL,A,3.0
7,2.9830000400543213,immed,57016.99995994568,Wed Sep 10 2025 17:15:28 GMT-0500 (Central Daylight Time),705509.9000000358,A,tra,O,a,67,1,299.89999997615814,705210.0000000596,7171,WL,A,3.0
7,3.065999984741211,immed,56934.00001525879,Wed Sep 10 2025 17:15:28 GMT-0500 (Central Daylight Time),705593.1999999881,A,trai,O,i,63,1,383.1999999284744,705210.0000000596,7171,WL,A,3.0
7,3.1659998893737793,immed,56834.00011062622,Wed Sep 10 2025 17:15:28 GMT-0500 (Central Daylight Time),705692.9000000358,A,train,O,n,85,1,482.89999997615814,705210.0000000596,7171,WL,A,3.0
7,3.4830000400543213,immed,56516.99995994568,Wed Sep 10 2025 17:15:28 GMT-0500 (Central Daylight Time),706009.6999999881,A,trainenter,O,enter,296,1,799.6999999284744,705210.0000000596,7171,WL,A,3.0
