acc_sum,block,block_c,condition,correct,correct_response,datetime,endtime,flanker,jitter,project,response,response_test_buffer_response,response_test_target_response,response_time,response_time_test_buffer_response,response_time_test_target_response,row_sel,session_number,start_end,starttime,subject_id,target,task,task_vers,time_test_buffer,time_test_buffer_response,time_test_constants,time_test_flanker,time_test_jitter,time_test_logger,time_test_target,time_test_target_response,time_test_variables,trial
0,prac,1,inc,0,m,Tue Jul 29 2025 16:03:52 GMT-0500 (Central Daylight Time),75256.60000000894,elated,900,O,z,,,574,,,6,1,2777.9000000059605,72478.70000000298,7189,napkin,AF,C,,,,,,,,,,1
1,prac,1,inc,1,z,Tue Jul 29 2025 16:03:52 GMT-0500 (Central Daylight Time),78272.20000000298,napkin,1100,O,z,,,607,,,12,1,3009.9000000059605,75262.29999999702,7189,friend,AF,C,,,,,,,,,,2
1,prac,1,con,0,z,Tue Jul 29 2025 16:03:52 GMT-0500 (Central Daylight Time),80921.70000000298,elated,800,O,m,,,548,,,9,1,2645.2000000029802,78276.5,7189,elated,AF,C,,,,,,,,,,3
2,prac,1,inc,1,m,Tue Jul 29 2025 16:03:52 GMT-0500 (Central Daylight Time),83853.79999999702,brutal,1100,O,m,,,519,,,8,1,2927.5,80926.29999999702,7189,window,AF,C,,,,,,,,,,4
3,prac,1,con,1,z,Tue Jul 29 2025 16:03:52 GMT-0500 (Central Daylight Time),86686.40000000596,rage,1000,O,z,,,518,,,15,1,2827.6000000089407,83858.79999999702,7189,rage,AF,C,,,,,,,,,,5
4,prac,1,inc,1,z,Tue Jul 29 2025 16:03:52 GMT-0500 (Central Daylight Time),89435.60000000894,film,900,O,z,,,537,,,14,1,2744.1000000089407,86691.5,7189,hate,AF,C,,,,,,,,,,6
5,prac,1,inc,1,m,Tue Jul 29 2025 16:03:52 GMT-0500 (Central Daylight Time),92351.29999999702,kind,900,O,m,,,708,,,2,1,2911.5999999940395,89439.70000000298,7189,rock,AF,C,,,,,,,,,,7
6,prac,1,inc,1,z,Tue Jul 29 2025 16:03:52 GMT-0500 (Central Daylight Time),95050.5,rock,900,O,z,,,498,,,10,1,2694.7000000029802,92355.79999999702,7189,kind,AF,C,,,,,,,,,,8
6,prac,1,con,0,m,Tue Jul 29 2025 16:03:52 GMT-0500 (Central Daylight Time),97899.20000000298,bell,1000,O,z,,,538,,,3,1,2844.4000000059605,95054.79999999702,7189,bell,AF,C,,,,,,,,,,9
7,prac,1,con,1,m,Tue Jul 29 2025 16:03:52 GMT-0500 (Central Daylight Time),100615.29999999702,step,800,O,m,,,599,,,1,1,2710.8999999910593,97904.40000000596,7189,step,AF,C,,,,,,,,,,10
8,prac,1,inc,1,z,Tue Jul 29 2025 16:03:52 GMT-0500 (Central Daylight Time),103597.5,window,1100,O,z,,,578,,,16,1,2977.5,100620.0,7189,temper,AF,C,,,,,,,,,,11
9,prac,1,con,1,m,Tue Jul 29 2025 16:03:52 GMT-0500 (Central Daylight Time),106380.40000000596,remote,1000,O,m,,,470,,,7,1,2778.7999999970198,103601.60000000894,7189,remote,AF,C,,,,,,,,,,12
10,prac,1,con,1,m,Tue Jul 29 2025 16:03:52 GMT-0500 (Central Daylight Time),108995.90000000596,jacket,800,O,m,,,505,,,5,1,2611.2000000029802,106384.70000000298,7189,jacket,AF,C,,,,,,,,,,13
11,prac,1,con,1,z,Tue Jul 29 2025 16:03:52 GMT-0500 (Central Daylight Time),111874.79999999702,love,1000,O,z,,,561,,,11,1,2874.699999988079,109000.10000000894,7189,love,AF,C,,,,,,,,,,14
12,prac,1,con,1,z,Tue Jul 29 2025 16:03:52 GMT-0500 (Central Daylight Time),114361.0,brutal,800,O,z,,,382,,,13,1,2481.3999999910593,111879.60000000894,7189,brutal,AF,C,,,,,,,,,,15
13,prac,1,inc,1,m,Tue Jul 29 2025 16:03:52 GMT-0500 (Central Daylight Time),117309.90000000596,hate,1100,O,m,,,536,,,4,1,2944.7000000029802,114365.20000000298,7189,film,AF,C,,,,,,,,,,16
1,test,1,con,1,m,Tue Jul 29 2025 16:03:52 GMT-0500 (Central Daylight Time),126806.90000000596,bell,900,O,m,m,None,360,161.0,199.0,82,1,1795.7999999970198,125011.10000000894,7189,bell,AF,C,120557,120557,118927,119840,118927,120723,120357,120357,120723,1
2,test,1,con,1,m,Tue Jul 29 2025 16:03:52 GMT-0500 (Central Daylight Time),128573.20000000298,bell,800,O,m,m,None,421,221.0,200.0,81,1,1761.5999999940395,126811.60000000894,7189,bell,AF,C,122256,122257,120728,121540,120728,122489,122056,122056,122489,2
3,test,1,con,1,z,Tue Jul 29 2025 16:03:52 GMT-0500 (Central Daylight Time),130456.10000000894,rage,1000,O,z,z,None,336,136.0,200.0,51,1,1878.4000000059605,128577.70000000298,7189,rage,AF,C,124222,124222,122494,123506,122494,124372,124022,124022,124372,3
3,test,1,inc,0,z,Tue Jul 29 2025 16:03:52 GMT-0500 (Central Daylight Time),132539.60000000894,jacket,800,O,m,m,None,749,549.0,200.0,29,1,2079.4000000059605,130460.20000000298,7189,friend,AF,C,125905,125905,124376,125189,124377,126456,125705,125705,126456,4
4,test,1,inc,1,m,Tue Jul 29 2025 16:03:52 GMT-0500 (Central Daylight Time),134504.60000000894,kind,900,O,m,m,None,525,326.0,199.0,94,1,1960.800000011921,132543.79999999702,7189,film,AF,C,128088,128088,126460,127371,126460,128421,127888,127888,128421,5
5,test,1,inc,1,z,Tue Jul 29 2025 16:03:52 GMT-0500 (Central Daylight Time),136670.60000000894,window,1100,O,z,z,None,537,337.0,200.0,64,1,2162.2000000029802,134508.40000000596,7189,temper,AF,C,130237,130237,128424,129529,128425,130587,130037,130037,130587,6
6,test,1,inc,1,m,Tue Jul 29 2025 16:03:52 GMT-0500 (Central Daylight Time),138803.20000000298,hate,1100,O,m,m,None,498,298.0,200.0,88,1,2127.5,136675.70000000298,7189,bell,AF,C,132420,132420,130592,131703,130592,132719,132220,132220,132719,7
7,test,1,con,1,z,Tue Jul 29 2025 16:03:52 GMT-0500 (Central Daylight Time),140886.0,brutal,1000,O,z,z,None,538,338.0,200.0,35,1,2078.3999999910593,138807.60000000894,7189,brutal,AF,C,134452,134452,132724,133736,132724,134802,134252,134252,134802,8
8,test,1,inc,1,z,Tue Jul 29 2025 16:03:52 GMT-0500 (Central Daylight Time),143118.70000000298,film,1100,O,z,z,None,595,395.0,200.0,56,1,2228.7000000029802,140890.0,7189,rage,AF,C,136635,136635,134806,135918,134806,137035,136435,136435,137035,9
9,test,1,con,1,z,Tue Jul 29 2025 16:03:52 GMT-0500 (Central Daylight Time),144884.90000000596,temper,800,O,z,z,None,421,222.0,199.0,57,1,1761.9000000059605,143123.0,7189,temper,AF,C,138568,138568,137039,137851,137039,138801,138368,138368,138801,10
10,test,1,inc,1,z,Tue Jul 29 2025 16:03:52 GMT-0500 (Central Daylight Time),147067.29999999702,film,1100,O,z,z,None,539,340.0,199.0,48,1,2177.7999999970198,144889.5,7189,hate,AF,C,140634,140634,138806,139917,138806,140983,140434,140434,140983,11
11,test,1,inc,1,z,Tue Jul 29 2025 16:03:52 GMT-0500 (Central Daylight Time),149083.29999999702,rock,900,O,z,z,None,580,381.0,199.0,46,1,2011.5,147071.79999999702,7189,hate,AF,C,142617,142617,140988,141900,140988,142999,142416,142417,142999,12
12,test,1,con,1,m,Tue Jul 29 2025 16:03:52 GMT-0500 (Central Daylight Time),151083.0,jacket,900,O,m,m,None,556,357.0,199.0,98,1,1995.3999999910593,149087.60000000894,7189,jacket,AF,C,144633,144633,143004,143916,143004,144999,144433,144433,144999,13
13,test,1,con,1,m,Tue Jul 29 2025 16:03:52 GMT-0500 (Central Daylight Time),153015.5,step,1000,O,m,m,None,393,194.0,199.0,67,1,1928.3999999910593,151087.10000000894,7189,step,AF,C,146732,146732,145003,146015,145003,146932,146532,146532,146932,14
14,test,1,con,1,m,Tue Jul 29 2025 16:03:52 GMT-0500 (Central Daylight Time),155199.20000000298,rock,1100,O,m,m,None,536,337.0,199.0,76,1,2179.7000000029802,153019.5,7189,rock,AF,C,148765,148765,146936,148048,146936,149115,148565,148565,149115,15
15,test,1,inc,1,z,Tue Jul 29 2025 16:03:52 GMT-0500 (Central Daylight Time),157114.10000000894,jacket,800,O,z,z,None,567,367.0,200.0,61,1,1910.6000000089407,155203.5,7189,temper,AF,C,150647,150647,149120,149931,149120,151030,150447,150447,151030,16
16,test,1,inc,1,z,Tue Jul 29 2025 16:03:52 GMT-0500 (Central Daylight Time),159313.20000000298,bell,1000,O,z,z,None,659,459.0,200.0,55,1,2194.7999999970198,157118.40000000596,7189,rage,AF,C,152763,152763,151034,152046,151035,153229,152563,152563,153229,17
17,test,1,con,1,z,Tue Jul 29 2025 16:03:52 GMT-0500 (Central Daylight Time),161196.29999999702,friend,800,O,z,z,None,546,346.0,200.0,25,1,1879.199999988079,159317.10000000894,7189,friend,AF,C,154764,154764,153233,154046,153233,155112,154563,154563,155112,18
18,test,1,inc,1,z,Tue Jul 29 2025 16:03:52 GMT-0500 (Central Daylight Time),163112.40000000596,step,800,O,z,z,None,577,377.0,200.0,21,1,1912.1000000089407,161200.29999999702,7189,love,AF,C,156645,156645,155116,155929,155116,157028,156445,156445,157028,19
19,test,1,inc,1,m,Tue Jul 29 2025 16:03:52 GMT-0500 (Central Daylight Time),165494.90000000596,friend,1100,O,m,m,None,744,545.0,199.0,128,1,2378.7000000029802,163116.20000000298,7189,window,AF,C,158861,158861,157032,158145,157032,159411,158661,158662,159411,20
19,test,1,con,0,m,Tue Jul 29 2025 16:03:52 GMT-0500 (Central Daylight Time),167294.5,rock,800,O,z,z,None,462,262.0,200.0,73,1,1795.5999999940395,165498.90000000596,7189,rock,AF,C,160944,160944,159415,160227,159415,161211,160744,160744,161210,21
20,test,1,inc,1,m,Tue Jul 29 2025 16:03:52 GMT-0500 (Central Daylight Time),169393.90000000596,temper,1000,O,m,m,None,550,351.0,199.0,111,1,2094.2999999970198,167299.60000000894,7189,napkin,AF,C,162943,162943,161216,162227,161216,163310,162744,162744,163310,22
21,test,1,con,1,z,Tue Jul 29 2025 16:03:52 GMT-0500 (Central Daylight Time),171243.10000000894,love,900,O,z,z,None,406,207.0,199.0,18,1,1844.800000011921,169398.29999999702,7189,love,AF,C,164943,164943,163314,164226,163315,165159,164743,164743,165159,23
22,test,1,inc,1,z,Tue Jul 29 2025 16:03:52 GMT-0500 (Central Daylight Time),173360.20000000298,rock,900,O,z,z,None,678,478.0,200.0,54,1,2112.7999999970198,171247.40000000596,7189,rage,AF,C,166792,166792,165163,166076,165164,167276,166592,166592,167276,24
23,test,1,inc,1,z,Tue Jul 29 2025 16:03:52 GMT-0500 (Central Daylight Time),175508.5,bell,1000,O,z,z,None,606,406.0,200.0,15,1,2144.0999999940395,173364.40000000596,7189,kind,AF,C,169008,169008,167280,168292,167281,169425,168808,168808,169425,25
24,test,1,con,1,m,Tue Jul 29 2025 16:03:52 GMT-0500 (Central Daylight Time),177257.90000000596,napkin,800,O,m,m,None,400,201.0,199.0,105,1,1745.2000000029802,175512.70000000298,7189,napkin,AF,C,170957,170957,169429,170241,169429,171174,170758,170758,171174,26
25,test,1,con,1,m,Tue Jul 29 2025 16:03:52 GMT-0500 (Central Daylight Time),179057.20000000298,step,800,O,m,m,None,459,259.0,200.0,65,1,1795.2000000029802,177262.0,7189,step,AF,C,172707,172707,171178,171990,171178,172973,172507,172507,172973,27
26,test,1,con,1,m,Tue Jul 29 2025 16:03:52 GMT-0500 (Central Daylight Time),181206.79999999702,bell,1000,O,m,m,None,610,411.0,199.0,83,1,2145.5999999940395,179061.20000000298,7189,bell,AF,C,174707,174707,172977,173990,172978,175123,174507,174507,175123,28
27,test,1,con,1,z,Tue Jul 29 2025 16:03:52 GMT-0500 (Central Daylight Time),183239.5,rage,1100,O,z,z,None,399,186.0,213.0,52,1,2028.3999999910593,181211.10000000894,7189,rage,AF,C,176956,176956,175127,176239,175127,177156,176742,176742,177155,29
27,test,1,con,0,z,Tue Jul 29 2025 16:03:52 GMT-0500 (Central Daylight Time),185372.10000000894,friend,900,O,m,m,None,688,473.0,215.0,26,1,2128.800000011921,183243.29999999702,7189,friend,AF,C,178805,178805,177159,178072,177160,179288,178590,178590,179288,30
28,test,1,con,1,z,Tue Jul 29 2025 16:03:52 GMT-0500 (Central Daylight Time),187787.79999999702,brutal,1100,O,z,z,None,773,573.0,200.0,36,1,2412.0999999940395,185375.70000000298,7189,brutal,AF,C,181121,181121,179292,180404,179292,181704,180921,180921,181704,31
29,test,1,con,1,m,Tue Jul 29 2025 16:03:52 GMT-0500 (Central Daylight Time),189670.70000000298,film,800,O,m,m,None,545,345.0,200.0,89,1,1878.7000000029802,187792.0,7189,film,AF,C,183237,183237,181708,182520,181708,183587,183037,183037,183587,32
30,test,1,con,1,z,Tue Jul 29 2025 16:03:52 GMT-0500 (Central Daylight Time),191753.20000000298,kind,1100,O,z,z,None,441,242.0,199.0,12,1,2078.9000000059605,189674.29999999702,7189,kind,AF,C,185420,185420,183590,184703,183591,185669,185220,185220,185669,33
31,test,1,inc,1,m,Tue Jul 29 2025 16:03:52 GMT-0500 (Central Daylight Time),193935.79999999702,love,1000,O,m,m,None,636,436.0,200.0,95,1,2178.5,191757.29999999702,7189,film,AF,C,187402,187402,185673,186686,185674,187852,187202,187202,187852,34
32,test,1,inc,1,m,Tue Jul 29 2025 16:03:52 GMT-0500 (Central Daylight Time),196085.20000000298,elated,800,O,m,m,None,805,605.0,200.0,117,1,2145.5,193939.70000000298,7189,remote,AF,C,189385,189385,187856,188669,187856,190001,189185,189185,190001,35
33,test,1,con,1,z,Tue Jul 29 2025 16:03:52 GMT-0500 (Central Daylight Time),198117.79999999702,friend,1100,O,z,z,None,387,188.0,199.0,28,1,2028.699999988079,196089.10000000894,7189,friend,AF,C,191834,191834,190005,191118,190005,192034,191635,191635,192034,36
34,test,1,inc,1,m,Tue Jul 29 2025 16:03:52 GMT-0500 (Central Daylight Time),200217.40000000596,friend,1100,O,m,m,None,450,251.0,199.0,104,1,2094.7000000029802,198122.70000000298,7189,jacket,AF,C,193867,193867,192039,193151,192039,194133,193667,193667,194133,37
34,test,1,inc,0,m,Tue Jul 29 2025 16:03:52 GMT-0500 (Central Daylight Time),202499.90000000596,hate,1100,O,z,z,None,640,440.0,200.0,72,1,2278.9000000059605,200221.0,7189,step,AF,C,195966,195966,194137,195250,194137,196416,195766,195766,196416,38
35,test,1,inc,1,m,Tue Jul 29 2025 16:03:52 GMT-0500 (Central Daylight Time),204649.20000000298,hate,1100,O,m,m,None,509,309.0,200.0,96,1,2145.4000000059605,202503.79999999702,7189,film,AF,C,198249,198249,196420,197533,196420,198565,198049,198049,198565,39
36,test,1,inc,1,m,Tue Jul 29 2025 16:03:52 GMT-0500 (Central Daylight Time),207115.10000000894,hate,1100,O,m,m,None,805,598.0,207.0,80,1,2462.0,204653.10000000894,7189,rock,AF,C,200432,200432,198569,199682,198569,201031,200224,200224,201031,40
37,test,1,inc,1,z,Tue Jul 29 2025 16:03:52 GMT-0500 (Central Daylight Time),209097.90000000596,napkin,900,O,z,z,None,534,334.0,200.0,38,1,1979.4000000059605,207118.5,7189,brutal,AF,C,202664,202664,201035,201948,201035,203014,202464,202464,203014,41
38,test,1,con,1,z,Tue Jul 29 2025 16:03:52 GMT-0500 (Central Daylight Time),211230.60000000894,elated,1000,O,z,z,None,595,395.0,200.0,3,1,2128.6000000089407,209102.0,7189,elated,AF,C,204747,204747,203018,204031,203018,205147,204547,204547,205147,42
39,test,1,con,1,m,Tue Jul 29 2025 16:03:52 GMT-0500 (Central Daylight Time),213563.0,bell,1100,O,m,m,None,697,498.0,199.0,84,1,2328.5999999940395,211234.40000000596,7189,bell,AF,C,206980,206980,205150,206263,205151,207479,206780,206780,207479,43
40,test,1,inc,1,m,Tue Jul 29 2025 16:03:52 GMT-0500 (Central Daylight Time),215662.5,temper,1000,O,m,m,None,562,362.0,200.0,103,1,2096.0,213566.5,7189,jacket,AF,C,209212,209212,207483,208496,207483,209579,209012,209012,209579,44
41,test,1,con,1,z,Tue Jul 29 2025 16:03:52 GMT-0500 (Central Daylight Time),217412.20000000298,elated,800,O,z,z,None,405,206.0,199.0,1,1,1746.0,215666.20000000298,7189,elated,AF,C,211112,211112,209582,210395,209583,211328,210912,210912,211328,45
42,test,1,inc,1,z,Tue Jul 29 2025 16:03:52 GMT-0500 (Central Daylight Time),219328.0,step,800,O,z,z,None,576,377.0,199.0,45,1,1911.0,217417.0,7189,hate,AF,C,212861,212861,211333,212144,211333,213244,212661,212661,213244,46
43,test,1,inc,1,z,Tue Jul 29 2025 16:03:52 GMT-0500 (Central Daylight Time),221777.40000000596,window,1100,O,z,z,None,800,600.0,200.0,32,1,2445.1000000089407,219332.29999999702,7189,friend,AF,C,215077,215077,213248,214361,213249,215693,214877,214877,215693,47
44,test,1,con,1,z,Tue Jul 29 2025 16:03:52 GMT-0500 (Central Daylight Time),223643.10000000894,brutal,800,O,z,z,None,531,332.0,199.0,33,1,1862.1000000089407,221781.0,7189,brutal,AF,C,217226,217226,215697,216510,215697,217559,217027,217027,217559,48
45,test,1,con,1,m,Tue Jul 29 2025 16:03:52 GMT-0500 (Central Daylight Time),225625.90000000596,remote,1100,O,m,m,None,342,142.0,200.0,116,1,1978.9000000059605,223647.0,7189,remote,AF,C,219392,219392,217563,218676,217563,219542,219192,219192,219542,49
46,test,1,con,1,z,Tue Jul 29 2025 16:03:52 GMT-0500 (Central Daylight Time),228042.0,brutal,900,O,z,z,None,983,783.0,200.0,34,1,2412.3999999910593,225629.60000000894,7189,brutal,AF,C,221175,221175,219546,220458,219546,221958,220975,220975,221958,50
47,test,1,con,1,m,Tue Jul 29 2025 16:03:52 GMT-0500 (Central Daylight Time),229874.40000000596,window,900,O,m,m,None,390,176.0,214.0,122,1,1829.0,228045.40000000596,7189,window,AF,C,223605,223605,221961,222875,221962,223790,223391,223391,223790,51
48,test,1,inc,1,z,Tue Jul 29 2025 16:03:52 GMT-0500 (Central Daylight Time),231990.70000000298,remote,1000,O,z,z,None,577,378.0,199.0,63,1,2109.5,229881.20000000298,7189,temper,AF,C,225524,225524,223797,224807,223797,225907,225324,225324,225907,52
49,test,1,inc,1,m,Tue Jul 29 2025 16:03:52 GMT-0500 (Central Daylight Time),234056.70000000298,love,1000,O,m,m,None,517,318.0,199.0,87,1,2062.2999999970198,231994.40000000596,7189,bell,AF,C,227640,227640,225910,226923,225911,227973,227440,227440,227973,53
50,test,1,inc,1,z,Tue Jul 29 2025 16:03:52 GMT-0500 (Central Daylight Time),236272.90000000596,rock,900,O,z,z,None,775,576.0,199.0,22,1,2212.4000000059605,234060.5,7189,love,AF,C,229606,229606,227977,228889,227977,230189,229406,229406,230189,54
51,test,1,inc,1,z,Tue Jul 29 2025 16:03:52 GMT-0500 (Central Daylight Time),238221.90000000596,napkin,900,O,z,z,None,512,312.0,200.0,6,1,1945.5,236276.40000000596,7189,elated,AF,C,231822,231822,230192,231105,230193,232138,231622,231622,232138,55
52,test,1,inc,1,m,Tue Jul 29 2025 16:03:52 GMT-0500 (Central Daylight Time),240204.90000000596,brutal,900,O,m,m,None,547,347.0,200.0,110,1,1979.2999999970198,238225.60000000894,7189,napkin,AF,C,233771,233771,232142,233055,232142,234121,233571,233571,234121,56
53,test,1,con,1,m,Tue Jul 29 2025 16:03:52 GMT-0500 (Central Daylight Time),242220.60000000894,jacket,1100,O,m,m,None,379,180.0,199.0,100,1,2011.6000000089407,240209.0,7189,jacket,AF,C,235954,235954,234125,235237,234125,236137,235754,235754,236137,57
54,test,1,inc,1,z,Tue Jul 29 2025 16:03:52 GMT-0500 (Central Daylight Time),244336.90000000596,remote,1000,O,z,z,None,575,376.0,199.0,39,1,2112.2999999970198,242224.60000000894,7189,brutal,AF,C,237870,237870,236141,237154,236141,238253,237670,237670,238253,58
55,test,1,con,1,m,Tue Jul 29 2025 16:03:52 GMT-0500 (Central Daylight Time),246353.0,film,1100,O,m,m,None,367,167.0,200.0,92,1,2012.0,244341.0,7189,film,AF,C,240086,240086,238257,239370,238257,240269,239886,239886,240269,59
56,test,1,inc,1,m,Tue Jul 29 2025 16:03:52 GMT-0500 (Central Daylight Time),248202.20000000298,rage,800,O,m,m,None,516,316.0,200.0,85,1,1845.4000000059605,246356.79999999702,7189,bell,AF,C,241802,241802,240273,241085,240273,242118,241602,241602,242118,60
57,test,1,inc,1,m,Tue Jul 29 2025 16:03:52 GMT-0500 (Central Daylight Time),250084.70000000298,rage,800,O,m,m,None,547,347.0,200.0,69,1,1878.5999999940395,248206.10000000894,7189,step,AF,C,243651,243651,242122,242935,242122,244001,243451,243451,244001,61
58,test,1,inc,1,z,Tue Jul 29 2025 16:03:52 GMT-0500 (Central Daylight Time),252001.20000000298,jacket,800,O,z,z,None,568,368.0,200.0,37,1,1912.4000000059605,250088.79999999702,7189,brutal,AF,C,245534,245534,244005,244818,244005,245917,245334,245334,245917,62
59,test,1,inc,1,z,Tue Jul 29 2025 16:03:52 GMT-0500 (Central Daylight Time),254250.20000000298,window,1100,O,z,z,None,490,291.0,199.0,40,1,2245.0999999940395,252005.10000000894,7189,brutal,AF,C,247867,247867,245921,247161,245921,248166,247667,247667,248166,63
60,test,1,inc,1,z,Tue Jul 29 2025 16:03:52 GMT-0500 (Central Daylight Time),256332.90000000596,bell,1000,O,z,z,None,546,347.0,199.0,47,1,2079.1000000089407,254253.79999999702,7189,hate,AF,C,249899,249899,248170,249183,248170,250249,249700,249700,250249,64
61,test,1,con,1,m,Tue Jul 29 2025 16:03:52 GMT-0500 (Central Daylight Time),258198.90000000596,remote,800,O,m,m,None,528,328.0,200.0,113,1,1862.2999999970198,256336.60000000894,7189,remote,AF,C,251782,251782,250253,251066,250253,252115,251582,251582,252115,65
62,test,1,con,1,m,Tue Jul 29 2025 16:03:52 GMT-0500 (Central Daylight Time),260115.20000000298,napkin,1000,O,m,m,None,374,174.0,200.0,107,1,1911.5999999940395,258203.60000000894,7189,napkin,AF,C,253848,253848,252120,253132,252120,254031,253648,253648,254031,66
63,test,1,con,1,z,Tue Jul 29 2025 16:03:52 GMT-0500 (Central Daylight Time),261898.20000000298,elated,900,O,z,z,None,334,133.0,201.0,2,1,1779.4000000059605,260118.79999999702,7189,elated,AF,C,255665,255665,254035,254948,254035,255814,255464,255464,255814,67
64,test,1,con,1,m,Tue Jul 29 2025 16:03:52 GMT-0500 (Central Daylight Time),263830.799999997,window,1000,O,m,m,None,395,195.0,200.0,123,1,1928.699999988079,261902.10000000894,7189,window,AF,C,257547,257547,255818,256831,255818,257747,257347,257347,257747,68
65,test,1,con,1,m,Tue Jul 29 2025 16:03:52 GMT-0500 (Central Daylight Time),265663.60000000894,step,900,O,m,m,None,394,194.0,200.0,66,1,1828.7000000029802,263834.90000000596,7189,step,AF,C,259380,259380,257751,258663,257751,259580,259180,259180,259580,69
66,test,1,con,1,z,Tue Jul 29 2025 16:03:52 GMT-0500 (Central Daylight Time),267446.10000000894,temper,900,O,z,z,None,345,146.0,199.0,58,1,1778.4000000059605,265667.700000003,7189,temper,AF,C,261212,261212,259584,260496,259584,261362,261013,261013,261362,70
67,test,1,con,1,z,Tue Jul 29 2025 16:03:52 GMT-0500 (Central Daylight Time),269229.0,rage,900,O,z,z,None,347,147.0,200.0,50,1,1779.0,267450.0,7189,rage,AF,C,262995,262995,261366,262279,261366,263145,262795,262795,263145,71
68,test,1,inc,1,z,Tue Jul 29 2025 16:03:52 GMT-0500 (Central Daylight Time),271528.0,napkin,900,O,z,z,None,852,652.0,200.0,30,1,2295.5,269232.5,7189,friend,AF,C,264778,264778,263149,264062,263149,265444,264578,264578,265444,72
69,test,1,con,1,z,Tue Jul 29 2025 16:03:52 GMT-0500 (Central Daylight Time),273294.200000003,love,800,O,z,z,None,420,221.0,199.0,17,1,1762.5999999940395,271531.60000000894,7189,love,AF,C,266977,266977,265448,266261,265448,267210,266778,266778,267210,73
70,test,1,con,1,z,Tue Jul 29 2025 16:03:52 GMT-0500 (Central Daylight Time),275377.0,hate,1000,O,z,z,None,533,333.0,200.0,43,1,2079.2999999970198,273297.700000003,7189,hate,AF,C,268944,268944,267214,268227,267214,269293,268743,268743,269293,74
71,test,1,inc,1,m,Tue Jul 29 2025 16:03:52 GMT-0500 (Central Daylight Time),277409.799999997,temper,1000,O,m,m,None,440,233.0,207.0,127,1,2028.8999999910593,275380.90000000596,7189,window,AF,C,271093,271093,269297,270310,269297,271326,270886,270886,271326,75
72,test,1,inc,1,z,Tue Jul 29 2025 16:03:52 GMT-0500 (Central Daylight Time),279325.799999997,step,800,O,z,z,None,579,379.0,200.0,13,1,1912.5,277413.299999997,7189,kind,AF,C,272858,272859,271329,272142,271330,273242,272658,272658,273242,76
72,test,1,con,0,z,Tue Jul 29 2025 16:03:52 GMT-0500 (Central Daylight Time),281325.299999997,temper,1000,O,m,m,None,455,255.0,200.0,59,1,1995.5,279329.799999997,7189,temper,AF,C,274975,274975,273246,274259,273246,275241,274775,274775,275241,77
73,test,1,con,1,z,Tue Jul 29 2025 16:03:52 GMT-0500 (Central Daylight Time),283474.40000000596,kind,1000,O,z,z,None,608,408.0,200.0,11,1,2145.0,281329.40000000596,7189,kind,AF,C,276974,276974,275245,276258,275246,277391,276774,276774,277390,78
73,test,1,con,0,z,Tue Jul 29 2025 16:03:52 GMT-0500 (Central Daylight Time),285607.200000003,friend,1000,O,m,m,None,585,386.0,199.0,27,1,2128.7999999970198,283478.40000000596,7189,friend,AF,C,279123,279124,277394,278407,277395,279523,278924,278924,279523,79
74,test,1,con,1,z,Tue Jul 29 2025 16:03:52 GMT-0500 (Central Daylight Time),287723.10000000894,elated,1100,O,z,z,None,474,274.0,200.0,4,1,2112.1000000089407,285611.0,7189,elated,AF,C,281356,281356,279527,280640,279527,281639,281156,281156,281639,80
75,test,1,con,1,z,Tue Jul 29 2025 16:03:52 GMT-0500 (Central Daylight Time),289655.799999997,hate,800,O,z,z,None,585,386.0,199.0,41,1,1928.699999988079,287727.10000000894,7189,hate,AF,C,283172,283172,281643,282456,281643,283572,282973,282973,283572,81
76,test,1,con,1,z,Tue Jul 29 2025 16:03:52 GMT-0500 (Central Daylight Time),291788.60000000894,love,1000,O,z,z,None,597,397.0,200.0,19,1,2128.2000000029802,289660.40000000596,7189,love,AF,C,285305,285305,283576,284589,283577,285705,285105,285105,285705,82
77,test,1,inc,1,z,Tue Jul 29 2025 16:03:52 GMT-0500 (Central Daylight Time),293904.60000000894,remote,1000,O,z,z,None,576,376.0,200.0,7,1,2112.1000000089407,291792.5,7189,elated,AF,C,287438,287438,285709,286721,285709,287821,287238,287238,287821,83
78,test,1,inc,1,m,Tue Jul 29 2025 16:03:52 GMT-0500 (Central Daylight Time),296004.0,brutal,900,O,m,m,None,656,456.0,200.0,118,1,2095.5,293908.5,7189,remote,AF,C,289454,289454,287824,288737,287825,289920,289254,289254,289920,84
79,test,1,inc,1,m,Tue Jul 29 2025 16:03:52 GMT-0500 (Central Daylight Time),297986.799999997,brutal,900,O,m,m,None,541,341.0,200.0,102,1,1979.0,296007.799999997,7189,jacket,AF,C,291553,291553,289924,290837,289924,291903,291353,291353,291903,85
80,test,1,con,1,m,Tue Jul 29 2025 16:03:52 GMT-0500 (Central Daylight Time),299952.60000000894,remote,1000,O,m,m,None,425,226.0,199.0,115,1,1962.2000000029802,297990.40000000596,7189,remote,AF,C,293636,293636,291906,292919,291907,293869,293436,293436,293869,86
81,test,1,con,1,m,Tue Jul 29 2025 16:03:52 GMT-0500 (Central Daylight Time),301885.5,film,1000,O,m,m,None,388,188.0,200.0,91,1,1929.2000000029802,299956.299999997,7189,film,AF,C,295602,295602,293872,294885,293873,295802,295402,295402,295801,87
82,test,1,con,1,z,Tue Jul 29 2025 16:03:52 GMT-0500 (Central Daylight Time),304334.799999997,temper,1100,O,z,z,None,802,603.0,199.0,60,1,2445.699999988079,301889.10000000894,7189,temper,AF,C,297634,297635,295805,296918,295805,298251,297435,297435,298251,88
83,test,1,con,1,z,Tue Jul 29 2025 16:03:52 GMT-0500 (Central Daylight Time),306150.90000000596,hate,900,O,z,z,None,378,178.0,200.0,42,1,1812.2999999970198,304338.60000000894,7189,hate,AF,C,299884,299884,298255,299167,298255,300067,299684,299684,300067,89
84,test,1,con,1,m,Tue Jul 29 2025 16:03:52 GMT-0500 (Central Daylight Time),307866.799999997,window,800,O,m,m,None,374,174.0,200.0,121,1,1712.0999999940395,306154.700000003,7189,window,AF,C,301600,301600,300071,300883,300071,301783,301400,301400,301783,90
84,test,1,con,0,m,Tue Jul 29 2025 16:03:52 GMT-0500 (Central Daylight Time),310299.10000000894,step,1100,O,z,z,None,797,598.0,199.0,68,1,2428.6000000089407,307870.5,7189,step,AF,C,303616,303616,301787,302899,301787,304215,303416,303416,304215,91
85,test,1,inc,1,z,Tue Jul 29 2025 16:03:52 GMT-0500 (Central Daylight Time),312348.5,remote,1000,O,z,z,None,513,313.0,200.0,31,1,2045.7000000029802,310302.799999997,7189,friend,AF,C,305948,305948,304219,305232,304219,306265,305748,305748,306265,92
86,test,1,inc,1,m,Tue Jul 29 2025 16:03:52 GMT-0500 (Central Daylight Time),314331.5,kind,900,O,m,m,None,540,341.0,199.0,78,1,1978.8999999910593,312352.60000000894,7189,rock,AF,C,307897,307897,306269,307181,306269,308248,307698,307698,308248,93
87,test,1,inc,1,z,Tue Jul 29 2025 16:03:52 GMT-0500 (Central Daylight Time),316464.0,bell,1000,O,z,z,None,586,386.0,200.0,23,1,2128.7000000029802,314335.299999997,7189,love,AF,C,309980,309980,308251,309264,308252,310380,309780,309780,310380,94
88,test,1,con,1,m,Tue Jul 29 2025 16:03:52 GMT-0500 (Central Daylight Time),318230.200000003,jacket,800,O,m,m,None,421,221.0,200.0,97,1,1762.4000000059605,316467.799999997,7189,jacket,AF,C,311913,311913,310384,311197,310384,312146,311713,311713,312146,95
89,test,1,inc,1,m,Tue Jul 29 2025 16:03:52 GMT-0500 (Central Daylight Time),320279.60000000894,rage,800,O,m,m,None,702,503.0,199.0,77,1,2045.0,318234.60000000894,7189,rock,AF,C,313679,313679,312151,312963,312151,314196,313480,313480,314196,96
90,test,1,inc,1,m,Tue Jul 29 2025 16:03:52 GMT-0500 (Central Daylight Time),322678.90000000596,love,1000,O,m,m,None,853,654.0,199.0,79,1,2395.5,320283.40000000596,7189,rock,AF,C,315928,315928,314199,315212,314200,316595,315728,315729,316595,97
91,test,1,con,1,z,Tue Jul 29 2025 16:03:52 GMT-0500 (Central Daylight Time),324628.200000003,kind,800,O,z,z,None,586,381.0,205.0,9,1,1945.7000000029802,322682.5,7189,kind,AF,C,318161,318161,316599,317411,316599,318544,317956,317956,318544,98
92,test,1,con,1,m,Tue Jul 29 2025 16:03:52 GMT-0500 (Central Daylight Time),326544.40000000596,rock,1000,O,m,m,None,375,176.0,199.0,75,1,1912.6000000089407,324631.799999997,7189,rock,AF,C,320278,320278,318548,319561,318548,320460,320078,320078,320460,99
93,test,1,inc,1,z,Tue Jul 29 2025 16:03:52 GMT-0500 (Central Daylight Time),328527.0,napkin,900,O,z,z,None,545,345.0,200.0,62,1,1978.7999999970198,326548.200000003,7189,temper,AF,C,322093,322093,320464,321377,320465,322443,321893,321893,322443,100
94,test,1,inc,1,z,Tue Jul 29 2025 16:03:52 GMT-0500 (Central Daylight Time),330676.40000000596,film,1100,O,z,z,None,506,306.0,200.0,24,1,2145.7999999970198,328530.60000000894,7189,love,AF,C,324276,324276,322447,323559,322447,324592,324076,324076,324592,101
95,test,1,con,1,z,Tue Jul 29 2025 16:03:52 GMT-0500 (Central Daylight Time),332459.0,rage,800,O,z,z,None,440,240.0,200.0,49,1,1779.2000000029802,330679.799999997,7189,rage,AF,C,326125,326126,324596,325409,324596,326375,325925,325925,326375,102
96,test,1,inc,1,m,Tue Jul 29 2025 16:03:52 GMT-0500 (Central Daylight Time),334541.799999997,love,1000,O,m,m,None,538,338.0,200.0,71,1,2079.0,332462.799999997,7189,step,AF,C,328108,328108,326379,327392,326379,328458,327908,327908,328458,103
97,test,1,inc,1,z,Tue Jul 29 2025 16:03:52 GMT-0500 (Central Daylight Time),336757.799999997,window,1100,O,z,z,None,579,379.0,200.0,8,1,2212.199999988079,334545.60000000894,7189,elated,AF,C,330291,330291,328462,329574,328462,330674,330091,330091,330674,104
97,test,1,inc,0,z,Tue Jul 29 2025 16:03:52 GMT-0500 (Central Daylight Time),340190.10000000894,rock,900,O,None,None,None,1800,1800.0,200.0,14,1,3428.4000000059605,336761.700000003,7189,kind,AF,C,332306,332306,330678,331590,330678,334106,332106,332106,334106,105
98,test,1,inc,1,m,Tue Jul 29 2025 16:03:52 GMT-0500 (Central Daylight Time),342339.40000000596,kind,900,O,m,m,None,715,515.0,200.0,70,1,2145.6000000089407,340193.799999997,7189,step,AF,C,335739,335739,334110,335023,334110,336255,335539,335539,336255,106
99,test,1,inc,1,z,Tue Jul 29 2025 16:03:52 GMT-0500 (Central Daylight Time),344205.5,step,800,O,z,z,None,529,330.0,199.0,53,1,1862.2999999970198,342343.200000003,7189,rage,AF,C,337788,337788,336259,337072,336260,338122,337589,337589,338122,107
100,test,1,inc,1,m,Tue Jul 29 2025 16:03:52 GMT-0500 (Central Daylight Time),346105.10000000894,kind,900,O,m,m,None,450,251.0,199.0,86,1,1895.9000000059605,344209.200000003,7189,bell,AF,C,339754,339755,338125,339038,338125,340021,339555,339555,340021,108
101,test,1,con,1,m,Tue Jul 29 2025 16:03:52 GMT-0500 (Central Daylight Time),348221.0,napkin,1100,O,m,m,None,472,272.0,200.0,108,1,2112.2000000029802,346108.799999997,7189,napkin,AF,C,341854,341854,340025,341138,340025,342137,341654,341654,342137,109
102,test,1,con,1,m,Tue Jul 29 2025 16:03:52 GMT-0500 (Central Daylight Time),350136.700000003,jacket,1000,O,m,m,None,376,175.0,201.0,99,1,1911.5,348225.200000003,7189,jacket,AF,C,343871,343871,342141,343153,342141,344053,343670,343670,344053,110
103,test,1,inc,1,m,Tue Jul 29 2025 16:03:52 GMT-0500 (Central Daylight Time),351936.299999997,elated,800,O,m,m,None,452,252.0,200.0,125,1,1795.699999988079,350140.60000000894,7189,window,AF,C,345586,345586,344057,344870,344057,345852,345386,345386,345852,111
104,test,1,inc,1,z,Tue Jul 29 2025 16:03:52 GMT-0500 (Central Daylight Time),354002.299999997,film,1100,O,z,z,None,425,225.0,200.0,16,1,2062.0999999940395,351940.200000003,7189,kind,AF,C,347685,347685,345856,346969,345856,347918,347485,347485,347918,112
105,test,1,con,1,m,Tue Jul 29 2025 16:03:52 GMT-0500 (Central Daylight Time),355918.40000000596,film,900,O,m,m,None,479,279.0,200.0,90,1,1912.2999999970198,354006.10000000894,7189,film,AF,C,349551,349551,347922,348835,347922,349834,349351,349351,349834,113
106,test,1,con,1,m,Tue Jul 29 2025 16:03:52 GMT-0500 (Central Daylight Time),357834.40000000596,napkin,900,O,m,m,None,475,275.0,200.0,106,1,1912.4000000059605,355922.0,7189,napkin,AF,C,351467,351467,349838,350751,349838,351750,351267,351267,351750,114
107,test,1,inc,1,m,Tue Jul 29 2025 16:03:52 GMT-0500 (Central Daylight Time),359984.0,friend,1100,O,m,m,None,509,310.0,199.0,112,1,2145.7000000029802,357838.299999997,7189,napkin,AF,C,353584,353584,351754,352867,351754,353900,353384,353384,353900,115
108,test,1,con,1,m,Tue Jul 29 2025 16:03:52 GMT-0500 (Central Daylight Time),362017.200000003,window,1100,O,m,m,None,392,193.0,199.0,124,1,2029.2999999970198,359987.90000000596,7189,window,AF,C,355733,355733,353904,355016,353904,355933,355533,355533,355933,116
109,test,1,inc,1,m,Tue Jul 29 2025 16:03:52 GMT-0500 (Central Daylight Time),364082.299999997,temper,1000,O,m,m,None,531,332.0,199.0,119,1,2061.5,362020.799999997,7189,remote,AF,C,357666,357666,355937,356949,355937,357998,357466,357466,357998,117
110,test,1,con,1,m,Tue Jul 29 2025 16:03:52 GMT-0500 (Central Daylight Time),365998.60000000894,remote,900,O,m,m,None,469,270.0,199.0,114,1,1912.6000000089407,364086.0,7189,remote,AF,C,359632,359632,358002,358915,358002,359915,359432,359432,359915,118
111,test,1,con,1,z,Tue Jul 29 2025 16:03:52 GMT-0500 (Central Daylight Time),368148.0,kind,900,O,z,z,None,706,506.0,200.0,10,1,2145.8999999910593,366002.10000000894,7189,kind,AF,C,361548,361548,359918,360831,359918,362064,361348,361348,362064,119
112,test,1,inc,1,m,Tue Jul 29 2025 16:03:52 GMT-0500 (Central Daylight Time),370131.700000003,brutal,900,O,m,m,None,549,349.0,200.0,126,1,1979.7999999970198,368151.90000000596,7189,window,AF,C,363697,363697,362068,362981,362068,364048,363497,363497,364048,120
113,test,1,con,1,m,Tue Jul 29 2025 16:03:52 GMT-0500 (Central Daylight Time),372213.0,rock,900,O,m,m,None,546,347.0,199.0,74,1,2077.0999999940395,370135.90000000596,7189,rock,AF,C,365779,365779,364052,365073,364052,366129,365580,365580,366129,121
114,test,1,con,1,z,Tue Jul 29 2025 16:03:52 GMT-0500 (Central Daylight Time),374546.10000000894,hate,1100,O,z,z,None,700,500.0,200.0,44,1,2329.2000000029802,372216.90000000596,7189,hate,AF,C,367962,367962,366133,367246,366133,368462,367762,367762,368462,122
115,test,1,inc,1,z,Tue Jul 29 2025 16:03:52 GMT-0500 (Central Daylight Time),376428.60000000894,jacket,800,O,z,z,None,539,339.0,200.0,5,1,1878.800000011921,374549.799999997,7189,elated,AF,C,369995,369995,368466,369278,368466,370345,369795,369795,370345,123
116,test,1,inc,1,m,Tue Jul 29 2025 16:03:52 GMT-0500 (Central Daylight Time),378411.299999997,rage,800,O,m,m,None,648,448.0,200.0,93,1,1979.0,376432.299999997,7189,film,AF,C,371878,371878,370348,371161,370349,372327,371678,371678,372327,124
117,test,1,con,1,z,Tue Jul 29 2025 16:03:52 GMT-0500 (Central Daylight Time),380660.299999997,love,1100,O,z,z,None,604,405.0,199.0,20,1,2244.5999999940395,378415.700000003,7189,love,AF,C,374160,374160,372332,373444,372332,374576,373961,373961,374576,125
118,test,1,inc,1,m,Tue Jul 29 2025 16:03:52 GMT-0500 (Central Daylight Time),382894.40000000596,friend,1100,O,m,m,None,587,388.0,199.0,120,1,2230.5,380663.90000000596,7189,remote,AF,C,376410,376410,374580,375693,374580,376811,376210,376210,376810,126
119,test,1,inc,1,m,Tue Jul 29 2025 16:03:52 GMT-0500 (Central Daylight Time),384692.799999997,elated,800,O,m,m,None,479,264.0,215.0,109,1,1794.5,382898.299999997,7189,napkin,AF,C,378342,378342,376814,377626,376815,378609,378127,378127,378609,127
120,test,1,inc,1,m,Tue Jul 29 2025 16:03:52 GMT-0500 (Central Daylight Time),386475.5,elated,800,O,m,m,None,440,240.0,200.0,101,1,1778.8999999910593,384696.60000000894,7189,jacket,AF,C,380142,380142,378613,379425,378613,380392,379942,379942,380392,128
