block_c,block_dur,condition,countdown,datetime,endtime,list,multichar_response,project,response,response_time,session_number,start_end,starttime,subject_id,task,task_vers,trial
,,,,Tue Jun 17 2025 16:14:42 GMT-0500 (Central Daylight Time),,,,O,space,637,1,,,7172,WL,B,
prac,,0,,Tue Jun 17 2025 16:14:42 GMT-0500 (Central Daylight Time),,NA,b,O,b,6087,1,,,7172,WL,B,1.0
prac,,0,,Tue Jun 17 2025 16:14:42 GMT-0500 (Central Daylight Time),,NA,bo,O,o,331,1,,,7172,WL,B,1.0
prac,,0,,Tue Jun 17 2025 16:14:42 GMT-0500 (Central Daylight Time),,NA,boo,O,o,130,1,,,7172,WL,B,1.0
prac,,0,,Tue Jun 17 2025 16:14:42 GMT-0500 (Central Daylight Time),,NA,boos,O,s,151,1,,,7172,WL,B,1.0
prac,,0,,Tue Jun 17 2025 16:14:42 GMT-0500 (Central Daylight Time),,NA,boost,O,t,119,1,,,7172,WL,B,1.0
prac,,0,,Tue Jun 17 2025 16:14:42 GMT-0500 (Central Daylight Time),,NA,boostenter,O,enter,312,1,,,7172,WL,B,1.0
1,1.0,learn,59000.0,Tue Jun 17 2025 16:14:42 GMT-0500 (Central Daylight Time),121523.5,A,s,O,s,960,1,998.5,120525.0,7172,WL,B,1.0
1,1.2000000476837158,learn,58799.999952316284,Tue Jun 17 2025 16:14:42 GMT-0500 (Central Daylight Time),121723.5,A,st,O,t,151,1,1198.5,120525.0,7172,WL,B,1.0
1,1.4160001277923584,learn,58583.99987220764,Tue Jun 17 2025 16:14:42 GMT-0500 (Central Daylight Time),121940.0,A,str,O,r,184,1,1415.0,120525.0,7172,WL,B,1.0
1,1.566999912261963,learn,58433.00008773804,Tue Jun 17 2025 16:14:42 GMT-0500 (Central Daylight Time),122090.30000001192,A,stre,O,e,103,1,1565.300000011921,120525.0,7172,WL,B,1.0
1,1.7650001049041748,learn,58234.999895095825,Tue Jun 17 2025 16:14:42 GMT-0500 (Central Daylight Time),122288.80000001192,A,stree,O,e,160,1,1763.800000011921,120525.0,7172,WL,B,1.0
1,1.9490001201629639,learn,58050.999879837036,Tue Jun 17 2025 16:14:42 GMT-0500 (Central Daylight Time),122472.80000001192,A,street,O,t,159,1,1947.800000011921,120525.0,7172,WL,B,1.0
1,6.8480000495910645,learn,53151.999950408936,Tue Jun 17 2025 16:14:42 GMT-0500 (Central Daylight Time),127371.39999997616,A,streetenter,O,enter,4860,1,6846.399999976158,120525.0,7172,WL,B,1.0
1,7.914000034332275,learn,52085.999965667725,Tue Jun 17 2025 16:14:42 GMT-0500 (Central Daylight Time),128437.69999998808,A,g,O,g,1047,1,1065.800000011921,127371.89999997616,7172,WL,B,2.0
1,8.180000066757202,learn,51819.9999332428,Tue Jun 17 2025 16:14:42 GMT-0500 (Central Daylight Time),128704.0,A,gr,O,r,228,1,1332.1000000238419,127371.89999997616,7172,WL,B,2.0
1,8.430000066757202,learn,51569.9999332428,Tue Jun 17 2025 16:14:42 GMT-0500 (Central Daylight Time),128954.0,A,gra,O,a,204,1,1582.1000000238419,127371.89999997616,7172,WL,B,2.0
1,8.680000066757202,learn,51319.9999332428,Tue Jun 17 2025 16:14:42 GMT-0500 (Central Daylight Time),129204.0,A,gras,O,s,219,1,1832.1000000238419,127371.89999997616,7172,WL,B,2.0
1,8.86299991607666,learn,51137.00008392334,Tue Jun 17 2025 16:14:42 GMT-0500 (Central Daylight Time),129386.69999998808,A,grass,O,s,142,1,2014.800000011921,127371.89999997616,7172,WL,B,2.0
1,9.078999996185303,learn,50921.0000038147,Tue Jun 17 2025 16:14:42 GMT-0500 (Central Daylight Time),129602.89999997616,A,grassenter,O,enter,189,1,2231.0,127371.89999997616,7172,WL,B,2.0
1,9.680999994277954,learn,50319.000005722046,Tue Jun 17 2025 16:14:42 GMT-0500 (Central Daylight Time),130204.80000001192,A,d,O,d,593,1,601.5,129603.30000001192,7172,WL,B,3.0
1,9.845999956130981,learn,50154.00004386902,Tue Jun 17 2025 16:14:42 GMT-0500 (Central Daylight Time),130369.69999998808,A,do,O,o,136,1,766.3999999761581,129603.30000001192,7172,WL,B,3.0
1,10.04699993133545,learn,49953.00006866455,Tue Jun 17 2025 16:14:42 GMT-0500 (Central Daylight Time),130570.19999998808,A,doo,O,o,173,1,966.8999999761581,129603.30000001192,7172,WL,B,3.0
1,10.146000146865845,learn,49853.999853134155,Tue Jun 17 2025 16:14:42 GMT-0500 (Central Daylight Time),130669.69999998808,A,door,O,r,72,1,1066.3999999761581,129603.30000001192,7172,WL,B,3.0
1,10.495000123977661,learn,49504.99987602234,Tue Jun 17 2025 16:14:42 GMT-0500 (Central Daylight Time),131019.0,A,doorenter,O,enter,318,1,1415.699999988079,129603.30000001192,7172,WL,B,3.0
1,10.812000036239624,learn,49187.999963760376,Tue Jun 17 2025 16:14:42 GMT-0500 (Central Daylight Time),131336.0,A,a,O,a,304,1,316.69999998807907,131019.30000001192,7172,WL,B,4.0
1,10.963000059127808,learn,49036.99994087219,Tue Jun 17 2025 16:14:42 GMT-0500 (Central Daylight Time),131486.69999998808,A,ar,O,r,122,1,467.39999997615814,131019.30000001192,7172,WL,B,4.0
1,11.146000146865845,learn,48853.999853134155,Tue Jun 17 2025 16:14:42 GMT-0500 (Central Daylight Time),131669.80000001192,A,arm,O,m,145,1,650.5,131019.30000001192,7172,WL,B,4.0
1,11.545000076293945,learn,48454.999923706055,Tue Jun 17 2025 16:14:42 GMT-0500 (Central Daylight Time),132068.69999998808,A,armenter,O,enter,360,1,1049.3999999761581,131019.30000001192,7172,WL,B,4.0
1,12.779000043869019,learn,47220.99995613098,Tue Jun 17 2025 16:14:42 GMT-0500 (Central Daylight Time),133302.69999998808,A,w,O,w,1214,1,1233.6000000238419,132069.09999996424,7172,WL,B,5.0
1,12.878000020980835,learn,47121.999979019165,Tue Jun 17 2025 16:14:42 GMT-0500 (Central Daylight Time),133401.89999997616,A,wi,O,i,56,1,1332.800000011921,132069.09999996424,7172,WL,B,5.0
1,13.01200008392334,learn,46987.99991607666,Tue Jun 17 2025 16:14:42 GMT-0500 (Central Daylight Time),133536.09999996424,A,win,O,n,104,1,1467.0,132069.09999996424,7172,WL,B,5.0
1,13.128999948501587,learn,46871.00005149841,Tue Jun 17 2025 16:14:42 GMT-0500 (Central Daylight Time),133652.19999998808,A,wind,O,d,84,1,1583.1000000238419,132069.09999996424,7172,WL,B,5.0
1,13.26200008392334,learn,46737.99991607666,Tue Jun 17 2025 16:14:42 GMT-0500 (Central Daylight Time),133785.39999997616,A,windo,O,o,100,1,1716.300000011921,132069.09999996424,7172,WL,B,5.0
1,13.528000116348267,learn,46471.99988365173,Tue Jun 17 2025 16:14:42 GMT-0500 (Central Daylight Time),134051.89999997616,A,window,O,w,238,1,1982.800000011921,132069.09999996424,7172,WL,B,5.0
1,13.91100001335144,learn,46088.99998664856,Tue Jun 17 2025 16:14:42 GMT-0500 (Central Daylight Time),134434.59999996424,A,windowenter,O,enter,360,1,2365.5,132069.09999996424,7172,WL,B,5.0
1,14.528000116348267,learn,45471.99988365173,Tue Jun 17 2025 16:14:42 GMT-0500 (Central Daylight Time),135052.09999996424,A,w,O,w,602,1,617.1999999880791,134434.89999997616,7172,WL,B,6.0
1,14.661999940872192,learn,45338.00005912781,Tue Jun 17 2025 16:14:42 GMT-0500 (Central Daylight Time),135185.39999997616,A,wi,O,i,100,1,750.5,134434.89999997616,7172,WL,B,6.0
1,14.82800006866455,learn,45171.99993133545,Tue Jun 17 2025 16:14:42 GMT-0500 (Central Daylight Time),135351.59999996424,A,wif,O,f,132,1,916.6999999880791,134434.89999997616,7172,WL,B,6.0
1,15.010999917984009,learn,44989.00008201599,Tue Jun 17 2025 16:14:42 GMT-0500 (Central Daylight Time),135535.09999996424,A,wife,O,e,153,1,1100.199999988079,134434.89999997616,7172,WL,B,6.0
1,15.226999998092651,learn,44773.00000190735,Tue Jun 17 2025 16:14:42 GMT-0500 (Central Daylight Time),135750.80000001192,A,wifeenter,O,enter,175,1,1315.9000000357628,134434.89999997616,7172,WL,B,6.0
1,16.378000020980835,learn,43621.999979019165,Tue Jun 17 2025 16:14:42 GMT-0500 (Central Daylight Time),136901.5,A,c,O,c,1140,1,1150.4000000357628,135751.09999996424,7172,WL,B,7.0
1,16.594000101089478,learn,43405.99989891052,Tue Jun 17 2025 16:14:42 GMT-0500 (Central Daylight Time),137117.59999996424,A,ca,O,a,181,1,1366.5,135751.09999996424,7172,WL,B,7.0
1,16.92799997329712,learn,43072.00002670288,Tue Jun 17 2025 16:14:42 GMT-0500 (Central Daylight Time),137451.39999997616,A,cab,O,b,299,1,1700.300000011921,135751.09999996424,7172,WL,B,7.0
1,17.061000108718872,learn,42938.99989128113,Tue Jun 17 2025 16:14:42 GMT-0500 (Central Daylight Time),137584.69999998808,A,cabi,O,i,94,1,1833.6000000238419,135751.09999996424,7172,WL,B,7.0
1,17.710999965667725,learn,42289.000034332275,Tue Jun 17 2025 16:14:42 GMT-0500 (Central Daylight Time),138234.5,A,cabin,O,n,608,1,2483.400000035763,135751.09999996424,7172,WL,B,7.0
1,18.14300012588501,learn,41856.99987411499,Tue Jun 17 2025 16:14:42 GMT-0500 (Central Daylight Time),138666.5,A,cabinenter,O,enter,405,1,2915.400000035763,135751.09999996424,7172,WL,B,7.0
1,24.556999921798706,learn,35443.000078201294,Tue Jun 17 2025 16:14:42 GMT-0500 (Central Daylight Time),145081.09999996424,A,w,O,w,6400,1,6414.199999988079,138666.89999997616,7172,WL,B,8.0
1,24.674000024795532,learn,35325.99997520447,Tue Jun 17 2025 16:14:42 GMT-0500 (Central Daylight Time),145197.59999996424,A,wi,O,i,104,1,6530.699999988079,138666.89999997616,7172,WL,B,8.0
1,24.841000080108643,learn,35158.99991989136,Tue Jun 17 2025 16:14:42 GMT-0500 (Central Daylight Time),145364.39999997616,A,wif,O,f,148,1,6697.5,138666.89999997616,7172,WL,B,8.0
1,25.0239999294281,learn,34976.0000705719,Tue Jun 17 2025 16:14:42 GMT-0500 (Central Daylight Time),145547.39999997616,A,wife,O,e,174,1,6880.5,138666.89999997616,7172,WL,B,8.0
1,25.207000017166138,learn,34792.99998283386,Tue Jun 17 2025 16:14:42 GMT-0500 (Central Daylight Time),145730.59999996424,A,wifeenter,O,enter,167,1,7063.699999988079,138666.89999997616,7172,WL,B,8.0
1,31.473000049591064,learn,28526.999950408936,Tue Jun 17 2025 16:14:42 GMT-0500 (Central Daylight Time),151996.39999997616,A,p,O,p,6247,1,6265.399999976158,145731.0,7172,WL,B,9.0
1,32.83899998664856,learn,27161.00001335144,Tue Jun 17 2025 16:14:42 GMT-0500 (Central Daylight Time),153362.19999998808,A,pu,O,u,1335,1,7631.199999988079,145731.0,7172,WL,B,9.0
1,33.17199993133545,learn,26828.00006866455,Tue Jun 17 2025 16:14:42 GMT-0500 (Central Daylight Time),153696.0,A,pup,O,p,314,1,7965.0,145731.0,7172,WL,B,9.0
1,33.48900008201599,learn,26510.99991798401,Tue Jun 17 2025 16:14:42 GMT-0500 (Central Daylight Time),154012.5,A,pupi,O,i,282,1,8281.5,145731.0,7172,WL,B,9.0
1,33.704999923706055,learn,26295.000076293945,Tue Jun 17 2025 16:14:42 GMT-0500 (Central Daylight Time),154229.09999996424,A,pupil,O,l,187,1,8498.099999964237,145731.0,7172,WL,B,9.0
1,34.03800010681152,learn,25961.999893188477,Tue Jun 17 2025 16:14:42 GMT-0500 (Central Daylight Time),154561.39999997616,A,pupilenter,O,enter,299,1,8830.399999976158,145731.0,7172,WL,B,9.0
1,34.40499997138977,learn,25595.00002861023,Tue Jun 17 2025 16:14:42 GMT-0500 (Central Daylight Time),154928.80000001192,A,p,O,p,355,1,367.2000000476837,154561.59999996424,7172,WL,B,10.0
1,34.67199993133545,learn,25328.00006866455,Tue Jun 17 2025 16:14:42 GMT-0500 (Central Daylight Time),155196.0,A,pi,O,i,243,1,634.4000000357628,154561.59999996424,7172,WL,B,10.0
1,34.90499997138977,learn,25095.00002861023,Tue Jun 17 2025 16:14:42 GMT-0500 (Central Daylight Time),155428.69999998808,A,pip,O,p,199,1,867.1000000238419,154561.59999996424,7172,WL,B,10.0
1,35.62100005149841,learn,24378.999948501587,Tue Jun 17 2025 16:14:42 GMT-0500 (Central Daylight Time),156144.89999997616,A,pipe,O,e,685,1,1583.300000011921,154561.59999996424,7172,WL,B,10.0
1,35.871999979019165,learn,24128.000020980835,Tue Jun 17 2025 16:14:42 GMT-0500 (Central Daylight Time),156395.19999998808,A,pipeenter,O,enter,227,1,1833.6000000238419,154561.59999996424,7172,WL,B,10.0
1,47.01800012588501,learn,12981.99987411499,Tue Jun 17 2025 16:14:42 GMT-0500 (Central Daylight Time),167541.39999997616,A,c,O,c,11129,1,11145.899999976158,156395.5,7172,WL,B,11.0
1,47.151000022888184,learn,12848.999977111816,Tue Jun 17 2025 16:14:42 GMT-0500 (Central Daylight Time),167674.69999998808,A,ci,O,i,100,1,11279.199999988079,156395.5,7172,WL,B,11.0
1,47.301000118255615,learn,12698.999881744385,Tue Jun 17 2025 16:14:42 GMT-0500 (Central Daylight Time),167824.39999997616,A,cit,O,t,110,1,11428.899999976158,156395.5,7172,WL,B,11.0
1,47.45099997520447,learn,12549.000024795532,Tue Jun 17 2025 16:14:42 GMT-0500 (Central Daylight Time),167974.30000001192,A,city,O,y,112,1,11578.800000011921,156395.5,7172,WL,B,11.0
1,47.76699995994568,learn,12233.000040054321,Tue Jun 17 2025 16:14:42 GMT-0500 (Central Daylight Time),168290.09999996424,A,cityenter,O,enter,283,1,11894.599999964237,156395.5,7172,WL,B,11.0
1,50.91600012779236,learn,9083.999872207642,Tue Jun 17 2025 16:14:42 GMT-0500 (Central Daylight Time),171439.09999996424,A,enter,O,enter,3137,1,3148.599999964237,168290.5,7172,WL,B,12.0
1,60.013999938964844,learn,-13.99993896484375,Tue Jun 17 2025 16:14:42 GMT-0500 (Central Daylight Time),180537.39999997616,A,None,O,None,9092,1,9098.0,171439.39999997616,7172,WL,B,13.0
2,0.932999849319458,learn,59067.00015068054,Tue Jun 17 2025 16:14:42 GMT-0500 (Central Daylight Time),251047.39999997616,A,s,O,s,896,1,932.3000000119209,250115.09999996424,7172,WL,B,1.0
2,1.1340000629425049,learn,58865.999937057495,Tue Jun 17 2025 16:14:42 GMT-0500 (Central Daylight Time),251247.69999998808,A,st,O,t,168,1,1132.6000000238419,250115.09999996424,7172,WL,B,1.0
2,1.3840000629425049,learn,58615.999937057495,Tue Jun 17 2025 16:14:42 GMT-0500 (Central Daylight Time),251498.19999998808,A,str,O,r,212,1,1383.1000000238419,250115.09999996424,7172,WL,B,1.0
2,1.4500000476837158,learn,58549.999952316284,Tue Jun 17 2025 16:14:42 GMT-0500 (Central Daylight Time),251563.69999998808,A,stre,O,e,38,1,1448.6000000238419,250115.09999996424,7172,WL,B,1.0
2,1.7000000476837158,learn,58299.999952316284,Tue Jun 17 2025 16:14:42 GMT-0500 (Central Daylight Time),251813.5,A,stree,O,e,224,1,1698.4000000357628,250115.09999996424,7172,WL,B,1.0
2,1.866999864578247,learn,58133.00013542175,Tue Jun 17 2025 16:14:42 GMT-0500 (Central Daylight Time),251980.39999997616,A,street,O,t,133,1,1865.300000011921,250115.09999996424,7172,WL,B,1.0
2,2.1989998817443848,learn,57801.000118255615,Tue Jun 17 2025 16:14:42 GMT-0500 (Central Daylight Time),252312.5,A,streetenter,O,enter,300,1,2197.400000035763,250115.09999996424,7172,WL,B,1.0
2,2.5329999923706055,learn,57467.000007629395,Tue Jun 17 2025 16:14:42 GMT-0500 (Central Daylight Time),252647.09999996424,A,g,O,g,324,1,334.2999999523163,252312.80000001192,7172,WL,B,2.0
2,2.7330000400543213,learn,57266.99995994568,Tue Jun 17 2025 16:14:42 GMT-0500 (Central Daylight Time),252846.39999997616,A,gr,O,r,168,1,533.5999999642372,252312.80000001192,7172,WL,B,2.0
2,2.882999897003174,learn,57117.000102996826,Tue Jun 17 2025 16:14:42 GMT-0500 (Central Daylight Time),252996.39999997616,A,gra,O,a,122,1,683.5999999642372,252312.80000001192,7172,WL,B,2.0
2,3.131999969482422,learn,56868.00003051758,Tue Jun 17 2025 16:14:42 GMT-0500 (Central Daylight Time),253246.30000001192,A,gras,O,s,211,1,933.5,252312.80000001192,7172,WL,B,2.0
2,3.315999984741211,learn,56684.00001525879,Tue Jun 17 2025 16:14:42 GMT-0500 (Central Daylight Time),253430.0,A,grass,O,s,148,1,1117.199999988079,252312.80000001192,7172,WL,B,2.0
2,3.5149998664855957,learn,56485.000133514404,Tue Jun 17 2025 16:14:42 GMT-0500 (Central Daylight Time),253628.69999998808,A,grassenter,O,enter,170,1,1315.8999999761581,252312.80000001192,7172,WL,B,2.0
2,3.7990000247955322,learn,56200.99997520447,Tue Jun 17 2025 16:14:42 GMT-0500 (Central Daylight Time),253913.0,A,d,O,d,263,1,283.9000000357628,253629.09999996424,7172,WL,B,3.0
2,3.9159998893737793,learn,56084.00011062622,Tue Jun 17 2025 16:14:42 GMT-0500 (Central Daylight Time),254029.39999997616,A,do,O,o,89,1,400.30000001192093,253629.09999996424,7172,WL,B,3.0
2,4.115999937057495,learn,55884.000062942505,Tue Jun 17 2025 16:14:42 GMT-0500 (Central Daylight Time),254229.5,A,doo,O,o,165,1,600.4000000357628,253629.09999996424,7172,WL,B,3.0
2,4.266000032424927,learn,55733.99996757507,Tue Jun 17 2025 16:14:42 GMT-0500 (Central Daylight Time),254379.59999996424,A,door,O,r,109,1,750.5,253629.09999996424,7172,WL,B,3.0
2,4.615000009536743,learn,55384.99999046326,Tue Jun 17 2025 16:14:42 GMT-0500 (Central Daylight Time),254728.39999997616,A,doorenter,O,enter,317,1,1099.300000011921,253629.09999996424,7172,WL,B,3.0
2,5.381999969482422,learn,54618.00003051758,Tue Jun 17 2025 16:14:42 GMT-0500 (Central Daylight Time),255496.0,A,a,O,a,747,1,767.3000000119209,254728.69999998808,7172,WL,B,4.0
2,5.48199987411499,learn,54518.00012588501,Tue Jun 17 2025 16:14:42 GMT-0500 (Central Daylight Time),255595.59999996424,A,ar,O,r,65,1,866.8999999761581,254728.69999998808,7172,WL,B,4.0
2,5.697999954223633,learn,54302.00004577637,Tue Jun 17 2025 16:14:42 GMT-0500 (Central Daylight Time),255812.19999998808,A,arm,O,m,189,1,1083.5,254728.69999998808,7172,WL,B,4.0
2,5.947999954223633,learn,54052.00004577637,Tue Jun 17 2025 16:14:42 GMT-0500 (Central Daylight Time),256061.30000001192,A,armenter,O,enter,219,1,1332.6000000238419,254728.69999998808,7172,WL,B,4.0
2,6.2820000648498535,learn,53717.99993515015,Tue Jun 17 2025 16:14:42 GMT-0500 (Central Daylight Time),256395.59999996424,A,w,O,w,319,1,334.0,256061.59999996424,7172,WL,B,5.0
2,6.431999921798706,learn,53568.000078201294,Tue Jun 17 2025 16:14:42 GMT-0500 (Central Daylight Time),256545.69999998808,A,wi,O,i,104,1,484.10000002384186,256061.59999996424,7172,WL,B,5.0
2,6.648000001907349,learn,53351.99999809265,Tue Jun 17 2025 16:14:42 GMT-0500 (Central Daylight Time),256762.09999996424,A,win,O,n,175,1,700.5,256061.59999996424,7172,WL,B,5.0
2,6.7829999923706055,learn,53217.000007629395,Tue Jun 17 2025 16:14:42 GMT-0500 (Central Daylight Time),256896.5,A,wind,O,d,96,1,834.9000000357628,256061.59999996424,7172,WL,B,5.0
2,6.914999961853027,learn,53085.00003814697,Tue Jun 17 2025 16:14:42 GMT-0500 (Central Daylight Time),257028.80000001192,A,windo,O,o,96,1,967.2000000476837,256061.59999996424,7172,WL,B,5.0
2,7.079999923706055,learn,52920.000076293945,Tue Jun 17 2025 16:14:42 GMT-0500 (Central Daylight Time),257194.19999998808,A,window,O,w,131,1,1132.6000000238419,256061.59999996424,7172,WL,B,5.0
2,7.263999938964844,learn,52736.000061035156,Tue Jun 17 2025 16:14:42 GMT-0500 (Central Daylight Time),257377.39999997616,A,windowenter,O,enter,159,1,1315.800000011921,256061.59999996424,7172,WL,B,5.0
2,8.27999997138977,learn,51720.00002861023,Tue Jun 17 2025 16:14:42 GMT-0500 (Central Daylight Time),258393.69999998808,A,w,O,w,1008,1,1015.8999999761581,257377.80000001192,7172,WL,B,6.0
2,8.379999876022339,learn,51620.00012397766,Tue Jun 17 2025 16:14:42 GMT-0500 (Central Daylight Time),258493.69999998808,A,wi,O,i,81,1,1115.8999999761581,257377.80000001192,7172,WL,B,6.0
2,8.54699993133545,learn,51453.00006866455,Tue Jun 17 2025 16:14:42 GMT-0500 (Central Daylight Time),258660.39999997616,A,wif,O,f,149,1,1282.5999999642372,257377.80000001192,7172,WL,B,6.0
2,8.746999979019165,learn,51253.000020980835,Tue Jun 17 2025 16:14:42 GMT-0500 (Central Daylight Time),258861.30000001192,A,wife,O,e,184,1,1483.5,257377.80000001192,7172,WL,B,6.0
2,8.980000019073486,learn,51019.999980926514,Tue Jun 17 2025 16:14:42 GMT-0500 (Central Daylight Time),259093.69999998808,A,wifeenter,O,enter,195,1,1715.8999999761581,257377.80000001192,7172,WL,B,6.0
2,12.296000003814697,learn,47703.9999961853,Tue Jun 17 2025 16:14:42 GMT-0500 (Central Daylight Time),262410.09999996424,A,s,O,s,3294,1,3316.099999964237,259094.0,7172,WL,B,7.0
2,12.428999900817871,learn,47571.00009918213,Tue Jun 17 2025 16:14:42 GMT-0500 (Central Daylight Time),262542.5,A,sk,O,k,98,1,3448.5,259094.0,7172,WL,B,7.0
2,12.59500002861023,learn,47404.99997138977,Tue Jun 17 2025 16:14:42 GMT-0500 (Central Daylight Time),262709.09999996424,A,ski,O,i,155,1,3615.099999964237,259094.0,7172,WL,B,7.0
2,12.744999885559082,learn,47255.00011444092,Tue Jun 17 2025 16:14:42 GMT-0500 (Central Daylight Time),262858.89999997616,A,skin,O,n,132,1,3764.899999976158,259094.0,7172,WL,B,7.0
2,13.42799997329712,learn,46572.00002670288,Tue Jun 17 2025 16:14:42 GMT-0500 (Central Daylight Time),263542.1999999881,A,skinenter,O,enter,672,1,4448.199999988079,259094.0,7172,WL,B,7.0
2,14.19599986076355,learn,45804.00013923645,Tue Jun 17 2025 16:14:42 GMT-0500 (Central Daylight Time),264309.6999999881,A,f,O,f,751,1,767.1999999880791,263542.5,7172,WL,B,8.0
2,14.26199984550476,learn,45738.00015449524,Tue Jun 17 2025 16:14:42 GMT-0500 (Central Daylight Time),264375.59999996424,A,fi,O,i,36,1,833.0999999642372,263542.5,7172,WL,B,8.0
2,14.428999900817871,learn,45571.00009918213,Tue Jun 17 2025 16:14:42 GMT-0500 (Central Daylight Time),264542.8000000119,A,fir,O,r,150,1,1000.3000000119209,263542.5,7172,WL,B,8.0
2,14.562000036239624,learn,45437.999963760376,Tue Jun 17 2025 16:14:42 GMT-0500 (Central Daylight Time),264676.1999999881,A,fire,O,e,99,1,1133.699999988079,263542.5,7172,WL,B,8.0
2,14.82800006866455,learn,45171.99993133545,Tue Jun 17 2025 16:14:42 GMT-0500 (Central Daylight Time),264941.59999996424,A,fireenter,O,enter,228,1,1399.0999999642372,263542.5,7172,WL,B,8.0
2,15.228999853134155,learn,44771.000146865845,Tue Jun 17 2025 16:14:42 GMT-0500 (Central Daylight Time),265342.8000000119,A,c,O,c,391,1,400.80000001192093,264942.0,7172,WL,B,9.0
2,15.34500002861023,learn,44654.99997138977,Tue Jun 17 2025 16:14:42 GMT-0500 (Central Daylight Time),265459.3000000119,A,ci,O,i,74,1,517.3000000119209,264942.0,7172,WL,B,9.0
2,15.51199984550476,learn,44488.00015449524,Tue Jun 17 2025 16:14:42 GMT-0500 (Central Daylight Time),265625.59999996424,A,cit,O,t,126,1,683.5999999642372,264942.0,7172,WL,B,9.0
2,15.644999980926514,learn,44355.000019073486,Tue Jun 17 2025 16:14:42 GMT-0500 (Central Daylight Time),265759.1999999881,A,city,O,y,104,1,817.1999999880791,264942.0,7172,WL,B,9.0
2,15.977999925613403,learn,44022.0000743866,Tue Jun 17 2025 16:14:42 GMT-0500 (Central Daylight Time),266091.39999997616,A,cityenter,O,enter,297,1,1149.3999999761581,264942.0,7172,WL,B,9.0
2,17.376999855041504,learn,42623.000144958496,Tue Jun 17 2025 16:14:42 GMT-0500 (Central Daylight Time),267491.1999999881,A,p,O,p,1384,1,1399.5,266091.6999999881,7172,WL,B,10.0
2,17.59500002861023,learn,42404.99997138977,Tue Jun 17 2025 16:14:42 GMT-0500 (Central Daylight Time),267708.59999996424,A,pu,O,u,198,1,1616.8999999761581,266091.6999999881,7172,WL,B,10.0
2,17.92799997329712,learn,42072.00002670288,Tue Jun 17 2025 16:14:42 GMT-0500 (Central Daylight Time),268041.5,A,pup,O,p,291,1,1949.800000011921,266091.6999999881,7172,WL,B,10.0
2,18.161999940872192,learn,41838.00005912781,Tue Jun 17 2025 16:14:42 GMT-0500 (Central Daylight Time),268275.59999996424,A,pupi,O,i,209,1,2183.899999976158,266091.6999999881,7172,WL,B,10.0
2,18.378000020980835,learn,41621.999979019165,Tue Jun 17 2025 16:14:42 GMT-0500 (Central Daylight Time),268491.59999996424,A,pupil,O,l,189,1,2399.899999976158,266091.6999999881,7172,WL,B,10.0
2,18.64299988746643,learn,41357.00011253357,Tue Jun 17 2025 16:14:42 GMT-0500 (Central Daylight Time),268757.1999999881,A,pupilenter,O,enter,237,1,2665.5,266091.6999999881,7172,WL,B,10.0
2,19.16100001335144,learn,40838.99998664856,Tue Jun 17 2025 16:14:42 GMT-0500 (Central Daylight Time),269274.89999997616,A,p,O,p,496,1,517.5,268757.39999997616,7172,WL,B,11.0
2,19.40999984741211,learn,40590.00015258789,Tue Jun 17 2025 16:14:42 GMT-0500 (Central Daylight Time),269524.09999996424,A,pi,O,i,224,1,766.6999999880791,268757.39999997616,7172,WL,B,11.0
2,19.5939998626709,learn,40406.0001373291,Tue Jun 17 2025 16:14:42 GMT-0500 (Central Daylight Time),269707.8000000119,A,pip,O,p,158,1,950.4000000357628,268757.39999997616,7172,WL,B,11.0
2,19.777999877929688,learn,40222.00012207031,Tue Jun 17 2025 16:14:42 GMT-0500 (Central Daylight Time),269891.8000000119,A,pipe,O,e,167,1,1134.4000000357628,268757.39999997616,7172,WL,B,11.0
2,20.009999990463257,learn,39990.00000953674,Tue Jun 17 2025 16:14:42 GMT-0500 (Central Daylight Time),270123.39999997616,A,pipeenter,O,enter,198,1,1366.0,268757.39999997616,7172,WL,B,11.0
2,26.625,learn,33375.0,Tue Jun 17 2025 16:14:42 GMT-0500 (Central Daylight Time),276738.6999999881,A,s,O,s,6602,1,6615.100000023842,270123.59999996424,7172,WL,B,12.0
2,26.79099988937378,learn,33209.00011062622,Tue Jun 17 2025 16:14:42 GMT-0500 (Central Daylight Time),276904.6999999881,A,st,O,t,126,1,6781.100000023842,270123.59999996424,7172,WL,B,12.0
2,26.924999952316284,learn,33075.000047683716,Tue Jun 17 2025 16:14:42 GMT-0500 (Central Daylight Time),277038.3000000119,A,sta,O,a,117,1,6914.700000047684,270123.59999996424,7172,WL,B,12.0
2,27.056999921798706,learn,32943.000078201294,Tue Jun 17 2025 16:14:42 GMT-0500 (Central Daylight Time),277171.09999996424,A,star,O,r,107,1,7047.5,270123.59999996424,7172,WL,B,12.0
2,27.256999969482422,learn,32743.000030517578,Tue Jun 17 2025 16:14:42 GMT-0500 (Central Daylight Time),277370.89999997616,A,starenter,O,enter,179,1,7247.300000011921,270123.59999996424,7172,WL,B,12.0
2,35.00499987602234,learn,24995.00012397766,Tue Jun 17 2025 16:14:42 GMT-0500 (Central Daylight Time),285119.0,A,c,O,c,7729,1,7747.800000011921,277371.1999999881,7172,WL,B,13.0
2,35.22199988365173,learn,24778.000116348267,Tue Jun 17 2025 16:14:42 GMT-0500 (Central Daylight Time),285335.89999997616,A,ca,O,a,191,1,7964.699999988079,277371.1999999881,7172,WL,B,13.0
2,35.50499987602234,learn,24495.00012397766,Tue Jun 17 2025 16:14:42 GMT-0500 (Central Daylight Time),285619.1999999881,A,cab,O,b,250,1,8248.0,277371.1999999881,7172,WL,B,13.0
2,35.605000019073486,learn,24394.999980926514,Tue Jun 17 2025 16:14:42 GMT-0500 (Central Daylight Time),285718.3000000119,A,cabi,O,i,61,1,8347.100000023842,277371.1999999881,7172,WL,B,13.0
2,35.77199983596802,learn,24228.000164031982,Tue Jun 17 2025 16:14:42 GMT-0500 (Central Daylight Time),285885.59999996424,A,cabin,O,n,148,1,8514.399999976158,277371.1999999881,7172,WL,B,13.0
2,36.07099986076355,learn,23929.00013923645,Tue Jun 17 2025 16:14:42 GMT-0500 (Central Daylight Time),286184.6999999881,A,cabinenter,O,enter,268,1,8813.5,277371.1999999881,7172,WL,B,13.0
2,36.47199988365173,learn,23528.000116348267,Tue Jun 17 2025 16:14:42 GMT-0500 (Central Daylight Time),286585.5,A,l,O,l,379,1,400.5,286185.0,7172,WL,B,14.0
2,36.58800005912781,learn,23411.999940872192,Tue Jun 17 2025 16:14:42 GMT-0500 (Central Daylight Time),286702.09999996424,A,la,O,a,82,1,517.0999999642372,286185.0,7172,WL,B,14.0
2,36.704999923706055,learn,23295.000076293945,Tue Jun 17 2025 16:14:42 GMT-0500 (Central Daylight Time),286818.8000000119,A,lak,O,k,76,1,633.8000000119209,286185.0,7172,WL,B,14.0
2,36.855000019073486,learn,23144.999980926514,Tue Jun 17 2025 16:14:42 GMT-0500 (Central Daylight Time),286968.39999997616,A,lake,O,e,110,1,783.3999999761581,286185.0,7172,WL,B,14.0
2,37.00399994850159,learn,22996.000051498413,Tue Jun 17 2025 16:14:42 GMT-0500 (Central Daylight Time),287117.6999999881,A,lakeenter,O,enter,122,1,932.6999999880791,286185.0,7172,WL,B,14.0
2,42.05299997329712,learn,17947.00002670288,Tue Jun 17 2025 16:14:42 GMT-0500 (Central Daylight Time),292167.1999999881,A,d,O,d,5038,1,5049.300000011921,287117.89999997616,7172,WL,B,15.0
2,42.20300006866455,learn,17796.99993133545,Tue Jun 17 2025 16:14:42 GMT-0500 (Central Daylight Time),292316.8000000119,A,do,O,o,117,1,5198.900000035763,287117.89999997616,7172,WL,B,15.0
2,42.3529999256134,learn,17647.000074386597,Tue Jun 17 2025 16:14:42 GMT-0500 (Central Daylight Time),292466.59999996424,A,doo,O,o,117,1,5348.699999988079,287117.89999997616,7172,WL,B,15.0
2,42.48699998855591,learn,17513.00001144409,Tue Jun 17 2025 16:14:42 GMT-0500 (Central Daylight Time),292600.39999997616,A,door,O,r,98,1,5482.5,287117.89999997616,7172,WL,B,15.0
2,42.651999950408936,learn,17348.000049591064,Tue Jun 17 2025 16:14:42 GMT-0500 (Central Daylight Time),292765.8000000119,A,doorenter,O,enter,136,1,5647.900000035763,287117.89999997616,7172,WL,B,15.0
3,0.9170000553131104,learn,59082.99994468689,Tue Jun 17 2025 16:14:42 GMT-0500 (Central Daylight Time),361177.8000000119,A,s,O,s,887,1,916.0,360261.8000000119,7172,WL,B,1.0
3,1.116999864578247,learn,58883.00013542175,Tue Jun 17 2025 16:14:42 GMT-0500 (Central Daylight Time),361377.6999999881,A,st,O,t,169,1,1115.8999999761581,360261.8000000119,7172,WL,B,1.0
3,1.3499999046325684,learn,58650.00009536743,Tue Jun 17 2025 16:14:42 GMT-0500 (Central Daylight Time),361611.39999997616,A,str,O,r,209,1,1349.5999999642372,360261.8000000119,7172,WL,B,1.0
3,1.5499999523162842,learn,58450.000047683716,Tue Jun 17 2025 16:14:42 GMT-0500 (Central Daylight Time),361810.6999999881,A,stre,O,e,159,1,1548.8999999761581,360261.8000000119,7172,WL,B,1.0
3,1.7999999523162842,learn,58200.000047683716,Tue Jun 17 2025 16:14:42 GMT-0500 (Central Daylight Time),362060.5,A,stree,O,e,224,1,1798.699999988079,360261.8000000119,7172,WL,B,1.0
3,1.9659998416900635,learn,58034.00015830994,Tue Jun 17 2025 16:14:42 GMT-0500 (Central Daylight Time),362227.1999999881,A,street,O,t,125,1,1965.3999999761581,360261.8000000119,7172,WL,B,1.0
3,2.631999969482422,learn,57368.00003051758,Tue Jun 17 2025 16:14:42 GMT-0500 (Central Daylight Time),362892.89999997616,A,streetenter,O,enter,629,1,2631.099999964237,360261.8000000119,7172,WL,B,1.0
3,3.1489999294281006,learn,56851.0000705719,Tue Jun 17 2025 16:14:42 GMT-0500 (Central Daylight Time),363410.1999999881,A,g,O,g,495,1,517.0,362893.1999999881,7172,WL,B,2.0
3,3.365999937057495,learn,56634.000062942505,Tue Jun 17 2025 16:14:42 GMT-0500 (Central Daylight Time),363627.0,A,gr,O,r,175,1,733.8000000119209,362893.1999999881,7172,WL,B,2.0
3,3.447999954223633,learn,56552.00004577637,Tue Jun 17 2025 16:14:42 GMT-0500 (Central Daylight Time),363709.3000000119,A,gra,O,a,52,1,816.1000000238419,362893.1999999881,7172,WL,B,2.0
3,3.681999921798706,learn,56318.000078201294,Tue Jun 17 2025 16:14:42 GMT-0500 (Central Daylight Time),363942.89999997616,A,gras,O,s,217,1,1049.699999988079,362893.1999999881,7172,WL,B,2.0
3,3.865999937057495,learn,56134.000062942505,Tue Jun 17 2025 16:14:42 GMT-0500 (Central Daylight Time),364126.89999997616,A,grass,O,s,158,1,1233.699999988079,362893.1999999881,7172,WL,B,2.0
3,3.997999906539917,learn,56002.00009346008,Tue Jun 17 2025 16:14:42 GMT-0500 (Central Daylight Time),364259.09999996424,A,grassenter,O,enter,107,1,1365.8999999761581,362893.1999999881,7172,WL,B,2.0
3,4.7149999141693115,learn,55285.00008583069,Tue Jun 17 2025 16:14:42 GMT-0500 (Central Daylight Time),364976.39999997616,A,d,O,d,705,1,717.0999999642372,364259.3000000119,7172,WL,B,3.0
3,4.848999977111816,learn,55151.00002288818,Tue Jun 17 2025 16:14:42 GMT-0500 (Central Daylight Time),365109.8000000119,A,do,O,o,106,1,850.5,364259.3000000119,7172,WL,B,3.0
3,4.998999834060669,learn,55001.00016593933,Tue Jun 17 2025 16:14:42 GMT-0500 (Central Daylight Time),365259.8000000119,A,doo,O,o,118,1,1000.5,364259.3000000119,7172,WL,B,3.0
3,5.148999929428101,learn,54851.0000705719,Tue Jun 17 2025 16:14:42 GMT-0500 (Central Daylight Time),365409.6999999881,A,door,O,r,109,1,1150.3999999761581,364259.3000000119,7172,WL,B,3.0
3,5.480999946594238,learn,54519.00005340576,Tue Jun 17 2025 16:14:42 GMT-0500 (Central Daylight Time),365742.0,A,doorenter,O,enter,297,1,1482.699999988079,364259.3000000119,7172,WL,B,3.0
3,5.764999866485596,learn,54235.000133514404,Tue Jun 17 2025 16:14:42 GMT-0500 (Central Daylight Time),366026.1999999881,A,w,O,w,271,1,283.89999997615814,365742.3000000119,7172,WL,B,4.0
3,5.865000009536743,learn,54134.99999046326,Tue Jun 17 2025 16:14:42 GMT-0500 (Central Daylight Time),366125.89999997616,A,wi,O,i,61,1,383.5999999642372,365742.3000000119,7172,WL,B,4.0
3,5.998999834060669,learn,54001.00016593933,Tue Jun 17 2025 16:14:42 GMT-0500 (Central Daylight Time),366259.89999997616,A,win,O,n,107,1,517.5999999642372,365742.3000000119,7172,WL,B,4.0
3,6.164999961853027,learn,53835.00003814697,Tue Jun 17 2025 16:14:42 GMT-0500 (Central Daylight Time),366426.0,A,wind,O,d,126,1,683.6999999880791,365742.3000000119,7172,WL,B,4.0
3,6.263999938964844,learn,53736.000061035156,Tue Jun 17 2025 16:14:42 GMT-0500 (Central Daylight Time),366525.1999999881,A,windo,O,o,71,1,782.8999999761581,365742.3000000119,7172,WL,B,4.0
3,6.398000001907349,learn,53601.99999809265,Tue Jun 17 2025 16:14:42 GMT-0500 (Central Daylight Time),366659.1999999881,A,window,O,w,107,1,916.8999999761581,365742.3000000119,7172,WL,B,4.0
3,6.613999843597412,learn,53386.00015640259,Tue Jun 17 2025 16:14:42 GMT-0500 (Central Daylight Time),366874.89999997616,A,windowenter,O,enter,182,1,1132.5999999642372,365742.3000000119,7172,WL,B,4.0
3,7.230999946594238,learn,52769.00005340576,Tue Jun 17 2025 16:14:42 GMT-0500 (Central Daylight Time),367492.3000000119,A,w,O,w,602,1,617.1000000238419,366875.1999999881,7172,WL,B,5.0
3,7.329999923706055,learn,52670.000076293945,Tue Jun 17 2025 16:14:42 GMT-0500 (Central Daylight Time),367591.5,A,wi,O,i,59,1,716.3000000119209,366875.1999999881,7172,WL,B,5.0
3,7.480000019073486,learn,52519.999980926514,Tue Jun 17 2025 16:14:42 GMT-0500 (Central Daylight Time),367741.1999999881,A,wif,O,f,125,1,866.0,366875.1999999881,7172,WL,B,5.0
3,7.680000066757202,learn,52319.9999332428,Tue Jun 17 2025 16:14:42 GMT-0500 (Central Daylight Time),367941.3000000119,A,wife,O,e,180,1,1066.1000000238419,366875.1999999881,7172,WL,B,5.0
3,7.863999843597412,learn,52136.00015640259,Tue Jun 17 2025 16:14:42 GMT-0500 (Central Daylight Time),368124.5,A,wifeenter,O,enter,173,1,1249.300000011921,366875.1999999881,7172,WL,B,5.0
3,9.646999835968018,learn,50353.00016403198,Tue Jun 17 2025 16:14:42 GMT-0500 (Central Daylight Time),369908.0,A,s,O,s,1777,1,1783.199999988079,368124.8000000119,7172,WL,B,6.0
3,9.79699993133545,learn,50203.00006866455,Tue Jun 17 2025 16:14:42 GMT-0500 (Central Daylight Time),370058.09999996424,A,st,O,t,109,1,1933.2999999523163,368124.8000000119,7172,WL,B,6.0
3,9.930000066757202,learn,50069.9999332428,Tue Jun 17 2025 16:14:42 GMT-0500 (Central Daylight Time),370191.09999996424,A,sta,O,a,96,1,2066.2999999523163,368124.8000000119,7172,WL,B,6.0
3,10.013000011444092,learn,49986.99998855591,Tue Jun 17 2025 16:14:42 GMT-0500 (Central Daylight Time),370274.3000000119,A,star,O,r,59,1,2149.5,368124.8000000119,7172,WL,B,6.0
3,10.246000051498413,learn,49753.99994850159,Tue Jun 17 2025 16:14:42 GMT-0500 (Central Daylight Time),370507.0,A,starenter,O,enter,212,1,2382.199999988079,368124.8000000119,7172,WL,B,6.0
3,11.129999876022339,learn,48870.00012397766,Tue Jun 17 2025 16:14:42 GMT-0500 (Central Daylight Time),371391.0,A,s,O,s,866,1,883.6999999880791,370507.3000000119,7172,WL,B,7.0
3,11.247999906539917,learn,48752.00009346008,Tue Jun 17 2025 16:14:42 GMT-0500 (Central Daylight Time),371508.59999996424,A,sk,O,k,91,1,1001.2999999523163,370507.3000000119,7172,WL,B,7.0
3,11.430000066757202,learn,48569.9999332428,Tue Jun 17 2025 16:14:42 GMT-0500 (Central Daylight Time),371691.09999996424,A,ski,O,i,150,1,1183.7999999523163,370507.3000000119,7172,WL,B,7.0
3,11.546000003814697,learn,48453.9999961853,Tue Jun 17 2025 16:14:42 GMT-0500 (Central Daylight Time),371807.39999997616,A,skin,O,n,85,1,1300.0999999642372,370507.3000000119,7172,WL,B,7.0
3,11.76199984550476,learn,48238.00015449524,Tue Jun 17 2025 16:14:42 GMT-0500 (Central Daylight Time),372023.0,A,skinenter,O,enter,180,1,1515.699999988079,370507.3000000119,7172,WL,B,7.0
3,12.145999908447266,learn,47854.000091552734,Tue Jun 17 2025 16:14:42 GMT-0500 (Central Daylight Time),372407.1999999881,A,f,O,f,374,1,383.89999997615814,372023.3000000119,7172,WL,B,8.0
3,12.26199984550476,learn,47738.00015449524,Tue Jun 17 2025 16:14:42 GMT-0500 (Central Daylight Time),372523.5,A,fi,O,i,80,1,500.19999998807907,372023.3000000119,7172,WL,B,8.0
3,12.44599986076355,learn,47554.00013923645,Tue Jun 17 2025 16:14:42 GMT-0500 (Central Daylight Time),372707.3000000119,A,fir,O,r,161,1,684.0,372023.3000000119,7172,WL,B,8.0
3,12.579999923706055,learn,47420.000076293945,Tue Jun 17 2025 16:14:42 GMT-0500 (Central Daylight Time),372840.6999999881,A,fire,O,e,95,1,817.3999999761581,372023.3000000119,7172,WL,B,8.0
3,12.744999885559082,learn,47255.00011444092,Tue Jun 17 2025 16:14:42 GMT-0500 (Central Daylight Time),373006.1999999881,A,fireenter,O,enter,136,1,982.8999999761581,372023.3000000119,7172,WL,B,8.0
3,20.460000038146973,learn,39539.99996185303,Tue Jun 17 2025 16:14:42 GMT-0500 (Central Daylight Time),380721.39999997616,A,s,O,s,7695,1,7714.899999976158,373006.5,7172,WL,B,9.0
3,20.575999975204468,learn,39424.00002479553,Tue Jun 17 2025 16:14:42 GMT-0500 (Central Daylight Time),380837.09999996424,A,sk,O,k,88,1,7830.599999964237,373006.5,7172,WL,B,9.0
3,20.759999990463257,learn,39240.00000953674,Tue Jun 17 2025 16:14:42 GMT-0500 (Central Daylight Time),381021.09999996424,A,ski,O,i,169,1,8014.599999964237,373006.5,7172,WL,B,9.0
3,20.90999984741211,learn,39090.00015258789,Tue Jun 17 2025 16:14:42 GMT-0500 (Central Daylight Time),381170.8000000119,A,skin,O,n,117,1,8164.300000011921,373006.5,7172,WL,B,9.0
3,21.125999927520752,learn,38874.00007247925,Tue Jun 17 2025 16:14:42 GMT-0500 (Central Daylight Time),381386.8000000119,A,skinenter,O,enter,187,1,8380.300000011921,373006.5,7172,WL,B,9.0
3,21.376999855041504,learn,38623.000144958496,Tue Jun 17 2025 16:14:42 GMT-0500 (Central Daylight Time),381637.8000000119,A,f,O,f,242,1,250.70000004768372,381387.09999996424,7172,WL,B,10.0
3,21.493000030517578,learn,38506.99996948242,Tue Jun 17 2025 16:14:42 GMT-0500 (Central Daylight Time),381753.6999999881,A,fi,O,i,84,1,366.60000002384186,381387.09999996424,7172,WL,B,10.0
3,21.70899987220764,learn,38291.00012779236,Tue Jun 17 2025 16:14:42 GMT-0500 (Central Daylight Time),381970.39999997616,A,fir,O,r,203,1,583.3000000119209,381387.09999996424,7172,WL,B,10.0
3,21.859999895095825,learn,38140.000104904175,Tue Jun 17 2025 16:14:42 GMT-0500 (Central Daylight Time),382121.1999999881,A,fire,O,e,132,1,734.1000000238419,381387.09999996424,7172,WL,B,10.0
3,22.024999856948853,learn,37975.00014305115,Tue Jun 17 2025 16:14:42 GMT-0500 (Central Daylight Time),382286.39999997616,A,fireenter,O,enter,134,1,899.3000000119209,381387.09999996424,7172,WL,B,10.0
3,24.875,learn,35125.0,Tue Jun 17 2025 16:14:42 GMT-0500 (Central Daylight Time),385136.09999996424,A,p,O,p,2829,1,2849.5,382286.59999996424,7172,WL,B,11.0
3,25.092000007629395,learn,34907.999992370605,Tue Jun 17 2025 16:14:42 GMT-0500 (Central Daylight Time),385353.3000000119,A,pi,O,i,182,1,3066.7000000476837,382286.59999996424,7172,WL,B,11.0
3,25.257999897003174,learn,34742.000102996826,Tue Jun 17 2025 16:14:42 GMT-0500 (Central Daylight Time),385519.5,A,pip,O,p,136,1,3232.900000035763,382286.59999996424,7172,WL,B,11.0
3,25.424999952316284,learn,34575.000047683716,Tue Jun 17 2025 16:14:42 GMT-0500 (Central Daylight Time),385686.1999999881,A,pipe,O,e,137,1,3399.600000023842,382286.59999996424,7172,WL,B,11.0
3,25.60800004005432,learn,34391.99995994568,Tue Jun 17 2025 16:14:42 GMT-0500 (Central Daylight Time),385868.6999999881,A,pipeenter,O,enter,152,1,3582.100000023842,382286.59999996424,7172,WL,B,11.0
3,26.075000047683716,learn,33924.999952316284,Tue Jun 17 2025 16:14:42 GMT-0500 (Central Daylight Time),386336.1999999881,A,p,O,p,448,1,467.30000001192093,385868.89999997616,7172,WL,B,12.0
3,26.45799994468689,learn,33542.00005531311,Tue Jun 17 2025 16:14:42 GMT-0500 (Central Daylight Time),386719.1999999881,A,pu,O,u,356,1,850.3000000119209,385868.89999997616,7172,WL,B,12.0
3,26.691999912261963,learn,33308.00008773804,Tue Jun 17 2025 16:14:42 GMT-0500 (Central Daylight Time),386952.59999996424,A,pup,O,p,195,1,1083.699999988079,385868.89999997616,7172,WL,B,12.0
3,26.94099998474121,learn,33059.00001525879,Tue Jun 17 2025 16:14:42 GMT-0500 (Central Daylight Time),387202.1999999881,A,pupi,O,i,225,1,1333.300000011921,385868.89999997616,7172,WL,B,12.0
3,27.158999919891357,learn,32841.00008010864,Tue Jun 17 2025 16:14:42 GMT-0500 (Central Daylight Time),387419.8000000119,A,pupil,O,l,192,1,1550.9000000357628,385868.89999997616,7172,WL,B,12.0
3,27.407000064849854,learn,32592.999935150146,Tue Jun 17 2025 16:14:42 GMT-0500 (Central Daylight Time),387668.0,A,pupilenter,O,enter,224,1,1799.1000000238419,385868.89999997616,7172,WL,B,12.0
3,30.073999881744385,learn,29926.000118255615,Tue Jun 17 2025 16:14:42 GMT-0500 (Central Daylight Time),390334.59999996424,A,l,O,l,2657,1,2666.2999999523163,387668.3000000119,7172,WL,B,13.0
3,30.1729998588562,learn,29827.0001411438,Tue Jun 17 2025 16:14:42 GMT-0500 (Central Daylight Time),390434.09999996424,A,la,O,a,65,1,2765.7999999523163,387668.3000000119,7172,WL,B,13.0
3,30.33999991416931,learn,29660.00008583069,Tue Jun 17 2025 16:14:42 GMT-0500 (Central Daylight Time),390601.0,A,lak,O,k,137,1,2932.699999988079,387668.3000000119,7172,WL,B,13.0
3,30.457000017166138,learn,29542.999982833862,Tue Jun 17 2025 16:14:42 GMT-0500 (Central Daylight Time),390717.6999999881,A,lake,O,e,96,1,3049.399999976158,387668.3000000119,7172,WL,B,13.0
3,30.622999906539917,learn,29377.000093460083,Tue Jun 17 2025 16:14:42 GMT-0500 (Central Daylight Time),390883.59999996424,A,lakeenter,O,enter,142,1,3215.2999999523163,387668.3000000119,7172,WL,B,13.0
3,30.889999866485596,learn,29110.000133514404,Tue Jun 17 2025 16:14:42 GMT-0500 (Central Daylight Time),391151.1999999881,A,c,O,c,257,1,267.39999997615814,390883.8000000119,7172,WL,B,14.0
3,31.139999866485596,learn,28860.000133514404,Tue Jun 17 2025 16:14:42 GMT-0500 (Central Daylight Time),391400.89999997616,A,ca,O,a,208,1,517.0999999642372,390883.8000000119,7172,WL,B,14.0
3,31.35599994659424,learn,28644.00005340576,Tue Jun 17 2025 16:14:42 GMT-0500 (Central Daylight Time),391617.39999997616,A,cab,O,b,183,1,733.5999999642372,390883.8000000119,7172,WL,B,14.0
3,31.473000049591064,learn,28526.999950408936,Tue Jun 17 2025 16:14:42 GMT-0500 (Central Daylight Time),391734.39999997616,A,cabi,O,i,91,1,850.5999999642372,390883.8000000119,7172,WL,B,14.0
3,31.572999954223633,learn,28427.000045776367,Tue Jun 17 2025 16:14:42 GMT-0500 (Central Daylight Time),391833.8000000119,A,cabin,O,n,59,1,950.0,390883.8000000119,7172,WL,B,14.0
3,31.83899998664856,learn,28161.00001335144,Tue Jun 17 2025 16:14:42 GMT-0500 (Central Daylight Time),392099.89999997616,A,cabinenter,O,enter,239,1,1216.0999999642372,390883.8000000119,7172,WL,B,14.0
3,34.82299995422363,learn,25177.000045776367,Tue Jun 17 2025 16:14:42 GMT-0500 (Central Daylight Time),395083.8000000119,A,a,O,a,2977,1,2983.600000023842,392100.1999999881,7172,WL,B,15.0
3,34.937999963760376,learn,25062.000036239624,Tue Jun 17 2025 16:14:42 GMT-0500 (Central Daylight Time),395199.39999997616,A,ar,O,r,77,1,3099.199999988079,392100.1999999881,7172,WL,B,15.0
3,35.07200002670288,learn,24927.99997329712,Tue Jun 17 2025 16:14:42 GMT-0500 (Central Daylight Time),395333.09999996424,A,arm,O,m,105,1,3232.899999976158,392100.1999999881,7172,WL,B,15.0
3,35.270999908447266,learn,24729.000091552734,Tue Jun 17 2025 16:14:42 GMT-0500 (Central Daylight Time),395532.1999999881,A,armenter,O,enter,164,1,3432.0,392100.1999999881,7172,WL,B,15.0
4,1.8329999446868896,learn,58167.00005531311,Tue Jun 17 2025 16:14:42 GMT-0500 (Central Daylight Time),470774.59999996424,A,s,O,s,1808,1,1832.0999999642372,468942.5,7172,WL,B,1.0
4,2.0329999923706055,learn,57967.000007629395,Tue Jun 17 2025 16:14:42 GMT-0500 (Central Daylight Time),470975.0,A,st,O,t,162,1,2032.5,468942.5,7172,WL,B,1.0
4,2.2330000400543213,learn,57766.99995994568,Tue Jun 17 2025 16:14:42 GMT-0500 (Central Daylight Time),471174.5,A,str,O,r,169,1,2232.0,468942.5,7172,WL,B,1.0
4,2.315999984741211,learn,57684.00001525879,Tue Jun 17 2025 16:14:42 GMT-0500 (Central Daylight Time),471257.3000000119,A,stre,O,e,47,1,2314.800000011921,468942.5,7172,WL,B,1.0
4,2.549999952316284,learn,57450.000047683716,Tue Jun 17 2025 16:14:42 GMT-0500 (Central Daylight Time),471491.3000000119,A,stree,O,e,220,1,2548.800000011921,468942.5,7172,WL,B,1.0
4,2.7330000400543213,learn,57266.99995994568,Tue Jun 17 2025 16:14:42 GMT-0500 (Central Daylight Time),471674.8000000119,A,street,O,t,152,1,2732.300000011921,468942.5,7172,WL,B,1.0
4,2.9489998817443848,learn,57051.000118255615,Tue Jun 17 2025 16:14:42 GMT-0500 (Central Daylight Time),471890.3000000119,A,streetenter,O,enter,190,1,2947.800000011921,468942.5,7172,WL,B,1.0
4,3.2330000400543213,learn,56766.99995994568,Tue Jun 17 2025 16:14:42 GMT-0500 (Central Daylight Time),472174.59999996424,A,g,O,g,267,1,284.19999998807907,471890.39999997616,7172,WL,B,2.0
4,3.432999849319458,learn,56567.00015068054,Tue Jun 17 2025 16:14:42 GMT-0500 (Central Daylight Time),472374.5,A,gr,O,r,164,1,484.10000002384186,471890.39999997616,7172,WL,B,2.0
4,3.549999952316284,learn,56450.000047683716,Tue Jun 17 2025 16:14:42 GMT-0500 (Central Daylight Time),472491.59999996424,A,gra,O,a,92,1,601.1999999880791,471890.39999997616,7172,WL,B,2.0
4,3.7829999923706055,learn,56217.000007629395,Tue Jun 17 2025 16:14:42 GMT-0500 (Central Daylight Time),472724.1999999881,A,gras,O,s,198,1,833.8000000119209,471890.39999997616,7172,WL,B,2.0
4,3.9659998416900635,learn,56034.00015830994,Tue Jun 17 2025 16:14:42 GMT-0500 (Central Daylight Time),472907.89999997616,A,grass,O,s,148,1,1017.5,471890.39999997616,7172,WL,B,2.0
4,4.164999961853027,learn,55835.00003814697,Tue Jun 17 2025 16:14:42 GMT-0500 (Central Daylight Time),473106.59999996424,A,grassenter,O,enter,164,1,1216.199999988079,471890.39999997616,7172,WL,B,2.0
4,5.266000032424927,learn,54733.99996757507,Tue Jun 17 2025 16:14:42 GMT-0500 (Central Daylight Time),474207.3000000119,A,w,O,w,1091,1,1100.4000000357628,473106.89999997616,7172,WL,B,3.0
4,5.365000009536743,learn,54634.99999046326,Tue Jun 17 2025 16:14:42 GMT-0500 (Central Daylight Time),474306.8000000119,A,wi,O,i,68,1,1199.9000000357628,473106.89999997616,7172,WL,B,3.0
4,5.516000032424927,learn,54483.99996757507,Tue Jun 17 2025 16:14:42 GMT-0500 (Central Daylight Time),474457.09999996424,A,win,O,n,118,1,1350.199999988079,473106.89999997616,7172,WL,B,3.0
4,5.631999969482422,learn,54368.00003051758,Tue Jun 17 2025 16:14:42 GMT-0500 (Central Daylight Time),474573.8000000119,A,wind,O,d,88,1,1466.9000000357628,473106.89999997616,7172,WL,B,3.0
4,5.749000072479248,learn,54250.99992752075,Tue Jun 17 2025 16:14:42 GMT-0500 (Central Daylight Time),474690.1999999881,A,windo,O,o,89,1,1583.300000011921,473106.89999997616,7172,WL,B,3.0
4,5.881999969482422,learn,54118.00003051758,Tue Jun 17 2025 16:14:42 GMT-0500 (Central Daylight Time),474823.59999996424,A,window,O,w,102,1,1716.699999988079,473106.89999997616,7172,WL,B,3.0
4,6.414000034332275,learn,53585.999965667725,Tue Jun 17 2025 16:14:42 GMT-0500 (Central Daylight Time),475355.89999997616,A,windowenter,O,enter,496,1,2249.0,473106.89999997616,7172,WL,B,3.0
4,7.2820000648498535,learn,52717.99993515015,Tue Jun 17 2025 16:14:42 GMT-0500 (Central Daylight Time),476223.1999999881,A,a,O,a,857,1,867.0,475356.1999999881,7172,WL,B,4.0
4,7.398000001907349,learn,52601.99999809265,Tue Jun 17 2025 16:14:42 GMT-0500 (Central Daylight Time),476339.8000000119,A,ar,O,r,82,1,983.6000000238419,475356.1999999881,7172,WL,B,4.0
4,7.582000017166138,learn,52417.99998283386,Tue Jun 17 2025 16:14:42 GMT-0500 (Central Daylight Time),476523.1999999881,A,arm,O,m,145,1,1167.0,475356.1999999881,7172,WL,B,4.0
4,7.947000026702881,learn,52052.99997329712,Tue Jun 17 2025 16:14:42 GMT-0500 (Central Daylight Time),476888.6999999881,A,armenter,O,enter,325,1,1532.5,475356.1999999881,7172,WL,B,4.0
4,8.565000057220459,learn,51434.99994277954,Tue Jun 17 2025 16:14:42 GMT-0500 (Central Daylight Time),477506.1999999881,A,p,O,p,596,1,617.3000000119209,476888.89999997616,7172,WL,B,5.0
4,8.714999914169312,learn,51285.00008583069,Tue Jun 17 2025 16:14:42 GMT-0500 (Central Daylight Time),477656.1999999881,A,pi,O,i,121,1,767.3000000119209,476888.89999997616,7172,WL,B,5.0
4,8.848000049591064,learn,51151.999950408936,Tue Jun 17 2025 16:14:42 GMT-0500 (Central Daylight Time),477789.1999999881,A,pip,O,p,107,1,900.3000000119209,476888.89999997616,7172,WL,B,5.0
4,9.04699993133545,learn,50953.00006866455,Tue Jun 17 2025 16:14:42 GMT-0500 (Central Daylight Time),477989.09999996424,A,pipe,O,e,172,1,1100.199999988079,476888.89999997616,7172,WL,B,5.0
4,9.21399998664856,learn,50786.00001335144,Tue Jun 17 2025 16:14:42 GMT-0500 (Central Daylight Time),478155.89999997616,A,pipeenter,O,enter,139,1,1267.0,476888.89999997616,7172,WL,B,5.0
4,9.563999891281128,learn,50436.00010871887,Tue Jun 17 2025 16:14:42 GMT-0500 (Central Daylight Time),478505.89999997616,A,p,O,p,328,1,349.69999998807907,478156.1999999881,7172,WL,B,6.0
4,9.697999954223633,learn,50302.00004577637,Tue Jun 17 2025 16:14:42 GMT-0500 (Central Daylight Time),478639.1999999881,A,pu,O,u,104,1,483.0,478156.1999999881,7172,WL,B,6.0
4,10.146999835968018,learn,49853.00016403198,Tue Jun 17 2025 16:14:42 GMT-0500 (Central Daylight Time),479089.09999996424,A,pup,O,p,411,1,932.8999999761581,478156.1999999881,7172,WL,B,6.0
4,10.38100004196167,learn,49618.99995803833,Tue Jun 17 2025 16:14:42 GMT-0500 (Central Daylight Time),479322.09999996424,A,pupi,O,i,193,1,1165.8999999761581,478156.1999999881,7172,WL,B,6.0
4,10.580999851226807,learn,49419.00014877319,Tue Jun 17 2025 16:14:42 GMT-0500 (Central Daylight Time),479522.1999999881,A,pupil,O,l,168,1,1366.0,478156.1999999881,7172,WL,B,6.0
4,10.829999923706055,learn,49170.000076293945,Tue Jun 17 2025 16:14:42 GMT-0500 (Central Daylight Time),479771.09999996424,A,pupilenter,O,enter,223,1,1614.8999999761581,478156.1999999881,7172,WL,B,6.0
4,11.113999843597412,learn,48886.00015640259,Tue Jun 17 2025 16:14:42 GMT-0500 (Central Daylight Time),480055.39999997616,A,l,O,l,274,1,284.0,479771.39999997616,7172,WL,B,7.0
4,11.230999946594238,learn,48769.00005340576,Tue Jun 17 2025 16:14:42 GMT-0500 (Central Daylight Time),480171.89999997616,A,la,O,a,91,1,400.5,479771.39999997616,7172,WL,B,7.0
4,11.38100004196167,learn,48618.99995803833,Tue Jun 17 2025 16:14:42 GMT-0500 (Central Daylight Time),480322.3000000119,A,lak,O,k,109,1,550.9000000357628,479771.39999997616,7172,WL,B,7.0
4,11.530999898910522,learn,48469.00010108948,Tue Jun 17 2025 16:14:42 GMT-0500 (Central Daylight Time),480471.89999997616,A,lake,O,e,112,1,700.5,479771.39999997616,7172,WL,B,7.0
4,11.829999923706055,learn,48170.000076293945,Tue Jun 17 2025 16:14:42 GMT-0500 (Central Daylight Time),480770.8000000119,A,lakeenter,O,enter,264,1,999.4000000357628,479771.39999997616,7172,WL,B,7.0
4,13.329999923706055,learn,46670.000076293945,Tue Jun 17 2025 16:14:42 GMT-0500 (Central Daylight Time),482271.09999996424,A,c,O,c,1482,1,1500.0,480771.09999996424,7172,WL,B,8.0
4,13.496000051498413,learn,46503.99994850159,Tue Jun 17 2025 16:14:42 GMT-0500 (Central Daylight Time),482437.6999999881,A,ca,O,a,131,1,1666.6000000238419,480771.09999996424,7172,WL,B,8.0
4,13.680000066757202,learn,46319.9999332428,Tue Jun 17 2025 16:14:42 GMT-0500 (Central Daylight Time),482621.1999999881,A,cab,O,b,156,1,1850.1000000238419,480771.09999996424,7172,WL,B,8.0
4,13.779000043869019,learn,46220.99995613098,Tue Jun 17 2025 16:14:42 GMT-0500 (Central Daylight Time),482720.5,A,cabi,O,i,58,1,1949.4000000357628,480771.09999996424,7172,WL,B,8.0
4,13.895999908447266,learn,46104.000091552734,Tue Jun 17 2025 16:14:42 GMT-0500 (Central Daylight Time),482837.39999997616,A,cabin,O,n,92,1,2066.300000011921,480771.09999996424,7172,WL,B,8.0
4,14.145999908447266,learn,45854.000091552734,Tue Jun 17 2025 16:14:42 GMT-0500 (Central Daylight Time),483086.6999999881,A,cabinenter,O,enter,226,1,2315.600000023842,480771.09999996424,7172,WL,B,8.0
4,14.730000019073486,learn,45269.999980926514,Tue Jun 17 2025 16:14:42 GMT-0500 (Central Daylight Time),483670.89999997616,A,s,O,s,574,1,583.8000000119209,483087.09999996424,7172,WL,B,9.0
4,14.879999876022339,learn,45120.00012397766,Tue Jun 17 2025 16:14:42 GMT-0500 (Central Daylight Time),483820.8000000119,A,st,O,t,114,1,733.7000000476837,483087.09999996424,7172,WL,B,9.0
4,15.013000011444092,learn,44986.99998855591,Tue Jun 17 2025 16:14:42 GMT-0500 (Central Daylight Time),483953.8000000119,A,sta,O,a,101,1,866.7000000476837,483087.09999996424,7172,WL,B,9.0
4,15.11299991607666,learn,44887.00008392334,Tue Jun 17 2025 16:14:42 GMT-0500 (Central Daylight Time),484054.09999996424,A,star,O,r,72,1,967.0,483087.09999996424,7172,WL,B,9.0
4,15.294999837875366,learn,44705.000162124634,Tue Jun 17 2025 16:14:42 GMT-0500 (Central Daylight Time),484236.3000000119,A,starenter,O,enter,161,1,1149.2000000476837,483087.09999996424,7172,WL,B,9.0
4,15.562999963760376,learn,44437.000036239624,Tue Jun 17 2025 16:14:42 GMT-0500 (Central Daylight Time),484503.6999999881,A,a,O,a,257,1,267.19999998807907,484236.5,7172,WL,B,10.0
4,15.661999940872192,learn,44338.00005912781,Tue Jun 17 2025 16:14:42 GMT-0500 (Central Daylight Time),484603.3000000119,A,ar,O,r,66,1,366.80000001192093,484236.5,7172,WL,B,10.0
4,15.828999996185303,learn,44171.0000038147,Tue Jun 17 2025 16:14:42 GMT-0500 (Central Daylight Time),484770.5,A,arm,O,m,145,1,534.0,484236.5,7172,WL,B,10.0
4,16.246000051498413,learn,43753.99994850159,Tue Jun 17 2025 16:14:42 GMT-0500 (Central Daylight Time),485187.09999996424,A,armenter,O,enter,393,1,950.5999999642372,484236.5,7172,WL,B,10.0
4,19.027999877929688,learn,40972.00012207031,Tue Jun 17 2025 16:14:42 GMT-0500 (Central Daylight Time),487969.39999997616,A,w,O,w,2769,1,2782.0,485187.39999997616,7172,WL,B,11.0
4,19.128000020980835,learn,40871.999979019165,Tue Jun 17 2025 16:14:42 GMT-0500 (Central Daylight Time),488069.39999997616,A,wi,O,i,71,1,2882.0,485187.39999997616,7172,WL,B,11.0
4,19.277999877929688,learn,40722.00012207031,Tue Jun 17 2025 16:14:42 GMT-0500 (Central Daylight Time),488219.3000000119,A,win,O,n,112,1,3031.900000035763,485187.39999997616,7172,WL,B,11.0
4,19.40999984741211,learn,40590.00015258789,Tue Jun 17 2025 16:14:42 GMT-0500 (Central Daylight Time),488351.59999996424,A,wind,O,d,95,1,3164.199999988079,485187.39999997616,7172,WL,B,11.0
4,19.509999990463257,learn,40490.00000953674,Tue Jun 17 2025 16:14:42 GMT-0500 (Central Daylight Time),488451.39999997616,A,windo,O,o,82,1,3264.0,485187.39999997616,7172,WL,B,11.0
4,19.5939998626709,learn,40406.0001373291,Tue Jun 17 2025 16:14:42 GMT-0500 (Central Daylight Time),488534.8000000119,A,window,O,w,70,1,3347.400000035763,485187.39999997616,7172,WL,B,11.0
4,19.80999994277954,learn,40190.00005722046,Tue Jun 17 2025 16:14:42 GMT-0500 (Central Daylight Time),488751.59999996424,A,windowenter,O,enter,196,1,3564.199999988079,485187.39999997616,7172,WL,B,11.0
4,20.89400005340576,learn,39105.99994659424,Tue Jun 17 2025 16:14:42 GMT-0500 (Central Daylight Time),489835.5,A,w,O,w,1061,1,1083.6000000238419,488751.89999997616,7172,WL,B,12.0
4,20.99399995803833,learn,39006.00004196167,Tue Jun 17 2025 16:14:42 GMT-0500 (Central Daylight Time),489935.5,A,wi,O,i,63,1,1183.6000000238419,488751.89999997616,7172,WL,B,12.0
4,21.14400005340576,learn,38855.99994659424,Tue Jun 17 2025 16:14:42 GMT-0500 (Central Daylight Time),490084.8000000119,A,wif,O,f,114,1,1332.9000000357628,488751.89999997616,7172,WL,B,12.0
4,21.30999994277954,learn,38690.00005722046,Tue Jun 17 2025 16:14:42 GMT-0500 (Central Daylight Time),490250.89999997616,A,wife,O,e,151,1,1499.0,488751.89999997616,7172,WL,B,12.0
4,21.477999925613403,learn,38522.0000743866,Tue Jun 17 2025 16:14:42 GMT-0500 (Central Daylight Time),490418.89999997616,A,wifeenter,O,enter,140,1,1667.0,488751.89999997616,7172,WL,B,12.0
4,21.99399995803833,learn,38006.00004196167,Tue Jun 17 2025 16:14:42 GMT-0500 (Central Daylight Time),490934.8000000119,A,c,O,c,506,1,515.6000000238419,490419.1999999881,7172,WL,B,13.0
4,22.092999935150146,learn,37907.00006484985,Tue Jun 17 2025 16:14:42 GMT-0500 (Central Daylight Time),491034.59999996424,A,ci,O,i,75,1,615.3999999761581,490419.1999999881,7172,WL,B,13.0
4,22.22699999809265,learn,37773.00000190735,Tue Jun 17 2025 16:14:42 GMT-0500 (Central Daylight Time),491168.3000000119,A,cit,O,t,115,1,749.1000000238419,490419.1999999881,7172,WL,B,13.0
4,22.359999895095825,learn,37640.000104904175,Tue Jun 17 2025 16:14:42 GMT-0500 (Central Daylight Time),491301.39999997616,A,city,O,y,104,1,882.1999999880791,490419.1999999881,7172,WL,B,13.0
4,22.64299988746643,learn,37357.00011253357,Tue Jun 17 2025 16:14:42 GMT-0500 (Central Daylight Time),491583.8000000119,A,cityenter,O,enter,250,1,1164.6000000238419,490419.1999999881,7172,WL,B,13.0
4,60.013999938964844,learn,-13.99993896484375,Tue Jun 17 2025 16:14:42 GMT-0500 (Central Daylight Time),528955.0,A,None,O,None,37365,1,37370.80000001192,491584.1999999881,7172,WL,B,14.0
5,3.5829999446868896,learn,60000.0,Tue Jun 17 2025 16:14:42 GMT-0500 (Central Daylight Time),601632.6999999881,A,s,O,s,3557,1,3582.399999976158,598050.3000000119,7172,WL,B,1.0
5,3.749000072479248,learn,60000.0,Tue Jun 17 2025 16:14:42 GMT-0500 (Central Daylight Time),601798.0,A,st,O,t,135,1,3747.699999988079,598050.3000000119,7172,WL,B,1.0
5,3.9819998741149902,learn,60000.0,Tue Jun 17 2025 16:14:42 GMT-0500 (Central Daylight Time),602031.8999999762,A,str,O,r,207,1,3981.599999964237,598050.3000000119,7172,WL,B,1.0
5,4.098999977111816,learn,60000.0,Tue Jun 17 2025 16:14:42 GMT-0500 (Central Daylight Time),602148.5999999642,A,stre,O,e,83,1,4098.299999952316,598050.3000000119,7172,WL,B,1.0
5,4.315999984741211,learn,60000.0,Tue Jun 17 2025 16:14:42 GMT-0500 (Central Daylight Time),602365.0,A,stree,O,e,181,1,4314.699999988079,598050.3000000119,7172,WL,B,1.0
5,4.430999994277954,learn,60000.0,Tue Jun 17 2025 16:14:42 GMT-0500 (Central Daylight Time),602480.8000000119,A,street,O,t,83,1,4430.5,598050.3000000119,7172,WL,B,1.0
5,4.664999961853027,learn,60000.0,Tue Jun 17 2025 16:14:42 GMT-0500 (Central Daylight Time),602714.0,A,streetenter,O,enter,205,1,4663.699999988079,598050.3000000119,7172,WL,B,1.0
5,6.015000104904175,learn,60000.0,Tue Jun 17 2025 16:14:42 GMT-0500 (Central Daylight Time),604063.8999999762,A,g,O,g,1330,1,1349.5999999642372,602714.3000000119,7172,WL,B,2.0
5,6.197000026702881,learn,60000.0,Tue Jun 17 2025 16:14:42 GMT-0500 (Central Daylight Time),604246.8000000119,A,gr,O,r,169,1,1532.5,602714.3000000119,7172,WL,B,2.0
5,6.3480000495910645,learn,60000.0,Tue Jun 17 2025 16:14:42 GMT-0500 (Central Daylight Time),604396.8999999762,A,gra,O,a,132,1,1682.5999999642372,602714.3000000119,7172,WL,B,2.0
5,6.563999891281128,learn,60000.0,Tue Jun 17 2025 16:14:42 GMT-0500 (Central Daylight Time),604613.5,A,gras,O,s,197,1,1899.199999988079,602714.3000000119,7172,WL,B,2.0
5,6.730999946594238,learn,60000.0,Tue Jun 17 2025 16:14:42 GMT-0500 (Central Daylight Time),604780.0,A,grass,O,s,158,1,2065.699999988079,602714.3000000119,7172,WL,B,2.0
5,6.88100004196167,learn,60000.0,Tue Jun 17 2025 16:14:42 GMT-0500 (Central Daylight Time),604930.0,A,grassenter,O,enter,136,1,2215.699999988079,602714.3000000119,7172,WL,B,2.0
5,7.263999938964844,learn,60000.0,Tue Jun 17 2025 16:14:42 GMT-0500 (Central Daylight Time),605313.0,A,d,O,d,369,1,382.80000001192093,604930.1999999881,7172,WL,B,3.0
5,7.397000074386597,learn,60000.0,Tue Jun 17 2025 16:14:42 GMT-0500 (Central Daylight Time),605446.8000000119,A,do,O,o,113,1,516.6000000238419,604930.1999999881,7172,WL,B,3.0
5,7.54800009727478,learn,60000.0,Tue Jun 17 2025 16:14:42 GMT-0500 (Central Daylight Time),605597.0,A,doo,O,o,137,1,666.8000000119209,604930.1999999881,7172,WL,B,3.0
5,7.680999994277954,learn,60000.0,Tue Jun 17 2025 16:14:42 GMT-0500 (Central Daylight Time),605730.3999999762,A,door,O,r,117,1,800.1999999880791,604930.1999999881,7172,WL,B,3.0
5,8.02999997138977,learn,60000.0,Tue Jun 17 2025 16:14:42 GMT-0500 (Central Daylight Time),606079.6999999881,A,doorenter,O,enter,316,1,1149.5,604930.1999999881,7172,WL,B,3.0
5,8.364000082015991,learn,60000.0,Tue Jun 17 2025 16:14:42 GMT-0500 (Central Daylight Time),606414.0999999642,A,a,O,a,317,1,334.19999998807907,606079.8999999762,7172,WL,B,4.0
5,8.581000089645386,learn,60000.0,Tue Jun 17 2025 16:14:42 GMT-0500 (Central Daylight Time),606630.3000000119,A,ar,O,r,181,1,550.4000000357628,606079.8999999762,7172,WL,B,4.0
5,8.71399998664856,learn,60000.0,Tue Jun 17 2025 16:14:42 GMT-0500 (Central Daylight Time),606763.0,A,arm,O,m,103,1,683.1000000238419,606079.8999999762,7172,WL,B,4.0
5,8.996999979019165,learn,60000.0,Tue Jun 17 2025 16:14:42 GMT-0500 (Central Daylight Time),607046.0999999642,A,armenter,O,enter,248,1,966.1999999880791,606079.8999999762,7172,WL,B,4.0
5,9.346999883651733,learn,60000.0,Tue Jun 17 2025 16:14:42 GMT-0500 (Central Daylight Time),607396.1999999881,A,w,O,w,342,1,349.89999997615814,607046.3000000119,7172,WL,B,5.0
5,9.447999954223633,learn,60000.0,Tue Jun 17 2025 16:14:42 GMT-0500 (Central Daylight Time),607497.1999999881,A,wi,O,i,68,1,450.89999997615814,607046.3000000119,7172,WL,B,5.0
5,9.614000082015991,learn,60000.0,Tue Jun 17 2025 16:14:42 GMT-0500 (Central Daylight Time),607663.1999999881,A,win,O,n,131,1,616.8999999761581,607046.3000000119,7172,WL,B,5.0
5,9.730000019073486,learn,60000.0,Tue Jun 17 2025 16:14:42 GMT-0500 (Central Daylight Time),607779.0999999642,A,wind,O,d,82,1,732.7999999523163,607046.3000000119,7172,WL,B,5.0
5,9.829999923706055,learn,60000.0,Tue Jun 17 2025 16:14:42 GMT-0500 (Central Daylight Time),607879.8999999762,A,windo,O,o,80,1,833.5999999642372,607046.3000000119,7172,WL,B,5.0
5,9.946000099182129,learn,60000.0,Tue Jun 17 2025 16:14:42 GMT-0500 (Central Daylight Time),607995.5999999642,A,window,O,w,89,1,949.2999999523163,607046.3000000119,7172,WL,B,5.0
5,10.145999908447266,learn,60000.0,Tue Jun 17 2025 16:14:42 GMT-0500 (Central Daylight Time),608195.5999999642,A,windowenter,O,enter,182,1,1149.2999999523163,607046.3000000119,7172,WL,B,5.0
5,10.36299991607666,learn,60000.0,Tue Jun 17 2025 16:14:42 GMT-0500 (Central Daylight Time),608412.5999999642,A,w,O,w,208,1,216.69999998807907,608195.8999999762,7172,WL,B,6.0
5,10.496999979019165,learn,60000.0,Tue Jun 17 2025 16:14:42 GMT-0500 (Central Daylight Time),608546.3999999762,A,wi,O,i,104,1,350.5,608195.8999999762,7172,WL,B,6.0
5,10.629999876022339,learn,60000.0,Tue Jun 17 2025 16:14:42 GMT-0500 (Central Daylight Time),608679.8999999762,A,wif,O,f,106,1,484.0,608195.8999999762,7172,WL,B,6.0
5,10.79699993133545,learn,60000.0,Tue Jun 17 2025 16:14:42 GMT-0500 (Central Daylight Time),608846.0,A,wife,O,e,131,1,650.1000000238419,608195.8999999762,7172,WL,B,6.0
5,10.996000051498413,learn,60000.0,Tue Jun 17 2025 16:14:42 GMT-0500 (Central Daylight Time),609045.0999999642,A,wifeenter,O,enter,172,1,849.1999999880791,608195.8999999762,7172,WL,B,6.0
5,11.562999963760376,learn,60000.0,Tue Jun 17 2025 16:14:42 GMT-0500 (Central Daylight Time),609612.3999999762,A,p,O,p,559,1,567.0,609045.3999999762,7172,WL,B,7.0
5,11.746999979019165,learn,60000.0,Tue Jun 17 2025 16:14:42 GMT-0500 (Central Daylight Time),609796.1999999881,A,pi,O,i,158,1,750.8000000119209,609045.3999999762,7172,WL,B,7.0
5,11.879999876022339,learn,60000.0,Tue Jun 17 2025 16:14:42 GMT-0500 (Central Daylight Time),609929.3999999762,A,pip,O,p,100,1,884.0,609045.3999999762,7172,WL,B,7.0
5,12.013000011444092,learn,60000.0,Tue Jun 17 2025 16:14:42 GMT-0500 (Central Daylight Time),610062.5999999642,A,pipe,O,e,100,1,1017.1999999880791,609045.3999999762,7172,WL,B,7.0
5,12.196000099182129,learn,60000.0,Tue Jun 17 2025 16:14:42 GMT-0500 (Central Daylight Time),610245.0,A,pipeenter,O,enter,153,1,1199.6000000238419,609045.3999999762,7172,WL,B,7.0
5,12.562000036239624,learn,60000.0,Tue Jun 17 2025 16:14:42 GMT-0500 (Central Daylight Time),610611.3000000119,A,p,O,p,350,1,366.10000002384186,610245.1999999881,7172,WL,B,8.0
5,12.828999996185303,learn,60000.0,Tue Jun 17 2025 16:14:42 GMT-0500 (Central Daylight Time),610877.8999999762,A,pu,O,u,247,1,632.6999999880791,610245.1999999881,7172,WL,B,8.0
5,13.161999940872192,learn,60000.0,Tue Jun 17 2025 16:14:42 GMT-0500 (Central Daylight Time),611211.1999999881,A,pup,O,p,316,1,966.0,610245.1999999881,7172,WL,B,8.0
5,13.477999925613403,learn,60000.0,Tue Jun 17 2025 16:14:42 GMT-0500 (Central Daylight Time),611527.6999999881,A,pupi,O,i,295,1,1282.5,610245.1999999881,7172,WL,B,8.0
5,13.662999868392944,learn,60000.0,Tue Jun 17 2025 16:14:42 GMT-0500 (Central Daylight Time),611712.0999999642,A,pupil,O,l,173,1,1466.8999999761581,610245.1999999881,7172,WL,B,8.0
5,13.92799997329712,learn,60000.0,Tue Jun 17 2025 16:14:42 GMT-0500 (Central Daylight Time),611977.8000000119,A,pupilenter,O,enter,241,1,1732.6000000238419,610245.1999999881,7172,WL,B,8.0
5,14.944999933242798,learn,60000.0,Tue Jun 17 2025 16:14:42 GMT-0500 (Central Daylight Time),612994.3000000119,A,a,O,a,1010,1,1016.3000000119209,611978.0,7172,WL,B,9.0
5,15.611999988555908,learn,60000.0,Tue Jun 17 2025 16:14:42 GMT-0500 (Central Daylight Time),613661.5,A,,O,backspace,647,1,1683.5,611978.0,7172,WL,B,9.0
5,15.763000011444092,learn,60000.0,Tue Jun 17 2025 16:14:42 GMT-0500 (Central Daylight Time),613812.0999999642,A,s,O,s,127,1,1834.0999999642372,611978.0,7172,WL,B,9.0
5,15.911999940872192,learn,60000.0,Tue Jun 17 2025 16:14:42 GMT-0500 (Central Daylight Time),613961.5,A,st,O,t,110,1,1983.5,611978.0,7172,WL,B,9.0
5,16.027999877929688,learn,60000.0,Tue Jun 17 2025 16:14:42 GMT-0500 (Central Daylight Time),614077.0999999642,A,sta,O,a,80,1,2099.099999964237,611978.0,7172,WL,B,9.0
5,16.161999940872192,learn,60000.0,Tue Jun 17 2025 16:14:42 GMT-0500 (Central Daylight Time),614211.6999999881,A,star,O,r,121,1,2233.699999988079,611978.0,7172,WL,B,9.0
5,16.460999965667725,learn,60000.0,Tue Jun 17 2025 16:14:42 GMT-0500 (Central Daylight Time),614510.1999999881,A,starenter,O,enter,262,1,2532.199999988079,611978.0,7172,WL,B,9.0
5,18.92799997329712,learn,60000.0,Tue Jun 17 2025 16:14:42 GMT-0500 (Central Daylight Time),616977.3000000119,A,c,O,c,2447,1,2466.800000011921,614510.5,7172,WL,B,10.0
5,19.043999910354614,learn,60000.0,Tue Jun 17 2025 16:14:42 GMT-0500 (Central Daylight Time),617092.8999999762,A,cl,O,l,82,1,2582.399999976158,614510.5,7172,WL,B,10.0
5,19.210000038146973,learn,60000.0,Tue Jun 17 2025 16:14:42 GMT-0500 (Central Daylight Time),617259.5999999642,A,clo,O,o,146,1,2749.099999964237,614510.5,7172,WL,B,10.0
5,19.32699990272522,learn,60000.0,Tue Jun 17 2025 16:14:42 GMT-0500 (Central Daylight Time),617377.0,A,cloc,O,c,99,1,2866.5,614510.5,7172,WL,B,10.0
5,19.460999965667725,learn,60000.0,Tue Jun 17 2025 16:14:42 GMT-0500 (Central Daylight Time),617510.1999999881,A,clock,O,k,106,1,2999.699999988079,614510.5,7172,WL,B,10.0
5,19.777999877929688,learn,60000.0,Tue Jun 17 2025 16:14:42 GMT-0500 (Central Daylight Time),617827.0,A,clockenter,O,enter,276,1,3316.5,614510.5,7172,WL,B,10.0
5,21.07699990272522,learn,60000.0,Tue Jun 17 2025 16:14:42 GMT-0500 (Central Daylight Time),619126.3000000119,A,w,O,w,1290,1,1299.0,617827.3000000119,7172,WL,B,11.0
5,21.193000078201294,learn,60000.0,Tue Jun 17 2025 16:14:42 GMT-0500 (Central Daylight Time),619242.5,A,wi,O,i,89,1,1415.199999988079,617827.3000000119,7172,WL,B,11.0
5,21.82699990272522,learn,60000.0,Tue Jun 17 2025 16:14:42 GMT-0500 (Central Daylight Time),619876.0,A,w,O,backspace,609,1,2048.699999988079,617827.3000000119,7172,WL,B,11.0
5,21.97699999809265,learn,60000.0,Tue Jun 17 2025 16:14:42 GMT-0500 (Central Daylight Time),620026.0999999642,A,,O,backspace,119,1,2198.7999999523163,617827.3000000119,7172,WL,B,11.0
5,22.22699999809265,learn,60000.0,Tue Jun 17 2025 16:14:42 GMT-0500 (Central Daylight Time),620275.8999999762,A,l,O,l,218,1,2448.599999964237,617827.3000000119,7172,WL,B,11.0
5,22.325999975204468,learn,60000.0,Tue Jun 17 2025 16:14:42 GMT-0500 (Central Daylight Time),620375.6999999881,A,la,O,a,72,1,2548.399999976158,617827.3000000119,7172,WL,B,11.0
5,22.45899987220764,learn,60000.0,Tue Jun 17 2025 16:14:42 GMT-0500 (Central Daylight Time),620508.8999999762,A,lak,O,k,98,1,2681.599999964237,617827.3000000119,7172,WL,B,11.0
5,22.592999935150146,learn,60000.0,Tue Jun 17 2025 16:14:42 GMT-0500 (Central Daylight Time),620642.3999999762,A,lake,O,e,95,1,2815.099999964237,617827.3000000119,7172,WL,B,11.0
5,22.759000062942505,learn,60000.0,Tue Jun 17 2025 16:14:42 GMT-0500 (Central Daylight Time),620808.0999999642,A,lakeenter,O,enter,126,1,2980.7999999523163,617827.3000000119,7172,WL,B,11.0
5,23.325999975204468,learn,60000.0,Tue Jun 17 2025 16:14:42 GMT-0500 (Central Daylight Time),621375.6999999881,A,c,O,c,557,1,567.3999999761581,620808.3000000119,7172,WL,B,12.0
5,23.542999982833862,learn,60000.0,Tue Jun 17 2025 16:14:42 GMT-0500 (Central Daylight Time),621592.6999999881,A,ca,O,a,184,1,784.3999999761581,620808.3000000119,7172,WL,B,12.0
5,23.908999919891357,learn,60000.0,Tue Jun 17 2025 16:14:42 GMT-0500 (Central Daylight Time),621958.5999999642,A,cab,O,b,329,1,1150.2999999523163,620808.3000000119,7172,WL,B,12.0
5,24.02500009536743,learn,60000.0,Tue Jun 17 2025 16:14:42 GMT-0500 (Central Daylight Time),622074.8000000119,A,cabi,O,i,89,1,1266.5,620808.3000000119,7172,WL,B,12.0
5,24.14299988746643,learn,60000.0,Tue Jun 17 2025 16:14:42 GMT-0500 (Central Daylight Time),622192.0,A,cabin,O,n,98,1,1383.699999988079,620808.3000000119,7172,WL,B,12.0
5,24.408999919891357,learn,60000.0,Tue Jun 17 2025 16:14:42 GMT-0500 (Central Daylight Time),622458.6999999881,A,cabinenter,O,enter,224,1,1650.3999999761581,620808.3000000119,7172,WL,B,12.0
5,34.789000034332275,learn,60000.0,Tue Jun 17 2025 16:14:42 GMT-0500 (Central Daylight Time),632838.3999999762,A,f,O,f,10362,1,10379.399999976158,622459.0,7172,WL,B,13.0
5,34.86800003051758,learn,60000.0,Tue Jun 17 2025 16:14:42 GMT-0500 (Central Daylight Time),632917.3000000119,A,fi,O,i,51,1,10458.300000011921,622459.0,7172,WL,B,13.0
5,35.0220000743866,learn,60000.0,Tue Jun 17 2025 16:14:42 GMT-0500 (Central Daylight Time),633071.1999999881,A,fir,O,r,138,1,10612.199999988079,622459.0,7172,WL,B,13.0
5,35.17199993133545,learn,60000.0,Tue Jun 17 2025 16:14:42 GMT-0500 (Central Daylight Time),633221.5999999642,A,fire,O,e,116,1,10762.599999964237,622459.0,7172,WL,B,13.0
5,35.355000019073486,learn,60000.0,Tue Jun 17 2025 16:14:42 GMT-0500 (Central Daylight Time),633404.0,A,fireenter,O,enter,151,1,10945.0,622459.0,7172,WL,B,13.0
5,35.58899998664856,learn,60000.0,Tue Jun 17 2025 16:14:42 GMT-0500 (Central Daylight Time),633638.5999999642,A,s,O,s,225,1,234.29999995231628,633404.3000000119,7172,WL,B,14.0
5,35.704999923706055,learn,60000.0,Tue Jun 17 2025 16:14:42 GMT-0500 (Central Daylight Time),633754.8000000119,A,sk,O,k,75,1,350.5,633404.3000000119,7172,WL,B,14.0
5,35.871999979019165,learn,60000.0,Tue Jun 17 2025 16:14:42 GMT-0500 (Central Daylight Time),633921.5999999642,A,ski,O,i,136,1,517.2999999523163,633404.3000000119,7172,WL,B,14.0
5,36.0220000743866,learn,60000.0,Tue Jun 17 2025 16:14:42 GMT-0500 (Central Daylight Time),634071.5,A,skin,O,n,113,1,667.1999999880791,633404.3000000119,7172,WL,B,14.0
5,36.23799991607666,learn,60000.0,Tue Jun 17 2025 16:14:42 GMT-0500 (Central Daylight Time),634287.0,A,skinenter,O,enter,186,1,882.6999999880791,633404.3000000119,7172,WL,B,14.0
5,96.25300002098083,learn,60000.0,Tue Jun 17 2025 16:14:42 GMT-0500 (Central Daylight Time),694301.8000000119,A,None,O,None,60008,1,60014.5,634287.3000000119,7172,WL,B,15.0
6,1.0,distr,59000.0,Tue Jun 17 2025 16:14:42 GMT-0500 (Central Daylight Time),772076.1999999881,B,b,O,b,975,1,999.3000000119209,771076.8999999762,7172,WL,B,1.0
6,1.2160000801086426,distr,58783.99991989136,Tue Jun 17 2025 16:14:42 GMT-0500 (Central Daylight Time),772292.5999999642,B,ba,O,a,181,1,1215.699999988079,771076.8999999762,7172,WL,B,1.0
6,1.3990001678466797,distr,58600.99983215332,Tue Jun 17 2025 16:14:42 GMT-0500 (Central Daylight Time),772475.6999999881,B,bab,O,b,160,1,1398.800000011921,771076.8999999762,7172,WL,B,1.0
6,1.5990002155303955,distr,58400.999784469604,Tue Jun 17 2025 16:14:42 GMT-0500 (Central Daylight Time),772676.0999999642,B,baby,O,y,180,1,1599.199999988079,771076.8999999762,7172,WL,B,1.0
6,1.8320000171661377,distr,58167.99998283386,Tue Jun 17 2025 16:14:42 GMT-0500 (Central Daylight Time),772908.1999999881,B,babyenter,O,enter,205,1,1831.300000011921,771076.8999999762,7172,WL,B,1.0
6,2.1660001277923584,distr,57833.99987220764,Tue Jun 17 2025 16:14:42 GMT-0500 (Central Daylight Time),773242.5,B,o,O,o,313,1,334.10000002384186,772908.3999999762,7172,WL,B,2.0
6,2.432000160217285,distr,57567.999839782715,Tue Jun 17 2025 16:14:42 GMT-0500 (Central Daylight Time),773508.3000000119,B,oc,O,c,230,1,599.9000000357628,772908.3999999762,7172,WL,B,2.0
6,2.632000207901001,distr,57367.999792099,Tue Jun 17 2025 16:14:42 GMT-0500 (Central Daylight Time),773709.0,B,oce,O,e,177,1,800.6000000238419,772908.3999999762,7172,WL,B,2.0
6,2.7810001373291016,distr,57218.9998626709,Tue Jun 17 2025 16:14:42 GMT-0500 (Central Daylight Time),773857.8999999762,B,ocea,O,a,108,1,949.5,772908.3999999762,7172,WL,B,2.0
6,2.930999994277954,distr,57069.000005722046,Tue Jun 17 2025 16:14:42 GMT-0500 (Central Daylight Time),774007.8999999762,B,ocean,O,n,135,1,1099.5,772908.3999999762,7172,WL,B,2.0
6,3.198000192642212,distr,56801.99980735779,Tue Jun 17 2025 16:14:42 GMT-0500 (Central Daylight Time),774274.1999999881,B,oceanenter,O,enter,258,1,1365.800000011921,772908.3999999762,7172,WL,B,2.0
6,10.230000019073486,distr,49769.999980926514,Tue Jun 17 2025 16:14:42 GMT-0500 (Central Daylight Time),781306.5,B,l,O,l,7010,1,7032.0,774274.5,7172,WL,B,3.0
6,10.44700002670288,distr,49552.99997329712,Tue Jun 17 2025 16:14:42 GMT-0500 (Central Daylight Time),781523.0,B,li,O,i,173,1,7248.5,774274.5,7172,WL,B,3.0
6,10.630000114440918,distr,49369.99988555908,Tue Jun 17 2025 16:14:42 GMT-0500 (Central Daylight Time),781705.8999999762,B,lip,O,p,151,1,7431.399999976158,774274.5,7172,WL,B,3.0
6,11.328999996185303,distr,48671.0000038147,Tue Jun 17 2025 16:14:42 GMT-0500 (Central Daylight Time),782405.0999999642,B,lipenter,O,enter,673,1,8130.599999964237,774274.5,7172,WL,B,3.0
6,12.463000059127808,distr,47536.99994087219,Tue Jun 17 2025 16:14:42 GMT-0500 (Central Daylight Time),783538.8999999762,B,r,O,r,1112,1,1133.5999999642372,782405.3000000119,7172,WL,B,4.0
6,12.563000202178955,distr,47436.999797821045,Tue Jun 17 2025 16:14:42 GMT-0500 (Central Daylight Time),783639.0999999642,B,ro,O,o,64,1,1233.7999999523163,782405.3000000119,7172,WL,B,4.0
6,12.729000091552734,distr,47270.999908447266,Tue Jun 17 2025 16:14:42 GMT-0500 (Central Daylight Time),783805.1999999881,B,roc,O,c,130,1,1399.8999999761581,782405.3000000119,7172,WL,B,4.0
6,12.862000226974487,distr,47137.99977302551,Tue Jun 17 2025 16:14:42 GMT-0500 (Central Daylight Time),783938.3999999762,B,rock,O,k,95,1,1533.0999999642372,782405.3000000119,7172,WL,B,4.0
6,13.145000219345093,distr,46854.99978065491,Tue Jun 17 2025 16:14:42 GMT-0500 (Central Daylight Time),784221.0999999642,B,rockenter,O,enter,252,1,1815.7999999523163,782405.3000000119,7172,WL,B,4.0
6,28.85700011253357,distr,31142.99988746643,Tue Jun 17 2025 16:14:42 GMT-0500 (Central Daylight Time),799933.6999999881,B,a,O,a,15696,1,15712.300000011921,784221.3999999762,7172,WL,B,5.0
6,29.008000135421753,distr,30991.999864578247,Tue Jun 17 2025 16:14:42 GMT-0500 (Central Daylight Time),800084.0999999642,B,ar,O,r,122,1,15862.699999988079,784221.3999999762,7172,WL,B,5.0
6,29.207000017166138,distr,30792.999982833862,Tue Jun 17 2025 16:14:42 GMT-0500 (Central Daylight Time),800283.5,B,arr,O,r,165,1,16062.100000023842,784221.3999999762,7172,WL,B,5.0
6,29.341000080108643,distr,30658.999919891357,Tue Jun 17 2025 16:14:42 GMT-0500 (Central Daylight Time),800416.8000000119,B,arro,O,o,97,1,16195.400000035763,784221.3999999762,7172,WL,B,5.0
6,29.474000215530396,distr,30525.999784469604,Tue Jun 17 2025 16:14:42 GMT-0500 (Central Daylight Time),800550.0,B,arrow,O,w,104,1,16328.600000023842,784221.3999999762,7172,WL,B,5.0
6,29.623000144958496,distr,30376.999855041504,Tue Jun 17 2025 16:14:42 GMT-0500 (Central Daylight Time),800699.0,B,arrowenter,O,enter,125,1,16477.600000023842,784221.3999999762,7172,WL,B,5.0
6,37.80400013923645,distr,22195.99986076355,Tue Jun 17 2025 16:14:42 GMT-0500 (Central Daylight Time),808880.6999999881,B,b,O,b,8162,1,8181.5,800699.1999999881,7172,WL,B,6.0
6,37.88700008392334,distr,22112.99991607666,Tue Jun 17 2025 16:14:42 GMT-0500 (Central Daylight Time),808962.8000000119,B,bu,O,u,53,1,8263.600000023842,800699.1999999881,7172,WL,B,6.0
6,38.13800001144409,distr,21861.99998855591,Tue Jun 17 2025 16:14:42 GMT-0500 (Central Daylight Time),809214.0,B,bui,O,i,234,1,8514.800000011921,800699.1999999881,7172,WL,B,6.0
6,38.20300006866455,distr,21796.99993133545,Tue Jun 17 2025 16:14:42 GMT-0500 (Central Daylight Time),809279.5,B,buil,O,l,29,1,8580.300000011921,800699.1999999881,7172,WL,B,6.0
6,38.37100005149841,distr,21628.999948501587,Tue Jun 17 2025 16:14:42 GMT-0500 (Central Daylight Time),809447.0999999642,B,build,O,d,150,1,8747.899999976158,800699.1999999881,7172,WL,B,6.0
6,38.48800015449524,distr,21511.99984550476,Tue Jun 17 2025 16:14:42 GMT-0500 (Central Daylight Time),809563.8000000119,B,buildi,O,i,84,1,8864.600000023842,800699.1999999881,7172,WL,B,6.0
6,38.62100005149841,distr,21378.999948501587,Tue Jun 17 2025 16:14:42 GMT-0500 (Central Daylight Time),809697.1999999881,B,buildin,O,n,102,1,8998.0,800699.1999999881,7172,WL,B,6.0
6,38.771000146865845,distr,21228.999853134155,Tue Jun 17 2025 16:14:42 GMT-0500 (Central Daylight Time),809847.3000000119,B,building,O,g,112,1,9148.100000023842,800699.1999999881,7172,WL,B,6.0
6,39.63600015640259,distr,20363.999843597412,Tue Jun 17 2025 16:14:42 GMT-0500 (Central Daylight Time),810712.3999999762,B,buildingenter,O,enter,834,1,10013.199999988079,800699.1999999881,7172,WL,B,6.0
6,60.01400017738342,distr,-14.000177383422852,Tue Jun 17 2025 16:14:42 GMT-0500 (Central Daylight Time),831090.0999999642,B,None,O,None,20372,1,20377.399999976158,810712.6999999881,7172,WL,B,7.0
7,0.8999998569488525,immed,59100.00014305115,Tue Jun 17 2025 16:14:42 GMT-0500 (Central Daylight Time),845335.3999999762,A,s,O,s,864,1,898.8999999761581,844436.5,7172,WL,B,1.0
7,1.065999984741211,immed,58934.00001525879,Tue Jun 17 2025 16:14:42 GMT-0500 (Central Daylight Time),845502.0999999642,A,st,O,t,131,1,1065.5999999642372,844436.5,7172,WL,B,1.0
7,1.2820000648498535,immed,58717.99993515015,Tue Jun 17 2025 16:14:42 GMT-0500 (Central Daylight Time),845718.3000000119,A,str,O,r,188,1,1281.800000011921,844436.5,7172,WL,B,1.0
7,1.3999998569488525,immed,58600.00014305115,Tue Jun 17 2025 16:14:42 GMT-0500 (Central Daylight Time),845835.5999999642,A,stre,O,e,95,1,1399.0999999642372,844436.5,7172,WL,B,1.0
7,1.6489999294281006,immed,58351.0000705719,Tue Jun 17 2025 16:14:42 GMT-0500 (Central Daylight Time),846084.8000000119,A,stree,O,e,224,1,1648.300000011921,844436.5,7172,WL,B,1.0
7,1.7990000247955322,immed,58200.99997520447,Tue Jun 17 2025 16:14:42 GMT-0500 (Central Daylight Time),846234.8999999762,A,street,O,t,110,1,1798.3999999761581,844436.5,7172,WL,B,1.0
7,2.131999969482422,immed,57868.00003051758,Tue Jun 17 2025 16:14:42 GMT-0500 (Central Daylight Time),846567.3999999762,A,streetenter,O,enter,294,1,2130.899999976158,844436.5,7172,WL,B,1.0
7,2.6659998893737793,immed,57334.00011062622,Tue Jun 17 2025 16:14:42 GMT-0500 (Central Daylight Time),847101.5999999642,A,g,O,g,518,1,534.0,846567.5999999642,7172,WL,B,2.0
7,2.8489999771118164,immed,57151.00002288818,Tue Jun 17 2025 16:14:42 GMT-0500 (Central Daylight Time),847284.8000000119,A,gr,O,r,148,1,717.2000000476837,846567.5999999642,7172,WL,B,2.0
7,2.947999954223633,immed,57052.00004577637,Tue Jun 17 2025 16:14:42 GMT-0500 (Central Daylight Time),847383.6999999881,A,gra,O,a,69,1,816.1000000238419,846567.5999999642,7172,WL,B,2.0
7,3.181999921798706,immed,56818.000078201294,Tue Jun 17 2025 16:14:42 GMT-0500 (Central Daylight Time),847618.0,A,gras,O,s,213,1,1050.4000000357628,846567.5999999642,7172,WL,B,2.0
7,3.381999969482422,immed,56618.00003051758,Tue Jun 17 2025 16:14:42 GMT-0500 (Central Daylight Time),847818.0,A,grass,O,s,168,1,1250.4000000357628,846567.5999999642,7172,WL,B,2.0
7,3.565000057220459,immed,56434.99994277954,Tue Jun 17 2025 16:14:42 GMT-0500 (Central Daylight Time),848000.1999999881,A,grassenter,O,enter,145,1,1432.6000000238419,846567.5999999642,7172,WL,B,2.0
7,3.7820000648498535,immed,56217.99993515015,Tue Jun 17 2025 16:14:42 GMT-0500 (Central Daylight Time),848217.8000000119,A,d,O,d,197,1,217.30000001192093,848000.5,7172,WL,B,3.0
7,3.9149999618530273,immed,56085.00003814697,Tue Jun 17 2025 16:14:42 GMT-0500 (Central Daylight Time),848351.0999999642,A,do,O,o,98,1,350.5999999642372,848000.5,7172,WL,B,3.0
7,4.082000017166138,immed,55917.99998283386,Tue Jun 17 2025 16:14:42 GMT-0500 (Central Daylight Time),848517.3999999762,A,doo,O,o,140,1,516.8999999761581,848000.5,7172,WL,B,3.0
7,4.23199987411499,immed,55768.00012588501,Tue Jun 17 2025 16:14:42 GMT-0500 (Central Daylight Time),848667.3999999762,A,door,O,r,116,1,666.8999999761581,848000.5,7172,WL,B,3.0
7,4.483000040054321,immed,55516.99995994568,Tue Jun 17 2025 16:14:42 GMT-0500 (Central Daylight Time),848918.5999999642,A,doorenter,O,enter,222,1,918.0999999642372,848000.5,7172,WL,B,3.0
7,5.046999931335449,immed,54953.00006866455,Tue Jun 17 2025 16:14:42 GMT-0500 (Central Daylight Time),849483.1999999881,A,a,O,a,557,1,564.3999999761581,848918.8000000119,7172,WL,B,4.0
7,5.148000001907349,immed,54851.99999809265,Tue Jun 17 2025 16:14:42 GMT-0500 (Central Daylight Time),849583.5999999642,A,ar,O,r,81,1,664.7999999523163,848918.8000000119,7172,WL,B,4.0
7,5.3480000495910645,immed,54651.999950408936,Tue Jun 17 2025 16:14:42 GMT-0500 (Central Daylight Time),849783.5,A,arm,O,m,167,1,864.6999999880791,848918.8000000119,7172,WL,B,4.0
7,5.579999923706055,immed,54420.000076293945,Tue Jun 17 2025 16:14:42 GMT-0500 (Central Daylight Time),850016.0999999642,A,armenter,O,enter,203,1,1097.2999999523163,848918.8000000119,7172,WL,B,4.0
7,5.829999923706055,immed,54170.000076293945,Tue Jun 17 2025 16:14:42 GMT-0500 (Central Daylight Time),850266.0999999642,A,s,O,s,228,1,249.69999998807907,850016.3999999762,7172,WL,B,5.0
7,5.96399998664856,immed,54036.00001335144,Tue Jun 17 2025 16:14:42 GMT-0500 (Central Daylight Time),850399.3000000119,A,st,O,t,112,1,382.9000000357628,850016.3999999762,7172,WL,B,5.0
7,6.079999923706055,immed,53920.000076293945,Tue Jun 17 2025 16:14:42 GMT-0500 (Central Daylight Time),850515.8000000119,A,sta,O,a,100,1,499.4000000357628,850016.3999999762,7172,WL,B,5.0
7,6.197999954223633,immed,53802.00004577637,Tue Jun 17 2025 16:14:42 GMT-0500 (Central Daylight Time),850633.3999999762,A,star,O,r,104,1,617.0,850016.3999999762,7172,WL,B,5.0
7,6.412999868392944,immed,53587.000131607056,Tue Jun 17 2025 16:14:42 GMT-0500 (Central Daylight Time),850849.1999999881,A,starenter,O,enter,175,1,832.8000000119209,850016.3999999762,7172,WL,B,5.0
7,8.379999876022339,immed,51620.00012397766,Tue Jun 17 2025 16:14:42 GMT-0500 (Central Daylight Time),852816.5,A,c,O,c,1948,1,1967.0,850849.5,7172,WL,B,6.0
7,8.562999963760376,immed,51437.000036239624,Tue Jun 17 2025 16:14:42 GMT-0500 (Central Daylight Time),852998.5,A,ca,O,a,144,1,2149.0,850849.5,7172,WL,B,6.0
7,8.763000011444092,immed,51236.99998855591,Tue Jun 17 2025 16:14:42 GMT-0500 (Central Daylight Time),853199.3999999762,A,cab,O,b,181,1,2349.899999976158,850849.5,7172,WL,B,6.0
7,8.865000009536743,immed,51134.99999046326,Tue Jun 17 2025 16:14:42 GMT-0500 (Central Daylight Time),853300.5999999642,A,cabi,O,i,81,1,2451.099999964237,850849.5,7172,WL,B,6.0
7,8.980000019073486,immed,51019.999980926514,Tue Jun 17 2025 16:14:42 GMT-0500 (Central Daylight Time),853415.5999999642,A,cabin,O,n,84,1,2566.099999964237,850849.5,7172,WL,B,6.0
7,9.211999893188477,immed,50788.00010681152,Tue Jun 17 2025 16:14:42 GMT-0500 (Central Daylight Time),853648.0999999642,A,cabinenter,O,enter,204,1,2798.599999964237,850849.5,7172,WL,B,6.0
7,9.562999963760376,immed,50437.000036239624,Tue Jun 17 2025 16:14:42 GMT-0500 (Central Daylight Time),853999.0999999642,A,l,O,l,341,1,350.7999999523163,853648.3000000119,7172,WL,B,7.0
7,9.730000019073486,immed,50269.999980926514,Tue Jun 17 2025 16:14:42 GMT-0500 (Central Daylight Time),854165.8999999762,A,la,O,a,136,1,517.5999999642372,853648.3000000119,7172,WL,B,7.0
7,9.86299991607666,immed,50137.00008392334,Tue Jun 17 2025 16:14:42 GMT-0500 (Central Daylight Time),854299.0,A,lak,O,k,92,1,650.6999999880791,853648.3000000119,7172,WL,B,7.0
7,9.996999979019165,immed,50003.000020980835,Tue Jun 17 2025 16:14:42 GMT-0500 (Central Daylight Time),854432.3999999762,A,lake,O,e,97,1,784.0999999642372,853648.3000000119,7172,WL,B,7.0
7,10.147000074386597,immed,49852.9999256134,Tue Jun 17 2025 16:14:42 GMT-0500 (Central Daylight Time),854582.3000000119,A,lakeenter,O,enter,121,1,934.0,853648.3000000119,7172,WL,B,7.0
7,10.562999963760376,immed,49437.000036239624,Tue Jun 17 2025 16:14:42 GMT-0500 (Central Daylight Time),854998.8000000119,A,w,O,w,407,1,416.30000001192093,854582.5,7172,WL,B,8.0
7,10.680000066757202,immed,49319.9999332428,Tue Jun 17 2025 16:14:42 GMT-0500 (Central Daylight Time),855115.5,A,wi,O,i,75,1,533.0,854582.5,7172,WL,B,8.0
7,10.796000003814697,immed,49203.9999961853,Tue Jun 17 2025 16:14:42 GMT-0500 (Central Daylight Time),855231.3999999762,A,win,O,n,77,1,648.8999999761581,854582.5,7172,WL,B,8.0
7,10.928999900817871,immed,49071.00009918213,Tue Jun 17 2025 16:14:42 GMT-0500 (Central Daylight Time),855365.0,A,wind,O,d,112,1,782.5,854582.5,7172,WL,B,8.0
7,11.029000043869019,immed,48970.99995613098,Tue Jun 17 2025 16:14:42 GMT-0500 (Central Daylight Time),855464.5,A,windo,O,o,61,1,882.0,854582.5,7172,WL,B,8.0
7,11.162999868392944,immed,48837.000131607056,Tue Jun 17 2025 16:14:42 GMT-0500 (Central Daylight Time),855598.8000000119,A,window,O,w,103,1,1016.3000000119209,854582.5,7172,WL,B,8.0
7,11.361999988555908,immed,48638.00001144409,Tue Jun 17 2025 16:14:42 GMT-0500 (Central Daylight Time),855797.5999999642,A,windowenter,O,enter,171,1,1215.0999999642372,854582.5,7172,WL,B,8.0
7,13.111000061035156,immed,46888.999938964844,Tue Jun 17 2025 16:14:42 GMT-0500 (Central Daylight Time),857546.8000000119,A,w,O,w,1743,1,1749.0,855797.8000000119,7172,WL,B,9.0
7,13.194999933242798,immed,46805.0000667572,Tue Jun 17 2025 16:14:42 GMT-0500 (Central Daylight Time),857630.8999999762,A,wi,O,i,64,1,1833.0999999642372,855797.8000000119,7172,WL,B,9.0
7,13.32800006866455,immed,46671.99993133545,Tue Jun 17 2025 16:14:42 GMT-0500 (Central Daylight Time),857764.1999999881,A,wif,O,f,115,1,1966.3999999761581,855797.8000000119,7172,WL,B,9.0
7,13.480000019073486,immed,46519.999980926514,Tue Jun 17 2025 16:14:42 GMT-0500 (Central Daylight Time),857916.0,A,wife,O,e,128,1,2118.199999988079,855797.8000000119,7172,WL,B,9.0
7,13.67799997329712,immed,46322.00002670288,Tue Jun 17 2025 16:14:42 GMT-0500 (Central Daylight Time),858114.0,A,wifeenter,O,enter,183,1,2316.199999988079,855797.8000000119,7172,WL,B,9.0
7,15.861000061035156,immed,44138.999938964844,Tue Jun 17 2025 16:14:42 GMT-0500 (Central Daylight Time),860297.1999999881,A,s,O,s,2163,1,2182.899999976158,858114.3000000119,7172,WL,B,10.0
7,15.960999965667725,immed,44039.000034332275,Tue Jun 17 2025 16:14:42 GMT-0500 (Central Daylight Time),860396.3999999762,A,sk,O,k,62,1,2282.099999964237,858114.3000000119,7172,WL,B,10.0
7,16.127000093460083,immed,43872.99990653992,Tue Jun 17 2025 16:14:42 GMT-0500 (Central Daylight Time),860562.6999999881,A,ski,O,i,155,1,2448.399999976158,858114.3000000119,7172,WL,B,10.0
7,16.26099991798401,immed,43739.00008201599,Tue Jun 17 2025 16:14:42 GMT-0500 (Central Daylight Time),860697.0999999642,A,skin,O,n,105,1,2582.7999999523163,858114.3000000119,7172,WL,B,10.0
7,16.542999982833862,immed,43457.00001716614,Tue Jun 17 2025 16:14:42 GMT-0500 (Central Daylight Time),860979.1999999881,A,skinenter,O,enter,248,1,2864.899999976158,858114.3000000119,7172,WL,B,10.0
7,16.878000020980835,immed,43121.999979019165,Tue Jun 17 2025 16:14:42 GMT-0500 (Central Daylight Time),861313.5999999642,A,f,O,f,322,1,334.0999999642372,860979.5,7172,WL,B,11.0
7,16.99399995803833,immed,43006.00004196167,Tue Jun 17 2025 16:14:42 GMT-0500 (Central Daylight Time),861430.0,A,fi,O,i,80,1,450.5,860979.5,7172,WL,B,11.0
7,17.128000020980835,immed,42871.999979019165,Tue Jun 17 2025 16:14:42 GMT-0500 (Central Daylight Time),861563.3999999762,A,fir,O,r,93,1,583.8999999761581,860979.5,7172,WL,B,11.0
7,17.24399995803833,immed,42756.00004196167,Tue Jun 17 2025 16:14:42 GMT-0500 (Central Daylight Time),861680.0,A,fire,O,e,87,1,700.5,860979.5,7172,WL,B,11.0
7,17.427000045776367,immed,42572.99995422363,Tue Jun 17 2025 16:14:42 GMT-0500 (Central Daylight Time),861862.3000000119,A,fireenter,O,enter,146,1,882.8000000119209,860979.5,7172,WL,B,11.0
7,18.526000022888184,immed,41473.99997711182,Tue Jun 17 2025 16:14:42 GMT-0500 (Central Daylight Time),862961.8999999762,A,c,O,c,1085,1,1099.3999999761581,861862.5,7172,WL,B,12.0
7,18.625999927520752,immed,41374.00007247925,Tue Jun 17 2025 16:14:42 GMT-0500 (Central Daylight Time),863061.8999999762,A,ci,O,i,80,1,1199.3999999761581,861862.5,7172,WL,B,12.0
7,18.759999990463257,immed,41240.00000953674,Tue Jun 17 2025 16:14:42 GMT-0500 (Central Daylight Time),863196.0999999642,A,cit,O,t,126,1,1333.5999999642372,861862.5,7172,WL,B,12.0
7,18.91000008583069,immed,41089.99991416931,Tue Jun 17 2025 16:14:42 GMT-0500 (Central Daylight Time),863346.1999999881,A,city,O,y,119,1,1483.699999988079,861862.5,7172,WL,B,12.0
7,19.20899987220764,immed,40791.00012779236,Tue Jun 17 2025 16:14:42 GMT-0500 (Central Daylight Time),863644.8999999762,A,cityenter,O,enter,261,1,1782.3999999761581,861862.5,7172,WL,B,12.0
7,32.92199993133545,immed,27078.00006866455,Tue Jun 17 2025 16:14:42 GMT-0500 (Central Daylight Time),877358.3000000119,A,c,O,c,13696,1,13713.100000023842,863645.1999999881,7172,WL,B,13.0
7,33.08800005912781,immed,26911.999940872192,Tue Jun 17 2025 16:14:42 GMT-0500 (Central Daylight Time),877524.3000000119,A,cl,O,l,139,1,13879.100000023842,863645.1999999881,7172,WL,B,13.0
7,33.2720000743866,immed,26727.999925613403,Tue Jun 17 2025 16:14:42 GMT-0500 (Central Daylight Time),877707.8000000119,A,clo,O,o,150,1,14062.600000023842,863645.1999999881,7172,WL,B,13.0
7,33.40499997138977,immed,26595.00002861023,Tue Jun 17 2025 16:14:42 GMT-0500 (Central Daylight Time),877841.0999999642,A,cloc,O,c,92,1,14195.899999976158,863645.1999999881,7172,WL,B,13.0
7,33.5220000743866,immed,26477.999925613403,Tue Jun 17 2025 16:14:42 GMT-0500 (Central Daylight Time),877957.5999999642,A,clock,O,k,79,1,14312.399999976158,863645.1999999881,7172,WL,B,13.0
7,33.73799991607666,immed,26262.00008392334,Tue Jun 17 2025 16:14:42 GMT-0500 (Central Daylight Time),878173.6999999881,A,clockenter,O,enter,179,1,14528.5,863645.1999999881,7172,WL,B,13.0
7,60.013999938964844,immed,-13.99993896484375,Tue Jun 17 2025 16:14:42 GMT-0500 (Central Daylight Time),904449.5,A,None,O,None,26269,1,26275.5,878174.0,7172,WL,B,14.0
