acc_sum,block,block_c,change,condition,correct,correct_response,datetime,endtime,face,project,response,response_time,row_sel,session_number,start_end,starttime,subject_id,task,task_vers,trial
0,prac,1,,1-Back,,,Fri May 09 2025 11:18:25 GMT-0500 (Central Daylight Time),,012_o_f_d_a.png,O,space,6725,1,1,,,7145,VNB,C,0
0,prac,1,0.0,1-Back,0,m,Fri May 09 2025 11:18:25 GMT-0500 (Central Daylight Time),156035.30000001192,022_y_f_n_a.png,O,None,2007,2,1,2881.100000023842,153154.19999998808,7145,VNB,C,1
0,prac,1,0.0,1-Back,0,m,Fri May 09 2025 11:18:25 GMT-0500 (Central Daylight Time),158934.0,014_m_m_h_a.png,O,None,2013,3,1,2867.099999964237,156066.90000003576,7145,VNB,C,2
0,prac,1,0.0,1-Back,0,m,Fri May 09 2025 11:18:25 GMT-0500 (Central Daylight Time),161035.5,025_y_m_d_a.png,O,z,1222,4,1,2067.300000011921,158968.19999998808,7145,VNB,C,3
1,prac,1,0.0,1-Back,1,m,Fri May 09 2025 11:18:25 GMT-0500 (Central Daylight Time),163546.40000003576,012_o_f_n_a.png,O,m,1600,5,1,2478.300000011921,161068.10000002384,7145,VNB,C,4
2,prac,1,1.0,1-Back,1,z,Fri May 09 2025 11:18:25 GMT-0500 (Central Daylight Time),165647.80000001192,025_y_m_n_a.png,O,z,1213,6,1,2071.199999988079,163576.60000002384,7145,VNB,C,5
3,prac,1,0.0,1-Back,1,m,Fri May 09 2025 11:18:25 GMT-0500 (Central Daylight Time),167748.30000001192,015_o_m_h_a.png,O,m,1194,7,1,2069.100000023842,165679.19999998808,7145,VNB,C,6
3,prac,1,0.0,1-Back,0,m,Fri May 09 2025 11:18:25 GMT-0500 (Central Daylight Time),169480.40000003576,019_m_f_d_a.png,O,z,808,8,1,1699.4000000357628,167781.0,7145,VNB,C,7
3,prac,1,1.0,1-Back,0,z,Fri May 09 2025 11:18:25 GMT-0500 (Central Daylight Time),171978.19999998808,022_y_f_d_a.png,O,m,1577,9,1,2464.5,169513.69999998808,7145,VNB,C,8
4,prac,1,0.0,1-Back,1,m,Fri May 09 2025 11:18:25 GMT-0500 (Central Daylight Time),173979.5,014_m_m_n_a.png,O,m,1099,10,1,1971.800000011921,172007.69999998808,7145,VNB,C,9
5,prac,1,0.0,1-Back,1,m,Fri May 09 2025 11:18:25 GMT-0500 (Central Daylight Time),176127.69999998808,012_o_f_h_a.png,O,m,1239,11,1,2115.199999988079,174012.5,7145,VNB,C,10
6,prac,1,0.0,1-Back,1,m,Fri May 09 2025 11:18:25 GMT-0500 (Central Daylight Time),177846.60000002384,025_y_m_d_a.png,O,m,847,12,1,1687.0,176159.60000002384,7145,VNB,C,11
0,prac,2,0.0,1-Back,,,Fri May 09 2025 11:18:25 GMT-0500 (Central Daylight Time),177846.60000002384,012_o_f_d_a.png,O,a,3461,1,1,1687.0,176159.60000002384,7145,VNB,C,0
1,prac,2,0.0,1-Back,1,m,Fri May 09 2025 11:18:25 GMT-0500 (Central Daylight Time),186874.69999998808,022_y_f_n_a.png,O,m,1603,2,1,2464.7999999523163,184409.90000003576,7145,VNB,C,1
2,prac,2,0.0,1-Back,1,m,Fri May 09 2025 11:18:25 GMT-0500 (Central Daylight Time),188925.0,014_m_m_h_a.png,O,m,1175,3,1,2017.199999988079,186907.80000001192,7145,VNB,C,2
3,prac,2,0.0,1-Back,1,m,Fri May 09 2025 11:18:25 GMT-0500 (Central Daylight Time),190524.90000003576,025_y_m_d_a.png,O,m,784,4,1,1568.800000011921,188956.10000002384,7145,VNB,C,3
4,prac,2,0.0,1-Back,1,m,Fri May 09 2025 11:18:25 GMT-0500 (Central Daylight Time),192358.90000003576,012_o_f_n_a.png,O,m,917,5,1,1800.4000000357628,190558.5,7145,VNB,C,4
5,prac,2,1.0,1-Back,1,z,Fri May 09 2025 11:18:25 GMT-0500 (Central Daylight Time),194089.69999998808,025_y_m_n_a.png,O,z,840,6,1,1699.2999999523163,192390.40000003576,7145,VNB,C,5
6,prac,2,0.0,1-Back,1,m,Fri May 09 2025 11:18:25 GMT-0500 (Central Daylight Time),195954.90000003576,015_o_m_h_a.png,O,m,945,7,1,1832.6000000238419,194122.30000001192,7145,VNB,C,6
6,prac,2,0.0,1-Back,0,m,Fri May 09 2025 11:18:25 GMT-0500 (Central Daylight Time),197705.10000002384,019_m_f_d_a.png,O,z,844,8,1,1715.6000000238419,195989.5,7145,VNB,C,7
6,prac,2,1.0,1-Back,0,z,Fri May 09 2025 11:18:25 GMT-0500 (Central Daylight Time),200537.80000001192,022_y_f_d_a.png,O,m,1931,9,1,2798.699999988079,197739.10000002384,7145,VNB,C,8
7,prac,2,0.0,1-Back,1,m,Fri May 09 2025 11:18:25 GMT-0500 (Central Daylight Time),202503.60000002384,014_m_m_n_a.png,O,m,1073,10,1,1933.5,200570.10000002384,7145,VNB,C,9
8,prac,2,0.0,1-Back,1,m,Fri May 09 2025 11:18:25 GMT-0500 (Central Daylight Time),204936.60000002384,012_o_f_h_a.png,O,m,1524,11,1,2400.400000035763,202536.19999998808,7145,VNB,C,10
9,prac,2,0.0,1-Back,1,m,Fri May 09 2025 11:18:25 GMT-0500 (Central Daylight Time),206901.0,025_y_m_d_a.png,O,m,1076,12,1,1931.199999988079,204969.80000001192,7145,VNB,C,11
0,test,1,0.0,1-Back,,,Fri May 09 2025 11:18:25 GMT-0500 (Central Daylight Time),206901.0,022_y_f_d_a.png,O,space,12719,1,1,1931.199999988079,204969.80000001192,7145,VNB,C,0
1,test,1,0.0,1-Back,1,m,Fri May 09 2025 11:18:25 GMT-0500 (Central Daylight Time),229359.60000002384,019_m_f_n_a.png,O,m,900,2,1,1932.4000000357628,227427.19999998808,7145,VNB,C,1
2,test,1,0.0,1-Back,1,m,Fri May 09 2025 11:18:25 GMT-0500 (Central Daylight Time),231394.10000002384,015_o_m_h_a.png,O,m,984,3,1,2004.699999988079,229389.40000003576,7145,VNB,C,2
3,test,1,1.0,1-Back,1,z,Fri May 09 2025 11:18:25 GMT-0500 (Central Daylight Time),233458.5,014_m_m_h_a.png,O,z,1006,4,1,2030.8999999761581,231427.60000002384,7145,VNB,C,3
4,test,1,0.0,1-Back,1,m,Fri May 09 2025 11:18:25 GMT-0500 (Central Daylight Time),235525.80000001192,012_o_f_n_a.png,O,m,1021,5,1,2036.300000011921,233489.5,7145,VNB,C,4
5,test,1,0.0,1-Back,1,m,Fri May 09 2025 11:18:25 GMT-0500 (Central Daylight Time),237924.40000003576,025_y_m_d_a.png,O,m,1363,6,1,2367.300000011921,235557.10000002384,7145,VNB,C,5
6,test,1,1.0,1-Back,1,z,Fri May 09 2025 11:18:25 GMT-0500 (Central Daylight Time),239774.90000003576,019_m_f_d_a.png,O,z,812,7,1,1824.7000000476837,237950.19999998808,7145,VNB,C,6
7,test,1,0.0,1-Back,1,m,Fri May 09 2025 11:18:25 GMT-0500 (Central Daylight Time),241655.40000003576,022_y_f_h_a.png,O,m,834,8,1,1850.4000000357628,239805.0,7145,VNB,C,7
8,test,1,0.0,1-Back,1,m,Fri May 09 2025 11:18:25 GMT-0500 (Central Daylight Time),243556.80000001192,015_o_m_n_a.png,O,m,850,9,1,1873.3999999761581,241683.40000003576,7145,VNB,C,8
9,test,1,0.0,1-Back,1,m,Fri May 09 2025 11:18:25 GMT-0500 (Central Daylight Time),245554.69999998808,025_y_m_h_a.png,O,m,951,10,1,1966.7999999523163,243587.90000003576,7145,VNB,C,9
10,test,1,0.0,1-Back,1,m,Fri May 09 2025 11:18:25 GMT-0500 (Central Daylight Time),247422.10000002384,015_o_m_d_a.png,O,m,829,11,1,1838.0,245584.10000002384,7145,VNB,C,10
11,test,1,1.0,1-Back,1,z,Fri May 09 2025 11:18:25 GMT-0500 (Central Daylight Time),249320.19999998808,012_o_f_d_a.png,O,z,857,12,1,1868.0,247452.19999998808,7145,VNB,C,11
12,test,1,0.0,1-Back,1,m,Fri May 09 2025 11:18:25 GMT-0500 (Central Daylight Time),251169.5,014_m_m_n_a.png,O,m,807,13,1,1816.699999988079,249352.80000001192,7145,VNB,C,12
13,test,1,1.0,1-Back,1,z,Fri May 09 2025 11:18:25 GMT-0500 (Central Daylight Time),253219.60000002384,022_y_f_n_a.png,O,z,989,14,1,2016.0,251203.60000002384,7145,VNB,C,13
14,test,1,0.0,1-Back,1,m,Fri May 09 2025 11:18:25 GMT-0500 (Central Daylight Time),255719.19999998808,019_m_f_h_a.png,O,m,1443,15,1,2465.699999988079,253253.5,7145,VNB,C,14
15,test,1,0.0,1-Back,1,m,Fri May 09 2025 11:18:25 GMT-0500 (Central Daylight Time),257752.60000002384,014_m_m_d_a.png,O,m,993,16,1,2002.9000000357628,255749.69999998808,7145,VNB,C,15
16,test,1,0.0,1-Back,1,m,Fri May 09 2025 11:18:25 GMT-0500 (Central Daylight Time),259617.10000002384,025_y_m_n_a.png,O,m,815,17,1,1834.5,257782.60000002384,7145,VNB,C,16
17,test,1,0.0,1-Back,1,m,Fri May 09 2025 11:18:25 GMT-0500 (Central Daylight Time),261370.10000002384,012_o_f_h_a.png,O,m,701,18,1,1722.199999988079,259647.90000003576,7145,VNB,C,17
0,test,2,0.0,1-Back,,,Fri May 09 2025 11:18:25 GMT-0500 (Central Daylight Time),261370.10000002384,025_y_m_n_a.png,O,space,1286,1,1,1722.199999988079,259647.90000003576,7145,VNB,C,0
1,test,2,0.0,1-Back,1,m,Fri May 09 2025 11:18:25 GMT-0500 (Central Daylight Time),266484.0,022_y_f_h_a.png,O,m,750,2,1,1769.5999999642372,264714.40000003576,7145,VNB,C,1
2,test,2,1.0,1-Back,1,m,Fri May 09 2025 11:18:25 GMT-0500 (Central Daylight Time),268164.8000000119,015_o_m_n_a.png,O,m,638,3,1,1652.6000000238419,266512.1999999881,7145,VNB,C,2
3,test,2,0.0,1-Back,1,m,Fri May 09 2025 11:18:25 GMT-0500 (Central Daylight Time),270015.8000000119,019_m_f_d_a.png,O,m,787,4,1,1816.8999999761581,268198.90000003576,7145,VNB,C,3
4,test,2,0.0,1-Back,1,z,Fri May 09 2025 11:18:25 GMT-0500 (Central Daylight Time),271979.8000000119,014_m_m_d_a.png,O,z,902,5,1,1931.199999988079,270048.60000002384,7145,VNB,C,4
5,test,2,0.0,1-Back,1,m,Fri May 09 2025 11:18:25 GMT-0500 (Central Daylight Time),273747.90000003576,025_y_m_h_a.png,O,m,732,6,1,1736.9000000357628,272011.0,7145,VNB,C,5
6,test,2,1.0,1-Back,1,z,Fri May 09 2025 11:18:25 GMT-0500 (Central Daylight Time),275762.6999999881,012_o_f_h_a.png,O,z,950,7,1,1982.8999999761581,273779.8000000119,7145,VNB,C,6
7,test,2,0.0,1-Back,1,m,Fri May 09 2025 11:18:25 GMT-0500 (Central Daylight Time),277794.3000000119,019_m_f_n_a.png,O,m,987,8,1,2001.1000000238419,275793.1999999881,7145,VNB,C,7
7,test,2,0.0,1-Back,0,m,Fri May 09 2025 11:18:25 GMT-0500 (Central Daylight Time),280061.0,022_y_f_d_a.png,O,z,1219,9,1,2236.399999976158,277824.60000002384,7145,VNB,C,8
8,test,2,0.0,1-Back,1,m,Fri May 09 2025 11:18:25 GMT-0500 (Central Daylight Time),282144.60000002384,014_m_m_n_a.png,O,m,1043,10,1,2052.199999988079,280092.40000003576,7145,VNB,C,9
9,test,2,1.0,1-Back,1,m,Fri May 09 2025 11:18:25 GMT-0500 (Central Daylight Time),283994.90000003576,019_m_f_h_a.png,O,m,815,11,1,1822.0,282172.90000003576,7145,VNB,C,10
10,test,2,0.0,1-Back,1,z,Fri May 09 2025 11:18:25 GMT-0500 (Central Daylight Time),285658.90000003576,015_o_m_h_a.png,O,z,606,12,1,1630.9000000357628,284028.0,7145,VNB,C,11
11,test,2,0.0,1-Back,1,m,Fri May 09 2025 11:18:25 GMT-0500 (Central Daylight Time),287625.8000000119,025_y_m_d_a.png,O,m,923,13,1,1933.699999988079,285692.10000002384,7145,VNB,C,12
12,test,2,0.0,1-Back,1,m,Fri May 09 2025 11:18:25 GMT-0500 (Central Daylight Time),289476.5,012_o_f_n_a.png,O,m,798,14,1,1817.0,287659.5,7145,VNB,C,13
13,test,2,0.0,1-Back,1,z,Fri May 09 2025 11:18:25 GMT-0500 (Central Daylight Time),291107.1999999881,022_y_f_n_a.png,O,z,571,15,1,1597.7999999523163,289509.40000003576,7145,VNB,C,14
14,test,2,1.0,1-Back,1,m,Fri May 09 2025 11:18:25 GMT-0500 (Central Daylight Time),293141.3000000119,014_m_m_h_a.png,O,m,972,16,1,2000.5,291140.8000000119,7145,VNB,C,15
15,test,2,0.0,1-Back,1,m,Fri May 09 2025 11:18:25 GMT-0500 (Central Daylight Time),295124.90000003576,012_o_f_d_a.png,O,m,933,17,1,1950.9000000357628,293174.0,7145,VNB,C,16
16,test,2,1.0,1-Back,1,z,Fri May 09 2025 11:18:25 GMT-0500 (Central Daylight Time),297372.60000002384,015_o_m_d_a.png,O,z,1199,18,1,2215.600000023842,295157.0,7145,VNB,C,17
0,test,3,1.0,1-Back,,,Fri May 09 2025 11:18:25 GMT-0500 (Central Daylight Time),297372.60000002384,012_o_f_h_a.png,O,space,1189,1,1,2215.600000023842,295157.0,7145,VNB,C,0
1,test,3,0.0,1-Back,1,m,Fri May 09 2025 11:18:25 GMT-0500 (Central Daylight Time),302538.5,019_m_f_d_a.png,O,m,785,2,1,1801.800000011921,300736.6999999881,7145,VNB,C,1
2,test,3,1.0,1-Back,1,m,Fri May 09 2025 11:18:25 GMT-0500 (Central Daylight Time),304403.1999999881,014_m_m_n_a.png,O,m,815,3,1,1833.0,302570.1999999881,7145,VNB,C,2
3,test,3,0.0,1-Back,1,z,Fri May 09 2025 11:18:25 GMT-0500 (Central Daylight Time),306337.10000002384,012_o_f_n_a.png,O,z,867,4,1,1898.9000000357628,304438.1999999881,7145,VNB,C,3
4,test,3,1.0,1-Back,1,m,Fri May 09 2025 11:18:25 GMT-0500 (Central Daylight Time),308302.40000003576,015_o_m_d_a.png,O,m,917,5,1,1933.1000000238419,306369.3000000119,7145,VNB,C,4
5,test,3,0.0,1-Back,1,m,Fri May 09 2025 11:18:25 GMT-0500 (Central Daylight Time),310101.0,022_y_f_h_a.png,O,m,761,6,1,1767.0999999642372,308333.90000003576,7145,VNB,C,5
6,test,3,0.0,1-Back,1,z,Fri May 09 2025 11:18:25 GMT-0500 (Central Daylight Time),312002.40000003576,025_y_m_h_a.png,O,z,850,7,1,1869.800000011921,310132.60000002384,7145,VNB,C,6
7,test,3,0.0,1-Back,1,m,Fri May 09 2025 11:18:25 GMT-0500 (Central Daylight Time),313883.5,019_m_f_n_a.png,O,m,822,8,1,1848.199999988079,312035.3000000119,7145,VNB,C,7
8,test,3,0.0,1-Back,1,m,Fri May 09 2025 11:18:25 GMT-0500 (Central Daylight Time),315982.8000000119,022_y_f_d_a.png,O,m,1044,9,1,2065.399999976158,313917.40000003576,7145,VNB,C,8
9,test,3,1.0,1-Back,1,m,Fri May 09 2025 11:18:25 GMT-0500 (Central Daylight Time),317948.1999999881,015_o_m_n_a.png,O,m,910,10,1,1931.699999988079,316016.5,7145,VNB,C,9
10,test,3,0.0,1-Back,1,m,Fri May 09 2025 11:18:25 GMT-0500 (Central Daylight Time),319765.60000002384,014_m_m_h_a.png,O,m,770,11,1,1786.4000000357628,317979.1999999881,7145,VNB,C,10
11,test,3,0.0,1-Back,1,z,Fri May 09 2025 11:18:25 GMT-0500 (Central Daylight Time),321764.40000003576,019_m_f_h_a.png,O,z,946,12,1,1965.0,319799.40000003576,7145,VNB,C,11
12,test,3,1.0,1-Back,1,m,Fri May 09 2025 11:18:25 GMT-0500 (Central Daylight Time),323646.90000003576,012_o_f_d_a.png,O,m,818,13,1,1849.0,321797.90000003576,7145,VNB,C,12
13,test,3,0.0,1-Back,1,z,Fri May 09 2025 11:18:25 GMT-0500 (Central Daylight Time),325463.60000002384,014_m_m_d_a.png,O,z,768,14,1,1787.1000000238419,323676.5,7145,VNB,C,13
14,test,3,0.0,1-Back,1,m,Fri May 09 2025 11:18:25 GMT-0500 (Central Daylight Time),327179.8000000119,025_y_m_n_a.png,O,m,656,15,1,1684.3999999761581,325495.40000003576,7145,VNB,C,14
15,test,3,1.0,1-Back,1,m,Fri May 09 2025 11:18:25 GMT-0500 (Central Daylight Time),329078.60000002384,015_o_m_h_a.png,O,m,852,16,1,1869.199999988079,327209.40000003576,7145,VNB,C,15
16,test,3,0.0,1-Back,1,m,Fri May 09 2025 11:18:25 GMT-0500 (Central Daylight Time),331061.90000003576,025_y_m_d_a.png,O,m,937,17,1,1951.9000000357628,329110.0,7145,VNB,C,16
17,test,3,1.0,1-Back,1,m,Fri May 09 2025 11:18:25 GMT-0500 (Central Daylight Time),332860.3000000119,022_y_f_n_a.png,O,m,754,18,1,1767.1000000238419,331093.1999999881,7145,VNB,C,17
0,test,4,1.0,1-Back,,,Fri May 09 2025 11:18:25 GMT-0500 (Central Daylight Time),332860.3000000119,014_m_m_d_a.png,O,space,1309,1,1,1767.1000000238419,331093.1999999881,7145,VNB,C,0
1,test,4,0.0,1-Back,1,z,Fri May 09 2025 11:18:25 GMT-0500 (Central Daylight Time),338357.60000002384,015_o_m_d_a.png,O,z,1125,2,1,2132.699999988079,336224.90000003576,7145,VNB,C,1
2,test,4,0.0,1-Back,1,m,Fri May 09 2025 11:18:25 GMT-0500 (Central Daylight Time),340142.3000000119,025_y_m_h_a.png,O,m,746,3,1,1755.0,338387.3000000119,7145,VNB,C,2
3,test,4,0.0,1-Back,1,m,Fri May 09 2025 11:18:25 GMT-0500 (Central Daylight Time),342056.90000003576,019_m_f_n_a.png,O,m,850,4,1,1882.6000000238419,340174.3000000119,7145,VNB,C,3
4,test,4,1.0,1-Back,1,m,Fri May 09 2025 11:18:25 GMT-0500 (Central Daylight Time),343874.40000003576,012_o_f_h_a.png,O,m,772,5,1,1790.300000011921,342084.10000002384,7145,VNB,C,4
5,test,4,0.0,1-Back,1,m,Fri May 09 2025 11:18:25 GMT-0500 (Central Daylight Time),345574.90000003576,014_m_m_n_a.png,O,m,654,6,1,1670.800000011921,343904.10000002384,7145,VNB,C,5
6,test,4,0.0,1-Back,1,m,Fri May 09 2025 11:18:25 GMT-0500 (Central Daylight Time),347389.60000002384,025_y_m_d_a.png,O,m,762,7,1,1784.6000000238419,345605.0,7145,VNB,C,6
7,test,4,1.0,1-Back,1,z,Fri May 09 2025 11:18:25 GMT-0500 (Central Daylight Time),349387.8000000119,022_y_f_d_a.png,O,z,955,8,1,1967.3999999761581,347420.40000003576,7145,VNB,C,7
8,test,4,0.0,1-Back,1,m,Fri May 09 2025 11:18:25 GMT-0500 (Central Daylight Time),351204.8000000119,019_m_f_h_a.png,O,m,779,9,1,1783.699999988079,349421.10000002384,7145,VNB,C,8
9,test,4,0.0,1-Back,1,z,Fri May 09 2025 11:18:25 GMT-0500 (Central Daylight Time),353204.6999999881,015_o_m_h_a.png,O,z,962,10,1,1969.0999999642372,351235.60000002384,7145,VNB,C,9
10,test,4,1.0,1-Back,1,m,Fri May 09 2025 11:18:25 GMT-0500 (Central Daylight Time),355053.6999999881,012_o_f_n_a.png,O,m,801,11,1,1816.0,353237.6999999881,7145,VNB,C,10
11,test,4,0.0,1-Back,1,m,Fri May 09 2025 11:18:25 GMT-0500 (Central Daylight Time),356905.90000003576,019_m_f_d_a.png,O,m,809,12,1,1822.7000000476837,355083.1999999881,7145,VNB,C,11
12,test,4,0.0,1-Back,1,m,Fri May 09 2025 11:18:25 GMT-0500 (Central Daylight Time),358753.5,022_y_f_n_a.png,O,m,791,13,1,1813.5,356940.0,7145,VNB,C,12
13,test,4,0.0,1-Back,1,m,Fri May 09 2025 11:18:25 GMT-0500 (Central Daylight Time),360586.1999999881,012_o_f_d_a.png,O,m,791,14,1,1811.0999999642372,358775.10000002384,7145,VNB,C,13
14,test,4,0.0,1-Back,1,m,Fri May 09 2025 11:18:25 GMT-0500 (Central Daylight Time),362318.8000000119,022_y_f_h_a.png,O,m,679,15,1,1701.800000011921,360617.0,7145,VNB,C,14
15,test,4,1.0,1-Back,1,z,Fri May 09 2025 11:18:25 GMT-0500 (Central Daylight Time),364183.8000000119,014_m_m_h_a.png,O,z,800,16,1,1831.8999999761581,362351.90000003576,7145,VNB,C,15
16,test,4,0.0,1-Back,1,m,Fri May 09 2025 11:18:25 GMT-0500 (Central Daylight Time),365949.3000000119,015_o_m_n_a.png,O,m,729,17,1,1735.1000000238419,364214.1999999881,7145,VNB,C,16
17,test,4,1.0,1-Back,1,z,Fri May 09 2025 11:18:25 GMT-0500 (Central Daylight Time),367732.8000000119,025_y_m_n_a.png,O,z,745,18,1,1756.6000000238419,365976.1999999881,7145,VNB,C,17
0,test,5,1.0,1-Back,,,Fri May 09 2025 11:18:25 GMT-0500 (Central Daylight Time),367732.8000000119,015_o_m_n_a.png,O,space,1183,1,1,1756.6000000238419,365976.1999999881,7145,VNB,C,0
1,test,5,1.0,1-Back,1,m,Fri May 09 2025 11:18:25 GMT-0500 (Central Daylight Time),372764.1999999881,012_o_f_h_a.png,O,m,755,2,1,1783.5,370980.6999999881,7145,VNB,C,1
2,test,5,0.0,1-Back,1,m,Fri May 09 2025 11:18:25 GMT-0500 (Central Daylight Time),374649.0,025_y_m_d_a.png,O,m,833,3,1,1854.699999988079,372794.3000000119,7145,VNB,C,2
3,test,5,0.0,1-Back,1,z,Fri May 09 2025 11:18:25 GMT-0500 (Central Daylight Time),376329.6999999881,015_o_m_d_a.png,O,z,625,4,1,1652.699999988079,374677.0,7145,VNB,C,3
4,test,5,0.0,1-Back,1,m,Fri May 09 2025 11:18:25 GMT-0500 (Central Daylight Time),377963.10000002384,019_m_f_h_a.png,O,m,590,5,1,1603.4000000357628,376359.6999999881,7145,VNB,C,4
5,test,5,0.0,1-Back,1,m,Fri May 09 2025 11:18:25 GMT-0500 (Central Daylight Time),379596.90000003576,022_y_f_n_a.png,O,m,570,6,1,1599.6000000238419,377997.3000000119,7145,VNB,C,5
6,test,5,1.0,1-Back,1,z,Fri May 09 2025 11:18:25 GMT-0500 (Central Daylight Time),381562.8000000119,012_o_f_n_a.png,O,z,915,7,1,1937.199999988079,379625.60000002384,7145,VNB,C,6
7,test,5,0.0,1-Back,1,m,Fri May 09 2025 11:18:25 GMT-0500 (Central Daylight Time),383296.0,019_m_f_d_a.png,O,m,693,8,1,1701.5999999642372,381594.40000003576,7145,VNB,C,7
8,test,5,0.0,1-Back,1,m,Fri May 09 2025 11:18:25 GMT-0500 (Central Daylight Time),385012.6999999881,025_y_m_h_a.png,O,m,672,9,1,1684.7999999523163,383327.90000003576,7145,VNB,C,8
9,test,5,0.0,1-Back,1,m,Fri May 09 2025 11:18:25 GMT-0500 (Central Daylight Time),386927.6999999881,022_y_f_d_a.png,O,m,859,10,1,1883.2999999523163,385044.40000003576,7145,VNB,C,9
10,test,5,0.0,1-Back,1,m,Fri May 09 2025 11:18:25 GMT-0500 (Central Daylight Time),388693.60000002384,014_m_m_n_a.png,O,m,714,11,1,1732.699999988079,386960.90000003576,7145,VNB,C,10
11,test,5,1.0,1-Back,1,z,Fri May 09 2025 11:18:25 GMT-0500 (Central Daylight Time),390559.40000003576,019_m_f_n_a.png,O,z,827,12,1,1837.800000011921,388721.60000002384,7145,VNB,C,11
12,test,5,0.0,1-Back,1,m,Fri May 09 2025 11:18:25 GMT-0500 (Central Daylight Time),392460.3000000119,015_o_m_h_a.png,O,m,866,13,1,1870.699999988079,390589.60000002384,7145,VNB,C,12
13,test,5,0.0,1-Back,1,z,Fri May 09 2025 11:18:25 GMT-0500 (Central Daylight Time),394341.1999999881,014_m_m_h_a.png,O,z,816,14,1,1849.3999999761581,392491.8000000119,7145,VNB,C,13
14,test,5,1.0,1-Back,1,m,Fri May 09 2025 11:18:25 GMT-0500 (Central Daylight Time),396093.0,012_o_f_d_a.png,O,m,706,15,1,1719.0999999642372,394373.90000003576,7145,VNB,C,14
15,test,5,0.0,1-Back,1,m,Fri May 09 2025 11:18:25 GMT-0500 (Central Daylight Time),397858.40000003576,025_y_m_n_a.png,O,m,716,16,1,1734.2000000476837,396124.1999999881,7145,VNB,C,15
16,test,5,0.0,1-Back,1,m,Fri May 09 2025 11:18:25 GMT-0500 (Central Daylight Time),399589.1999999881,022_y_f_h_a.png,O,m,687,17,1,1702.7999999523163,397886.40000003576,7145,VNB,C,16
17,test,5,0.0,1-Back,1,m,Fri May 09 2025 11:18:25 GMT-0500 (Central Daylight Time),401222.40000003576,014_m_m_d_a.png,O,m,586,18,1,1602.300000011921,399620.10000002384,7145,VNB,C,17
0,prac,1,0.0,2-Back,,,Fri May 09 2025 11:18:25 GMT-0500 (Central Daylight Time),401222.40000003576,019_m_f_n_a.png,O,space,3313,1,1,1602.300000011921,399620.10000002384,7145,VNB,C,0
0,prac,1,0.0,2-Back,,,Fri May 09 2025 11:18:25 GMT-0500 (Central Daylight Time),401222.40000003576,012_o_f_h_a.png,O,space,3313,2,1,1602.300000011921,399620.10000002384,7145,VNB,C,0
1,prac,1,0.0,2-Back,1,m,Fri May 09 2025 11:18:25 GMT-0500 (Central Daylight Time),488062.90000003576,015_o_m_d_a.png,O,m,1905,3,1,2783.0,485279.90000003576,7145,VNB,C,1
2,prac,1,1.0,2-Back,1,z,Fri May 09 2025 11:18:25 GMT-0500 (Central Daylight Time),489963.3000000119,014_m_m_h_a.png,O,z,1006,4,1,1867.5,488095.8000000119,7145,VNB,C,2
3,prac,1,0.0,2-Back,1,m,Fri May 09 2025 11:18:25 GMT-0500 (Central Daylight Time),492060.90000003576,022_y_f_n_a.png,O,m,1186,5,1,2066.0,489994.90000003576,7145,VNB,C,3
3,prac,1,1.0,2-Back,0,z,Fri May 09 2025 11:18:25 GMT-0500 (Central Daylight Time),494609.3000000119,015_o_m_h_a.png,O,m,1628,6,1,2514.800000011921,492094.5,7145,VNB,C,4
3,prac,1,1.0,2-Back,0,z,Fri May 09 2025 11:18:25 GMT-0500 (Central Daylight Time),497492.60000002384,025_y_m_n_a.png,O,None,2003,7,1,2852.5,494640.10000002384,7145,VNB,C,5
3,prac,1,0.0,2-Back,0,m,Fri May 09 2025 11:18:25 GMT-0500 (Central Daylight Time),499526.1999999881,019_m_f_d_a.png,O,z,1104,8,1,2000.2999999523163,497525.90000003576,7145,VNB,C,6
4,prac,1,0.0,2-Back,1,m,Fri May 09 2025 11:18:25 GMT-0500 (Central Daylight Time),501807.90000003576,012_o_f_d_a.png,O,m,1363,9,1,2247.900000035763,499560.0,7145,VNB,C,7
5,prac,1,0.0,2-Back,1,m,Fri May 09 2025 11:18:25 GMT-0500 (Central Daylight Time),503573.90000003576,014_m_m_h_a.png,O,m,962,10,1,1734.1000000238419,501839.8000000119,7145,VNB,C,8
6,prac,1,1.0,2-Back,1,z,Fri May 09 2025 11:18:25 GMT-0500 (Central Daylight Time),505908.1999999881,022_y_f_d_a.png,O,z,1425,11,1,2302.0,503606.1999999881,7145,VNB,C,9
7,prac,1,0.0,2-Back,1,m,Fri May 09 2025 11:18:25 GMT-0500 (Central Daylight Time),508073.90000003576,015_o_m_n_a.png,O,m,1274,12,1,2133.600000023842,505940.3000000119,7145,VNB,C,10
0,test,1,0.0,2-Back,,,Fri May 09 2025 11:18:25 GMT-0500 (Central Daylight Time),508073.90000003576,025_y_m_h_a.png,O,space,4922,1,1,2133.600000023842,505940.3000000119,7145,VNB,C,0
0,test,1,0.0,2-Back,,,Fri May 09 2025 11:18:25 GMT-0500 (Central Daylight Time),508073.90000003576,012_o_f_n_a.png,O,space,4922,2,1,2133.600000023842,505940.3000000119,7145,VNB,C,0
1,test,1,0.0,2-Back,1,z,Fri May 09 2025 11:18:25 GMT-0500 (Central Daylight Time),525815.6000000238,015_o_m_h_a.png,O,z,1126,3,1,2135.900000035763,523679.6999999881,7145,VNB,C,1
2,test,1,0.0,2-Back,1,m,Fri May 09 2025 11:18:25 GMT-0500 (Central Daylight Time),527966.8000000119,019_m_f_d_a.png,O,m,1102,4,1,2121.899999976158,525844.9000000358,7145,VNB,C,2
3,test,1,1.0,2-Back,1,m,Fri May 09 2025 11:18:25 GMT-0500 (Central Daylight Time),530147.3000000119,025_y_m_n_a.png,O,m,1122,5,1,2149.600000023842,527997.6999999881,7145,VNB,C,3
3,test,1,0.0,2-Back,0,z,Fri May 09 2025 11:18:25 GMT-0500 (Central Daylight Time),532932.3000000119,022_y_f_d_a.png,O,m,1723,6,1,2768.300000011921,530164.0,7145,VNB,C,4
4,test,1,0.0,2-Back,1,m,Fri May 09 2025 11:18:25 GMT-0500 (Central Daylight Time),535246.6999999881,014_m_m_h_a.png,O,m,1260,7,1,2281.5,532965.1999999881,7145,VNB,C,5
4,test,1,1.0,2-Back,0,m,Fri May 09 2025 11:18:25 GMT-0500 (Central Daylight Time),537363.3000000119,022_y_f_n_a.png,O,z,1080,8,1,2089.399999976158,535273.9000000358,7145,VNB,C,6
5,test,1,0.0,2-Back,1,z,Fri May 09 2025 11:18:25 GMT-0500 (Central Daylight Time),539627.8000000119,012_o_f_h_a.png,O,z,1212,9,1,2232.899999976158,537394.9000000358,7145,VNB,C,7
6,test,1,0.0,2-Back,1,m,Fri May 09 2025 11:18:25 GMT-0500 (Central Daylight Time),542160.8000000119,015_o_m_d_a.png,O,m,1491,10,1,2502.899999976158,539657.9000000358,7145,VNB,C,8
6,test,1,1.0,2-Back,0,m,Fri May 09 2025 11:18:25 GMT-0500 (Central Daylight Time),544759.8000000119,014_m_m_d_a.png,O,z,1558,11,1,2567.899999976158,542191.9000000358,7145,VNB,C,9
7,test,1,0.0,2-Back,1,m,Fri May 09 2025 11:18:25 GMT-0500 (Central Daylight Time),547525.0,019_m_f_n_a.png,O,m,1718,12,1,2751.599999964237,544773.4000000358,7145,VNB,C,10
8,test,1,0.0,2-Back,1,m,Fri May 09 2025 11:18:25 GMT-0500 (Central Daylight Time),549276.0,022_y_f_h_a.png,O,m,713,13,1,1721.8999999761581,547554.1000000238,7145,VNB,C,11
9,test,1,0.0,2-Back,1,z,Fri May 09 2025 11:18:25 GMT-0500 (Central Daylight Time),551259.1000000238,014_m_m_n_a.png,O,z,931,14,1,1952.6000000238419,549306.5,7145,VNB,C,12
10,test,1,0.0,2-Back,1,m,Fri May 09 2025 11:18:25 GMT-0500 (Central Daylight Time),553525.4000000358,025_y_m_d_a.png,O,m,1231,15,1,2233.900000035763,551291.5,7145,VNB,C,13
10,test,1,1.0,2-Back,0,m,Fri May 09 2025 11:18:25 GMT-0500 (Central Daylight Time),555139.0,019_m_f_h_a.png,O,z,568,16,1,1581.8999999761581,553557.1000000238,7145,VNB,C,14
11,test,1,0.0,2-Back,1,z,Fri May 09 2025 11:18:25 GMT-0500 (Central Daylight Time),557572.9000000358,012_o_f_d_a.png,O,z,1387,17,1,2403.600000023842,555169.3000000119,7145,VNB,C,15
12,test,1,0.0,2-Back,1,m,Fri May 09 2025 11:18:25 GMT-0500 (Central Daylight Time),559855.3000000119,015_o_m_n_a.png,O,m,1244,18,1,2252.199999988079,557603.1000000238,7145,VNB,C,16
0,test,2,0.0,2-Back,,,Fri May 09 2025 11:18:25 GMT-0500 (Central Daylight Time),559855.3000000119,014_m_m_h_a.png,O,space,1490,1,1,2252.199999988079,557603.1000000238,7145,VNB,C,0
0,test,2,0.0,2-Back,,,Fri May 09 2025 11:18:25 GMT-0500 (Central Daylight Time),559855.3000000119,022_y_f_n_a.png,O,space,1490,2,1,2252.199999988079,557603.1000000238,7145,VNB,C,0
1,test,2,1.0,2-Back,1,z,Fri May 09 2025 11:18:25 GMT-0500 (Central Daylight Time),568885.3000000119,012_o_f_h_a.png,O,z,1236,3,1,2251.0,566634.3000000119,7145,VNB,C,1
2,test,2,0.0,2-Back,1,m,Fri May 09 2025 11:18:25 GMT-0500 (Central Daylight Time),571384.9000000358,015_o_m_d_a.png,O,m,1447,4,1,2469.5,568915.4000000358,7145,VNB,C,2
3,test,2,0.0,2-Back,1,m,Fri May 09 2025 11:18:25 GMT-0500 (Central Daylight Time),574053.1000000238,019_m_f_d_a.png,O,m,1634,5,1,2635.400000035763,571417.6999999881,7145,VNB,C,3
3,test,2,0.0,2-Back,0,m,Fri May 09 2025 11:18:25 GMT-0500 (Central Daylight Time),576151.4000000358,025_y_m_h_a.png,O,z,1044,6,1,2067.0,574084.4000000358,7145,VNB,C,4
4,test,2,0.0,2-Back,1,m,Fri May 09 2025 11:18:25 GMT-0500 (Central Daylight Time),578582.4000000358,012_o_f_n_a.png,O,m,1368,7,1,2399.7000000476837,576182.6999999881,7145,VNB,C,5
5,test,2,1.0,2-Back,1,z,Fri May 09 2025 11:18:25 GMT-0500 (Central Daylight Time),580381.6000000238,015_o_m_h_a.png,O,z,751,8,1,1767.800000011921,578613.8000000119,7145,VNB,C,6
6,test,2,0.0,2-Back,1,m,Fri May 09 2025 11:18:25 GMT-0500 (Central Daylight Time),582846.6999999881,022_y_f_d_a.png,O,m,1426,9,1,2436.199999988079,580410.5,7145,VNB,C,7
6,test,2,0.0,2-Back,0,m,Fri May 09 2025 11:18:25 GMT-0500 (Central Daylight Time),585497.1000000238,025_y_m_d_a.png,O,z,1607,10,1,2619.400000035763,582877.6999999881,7145,VNB,C,8
7,test,2,0.0,2-Back,1,m,Fri May 09 2025 11:18:25 GMT-0500 (Central Daylight Time),588097.0,014_m_m_n_a.png,O,m,1560,11,1,2572.199999988079,585524.8000000119,7145,VNB,C,9
8,test,2,0.0,2-Back,1,m,Fri May 09 2025 11:18:25 GMT-0500 (Central Daylight Time),589962.6000000238,019_m_f_h_a.png,O,m,822,12,1,1832.9000000357628,588129.6999999881,7145,VNB,C,10
9,test,2,1.0,2-Back,1,z,Fri May 09 2025 11:18:25 GMT-0500 (Central Daylight Time),591780.6000000238,015_o_m_n_a.png,O,z,783,13,1,1787.699999988079,589992.9000000358,7145,VNB,C,11
10,test,2,0.0,2-Back,1,m,Fri May 09 2025 11:18:25 GMT-0500 (Central Daylight Time),593894.6000000238,012_o_f_d_a.png,O,m,1054,14,1,2082.199999988079,591812.4000000358,7145,VNB,C,12
10,test,2,0.0,2-Back,0,m,Fri May 09 2025 11:18:25 GMT-0500 (Central Daylight Time),596294.3000000119,022_y_f_h_a.png,O,z,1359,15,1,2369.600000023842,593924.6999999881,7145,VNB,C,13
10,test,2,0.0,2-Back,0,z,Fri May 09 2025 11:18:25 GMT-0500 (Central Daylight Time),599193.0,014_m_m_d_a.png,O,m,1858,16,1,2868.099999964237,596324.9000000358,7145,VNB,C,14
11,test,2,0.0,2-Back,1,m,Fri May 09 2025 11:18:25 GMT-0500 (Central Daylight Time),602123.6999999881,025_y_m_n_a.png,O,m,1894,17,1,2900.2999999523163,599223.4000000358,7145,VNB,C,15
12,test,2,1.0,2-Back,1,m,Fri May 09 2025 11:18:25 GMT-0500 (Central Daylight Time),604075.0,019_m_f_n_a.png,O,m,906,18,1,1923.699999988079,602151.3000000119,7145,VNB,C,16
0,test,3,1.0,2-Back,,,Fri May 09 2025 11:18:25 GMT-0500 (Central Daylight Time),604075.0,015_o_m_n_a.png,O,space,1285,1,1,1923.699999988079,602151.3000000119,7145,VNB,C,0
0,test,3,1.0,2-Back,,,Fri May 09 2025 11:18:25 GMT-0500 (Central Daylight Time),604075.0,012_o_f_d_a.png,O,space,1285,2,1,1923.699999988079,602151.3000000119,7145,VNB,C,0
1,test,3,0.0,2-Back,1,m,Fri May 09 2025 11:18:25 GMT-0500 (Central Daylight Time),612738.0,022_y_f_h_a.png,O,m,1273,3,1,2284.599999964237,610453.4000000358,7145,VNB,C,1
2,test,3,0.0,2-Back,1,z,Fri May 09 2025 11:18:25 GMT-0500 (Central Daylight Time),614540.1000000238,019_m_f_d_a.png,O,z,766,4,1,1772.800000011921,612767.3000000119,7145,VNB,C,2
3,test,3,1.0,2-Back,1,m,Fri May 09 2025 11:18:25 GMT-0500 (Central Daylight Time),616587.6999999881,025_y_m_n_a.png,O,m,1003,5,1,2014.8999999761581,614572.8000000119,7145,VNB,C,3
3,test,3,0.0,2-Back,0,m,Fri May 09 2025 11:18:25 GMT-0500 (Central Daylight Time),618570.5,015_o_m_h_a.png,O,z,940,6,1,1963.300000011921,616607.1999999881,7145,VNB,C,4
4,test,3,0.0,2-Back,1,z,Fri May 09 2025 11:18:25 GMT-0500 (Central Daylight Time),620435.6999999881,022_y_f_n_a.png,O,z,829,7,1,1835.0999999642372,618600.6000000238,7145,VNB,C,5
5,test,3,1.0,2-Back,1,m,Fri May 09 2025 11:18:25 GMT-0500 (Central Daylight Time),622567.6999999881,014_m_m_d_a.png,O,m,1082,8,1,2103.2999999523163,620464.4000000358,7145,VNB,C,6
6,test,3,0.0,2-Back,1,m,Fri May 09 2025 11:18:25 GMT-0500 (Central Daylight Time),625302.0,025_y_m_d_a.png,O,m,1671,9,1,2704.5,622597.5,7145,VNB,C,7
6,test,3,0.0,2-Back,0,m,Fri May 09 2025 11:18:25 GMT-0500 (Central Daylight Time),627118.1999999881,012_o_f_h_a.png,O,z,768,10,1,1783.5999999642372,625334.6000000238,7145,VNB,C,8
6,test,3,1.0,2-Back,0,m,Fri May 09 2025 11:18:25 GMT-0500 (Central Daylight Time),630167.3000000119,019_m_f_n_a.png,O,None,2015,11,1,3023.5,627143.8000000119,7145,VNB,C,9
7,test,3,1.0,2-Back,1,z,Fri May 09 2025 11:18:25 GMT-0500 (Central Daylight Time),631783.6999999881,014_m_m_h_a.png,O,z,561,12,1,1583.3999999761581,630200.3000000119,7145,VNB,C,10
7,test,3,0.0,2-Back,0,m,Fri May 09 2025 11:18:25 GMT-0500 (Central Daylight Time),634231.3000000119,022_y_f_d_a.png,O,z,1406,13,1,2416.300000011921,631815.0,7145,VNB,C,11
8,test,3,0.0,2-Back,1,m,Fri May 09 2025 11:18:25 GMT-0500 (Central Daylight Time),636997.1999999881,012_o_f_n_a.png,O,m,1729,14,1,2736.199999988079,634261.0,7145,VNB,C,12
9,test,3,0.0,2-Back,1,z,Fri May 09 2025 11:18:25 GMT-0500 (Central Daylight Time),638714.0,015_o_m_d_a.png,O,z,656,15,1,1682.5,637031.5,7145,VNB,C,13
10,test,3,1.0,2-Back,1,m,Fri May 09 2025 11:18:25 GMT-0500 (Central Daylight Time),640730.9000000358,019_m_f_h_a.png,O,m,957,16,1,1984.7000000476837,638746.1999999881,7145,VNB,C,14
10,test,3,0.0,2-Back,0,m,Fri May 09 2025 11:18:25 GMT-0500 (Central Daylight Time),643096.3000000119,014_m_m_n_a.png,O,z,1325,17,1,2332.800000011921,640763.5,7145,VNB,C,15
11,test,3,0.0,2-Back,1,z,Fri May 09 2025 11:18:25 GMT-0500 (Central Daylight Time),645763.8000000119,025_y_m_h_a.png,O,z,1633,18,1,2636.199999988079,643127.6000000238,7145,VNB,C,16
0,test,4,0.0,2-Back,,,Fri May 09 2025 11:18:25 GMT-0500 (Central Daylight Time),645763.8000000119,019_m_f_n_a.png,O,space,1324,1,1,2636.199999988079,643127.6000000238,7145,VNB,C,0
0,test,4,0.0,2-Back,,,Fri May 09 2025 11:18:25 GMT-0500 (Central Daylight Time),645763.8000000119,015_o_m_n_a.png,O,space,1324,2,1,2636.199999988079,643127.6000000238,7145,VNB,C,0
1,test,4,1.0,2-Back,1,m,Fri May 09 2025 11:18:25 GMT-0500 (Central Daylight Time),655244.1000000238,025_y_m_h_a.png,O,m,1817,3,1,2833.900000035763,652410.1999999881,7145,VNB,C,1
1,test,4,1.0,2-Back,0,m,Fri May 09 2025 11:18:25 GMT-0500 (Central Daylight Time),657891.0,012_o_f_d_a.png,O,z,1614,4,1,2620.300000011921,655270.6999999881,7145,VNB,C,2
1,test,4,0.0,2-Back,0,z,Fri May 09 2025 11:18:25 GMT-0500 (Central Daylight Time),660957.9000000358,015_o_m_h_a.png,O,None,2017,5,1,3035.300000011921,657922.6000000238,7145,VNB,C,3
1,test,4,0.0,2-Back,0,m,Fri May 09 2025 11:18:25 GMT-0500 (Central Daylight Time),663204.8000000119,014_m_m_n_a.png,O,z,1197,6,1,2213.899999976158,660990.9000000358,7145,VNB,C,4
1,test,4,0.0,2-Back,0,m,Fri May 09 2025 11:18:25 GMT-0500 (Central Daylight Time),665259.4000000358,019_m_f_d_a.png,O,z,1018,7,1,2022.300000011921,663237.1000000238,7145,VNB,C,5
2,test,4,0.0,2-Back,1,z,Fri May 09 2025 11:18:25 GMT-0500 (Central Daylight Time),667055.5,022_y_f_n_a.png,O,z,736,8,1,1764.8999999761581,665290.6000000238,7145,VNB,C,6
2,test,4,1.0,2-Back,0,m,Fri May 09 2025 11:18:25 GMT-0500 (Central Daylight Time),669253.6000000238,012_o_f_h_a.png,O,z,1136,9,1,2167.199999988079,667086.4000000358,7145,VNB,C,7
2,test,4,0.0,2-Back,0,m,Fri May 09 2025 11:18:25 GMT-0500 (Central Daylight Time),671336.8000000119,014_m_m_h_a.png,O,z,1034,10,1,2053.0,669283.8000000119,7145,VNB,C,8
3,test,4,0.0,2-Back,1,m,Fri May 09 2025 11:18:25 GMT-0500 (Central Daylight Time),673319.0,022_y_f_d_a.png,O,m,919,11,1,1948.800000011921,671370.1999999881,7145,VNB,C,9
4,test,4,0.0,2-Back,1,m,Fri May 09 2025 11:18:25 GMT-0500 (Central Daylight Time),675800.9000000358,025_y_m_n_a.png,O,m,1433,12,1,2451.900000035763,673349.0,7145,VNB,C,10
5,test,4,0.0,2-Back,1,z,Fri May 09 2025 11:18:25 GMT-0500 (Central Daylight Time),677734.5,015_o_m_d_a.png,O,z,885,13,1,1899.300000011921,675835.1999999881,7145,VNB,C,11
5,test,4,1.0,2-Back,0,m,Fri May 09 2025 11:18:25 GMT-0500 (Central Daylight Time),679534.4000000358,019_m_f_h_a.png,O,z,752,14,1,1774.7000000476837,677759.6999999881,7145,VNB,C,12
6,test,4,1.0,2-Back,1,m,Fri May 09 2025 11:18:25 GMT-0500 (Central Daylight Time),682416.1999999881,022_y_f_h_a.png,O,m,1826,15,1,2848.399999976158,679567.8000000119,7145,VNB,C,13
6,test,4,0.0,2-Back,0,m,Fri May 09 2025 11:18:25 GMT-0500 (Central Daylight Time),684516.6999999881,012_o_f_n_a.png,O,z,1065,16,1,2068.699999988079,682448.0,7145,VNB,C,14
7,test,4,0.0,2-Back,1,m,Fri May 09 2025 11:18:25 GMT-0500 (Central Daylight Time),686900.0,025_y_m_d_a.png,O,m,1334,17,1,2350.0,684550.0,7145,VNB,C,15
8,test,4,1.0,2-Back,1,m,Fri May 09 2025 11:18:25 GMT-0500 (Central Daylight Time),689180.8000000119,014_m_m_d_a.png,O,m,1247,18,1,2253.0,686927.8000000119,7145,VNB,C,16
0,test,5,1.0,2-Back,,,Fri May 09 2025 11:18:25 GMT-0500 (Central Daylight Time),689180.8000000119,022_y_f_d_a.png,O,space,1204,1,1,2253.0,686927.8000000119,7145,VNB,C,0
0,test,5,1.0,2-Back,,,Fri May 09 2025 11:18:25 GMT-0500 (Central Daylight Time),689180.8000000119,012_o_f_h_a.png,O,space,1204,2,1,2253.0,686927.8000000119,7145,VNB,C,0
1,test,5,1.0,2-Back,1,z,Fri May 09 2025 11:18:25 GMT-0500 (Central Daylight Time),698346.4000000358,015_o_m_d_a.png,O,z,1616,3,1,2634.5,695711.9000000358,7145,VNB,C,1
2,test,5,1.0,2-Back,1,m,Fri May 09 2025 11:18:25 GMT-0500 (Central Daylight Time),700628.8000000119,019_m_f_n_a.png,O,m,1222,4,1,2251.800000011921,698377.0,7145,VNB,C,2
3,test,5,0.0,2-Back,1,m,Fri May 09 2025 11:18:25 GMT-0500 (Central Daylight Time),703309.8000000119,014_m_m_h_a.png,O,m,1621,5,1,2648.199999988079,700661.6000000238,7145,VNB,C,3
4,test,5,0.0,2-Back,1,z,Fri May 09 2025 11:18:25 GMT-0500 (Central Daylight Time),705227.6000000238,022_y_f_n_a.png,O,z,875,6,1,1888.300000011921,703339.3000000119,7145,VNB,C,4
5,test,5,0.0,2-Back,1,m,Fri May 09 2025 11:18:25 GMT-0500 (Central Daylight Time),707276.3000000119,012_o_f_d_a.png,O,m,1014,7,1,2016.699999988079,705259.6000000238,7145,VNB,C,5
6,test,5,0.0,2-Back,1,m,Fri May 09 2025 11:18:25 GMT-0500 (Central Daylight Time),710058.1999999881,015_o_m_h_a.png,O,m,1740,8,1,2752.5,707305.6999999881,7145,VNB,C,6
7,test,5,1.0,2-Back,1,z,Fri May 09 2025 11:18:25 GMT-0500 (Central Daylight Time),712157.5,019_m_f_d_a.png,O,z,1054,9,1,2068.300000011921,710089.1999999881,7145,VNB,C,7
8,test,5,0.0,2-Back,1,m,Fri May 09 2025 11:18:25 GMT-0500 (Central Daylight Time),714139.6999999881,025_y_m_n_a.png,O,m,947,10,1,1952.5999999642372,712187.1000000238,7145,VNB,C,8
9,test,5,0.0,2-Back,1,m,Fri May 09 2025 11:18:25 GMT-0500 (Central Daylight Time),716423.0,014_m_m_n_a.png,O,m,1233,11,1,2249.599999964237,714173.4000000358,7145,VNB,C,9
9,test,5,0.0,2-Back,0,m,Fri May 09 2025 11:18:25 GMT-0500 (Central Daylight Time),718439.1999999881,022_y_f_h_a.png,O,z,962,12,1,1983.7999999523163,716455.4000000358,7145,VNB,C,10
9,test,5,0.0,2-Back,0,m,Fri May 09 2025 11:18:25 GMT-0500 (Central Daylight Time),721289.1999999881,025_y_m_d_a.png,O,z,1784,13,1,2817.7999999523163,718471.4000000358,7145,VNB,C,11
10,test,5,1.0,2-Back,1,z,Fri May 09 2025 11:18:25 GMT-0500 (Central Daylight Time),723603.5,019_m_f_h_a.png,O,z,1281,14,1,2296.599999964237,721306.9000000358,7145,VNB,C,12
11,test,5,0.0,2-Back,1,m,Fri May 09 2025 11:18:25 GMT-0500 (Central Daylight Time),725736.9000000358,015_o_m_n_a.png,O,m,1094,15,1,2102.600000023842,723634.3000000119,7145,VNB,C,13
12,test,5,0.0,2-Back,1,m,Fri May 09 2025 11:18:25 GMT-0500 (Central Daylight Time),727901.0,014_m_m_d_a.png,O,m,1127,16,1,2133.5,725767.5,7145,VNB,C,14
12,test,5,0.0,2-Back,0,z,Fri May 09 2025 11:18:25 GMT-0500 (Central Daylight Time),730167.9000000358,012_o_f_n_a.png,O,m,1217,17,1,2234.5,727933.4000000358,7145,VNB,C,15
13,test,5,1.0,2-Back,1,m,Fri May 09 2025 11:18:25 GMT-0500 (Central Daylight Time),732167.6999999881,025_y_m_h_a.png,O,m,951,18,1,1970.5999999642372,730197.1000000238,7145,VNB,C,16
