Q,Q1,Q2,Q3,Q4,acc_sum,block,block_c,correct,correct_response,datetime,endtime,project,response,response_time,row_sel,session_number,squiggle1,squiggle1x,squiggle1y,squiggle2,squiggle2x,squiggle2y,squiggle3,squiggle3x,squiggle3y,squiggle4,squiggle4x,squiggle4y,start_end,starttime,subject_id,target_congruent,task,task_vers,testsquiggle,testsquigglex,testsquiggley,time_practice_delay,time_practice_fixation,time_practice_stimuli,time_practice_study,time_test_delay,time_test_fixation,time_test_stimuli,time_test_study,trial
1,1,0,0,0,0,prac,1,0,z,Tue May 13 2025 14:04:33 GMT-0500 (Central Daylight Time),123563.80000001192,I,m,1496,1,1,16.bmp,-120,-120,17.bmp,120,-120,18.bmp,-120,120,19.bmp,120,120,10310.600000023842,113253.19999998808,8047,yes,SM,B,16.bmp,-120,-120,117394,111365,119410,113379,,,,,1
3,0,0,1,0,1,prac,1,1,m,Tue May 13 2025 14:04:33 GMT-0500 (Central Daylight Time),134376.80000001192,I,m,1999,2,1,20.bmp,-120,-120,21.bmp,120,-120,22.bmp,-120,120,23.bmp,120,120,10809.5,123567.30000001192,8047,no,SM,B,23.bmp,-120,120,127707,121679,129723,123692,,,,,2
4,0,0,0,1,2,prac,1,1,m,Tue May 13 2025 14:04:33 GMT-0500 (Central Daylight Time),144473.69999998808,I,m,1281,3,1,24.bmp,-120,-120,25.bmp,120,-120,26.bmp,-120,120,27.bmp,120,120,10093.099999964237,134380.60000002384,8047,no,SM,B,24.bmp,120,120,138521,132493,140537,134505,,,,,3
2,0,1,0,0,3,prac,1,1,z,Tue May 13 2025 14:04:33 GMT-0500 (Central Daylight Time),154587.10000002384,I,z,1245,4,1,28.bmp,-120,-120,29.bmp,120,-120,30.bmp,-120,120,31.bmp,120,120,10109.600000023842,144477.5,8047,yes,SM,B,29.bmp,120,-120,148617,142590,150677,144602,,,,,4
3,0,0,1,0,4,prac,1,1,z,Tue May 13 2025 14:04:33 GMT-0500 (Central Daylight Time),164750.39999997616,I,z,1335,5,1,32.bmp,-120,-120,33.bmp,120,-120,34.bmp,-120,120,35.bmp,120,120,10159.599999964237,154590.80000001192,8047,yes,SM,B,34.bmp,-120,120,158730,152703,160747,154716,,,,,5
1,1,0,0,0,5,prac,1,1,m,Tue May 13 2025 14:04:33 GMT-0500 (Central Daylight Time),174847.5,I,m,1275,6,1,36.bmp,-120,-120,37.bmp,120,-120,38.bmp,-120,120,39.bmp,120,120,10093.699999988079,164753.80000001192,8047,no,SM,B,39.bmp,-120,-120,168894,162866,170911,164879,,,,,6
2,0,1,0,0,6,prac,1,1,m,Tue May 13 2025 14:04:33 GMT-0500 (Central Daylight Time),184794.19999998808,I,m,1123,7,1,40.bmp,-120,-120,41.bmp,120,-120,42.bmp,-120,120,43.bmp,120,120,9943.199999988079,174851.0,8047,no,SM,B,40.bmp,120,-120,178991,172963,181007,174976,,,,,7
4,0,0,0,1,7,prac,1,1,z,Tue May 13 2025 14:04:33 GMT-0500 (Central Daylight Time),195407.69999998808,I,z,1783,8,1,44.bmp,-120,-120,45.bmp,120,-120,46.bmp,-120,120,47.bmp,120,120,10609.300000011921,184798.39999997616,8047,yes,SM,B,47.bmp,120,120,188938,182911,190955,184923,,,,,8
4,0,0,0,1,1,test,1,1,m,Tue May 13 2025 14:04:33 GMT-0500 (Central Daylight Time),215718.0,I,m,1237,1,1,48.bmp,-120,-120,49.bmp,120,-120,50.bmp,-120,120,43.bmp,120,120,9294.600000023842,206423.39999997616,8047,yes,SM,B,50.bmp,120,120,188938,182911,190955,184923,210564.0,204536.0,212581.0,206549.0,1
2,0,1,0,0,2,test,1,1,m,Tue May 13 2025 14:04:33 GMT-0500 (Central Daylight Time),225231.80000001192,I,m,1452,2,1,1.bmp,-120,-120,2.bmp,120,-120,3.bmp,-120,120,4.bmp,120,120,9510.400000035763,215721.39999997616,8047,yes,SM,B,3.bmp,120,-120,188938,182911,190955,184923,219862.0,213834.0,221878.0,215846.0,2
1,1,0,0,0,3,test,1,1,z,Tue May 13 2025 14:04:33 GMT-0500 (Central Daylight Time),234845.19999998808,I,z,1554,3,1,5.bmp,-120,-120,6.bmp,120,-120,7.bmp,-120,120,8.bmp,120,120,9609.699999988079,225235.5,8047,yes,SM,B,5.bmp,-120,-120,188938,182911,190955,184923,229375.0,223348.0,231392.0,225360.0,3
3,0,0,1,0,3,test,1,0,m,Tue May 13 2025 14:04:33 GMT-0500 (Central Daylight Time),244725.39999997616,I,z,1828,4,1,9.bmp,-120,-120,10.bmp,120,-120,11.bmp,-120,120,12.bmp,120,120,9876.399999976158,234849.0,8047,yes,SM,B,9.bmp,-120,120,188938,182911,190955,184923,238989.0,232961.0,241006.0,234974.0,4
2,0,1,0,0,4,test,1,1,z,Tue May 13 2025 14:04:33 GMT-0500 (Central Daylight Time),254172.60000002384,I,z,1372,5,1,13.bmp,-120,-120,14.bmp,120,-120,15.bmp,-120,120,16.bmp,120,120,9444.200000047684,244728.39999997616,8047,yes,SM,B,14.bmp,120,-120,188938,182911,190955,184923,248886.0,242841.0,250902.0,244879.0,5
3,0,0,1,0,5,test,1,1,z,Tue May 13 2025 14:04:33 GMT-0500 (Central Daylight Time),263902.8000000119,I,z,1669,6,1,17.bmp,-120,-120,18.bmp,120,-120,19.bmp,-120,120,20.bmp,120,120,9727.100000023842,254175.69999998808,8047,yes,SM,B,19.bmp,-120,120,188938,182911,190955,184923,258316.0,252288.0,260333.0,254301.0,6
4,0,0,0,1,6,test,1,1,z,Tue May 13 2025 14:04:33 GMT-0500 (Central Daylight Time),273233.10000002384,I,z,1267,7,1,21.bmp,-120,-120,22.bmp,120,-120,23.bmp,-120,120,24.bmp,120,120,9326.700000047684,263906.39999997616,8047,yes,SM,B,24.bmp,120,120,188938,182911,190955,184923,268046.0,262019.0,270063.0,264031.0,7
2,0,1,0,0,6,test,1,0,m,Tue May 13 2025 14:04:33 GMT-0500 (Central Daylight Time),283130.0,I,z,1833,8,1,25.bmp,-120,-120,26.bmp,120,-120,27.bmp,-120,120,28.bmp,120,120,9893.300000011921,273236.6999999881,8047,yes,SM,B,25.bmp,120,-120,188938,182911,190955,184923,277377.0,271349.0,279393.0,273362.0,8
3,0,0,1,0,7,test,1,1,m,Tue May 13 2025 14:04:33 GMT-0500 (Central Daylight Time),292510.39999997616,I,m,1328,9,1,29.bmp,-120,-120,30.bmp,120,-120,31.bmp,-120,120,32.bmp,120,120,9374.299999952316,283136.10000002384,8047,yes,SM,B,30.bmp,-120,120,188938,182911,190955,184923,287274.0,281248.0,289290.0,283259.0,9
4,0,0,0,1,8,test,1,1,z,Tue May 13 2025 14:04:33 GMT-0500 (Central Daylight Time),302074.1999999881,I,z,1515,10,1,37.bmp,-120,-120,38.bmp,120,-120,39.bmp,-120,120,40.bmp,120,120,9560.399999976158,292513.8000000119,8047,yes,SM,B,40.bmp,120,120,188938,182911,190955,184923,296654.0,290626.0,298671.0,292639.0,10
3,0,0,1,0,9,test,1,1,z,Tue May 13 2025 14:04:33 GMT-0500 (Central Daylight Time),311588.0,I,z,1464,11,1,33.bmp,-120,-120,34.bmp,120,-120,35.bmp,-120,120,36.bmp,120,120,9510.699999988079,302077.3000000119,8047,yes,SM,B,35.bmp,-120,120,188938,182911,190955,184923,306218.0,300190.0,308234.0,302203.0,11
2,0,1,0,0,10,test,1,1,m,Tue May 13 2025 14:04:33 GMT-0500 (Central Daylight Time),321001.5,I,m,1358,12,1,41.bmp,-120,-120,42.bmp,120,-120,43.bmp,-120,120,44.bmp,120,120,9410.100000023842,311591.39999997616,8047,yes,SM,B,41.bmp,120,-120,188938,182911,190955,184923,315731.0,309704.0,317748.0,311716.0,12
3,0,0,1,0,11,test,1,1,m,Tue May 13 2025 14:04:33 GMT-0500 (Central Daylight Time),330282.1999999881,I,m,1232,13,1,45.bmp,-120,-120,46.bmp,120,-120,47.bmp,-120,120,48.bmp,120,120,9277.199999988079,321005.0,8047,yes,SM,B,46.bmp,-120,120,188938,182911,190955,184923,325145.0,319117.0,327162.0,321130.0,13
1,1,0,0,0,12,test,1,1,z,Tue May 13 2025 14:04:33 GMT-0500 (Central Daylight Time),339562.39999997616,I,z,1224,14,1,49.bmp,-120,-120,50.bmp,120,-120,4.bmp,-120,120,1.bmp,120,120,9276.599999964237,330285.8000000119,8047,yes,SM,B,49.bmp,-120,-120,188938,182911,190955,184923,334425.0,328398.0,336442.0,330410.0,14
4,0,0,0,1,12,test,1,0,m,Tue May 13 2025 14:04:33 GMT-0500 (Central Daylight Time),349375.89999997616,I,z,1752,15,1,10.bmp,-120,-120,11.bmp,120,-120,12.bmp,-120,120,13.bmp,120,120,9810.099999964237,339565.8000000119,8047,yes,SM,B,11.bmp,120,120,188938,182911,190955,184923,343706.0,337678.0,345722.0,339691.0,15
1,1,0,0,0,13,test,1,1,m,Tue May 13 2025 14:04:33 GMT-0500 (Central Daylight Time),358973.0,I,m,1538,16,1,2.bmp,-120,-120,3.bmp,120,-120,4.bmp,-120,120,5.bmp,120,120,9593.199999988079,349379.8000000119,8047,yes,SM,B,5.bmp,-120,-120,188938,182911,190955,184923,353520.0,347492.0,355536.0,349504.0,16
3,0,0,1,0,13,test,1,0,m,Tue May 13 2025 14:04:33 GMT-0500 (Central Daylight Time),369036.5,I,None,2015,17,1,22.bmp,-120,-120,23.bmp,120,-120,24.bmp,-120,120,25.bmp,120,120,10060.0,358976.5,8047,yes,SM,B,22.bmp,-120,120,188938,182911,190955,184923,363117.0,357089.0,365133.0,359102.0,17
1,1,0,0,0,14,test,1,1,z,Tue May 13 2025 14:04:33 GMT-0500 (Central Daylight Time),377983.8000000119,I,z,893,18,1,6.bmp,-120,-120,7.bmp,120,-120,8.bmp,-120,120,9.bmp,120,120,8944.199999988079,369039.60000002384,8047,yes,SM,B,6.bmp,-120,-120,188938,182911,190955,184923,373180.0,367152.0,375197.0,369165.0,18
2,0,1,0,0,14,test,1,0,z,Tue May 13 2025 14:04:33 GMT-0500 (Central Daylight Time),388087.60000002384,I,None,2056,19,1,26.bmp,-120,-120,27.bmp,120,-120,28.bmp,-120,120,29.bmp,120,120,10100.600000023842,377987.0,8047,yes,SM,B,27.bmp,120,-120,188938,182911,190955,184923,382127.0,376099.0,384144.0,378112.0,19
3,0,0,1,0,15,test,1,1,z,Tue May 13 2025 14:04:33 GMT-0500 (Central Daylight Time),397377.89999997616,I,z,1233,20,1,30.bmp,-120,-120,31.bmp,120,-120,32.bmp,-120,120,33.bmp,120,120,9284.699999988079,388093.1999999881,8047,yes,SM,B,32.bmp,-120,120,188938,182911,190955,184923,392224.0,386205.0,394241.0,388209.0,20
1,1,0,0,0,16,test,1,1,m,Tue May 13 2025 14:04:33 GMT-0500 (Central Daylight Time),407324.39999997616,I,m,1896,21,1,14.bmp,-120,-120,15.bmp,120,-120,16.bmp,-120,120,17.bmp,120,120,9943.5,397380.89999997616,8047,yes,SM,B,16.bmp,-120,-120,188938,182911,190955,184923,401521.0,395493.0,403538.0,397506.0,21
4,0,0,0,1,17,test,1,1,z,Tue May 13 2025 14:04:33 GMT-0500 (Central Daylight Time),416438.1999999881,I,z,1061,22,1,18.bmp,-120,-120,19.bmp,120,-120,20.bmp,-120,120,21.bmp,120,120,9110.800000011921,407327.39999997616,8047,yes,SM,B,21.bmp,120,120,188938,182911,190955,184923,411468.0,405440.0,413484.0,407453.0,22
1,1,0,0,0,18,test,1,1,m,Tue May 13 2025 14:04:33 GMT-0500 (Central Daylight Time),425952.0,I,m,1451,23,1,34.bmp,-120,-120,35.bmp,120,-120,36.bmp,-120,120,37.bmp,120,120,9510.800000011921,416441.1999999881,8047,yes,SM,B,37.bmp,-120,-120,188938,182911,190955,184923,420582.0,414553.0,422598.0,416567.0,23
2,0,1,0,0,19,test,1,1,z,Tue May 13 2025 14:04:33 GMT-0500 (Central Daylight Time),435632.3000000119,I,z,1618,24,1,42.bmp,-120,-120,43.bmp,120,-120,44.bmp,-120,120,45.bmp,120,120,9677.0,425955.3000000119,8047,yes,SM,B,43.bmp,120,-120,188938,182911,190955,184923,430096.0,424068.0,432112.0,426080.0,24
4,0,0,0,1,20,test,1,1,m,Tue May 13 2025 14:04:33 GMT-0500 (Central Daylight Time),444812.89999997616,I,m,1122,25,1,46.bmp,-120,-120,47.bmp,120,-120,48.bmp,-120,120,49.bmp,120,120,9177.699999988079,435635.1999999881,8047,yes,SM,B,48.bmp,120,120,188938,182911,190955,184923,439776.0,433747.0,441792.0,435761.0,25
1,1,0,0,0,21,test,1,1,z,Tue May 13 2025 14:04:33 GMT-0500 (Central Daylight Time),454343.1999999881,I,z,1477,26,1,38.bmp,-120,-120,39.bmp,120,-120,40.bmp,-120,120,41.bmp,120,120,9527.099999964237,444816.10000002384,8047,yes,SM,B,38.bmp,-120,-120,188938,182911,190955,184923,448956.0,442928.0,450973.0,444941.0,26
4,0,0,0,1,22,test,1,1,z,Tue May 13 2025 14:04:33 GMT-0500 (Central Daylight Time),463357.10000002384,I,z,963,27,1,50.bmp,-120,-120,11.bmp,120,-120,1.bmp,-120,120,2.bmp,120,120,9010.600000023842,454346.5,8047,yes,SM,B,2.bmp,120,120,188938,182911,190955,184923,458487.0,452459.0,460503.0,454471.0,27
3,0,0,1,0,22,test,1,0,m,Tue May 13 2025 14:04:33 GMT-0500 (Central Daylight Time),472720.8000000119,I,z,1307,28,1,3.bmp,-120,-120,4.bmp,120,-120,5.bmp,-120,120,6.bmp,120,120,9360.100000023842,463360.6999999881,8047,yes,SM,B,3.bmp,-120,120,188938,182911,190955,184923,467501.0,461477.0,469518.0,463485.0,28
2,0,1,0,0,22,test,1,0,z,Tue May 13 2025 14:04:33 GMT-0500 (Central Daylight Time),482350.60000002384,I,m,1577,29,1,7.bmp,-120,-120,8.bmp,120,-120,9.bmp,-120,120,10.bmp,120,120,9626.200000047684,472724.39999997616,8047,yes,SM,B,8.bmp,120,-120,188938,182911,190955,184923,476864.0,470837.0,478881.0,472849.0,29
3,0,0,1,0,23,test,1,1,z,Tue May 13 2025 14:04:33 GMT-0500 (Central Daylight Time),492081.1999999881,I,z,1675,30,1,11.bmp,-120,-120,12.bmp,120,-120,13.bmp,-120,120,14.bmp,120,120,9725.300000011921,482355.89999997616,8047,yes,SM,B,13.bmp,-120,120,188938,182911,190955,184923,486495.0,480468.0,488511.0,482479.0,30
1,1,0,0,0,24,test,1,1,z,Tue May 13 2025 14:04:33 GMT-0500 (Central Daylight Time),501661.60000002384,I,z,1521,31,1,15.bmp,-120,-120,16.bmp,120,-120,17.bmp,-120,120,18.bmp,120,120,9576.900000035763,492084.6999999881,8047,yes,SM,B,15.bmp,-120,-120,188938,182911,190955,184923,496225.0,490197.0,498241.0,492210.0,31
2,0,1,0,0,25,test,1,1,m,Tue May 13 2025 14:04:33 GMT-0500 (Central Daylight Time),511076.3000000119,I,m,1364,32,1,19.bmp,-120,-120,20.bmp,120,-120,21.bmp,-120,120,22.bmp,120,120,9411.600000023842,501664.6999999881,8047,yes,SM,B,19.bmp,120,-120,188938,182911,190955,184923,505805.0,499777.0,507822.0,501790.0,32
4,0,0,0,1,25,test,1,0,z,Tue May 13 2025 14:04:33 GMT-0500 (Central Daylight Time),520239.10000002384,I,m,1111,33,1,31.bmp,-120,-120,32.bmp,120,-120,33.bmp,-120,120,34.bmp,120,120,9159.600000023842,511079.5,8047,yes,SM,B,34.bmp,120,120,188938,182911,190955,184923,515219.0,509192.0,517235.0,511204.0,33
2,0,1,0,0,26,test,1,1,z,Tue May 13 2025 14:04:33 GMT-0500 (Central Daylight Time),529653.0,I,z,1355,34,1,23.bmp,-120,-120,24.bmp,120,-120,25.bmp,-120,120,26.bmp,120,120,9410.800000011921,520242.1999999881,8047,yes,SM,B,24.bmp,120,-120,188938,182911,190955,184923,524383.0,518354.0,526399.0,520367.0,34
4,0,0,0,1,27,test,1,1,m,Tue May 13 2025 14:04:33 GMT-0500 (Central Daylight Time),539233.0,I,m,1525,35,1,27.bmp,-120,-120,28.bmp,120,-120,29.bmp,-120,120,30.bmp,120,120,9576.600000023842,529656.3999999762,8047,yes,SM,B,29.bmp,120,120,188938,182911,190955,184923,533796.0,527769.0,535813.0,529781.0,35
3,0,0,1,0,27,test,1,0,m,Tue May 13 2025 14:04:33 GMT-0500 (Central Daylight Time),548396.8999999762,I,z,1105,36,1,35.bmp,-120,-120,36.bmp,120,-120,37.bmp,-120,120,38.bmp,120,120,9160.799999952316,539236.1000000238,8047,yes,SM,B,35.bmp,-120,120,188938,182911,190955,184923,543377.0,537348.0,545393.0,539362.0,36
1,1,0,0,0,28,test,1,1,m,Tue May 13 2025 14:04:33 GMT-0500 (Central Daylight Time),557327.3999999762,I,m,877,37,1,39.bmp,-120,-120,40.bmp,120,-120,41.bmp,-120,120,42.bmp,120,120,8927.399999976158,548400.0,8047,yes,SM,B,40.bmp,-120,-120,188938,182911,190955,184923,552540.0,546512.0,554557.0,548525.0,37
2,0,1,0,0,29,test,1,1,m,Tue May 13 2025 14:04:33 GMT-0500 (Central Daylight Time),566674.3000000119,I,m,1298,38,1,43.bmp,-120,-120,44.bmp,120,-120,45.bmp,-120,120,46.bmp,120,120,9343.5,557330.8000000119,8047,yes,SM,B,45.bmp,120,-120,188938,182911,190955,184923,561471.0,555443.0,563488.0,557456.0,38
4,0,0,0,1,30,test,1,1,z,Tue May 13 2025 14:04:33 GMT-0500 (Central Daylight Time),576205.0,I,z,1472,39,1,47.bmp,-120,-120,48.bmp,120,-120,49.bmp,-120,120,50.bmp,120,120,9527.300000011921,566677.6999999881,8047,yes,SM,B,50.bmp,120,120,188938,182911,190955,184923,570818.0,564790.0,572834.0,566803.0,39
3,0,0,1,0,31,test,1,1,m,Tue May 13 2025 14:04:33 GMT-0500 (Central Daylight Time),585502.0,I,m,1237,40,1,4.bmp,-120,-120,5.bmp,120,-120,6.bmp,-120,120,7.bmp,120,120,9293.600000023842,576208.3999999762,8047,yes,SM,B,5.bmp,-120,120,188938,182911,190955,184923,580348.0,574321.0,582365.0,576333.0,40
1,1,0,0,0,32,test,1,1,z,Tue May 13 2025 14:04:33 GMT-0500 (Central Daylight Time),594582.6000000238,I,z,1019,41,1,8.bmp,-120,-120,9.bmp,120,-120,10.bmp,-120,120,11.bmp,120,120,9077.200000047684,585505.3999999762,8047,yes,SM,B,8.bmp,-120,-120,188938,182911,190955,184923,589646.0,583618.0,591663.0,585630.0,41
4,0,0,0,1,33,test,1,1,z,Tue May 13 2025 14:04:33 GMT-0500 (Central Daylight Time),603946.1999999881,I,z,1307,42,1,12.bmp,-120,-120,13.bmp,120,-120,14.bmp,-120,120,15.bmp,120,120,9360.599999964237,594585.6000000238,8047,yes,SM,B,15.bmp,120,120,188938,182911,190955,184923,598726.0,592698.0,600742.0,594711.0,42
1,1,0,0,0,34,test,1,1,z,Tue May 13 2025 14:04:33 GMT-0500 (Central Daylight Time),613359.8999999762,I,z,1352,43,1,16.bmp,-120,-120,17.bmp,120,-120,18.bmp,-120,120,19.bmp,120,120,9410.799999952316,603949.1000000238,8047,yes,SM,B,16.bmp,-120,-120,188938,182911,190955,184923,608090.0,602061.0,610106.0,604075.0,43
4,0,0,0,1,35,test,1,1,m,Tue May 13 2025 14:04:33 GMT-0500 (Central Daylight Time),622290.3999999762,I,m,866,44,1,4.bmp,-120,-120,1.bmp,120,-120,2.bmp,-120,120,3.bmp,120,120,8927.199999988079,613363.1999999881,8047,yes,SM,B,4.bmp,120,120,188938,182911,190955,184923,617504.0,611475.0,619520.0,613489.0,44
1,1,0,0,0,36,test,1,1,m,Tue May 13 2025 14:04:33 GMT-0500 (Central Daylight Time),631754.6000000238,I,m,1408,45,1,28.bmp,-120,-120,29.bmp,120,-120,30.bmp,-120,120,31.bmp,120,120,9460.900000035763,622293.6999999881,8047,yes,SM,B,31.bmp,-120,-120,188938,182911,190955,184923,626434.0,620406.0,628450.0,622419.0,45
1,1,0,0,0,37,test,1,1,m,Tue May 13 2025 14:04:33 GMT-0500 (Central Daylight Time),640717.8999999762,I,m,912,46,1,20.bmp,-120,-120,21.bmp,120,-120,22.bmp,-120,120,23.bmp,120,120,8960.099999964237,631757.8000000119,8047,yes,SM,B,21.bmp,-120,-120,188938,182911,190955,184923,635898.0,629870.0,637914.0,631883.0,46
3,0,0,1,0,38,test,1,1,z,Tue May 13 2025 14:04:33 GMT-0500 (Central Daylight Time),650598.1000000238,I,z,1820,47,1,24.bmp,-120,-120,25.bmp,120,-120,26.bmp,-120,120,27.bmp,120,120,9877.0,640721.1000000238,8047,yes,SM,B,26.bmp,-120,120,188938,182911,190955,184923,644862.0,638833.0,646878.0,640846.0,47
3,0,0,1,0,39,test,1,1,z,Tue May 13 2025 14:04:33 GMT-0500 (Central Daylight Time),659778.5,I,z,1132,48,1,40.bmp,-120,-120,41.bmp,120,-120,42.bmp,-120,120,43.bmp,120,120,9177.5,650601.0,8047,yes,SM,B,42.bmp,-120,120,188938,182911,190955,184923,654742.0,648713.0,656758.0,650726.0,48
2,0,1,0,0,40,test,1,1,z,Tue May 13 2025 14:04:33 GMT-0500 (Central Daylight Time),669292.1999999881,I,z,1463,49,1,36.bmp,-120,-120,37.bmp,120,-120,38.bmp,-120,120,39.bmp,120,120,9506.5,659785.6999999881,8047,yes,SM,B,37.bmp,120,-120,188938,182911,190955,184923,663922.0,657898.0,665939.0,659907.0,49
3,0,0,1,0,40,test,1,0,m,Tue May 13 2025 14:04:33 GMT-0500 (Central Daylight Time),678555.8999999762,I,z,1214,50,1,32.bmp,-120,-120,33.bmp,120,-120,34.bmp,-120,120,35.bmp,120,120,9260.899999976158,669295.0,8047,yes,SM,B,32.bmp,-120,120,188938,182911,190955,184923,673436.0,667407.0,675452.0,669421.0,50
2,0,1,0,0,41,test,1,1,z,Tue May 13 2025 14:04:33 GMT-0500 (Central Daylight Time),688386.5,I,z,1767,51,1,44.bmp,-120,-120,45.bmp,120,-120,46.bmp,-120,120,47.bmp,120,120,9828.0,678558.5,8047,yes,SM,B,45.bmp,120,-120,188938,182911,190955,184923,682700.0,676671.0,684716.0,678685.0,51
4,0,0,0,1,42,test,1,1,m,Tue May 13 2025 14:04:33 GMT-0500 (Central Daylight Time),697616.6999999881,I,m,1176,52,1,48.bmp,-120,-120,49.bmp,120,-120,50.bmp,-120,120,31.bmp,120,120,9227.300000011921,688389.3999999762,8047,yes,SM,B,48.bmp,120,120,188938,182911,190955,184923,692530.0,686502.0,694546.0,688515.0,52
3,0,0,1,0,43,test,1,1,z,Tue May 13 2025 14:04:33 GMT-0500 (Central Daylight Time),707147.1999999881,I,z,1473,53,1,1.bmp,-120,-120,2.bmp,120,-120,3.bmp,-120,120,4.bmp,120,120,9527.599999964237,697619.6000000238,8047,yes,SM,B,3.bmp,-120,120,188938,182911,190955,184923,701760.0,695732.0,703777.0,697745.0,53
1,1,0,0,0,44,test,1,1,m,Tue May 13 2025 14:04:33 GMT-0500 (Central Daylight Time),717044.0,I,m,1847,54,1,5.bmp,-120,-120,6.bmp,120,-120,7.bmp,-120,120,8.bmp,120,120,9893.0,707151.0,8047,yes,SM,B,7.bmp,-120,-120,188938,182911,190955,184923,711291.0,705263.0,713307.0,707276.0,54
4,0,0,0,1,45,test,1,1,z,Tue May 13 2025 14:04:33 GMT-0500 (Central Daylight Time),726258.1000000238,I,z,1150,55,1,9.bmp,-120,-120,10.bmp,120,-120,11.bmp,-120,120,12.bmp,120,120,9210.900000035763,717047.1999999881,8047,yes,SM,B,12.bmp,120,120,188938,182911,190955,184923,721189.0,715159.0,723204.0,717172.0,55
2,0,1,0,0,46,test,1,1,m,Tue May 13 2025 14:04:33 GMT-0500 (Central Daylight Time),735555.0,I,m,1256,56,1,13.bmp,-120,-120,14.bmp,120,-120,15.bmp,-120,120,16.bmp,120,120,9293.399999976158,726261.6000000238,8047,yes,SM,B,13.bmp,120,-120,188938,182911,190955,184923,730401.0,724374.0,732402.0,726386.0,56
4,0,0,0,1,47,test,1,1,m,Tue May 13 2025 14:04:33 GMT-0500 (Central Daylight Time),744719.0,I,m,1103,57,1,17.bmp,-120,-120,18.bmp,120,-120,19.bmp,-120,120,20.bmp,120,120,9160.899999976158,735558.1000000238,8047,yes,SM,B,18.bmp,120,120,188938,182911,190955,184923,739698.0,733670.0,741715.0,735684.0,57
3,0,0,1,0,48,test,1,1,z,Tue May 13 2025 14:04:33 GMT-0500 (Central Daylight Time),754632.1000000238,I,z,1851,58,1,21.bmp,-120,-120,22.bmp,120,-120,23.bmp,-120,120,24.bmp,120,120,9910.0,744722.1000000238,8047,yes,SM,B,23.bmp,-120,120,188938,182911,190955,184923,748862.0,742834.0,750879.0,744847.0,58
2,0,1,0,0,49,test,1,1,m,Tue May 13 2025 14:04:33 GMT-0500 (Central Daylight Time),764645.8999999762,I,m,1954,59,1,25.bmp,-120,-120,26.bmp,120,-120,27.bmp,-120,120,28.bmp,120,120,10010.399999976158,754635.5,8047,yes,SM,B,28.bmp,120,-120,188938,182911,190955,184923,758776.0,752748.0,760792.0,754761.0,59
1,1,0,0,0,49,test,1,0,z,Tue May 13 2025 14:04:33 GMT-0500 (Central Daylight Time),774709.3999999762,I,None,2015,60,1,29.bmp,-120,-120,30.bmp,120,-120,31.bmp,-120,120,32.bmp,120,120,10060.399999976158,764649.0,8047,yes,SM,B,29.bmp,-120,-120,188938,182911,190955,184923,768789.0,762761.0,770806.0,764774.0,60
2,0,1,0,0,50,test,1,1,z,Tue May 13 2025 14:04:33 GMT-0500 (Central Daylight Time),784023.0,I,z,1253,61,1,33.bmp,-120,-120,34.bmp,120,-120,35.bmp,-120,120,36.bmp,120,120,9310.5,774712.5,8047,yes,SM,B,34.bmp,120,-120,188938,182911,190955,184923,778853.0,772825.0,780869.0,774838.0,61
4,0,0,0,1,51,test,1,1,z,Tue May 13 2025 14:04:33 GMT-0500 (Central Daylight Time),793270.1999999881,I,z,1195,62,1,41.bmp,-120,-120,42.bmp,120,-120,43.bmp,-120,120,44.bmp,120,120,9243.899999976158,784026.3000000119,8047,yes,SM,B,44.bmp,120,120,188938,182911,190955,184923,788167.0,782139.0,790183.0,784152.0,62
1,1,0,0,0,51,test,1,0,m,Tue May 13 2025 14:04:33 GMT-0500 (Central Daylight Time),803333.6000000238,I,None,2015,63,1,45.bmp,-120,-120,46.bmp,120,-120,47.bmp,-120,120,48.bmp,120,120,10059.700000047684,793273.8999999762,8047,yes,SM,B,45.bmp,-120,120,188938,182911,190955,184923,797414.0,791386.0,799430.0,793398.0,63
2,0,1,0,0,52,test,1,1,z,Tue May 13 2025 14:04:33 GMT-0500 (Central Daylight Time),812547.0,I,z,1164,64,1,49.bmp,-120,-120,50.bmp,120,-120,12.bmp,-120,120,1.bmp,120,120,9210.600000023842,803336.3999999762,8047,yes,SM,B,50.bmp,120,-120,188938,182911,190955,184923,807477.0,801449.0,809494.0,803462.0,64
4,0,0,0,1,53,test,1,1,m,Tue May 13 2025 14:04:33 GMT-0500 (Central Daylight Time),821594.5,I,m,991,65,1,2.bmp,-120,-120,3.bmp,120,-120,4.bmp,-120,120,5.bmp,120,120,9044.699999988079,812549.8000000119,8047,yes,SM,B,4.bmp,120,120,188938,182911,190955,184923,816691.0,810662.0,818707.0,812676.0,65
3,0,0,1,0,53,test,1,0,m,Tue May 13 2025 14:04:33 GMT-0500 (Central Daylight Time),831658.1999999881,I,None,2016,66,1,6.bmp,-120,-120,7.bmp,120,-120,8.bmp,-120,120,9.bmp,120,120,10060.599999964237,821597.6000000238,8047,yes,SM,B,9.bmp,-120,120,188938,182911,190955,184923,825738.0,819710.0,827754.0,821723.0,66
2,0,1,0,0,54,test,1,1,m,Tue May 13 2025 14:04:33 GMT-0500 (Central Daylight Time),841138.6000000238,I,m,1416,67,1,37.bmp,-120,-120,38.bmp,120,-120,39.bmp,-120,120,40.bmp,120,120,9477.100000023842,831661.5,8047,yes,SM,B,39.bmp,120,-120,188938,182911,190955,184923,835802.0,829774.0,837818.0,831787.0,67
3,0,0,1,0,55,test,1,1,z,Tue May 13 2025 14:04:33 GMT-0500 (Central Daylight Time),850819.0,I,z,1623,68,1,10.bmp,-120,-120,11.bmp,120,-120,12.bmp,-120,120,13.bmp,120,120,9677.699999988079,841141.3000000119,8047,yes,SM,B,12.bmp,-120,120,188938,182911,190955,184923,845282.0,839253.0,847299.0,841267.0,68
1,1,0,0,0,56,test,1,1,m,Tue May 13 2025 14:04:33 GMT-0500 (Central Daylight Time),859932.5,I,m,1055,69,1,14.bmp,-120,-120,15.bmp,120,-120,16.bmp,-120,120,17.bmp,120,120,9110.399999976158,850822.1000000238,8047,yes,SM,B,15.bmp,-120,-120,188938,182911,190955,184923,854962.0,848934.0,856979.0,850947.0,69
2,0,1,0,0,57,test,1,1,m,Tue May 13 2025 14:04:33 GMT-0500 (Central Daylight Time),869012.8999999762,I,m,1030,70,1,18.bmp,-120,-120,19.bmp,120,-120,20.bmp,-120,120,21.bmp,120,120,9077.199999988079,859935.6999999881,8047,yes,SM,B,20.bmp,120,-120,188938,182911,190955,184923,864076.0,858048.0,866092.0,860061.0,70
4,0,0,0,1,58,test,1,1,z,Tue May 13 2025 14:04:33 GMT-0500 (Central Daylight Time),878343.5,I,z,1292,71,1,22.bmp,-120,-120,23.bmp,120,-120,24.bmp,-120,120,25.bmp,120,120,9327.300000011921,869016.1999999881,8047,yes,SM,B,25.bmp,120,120,188938,182911,190955,184923,873156.0,867128.0,875158.0,869142.0,71
1,1,0,0,0,59,test,1,1,z,Tue May 13 2025 14:04:33 GMT-0500 (Central Daylight Time),887923.6999999881,I,z,1522,72,1,26.bmp,-120,-120,27.bmp,120,-120,28.bmp,-120,120,29.bmp,120,120,9577.0,878346.6999999881,8047,yes,SM,B,26.bmp,-120,-120,188938,182911,190955,184923,882487.0,876459.0,884504.0,878472.0,72
2,0,1,0,0,60,test,1,1,z,Tue May 13 2025 14:04:33 GMT-0500 (Central Daylight Time),897471.0,I,z,1486,73,1,30.bmp,-120,-120,31.bmp,120,-120,32.bmp,-120,120,33.bmp,120,120,9544.199999988079,887926.8000000119,8047,yes,SM,B,31.bmp,120,-120,188938,182911,190955,184923,892067.0,886039.0,894084.0,888052.0,73
4,0,0,0,1,61,test,1,1,m,Tue May 13 2025 14:04:33 GMT-0500 (Central Daylight Time),906451.1999999881,I,m,932,74,1,34.bmp,-120,-120,35.bmp,120,-120,36.bmp,-120,120,37.bmp,120,120,8977.0,897474.1999999881,8047,yes,SM,B,36.bmp,120,120,188938,182911,190955,184923,901614.0,895586.0,903631.0,897599.0,74
2,0,1,0,0,62,test,1,1,m,Tue May 13 2025 14:04:33 GMT-0500 (Central Daylight Time),916231.5,I,m,1719,75,1,38.bmp,-120,-120,39.bmp,120,-120,40.bmp,-120,120,41.bmp,120,120,9776.899999976158,906454.6000000238,8047,yes,SM,B,41.bmp,120,-120,188938,182911,190955,184923,910595.0,904567.0,912611.0,906580.0,75
1,1,0,0,0,63,test,1,1,z,Tue May 13 2025 14:04:33 GMT-0500 (Central Daylight Time),925778.8000000119,I,z,1482,76,1,42.bmp,-120,-120,43.bmp,120,-120,44.bmp,-120,120,45.bmp,120,120,9544.0,916234.8000000119,8047,yes,SM,B,42.bmp,-120,-120,188938,182911,190955,184923,920375.0,914347.0,922392.0,916360.0,76
3,0,0,1,0,64,test,1,1,z,Tue May 13 2025 14:04:33 GMT-0500 (Central Daylight Time),935142.0,I,z,1311,77,1,50.bmp,-120,-120,11.bmp,120,-120,1.bmp,-120,120,2.bmp,120,120,9360.0,925782.0,8047,yes,SM,B,1.bmp,-120,120,188938,182911,190955,184923,929922.0,923894.0,931939.0,925907.0,77
1,1,0,0,0,65,test,1,1,m,Tue May 13 2025 14:04:33 GMT-0500 (Central Daylight Time),944289.6000000238,I,m,1092,78,1,46.bmp,-120,-120,47.bmp,120,-120,48.bmp,-120,120,49.bmp,120,120,9144.400000035763,935145.1999999881,8047,yes,SM,B,47.bmp,-120,-120,188938,182911,190955,184923,939286.0,933257.0,941302.0,935271.0,78
4,0,0,0,1,66,test,1,1,m,Tue May 13 2025 14:04:33 GMT-0500 (Central Daylight Time),954102.8000000119,I,m,1753,79,1,7.bmp,-120,-120,8.bmp,120,-120,9.bmp,-120,120,10.bmp,120,120,9805.199999988079,944297.6000000238,8047,yes,SM,B,7.bmp,120,120,188938,182911,190955,184923,948433.0,942410.0,950449.0,944418.0,79
3,0,0,1,0,67,test,1,1,m,Tue May 13 2025 14:04:33 GMT-0500 (Central Daylight Time),963316.8000000119,I,m,1155,80,1,3.bmp,-120,-120,4.bmp,120,-120,5.bmp,-120,120,6.bmp,120,120,9210.699999988079,954106.1000000238,8047,yes,SM,B,6.bmp,-120,120,188938,182911,190955,184923,958247.0,952218.0,960263.0,954232.0,80
