acc_sum,block,block_c,change,condition,correct,correct_response,datetime,endtime,face,project,response,response_time,row_sel,session_number,start_end,starttime,subject_id,task,task_vers,trial
0,prac,1,,1-Back,,,Mon Dec 08 2025 17:38:02 GMT-0600 (Central Standard Time),,093_m_f_n_a.png,O,space,4199,1,1,,,7249,NNB,C,0
0,prac,1,0.0,1-Back,0.0,m,Mon Dec 08 2025 17:38:02 GMT-0600 (Central Standard Time),125045.30000001192,098_y_f_n_a.png,O,z,634,2,1,1464.4000000059605,123580.90000000596,7249,NNB,C,1
0,prac,1,1.0,1-Back,0.0,z,Mon Dec 08 2025 17:38:02 GMT-0600 (Central Standard Time),127224.90000000596,098_y_f_n_a.png,O,m,1404,3,1,2169.0999999940395,125055.80000001192,7249,NNB,C,2
1,prac,1,0.0,1-Back,1.0,m,Mon Dec 08 2025 17:38:02 GMT-0600 (Central Standard Time),130041.60000002384,059_o_m_n_a.png,O,m,1971,4,1,2808.300000011921,127233.30000001192,7249,NNB,C,3
2,prac,1,0.0,1-Back,1.0,m,Mon Dec 08 2025 17:38:02 GMT-0600 (Central Standard Time),131843.20000001788,092_m_m_n_a.png,O,m,955,5,1,1793.800000011921,130049.40000000596,7249,NNB,C,4
3,prac,1,1.0,1-Back,1.0,z,Mon Dec 08 2025 17:38:02 GMT-0600 (Central Standard Time),133807.10000002384,092_m_m_n_a.png,O,z,1178,6,1,1958.4000000059605,131848.70000001788,7249,NNB,C,5
4,prac,1,0.0,1-Back,1.0,m,Mon Dec 08 2025 17:38:02 GMT-0600 (Central Standard Time),135524.20000001788,130_o_f_n_a.png,O,m,871,7,1,1709.800000011921,133814.40000000596,7249,NNB,C,6
4,prac,1,0.0,1-Back,0.0,m,Mon Dec 08 2025 17:38:02 GMT-0600 (Central Standard Time),137306.10000002384,082_m_m_n_a.png,O,z,934,8,1,1772.1000000238419,135534.0,7249,NNB,C,7
4,prac,1,0.0,1-Back,0.0,m,Mon Dec 08 2025 17:38:02 GMT-0600 (Central Standard Time),140087.30000001192,093_m_f_n_a.png,O,None,2008,9,1,2772.0,137315.30000001192,7249,NNB,C,8
5,prac,1,1.0,1-Back,1.0,z,Mon Dec 08 2025 17:38:02 GMT-0600 (Central Standard Time),142704.60000002384,093_m_f_n_a.png,O,z,1832,10,1,2606.600000023842,140098.0,7249,NNB,C,9
6,prac,1,0.0,1-Back,1.0,m,Mon Dec 08 2025 17:38:02 GMT-0600 (Central Standard Time),144254.20000001788,059_o_m_n_a.png,O,m,764,11,1,1537.5,142716.70000001788,7249,NNB,C,10
7,prac,1,0.0,1-Back,1.0,m,Mon Dec 08 2025 17:38:02 GMT-0600 (Central Standard Time),146035.80000001192,028_y_f_n_a.png,O,m,924,12,1,1771.699999988079,144264.10000002384,7249,NNB,C,11
0,prac,2,0.0,1-Back,,,Mon Dec 08 2025 17:38:02 GMT-0600 (Central Standard Time),146035.80000001192,093_m_f_n_a.png,O,a,9353,1,1,1771.699999988079,144264.10000002384,7249,NNB,C,0
1,prac,2,0.0,1-Back,1.0,m,Mon Dec 08 2025 17:38:02 GMT-0600 (Central Standard Time),159780.90000000596,098_y_f_n_a.png,O,m,502,2,1,1338.699999988079,158442.20000001788,7249,NNB,C,1
2,prac,2,1.0,1-Back,1.0,z,Mon Dec 08 2025 17:38:02 GMT-0600 (Central Standard Time),161414.40000000596,098_y_f_n_a.png,O,z,843,3,1,1624.0,159790.40000000596,7249,NNB,C,2
3,prac,2,0.0,1-Back,1.0,m,Mon Dec 08 2025 17:38:02 GMT-0600 (Central Standard Time),162881.40000000596,059_o_m_n_a.png,O,m,681,4,1,1457.699999988079,161423.70000001788,7249,NNB,C,3
4,prac,2,0.0,1-Back,1.0,m,Mon Dec 08 2025 17:38:02 GMT-0600 (Central Standard Time),164563.30000001192,092_m_m_n_a.png,O,m,828,5,1,1674.800000011921,162888.5,7249,NNB,C,4
5,prac,2,1.0,1-Back,1.0,z,Mon Dec 08 2025 17:38:02 GMT-0600 (Central Standard Time),166197.0,092_m_m_n_a.png,O,z,869,6,1,1624.0,164573.0,7249,NNB,C,5
6,prac,2,0.0,1-Back,1.0,m,Mon Dec 08 2025 17:38:02 GMT-0600 (Central Standard Time),168013.30000001192,130_o_f_n_a.png,O,m,942,7,1,1806.5,166206.80000001192,7249,NNB,C,6
7,prac,2,0.0,1-Back,1.0,m,Mon Dec 08 2025 17:38:02 GMT-0600 (Central Standard Time),169660.10000002384,082_m_m_n_a.png,O,m,788,8,1,1635.9000000059605,168024.20000001788,7249,NNB,C,7
8,prac,2,0.0,1-Back,1.0,m,Mon Dec 08 2025 17:38:02 GMT-0600 (Central Standard Time),171128.40000000596,093_m_f_n_a.png,O,m,694,9,1,1460.5999999940395,169667.80000001192,7249,NNB,C,8
9,prac,2,1.0,1-Back,1.0,z,Mon Dec 08 2025 17:38:02 GMT-0600 (Central Standard Time),172611.0,093_m_f_n_a.png,O,z,704,10,1,1474.2999999821186,171136.70000001788,7249,NNB,C,9
10,prac,2,0.0,1-Back,1.0,m,Mon Dec 08 2025 17:38:02 GMT-0600 (Central Standard Time),174078.90000000596,059_o_m_n_a.png,O,m,692,11,1,1458.2999999821186,172620.60000002384,7249,NNB,C,10
11,prac,2,0.0,1-Back,1.0,m,Mon Dec 08 2025 17:38:02 GMT-0600 (Central Standard Time),176127.30000001192,028_y_f_n_a.png,O,m,1199,12,1,2040.0,174087.30000001192,7249,NNB,C,11
0,test,1,0.0,1-Back,,,Mon Dec 08 2025 17:38:02 GMT-0600 (Central Standard Time),176127.30000001192,098_y_f_n_a.png,O,space,13727,1,1,2040.0,174087.30000001192,7249,NNB,C,0
1,test,1,0.0,1-Back,1.0,m,Mon Dec 08 2025 17:38:02 GMT-0600 (Central Standard Time),198485.60000002384,006_m_f_n_a.png,O,m,762,2,1,1776.6000000238419,196709.0,7249,NNB,C,1
2,test,1,0.0,1-Back,1.0,m,Mon Dec 08 2025 17:38:02 GMT-0600 (Central Standard Time),200318.10000002384,028_y_f_n_a.png,O,m,810,3,1,1825.6000000238419,198492.5,7249,NNB,C,2
3,test,1,1.0,1-Back,1.0,z,Mon Dec 08 2025 17:38:02 GMT-0600 (Central Standard Time),201853.10000002384,028_y_f_n_a.png,O,z,502,4,1,1525.800000011921,200327.30000001192,7249,NNB,C,3
4,test,1,0.0,1-Back,1.0,m,Mon Dec 08 2025 17:38:02 GMT-0600 (Central Standard Time),203516.80000001192,006_m_f_n_a.png,O,m,637,5,1,1655.0,201861.80000001192,7249,NNB,C,4
5,test,1,0.0,1-Back,1.0,m,Mon Dec 08 2025 17:38:02 GMT-0600 (Central Standard Time),205217.10000002384,059_o_m_n_a.png,O,m,675,6,1,1692.7000000178814,203524.40000000596,7249,NNB,C,5
6,test,1,1.0,1-Back,1.0,z,Mon Dec 08 2025 17:38:02 GMT-0600 (Central Standard Time),206852.80000001192,059_o_m_n_a.png,O,z,607,7,1,1630.699999988079,205222.10000002384,7249,NNB,C,6
7,test,1,0.0,1-Back,1.0,m,Mon Dec 08 2025 17:38:02 GMT-0600 (Central Standard Time),208531.40000000596,092_m_m_n_a.png,O,m,654,8,1,1671.0,206860.40000000596,7249,NNB,C,7
8,test,1,0.0,1-Back,1.0,m,Mon Dec 08 2025 17:38:02 GMT-0600 (Central Standard Time),210149.20000001788,130_o_f_n_a.png,O,m,589,9,1,1611.5999999940395,208537.60000002384,7249,NNB,C,8
9,test,1,0.0,1-Back,1.0,m,Mon Dec 08 2025 17:38:02 GMT-0600 (Central Standard Time),211732.10000002384,092_m_m_n_a.png,O,m,563,10,1,1575.6000000238419,210156.5,7249,NNB,C,9
10,test,1,0.0,1-Back,1.0,m,Mon Dec 08 2025 17:38:02 GMT-0600 (Central Standard Time),213398.30000001192,057_y_m_n_a.png,O,m,645,11,1,1658.800000011921,211739.5,7249,NNB,C,10
11,test,1,1.0,1-Back,1.0,z,Mon Dec 08 2025 17:38:02 GMT-0600 (Central Standard Time),214963.0,057_y_m_n_a.png,O,z,537,12,1,1557.199999988079,213405.80000001192,7249,NNB,C,11
12,test,1,0.0,1-Back,1.0,m,Mon Dec 08 2025 17:38:02 GMT-0600 (Central Standard Time),216496.60000002384,030_o_f_n_a.png,O,m,508,13,1,1526.0,214970.60000002384,7249,NNB,C,12
13,test,1,1.0,1-Back,1.0,z,Mon Dec 08 2025 17:38:02 GMT-0600 (Central Standard Time),218196.10000002384,030_o_f_n_a.png,O,z,679,14,1,1695.800000011921,216500.30000001192,7249,NNB,C,13
14,test,1,0.0,1-Back,1.0,m,Mon Dec 08 2025 17:38:02 GMT-0600 (Central Standard Time),219746.40000000596,031_y_m_n_a.png,O,m,524,15,1,1543.7999999821186,218202.60000002384,7249,NNB,C,14
15,test,1,0.0,1-Back,1.0,m,Mon Dec 08 2025 17:38:02 GMT-0600 (Central Standard Time),221611.10000002384,093_m_f_n_a.png,O,m,849,16,1,1858.1000000238419,219753.0,7249,NNB,C,15
16,test,1,0.0,1-Back,1.0,m,Mon Dec 08 2025 17:38:02 GMT-0600 (Central Standard Time),223211.5,146_o_m_n_a.png,O,m,574,17,1,1594.5,221617.0,7249,NNB,C,16
17,test,1,0.0,1-Back,1.0,m,Mon Dec 08 2025 17:38:02 GMT-0600 (Central Standard Time),224867.0,093_m_f_n_a.png,O,m,619,18,1,1649.0999999940395,223217.90000000596,7249,NNB,C,17
0,test,2,0.0,1-Back,,,Mon Dec 08 2025 17:38:02 GMT-0600 (Central Standard Time),224867.0,092_m_m_n_a.png,O,space,3199,1,1,1649.0999999940395,223217.90000000596,7249,NNB,C,0
1,test,2,0.0,1-Back,1.0,m,Mon Dec 08 2025 17:38:02 GMT-0600 (Central Standard Time),232008.40000000596,006_m_f_n_a.png,O,m,892,2,1,1909.5999999940395,230098.80000001192,7249,NNB,C,1
2,test,2,1.0,1-Back,1.0,z,Mon Dec 08 2025 17:38:02 GMT-0600 (Central Standard Time),234307.60000002384,006_m_f_n_a.png,O,z,1272,3,1,2293.300000011921,232014.30000001192,7249,NNB,C,2
3,test,2,0.0,1-Back,1.0,m,Mon Dec 08 2025 17:38:02 GMT-0600 (Central Standard Time),235857.90000000596,092_m_m_n_a.png,O,m,533,4,1,1543.7999999821186,234314.10000002384,7249,NNB,C,3
4,test,2,0.0,1-Back,1.0,m,Mon Dec 08 2025 17:38:02 GMT-0600 (Central Standard Time),237540.30000001192,057_y_m_n_a.png,O,m,651,5,1,1676.9000000059605,235863.40000000596,7249,NNB,C,4
5,test,2,0.0,1-Back,1.0,m,Mon Dec 08 2025 17:38:02 GMT-0600 (Central Standard Time),239371.80000001192,098_y_f_n_a.png,O,m,813,6,1,1824.5999999940395,237547.20000001788,7249,NNB,C,5
6,test,2,1.0,1-Back,1.0,z,Mon Dec 08 2025 17:38:02 GMT-0600 (Central Standard Time),241072.5,098_y_f_n_a.png,O,z,667,7,1,1694.199999988079,239378.30000001192,7249,NNB,C,6
7,test,2,0.0,1-Back,1.0,m,Mon Dec 08 2025 17:38:02 GMT-0600 (Central Standard Time),242621.90000000596,057_y_m_n_a.png,O,m,529,8,1,1540.4000000059605,241081.5,7249,NNB,C,7
8,test,2,0.0,1-Back,1.0,m,Mon Dec 08 2025 17:38:02 GMT-0600 (Central Standard Time),244253.90000000596,030_o_f_n_a.png,O,m,610,9,1,1624.199999988079,242629.70000001788,7249,NNB,C,8
9,test,2,0.0,1-Back,1.0,m,Mon Dec 08 2025 17:38:02 GMT-0600 (Central Standard Time),245887.70000001788,082_m_m_n_a.png,O,m,610,10,1,1626.5999999940395,244261.10000002384,7249,NNB,C,9
10,test,2,1.0,1-Back,1.0,z,Mon Dec 08 2025 17:38:02 GMT-0600 (Central Standard Time),247436.90000000596,082_m_m_n_a.png,O,z,521,11,1,1544.0999999940395,245892.80000001192,7249,NNB,C,10
11,test,2,0.0,1-Back,1.0,m,Mon Dec 08 2025 17:38:02 GMT-0600 (Central Standard Time),249019.80000001192,030_o_f_n_a.png,O,m,566,12,1,1575.4000000059605,247444.40000000596,7249,NNB,C,11
12,test,2,0.0,1-Back,1.0,m,Mon Dec 08 2025 17:38:02 GMT-0600 (Central Standard Time),250552.0,130_o_f_n_a.png,O,m,499,13,1,1524.7999999821186,249027.20000001788,7249,NNB,C,12
13,test,2,0.0,1-Back,1.0,m,Mon Dec 08 2025 17:38:02 GMT-0600 (Central Standard Time),252101.0,059_o_m_n_a.png,O,m,527,14,1,1542.699999988079,250558.30000001192,7249,NNB,C,13
14,test,2,0.0,1-Back,1.0,m,Mon Dec 08 2025 17:38:02 GMT-0600 (Central Standard Time),253784.80000001192,146_o_m_n_a.png,O,m,660,15,1,1680.800000011921,252104.0,7249,NNB,C,14
15,test,2,1.0,1-Back,1.0,z,Mon Dec 08 2025 17:38:02 GMT-0600 (Central Standard Time),255667.60000002384,146_o_m_n_a.png,O,z,857,16,1,1874.800000011921,253792.80000001192,7249,NNB,C,15
16,test,2,0.0,1-Back,1.0,m,Mon Dec 08 2025 17:38:02 GMT-0600 (Central Standard Time),257251.10000002384,031_y_m_n_a.png,O,m,566,17,1,1577.0,255674.10000002384,7249,NNB,C,16
17,test,2,1.0,1-Back,1.0,z,Mon Dec 08 2025 17:38:02 GMT-0600 (Central Standard Time),258983.60000002384,031_y_m_n_a.png,O,z,711,18,1,1724.800000011921,257258.80000001192,7249,NNB,C,17
0,test,3,1.0,1-Back,,,Mon Dec 08 2025 17:38:02 GMT-0600 (Central Standard Time),258983.60000002384,028_y_f_n_a.png,O,space,2753,1,1,1724.800000011921,257258.80000001192,7249,NNB,C,0
1,test,3,0.0,1-Back,1.0,m,Mon Dec 08 2025 17:38:02 GMT-0600 (Central Standard Time),265682.3000000119,146_o_m_n_a.png,O,m,834,1,1,1841.699999988079,263840.60000002384,7249,NNB,C,1
2,test,3,1.0,1-Back,1.0,z,Mon Dec 08 2025 17:38:02 GMT-0600 (Central Standard Time),267332.2000000179,146_o_m_n_a.png,O,z,632,1,1,1642.9000000059605,265689.3000000119,7249,NNB,C,2
3,test,3,0.0,1-Back,1.0,m,Mon Dec 08 2025 17:38:02 GMT-0600 (Central Standard Time),269096.7000000179,093_m_f_n_a.png,O,m,740,1,1,1756.5,267340.2000000179,7249,NNB,C,3
4,test,3,1.0,1-Back,1.0,z,Mon Dec 08 2025 17:38:02 GMT-0600 (Central Standard Time),270665.2000000179,093_m_f_n_a.png,O,z,534,1,1,1561.2000000178814,269104.0,7249,NNB,C,4
5,test,3,0.0,1-Back,1.0,m,Mon Dec 08 2025 17:38:02 GMT-0600 (Central Standard Time),272229.2000000179,030_o_f_n_a.png,O,m,548,1,1,1556.0999999940395,270673.10000002384,7249,NNB,C,5
6,test,3,0.0,1-Back,1.0,m,Mon Dec 08 2025 17:38:02 GMT-0600 (Central Standard Time),274095.3000000119,057_y_m_n_a.png,O,m,844,1,1,1859.0,272236.3000000119,7249,NNB,C,6
7,test,3,0.0,1-Back,1.0,m,Mon Dec 08 2025 17:38:02 GMT-0600 (Central Standard Time),275661.5,030_o_f_n_a.png,O,m,536,1,1,1558.199999988079,274103.3000000119,7249,NNB,C,7
8,test,3,0.0,1-Back,1.0,m,Mon Dec 08 2025 17:38:02 GMT-0600 (Central Standard Time),277393.60000002384,031_y_m_n_a.png,O,m,706,1,1,1725.6000000238419,275668.0,7249,NNB,C,8
9,test,3,1.0,1-Back,1.0,z,Mon Dec 08 2025 17:38:02 GMT-0600 (Central Standard Time),278895.90000000596,031_y_m_n_a.png,O,z,470,1,1,1492.199999988079,277403.7000000179,7249,NNB,C,9
10,test,3,0.0,1-Back,1.0,m,Mon Dec 08 2025 17:38:02 GMT-0600 (Central Standard Time),280510.0,006_m_f_n_a.png,O,m,586,1,1,1608.0,278902.0,7249,NNB,C,10
11,test,3,0.0,1-Back,1.0,m,Mon Dec 08 2025 17:38:02 GMT-0600 (Central Standard Time),282159.0,098_y_f_n_a.png,O,m,627,1,1,1642.0999999940395,280516.90000000596,7249,NNB,C,11
12,test,3,1.0,1-Back,1.0,z,Mon Dec 08 2025 17:38:02 GMT-0600 (Central Standard Time),283677.8000000119,098_y_f_n_a.png,O,z,486,1,1,1508.300000011921,282169.5,7249,NNB,C,12
13,test,3,0.0,1-Back,1.0,m,Mon Dec 08 2025 17:38:02 GMT-0600 (Central Standard Time),285175.3000000119,006_m_f_n_a.png,O,m,476,1,1,1493.800000011921,283681.5,7249,NNB,C,13
14,test,3,0.0,1-Back,1.0,m,Mon Dec 08 2025 17:38:02 GMT-0600 (Central Standard Time),286674.90000000596,092_m_m_n_a.png,O,m,482,1,1,1492.699999988079,285182.2000000179,7249,NNB,C,14
15,test,3,1.0,1-Back,1.0,z,Mon Dec 08 2025 17:38:02 GMT-0600 (Central Standard Time),288474.60000002384,092_m_m_n_a.png,O,z,763,1,1,1790.5,286684.10000002384,7249,NNB,C,15
16,test,3,0.0,1-Back,1.0,m,Mon Dec 08 2025 17:38:02 GMT-0600 (Central Standard Time),290091.0,130_o_f_n_a.png,O,m,599,1,1,1609.3999999761581,288481.60000002384,7249,NNB,C,16
17,test,3,1.0,1-Back,1.0,z,Mon Dec 08 2025 17:38:02 GMT-0600 (Central Standard Time),291805.90000000596,130_o_f_n_a.png,O,z,694,1,1,1706.4000000059605,290099.5,7249,NNB,C,17
0,test,4,1.0,1-Back,,,Mon Dec 08 2025 17:38:02 GMT-0600 (Central Standard Time),291805.90000000596,093_m_f_n_a.png,O,space,1964,1,1,1706.4000000059605,290099.5,7249,NNB,C,0
1,test,4,0.0,1-Back,1.0,m,Mon Dec 08 2025 17:38:02 GMT-0600 (Central Standard Time),298087.5,146_o_m_n_a.png,O,m,1208,2,1,2226.199999988079,295861.3000000119,7249,NNB,C,1
2,test,4,0.0,1-Back,1.0,m,Mon Dec 08 2025 17:38:02 GMT-0600 (Central Standard Time),300236.40000000596,093_m_f_n_a.png,O,m,1120,3,1,2144.699999988079,298091.7000000179,7249,NNB,C,2
3,test,4,0.0,1-Back,1.0,m,Mon Dec 08 2025 17:38:02 GMT-0600 (Central Standard Time),301769.5,030_o_f_n_a.png,O,m,500,4,1,1526.3999999761581,300243.10000002384,7249,NNB,C,3
4,test,4,1.0,1-Back,1.0,z,Mon Dec 08 2025 17:38:02 GMT-0600 (Central Standard Time),303403.5,030_o_f_n_a.png,O,z,608,5,1,1627.5999999940395,301775.90000000596,7249,NNB,C,4
5,test,4,0.0,1-Back,1.0,m,Mon Dec 08 2025 17:38:02 GMT-0600 (Central Standard Time),305051.0,098_y_f_n_a.png,O,m,622,6,1,1640.0999999940395,303410.90000000596,7249,NNB,C,5
6,test,4,0.0,1-Back,1.0,m,Mon Dec 08 2025 17:38:02 GMT-0600 (Central Standard Time),306534.8000000119,057_y_m_n_a.png,O,m,460,7,1,1472.0,305062.8000000119,7249,NNB,C,6
7,test,4,1.0,1-Back,1.0,z,Mon Dec 08 2025 17:38:02 GMT-0600 (Central Standard Time),308600.7000000179,057_y_m_n_a.png,O,z,1033,8,1,2058.0999999940395,306542.60000002384,7249,NNB,C,7
8,test,4,0.0,1-Back,1.0,m,Mon Dec 08 2025 17:38:02 GMT-0600 (Central Standard Time),310117.7000000179,098_y_f_n_a.png,O,m,488,9,1,1510.5999999940395,308607.10000002384,7249,NNB,C,8
9,test,4,0.0,1-Back,1.0,m,Mon Dec 08 2025 17:38:02 GMT-0600 (Central Standard Time),311700.2000000179,082_m_m_n_a.png,O,m,567,10,1,1575.5999999940395,310124.60000002384,7249,NNB,C,9
10,test,4,1.0,1-Back,1.0,z,Mon Dec 08 2025 17:38:02 GMT-0600 (Central Standard Time),313266.60000002384,082_m_m_n_a.png,O,z,541,11,1,1558.2000000178814,311708.40000000596,7249,NNB,C,10
11,test,4,0.0,1-Back,1.0,m,Mon Dec 08 2025 17:38:02 GMT-0600 (Central Standard Time),314848.0,130_o_f_n_a.png,O,m,550,12,1,1576.0,313272.0,7249,NNB,C,11
12,test,4,0.0,1-Back,1.0,m,Mon Dec 08 2025 17:38:02 GMT-0600 (Central Standard Time),316930.40000000596,059_o_m_n_a.png,O,m,1057,13,1,2076.4000000059605,314854.0,7249,NNB,C,12
13,test,4,0.0,1-Back,1.0,m,Mon Dec 08 2025 17:38:02 GMT-0600 (Central Standard Time),318713.8000000119,130_o_f_n_a.png,O,m,764,14,1,1778.199999988079,316935.60000002384,7249,NNB,C,13
14,test,4,0.0,1-Back,1.0,m,Mon Dec 08 2025 17:38:02 GMT-0600 (Central Standard Time),320314.8000000119,028_y_f_n_a.png,O,m,575,15,1,1595.699999988079,318719.10000002384,7249,NNB,C,14
15,test,4,1.0,1-Back,1.0,z,Mon Dec 08 2025 17:38:02 GMT-0600 (Central Standard Time),322096.2000000179,028_y_f_n_a.png,O,z,751,16,1,1775.5999999940395,320320.60000002384,7249,NNB,C,15
16,test,4,0.0,1-Back,1.0,m,Mon Dec 08 2025 17:38:02 GMT-0600 (Central Standard Time),323678.8000000119,006_m_f_n_a.png,O,m,555,17,1,1575.199999988079,322103.60000002384,7249,NNB,C,16
17,test,4,1.0,1-Back,1.0,z,Mon Dec 08 2025 17:38:02 GMT-0600 (Central Standard Time),325346.10000002384,006_m_f_n_a.png,O,z,633,18,1,1659.9000000059605,323686.2000000179,7249,NNB,C,17
0,test,5,1.0,1-Back,,,Mon Dec 08 2025 17:38:02 GMT-0600 (Central Standard Time),325346.10000002384,059_o_m_n_a.png,O,space,1574,1,1,1659.9000000059605,323686.2000000179,7249,NNB,C,0
1,test,5,1.0,1-Back,1.0,z,Mon Dec 08 2025 17:38:02 GMT-0600 (Central Standard Time),330942.90000000596,059_o_m_n_a.png,O,z,977,2,1,1991.199999988079,328951.7000000179,7249,NNB,C,1
2,test,5,0.0,1-Back,1.0,m,Mon Dec 08 2025 17:38:02 GMT-0600 (Central Standard Time),332526.90000000596,098_y_f_n_a.png,O,m,557,3,1,1576.7999999821186,330950.10000002384,7249,NNB,C,2
3,test,5,0.0,1-Back,1.0,m,Mon Dec 08 2025 17:38:02 GMT-0600 (Central Standard Time),334176.3000000119,057_y_m_n_a.png,O,m,617,4,1,1645.5,332530.8000000119,7249,NNB,C,3
4,test,5,0.0,1-Back,1.0,m,Mon Dec 08 2025 17:38:02 GMT-0600 (Central Standard Time),336225.90000000596,098_y_f_n_a.png,O,m,1032,5,1,2042.2999999821186,334183.60000002384,7249,NNB,C,4
5,test,5,0.0,1-Back,1.0,m,Mon Dec 08 2025 17:38:02 GMT-0600 (Central Standard Time),337858.10000002384,092_m_m_n_a.png,O,m,607,6,1,1625.9000000059605,336232.2000000179,7249,NNB,C,5
6,test,5,1.0,1-Back,1.0,z,Mon Dec 08 2025 17:38:02 GMT-0600 (Central Standard Time),339408.10000002384,092_m_m_n_a.png,O,z,526,7,1,1544.9000000059605,337863.2000000179,7249,NNB,C,6
7,test,5,0.0,1-Back,1.0,m,Mon Dec 08 2025 17:38:02 GMT-0600 (Central Standard Time),341073.60000002384,028_y_f_n_a.png,O,m,634,8,1,1658.6000000238419,339415.0,7249,NNB,C,7
8,test,5,0.0,1-Back,1.0,m,Mon Dec 08 2025 17:38:02 GMT-0600 (Central Standard Time),342642.7000000179,031_y_m_n_a.png,O,m,553,9,1,1563.0,341079.7000000179,7249,NNB,C,8
9,test,5,0.0,1-Back,1.0,m,Mon Dec 08 2025 17:38:02 GMT-0600 (Central Standard Time),344622.60000002384,028_y_f_n_a.png,O,m,953,10,1,1973.6000000238419,342649.0,7249,NNB,C,9
10,test,5,0.0,1-Back,1.0,m,Mon Dec 08 2025 17:38:02 GMT-0600 (Central Standard Time),346205.7000000179,130_o_f_n_a.png,O,m,554,11,1,1576.4000000059605,344629.3000000119,7249,NNB,C,10
11,test,5,1.0,1-Back,1.0,z,Mon Dec 08 2025 17:38:02 GMT-0600 (Central Standard Time),347721.40000000596,130_o_f_n_a.png,O,z,492,12,1,1509.7999999821186,346211.60000002384,7249,NNB,C,11
12,test,5,0.0,1-Back,1.0,m,Mon Dec 08 2025 17:38:02 GMT-0600 (Central Standard Time),349403.10000002384,146_o_m_n_a.png,O,m,654,13,1,1677.7000000178814,347725.40000000596,7249,NNB,C,12
13,test,5,0.0,1-Back,1.0,m,Mon Dec 08 2025 17:38:02 GMT-0600 (Central Standard Time),351020.40000000596,093_m_f_n_a.png,O,m,597,14,1,1611.9000000059605,349408.5,7249,NNB,C,13
14,test,5,1.0,1-Back,1.0,z,Mon Dec 08 2025 17:38:02 GMT-0600 (Central Standard Time),352703.40000000596,093_m_f_n_a.png,O,z,652,15,1,1676.699999988079,351026.7000000179,7249,NNB,C,14
15,test,5,0.0,1-Back,1.0,m,Mon Dec 08 2025 17:38:02 GMT-0600 (Central Standard Time),354236.3000000119,146_o_m_n_a.png,O,m,500,16,1,1526.5999999940395,352709.7000000179,7249,NNB,C,15
15,test,5,0.0,1-Back,0.0,m,Mon Dec 08 2025 17:38:02 GMT-0600 (Central Standard Time),355886.0,006_m_f_n_a.png,O,z,627,17,1,1642.5999999940395,354243.40000000596,7249,NNB,C,16
16,test,5,0.0,1-Back,1.0,m,Mon Dec 08 2025 17:38:02 GMT-0600 (Central Standard Time),357835.60000002384,082_m_m_n_a.png,O,m,915,18,1,1942.4000000059605,355893.2000000179,7249,NNB,C,17
0,prac,1,0.0,2-Back,,,Mon Dec 08 2025 17:38:02 GMT-0600 (Central Standard Time),357835.60000002384,031_y_m_n_a.png,O,space,12773,1,1,1942.4000000059605,355893.2000000179,7249,NNB,C,0
0,prac,1,0.0,2-Back,,,Mon Dec 08 2025 17:38:02 GMT-0600 (Central Standard Time),357835.60000002384,006_m_f_n_a.png,O,space,12773,2,1,1942.4000000059605,355893.2000000179,7249,NNB,C,0
1,prac,1,1.0,2-Back,1.0,m,Mon Dec 08 2025 17:38:02 GMT-0600 (Central Standard Time),513502.2000000179,146_o_m_n_a.png,O,m,739,3,1,1586.800000011921,511915.40000000596,7249,NNB,C,1
2,prac,1,0.0,2-Back,1.0,m,Mon Dec 08 2025 17:38:02 GMT-0600 (Central Standard Time),515588.40000000596,130_o_f_n_a.png,O,m,1222,4,1,2075.0,513513.40000000596,7249,NNB,C,2
3,prac,1,0.0,2-Back,1.0,z,Mon Dec 08 2025 17:38:02 GMT-0600 (Central Standard Time),517185.90000000596,146_o_m_n_a.png,O,z,815,5,1,1591.7999999821186,515594.10000002384,7249,NNB,C,3
4,prac,1,1.0,2-Back,1.0,z,Mon Dec 08 2025 17:38:02 GMT-0600 (Central Standard Time),519000.5,130_o_f_n_a.png,O,z,1023,6,1,1806.0999999940395,517194.40000000596,7249,NNB,C,4
5,prac,1,0.0,2-Back,1.0,m,Mon Dec 08 2025 17:38:02 GMT-0600 (Central Standard Time),521334.40000000596,082_m_m_n_a.png,O,m,1473,7,1,2324.5,519009.90000000596,7249,NNB,C,5
6,prac,1,0.0,2-Back,1.0,m,Mon Dec 08 2025 17:38:02 GMT-0600 (Central Standard Time),523332.40000000596,059_o_m_n_a.png,O,m,1145,8,1,1987.7999999821186,521344.60000002384,7249,NNB,C,6
7,prac,1,0.0,2-Back,1.0,m,Mon Dec 08 2025 17:38:02 GMT-0600 (Central Standard Time),525165.2000000179,028_y_f_n_a.png,O,m,974,9,1,1824.0,523341.2000000179,7249,NNB,C,7
8,prac,1,1.0,2-Back,1.0,z,Mon Dec 08 2025 17:38:02 GMT-0600 (Central Standard Time),526514.5,059_o_m_n_a.png,O,z,571,10,1,1339.3999999761581,525175.1000000238,7249,NNB,C,8
9,prac,1,0.0,2-Back,1.0,m,Mon Dec 08 2025 17:38:02 GMT-0600 (Central Standard Time),528230.8000000119,098_y_f_n_a.png,O,m,866,11,1,1705.5999999940395,526525.2000000179,7249,NNB,C,9
10,prac,1,0.0,2-Back,1.0,m,Mon Dec 08 2025 17:38:02 GMT-0600 (Central Standard Time),529797.7000000179,082_m_m_n_a.png,O,m,778,12,1,1559.5,528238.2000000179,7249,NNB,C,10
0,test,1,0.0,2-Back,,,Mon Dec 08 2025 17:38:02 GMT-0600 (Central Standard Time),529797.7000000179,057_y_m_n_a.png,O,space,5271,1,1,1559.5,528238.2000000179,7249,NNB,C,0
0,test,1,0.0,2-Back,,,Mon Dec 08 2025 17:38:02 GMT-0600 (Central Standard Time),529797.7000000179,057_y_m_n_a.png,O,space,5271,2,1,1559.5,528238.2000000179,7249,NNB,C,0
1,test,1,0.0,2-Back,1.0,m,Mon Dec 08 2025 17:38:02 GMT-0600 (Central Standard Time),557804.1000000238,130_o_f_n_a.png,O,m,755,3,1,1779.9000000059605,556024.2000000179,7249,NNB,C,1
2,test,1,0.0,2-Back,1.0,m,Mon Dec 08 2025 17:38:02 GMT-0600 (Central Standard Time),559504.3000000119,092_m_m_n_a.png,O,m,667,4,1,1693.9000000059605,557810.400000006,7249,NNB,C,2
3,test,1,1.0,2-Back,1.0,z,Mon Dec 08 2025 17:38:02 GMT-0600 (Central Standard Time),561338.3000000119,130_o_f_n_a.png,O,z,802,5,1,1828.0999999940395,559510.2000000179,7249,NNB,C,3
4,test,1,0.0,2-Back,1.0,m,Mon Dec 08 2025 17:38:02 GMT-0600 (Central Standard Time),563154.0,098_y_f_n_a.png,O,m,800,6,1,1806.0,561348.0,7249,NNB,C,4
4,test,1,0.0,2-Back,0.0,m,Mon Dec 08 2025 17:38:02 GMT-0600 (Central Standard Time),564852.1000000238,092_m_m_n_a.png,O,z,671,7,1,1690.300000011921,563161.8000000119,7249,NNB,C,5
4,test,1,1.0,2-Back,0.0,z,Mon Dec 08 2025 17:38:02 GMT-0600 (Central Standard Time),566600.8000000119,098_y_f_n_a.png,O,m,724,8,1,1746.0,564854.8000000119,7249,NNB,C,6
5,test,1,0.0,2-Back,1.0,m,Mon Dec 08 2025 17:38:02 GMT-0600 (Central Standard Time),569135.6000000238,031_y_m_n_a.png,O,m,1509,9,1,2531.7000000178814,566603.900000006,7249,NNB,C,7
6,test,1,0.0,2-Back,1.0,m,Mon Dec 08 2025 17:38:02 GMT-0600 (Central Standard Time),570983.6000000238,030_o_f_n_a.png,O,m,825,10,1,1844.1000000238419,569139.5,7249,NNB,C,8
7,test,1,1.0,2-Back,1.0,z,Mon Dec 08 2025 17:38:02 GMT-0600 (Central Standard Time),572499.7000000179,031_y_m_n_a.png,O,z,495,11,1,1507.0999999940395,570992.6000000238,7249,NNB,C,9
8,test,1,0.0,2-Back,1.0,m,Mon Dec 08 2025 17:38:02 GMT-0600 (Central Standard Time),574317.7000000179,006_m_f_n_a.png,O,m,797,12,1,1815.0,572502.7000000179,7249,NNB,C,10
9,test,1,0.0,2-Back,1.0,m,Mon Dec 08 2025 17:38:02 GMT-0600 (Central Standard Time),577181.400000006,006_m_f_n_a.png,O,m,1843,13,1,2856.7999999821186,574324.6000000238,7249,NNB,C,11
10,test,1,0.0,2-Back,1.0,m,Mon Dec 08 2025 17:38:02 GMT-0600 (Central Standard Time),579297.8000000119,146_o_m_n_a.png,O,m,1090,14,1,2111.0999999940395,577186.7000000179,7249,NNB,C,12
11,test,1,0.0,2-Back,1.0,m,Mon Dec 08 2025 17:38:02 GMT-0600 (Central Standard Time),580964.1000000238,030_o_f_n_a.png,O,m,646,15,1,1658.6000000238419,579305.5,7249,NNB,C,13
12,test,1,1.0,2-Back,1.0,z,Mon Dec 08 2025 17:38:02 GMT-0600 (Central Standard Time),582796.900000006,146_o_m_n_a.png,O,z,814,16,1,1826.7999999821186,580970.1000000238,7249,NNB,C,14
13,test,1,0.0,2-Back,1.0,m,Mon Dec 08 2025 17:38:02 GMT-0600 (Central Standard Time),584396.1000000238,093_m_f_n_a.png,O,m,572,17,1,1592.1000000238419,582804.0,7249,NNB,C,15
14,test,1,0.0,2-Back,1.0,m,Mon Dec 08 2025 17:38:02 GMT-0600 (Central Standard Time),586412.0,082_m_m_n_a.png,O,m,989,18,1,2012.0999999940395,584399.900000006,7249,NNB,C,16
0,test,2,0.0,2-Back,,,Mon Dec 08 2025 17:38:02 GMT-0600 (Central Standard Time),586412.0,082_m_m_n_a.png,O,space,4789,1,1,2012.0999999940395,584399.900000006,7249,NNB,C,0
0,test,2,0.0,2-Back,,,Mon Dec 08 2025 17:38:02 GMT-0600 (Central Standard Time),586412.0,028_y_f_n_a.png,O,space,4789,2,1,2012.0999999940395,584399.900000006,7249,NNB,C,0
0,test,2,1.0,2-Back,0.0,z,Mon Dec 08 2025 17:38:02 GMT-0600 (Central Standard Time),597925.0,082_m_m_n_a.png,O,m,578,3,1,1590.5,596334.5,7249,NNB,C,1
0,test,2,0.0,2-Back,0.0,m,Mon Dec 08 2025 17:38:02 GMT-0600 (Central Standard Time),600959.1000000238,093_m_f_n_a.png,O,None,2014,4,1,3029.4000000059605,597929.7000000179,7249,NNB,C,2
1,test,2,0.0,2-Back,1.0,m,Mon Dec 08 2025 17:38:02 GMT-0600 (Central Standard Time),603024.1000000238,028_y_f_n_a.png,O,m,1043,5,1,2057.9000000059605,600966.2000000179,7249,NNB,C,3
2,test,2,0.0,2-Back,1.0,m,Mon Dec 08 2025 17:38:02 GMT-0600 (Central Standard Time),605106.1000000238,146_o_m_n_a.png,O,m,1064,6,1,2075.2000000178814,603030.900000006,7249,NNB,C,4
3,test,2,0.0,2-Back,1.0,m,Mon Dec 08 2025 17:38:02 GMT-0600 (Central Standard Time),606939.900000006,098_y_f_n_a.png,O,m,814,7,1,1830.9000000059605,605109.0,7249,NNB,C,5
4,test,2,1.0,2-Back,1.0,z,Mon Dec 08 2025 17:38:02 GMT-0600 (Central Standard Time),608773.2000000179,146_o_m_n_a.png,O,z,813,8,1,1826.5,606946.7000000179,7249,NNB,C,6
5,test,2,0.0,2-Back,1.0,m,Mon Dec 08 2025 17:38:02 GMT-0600 (Central Standard Time),610921.7000000179,031_y_m_n_a.png,O,m,1125,9,1,2145.300000011921,608776.400000006,7249,NNB,C,7
6,test,2,0.0,2-Back,1.0,m,Mon Dec 08 2025 17:38:02 GMT-0600 (Central Standard Time),613203.7000000179,031_y_m_n_a.png,O,m,1254,10,1,2274.4000000059605,610929.3000000119,7249,NNB,C,8
7,test,2,0.0,2-Back,1.0,m,Mon Dec 08 2025 17:38:02 GMT-0600 (Central Standard Time),615153.3000000119,006_m_f_n_a.png,O,m,926,11,1,1943.0,613210.3000000119,7249,NNB,C,9
8,test,2,0.0,2-Back,1.0,m,Mon Dec 08 2025 17:38:02 GMT-0600 (Central Standard Time),616918.3000000119,028_y_f_n_a.png,O,m,735,12,1,1756.0999999940395,615162.2000000179,7249,NNB,C,10
9,test,2,1.0,2-Back,1.0,z,Mon Dec 08 2025 17:38:02 GMT-0600 (Central Standard Time),618718.900000006,006_m_f_n_a.png,O,z,778,13,1,1794.0,616924.900000006,7249,NNB,C,11
10,test,2,0.0,2-Back,1.0,m,Mon Dec 08 2025 17:38:02 GMT-0600 (Central Standard Time),620517.7000000179,059_o_m_n_a.png,O,m,778,14,1,1792.7000000178814,618725.0,7249,NNB,C,12
11,test,2,0.0,2-Back,1.0,m,Mon Dec 08 2025 17:38:02 GMT-0600 (Central Standard Time),622601.8000000119,059_o_m_n_a.png,O,m,1066,15,1,2077.300000011921,620524.5,7249,NNB,C,13
12,test,2,0.0,2-Back,1.0,m,Mon Dec 08 2025 17:38:02 GMT-0600 (Central Standard Time),624900.2000000179,030_o_f_n_a.png,O,m,1272,16,1,2291.0999999940395,622609.1000000238,7249,NNB,C,14
13,test,2,0.0,2-Back,1.0,m,Mon Dec 08 2025 17:38:02 GMT-0600 (Central Standard Time),626849.8000000119,092_m_m_n_a.png,O,m,924,17,1,1942.699999988079,624907.1000000238,7249,NNB,C,15
14,test,2,1.0,2-Back,1.0,z,Mon Dec 08 2025 17:38:02 GMT-0600 (Central Standard Time),628732.6000000238,030_o_f_n_a.png,O,z,855,18,1,1874.6000000238419,626858.0,7249,NNB,C,16
0,test,3,1.0,2-Back,,,Mon Dec 08 2025 17:38:02 GMT-0600 (Central Standard Time),628732.6000000238,057_y_m_n_a.png,O,space,4315,1,1,1874.6000000238419,626858.0,7249,NNB,C,0
0,test,3,1.0,2-Back,,,Mon Dec 08 2025 17:38:02 GMT-0600 (Central Standard Time),628732.6000000238,057_y_m_n_a.png,O,space,4315,2,1,1874.6000000238419,626858.0,7249,NNB,C,0
0,test,3,0.0,2-Back,0.0,m,Mon Dec 08 2025 17:38:02 GMT-0600 (Central Standard Time),641214.1000000238,030_o_f_n_a.png,O,None,2001,3,1,3010.7000000178814,638203.400000006,7249,NNB,C,1
1,test,3,0.0,2-Back,1.0,m,Mon Dec 08 2025 17:38:02 GMT-0600 (Central Standard Time),642960.1000000238,082_m_m_n_a.png,O,m,724,4,1,1738.4000000059605,641221.7000000179,7249,NNB,C,2
2,test,3,1.0,2-Back,1.0,z,Mon Dec 08 2025 17:38:02 GMT-0600 (Central Standard Time),644713.8000000119,030_o_f_n_a.png,O,z,728,5,1,1751.199999988079,642962.6000000238,7249,NNB,C,3
3,test,3,0.0,2-Back,1.0,m,Mon Dec 08 2025 17:38:02 GMT-0600 (Central Standard Time),646527.3000000119,031_y_m_n_a.png,O,m,795,6,1,1805.5999999940395,644721.7000000179,7249,NNB,C,4
4,test,3,0.0,2-Back,1.0,m,Mon Dec 08 2025 17:38:02 GMT-0600 (Central Standard Time),648243.400000006,082_m_m_n_a.png,O,m,689,7,1,1710.2999999821186,646533.1000000238,7249,NNB,C,5
5,test,3,1.0,2-Back,1.0,z,Mon Dec 08 2025 17:38:02 GMT-0600 (Central Standard Time),650542.400000006,031_y_m_n_a.png,O,z,1278,8,1,2292.199999988079,648250.2000000179,7249,NNB,C,6
6,test,3,0.0,2-Back,1.0,m,Mon Dec 08 2025 17:38:02 GMT-0600 (Central Standard Time),652276.6000000238,028_y_f_n_a.png,O,m,716,9,1,1731.0,650545.6000000238,7249,NNB,C,7
7,test,3,0.0,2-Back,1.0,m,Mon Dec 08 2025 17:38:02 GMT-0600 (Central Standard Time),654124.8000000119,092_m_m_n_a.png,O,m,830,10,1,1840.0,652284.8000000119,7249,NNB,C,8
8,test,3,1.0,2-Back,1.0,z,Mon Dec 08 2025 17:38:02 GMT-0600 (Central Standard Time),655723.900000006,028_y_f_n_a.png,O,z,584,11,1,1592.0999999940395,654131.8000000119,7249,NNB,C,9
9,test,3,1.0,2-Back,1.0,z,Mon Dec 08 2025 17:38:02 GMT-0600 (Central Standard Time),657691.6000000238,092_m_m_n_a.png,O,z,948,12,1,1963.7000000178814,655727.900000006,7249,NNB,C,10
10,test,3,0.0,2-Back,1.0,m,Mon Dec 08 2025 17:38:02 GMT-0600 (Central Standard Time),659590.1000000238,030_o_f_n_a.png,O,m,878,13,1,1890.5,657699.6000000238,7249,NNB,C,11
11,test,3,0.0,2-Back,1.0,m,Mon Dec 08 2025 17:38:02 GMT-0600 (Central Standard Time),661287.900000006,093_m_f_n_a.png,O,m,675,14,1,1691.4000000059605,659596.5,7249,NNB,C,12
12,test,3,0.0,2-Back,1.0,m,Mon Dec 08 2025 17:38:02 GMT-0600 (Central Standard Time),663057.400000006,146_o_m_n_a.png,O,m,744,15,1,1764.2999999821186,661293.1000000238,7249,NNB,C,13
13,test,3,1.0,2-Back,1.0,z,Mon Dec 08 2025 17:38:02 GMT-0600 (Central Standard Time),664654.3000000119,093_m_f_n_a.png,O,z,579,16,1,1590.699999988079,663063.6000000238,7249,NNB,C,14
14,test,3,0.0,2-Back,1.0,m,Mon Dec 08 2025 17:38:02 GMT-0600 (Central Standard Time),666538.2000000179,130_o_f_n_a.png,O,m,865,17,1,1874.5,664663.7000000179,7249,NNB,C,15
15,test,3,0.0,2-Back,1.0,m,Mon Dec 08 2025 17:38:02 GMT-0600 (Central Standard Time),668571.7000000179,130_o_f_n_a.png,O,m,1017,18,1,2026.0,666545.7000000179,7249,NNB,C,16
0,test,4,0.0,2-Back,,,Mon Dec 08 2025 17:38:02 GMT-0600 (Central Standard Time),668571.7000000179,059_o_m_n_a.png,O,space,4181,1,1,2026.0,666545.7000000179,7249,NNB,C,0
0,test,4,0.0,2-Back,,,Mon Dec 08 2025 17:38:02 GMT-0600 (Central Standard Time),668571.7000000179,098_y_f_n_a.png,O,space,4181,2,1,2026.0,666545.7000000179,7249,NNB,C,0
1,test,4,1.0,2-Back,1.0,z,Mon Dec 08 2025 17:38:02 GMT-0600 (Central Standard Time),679698.900000006,059_o_m_n_a.png,O,z,721,3,1,1743.199999988079,677955.7000000179,7249,NNB,C,1
2,test,4,1.0,2-Back,1.0,z,Mon Dec 08 2025 17:38:02 GMT-0600 (Central Standard Time),681998.1000000238,098_y_f_n_a.png,O,z,1277,4,1,2292.100000023842,679706.0,7249,NNB,C,2
3,test,4,0.0,2-Back,1.0,m,Mon Dec 08 2025 17:38:02 GMT-0600 (Central Standard Time),683764.6000000238,030_o_f_n_a.png,O,m,738,5,1,1759.7000000178814,682004.900000006,7249,NNB,C,3
4,test,4,0.0,2-Back,1.0,m,Mon Dec 08 2025 17:38:02 GMT-0600 (Central Standard Time),685997.0,030_o_f_n_a.png,O,m,1212,6,1,2227.199999988079,683769.8000000119,7249,NNB,C,4
5,test,4,0.0,2-Back,1.0,m,Mon Dec 08 2025 17:38:02 GMT-0600 (Central Standard Time),687796.6000000238,006_m_f_n_a.png,O,m,770,7,1,1791.0,686005.6000000238,7249,NNB,C,5
6,test,4,0.0,2-Back,1.0,m,Mon Dec 08 2025 17:38:02 GMT-0600 (Central Standard Time),689413.2000000179,031_y_m_n_a.png,O,m,587,8,1,1609.800000011921,687803.400000006,7249,NNB,C,6
7,test,4,1.0,2-Back,1.0,z,Mon Dec 08 2025 17:38:02 GMT-0600 (Central Standard Time),691196.0,006_m_f_n_a.png,O,z,755,9,1,1777.8999999761581,689418.1000000238,7249,NNB,C,7
8,test,4,0.0,2-Back,1.0,m,Mon Dec 08 2025 17:38:02 GMT-0600 (Central Standard Time),692879.3000000119,092_m_m_n_a.png,O,m,661,10,1,1675.199999988079,691204.1000000238,7249,NNB,C,8
9,test,4,0.0,2-Back,1.0,m,Mon Dec 08 2025 17:38:02 GMT-0600 (Central Standard Time),694711.7000000179,031_y_m_n_a.png,O,m,802,11,1,1824.9000000059605,692886.8000000119,7249,NNB,C,9
10,test,4,0.0,2-Back,1.0,m,Mon Dec 08 2025 17:38:02 GMT-0600 (Central Standard Time),696511.1000000238,130_o_f_n_a.png,O,m,778,12,1,1792.1000000238419,694719.0,7249,NNB,C,10
11,test,4,0.0,2-Back,1.0,m,Mon Dec 08 2025 17:38:02 GMT-0600 (Central Standard Time),698261.1000000238,057_y_m_n_a.png,O,m,722,13,1,1744.1000000238419,696517.0,7249,NNB,C,11
12,test,4,1.0,2-Back,1.0,z,Mon Dec 08 2025 17:38:02 GMT-0600 (Central Standard Time),700227.5,130_o_f_n_a.png,O,z,950,14,1,1960.0,698267.5,7249,NNB,C,12
12,test,4,1.0,2-Back,0.0,z,Mon Dec 08 2025 17:38:02 GMT-0600 (Central Standard Time),701909.0,057_y_m_n_a.png,O,m,653,15,1,1676.699999988079,700232.3000000119,7249,NNB,C,13
13,test,4,0.0,2-Back,1.0,m,Mon Dec 08 2025 17:38:02 GMT-0600 (Central Standard Time),703808.8000000119,082_m_m_n_a.png,O,m,875,16,1,1892.4000000059605,701916.400000006,7249,NNB,C,14
14,test,4,0.0,2-Back,1.0,m,Mon Dec 08 2025 17:38:02 GMT-0600 (Central Standard Time),705840.8000000119,093_m_f_n_a.png,O,m,1007,17,1,2024.300000011921,703816.5,7249,NNB,C,15
15,test,4,1.0,2-Back,1.0,z,Mon Dec 08 2025 17:38:02 GMT-0600 (Central Standard Time),707589.900000006,082_m_m_n_a.png,O,z,728,18,1,1745.5999999940395,705844.3000000119,7249,NNB,C,16
0,test,5,1.0,2-Back,,,Mon Dec 08 2025 17:38:02 GMT-0600 (Central Standard Time),707589.900000006,057_y_m_n_a.png,O,space,2548,1,1,1745.5999999940395,705844.3000000119,7249,NNB,C,0
0,test,5,1.0,2-Back,,,Mon Dec 08 2025 17:38:02 GMT-0600 (Central Standard Time),707589.900000006,093_m_f_n_a.png,O,space,2548,2,1,1745.5999999940395,705844.3000000119,7249,NNB,C,0
1,test,5,1.0,2-Back,1.0,z,Mon Dec 08 2025 17:38:02 GMT-0600 (Central Standard Time),717354.6000000238,057_y_m_n_a.png,O,z,1142,3,1,2161.100000023842,715193.5,7249,NNB,C,1
2,test,5,1.0,2-Back,1.0,z,Mon Dec 08 2025 17:38:02 GMT-0600 (Central Standard Time),719137.6000000238,093_m_f_n_a.png,O,z,749,4,1,1779.2000000178814,717358.400000006,7249,NNB,C,2
3,test,5,0.0,2-Back,1.0,m,Mon Dec 08 2025 17:38:02 GMT-0600 (Central Standard Time),721303.0,130_o_f_n_a.png,O,m,1142,5,1,2158.5999999940395,719144.400000006,7249,NNB,C,3
4,test,5,0.0,2-Back,1.0,m,Mon Dec 08 2025 17:38:02 GMT-0600 (Central Standard Time),723203.1000000238,057_y_m_n_a.png,O,m,873,6,1,1895.2000000178814,721307.900000006,7249,NNB,C,4
5,test,5,0.0,2-Back,1.0,m,Mon Dec 08 2025 17:38:02 GMT-0600 (Central Standard Time),724850.8000000119,028_y_f_n_a.png,O,m,620,7,1,1641.0999999940395,723209.7000000179,7249,NNB,C,5
5,test,5,0.0,2-Back,0.0,m,Mon Dec 08 2025 17:38:02 GMT-0600 (Central Standard Time),726684.1000000238,130_o_f_n_a.png,O,z,804,8,1,1828.4000000059605,724855.7000000179,7249,NNB,C,6
6,test,5,1.0,2-Back,1.0,z,Mon Dec 08 2025 17:38:02 GMT-0600 (Central Standard Time),728851.900000006,028_y_f_n_a.png,O,z,1150,9,1,2161.0,726690.900000006,7249,NNB,C,7
7,test,5,0.0,2-Back,1.0,m,Mon Dec 08 2025 17:38:02 GMT-0600 (Central Standard Time),730517.0,146_o_m_n_a.png,O,m,646,10,1,1659.5,728857.5,7249,NNB,C,8
8,test,5,0.0,2-Back,1.0,m,Mon Dec 08 2025 17:38:02 GMT-0600 (Central Standard Time),732299.3000000119,006_m_f_n_a.png,O,m,756,11,1,1775.699999988079,730523.6000000238,7249,NNB,C,9
9,test,5,0.0,2-Back,1.0,m,Mon Dec 08 2025 17:38:02 GMT-0600 (Central Standard Time),734115.900000006,092_m_m_n_a.png,O,m,789,12,1,1810.2999999821186,732305.6000000238,7249,NNB,C,10
9,test,5,0.0,2-Back,0.0,m,Mon Dec 08 2025 17:38:02 GMT-0600 (Central Standard Time),736231.400000006,146_o_m_n_a.png,O,z,1086,13,1,2111.2999999821186,734120.1000000238,7249,NNB,C,11
10,test,5,1.0,2-Back,1.0,z,Mon Dec 08 2025 17:38:02 GMT-0600 (Central Standard Time),738282.0,092_m_m_n_a.png,O,z,1034,14,1,2048.2999999821186,736233.7000000179,7249,NNB,C,12
11,test,5,0.0,2-Back,1.0,m,Mon Dec 08 2025 17:38:02 GMT-0600 (Central Standard Time),740030.0,098_y_f_n_a.png,O,m,720,15,1,1741.0,738289.0,7249,NNB,C,13
12,test,5,0.0,2-Back,1.0,m,Mon Dec 08 2025 17:38:02 GMT-0600 (Central Standard Time),741829.7000000179,059_o_m_n_a.png,O,m,770,16,1,1795.0999999940395,740034.6000000238,7249,NNB,C,14
13,test,5,0.0,2-Back,1.0,m,Mon Dec 08 2025 17:38:02 GMT-0600 (Central Standard Time),743580.1000000238,006_m_f_n_a.png,O,m,724,17,1,1744.5,741835.6000000238,7249,NNB,C,15
14,test,5,1.0,2-Back,1.0,z,Mon Dec 08 2025 17:38:02 GMT-0600 (Central Standard Time),745396.0,059_o_m_n_a.png,O,z,799,18,1,1809.5999999940395,743586.400000006,7249,NNB,C,16
