acc_sum,block,block_c,change,condition,correct,correct_response,datetime,endtime,face,project,response,response_time,row_sel,session_number,start_end,starttime,subject_id,task,task_vers,trial
0,prac,1,,1-Back,,,Fri May 29 2026 09:12:45 GMT-0400 (Eastern Daylight Time),,050_m_f_n_a.png,I,space,11487,1,3,,,9034,NNB,A,0
1,prac,1,0.0,1-Back,1.0,m,Fri May 29 2026 09:12:45 GMT-0400 (Eastern Daylight Time),124487.89999961853,063_y_f_n_a.png,I,m,977,2,3,1855.1999998092651,122632.69999980927,9034,NNB,A,1
1,prac,1,1.0,1-Back,0.0,z,Fri May 29 2026 09:12:45 GMT-0400 (Eastern Daylight Time),127104.2999997139,063_y_f_n_a.png,I,m,1837,3,3,2607.5999999046326,124496.69999980927,9034,NNB,A,2
2,prac,1,0.0,1-Back,1.0,m,Fri May 29 2026 09:12:45 GMT-0400 (Eastern Daylight Time),129087.69999980927,053_o_m_n_a.png,I,m,1159,4,3,1972.4000000953674,127115.2999997139,9034,NNB,A,3
3,prac,1,0.0,1-Back,1.0,m,Fri May 29 2026 09:12:45 GMT-0400 (Eastern Daylight Time),130854.2999997139,058_m_m_n_a.png,I,m,871,5,3,1754.0,129100.2999997139,9034,NNB,A,4
4,prac,1,1.0,1-Back,1.0,z,Fri May 29 2026 09:12:45 GMT-0400 (Eastern Daylight Time),132554.19999980927,058_m_m_n_a.png,I,z,906,6,3,1687.5,130866.69999980927,9034,NNB,A,5
5,prac,1,0.0,1-Back,1.0,m,Fri May 29 2026 09:12:45 GMT-0400 (Eastern Daylight Time),134437.59999990463,047_o_f_n_a.png,I,m,909,7,3,1871.5999999046326,132566.0,9034,NNB,A,6
6,prac,1,0.0,1-Back,1.0,m,Fri May 29 2026 09:12:45 GMT-0400 (Eastern Daylight Time),136137.69999980927,045_m_m_n_a.png,I,m,868,8,3,1686.5999999046326,134451.09999990463,9034,NNB,A,7
7,prac,1,0.0,1-Back,1.0,m,Fri May 29 2026 09:12:45 GMT-0400 (Eastern Daylight Time),137937.7999997139,050_m_f_n_a.png,I,m,1016,9,3,1788.5999999046326,136149.19999980927,9034,NNB,A,8
8,prac,1,1.0,1-Back,1.0,z,Fri May 29 2026 09:12:45 GMT-0400 (Eastern Daylight Time),139487.59999990463,050_m_f_n_a.png,I,z,767,10,3,1538.2000002861023,137949.39999961853,9034,NNB,A,9
9,prac,1,0.0,1-Back,1.0,m,Fri May 29 2026 09:12:45 GMT-0400 (Eastern Daylight Time),141054.2999997139,053_o_m_n_a.png,I,m,788,11,3,1556.7999997138977,139497.5,9034,NNB,A,10
10,prac,1,0.0,1-Back,1.0,m,Fri May 29 2026 09:12:45 GMT-0400 (Eastern Daylight Time),142737.7999997139,010_y_f_n_a.png,I,m,812,12,3,1668.4000000953674,141069.39999961853,9034,NNB,A,11
0,test,1,0.0,1-Back,,,Fri May 29 2026 09:12:45 GMT-0400 (Eastern Daylight Time),142737.7999997139,063_y_f_n_a.png,I,space,13778,1,3,1668.4000000953674,141069.39999961853,9034,NNB,A,0
1,test,1,0.0,1-Back,1.0,m,Fri May 29 2026 09:12:45 GMT-0400 (Eastern Daylight Time),167571.09999990463,043_m_f_n_a.png,I,m,728,2,3,1743.2000002861023,165827.89999961853,9034,NNB,A,1
2,test,1,0.0,1-Back,1.0,m,Fri May 29 2026 09:12:45 GMT-0400 (Eastern Daylight Time),169470.5,010_y_f_n_a.png,I,m,882,3,3,1892.3000001907349,167578.19999980927,9034,NNB,A,2
3,test,1,1.0,1-Back,1.0,z,Fri May 29 2026 09:12:45 GMT-0400 (Eastern Daylight Time),171054.39999961853,010_y_f_n_a.png,I,z,566,4,3,1578.6999998092651,169475.69999980927,9034,NNB,A,3
4,test,1,0.0,1-Back,1.0,m,Fri May 29 2026 09:12:45 GMT-0400 (Eastern Daylight Time),172737.5,043_m_f_n_a.png,I,m,662,5,3,1675.7000002861023,171061.7999997139,9034,NNB,A,4
5,test,1,0.0,1-Back,1.0,m,Fri May 29 2026 09:12:45 GMT-0400 (Eastern Daylight Time),174554.09999990463,053_o_m_n_a.png,I,m,787,6,3,1809.7000002861023,172744.39999961853,9034,NNB,A,5
6,test,1,1.0,1-Back,1.0,z,Fri May 29 2026 09:12:45 GMT-0400 (Eastern Daylight Time),176287.19999980927,053_o_m_n_a.png,I,z,714,7,3,1724.0,174563.19999980927,9034,NNB,A,6
7,test,1,0.0,1-Back,1.0,m,Fri May 29 2026 09:12:45 GMT-0400 (Eastern Daylight Time),177970.7999997139,058_m_m_n_a.png,I,m,661,8,3,1676.5999999046326,176294.19999980927,9034,NNB,A,7
8,test,1,0.0,1-Back,1.0,m,Fri May 29 2026 09:12:45 GMT-0400 (Eastern Daylight Time),179787.5,047_o_f_n_a.png,I,m,786,9,3,1809.6000003814697,177977.89999961853,9034,NNB,A,8
9,test,1,0.0,1-Back,1.0,m,Fri May 29 2026 09:12:45 GMT-0400 (Eastern Daylight Time),181587.5,058_m_m_n_a.png,I,m,777,10,3,1795.0,179792.5,9034,NNB,A,9
10,test,1,0.0,1-Back,1.0,m,Fri May 29 2026 09:12:45 GMT-0400 (Eastern Daylight Time),183437.39999961853,041_y_m_n_a.png,I,m,818,11,3,1840.5999999046326,181596.7999997139,9034,NNB,A,10
11,test,1,1.0,1-Back,1.0,z,Fri May 29 2026 09:12:45 GMT-0400 (Eastern Daylight Time),185054.19999980927,041_y_m_n_a.png,I,z,583,12,3,1609.5,183444.69999980927,9034,NNB,A,11
12,test,1,0.0,1-Back,1.0,m,Fri May 29 2026 09:12:45 GMT-0400 (Eastern Daylight Time),186737.5,044_o_f_n_a.png,I,m,662,13,3,1674.3000001907349,185063.19999980927,9034,NNB,A,12
13,test,1,1.0,1-Back,1.0,z,Fri May 29 2026 09:12:45 GMT-0400 (Eastern Daylight Time),188620.7999997139,044_o_f_n_a.png,I,z,851,14,3,1876.7999997138977,186744.0,9034,NNB,A,13
14,test,1,0.0,1-Back,1.0,m,Fri May 29 2026 09:12:45 GMT-0400 (Eastern Daylight Time),190403.7999997139,008_y_m_n_a.png,I,m,759,15,3,1776.0,188627.7999997139,9034,NNB,A,14
15,test,1,0.0,1-Back,1.0,m,Fri May 29 2026 09:12:45 GMT-0400 (Eastern Daylight Time),192204.2999997139,050_m_f_n_a.png,I,m,769,16,3,1796.0,190408.2999997139,9034,NNB,A,15
16,test,1,0.0,1-Back,1.0,m,Fri May 29 2026 09:12:45 GMT-0400 (Eastern Daylight Time),194020.69999980927,046_o_m_n_a.png,I,m,793,17,3,1809.5999999046326,192211.09999990463,9034,NNB,A,16
17,test,1,0.0,1-Back,1.0,m,Fri May 29 2026 09:12:45 GMT-0400 (Eastern Daylight Time),195804.19999980927,050_m_f_n_a.png,I,m,752,18,3,1777.0,194027.19999980927,9034,NNB,A,17
0,test,2,0.0,1-Back,,,Fri May 29 2026 09:12:45 GMT-0400 (Eastern Daylight Time),195804.19999980927,058_m_m_n_a.png,I,space,1744,1,3,1777.0,194027.19999980927,9034,NNB,A,0
1,test,2,0.0,1-Back,1.0,m,Fri May 29 2026 09:12:45 GMT-0400 (Eastern Daylight Time),201237.59999990463,043_m_f_n_a.png,I,m,642,2,3,1659.3000001907349,199578.2999997139,9034,NNB,A,1
1,test,2,1.0,1-Back,0.0,z,Fri May 29 2026 09:12:45 GMT-0400 (Eastern Daylight Time),202854.19999980927,043_m_f_n_a.png,I,m,591,3,3,1609.3000001907349,201244.89999961853,9034,NNB,A,2
2,test,2,0.0,1-Back,1.0,m,Fri May 29 2026 09:12:45 GMT-0400 (Eastern Daylight Time),204804.2999997139,058_m_m_n_a.png,I,m,926,4,3,1943.4000000953674,202860.89999961853,9034,NNB,A,3
3,test,2,0.0,1-Back,1.0,m,Fri May 29 2026 09:12:45 GMT-0400 (Eastern Daylight Time),206604.2999997139,041_y_m_n_a.png,I,m,768,5,3,1793.5999999046326,204810.69999980927,9034,NNB,A,4
4,test,2,0.0,1-Back,1.0,m,Fri May 29 2026 09:12:45 GMT-0400 (Eastern Daylight Time),208387.59999990463,063_y_f_n_a.png,I,m,761,6,3,1777.5,206610.09999990463,9034,NNB,A,5
5,test,2,1.0,1-Back,1.0,z,Fri May 29 2026 09:12:45 GMT-0400 (Eastern Daylight Time),210104.0,063_y_f_n_a.png,I,z,689,7,3,1706.7000002861023,208397.2999997139,9034,NNB,A,6
6,test,2,0.0,1-Back,1.0,m,Fri May 29 2026 09:12:45 GMT-0400 (Eastern Daylight Time),211787.5,041_y_m_n_a.png,I,m,653,8,3,1676.7000002861023,210110.7999997139,9034,NNB,A,7
7,test,2,0.0,1-Back,1.0,m,Fri May 29 2026 09:12:45 GMT-0400 (Eastern Daylight Time),213454.19999980927,044_o_f_n_a.png,I,m,633,9,3,1660.1999998092651,211794.0,9034,NNB,A,8
8,test,2,0.0,1-Back,1.0,m,Fri May 29 2026 09:12:45 GMT-0400 (Eastern Daylight Time),215204.19999980927,045_m_m_n_a.png,I,m,726,10,3,1742.0,213462.19999980927,9034,NNB,A,9
9,test,2,1.0,1-Back,1.0,z,Fri May 29 2026 09:12:45 GMT-0400 (Eastern Daylight Time),216920.89999961853,045_m_m_n_a.png,I,z,688,11,3,1709.5,215211.39999961853,9034,NNB,A,10
10,test,2,0.0,1-Back,1.0,m,Fri May 29 2026 09:12:45 GMT-0400 (Eastern Daylight Time),218687.39999961853,044_o_f_n_a.png,I,m,748,12,3,1757.0999999046326,216930.2999997139,9034,NNB,A,11
11,test,2,0.0,1-Back,1.0,m,Fri May 29 2026 09:12:45 GMT-0400 (Eastern Daylight Time),220454.19999980927,047_o_f_n_a.png,I,m,741,13,3,1758.5,218695.69999980927,9034,NNB,A,12
12,test,2,0.0,1-Back,1.0,m,Fri May 29 2026 09:12:45 GMT-0400 (Eastern Daylight Time),222337.5,053_o_m_n_a.png,I,m,863,14,3,1876.4000000953674,220461.09999990463,9034,NNB,A,13
13,test,2,0.0,1-Back,1.0,m,Fri May 29 2026 09:12:45 GMT-0400 (Eastern Daylight Time),224087.59999990463,046_o_m_n_a.png,I,m,723,15,3,1743.4000000953674,222344.19999980927,9034,NNB,A,14
14,test,2,1.0,1-Back,1.0,z,Fri May 29 2026 09:12:45 GMT-0400 (Eastern Daylight Time),225687.59999990463,046_o_m_n_a.png,I,z,573,16,3,1593.7000002861023,224093.89999961853,9034,NNB,A,15
15,test,2,0.0,1-Back,1.0,m,Fri May 29 2026 09:12:45 GMT-0400 (Eastern Daylight Time),227504.0,008_y_m_n_a.png,I,m,797,17,3,1806.7000002861023,225697.2999997139,9034,NNB,A,16
16,test,2,1.0,1-Back,1.0,z,Fri May 29 2026 09:12:45 GMT-0400 (Eastern Daylight Time),229170.7999997139,008_y_m_n_a.png,I,z,645,18,3,1658.4000000953674,227512.39999961853,9034,NNB,A,17
0,test,3,1.0,1-Back,,,Fri May 29 2026 09:12:45 GMT-0400 (Eastern Daylight Time),229170.7999997139,010_y_f_n_a.png,I,space,1050,1,3,1658.4000000953674,227512.39999961853,9034,NNB,A,0
1,test,3,0.0,1-Back,1.0,m,Fri May 29 2026 09:12:45 GMT-0400 (Eastern Daylight Time),234004.2999997139,046_o_m_n_a.png,I,m,643,2,3,1659.1999998092651,232345.09999990463,9034,NNB,A,1
2,test,3,1.0,1-Back,1.0,z,Fri May 29 2026 09:12:45 GMT-0400 (Eastern Daylight Time),235754.09999990463,046_o_m_n_a.png,I,z,720,3,3,1742.4000000953674,234011.69999980927,9034,NNB,A,2
3,test,3,0.0,1-Back,1.0,m,Fri May 29 2026 09:12:45 GMT-0400 (Eastern Daylight Time),237454.0,050_m_f_n_a.png,I,m,666,4,3,1692.9000000953674,235761.09999990463,9034,NNB,A,3
4,test,3,1.0,1-Back,1.0,z,Fri May 29 2026 09:12:45 GMT-0400 (Eastern Daylight Time),239187.5,050_m_f_n_a.png,I,z,710,5,3,1725.5,237462.0,9034,NNB,A,4
5,test,3,0.0,1-Back,1.0,m,Fri May 29 2026 09:12:45 GMT-0400 (Eastern Daylight Time),240904.19999980927,044_o_f_n_a.png,I,m,689,6,3,1709.6999998092651,239194.5,9034,NNB,A,5
6,test,3,0.0,1-Back,1.0,m,Fri May 29 2026 09:12:45 GMT-0400 (Eastern Daylight Time),242854.19999980927,041_y_m_n_a.png,I,m,924,7,3,1943.4000000953674,240910.7999997139,9034,NNB,A,6
7,test,3,0.0,1-Back,1.0,m,Fri May 29 2026 09:12:45 GMT-0400 (Eastern Daylight Time),244554.19999980927,044_o_f_n_a.png,I,m,670,8,3,1692.4000000953674,242861.7999997139,9034,NNB,A,7
8,test,3,0.0,1-Back,1.0,m,Fri May 29 2026 09:12:45 GMT-0400 (Eastern Daylight Time),246354.09999990463,008_y_m_n_a.png,I,m,779,9,3,1791.9000000953674,244562.19999980927,9034,NNB,A,8
9,test,3,1.0,1-Back,1.0,z,Fri May 29 2026 09:12:45 GMT-0400 (Eastern Daylight Time),247920.69999980927,008_y_m_n_a.png,I,z,546,10,3,1557.6999998092651,246363.0,9034,NNB,A,9
10,test,3,0.0,1-Back,1.0,m,Fri May 29 2026 09:12:45 GMT-0400 (Eastern Daylight Time),249637.59999990463,043_m_f_n_a.png,I,m,692,11,3,1709.7000002861023,247927.89999961853,9034,NNB,A,10
11,test,3,0.0,1-Back,1.0,m,Fri May 29 2026 09:12:45 GMT-0400 (Eastern Daylight Time),251354.2999997139,063_y_f_n_a.png,I,m,687,12,3,1709.0,249645.2999997139,9034,NNB,A,11
12,test,3,1.0,1-Back,1.0,z,Fri May 29 2026 09:12:45 GMT-0400 (Eastern Daylight Time),252987.59999990463,063_y_f_n_a.png,I,z,603,13,3,1626.2000002861023,251361.39999961853,9034,NNB,A,12
13,test,3,0.0,1-Back,1.0,m,Fri May 29 2026 09:12:45 GMT-0400 (Eastern Daylight Time),254837.5,043_m_f_n_a.png,I,m,825,14,3,1842.7000002861023,252994.7999997139,9034,NNB,A,13
14,test,3,0.0,1-Back,1.0,m,Fri May 29 2026 09:12:45 GMT-0400 (Eastern Daylight Time),256570.89999961853,058_m_m_n_a.png,I,m,703,15,3,1726.7999997138977,254844.09999990463,9034,NNB,A,14
15,test,3,1.0,1-Back,1.0,z,Fri May 29 2026 09:12:45 GMT-0400 (Eastern Daylight Time),258287.2999997139,058_m_m_n_a.png,I,z,698,16,3,1709.1999998092651,256578.09999990463,9034,NNB,A,15
16,test,3,0.0,1-Back,1.0,m,Fri May 29 2026 09:12:45 GMT-0400 (Eastern Daylight Time),259937.5,047_o_f_n_a.png,I,m,629,17,3,1642.1000003814697,258295.39999961853,9034,NNB,A,16
17,test,3,1.0,1-Back,1.0,z,Fri May 29 2026 09:12:45 GMT-0400 (Eastern Daylight Time),261637.59999990463,047_o_f_n_a.png,I,z,675,18,3,1692.5,259945.09999990463,9034,NNB,A,17
0,test,4,1.0,1-Back,,,Fri May 29 2026 09:12:45 GMT-0400 (Eastern Daylight Time),261637.59999990463,050_m_f_n_a.png,I,space,1015,1,3,1692.5,259945.09999990463,9034,NNB,A,0
1,test,4,0.0,1-Back,1.0,m,Fri May 29 2026 09:12:45 GMT-0400 (Eastern Daylight Time),266604.2999997139,046_o_m_n_a.png,I,m,902,2,3,1926.5999999046326,264677.69999980927,9034,NNB,A,1
2,test,4,0.0,1-Back,1.0,m,Fri May 29 2026 09:12:45 GMT-0400 (Eastern Daylight Time),268787.2999997139,050_m_f_n_a.png,I,m,1159,3,3,2176.4000000953674,266610.89999961853,9034,NNB,A,2
3,test,4,0.0,1-Back,1.0,m,Fri May 29 2026 09:12:45 GMT-0400 (Eastern Daylight Time),270670.89999961853,044_o_f_n_a.png,I,m,850,4,3,1877.5999999046326,268793.2999997139,9034,NNB,A,3
4,test,4,1.0,1-Back,1.0,z,Fri May 29 2026 09:12:45 GMT-0400 (Eastern Daylight Time),272370.89999961853,044_o_f_n_a.png,I,z,678,5,3,1693.0999999046326,270677.7999997139,9034,NNB,A,4
5,test,4,0.0,1-Back,1.0,m,Fri May 29 2026 09:12:45 GMT-0400 (Eastern Daylight Time),274220.89999961853,063_y_f_n_a.png,I,m,817,6,3,1842.2999997138977,272378.59999990463,9034,NNB,A,5
6,test,4,0.0,1-Back,1.0,m,Fri May 29 2026 09:12:45 GMT-0400 (Eastern Daylight Time),276020.89999961853,041_y_m_n_a.png,I,m,776,7,3,1791.7999997138977,274229.09999990463,9034,NNB,A,6
7,test,4,1.0,1-Back,1.0,z,Fri May 29 2026 09:12:45 GMT-0400 (Eastern Daylight Time),277687.59999990463,041_y_m_n_a.png,I,z,640,8,3,1659.3000001907349,276028.2999997139,9034,NNB,A,7
8,test,4,0.0,1-Back,1.0,m,Fri May 29 2026 09:12:45 GMT-0400 (Eastern Daylight Time),279470.09999990463,063_y_f_n_a.png,I,m,764,9,3,1774.5,277695.59999990463,9034,NNB,A,8
9,test,4,0.0,1-Back,1.0,m,Fri May 29 2026 09:12:45 GMT-0400 (Eastern Daylight Time),281337.5,045_m_m_n_a.png,I,m,838,10,3,1863.9000000953674,279473.59999990463,9034,NNB,A,9
10,test,4,1.0,1-Back,1.0,z,Fri May 29 2026 09:12:45 GMT-0400 (Eastern Daylight Time),283070.7999997139,045_m_m_n_a.png,I,z,715,11,3,1726.6999998092651,281344.09999990463,9034,NNB,A,10
11,test,4,0.0,1-Back,1.0,m,Fri May 29 2026 09:12:45 GMT-0400 (Eastern Daylight Time),284870.89999961853,047_o_f_n_a.png,I,m,774,12,3,1793.7999997138977,283077.09999990463,9034,NNB,A,11
12,test,4,0.0,1-Back,1.0,m,Fri May 29 2026 09:12:45 GMT-0400 (Eastern Daylight Time),286920.7999997139,053_o_m_n_a.png,I,m,1022,13,3,2042.6999998092651,284878.09999990463,9034,NNB,A,12
13,test,4,0.0,1-Back,1.0,m,Fri May 29 2026 09:12:45 GMT-0400 (Eastern Daylight Time),288804.0,047_o_f_n_a.png,I,m,859,14,3,1874.4000000953674,286929.59999990463,9034,NNB,A,13
14,test,4,0.0,1-Back,1.0,m,Fri May 29 2026 09:12:45 GMT-0400 (Eastern Daylight Time),290654.19999980927,010_y_f_n_a.png,I,m,817,15,3,1846.8000001907349,288807.39999961853,9034,NNB,A,14
15,test,4,1.0,1-Back,1.0,z,Fri May 29 2026 09:12:45 GMT-0400 (Eastern Daylight Time),292420.89999961853,010_y_f_n_a.png,I,z,742,16,3,1759.6999998092651,290661.19999980927,9034,NNB,A,15
16,test,4,0.0,1-Back,1.0,m,Fri May 29 2026 09:12:45 GMT-0400 (Eastern Daylight Time),294137.59999990463,043_m_f_n_a.png,I,m,688,17,3,1709.7000002861023,292427.89999961853,9034,NNB,A,16
17,test,4,1.0,1-Back,1.0,z,Fri May 29 2026 09:12:45 GMT-0400 (Eastern Daylight Time),295887.2999997139,043_m_f_n_a.png,I,z,731,18,3,1740.5999999046326,294146.69999980927,9034,NNB,A,17
0,test,5,1.0,1-Back,,,Fri May 29 2026 09:12:45 GMT-0400 (Eastern Daylight Time),295887.2999997139,053_o_m_n_a.png,I,space,1037,1,3,1740.5999999046326,294146.69999980927,9034,NNB,A,0
1,test,5,1.0,1-Back,1.0,z,Fri May 29 2026 09:12:45 GMT-0400 (Eastern Daylight Time),300704.0,053_o_m_n_a.png,I,z,731,2,3,1742.8000001907349,298961.19999980927,9034,NNB,A,1
2,test,5,0.0,1-Back,1.0,m,Fri May 29 2026 09:12:45 GMT-0400 (Eastern Daylight Time),302387.59999990463,063_y_f_n_a.png,I,m,660,3,3,1676.5999999046326,300711.0,9034,NNB,A,2
3,test,5,0.0,1-Back,1.0,m,Fri May 29 2026 09:12:45 GMT-0400 (Eastern Daylight Time),304487.5,041_y_m_n_a.png,I,m,1073,4,3,2093.6000003814697,302393.89999961853,9034,NNB,A,3
4,test,5,0.0,1-Back,1.0,m,Fri May 29 2026 09:12:45 GMT-0400 (Eastern Daylight Time),306320.7999997139,063_y_f_n_a.png,I,m,813,5,3,1826.2999997138977,304494.5,9034,NNB,A,4
5,test,5,0.0,1-Back,1.0,m,Fri May 29 2026 09:12:45 GMT-0400 (Eastern Daylight Time),308087.5,058_m_m_n_a.png,I,m,740,6,3,1759.5,306328.0,9034,NNB,A,5
6,test,5,1.0,1-Back,1.0,z,Fri May 29 2026 09:12:45 GMT-0400 (Eastern Daylight Time),309770.89999961853,058_m_m_n_a.png,I,z,653,7,3,1675.0999999046326,308095.7999997139,9034,NNB,A,6
7,test,5,0.0,1-Back,1.0,m,Fri May 29 2026 09:12:45 GMT-0400 (Eastern Daylight Time),311404.2999997139,010_y_f_n_a.png,I,m,602,8,3,1626.5,309777.7999997139,9034,NNB,A,7
8,test,5,0.0,1-Back,1.0,m,Fri May 29 2026 09:12:45 GMT-0400 (Eastern Daylight Time),313287.5,008_y_m_n_a.png,I,m,856,9,3,1874.4000000953674,311413.09999990463,9034,NNB,A,8
9,test,5,0.0,1-Back,1.0,m,Fri May 29 2026 09:12:45 GMT-0400 (Eastern Daylight Time),315087.5,010_y_f_n_a.png,I,m,781,10,3,1793.6000003814697,313293.89999961853,9034,NNB,A,9
10,test,5,0.0,1-Back,1.0,m,Fri May 29 2026 09:12:45 GMT-0400 (Eastern Daylight Time),316854.19999980927,047_o_f_n_a.png,I,m,741,11,3,1762.0,315092.19999980927,9034,NNB,A,10
11,test,5,1.0,1-Back,1.0,z,Fri May 29 2026 09:12:45 GMT-0400 (Eastern Daylight Time),318620.7999997139,047_o_f_n_a.png,I,z,734,12,3,1760.5,316860.2999997139,9034,NNB,A,11
12,test,5,0.0,1-Back,1.0,m,Fri May 29 2026 09:12:45 GMT-0400 (Eastern Daylight Time),320387.59999990463,046_o_m_n_a.png,I,m,744,13,3,1759.9000000953674,318627.69999980927,9034,NNB,A,12
13,test,5,0.0,1-Back,1.0,m,Fri May 29 2026 09:12:45 GMT-0400 (Eastern Daylight Time),322087.59999990463,050_m_f_n_a.png,I,m,673,14,3,1693.3000001907349,320394.2999997139,9034,NNB,A,13
14,test,5,1.0,1-Back,1.0,z,Fri May 29 2026 09:12:45 GMT-0400 (Eastern Daylight Time),323854.2999997139,050_m_f_n_a.png,I,z,733,15,3,1760.2999997138977,322094.0,9034,NNB,A,14
15,test,5,0.0,1-Back,1.0,m,Fri May 29 2026 09:12:45 GMT-0400 (Eastern Daylight Time),325754.0,046_o_m_n_a.png,I,m,870,16,3,1893.0,323861.0,9034,NNB,A,15
16,test,5,0.0,1-Back,1.0,m,Fri May 29 2026 09:12:45 GMT-0400 (Eastern Daylight Time),327620.7999997139,043_m_f_n_a.png,I,m,843,17,3,1860.5,325760.2999997139,9034,NNB,A,16
17,test,5,0.0,1-Back,1.0,m,Fri May 29 2026 09:12:45 GMT-0400 (Eastern Daylight Time),329537.5,045_m_m_n_a.png,I,m,896,18,3,1907.7000002861023,327629.7999997139,9034,NNB,A,17
0,prac,1,0.0,2-Back,,,Fri May 29 2026 09:12:45 GMT-0400 (Eastern Daylight Time),329537.5,008_y_m_n_a.png,I,space,9892,1,3,1907.7000002861023,327629.7999997139,9034,NNB,A,0
0,prac,1,0.0,2-Back,,,Fri May 29 2026 09:12:45 GMT-0400 (Eastern Daylight Time),329537.5,043_m_f_n_a.png,I,space,9892,2,3,1907.7000002861023,327629.7999997139,9034,NNB,A,0
1,prac,1,1.0,2-Back,1.0,m,Fri May 29 2026 09:12:45 GMT-0400 (Eastern Daylight Time),430154.7999997139,046_o_m_n_a.png,I,m,801,3,3,1625.1999998092651,428529.59999990463,9034,NNB,A,1
2,prac,1,0.0,2-Back,1.0,m,Fri May 29 2026 09:12:45 GMT-0400 (Eastern Daylight Time),432070.69999980927,047_o_f_n_a.png,I,m,1038,4,3,1905.3000001907349,430165.39999961853,9034,NNB,A,2
3,prac,1,0.0,2-Back,1.0,z,Fri May 29 2026 09:12:45 GMT-0400 (Eastern Daylight Time),433587.89999961853,046_o_m_n_a.png,I,z,734,5,3,1508.5,432079.39999961853,9034,NNB,A,3
4,prac,1,1.0,2-Back,1.0,z,Fri May 29 2026 09:12:45 GMT-0400 (Eastern Daylight Time),435387.7999997139,047_o_f_n_a.png,I,z,1009,6,3,1791.2999997138977,433596.5,9034,NNB,A,4
5,prac,1,0.0,2-Back,1.0,m,Fri May 29 2026 09:12:45 GMT-0400 (Eastern Daylight Time),437021.0,045_m_m_n_a.png,I,m,809,7,3,1619.8000001907349,435401.19999980927,9034,NNB,A,5
6,prac,1,0.0,2-Back,1.0,m,Fri May 29 2026 09:12:45 GMT-0400 (Eastern Daylight Time),438754.39999961853,053_o_m_n_a.png,I,m,907,8,3,1722.0,437032.39999961853,9034,NNB,A,6
7,prac,1,0.0,2-Back,1.0,m,Fri May 29 2026 09:12:45 GMT-0400 (Eastern Daylight Time),440471.19999980927,010_y_f_n_a.png,I,m,848,9,3,1708.5999999046326,438762.59999990463,9034,NNB,A,7
8,prac,1,1.0,2-Back,1.0,z,Fri May 29 2026 09:12:45 GMT-0400 (Eastern Daylight Time),441904.09999990463,053_o_m_n_a.png,I,z,652,10,3,1422.0999999046326,440482.0,9034,NNB,A,8
9,prac,1,0.0,2-Back,1.0,m,Fri May 29 2026 09:12:45 GMT-0400 (Eastern Daylight Time),443571.09999990463,063_y_f_n_a.png,I,m,820,11,3,1654.4000000953674,441916.69999980927,9034,NNB,A,9
10,prac,1,0.0,2-Back,1.0,m,Fri May 29 2026 09:12:45 GMT-0400 (Eastern Daylight Time),445421.19999980927,045_m_m_n_a.png,I,m,1057,12,3,1839.5999999046326,443581.59999990463,9034,NNB,A,10
0,test,1,0.0,2-Back,,,Fri May 29 2026 09:12:45 GMT-0400 (Eastern Daylight Time),445421.19999980927,041_y_m_n_a.png,I,space,10764,1,3,1839.5999999046326,443581.59999990463,9034,NNB,A,0
0,test,1,0.0,2-Back,,,Fri May 29 2026 09:12:45 GMT-0400 (Eastern Daylight Time),445421.19999980927,041_y_m_n_a.png,I,space,10764,2,3,1839.5999999046326,443581.59999990463,9034,NNB,A,0
1,test,1,0.0,2-Back,1.0,m,Fri May 29 2026 09:12:45 GMT-0400 (Eastern Daylight Time),471187.89999961853,047_o_f_n_a.png,I,m,877,3,3,1893.6999998092651,469294.19999980927,9034,NNB,A,1
2,test,1,0.0,2-Back,1.0,m,Fri May 29 2026 09:12:45 GMT-0400 (Eastern Daylight Time),473054.39999961853,058_m_m_n_a.png,I,m,833,4,3,1858.3999996185303,471196.0,9034,NNB,A,2
3,test,1,1.0,2-Back,1.0,z,Fri May 29 2026 09:12:45 GMT-0400 (Eastern Daylight Time),474654.2999997139,047_o_f_n_a.png,I,z,567,5,3,1592.6999998092651,473061.59999990463,9034,NNB,A,3
4,test,1,0.0,2-Back,1.0,m,Fri May 29 2026 09:12:45 GMT-0400 (Eastern Daylight Time),476504.39999961853,063_y_f_n_a.png,I,m,822,6,3,1842.0,474662.39999961853,9034,NNB,A,4
4,test,1,0.0,2-Back,0.0,m,Fri May 29 2026 09:12:45 GMT-0400 (Eastern Daylight Time),478671.09999990463,058_m_m_n_a.png,I,z,1133,7,3,2160.5,476510.59999990463,9034,NNB,A,5
5,test,1,1.0,2-Back,1.0,z,Fri May 29 2026 09:12:45 GMT-0400 (Eastern Daylight Time),480754.19999980927,063_y_f_n_a.png,I,z,1062,8,3,2076.699999809265,478677.5,9034,NNB,A,6
6,test,1,0.0,2-Back,1.0,m,Fri May 29 2026 09:12:45 GMT-0400 (Eastern Daylight Time),482604.39999961853,008_y_m_n_a.png,I,m,818,9,3,1842.3999996185303,480762.0,9034,NNB,A,7
7,test,1,0.0,2-Back,1.0,m,Fri May 29 2026 09:12:45 GMT-0400 (Eastern Daylight Time),484471.09999990463,044_o_f_n_a.png,I,m,840,10,3,1859.5,482611.59999990463,9034,NNB,A,8
8,test,1,1.0,2-Back,1.0,z,Fri May 29 2026 09:12:45 GMT-0400 (Eastern Daylight Time),486271.09999990463,008_y_m_n_a.png,I,z,783,11,3,1791.5999999046326,484479.5,9034,NNB,A,9
9,test,1,0.0,2-Back,1.0,m,Fri May 29 2026 09:12:45 GMT-0400 (Eastern Daylight Time),488154.2999997139,043_m_f_n_a.png,I,m,854,12,3,1876.5,486277.7999997139,9034,NNB,A,10
10,test,1,0.0,2-Back,1.0,m,Fri May 29 2026 09:12:45 GMT-0400 (Eastern Daylight Time),490187.7999997139,043_m_f_n_a.png,I,m,1002,13,3,2026.5999999046326,488161.19999980927,9034,NNB,A,11
11,test,1,0.0,2-Back,1.0,m,Fri May 29 2026 09:12:45 GMT-0400 (Eastern Daylight Time),492304.2999997139,046_o_m_n_a.png,I,m,1098,14,3,2109.4000000953674,490194.89999961853,9034,NNB,A,12
12,test,1,0.0,2-Back,1.0,m,Fri May 29 2026 09:12:45 GMT-0400 (Eastern Daylight Time),494087.5,044_o_f_n_a.png,I,m,755,15,3,1776.4000000953674,492311.09999990463,9034,NNB,A,13
13,test,1,1.0,2-Back,1.0,z,Fri May 29 2026 09:12:45 GMT-0400 (Eastern Daylight Time),495787.69999980927,046_o_m_n_a.png,I,z,669,16,3,1695.9000000953674,494091.7999997139,9034,NNB,A,14
14,test,1,0.0,2-Back,1.0,m,Fri May 29 2026 09:12:45 GMT-0400 (Eastern Daylight Time),497520.89999961853,050_m_f_n_a.png,I,m,714,17,3,1726.1999998092651,495794.69999980927,9034,NNB,A,15
15,test,1,0.0,2-Back,1.0,m,Fri May 29 2026 09:12:45 GMT-0400 (Eastern Daylight Time),499437.69999980927,045_m_m_n_a.png,I,m,884,18,3,1908.0999999046326,497529.59999990463,9034,NNB,A,16
0,test,2,0.0,2-Back,,,Fri May 29 2026 09:12:45 GMT-0400 (Eastern Daylight Time),499437.69999980927,045_m_m_n_a.png,I,space,1199,1,3,1908.0999999046326,497529.59999990463,9034,NNB,A,0
0,test,2,0.0,2-Back,,,Fri May 29 2026 09:12:45 GMT-0400 (Eastern Daylight Time),499437.69999980927,010_y_f_n_a.png,I,space,1199,2,3,1908.0999999046326,497529.59999990463,9034,NNB,A,0
1,test,2,1.0,2-Back,1.0,z,Fri May 29 2026 09:12:45 GMT-0400 (Eastern Daylight Time),507504.09999990463,045_m_m_n_a.png,I,z,697,3,3,1710.4000000953674,505793.69999980927,9034,NNB,A,1
2,test,2,0.0,2-Back,1.0,m,Fri May 29 2026 09:12:45 GMT-0400 (Eastern Daylight Time),509204.2999997139,050_m_f_n_a.png,I,m,677,4,3,1695.0,507509.2999997139,9034,NNB,A,2
3,test,2,0.0,2-Back,1.0,m,Fri May 29 2026 09:12:45 GMT-0400 (Eastern Daylight Time),510954.39999961853,010_y_f_n_a.png,I,m,720,5,3,1743.2999997138977,509211.09999990463,9034,NNB,A,3
4,test,2,0.0,2-Back,1.0,m,Fri May 29 2026 09:12:45 GMT-0400 (Eastern Daylight Time),512870.89999961853,046_o_m_n_a.png,I,m,890,6,3,1909.6999998092651,510961.19999980927,9034,NNB,A,4
5,test,2,0.0,2-Back,1.0,m,Fri May 29 2026 09:12:45 GMT-0400 (Eastern Daylight Time),514587.69999980927,063_y_f_n_a.png,I,m,686,7,3,1708.0,512879.69999980927,9034,NNB,A,5
6,test,2,1.0,2-Back,1.0,z,Fri May 29 2026 09:12:45 GMT-0400 (Eastern Daylight Time),516104.5,046_o_m_n_a.png,I,z,489,8,3,1509.9000000953674,514594.59999990463,9034,NNB,A,6
7,test,2,0.0,2-Back,1.0,m,Fri May 29 2026 09:12:45 GMT-0400 (Eastern Daylight Time),518154.39999961853,008_y_m_n_a.png,I,m,1020,9,3,2041.1999998092651,516113.19999980927,9034,NNB,A,7
8,test,2,0.0,2-Back,1.0,m,Fri May 29 2026 09:12:45 GMT-0400 (Eastern Daylight Time),520071.09999990463,008_y_m_n_a.png,I,m,891,10,3,1910.5999999046326,518160.5,9034,NNB,A,8
9,test,2,0.0,2-Back,1.0,m,Fri May 29 2026 09:12:45 GMT-0400 (Eastern Daylight Time),521921.0,043_m_f_n_a.png,I,m,830,11,3,1843.2000002861023,520077.7999997139,9034,NNB,A,9
10,test,2,0.0,2-Back,1.0,m,Fri May 29 2026 09:12:45 GMT-0400 (Eastern Daylight Time),523620.89999961853,010_y_f_n_a.png,I,m,676,12,3,1691.3999996185303,521929.5,9034,NNB,A,10
11,test,2,1.0,2-Back,1.0,z,Fri May 29 2026 09:12:45 GMT-0400 (Eastern Daylight Time),525287.7999997139,043_m_f_n_a.png,I,z,640,13,3,1660.1999998092651,523627.59999990463,9034,NNB,A,11
12,test,2,0.0,2-Back,1.0,m,Fri May 29 2026 09:12:45 GMT-0400 (Eastern Daylight Time),526954.2999997139,053_o_m_n_a.png,I,m,637,14,3,1657.1999998092651,525297.0999999046,9034,NNB,A,12
12,test,2,0.0,2-Back,0.0,m,Fri May 29 2026 09:12:45 GMT-0400 (Eastern Daylight Time),528487.6999998093,053_o_m_n_a.png,I,z,506,15,3,1526.8000001907349,526960.8999996185,9034,NNB,A,13
13,test,2,0.0,2-Back,1.0,m,Fri May 29 2026 09:12:45 GMT-0400 (Eastern Daylight Time),530154.3999996185,044_o_f_n_a.png,I,m,638,16,3,1659.0999999046326,528495.2999997139,9034,NNB,A,14
14,test,2,0.0,2-Back,1.0,m,Fri May 29 2026 09:12:45 GMT-0400 (Eastern Daylight Time),531870.7999997139,058_m_m_n_a.png,I,m,698,17,3,1707.5,530163.2999997139,9034,NNB,A,15
15,test,2,1.0,2-Back,1.0,z,Fri May 29 2026 09:12:45 GMT-0400 (Eastern Daylight Time),533454.6999998093,044_o_f_n_a.png,I,z,566,18,3,1577.0999999046326,531877.5999999046,9034,NNB,A,16
0,test,3,1.0,2-Back,,,Fri May 29 2026 09:12:45 GMT-0400 (Eastern Daylight Time),533454.6999998093,041_y_m_n_a.png,I,space,1022,1,3,1577.0999999046326,531877.5999999046,9034,NNB,A,0
0,test,3,1.0,2-Back,,,Fri May 29 2026 09:12:45 GMT-0400 (Eastern Daylight Time),533454.6999998093,041_y_m_n_a.png,I,space,1022,2,3,1577.0999999046326,531877.5999999046,9034,NNB,A,0
1,test,3,0.0,2-Back,1.0,m,Fri May 29 2026 09:12:45 GMT-0400 (Eastern Daylight Time),541437.7999997139,044_o_f_n_a.png,I,m,835,3,3,1860.1999998092651,539577.5999999046,9034,NNB,A,1
2,test,3,0.0,2-Back,1.0,m,Fri May 29 2026 09:12:45 GMT-0400 (Eastern Daylight Time),543104.1999998093,045_m_m_n_a.png,I,m,647,4,3,1657.4000000953674,541446.7999997139,9034,NNB,A,2
3,test,3,1.0,2-Back,1.0,z,Fri May 29 2026 09:12:45 GMT-0400 (Eastern Daylight Time),544654.5,044_o_f_n_a.png,I,z,532,5,3,1543.3000001907349,543111.1999998093,9034,NNB,A,3
4,test,3,0.0,2-Back,1.0,m,Fri May 29 2026 09:12:45 GMT-0400 (Eastern Daylight Time),546237.7999997139,008_y_m_n_a.png,I,m,550,6,3,1577.7999997138977,544660.0,9034,NNB,A,4
4,test,3,0.0,2-Back,0.0,m,Fri May 29 2026 09:12:45 GMT-0400 (Eastern Daylight Time),548254.2999997139,045_m_m_n_a.png,I,z,983,7,3,2010.1999998092651,546244.0999999046,9034,NNB,A,5
5,test,3,1.0,2-Back,1.0,z,Fri May 29 2026 09:12:45 GMT-0400 (Eastern Daylight Time),550254.2999997139,008_y_m_n_a.png,I,z,966,8,3,1993.0999999046326,548261.1999998093,9034,NNB,A,6
6,test,3,0.0,2-Back,1.0,m,Fri May 29 2026 09:12:45 GMT-0400 (Eastern Daylight Time),551937.6999998093,010_y_f_n_a.png,I,m,663,9,3,1674.1999998092651,550263.5,9034,NNB,A,7
7,test,3,0.0,2-Back,1.0,m,Fri May 29 2026 09:12:45 GMT-0400 (Eastern Daylight Time),553604.2999997139,058_m_m_n_a.png,I,m,643,10,3,1660.0,551944.2999997139,9034,NNB,A,8
8,test,3,1.0,2-Back,1.0,z,Fri May 29 2026 09:12:45 GMT-0400 (Eastern Daylight Time),555170.6999998093,010_y_f_n_a.png,I,z,544,11,3,1559.9000000953674,553610.7999997139,9034,NNB,A,9
9,test,3,1.0,2-Back,1.0,z,Fri May 29 2026 09:12:45 GMT-0400 (Eastern Daylight Time),556904.3999996185,058_m_m_n_a.png,I,z,706,12,3,1730.3999996185303,555174.0,9034,NNB,A,10
10,test,3,0.0,2-Back,1.0,m,Fri May 29 2026 09:12:45 GMT-0400 (Eastern Daylight Time),558521.0999999046,044_o_f_n_a.png,I,m,588,13,3,1608.3000001907349,556912.7999997139,9034,NNB,A,11
11,test,3,0.0,2-Back,1.0,m,Fri May 29 2026 09:12:45 GMT-0400 (Eastern Daylight Time),560071.0999999046,050_m_f_n_a.png,I,m,524,14,3,1540.9000000953674,558530.1999998093,9034,NNB,A,12
12,test,3,0.0,2-Back,1.0,m,Fri May 29 2026 09:12:45 GMT-0400 (Eastern Daylight Time),561737.7999997139,046_o_m_n_a.png,I,m,638,15,3,1660.5999999046326,560077.1999998093,9034,NNB,A,13
13,test,3,1.0,2-Back,1.0,z,Fri May 29 2026 09:12:45 GMT-0400 (Eastern Daylight Time),563404.2999997139,050_m_f_n_a.png,I,z,636,16,3,1659.5999999046326,561744.6999998093,9034,NNB,A,14
14,test,3,0.0,2-Back,1.0,m,Fri May 29 2026 09:12:45 GMT-0400 (Eastern Daylight Time),565137.5999999046,047_o_f_n_a.png,I,m,712,17,3,1724.8000001907349,563412.7999997139,9034,NNB,A,15
15,test,3,0.0,2-Back,1.0,m,Fri May 29 2026 09:12:45 GMT-0400 (Eastern Daylight Time),567221.0999999046,047_o_f_n_a.png,I,m,1059,18,3,2075.0,565146.0999999046,9034,NNB,A,16
0,test,4,0.0,2-Back,,,Fri May 29 2026 09:12:45 GMT-0400 (Eastern Daylight Time),567221.0999999046,053_o_m_n_a.png,I,space,1080,1,3,2075.0,565146.0999999046,9034,NNB,A,0
0,test,4,0.0,2-Back,,,Fri May 29 2026 09:12:45 GMT-0400 (Eastern Daylight Time),567221.0999999046,063_y_f_n_a.png,I,space,1080,2,3,2075.0,565146.0999999046,9034,NNB,A,0
1,test,4,1.0,2-Back,1.0,z,Fri May 29 2026 09:12:45 GMT-0400 (Eastern Daylight Time),575287.7999997139,053_o_m_n_a.png,I,z,824,3,3,1841.7999997138977,573446.0,9034,NNB,A,1
2,test,4,1.0,2-Back,1.0,z,Fri May 29 2026 09:12:45 GMT-0400 (Eastern Daylight Time),577104.1999998093,063_y_f_n_a.png,I,z,797,4,3,1809.0999999046326,575295.0999999046,9034,NNB,A,2
3,test,4,0.0,2-Back,1.0,m,Fri May 29 2026 09:12:45 GMT-0400 (Eastern Daylight Time),578937.7999997139,044_o_f_n_a.png,I,m,804,5,3,1825.2999997138977,577112.5,9034,NNB,A,3
4,test,4,0.0,2-Back,1.0,m,Fri May 29 2026 09:12:45 GMT-0400 (Eastern Daylight Time),580804.3999996185,044_o_f_n_a.png,I,m,844,6,3,1859.0999999046326,578945.2999997139,9034,NNB,A,4
5,test,4,0.0,2-Back,1.0,m,Fri May 29 2026 09:12:45 GMT-0400 (Eastern Daylight Time),582687.3999996185,043_m_f_n_a.png,I,m,864,7,3,1876.3999996185303,580811.0,9034,NNB,A,5
6,test,4,0.0,2-Back,1.0,m,Fri May 29 2026 09:12:45 GMT-0400 (Eastern Daylight Time),584337.5999999046,008_y_m_n_a.png,I,m,629,8,3,1645.0,582692.5999999046,9034,NNB,A,6
7,test,4,1.0,2-Back,1.0,z,Fri May 29 2026 09:12:45 GMT-0400 (Eastern Daylight Time),585920.7999997139,043_m_f_n_a.png,I,z,564,9,3,1577.0,584343.7999997139,9034,NNB,A,7
8,test,4,0.0,2-Back,1.0,m,Fri May 29 2026 09:12:45 GMT-0400 (Eastern Daylight Time),587737.7999997139,058_m_m_n_a.png,I,m,787,10,3,1808.5,585929.2999997139,9034,NNB,A,8
8,test,4,0.0,2-Back,0.0,m,Fri May 29 2026 09:12:45 GMT-0400 (Eastern Daylight Time),589687.7999997139,008_y_m_n_a.png,I,z,923,11,3,1941.6999998092651,587746.0999999046,9034,NNB,A,9
9,test,4,0.0,2-Back,1.0,m,Fri May 29 2026 09:12:45 GMT-0400 (Eastern Daylight Time),591454.5999999046,047_o_f_n_a.png,I,m,749,12,3,1758.0,589696.5999999046,9034,NNB,A,10
10,test,4,0.0,2-Back,1.0,m,Fri May 29 2026 09:12:45 GMT-0400 (Eastern Daylight Time),593104.0999999046,041_y_m_n_a.png,I,m,630,13,3,1643.7000002861023,591460.3999996185,9034,NNB,A,11
10,test,4,1.0,2-Back,0.0,z,Fri May 29 2026 09:12:45 GMT-0400 (Eastern Daylight Time),594754.1999998093,047_o_f_n_a.png,I,m,628,14,3,1643.1999998092651,593111.0,9034,NNB,A,12
10,test,4,1.0,2-Back,0.0,z,Fri May 29 2026 09:12:45 GMT-0400 (Eastern Daylight Time),596787.7999997139,041_y_m_n_a.png,I,m,1011,15,3,2025.5999999046326,594762.1999998093,9034,NNB,A,13
11,test,4,0.0,2-Back,1.0,m,Fri May 29 2026 09:12:45 GMT-0400 (Eastern Daylight Time),599054.5,045_m_m_n_a.png,I,m,1235,16,3,2258.7000002861023,596795.7999997139,9034,NNB,A,14
12,test,4,0.0,2-Back,1.0,m,Fri May 29 2026 09:12:45 GMT-0400 (Eastern Daylight Time),600787.7999997139,050_m_f_n_a.png,I,m,710,17,3,1726.1999998092651,599061.5999999046,9034,NNB,A,15
13,test,4,1.0,2-Back,1.0,z,Fri May 29 2026 09:12:45 GMT-0400 (Eastern Daylight Time),602504.5,045_m_m_n_a.png,I,z,689,18,3,1707.6000003814697,600796.8999996185,9034,NNB,A,16
0,test,5,1.0,2-Back,,,Fri May 29 2026 09:12:45 GMT-0400 (Eastern Daylight Time),602504.5,041_y_m_n_a.png,I,space,1141,1,3,1707.6000003814697,600796.8999996185,9034,NNB,A,0
0,test,5,1.0,2-Back,,,Fri May 29 2026 09:12:45 GMT-0400 (Eastern Daylight Time),602504.5,050_m_f_n_a.png,I,space,1141,2,3,1707.6000003814697,600796.8999996185,9034,NNB,A,0
1,test,5,1.0,2-Back,1.0,z,Fri May 29 2026 09:12:45 GMT-0400 (Eastern Daylight Time),610521.0999999046,041_y_m_n_a.png,I,z,789,3,3,1808.4000000953674,608712.6999998093,9034,NNB,A,1
1,test,5,1.0,2-Back,0.0,z,Fri May 29 2026 09:12:45 GMT-0400 (Eastern Daylight Time),612171.1999998093,050_m_f_n_a.png,I,m,620,4,3,1643.9000000953674,610527.2999997139,9034,NNB,A,2
2,test,5,0.0,2-Back,1.0,m,Fri May 29 2026 09:12:45 GMT-0400 (Eastern Daylight Time),614087.8999996185,047_o_f_n_a.png,I,m,890,5,3,1910.0,612177.8999996185,9034,NNB,A,3
3,test,5,0.0,2-Back,1.0,m,Fri May 29 2026 09:12:45 GMT-0400 (Eastern Daylight Time),616037.7999997139,041_y_m_n_a.png,I,m,925,6,3,1941.4000000953674,614096.3999996185,9034,NNB,A,4
4,test,5,0.0,2-Back,1.0,m,Fri May 29 2026 09:12:45 GMT-0400 (Eastern Daylight Time),617854.6999998093,010_y_f_n_a.png,I,m,799,7,3,1809.9000000953674,616044.7999997139,9034,NNB,A,5
4,test,5,0.0,2-Back,0.0,m,Fri May 29 2026 09:12:45 GMT-0400 (Eastern Daylight Time),619571.0999999046,047_o_f_n_a.png,I,z,694,8,3,1709.9000000953674,617861.1999998093,9034,NNB,A,6
5,test,5,1.0,2-Back,1.0,z,Fri May 29 2026 09:12:45 GMT-0400 (Eastern Daylight Time),621421.0,010_y_f_n_a.png,I,z,818,9,3,1842.8000001907349,619578.1999998093,9034,NNB,A,7
6,test,5,0.0,2-Back,1.0,m,Fri May 29 2026 09:12:45 GMT-0400 (Eastern Daylight Time),623221.0,046_o_m_n_a.png,I,m,776,10,3,1793.1000003814697,621427.8999996185,9034,NNB,A,8
7,test,5,0.0,2-Back,1.0,m,Fri May 29 2026 09:12:45 GMT-0400 (Eastern Daylight Time),625171.0999999046,043_m_f_n_a.png,I,m,928,11,3,1943.0999999046326,623228.0,9034,NNB,A,9
8,test,5,0.0,2-Back,1.0,m,Fri May 29 2026 09:12:45 GMT-0400 (Eastern Daylight Time),626937.7999997139,058_m_m_n_a.png,I,m,738,12,3,1757.6999998092651,625180.0999999046,9034,NNB,A,10
9,test,5,0.0,2-Back,1.0,m,Fri May 29 2026 09:12:45 GMT-0400 (Eastern Daylight Time),628704.1999998093,046_o_m_n_a.png,I,m,747,13,3,1759.6999998092651,626944.5,9034,NNB,A,11
10,test,5,1.0,2-Back,1.0,z,Fri May 29 2026 09:12:45 GMT-0400 (Eastern Daylight Time),630621.0,058_m_m_n_a.png,I,z,884,14,3,1909.2000002861023,628711.7999997139,9034,NNB,A,12
11,test,5,0.0,2-Back,1.0,m,Fri May 29 2026 09:12:45 GMT-0400 (Eastern Daylight Time),632454.3999996185,063_y_f_n_a.png,I,m,809,15,3,1827.1999998092651,630627.1999998093,9034,NNB,A,13
12,test,5,0.0,2-Back,1.0,m,Fri May 29 2026 09:12:45 GMT-0400 (Eastern Daylight Time),634304.2999997139,053_o_m_n_a.png,I,m,830,16,3,1842.5999999046326,632461.6999998093,9034,NNB,A,14
13,test,5,0.0,2-Back,1.0,m,Fri May 29 2026 09:12:45 GMT-0400 (Eastern Daylight Time),636121.0999999046,043_m_f_n_a.png,I,m,788,17,3,1810.8000001907349,634310.2999997139,9034,NNB,A,15
14,test,5,1.0,2-Back,1.0,z,Fri May 29 2026 09:12:45 GMT-0400 (Eastern Daylight Time),637904.0999999046,053_o_m_n_a.png,I,z,764,18,3,1776.0999999046326,636128.0,9034,NNB,A,16
