acc_sum,block,block_c,block_cond,con_img,correct,correct_response,datetime,endtime,face,jitter,line,project,response,response_time,row_sel,session_number,start_end,starttime,subject_id,task,task_vers,trial
1,prac,1,A,haborder.png,1,m,Mon Dec 15 2025 17:52:19 GMT-0600 (Central Standard Time),49448.0,CFD-BM-020-024-HC.jpg,1500,solid,I,m,1050,3,3,3349.199999988079,46098.80000001192,8052,ATS,B,1
2,prac,1,A,haborder.png,1,z,Mon Dec 15 2025 17:52:19 GMT-0600 (Central Standard Time),52063.60000002384,CFD-WF-013-015-A.jpg,1000,solid,I,z,817,12,3,5964.800000011921,46098.80000001192,8052,ATS,B,2
2,prac,1,A,haborder.png,0,m,Mon Dec 15 2025 17:52:19 GMT-0600 (Central Standard Time),56062.10000002384,CFD-BM-015-017-HC.jpg,1700,solid,I,None,1516,1,3,9963.300000011921,46098.80000001192,8052,ATS,B,3
3,prac,1,A,haborder.png,1,m,Mon Dec 15 2025 17:52:19 GMT-0600 (Central Standard Time),59461.30000001192,CFD-WM-012-007-HC.jpg,1700,solid,I,m,903,9,3,13362.5,46098.80000001192,8052,ATS,B,4
4,prac,1,A,haborder.png,1,z,Mon Dec 15 2025 17:52:19 GMT-0600 (Central Standard Time),63077.0,CFD-WM-009-009-A.jpg,1900,solid,I,z,928,8,3,16978.19999998808,46098.80000001192,8052,ATS,B,5
5,prac,1,A,haborder.png,1,m,Mon Dec 15 2025 17:52:19 GMT-0600 (Central Standard Time),66075.89999997616,CFD-WF-011-006-HC.jpg,1500,solid,I,m,713,11,3,19977.099999964237,46098.80000001192,8052,ATS,B,6
6,prac,1,A,haborder.png,1,z,Mon Dec 15 2025 17:52:19 GMT-0600 (Central Standard Time),68808.39999997616,CFD-BF-050-012-A.jpg,1200,solid,I,z,734,6,3,22709.599999964237,46098.80000001192,8052,ATS,B,7
7,prac,1,A,haborder.png,1,z,Mon Dec 15 2025 17:52:19 GMT-0600 (Central Standard Time),72307.30000001192,CFD-BM-037-041-A.jpg,1600,solid,I,z,1105,2,3,26208.5,46098.80000001192,8052,ATS,B,8
8,prac,1,A,haborder.png,1,z,Mon Dec 15 2025 17:52:19 GMT-0600 (Central Standard Time),74689.89999997616,CFD-BF-051-043-A.jpg,1000,solid,I,z,591,4,3,28591.099999964237,46098.80000001192,8052,ATS,B,9
9,prac,1,A,haborder.png,1,z,Mon Dec 15 2025 17:52:19 GMT-0600 (Central Standard Time),77772.19999998808,CFD-WF-026-008-A.jpg,1600,solid,I,z,695,10,3,31673.399999976158,46098.80000001192,8052,ATS,B,10
10,prac,1,A,haborder.png,1,m,Mon Dec 15 2025 17:52:19 GMT-0600 (Central Standard Time),80638.0,CFD-WM-011-006-HC.jpg,1400,solid,I,m,669,7,3,34539.19999998808,46098.80000001192,8052,ATS,B,11
11,prac,1,A,haborder.png,1,m,Mon Dec 15 2025 17:52:19 GMT-0600 (Central Standard Time),84320.19999998808,CFD-BF-035-007-HC.jpg,2000,solid,I,m,899,5,3,38221.39999997616,46098.80000001192,8052,ATS,B,12
0,prac,1,B,mfborder.png,0,m,Mon Dec 15 2025 17:52:19 GMT-0600 (Central Standard Time),105980.19999998808,CFD-WM-037-060-A.jpg,1200,dash,I,z,1079,6,3,3065.699999988079,102914.5,8052,ATS,B,1
1,prac,1,B,mfborder.png,1,m,Mon Dec 15 2025 17:52:19 GMT-0600 (Central Standard Time),109245.80000001192,CFD-BM-020-024-HC.jpg,1700,dash,I,m,770,1,3,6331.300000011921,102914.5,8052,ATS,B,2
2,prac,1,B,mfborder.png,1,z,Mon Dec 15 2025 17:52:19 GMT-0600 (Central Standard Time),112577.89999997616,CFD-WF-027-007-HC.jpg,1900,dash,I,z,647,8,3,9663.399999976158,102914.5,8052,ATS,B,3
3,prac,1,B,mfborder.png,1,m,Mon Dec 15 2025 17:52:19 GMT-0600 (Central Standard Time),115743.69999998808,CFD-WM-012-007-HC.jpg,1600,dash,I,m,775,10,3,12829.199999988079,102914.5,8052,ATS,B,4
3,prac,1,B,mfborder.png,0,z,Mon Dec 15 2025 17:52:19 GMT-0600 (Central Standard Time),119342.39999997616,CFD-BF-035-007-HC.jpg,1400,dash,I,m,1410,7,3,16427.899999976158,102914.5,8052,ATS,B,5
4,prac,1,B,mfborder.png,1,m,Mon Dec 15 2025 17:52:19 GMT-0600 (Central Standard Time),122541.60000002384,CFD-WM-009-009-A.jpg,1700,dash,I,m,710,9,3,19627.100000023842,102914.5,8052,ATS,B,6
5,prac,1,B,mfborder.png,1,z,Mon Dec 15 2025 17:52:19 GMT-0600 (Central Standard Time),125791.60000002384,CFD-WF-026-008-A.jpg,1500,dash,I,z,856,11,3,22877.100000023842,102914.5,8052,ATS,B,7
6,prac,1,B,mfborder.png,1,m,Mon Dec 15 2025 17:52:19 GMT-0600 (Central Standard Time),128889.39999997616,CFD-BM-041-048-A.jpg,1600,dash,I,m,715,2,3,25974.899999976158,102914.5,8052,ATS,B,8
7,prac,1,B,mfborder.png,1,m,Mon Dec 15 2025 17:52:19 GMT-0600 (Central Standard Time),132421.80000001192,CFD-BM-037-041-A.jpg,2000,dash,I,m,743,5,3,29507.30000001192,102914.5,8052,ATS,B,9
8,prac,1,B,mfborder.png,1,z,Mon Dec 15 2025 17:52:19 GMT-0600 (Central Standard Time),134787.80000001192,CFD-WF-011-006-HC.jpg,1000,dash,I,z,579,12,3,31873.30000001192,102914.5,8052,ATS,B,10
9,prac,1,B,mfborder.png,1,z,Mon Dec 15 2025 17:52:19 GMT-0600 (Central Standard Time),137453.5,CFD-BF-051-043-A.jpg,1000,dash,I,z,870,4,3,34539.0,102914.5,8052,ATS,B,11
10,prac,1,B,mfborder.png,1,z,Mon Dec 15 2025 17:52:19 GMT-0600 (Central Standard Time),140302.69999998808,CFD-BF-027-013-HC.jpg,1500,dash,I,z,559,3,3,37388.19999998808,102914.5,8052,ATS,B,12
1,test,1,A,haborder.png,1,m,Mon Dec 15 2025 17:52:19 GMT-0600 (Central Standard Time),160463.0,CFD-BM-020-024-HC.jpg,1500,solid,I,m,985,3,3,2515.699999988079,157947.30000001192,8052,ATS,B,1
2,test,1,A,haborder.png,1,z,Mon Dec 15 2025 17:52:19 GMT-0600 (Central Standard Time),162245.89999997616,CFD-WF-013-015-A.jpg,1000,solid,I,z,753,12,3,4298.599999964237,157947.30000001192,8052,ATS,B,2
3,test,1,A,haborder.png,1,z,Mon Dec 15 2025 17:52:19 GMT-0600 (Central Standard Time),164761.5,CFD-WM-009-009-A.jpg,1900,solid,I,z,584,8,3,6814.199999988079,157947.30000001192,8052,ATS,B,3
4,test,1,A,haborder.png,1,m,Mon Dec 15 2025 17:52:19 GMT-0600 (Central Standard Time),166760.80000001192,CFD-WM-011-006-HC.jpg,1400,solid,I,m,576,7,3,8813.5,157947.30000001192,8052,ATS,B,4
5,test,1,A,haborder.png,1,z,Mon Dec 15 2025 17:52:19 GMT-0600 (Central Standard Time),168743.69999998808,CFD-WF-013-015-A.jpg,1000,solid,I,z,960,12,3,10796.399999976158,157947.30000001192,8052,ATS,B,5
6,test,1,A,haborder.png,1,z,Mon Dec 15 2025 17:52:19 GMT-0600 (Central Standard Time),170593.30000001192,CFD-BF-051-043-A.jpg,1000,solid,I,z,817,4,3,12646.0,157947.30000001192,8052,ATS,B,6
7,test,1,A,haborder.png,1,z,Mon Dec 15 2025 17:52:19 GMT-0600 (Central Standard Time),172859.10000002384,CFD-WF-026-008-A.jpg,1600,solid,I,z,647,10,3,14911.800000011921,157947.30000001192,8052,ATS,B,7
7,test,1,A,haborder.png,0,m,Mon Dec 15 2025 17:52:19 GMT-0600 (Central Standard Time),175908.10000002384,CFD-BM-015-017-HC.jpg,1700,solid,I,z,1321,1,3,17960.80000001192,157947.30000001192,8052,ATS,B,8
8,test,1,A,haborder.png,1,m,Mon Dec 15 2025 17:52:19 GMT-0600 (Central Standard Time),178057.5,CFD-WF-011-006-HC.jpg,1500,solid,I,m,618,11,3,20110.19999998808,157947.30000001192,8052,ATS,B,9
9,test,1,A,haborder.png,1,z,Mon Dec 15 2025 17:52:19 GMT-0600 (Central Standard Time),180540.0,CFD-WF-026-008-A.jpg,1600,solid,I,z,855,10,3,22592.69999998808,157947.30000001192,8052,ATS,B,10
9,test,1,A,haborder.png,0,m,Mon Dec 15 2025 17:52:19 GMT-0600 (Central Standard Time),183455.69999998808,CFD-BM-015-017-HC.jpg,1700,solid,I,z,1185,1,3,25508.399999976158,157947.30000001192,8052,ATS,B,11
10,test,1,A,haborder.png,1,z,Mon Dec 15 2025 17:52:19 GMT-0600 (Central Standard Time),186071.39999997616,CFD-BM-037-041-A.jpg,1600,solid,I,z,992,2,3,28124.099999964237,157947.30000001192,8052,ATS,B,12
11,test,1,A,haborder.png,1,m,Mon Dec 15 2025 17:52:19 GMT-0600 (Central Standard Time),188387.5,CFD-WM-012-007-HC.jpg,1700,solid,I,m,597,9,3,30440.19999998808,157947.30000001192,8052,ATS,B,13
12,test,1,A,haborder.png,1,z,Mon Dec 15 2025 17:52:19 GMT-0600 (Central Standard Time),191053.69999998808,CFD-WM-009-009-A.jpg,1900,solid,I,z,738,8,3,33106.39999997616,157947.30000001192,8052,ATS,B,14
13,test,1,A,haborder.png,1,m,Mon Dec 15 2025 17:52:19 GMT-0600 (Central Standard Time),193402.39999997616,CFD-BM-020-024-HC.jpg,1500,solid,I,m,832,3,3,35455.09999996424,157947.30000001192,8052,ATS,B,15
14,test,1,A,haborder.png,1,m,Mon Dec 15 2025 17:52:19 GMT-0600 (Central Standard Time),196218.5,CFD-BF-035-007-HC.jpg,2000,solid,I,m,790,5,3,38271.19999998808,157947.30000001192,8052,ATS,B,16
15,test,1,A,haborder.png,1,m,Mon Dec 15 2025 17:52:19 GMT-0600 (Central Standard Time),198351.19999998808,CFD-WF-011-006-HC.jpg,1500,solid,I,m,603,11,3,40403.89999997616,157947.30000001192,8052,ATS,B,17
16,test,1,A,haborder.png,1,m,Mon Dec 15 2025 17:52:19 GMT-0600 (Central Standard Time),200650.10000002384,CFD-WM-012-007-HC.jpg,1700,solid,I,m,581,9,3,42702.80000001192,157947.30000001192,8052,ATS,B,18
17,test,1,A,haborder.png,1,z,Mon Dec 15 2025 17:52:19 GMT-0600 (Central Standard Time),203099.69999998808,CFD-BM-037-041-A.jpg,1600,solid,I,z,831,2,3,45152.39999997616,157947.30000001192,8052,ATS,B,19
18,test,1,A,haborder.png,1,m,Mon Dec 15 2025 17:52:19 GMT-0600 (Central Standard Time),205932.0,CFD-BF-035-007-HC.jpg,2000,solid,I,m,806,5,3,47984.69999998808,157947.30000001192,8052,ATS,B,20
19,test,1,A,haborder.png,1,z,Mon Dec 15 2025 17:52:19 GMT-0600 (Central Standard Time),208064.80000001192,CFD-BF-050-012-A.jpg,1200,solid,I,z,909,6,3,50117.5,157947.30000001192,8052,ATS,B,21
20,test,1,A,haborder.png,1,z,Mon Dec 15 2025 17:52:19 GMT-0600 (Central Standard Time),209747.69999998808,CFD-BF-050-012-A.jpg,1200,solid,I,z,456,6,3,51800.39999997616,157947.30000001192,8052,ATS,B,22
21,test,1,A,haborder.png,1,z,Mon Dec 15 2025 17:52:19 GMT-0600 (Central Standard Time),211397.0,CFD-BF-051-043-A.jpg,1000,solid,I,z,629,4,3,53449.69999998808,157947.30000001192,8052,ATS,B,23
22,test,1,A,haborder.png,1,m,Mon Dec 15 2025 17:52:19 GMT-0600 (Central Standard Time),213396.30000001192,CFD-WM-011-006-HC.jpg,1400,solid,I,m,579,7,3,55449.0,157947.30000001192,8052,ATS,B,24
1,test,1,B,mfborder.png,1,m,Mon Dec 15 2025 17:52:19 GMT-0600 (Central Standard Time),228941.60000002384,CFD-BM-041-048-A.jpg,1600,dash,I,m,887,2,3,2515.900000035763,226425.69999998808,8052,ATS,B,1
2,test,1,B,mfborder.png,1,m,Mon Dec 15 2025 17:52:19 GMT-0600 (Central Standard Time),231124.19999998808,CFD-WM-012-007-HC.jpg,1600,dash,I,m,563,10,3,4698.5,226425.69999998808,8052,ATS,B,2
3,test,1,B,mfborder.png,1,m,Mon Dec 15 2025 17:52:19 GMT-0600 (Central Standard Time),233423.60000002384,CFD-WM-009-009-A.jpg,1700,dash,I,m,568,9,3,6997.900000035763,226425.69999998808,8052,ATS,B,3
4,test,1,B,mfborder.png,1,z,Mon Dec 15 2025 17:52:19 GMT-0600 (Central Standard Time),235572.89999997616,CFD-WF-026-008-A.jpg,1500,dash,I,z,630,11,3,9147.199999988079,226425.69999998808,8052,ATS,B,4
5,test,1,B,mfborder.png,1,z,Mon Dec 15 2025 17:52:19 GMT-0600 (Central Standard Time),237738.89999997616,CFD-BF-035-007-HC.jpg,1400,dash,I,z,740,7,3,11313.199999988079,226425.69999998808,8052,ATS,B,5
6,test,1,B,mfborder.png,1,z,Mon Dec 15 2025 17:52:19 GMT-0600 (Central Standard Time),239871.60000002384,CFD-BF-027-013-HC.jpg,1500,dash,I,z,611,3,3,13445.900000035763,226425.69999998808,8052,ATS,B,6
7,test,1,B,mfborder.png,1,z,Mon Dec 15 2025 17:52:19 GMT-0600 (Central Standard Time),242065.69999998808,CFD-WF-026-008-A.jpg,1500,dash,I,z,677,11,3,15640.0,226425.69999998808,8052,ATS,B,7
8,test,1,B,mfborder.png,1,z,Mon Dec 15 2025 17:52:19 GMT-0600 (Central Standard Time),244353.39999997616,CFD-BF-035-007-HC.jpg,1400,dash,I,z,858,7,3,17927.69999998808,226425.69999998808,8052,ATS,B,8
9,test,1,B,mfborder.png,1,z,Mon Dec 15 2025 17:52:19 GMT-0600 (Central Standard Time),245969.5,CFD-WF-011-006-HC.jpg,1000,dash,I,z,590,12,3,19543.80000001192,226425.69999998808,8052,ATS,B,9
10,test,1,B,mfborder.png,1,m,Mon Dec 15 2025 17:52:19 GMT-0600 (Central Standard Time),248268.69999998808,CFD-BM-020-024-HC.jpg,1700,dash,I,m,579,1,3,21843.0,226425.69999998808,8052,ATS,B,10
11,test,1,B,mfborder.png,1,m,Mon Dec 15 2025 17:52:19 GMT-0600 (Central Standard Time),250784.69999998808,CFD-BM-037-041-A.jpg,2000,dash,I,m,484,5,3,24359.0,226425.69999998808,8052,ATS,B,11
12,test,1,B,mfborder.png,1,z,Mon Dec 15 2025 17:52:19 GMT-0600 (Central Standard Time),253284.10000002384,CFD-WF-027-007-HC.jpg,1900,dash,I,z,573,8,3,26858.400000035763,226425.69999998808,8052,ATS,B,12
13,test,1,B,mfborder.png,1,z,Mon Dec 15 2025 17:52:19 GMT-0600 (Central Standard Time),255316.69999998808,CFD-BF-027-013-HC.jpg,1500,dash,I,z,513,3,3,28891.0,226425.69999998808,8052,ATS,B,13
14,test,1,B,mfborder.png,1,m,Mon Dec 15 2025 17:52:19 GMT-0600 (Central Standard Time),257582.69999998808,CFD-WM-037-060-A.jpg,1200,dash,I,m,1045,6,3,31157.0,226425.69999998808,8052,ATS,B,14
15,test,1,B,mfborder.png,1,m,Mon Dec 15 2025 17:52:19 GMT-0600 (Central Standard Time),260315.10000002384,CFD-BM-037-041-A.jpg,2000,dash,I,m,706,5,3,33889.40000003576,226425.69999998808,8052,ATS,B,15
16,test,1,B,mfborder.png,1,m,Mon Dec 15 2025 17:52:19 GMT-0600 (Central Standard Time),262047.80000001192,CFD-WM-037-060-A.jpg,1200,dash,I,m,504,6,3,35622.10000002384,226425.69999998808,8052,ATS,B,16
17,test,1,B,mfborder.png,1,m,Mon Dec 15 2025 17:52:19 GMT-0600 (Central Standard Time),264214.0,CFD-BM-041-048-A.jpg,1600,dash,I,m,537,2,3,37788.30000001192,226425.69999998808,8052,ATS,B,17
18,test,1,B,mfborder.png,1,m,Mon Dec 15 2025 17:52:19 GMT-0600 (Central Standard Time),266379.89999997616,CFD-WM-009-009-A.jpg,1700,dash,I,m,447,9,3,39954.19999998808,226425.69999998808,8052,ATS,B,18
19,test,1,B,mfborder.png,1,m,Mon Dec 15 2025 17:52:19 GMT-0600 (Central Standard Time),268546.3000000119,CFD-WM-012-007-HC.jpg,1600,dash,I,m,534,10,3,42120.60000002384,226425.69999998808,8052,ATS,B,19
20,test,1,B,mfborder.png,1,z,Mon Dec 15 2025 17:52:19 GMT-0600 (Central Standard Time),270145.39999997616,CFD-WF-011-006-HC.jpg,1000,dash,I,z,575,12,3,43719.69999998808,226425.69999998808,8052,ATS,B,20
21,test,1,B,mfborder.png,1,z,Mon Dec 15 2025 17:52:19 GMT-0600 (Central Standard Time),271978.1999999881,CFD-BF-051-043-A.jpg,1000,dash,I,z,808,4,3,45552.5,226425.69999998808,8052,ATS,B,21
22,test,1,B,mfborder.png,1,z,Mon Dec 15 2025 17:52:19 GMT-0600 (Central Standard Time),273444.3000000119,CFD-BF-051-043-A.jpg,1000,dash,I,z,438,4,3,47018.60000002384,226425.69999998808,8052,ATS,B,22
23,test,1,B,mfborder.png,1,z,Mon Dec 15 2025 17:52:19 GMT-0600 (Central Standard Time),275910.10000002384,CFD-WF-027-007-HC.jpg,1900,dash,I,z,545,8,3,49484.40000003576,226425.69999998808,8052,ATS,B,23
24,test,1,B,mfborder.png,1,m,Mon Dec 15 2025 17:52:19 GMT-0600 (Central Standard Time),278142.8000000119,CFD-BM-020-024-HC.jpg,1700,dash,I,m,499,1,3,51717.10000002384,226425.69999998808,8052,ATS,B,24
0,4,1,C,mfborder.png,0,m,Mon Dec 15 2025 17:52:19 GMT-0600 (Central Standard Time),307384.10000002384,CFD-BM-015-017-HC.jpg,2000,solid,I,None,1514,prac,3,4299.0,303085.10000002384,8052,ATS,B,1
1,9,1,C,haborder.png,1,z,Mon Dec 15 2025 17:52:19 GMT-0600 (Central Standard Time),311216.8000000119,CFD-WF-026-008-A.jpg,1600,dash,I,z,1466,prac,3,8131.699999988079,303085.10000002384,8052,ATS,B,2
1,11,1,C,haborder.png,0,m,Mon Dec 15 2025 17:52:19 GMT-0600 (Central Standard Time),314348.10000002384,CFD-WM-011-006-HC.jpg,1000,dash,I,z,1345,prac,3,11263.0,303085.10000002384,8052,ATS,B,3
1,6,1,C,mfborder.png,0,m,Mon Dec 15 2025 17:52:19 GMT-0600 (Central Standard Time),318346.89999997616,CFD-WM-009-009-A.jpg,1700,solid,I,None,1517,prac,3,15261.799999952316,303085.10000002384,8052,ATS,B,4
1,10,1,C,haborder.png,0,m,Mon Dec 15 2025 17:52:19 GMT-0600 (Central Standard Time),322145.5,CFD-BM-020-024-HC.jpg,1500,solid,I,None,1516,prac,3,19060.399999976158,303085.10000002384,8052,ATS,B,5
2,3,1,C,mfborder.png,1,z,Mon Dec 15 2025 17:52:19 GMT-0600 (Central Standard Time),324978.3000000119,CFD-BF-035-007-HC.jpg,1000,dash,I,z,1039,prac,3,21893.19999998808,303085.10000002384,8052,ATS,B,6
3,5,1,C,mfborder.png,1,m,Mon Dec 15 2025 17:52:19 GMT-0600 (Central Standard Time),328127.39999997616,CFD-BM-037-041-A.jpg,1200,dash,I,m,1158,prac,3,25042.299999952316,303085.10000002384,8052,ATS,B,7
4,12,1,C,haborder.png,1,m,Mon Dec 15 2025 17:52:19 GMT-0600 (Central Standard Time),331426.0,CFD-WM-011-006-HC.jpg,1400,solid,I,m,1106,prac,3,28340.899999976158,303085.10000002384,8052,ATS,B,8
4,8,1,C,haborder.png,0,z,Mon Dec 15 2025 17:52:19 GMT-0600 (Central Standard Time),335425.0,CFD-BF-050-012-A.jpg,1700,solid,I,None,1516,prac,3,32339.899999976158,303085.10000002384,8052,ATS,B,9
5,7,1,C,haborder.png,1,z,Mon Dec 15 2025 17:52:19 GMT-0600 (Central Standard Time),339123.8000000119,CFD-BF-051-043-A.jpg,1900,dash,I,z,1005,prac,3,36038.69999998808,303085.10000002384,8052,ATS,B,10
6,2,1,C,mfborder.png,1,z,Mon Dec 15 2025 17:52:19 GMT-0600 (Central Standard Time),342822.6999999881,CFD-WF-013-015-A.jpg,1500,solid,I,z,1410,prac,3,39737.59999996424,303085.10000002384,8052,ATS,B,11
7,1,1,C,mfborder.png,1,z,Mon Dec 15 2025 17:52:19 GMT-0600 (Central Standard Time),346138.1999999881,CFD-WF-011-006-HC.jpg,1600,dash,I,z,930,prac,3,43053.09999996424,303085.10000002384,8052,ATS,B,12
0,test,1,C,haborder.png,0,m,Mon Dec 15 2025 17:52:19 GMT-0600 (Central Standard Time),365648.6999999881,CFD-WF-011-006-HC.jpg,1000,solid,I,z,1383,12,3,2416.0,363232.6999999881,8052,ATS,B,1
0,test,1,C,mfborder.png,0,z,Mon Dec 15 2025 17:52:19 GMT-0600 (Central Standard Time),368598.10000002384,CFD-BF-027-013-HC.jpg,1700,dash,I,m,1224,1,3,5365.400000035763,363232.6999999881,8052,ATS,B,2
1,test,1,C,mfborder.png,1,z,Mon Dec 15 2025 17:52:19 GMT-0600 (Central Standard Time),371463.60000002384,CFD-BF-027-013-HC.jpg,1700,dash,I,z,1143,1,3,8230.900000035763,363232.6999999881,8052,ATS,B,3
1,test,1,C,haborder.png,0,z,Mon Dec 15 2025 17:52:19 GMT-0600 (Central Standard Time),374895.6999999881,CFD-BM-037-041-A.jpg,1900,solid,I,None,1516,8,3,11663.0,363232.6999999881,8052,ATS,B,4
1,test,1,C,mfborder.png,0,z,Mon Dec 15 2025 17:52:19 GMT-0600 (Central Standard Time),377945.10000002384,CFD-WF-026-008-A.jpg,1500,dash,I,None,1516,3,3,14712.400000035763,363232.6999999881,8052,ATS,B,5
1,test,1,C,haborder.png,0,z,Mon Dec 15 2025 17:52:19 GMT-0600 (Central Standard Time),381177.3000000119,CFD-BM-041-048-A.jpg,1700,solid,I,None,1515,9,3,17944.600000023842,363232.6999999881,8052,ATS,B,6
2,test,1,C,haborder.png,1,z,Mon Dec 15 2025 17:52:19 GMT-0600 (Central Standard Time),383603.1999999881,CFD-WM-009-009-A.jpg,1400,solid,I,z,1009,7,3,20370.5,363232.6999999881,8052,ATS,B,7
3,test,1,C,haborder.png,1,z,Mon Dec 15 2025 17:52:19 GMT-0600 (Central Standard Time),385909.10000002384,CFD-WM-009-009-A.jpg,1400,solid,I,z,879,7,3,22676.400000035763,363232.6999999881,8052,ATS,B,8
4,test,1,C,haborder.png,1,z,Mon Dec 15 2025 17:52:19 GMT-0600 (Central Standard Time),388874.89999997616,CFD-BM-037-041-A.jpg,1900,solid,I,z,1036,8,3,25642.19999998808,363232.6999999881,8052,ATS,B,9
5,test,1,C,mfborder.png,1,z,Mon Dec 15 2025 17:52:19 GMT-0600 (Central Standard Time),391724.0,CFD-BF-051-043-A.jpg,1600,dash,I,z,1230,2,3,28491.30000001192,363232.6999999881,8052,ATS,B,10
6,test,1,C,mfborder.png,1,z,Mon Dec 15 2025 17:52:19 GMT-0600 (Central Standard Time),394106.39999997616,CFD-WF-026-008-A.jpg,1500,dash,I,z,866,3,3,30873.69999998808,363232.6999999881,8052,ATS,B,11
7,test,1,C,mfborder.png,1,m,Mon Dec 15 2025 17:52:19 GMT-0600 (Central Standard Time),395889.1999999881,CFD-WM-012-007-HC.jpg,1000,dash,I,m,766,4,3,32656.5,363232.6999999881,8052,ATS,B,12
8,test,1,C,mfborder.png,1,m,Mon Dec 15 2025 17:52:19 GMT-0600 (Central Standard Time),397938.60000002384,CFD-BM-020-024-HC.jpg,1200,dash,I,m,824,6,3,34705.90000003576,363232.6999999881,8052,ATS,B,13
9,test,1,C,mfborder.png,1,m,Mon Dec 15 2025 17:52:19 GMT-0600 (Central Standard Time),399721.60000002384,CFD-BM-020-024-HC.jpg,1200,dash,I,m,566,6,3,36488.90000003576,363232.6999999881,8052,ATS,B,14
9,test,1,C,haborder.png,0,m,Mon Dec 15 2025 17:52:19 GMT-0600 (Central Standard Time),402254.10000002384,CFD-WF-011-006-HC.jpg,1000,solid,I,None,1516,12,3,39021.40000003576,363232.6999999881,8052,ATS,B,15
10,test,1,C,mfborder.png,1,m,Mon Dec 15 2025 17:52:19 GMT-0600 (Central Standard Time),405569.5,CFD-WM-037-060-A.jpg,2000,dash,I,m,1299,5,3,42336.80000001192,363232.6999999881,8052,ATS,B,16
10,test,1,C,haborder.png,0,m,Mon Dec 15 2025 17:52:19 GMT-0600 (Central Standard Time),408668.8000000119,CFD-WF-027-007-HC.jpg,1500,solid,I,None,1505,11,3,45436.10000002384,363232.6999999881,8052,ATS,B,17
10,test,1,C,mfborder.png,0,z,Mon Dec 15 2025 17:52:19 GMT-0600 (Central Standard Time),411801.10000002384,CFD-BF-051-043-A.jpg,1600,dash,I,None,1516,2,3,48568.40000003576,363232.6999999881,8052,ATS,B,18
11,test,1,C,haborder.png,1,m,Mon Dec 15 2025 17:52:19 GMT-0600 (Central Standard Time),414433.60000002384,CFD-WF-027-007-HC.jpg,1500,solid,I,m,1115,11,3,51200.90000003576,363232.6999999881,8052,ATS,B,19
12,test,1,C,mfborder.png,1,m,Mon Dec 15 2025 17:52:19 GMT-0600 (Central Standard Time),416849.60000002384,CFD-WM-012-007-HC.jpg,1000,dash,I,m,1383,4,3,53616.90000003576,363232.6999999881,8052,ATS,B,20
13,test,1,C,haborder.png,1,m,Mon Dec 15 2025 17:52:19 GMT-0600 (Central Standard Time),419865.39999997616,CFD-BF-035-007-HC.jpg,1600,solid,I,m,1391,10,3,56632.69999998808,363232.6999999881,8052,ATS,B,21
14,test,1,C,mfborder.png,1,m,Mon Dec 15 2025 17:52:19 GMT-0600 (Central Standard Time),423263.89999997616,CFD-WM-037-060-A.jpg,2000,dash,I,m,1376,5,3,60031.19999998808,363232.6999999881,8052,ATS,B,22
15,test,1,C,haborder.png,1,z,Mon Dec 15 2025 17:52:19 GMT-0600 (Central Standard Time),426129.89999997616,CFD-BM-041-048-A.jpg,1700,solid,I,z,1149,9,3,62897.19999998808,363232.6999999881,8052,ATS,B,23
16,test,1,C,haborder.png,1,m,Mon Dec 15 2025 17:52:19 GMT-0600 (Central Standard Time),428712.3000000119,CFD-BF-035-007-HC.jpg,1600,solid,I,m,951,10,3,65479.60000002384,363232.6999999881,8052,ATS,B,24
1,test,2,C,mfborder.png,1,z,Mon Dec 15 2025 17:52:19 GMT-0600 (Central Standard Time),438026.0,CFD-WF-011-006-HC.jpg,1700,dash,I,z,981,1,3,2698.800000011921,435327.1999999881,8052,ATS,B,1
2,test,2,C,haborder.png,1,m,Mon Dec 15 2025 17:52:19 GMT-0600 (Central Standard Time),440708.8000000119,CFD-BM-020-024-HC.jpg,1600,solid,I,m,1056,10,3,5381.600000023842,435327.1999999881,8052,ATS,B,2
3,test,2,C,haborder.png,1,m,Mon Dec 15 2025 17:52:19 GMT-0600 (Central Standard Time),443107.8000000119,CFD-WM-011-006-HC.jpg,1500,solid,I,m,880,11,3,7780.600000023842,435327.1999999881,8052,ATS,B,3
4,test,2,C,haborder.png,1,z,Mon Dec 15 2025 17:52:19 GMT-0600 (Central Standard Time),445773.5,CFD-WF-026-008-A.jpg,1700,solid,I,z,946,9,3,10446.300000011921,435327.1999999881,8052,ATS,B,4
5,test,2,C,mfborder.png,1,m,Mon Dec 15 2025 17:52:19 GMT-0600 (Central Standard Time),448389.60000002384,CFD-WM-009-009-A.jpg,1200,dash,I,m,1396,6,3,13062.400000035763,435327.1999999881,8052,ATS,B,5
6,test,2,C,haborder.png,1,m,Mon Dec 15 2025 17:52:19 GMT-0600 (Central Standard Time),450438.89999997616,CFD-WM-011-006-HC.jpg,1000,solid,I,m,1026,12,3,15111.699999988079,435327.1999999881,8052,ATS,B,6
7,test,2,C,haborder.png,1,z,Mon Dec 15 2025 17:52:19 GMT-0600 (Central Standard Time),452938.10000002384,CFD-BF-051-043-A.jpg,1400,solid,I,z,1083,7,3,17610.900000035763,435327.1999999881,8052,ATS,B,7
8,test,2,C,haborder.png,1,z,Mon Dec 15 2025 17:52:19 GMT-0600 (Central Standard Time),455954.0,CFD-BF-050-012-A.jpg,1900,solid,I,z,1100,8,3,20626.80000001192,435327.1999999881,8052,ATS,B,8
9,test,2,C,mfborder.png,1,z,Mon Dec 15 2025 17:52:19 GMT-0600 (Central Standard Time),458786.39999997616,CFD-WF-013-015-A.jpg,1600,dash,I,z,1207,2,3,23459.19999998808,435327.1999999881,8052,ATS,B,9
10,test,2,C,mfborder.png,1,z,Mon Dec 15 2025 17:52:19 GMT-0600 (Central Standard Time),460869.0,CFD-BF-035-007-HC.jpg,1500,dash,I,z,563,3,3,25541.80000001192,435327.1999999881,8052,ATS,B,10
11,test,2,C,haborder.png,1,m,Mon Dec 15 2025 17:52:19 GMT-0600 (Central Standard Time),463101.6999999881,CFD-WM-011-006-HC.jpg,1000,solid,I,m,1212,12,3,27774.5,435327.1999999881,8052,ATS,B,11
12,test,2,C,haborder.png,1,z,Mon Dec 15 2025 17:52:19 GMT-0600 (Central Standard Time),466117.39999997616,CFD-BF-050-012-A.jpg,1900,solid,I,z,1088,8,3,30790.19999998808,435327.1999999881,8052,ATS,B,12
13,test,2,C,mfborder.png,1,z,Mon Dec 15 2025 17:52:19 GMT-0600 (Central Standard Time),468816.60000002384,CFD-BF-035-007-HC.jpg,1500,dash,I,z,1175,3,3,33489.40000003576,435327.1999999881,8052,ATS,B,13
14,test,2,C,haborder.png,1,z,Mon Dec 15 2025 17:52:19 GMT-0600 (Central Standard Time),471732.10000002384,CFD-BF-051-043-A.jpg,1400,solid,I,z,1488,7,3,36404.90000003576,435327.1999999881,8052,ATS,B,14
15,test,2,C,haborder.png,1,m,Mon Dec 15 2025 17:52:19 GMT-0600 (Central Standard Time),474164.89999997616,CFD-BM-020-024-HC.jpg,1600,solid,I,m,813,10,3,38837.69999998808,435327.1999999881,8052,ATS,B,15
15,test,2,C,mfborder.png,0,m,Mon Dec 15 2025 17:52:19 GMT-0600 (Central Standard Time),476414.10000002384,CFD-WM-009-009-A.jpg,1200,dash,I,z,1029,6,3,41086.90000003576,435327.1999999881,8052,ATS,B,16
16,test,2,C,mfborder.png,1,z,Mon Dec 15 2025 17:52:19 GMT-0600 (Central Standard Time),478963.1999999881,CFD-WF-013-015-A.jpg,1600,dash,I,z,923,2,3,43636.0,435327.1999999881,8052,ATS,B,17
17,test,2,C,haborder.png,1,m,Mon Dec 15 2025 17:52:19 GMT-0600 (Central Standard Time),481296.3000000119,CFD-WM-011-006-HC.jpg,1500,solid,I,m,801,11,3,45969.10000002384,435327.1999999881,8052,ATS,B,18
17,test,2,C,haborder.png,0,z,Mon Dec 15 2025 17:52:19 GMT-0600 (Central Standard Time),484528.1999999881,CFD-WF-026-008-A.jpg,1700,solid,I,None,1516,9,3,49201.0,435327.1999999881,8052,ATS,B,19
18,test,2,C,mfborder.png,1,m,Mon Dec 15 2025 17:52:19 GMT-0600 (Central Standard Time),487460.5,CFD-BM-037-041-A.jpg,2000,dash,I,m,904,5,3,52133.30000001192,435327.1999999881,8052,ATS,B,20
19,test,2,C,mfborder.png,1,m,Mon Dec 15 2025 17:52:19 GMT-0600 (Central Standard Time),489593.39999997616,CFD-BM-015-017-HC.jpg,1000,dash,I,m,1108,4,3,54266.19999998808,435327.1999999881,8052,ATS,B,21
20,test,2,C,mfborder.png,1,m,Mon Dec 15 2025 17:52:19 GMT-0600 (Central Standard Time),492792.5,CFD-BM-037-041-A.jpg,2000,dash,I,m,1168,5,3,57465.30000001192,435327.1999999881,8052,ATS,B,22
21,test,2,C,mfborder.png,1,m,Mon Dec 15 2025 17:52:19 GMT-0600 (Central Standard Time),494458.60000002384,CFD-BM-015-017-HC.jpg,1000,dash,I,m,640,4,3,59131.40000003576,435327.1999999881,8052,ATS,B,23
22,test,2,C,mfborder.png,1,z,Mon Dec 15 2025 17:52:19 GMT-0600 (Central Standard Time),497074.3000000119,CFD-WF-011-006-HC.jpg,1700,dash,I,z,891,1,3,61747.10000002384,435327.1999999881,8052,ATS,B,24
1,test,3,C,mfborder.png,1,z,Mon Dec 15 2025 17:52:19 GMT-0600 (Central Standard Time),501777.89999997616,CFD-BF-027-013-HC.jpg,1700,dash,I,z,1096,1,3,2820.899999976158,498957.0,8052,ATS,B,1
2,test,3,C,mfborder.png,1,z,Mon Dec 15 2025 17:52:19 GMT-0600 (Central Standard Time),503922.1999999881,CFD-WF-026-008-A.jpg,1500,dash,I,z,625,3,3,4965.199999988079,498957.0,8052,ATS,B,2
2,test,3,C,haborder.png,0,z,Mon Dec 15 2025 17:52:19 GMT-0600 (Central Standard Time),506154.8000000119,CFD-WM-009-009-A.jpg,1400,solid,I,m,807,7,3,7197.800000011921,498957.0,8052,ATS,B,3
3,test,3,C,haborder.png,1,m,Mon Dec 15 2025 17:52:19 GMT-0600 (Central Standard Time),508970.39999997616,CFD-BF-035-007-HC.jpg,1600,solid,I,m,1199,10,3,10013.399999976158,498957.0,8052,ATS,B,4
4,test,3,C,haborder.png,1,z,Mon Dec 15 2025 17:52:19 GMT-0600 (Central Standard Time),511836.39999997616,CFD-BM-037-041-A.jpg,1900,solid,I,z,939,8,3,12879.399999976158,498957.0,8052,ATS,B,5
5,test,3,C,haborder.png,1,z,Mon Dec 15 2025 17:52:19 GMT-0600 (Central Standard Time),514552.1999999881,CFD-BM-041-048-A.jpg,1700,solid,I,z,993,9,3,15595.199999988079,498957.0,8052,ATS,B,6
6,test,3,C,mfborder.png,1,m,Mon Dec 15 2025 17:52:19 GMT-0600 (Central Standard Time),516818.39999997616,CFD-BM-020-024-HC.jpg,1200,dash,I,m,1033,6,3,17861.399999976158,498957.0,8052,ATS,B,7
7,test,3,C,mfborder.png,1,m,Mon Dec 15 2025 17:52:19 GMT-0600 (Central Standard Time),518551.0,CFD-WM-012-007-HC.jpg,1000,dash,I,m,703,4,3,19594.0,498957.0,8052,ATS,B,8
8,test,3,C,mfborder.png,1,m,Mon Dec 15 2025 17:52:19 GMT-0600 (Central Standard Time),520433.60000002384,CFD-BM-020-024-HC.jpg,1200,dash,I,m,665,6,3,21476.600000023842,498957.0,8052,ATS,B,9
8,test,3,C,haborder.png,0,m,Mon Dec 15 2025 17:52:19 GMT-0600 (Central Standard Time),522816.3000000119,CFD-WF-011-006-HC.jpg,1000,solid,I,z,1359,12,3,23859.30000001192,498957.0,8052,ATS,B,10
9,test,3,C,haborder.png,1,m,Mon Dec 15 2025 17:52:19 GMT-0600 (Central Standard Time),524615.8999999762,CFD-WF-011-006-HC.jpg,1000,solid,I,m,768,12,3,25658.899999976158,498957.0,8052,ATS,B,11
10,test,3,C,haborder.png,1,m,Mon Dec 15 2025 17:52:19 GMT-0600 (Central Standard Time),526865.0,CFD-WF-027-007-HC.jpg,1500,solid,I,m,717,11,3,27908.0,498957.0,8052,ATS,B,12
11,test,3,C,mfborder.png,1,z,Mon Dec 15 2025 17:52:19 GMT-0600 (Central Standard Time),529614.1000000238,CFD-WF-026-008-A.jpg,1500,dash,I,z,1219,3,3,30657.100000023842,498957.0,8052,ATS,B,13
12,test,3,C,haborder.png,1,z,Mon Dec 15 2025 17:52:19 GMT-0600 (Central Standard Time),532729.8000000119,CFD-BM-041-048-A.jpg,1700,solid,I,z,1398,9,3,33772.80000001192,498957.0,8052,ATS,B,14
13,test,3,C,mfborder.png,1,m,Mon Dec 15 2025 17:52:19 GMT-0600 (Central Standard Time),534795.8000000119,CFD-WM-012-007-HC.jpg,1000,dash,I,m,1040,4,3,35838.80000001192,498957.0,8052,ATS,B,15
13,test,3,C,haborder.png,0,z,Mon Dec 15 2025 17:52:19 GMT-0600 (Central Standard Time),537628.1999999881,CFD-WM-009-009-A.jpg,1400,solid,I,m,1405,7,3,38671.19999998808,498957.0,8052,ATS,B,16
13,test,3,C,haborder.png,0,m,Mon Dec 15 2025 17:52:19 GMT-0600 (Central Standard Time),540660.6000000238,CFD-WF-027-007-HC.jpg,1500,solid,I,None,1516,11,3,41703.60000002384,498957.0,8052,ATS,B,17
14,test,3,C,haborder.png,1,m,Mon Dec 15 2025 17:52:19 GMT-0600 (Central Standard Time),543443.1999999881,CFD-BF-035-007-HC.jpg,1600,solid,I,m,1156,10,3,44486.19999998808,498957.0,8052,ATS,B,18
15,test,3,C,mfborder.png,1,z,Mon Dec 15 2025 17:52:19 GMT-0600 (Central Standard Time),545825.8999999762,CFD-BF-051-043-A.jpg,1600,dash,I,z,749,2,3,46868.89999997616,498957.0,8052,ATS,B,19
16,test,3,C,mfborder.png,1,z,Mon Dec 15 2025 17:52:19 GMT-0600 (Central Standard Time),548603.6000000238,CFD-BF-051-043-A.jpg,1600,dash,I,z,1145,2,3,49646.60000002384,498957.0,8052,ATS,B,20
16,test,3,C,mfborder.png,0,z,Mon Dec 15 2025 17:52:19 GMT-0600 (Central Standard Time),551623.8999999762,CFD-BF-027-013-HC.jpg,1700,dash,I,m,1293,1,3,52666.89999997616,498957.0,8052,ATS,B,21
16,test,3,C,haborder.png,0,z,Mon Dec 15 2025 17:52:19 GMT-0600 (Central Standard Time),555056.1000000238,CFD-BM-037-041-A.jpg,1900,solid,I,None,1516,8,3,56099.10000002384,498957.0,8052,ATS,B,22
16,test,3,C,mfborder.png,0,m,Mon Dec 15 2025 17:52:19 GMT-0600 (Central Standard Time),558588.3999999762,CFD-WM-037-060-A.jpg,2000,dash,I,None,1516,5,3,59631.39999997616,498957.0,8052,ATS,B,23
17,test,3,C,mfborder.png,1,m,Mon Dec 15 2025 17:52:19 GMT-0600 (Central Standard Time),561920.6999999881,CFD-WM-037-060-A.jpg,2000,dash,I,m,1300,5,3,62963.69999998808,498957.0,8052,ATS,B,24
1,test,4,C,mfborder.png,1,m,Mon Dec 15 2025 17:52:19 GMT-0600 (Central Standard Time),570439.8000000119,CFD-BM-015-017-HC.jpg,1000,dash,I,m,1331,4,3,2354.300000011921,568085.5,8052,ATS,B,1
2,test,4,C,mfborder.png,1,z,Mon Dec 15 2025 17:52:19 GMT-0600 (Central Standard Time),572967.3999999762,CFD-WF-013-015-A.jpg,1600,dash,I,z,811,2,3,4881.899999976158,568085.5,8052,ATS,B,2
3,test,4,C,haborder.png,1,z,Mon Dec 15 2025 17:52:19 GMT-0600 (Central Standard Time),575766.5,CFD-WF-026-008-A.jpg,1700,solid,I,z,1072,9,3,7681.0,568085.5,8052,ATS,B,3
4,test,4,C,mfborder.png,1,z,Mon Dec 15 2025 17:52:19 GMT-0600 (Central Standard Time),578300.0,CFD-WF-013-015-A.jpg,1600,dash,I,z,915,2,3,10214.5,568085.5,8052,ATS,B,4
5,test,4,C,mfborder.png,1,m,Mon Dec 15 2025 17:52:19 GMT-0600 (Central Standard Time),581464.5,CFD-BM-037-041-A.jpg,2000,dash,I,m,1142,5,3,13379.0,568085.5,8052,ATS,B,5
6,test,4,C,mfborder.png,1,z,Mon Dec 15 2025 17:52:19 GMT-0600 (Central Standard Time),583914.0,CFD-BF-035-007-HC.jpg,1500,dash,I,z,917,3,3,15828.5,568085.5,8052,ATS,B,6
7,test,4,C,haborder.png,1,m,Mon Dec 15 2025 17:52:19 GMT-0600 (Central Standard Time),586280.0,CFD-WM-011-006-HC.jpg,1000,solid,I,m,1335,12,3,18194.5,568085.5,8052,ATS,B,7
7,test,4,C,mfborder.png,0,m,Mon Dec 15 2025 17:52:19 GMT-0600 (Central Standard Time),589012.3000000119,CFD-WM-009-009-A.jpg,1200,dash,I,None,1516,6,3,20926.80000001192,568085.5,8052,ATS,B,8
8,test,4,C,mfborder.png,1,m,Mon Dec 15 2025 17:52:19 GMT-0600 (Central Standard Time),590811.8999999762,CFD-WM-009-009-A.jpg,1200,dash,I,m,581,6,3,22726.399999976158,568085.5,8052,ATS,B,9
9,test,4,C,haborder.png,1,z,Mon Dec 15 2025 17:52:19 GMT-0600 (Central Standard Time),593694.0,CFD-BF-051-043-A.jpg,1400,solid,I,z,1454,7,3,25608.5,568085.5,8052,ATS,B,10
10,test,4,C,haborder.png,1,m,Mon Dec 15 2025 17:52:19 GMT-0600 (Central Standard Time),596110.1000000238,CFD-BM-020-024-HC.jpg,1600,solid,I,m,796,10,3,28024.600000023842,568085.5,8052,ATS,B,11
11,test,4,C,haborder.png,1,z,Mon Dec 15 2025 17:52:19 GMT-0600 (Central Standard Time),598725.8999999762,CFD-BF-051-043-A.jpg,1400,solid,I,z,1195,7,3,30640.399999976158,568085.5,8052,ATS,B,12
12,test,4,C,mfborder.png,1,z,Mon Dec 15 2025 17:52:19 GMT-0600 (Central Standard Time),601058.8999999762,CFD-BF-035-007-HC.jpg,1500,dash,I,z,807,3,3,32973.39999997616,568085.5,8052,ATS,B,13
12,test,4,C,haborder.png,0,z,Mon Dec 15 2025 17:52:19 GMT-0600 (Central Standard Time),604490.8000000119,CFD-BF-050-012-A.jpg,1900,solid,I,None,1511,8,3,36405.30000001192,568085.5,8052,ATS,B,14
13,test,4,C,haborder.png,1,m,Mon Dec 15 2025 17:52:19 GMT-0600 (Central Standard Time),606689.8999999762,CFD-WM-011-006-HC.jpg,1000,solid,I,m,1182,12,3,38604.39999997616,568085.5,8052,ATS,B,15
14,test,4,C,haborder.png,1,z,Mon Dec 15 2025 17:52:19 GMT-0600 (Central Standard Time),609505.8000000119,CFD-WF-026-008-A.jpg,1700,solid,I,z,1099,9,3,41420.30000001192,568085.5,8052,ATS,B,16
15,test,4,C,haborder.png,1,z,Mon Dec 15 2025 17:52:19 GMT-0600 (Central Standard Time),612221.6000000238,CFD-BF-050-012-A.jpg,1900,solid,I,z,796,8,3,44136.10000002384,568085.5,8052,ATS,B,17
16,test,4,C,mfborder.png,1,z,Mon Dec 15 2025 17:52:19 GMT-0600 (Central Standard Time),615054.1000000238,CFD-WF-011-006-HC.jpg,1700,dash,I,z,1111,1,3,46968.60000002384,568085.5,8052,ATS,B,18
17,test,4,C,haborder.png,1,m,Mon Dec 15 2025 17:52:19 GMT-0600 (Central Standard Time),617553.3000000119,CFD-WM-011-006-HC.jpg,1500,solid,I,m,982,11,3,49467.80000001192,568085.5,8052,ATS,B,19
18,test,4,C,haborder.png,1,m,Mon Dec 15 2025 17:52:19 GMT-0600 (Central Standard Time),620235.8000000119,CFD-BM-020-024-HC.jpg,1600,solid,I,m,927,10,3,52150.30000001192,568085.5,8052,ATS,B,20
19,test,4,C,haborder.png,1,m,Mon Dec 15 2025 17:52:19 GMT-0600 (Central Standard Time),622501.8999999762,CFD-WM-011-006-HC.jpg,1500,solid,I,m,738,11,3,54416.39999997616,568085.5,8052,ATS,B,21
20,test,4,C,mfborder.png,1,z,Mon Dec 15 2025 17:52:19 GMT-0600 (Central Standard Time),625667.6999999881,CFD-WF-011-006-HC.jpg,1700,dash,I,z,1439,1,3,57582.19999998808,568085.5,8052,ATS,B,22
20,test,4,C,mfborder.png,0,m,Mon Dec 15 2025 17:52:19 GMT-0600 (Central Standard Time),629199.5,CFD-BM-037-041-A.jpg,2000,dash,I,None,1515,5,3,61114.0,568085.5,8052,ATS,B,23
21,test,4,C,mfborder.png,1,m,Mon Dec 15 2025 17:52:19 GMT-0600 (Central Standard Time),631532.3999999762,CFD-BM-015-017-HC.jpg,1000,dash,I,m,1306,4,3,63446.89999997616,568085.5,8052,ATS,B,24
