acc_sum,block,block_c,change,condition,correct,correct_response,datetime,endtime,face,project,response,response_time,row_sel,session_number,start_end,starttime,subject_id,task,task_vers,trial
0,prac,1,,1-Back,,,Thu May 08 2025 09:26:09 GMT-0500 (Central Daylight Time),,097_m_f_n_a.png,I,space,10688,1,2,,,8012,NNB,B,0
1,prac,1,0.0,1-Back,1,m,Thu May 08 2025 09:26:09 GMT-0500 (Central Daylight Time),124463.5,152_y_f_n_a.png,I,m,833,2,2,1702.0,122761.5,8012,NNB,B,1
2,prac,1,1.0,1-Back,1,z,Thu May 08 2025 09:26:09 GMT-0500 (Central Daylight Time),126213.0,152_y_f_n_a.png,I,z,957,3,2,1736.5,124476.5,8012,NNB,B,2
3,prac,1,0.0,1-Back,1,m,Thu May 08 2025 09:26:09 GMT-0500 (Central Daylight Time),127946.0,176_o_m_n_a.png,I,m,836,4,2,1720.1000000014901,126225.89999999851,8012,NNB,B,3
4,prac,1,0.0,1-Back,1,m,Thu May 08 2025 09:26:09 GMT-0500 (Central Daylight Time),129411.89999999851,126_m_m_n_a.png,I,m,682,5,2,1452.6999999955297,127959.20000000298,8012,NNB,B,4
5,prac,1,1.0,1-Back,1,z,Thu May 08 2025 09:26:09 GMT-0500 (Central Daylight Time),130928.10000000149,126_m_m_n_a.png,I,z,721,6,2,1503.5,129424.60000000149,8012,NNB,B,5
6,prac,1,0.0,1-Back,1,m,Thu May 08 2025 09:26:09 GMT-0500 (Central Daylight Time),132727.5,086_o_f_n_a.png,I,m,883,7,2,1788.1000000014901,130939.39999999851,8012,NNB,B,6
7,prac,1,0.0,1-Back,1,m,Thu May 08 2025 09:26:09 GMT-0500 (Central Daylight Time),134443.6000000015,178_m_m_n_a.png,I,m,826,8,2,1703.6000000014901,132740.0,8012,NNB,B,7
8,prac,1,0.0,1-Back,1,m,Thu May 08 2025 09:26:09 GMT-0500 (Central Daylight Time),136009.8999999985,097_m_f_n_a.png,I,m,782,9,2,1550.6000000014901,134459.29999999702,8012,NNB,B,8
9,prac,1,1.0,1-Back,1,z,Thu May 08 2025 09:26:09 GMT-0500 (Central Daylight Time),137442.70000000298,097_m_f_n_a.png,I,z,651,10,2,1420.0,136022.70000000298,8012,NNB,B,9
10,prac,1,0.0,1-Back,1,m,Thu May 08 2025 09:26:09 GMT-0500 (Central Daylight Time),139075.79999999702,176_o_m_n_a.png,I,m,841,11,2,1619.5999999940395,137456.20000000298,8012,NNB,B,10
11,prac,1,0.0,1-Back,1,m,Thu May 08 2025 09:26:09 GMT-0500 (Central Daylight Time),140858.29999999702,173_y_f_n_a.png,I,m,900,12,2,1770.3999999985099,139087.8999999985,8012,NNB,B,11
0,test,1,0.0,1-Back,,,Thu May 08 2025 09:26:09 GMT-0500 (Central Daylight Time),140858.29999999702,152_y_f_n_a.png,I,space,5498,1,2,1770.3999999985099,139087.8999999985,8012,NNB,B,0
1,test,1,0.0,1-Back,1,m,Thu May 08 2025 09:26:09 GMT-0500 (Central Daylight Time),157553.5,029_m_f_n_a.png,I,m,868,2,2,1886.1000000014901,155667.3999999985,8012,NNB,B,1
2,test,1,0.0,1-Back,1,m,Thu May 08 2025 09:26:09 GMT-0500 (Central Daylight Time),159319.1000000015,173_y_f_n_a.png,I,m,744,3,2,1752.5,157566.6000000015,8012,NNB,B,2
3,test,1,1.0,1-Back,1,z,Thu May 08 2025 09:26:09 GMT-0500 (Central Daylight Time),160918.79999999702,173_y_f_n_a.png,I,z,578,4,2,1587.3999999985099,159331.3999999985,8012,NNB,B,3
4,test,1,0.0,1-Back,1,m,Thu May 08 2025 09:26:09 GMT-0500 (Central Daylight Time),162618.29999999702,029_m_f_n_a.png,I,m,675,5,2,1689.8999999985099,160928.3999999985,8012,NNB,B,4
5,test,1,0.0,1-Back,1,m,Thu May 08 2025 09:26:09 GMT-0500 (Central Daylight Time),164300.8999999985,176_o_m_n_a.png,I,m,663,6,2,1672.8999999985099,162628.0,8012,NNB,B,5
6,test,1,1.0,1-Back,1,z,Thu May 08 2025 09:26:09 GMT-0500 (Central Daylight Time),165817.20000000298,176_o_m_n_a.png,I,z,492,7,2,1503.7000000029802,164313.5,8012,NNB,B,6
7,test,1,0.0,1-Back,1,m,Thu May 08 2025 09:26:09 GMT-0500 (Central Daylight Time),167399.8999999985,126_m_m_n_a.png,I,m,560,8,2,1572.7999999970198,165827.1000000015,8012,NNB,B,7
8,test,1,0.0,1-Back,1,m,Thu May 08 2025 09:26:09 GMT-0500 (Central Daylight Time),169016.29999999702,086_o_f_n_a.png,I,m,585,9,2,1605.6999999955297,167410.6000000015,8012,NNB,B,8
9,test,1,0.0,1-Back,1,m,Thu May 08 2025 09:26:09 GMT-0500 (Central Daylight Time),170732.20000000298,126_m_m_n_a.png,I,m,688,10,2,1705.1000000014901,169027.1000000015,8012,NNB,B,9
10,test,1,0.0,1-Back,1,m,Thu May 08 2025 09:26:09 GMT-0500 (Central Daylight Time),172431.70000000298,153_y_m_n_a.png,I,m,677,11,2,1688.2000000029802,170743.5,8012,NNB,B,10
11,test,1,1.0,1-Back,1,z,Thu May 08 2025 09:26:09 GMT-0500 (Central Daylight Time),173914.5,153_y_m_n_a.png,I,z,465,12,2,1472.2999999970198,172442.20000000298,8012,NNB,B,11
12,test,1,0.0,1-Back,1,m,Thu May 08 2025 09:26:09 GMT-0500 (Central Daylight Time),175514.0,110_o_f_n_a.png,I,m,575,13,2,1589.5,173924.5,8012,NNB,B,12
13,test,1,1.0,1-Back,1,z,Thu May 08 2025 09:26:09 GMT-0500 (Central Daylight Time),177047.0,110_o_f_n_a.png,I,z,503,14,2,1521.7000000029802,175525.29999999702,8012,NNB,B,13
14,test,1,0.0,1-Back,1,m,Thu May 08 2025 09:26:09 GMT-0500 (Central Daylight Time),178629.79999999702,013_y_m_n_a.png,I,m,560,15,2,1572.5,177057.29999999702,8012,NNB,B,14
15,test,1,0.0,1-Back,1,m,Thu May 08 2025 09:26:09 GMT-0500 (Central Daylight Time),180196.0,097_m_f_n_a.png,I,m,525,16,2,1553.8999999985099,178642.1000000015,8012,NNB,B,15
16,test,1,0.0,1-Back,1,m,Thu May 08 2025 09:26:09 GMT-0500 (Central Daylight Time),181762.1000000015,065_o_m_n_a.png,I,m,533,17,2,1553.3999999985099,180208.70000000298,8012,NNB,B,16
17,test,1,0.0,1-Back,1,m,Thu May 08 2025 09:26:09 GMT-0500 (Central Daylight Time),183378.70000000298,097_m_f_n_a.png,I,m,599,18,2,1602.3000000044703,181776.3999999985,8012,NNB,B,17
0,test,2,0.0,1-Back,,,Thu May 08 2025 09:26:09 GMT-0500 (Central Daylight Time),183378.70000000298,126_m_m_n_a.png,I,space,1895,1,2,1602.3000000044703,181776.3999999985,8012,NNB,B,0
1,test,2,0.0,1-Back,1,m,Thu May 08 2025 09:26:09 GMT-0500 (Central Daylight Time),188959.8999999985,029_m_f_n_a.png,I,m,635,2,2,1654.0,187305.8999999985,8012,NNB,B,1
2,test,2,1.0,1-Back,1,z,Thu May 08 2025 09:26:09 GMT-0500 (Central Daylight Time),190442.8999999985,029_m_f_n_a.png,I,z,457,3,2,1470.6000000014901,188972.29999999702,8012,NNB,B,2
3,test,2,0.0,1-Back,1,m,Thu May 08 2025 09:26:09 GMT-0500 (Central Daylight Time),191975.6000000015,126_m_m_n_a.png,I,m,510,4,2,1522.8999999985099,190452.70000000298,8012,NNB,B,3
4,test,2,0.0,1-Back,1,m,Thu May 08 2025 09:26:09 GMT-0500 (Central Daylight Time),193558.5,153_y_m_n_a.png,I,m,561,5,2,1572.6000000014901,191985.8999999985,8012,NNB,B,4
5,test,2,0.0,1-Back,1,m,Thu May 08 2025 09:26:09 GMT-0500 (Central Daylight Time),195175.6000000015,152_y_f_n_a.png,I,m,587,6,2,1605.0,193570.6000000015,8012,NNB,B,5
6,test,2,1.0,1-Back,1,z,Thu May 08 2025 09:26:09 GMT-0500 (Central Daylight Time),196607.5,152_y_f_n_a.png,I,z,410,7,2,1417.7999999970198,195189.70000000298,8012,NNB,B,6
7,test,2,0.0,1-Back,1,m,Thu May 08 2025 09:26:09 GMT-0500 (Central Daylight Time),198240.29999999702,153_y_m_n_a.png,I,m,601,8,2,1620.7999999970198,196619.5,8012,NNB,B,7
8,test,2,0.0,1-Back,1,m,Thu May 08 2025 09:26:09 GMT-0500 (Central Daylight Time),199889.79999999702,110_o_f_n_a.png,I,m,617,9,2,1638.5999999940395,198251.20000000298,8012,NNB,B,8
9,test,2,0.0,1-Back,1,m,Thu May 08 2025 09:26:09 GMT-0500 (Central Daylight Time),201439.29999999702,178_m_m_n_a.png,I,m,519,10,2,1538.7999999970198,199900.5,8012,NNB,B,9
10,test,2,1.0,1-Back,1,z,Thu May 08 2025 09:26:09 GMT-0500 (Central Daylight Time),203084.8999999985,178_m_m_n_a.png,I,z,629,11,2,1633.7999999970198,201451.1000000015,8012,NNB,B,10
11,test,2,0.0,1-Back,1,m,Thu May 08 2025 09:26:09 GMT-0500 (Central Daylight Time),204654.8999999985,110_o_f_n_a.png,I,m,544,12,2,1557.7999999970198,203097.1000000015,8012,NNB,B,11
12,test,2,0.0,1-Back,1,m,Thu May 08 2025 09:26:09 GMT-0500 (Central Daylight Time),206271.1000000015,086_o_f_n_a.png,I,m,586,13,2,1602.6000000014901,204668.5,8012,NNB,B,12
13,test,2,0.0,1-Back,1,m,Thu May 08 2025 09:26:09 GMT-0500 (Central Daylight Time),207770.6000000015,176_o_m_n_a.png,I,m,482,14,2,1487.3999999985099,206283.20000000298,8012,NNB,B,13
14,test,2,0.0,1-Back,1,m,Thu May 08 2025 09:26:09 GMT-0500 (Central Daylight Time),209336.79999999702,065_o_m_n_a.png,I,m,534,15,2,1554.1999999955297,207782.6000000015,8012,NNB,B,14
15,test,2,1.0,1-Back,1,z,Thu May 08 2025 09:26:09 GMT-0500 (Central Daylight Time),210869.8999999985,065_o_m_n_a.png,I,z,504,16,2,1520.6999999955297,209349.20000000298,8012,NNB,B,15
16,test,2,0.0,1-Back,1,m,Thu May 08 2025 09:26:09 GMT-0500 (Central Daylight Time),212419.20000000298,013_y_m_n_a.png,I,m,531,17,2,1537.3000000044703,210881.8999999985,8012,NNB,B,16
17,test,2,1.0,1-Back,1,z,Thu May 08 2025 09:26:09 GMT-0500 (Central Daylight Time),213868.79999999702,013_y_m_n_a.png,I,z,422,18,2,1438.3999999985099,212430.3999999985,8012,NNB,B,17
0,test,3,1.0,1-Back,,,Thu May 08 2025 09:26:09 GMT-0500 (Central Daylight Time),213868.79999999702,173_y_f_n_a.png,I,space,1421,1,2,1438.3999999985099,212430.3999999985,8012,NNB,B,0
1,test,3,0.0,1-Back,1,m,Thu May 08 2025 09:26:09 GMT-0500 (Central Daylight Time),219050.3999999985,065_o_m_n_a.png,I,m,607,1,2,1622.0,217428.3999999985,8012,NNB,B,1
2,test,3,1.0,1-Back,1,z,Thu May 08 2025 09:26:09 GMT-0500 (Central Daylight Time),220599.8999999985,065_o_m_n_a.png,I,z,527,1,2,1538.8999999985099,219061.0,8012,NNB,B,2
3,test,3,0.0,1-Back,1,m,Thu May 08 2025 09:26:09 GMT-0500 (Central Daylight Time),222099.5,097_m_f_n_a.png,I,m,481,1,2,1487.6000000014901,220611.8999999985,8012,NNB,B,3
4,test,3,1.0,1-Back,1,z,Thu May 08 2025 09:26:09 GMT-0500 (Central Daylight Time),223582.29999999702,097_m_f_n_a.png,I,z,454,1,2,1470.8999999985099,222111.3999999985,8012,NNB,B,4
5,test,3,0.0,1-Back,1,m,Thu May 08 2025 09:26:09 GMT-0500 (Central Daylight Time),225315.20000000298,110_o_f_n_a.png,I,m,715,1,2,1720.1000000014901,223595.1000000015,8012,NNB,B,5
6,test,3,0.0,1-Back,1,m,Thu May 08 2025 09:26:09 GMT-0500 (Central Daylight Time),226778.29999999702,153_y_m_n_a.png,I,m,446,1,2,1451.1999999955297,225327.1000000015,8012,NNB,B,6
7,test,3,0.0,1-Back,1,m,Thu May 08 2025 09:26:09 GMT-0500 (Central Daylight Time),228414.3999999985,110_o_f_n_a.png,I,m,604,1,2,1621.0,226793.3999999985,8012,NNB,B,7
8,test,3,0.0,1-Back,1,m,Thu May 08 2025 09:26:09 GMT-0500 (Central Daylight Time),229947.1000000015,013_y_m_n_a.png,I,m,515,1,2,1521.7000000029802,228425.3999999985,8012,NNB,B,8
9,test,3,1.0,1-Back,1,z,Thu May 08 2025 09:26:09 GMT-0500 (Central Daylight Time),231513.20000000298,013_y_m_n_a.png,I,z,534,1,2,1556.5,229956.70000000298,8012,NNB,B,9
10,test,3,0.0,1-Back,1,m,Thu May 08 2025 09:26:09 GMT-0500 (Central Daylight Time),232979.5,029_m_f_n_a.png,I,m,448,1,2,1456.2999999970198,231523.20000000298,8012,NNB,B,10
11,test,3,0.0,1-Back,1,m,Thu May 08 2025 09:26:09 GMT-0500 (Central Daylight Time),234495.5,152_y_f_n_a.png,I,m,486,1,2,1504.8999999985099,232990.6000000015,8012,NNB,B,11
12,test,3,1.0,1-Back,1,z,Thu May 08 2025 09:26:09 GMT-0500 (Central Daylight Time),235912.0,152_y_f_n_a.png,I,z,385,1,2,1404.5,234507.5,8012,NNB,B,12
13,test,3,0.0,1-Back,1,m,Thu May 08 2025 09:26:09 GMT-0500 (Central Daylight Time),237461.3999999985,029_m_f_n_a.png,I,m,529,1,2,1539.7999999970198,235921.6000000015,8012,NNB,B,13
14,test,3,0.0,1-Back,1,m,Thu May 08 2025 09:26:09 GMT-0500 (Central Daylight Time),238994.3999999985,126_m_m_n_a.png,I,m,508,1,2,1519.1999999955297,237475.20000000298,8012,NNB,B,14
15,test,3,1.0,1-Back,1,z,Thu May 08 2025 09:26:09 GMT-0500 (Central Daylight Time),240577.20000000298,126_m_m_n_a.png,I,z,559,1,2,1567.5,239009.70000000298,8012,NNB,B,15
16,test,3,0.0,1-Back,1,m,Thu May 08 2025 09:26:09 GMT-0500 (Central Daylight Time),242176.5,086_o_f_n_a.png,I,m,576,1,2,1589.3999999985099,240587.1000000015,8012,NNB,B,16
17,test,3,1.0,1-Back,1,z,Thu May 08 2025 09:26:09 GMT-0500 (Central Daylight Time),243676.29999999702,086_o_f_n_a.png,I,z,473,1,2,1487.8999999985099,242188.3999999985,8012,NNB,B,17
0,test,4,1.0,1-Back,,,Thu May 08 2025 09:26:09 GMT-0500 (Central Daylight Time),243676.29999999702,097_m_f_n_a.png,I,space,1309,1,2,1487.8999999985099,242188.3999999985,8012,NNB,B,0
1,test,4,0.0,1-Back,1,m,Thu May 08 2025 09:26:09 GMT-0500 (Central Daylight Time),248841.29999999702,065_o_m_n_a.png,I,m,709,2,2,1719.7999999970198,247121.5,8012,NNB,B,1
2,test,4,0.0,1-Back,1,m,Thu May 08 2025 09:26:09 GMT-0500 (Central Daylight Time),250474.20000000298,097_m_f_n_a.png,I,m,602,3,2,1621.3000000044703,248852.8999999985,8012,NNB,B,2
3,test,4,0.0,1-Back,1,m,Thu May 08 2025 09:26:09 GMT-0500 (Central Daylight Time),252106.8999999985,110_o_f_n_a.png,I,m,615,4,2,1621.3999999985099,250485.5,8012,NNB,B,3
4,test,4,1.0,1-Back,1,z,Thu May 08 2025 09:26:09 GMT-0500 (Central Daylight Time),253623.1000000015,110_o_f_n_a.png,I,z,486,5,2,1504.8999999985099,252118.20000000298,8012,NNB,B,4
5,test,4,0.0,1-Back,1,m,Thu May 08 2025 09:26:09 GMT-0500 (Central Daylight Time),255155.79999999702,152_y_f_n_a.png,I,m,514,6,2,1522.8999999985099,253632.8999999985,8012,NNB,B,5
6,test,4,0.0,1-Back,1,m,Thu May 08 2025 09:26:09 GMT-0500 (Central Daylight Time),256622.1000000015,153_y_m_n_a.png,I,m,445,7,2,1455.0,255167.1000000015,8012,NNB,B,6
7,test,4,1.0,1-Back,1,z,Thu May 08 2025 09:26:09 GMT-0500 (Central Daylight Time),258021.70000000298,153_y_m_n_a.png,I,z,379,8,2,1387.3000000044703,256634.3999999985,8012,NNB,B,7
8,test,4,0.0,1-Back,1,m,Thu May 08 2025 09:26:09 GMT-0500 (Central Daylight Time),259521.1000000015,152_y_f_n_a.png,I,m,476,9,2,1488.0,258033.1000000015,8012,NNB,B,8
9,test,4,0.0,1-Back,1,m,Thu May 08 2025 09:26:09 GMT-0500 (Central Daylight Time),261054.0,178_m_m_n_a.png,I,m,512,10,2,1520.0,259534.0,8012,NNB,B,9
10,test,4,1.0,1-Back,1,z,Thu May 08 2025 09:26:09 GMT-0500 (Central Daylight Time),262570.1000000015,178_m_m_n_a.png,I,z,491,11,2,1504.7000000029802,261065.3999999985,8012,NNB,B,10
11,test,4,0.0,1-Back,1,m,Thu May 08 2025 09:26:09 GMT-0500 (Central Daylight Time),264053.299999997,086_o_f_n_a.png,I,m,455,12,2,1472.5999999940395,262580.700000003,8012,NNB,B,11
12,test,4,0.0,1-Back,1,m,Thu May 08 2025 09:26:09 GMT-0500 (Central Daylight Time),265636.0,176_o_m_n_a.png,I,m,565,13,2,1569.0,264067.0,8012,NNB,B,12
13,test,4,0.0,1-Back,1,m,Thu May 08 2025 09:26:09 GMT-0500 (Central Daylight Time),267152.1000000015,086_o_f_n_a.png,I,m,493,14,2,1504.0,265648.1000000015,8012,NNB,B,13
14,test,4,0.0,1-Back,1,m,Thu May 08 2025 09:26:09 GMT-0500 (Central Daylight Time),268718.299999997,173_y_f_n_a.png,I,m,545,15,2,1553.8999999985099,267164.3999999985,8012,NNB,B,14
15,test,4,1.0,1-Back,1,z,Thu May 08 2025 09:26:09 GMT-0500 (Central Daylight Time),270234.6000000015,173_y_f_n_a.png,I,z,491,16,2,1504.3000000044703,268730.299999997,8012,NNB,B,15
16,test,4,0.0,1-Back,1,m,Thu May 08 2025 09:26:09 GMT-0500 (Central Daylight Time),271784.1000000015,029_m_f_n_a.png,I,m,527,17,2,1540.5,270243.6000000015,8012,NNB,B,16
17,test,4,1.0,1-Back,1,z,Thu May 08 2025 09:26:09 GMT-0500 (Central Daylight Time),273233.5,029_m_f_n_a.png,I,z,417,18,2,1437.6000000014901,271795.8999999985,8012,NNB,B,17
0,test,5,1.0,1-Back,,,Thu May 08 2025 09:26:09 GMT-0500 (Central Daylight Time),273233.5,176_o_m_n_a.png,I,space,1360,1,2,1437.6000000014901,271795.8999999985,8012,NNB,B,0
1,test,5,1.0,1-Back,1,z,Thu May 08 2025 09:26:09 GMT-0500 (Central Daylight Time),278332.0,176_o_m_n_a.png,I,z,697,2,2,1703.2000000029802,276628.799999997,8012,NNB,B,1
2,test,5,0.0,1-Back,1,m,Thu May 08 2025 09:26:09 GMT-0500 (Central Daylight Time),279898.0,152_y_f_n_a.png,I,m,533,3,2,1556.0,278342.0,8012,NNB,B,2
3,test,5,0.0,1-Back,1,m,Thu May 08 2025 09:26:09 GMT-0500 (Central Daylight Time),281481.0,153_y_m_n_a.png,I,m,551,4,2,1571.1000000014901,279909.8999999985,8012,NNB,B,3
4,test,5,0.0,1-Back,1,m,Thu May 08 2025 09:26:09 GMT-0500 (Central Daylight Time),283213.8999999985,152_y_f_n_a.png,I,m,712,5,2,1721.6999999955297,281492.200000003,8012,NNB,B,4
5,test,5,0.0,1-Back,1,m,Thu May 08 2025 09:26:09 GMT-0500 (Central Daylight Time),284813.299999997,126_m_m_n_a.png,I,m,579,6,2,1589.5999999940395,283223.700000003,8012,NNB,B,5
6,test,5,1.0,1-Back,1,z,Thu May 08 2025 09:26:09 GMT-0500 (Central Daylight Time),286229.5,126_m_m_n_a.png,I,z,388,7,2,1401.6000000014901,284827.8999999985,8012,NNB,B,6
7,test,5,0.0,1-Back,1,m,Thu May 08 2025 09:26:09 GMT-0500 (Central Daylight Time),287729.1000000015,173_y_f_n_a.png,I,m,468,8,2,1489.0,286240.1000000015,8012,NNB,B,7
8,test,5,0.0,1-Back,1,m,Thu May 08 2025 09:26:09 GMT-0500 (Central Daylight Time),289295.299999997,013_y_m_n_a.png,I,m,544,9,2,1555.5999999940395,287739.700000003,8012,NNB,B,8
9,test,5,0.0,1-Back,1,m,Thu May 08 2025 09:26:09 GMT-0500 (Central Daylight Time),290944.700000003,173_y_f_n_a.png,I,m,626,10,2,1637.5,289307.200000003,8012,NNB,B,9
10,test,5,0.0,1-Back,1,m,Thu May 08 2025 09:26:09 GMT-0500 (Central Daylight Time),292494.200000003,086_o_f_n_a.png,I,m,520,11,2,1539.6000000014901,290954.6000000015,8012,NNB,B,10
11,test,5,1.0,1-Back,1,z,Thu May 08 2025 09:26:09 GMT-0500 (Central Daylight Time),294210.5,086_o_f_n_a.png,I,z,683,12,2,1701.3999999985099,292509.1000000015,8012,NNB,B,11
12,test,5,0.0,1-Back,1,m,Thu May 08 2025 09:26:09 GMT-0500 (Central Daylight Time),296176.5,065_o_m_n_a.png,I,m,943,13,2,1955.3999999985099,294221.1000000015,8012,NNB,B,12
13,test,5,0.0,1-Back,1,m,Thu May 08 2025 09:26:09 GMT-0500 (Central Daylight Time),297759.1000000015,097_m_f_n_a.png,I,m,561,14,2,1570.1000000014901,296189.0,8012,NNB,B,13
14,test,5,1.0,1-Back,1,z,Thu May 08 2025 09:26:09 GMT-0500 (Central Daylight Time),299225.299999997,097_m_f_n_a.png,I,z,434,15,2,1454.8999999985099,297770.3999999985,8012,NNB,B,14
15,test,5,0.0,1-Back,1,m,Thu May 08 2025 09:26:09 GMT-0500 (Central Daylight Time),300791.6000000015,065_o_m_n_a.png,I,m,544,16,2,1554.5,299237.1000000015,8012,NNB,B,15
16,test,5,0.0,1-Back,1,m,Thu May 08 2025 09:26:09 GMT-0500 (Central Daylight Time),302474.3999999985,029_m_f_n_a.png,I,m,658,17,2,1672.7999999970198,300801.6000000015,8012,NNB,B,16
17,test,5,0.0,1-Back,1,m,Thu May 08 2025 09:26:09 GMT-0500 (Central Daylight Time),303924.8999999985,178_m_m_n_a.png,I,m,432,18,2,1438.1999999955297,302486.700000003,8012,NNB,B,17
0,prac,1,0.0,2-Back,,,Thu May 08 2025 09:26:09 GMT-0500 (Central Daylight Time),303924.8999999985,013_y_m_n_a.png,I,space,6772,1,2,1438.1999999955297,302486.700000003,8012,NNB,B,0
0,prac,1,0.0,2-Back,,,Thu May 08 2025 09:26:09 GMT-0500 (Central Daylight Time),303924.8999999985,029_m_f_n_a.png,I,space,6772,2,2,1438.1999999955297,302486.700000003,8012,NNB,B,0
1,prac,1,1.0,2-Back,1,m,Thu May 08 2025 09:26:09 GMT-0500 (Central Daylight Time),391632.299999997,065_o_m_n_a.png,I,m,992,3,2,1873.5,389758.799999997,8012,NNB,B,1
2,prac,1,0.0,2-Back,1,m,Thu May 08 2025 09:26:09 GMT-0500 (Central Daylight Time),393795.8999999985,086_o_f_n_a.png,I,m,1261,4,2,2149.39999999851,391646.5,8012,NNB,B,2
3,prac,1,0.0,2-Back,1,z,Thu May 08 2025 09:26:09 GMT-0500 (Central Daylight Time),395678.799999997,065_o_m_n_a.png,I,z,1096,5,2,1869.3999999985099,393809.3999999985,8012,NNB,B,3
4,prac,1,1.0,2-Back,1,z,Thu May 08 2025 09:26:09 GMT-0500 (Central Daylight Time),397178.1000000015,086_o_f_n_a.png,I,z,708,6,2,1484.7000000029802,395693.3999999985,8012,NNB,B,4
5,prac,1,0.0,2-Back,1,m,Thu May 08 2025 09:26:09 GMT-0500 (Central Daylight Time),399177.6000000015,178_m_m_n_a.png,I,m,1108,7,2,1985.3000000044703,397192.299999997,8012,NNB,B,5
6,prac,1,0.0,2-Back,1,m,Thu May 08 2025 09:26:09 GMT-0500 (Central Daylight Time),400745.1000000015,176_o_m_n_a.png,I,m,672,8,2,1553.3000000044703,399191.799999997,8012,NNB,B,6
7,prac,1,0.0,2-Back,1,m,Thu May 08 2025 09:26:09 GMT-0500 (Central Daylight Time),402459.8999999985,173_y_f_n_a.png,I,m,834,9,2,1701.7999999970198,400758.1000000015,8012,NNB,B,7
8,prac,1,1.0,2-Back,1,z,Thu May 08 2025 09:26:09 GMT-0500 (Central Daylight Time),403809.700000003,176_o_m_n_a.png,I,z,569,10,2,1337.1000000014901,402472.6000000015,8012,NNB,B,8
9,prac,1,0.0,2-Back,1,m,Thu May 08 2025 09:26:09 GMT-0500 (Central Daylight Time),405575.700000003,152_y_f_n_a.png,I,m,871,11,2,1752.9000000059605,403822.799999997,8012,NNB,B,9
10,prac,1,0.0,2-Back,1,m,Thu May 08 2025 09:26:09 GMT-0500 (Central Daylight Time),407258.3999999985,178_m_m_n_a.png,I,m,891,12,2,1666.6999999955297,405591.700000003,8012,NNB,B,10
0,test,1,0.0,2-Back,,,Thu May 08 2025 09:26:09 GMT-0500 (Central Daylight Time),407258.3999999985,153_y_m_n_a.png,I,space,7067,1,2,1666.6999999955297,405591.700000003,8012,NNB,B,0
0,test,1,0.0,2-Back,,,Thu May 08 2025 09:26:09 GMT-0500 (Central Daylight Time),407258.3999999985,153_y_m_n_a.png,I,space,7067,2,2,1666.6999999955297,405591.700000003,8012,NNB,B,0
1,test,1,0.0,2-Back,1,m,Thu May 08 2025 09:26:09 GMT-0500 (Central Daylight Time),428218.8999999985,086_o_f_n_a.png,I,m,1166,3,2,2172.7999999970198,426046.1000000015,8012,NNB,B,1
2,test,1,0.0,2-Back,1,m,Thu May 08 2025 09:26:09 GMT-0500 (Central Daylight Time),430134.3999999985,126_m_m_n_a.png,I,m,895,4,2,1905.0,428229.3999999985,8012,NNB,B,2
3,test,1,1.0,2-Back,1,z,Thu May 08 2025 09:26:09 GMT-0500 (Central Daylight Time),431933.8999999985,086_o_f_n_a.png,I,z,779,5,2,1788.1000000014901,430145.799999997,8012,NNB,B,3
4,test,1,0.0,2-Back,1,m,Thu May 08 2025 09:26:09 GMT-0500 (Central Daylight Time),433933.299999997,152_y_f_n_a.png,I,m,979,6,2,1988.6999999955297,431944.6000000015,8012,NNB,B,4
5,test,1,0.0,2-Back,1,m,Thu May 08 2025 09:26:09 GMT-0500 (Central Daylight Time),435982.700000003,126_m_m_n_a.png,I,m,1020,7,2,2039.7000000029802,433943.0,8012,NNB,B,5
6,test,1,1.0,2-Back,1,z,Thu May 08 2025 09:26:09 GMT-0500 (Central Daylight Time),437698.6000000015,152_y_f_n_a.png,I,z,691,8,2,1706.1000000014901,435992.5,8012,NNB,B,6
7,test,1,0.0,2-Back,1,m,Thu May 08 2025 09:26:09 GMT-0500 (Central Daylight Time),439698.0,013_y_m_n_a.png,I,m,944,9,2,1990.1000000014901,437707.8999999985,8012,NNB,B,7
8,test,1,0.0,2-Back,1,m,Thu May 08 2025 09:26:09 GMT-0500 (Central Daylight Time),441564.1000000015,110_o_f_n_a.png,I,m,839,10,2,1853.7000000029802,439710.3999999985,8012,NNB,B,8
9,test,1,1.0,2-Back,1,z,Thu May 08 2025 09:26:09 GMT-0500 (Central Daylight Time),443230.299999997,013_y_m_n_a.png,I,z,638,11,2,1654.2999999970198,441576.0,8012,NNB,B,9
10,test,1,0.0,2-Back,1,m,Thu May 08 2025 09:26:09 GMT-0500 (Central Daylight Time),445029.8999999985,029_m_f_n_a.png,I,m,771,12,2,1787.1999999955297,443242.700000003,8012,NNB,B,10
11,test,1,0.0,2-Back,1,m,Thu May 08 2025 09:26:09 GMT-0500 (Central Daylight Time),446912.3999999985,029_m_f_n_a.png,I,m,851,13,2,1871.5,445040.8999999985,8012,NNB,B,11
12,test,1,0.0,2-Back,1,m,Thu May 08 2025 09:26:09 GMT-0500 (Central Daylight Time),448812.0,065_o_m_n_a.png,I,m,873,14,2,1888.2000000029802,446923.799999997,8012,NNB,B,12
13,test,1,0.0,2-Back,1,m,Thu May 08 2025 09:26:09 GMT-0500 (Central Daylight Time),450561.700000003,110_o_f_n_a.png,I,m,718,15,2,1738.1000000014901,448823.6000000015,8012,NNB,B,13
14,test,1,1.0,2-Back,1,z,Thu May 08 2025 09:26:09 GMT-0500 (Central Daylight Time),452060.8999999985,065_o_m_n_a.png,I,z,480,16,2,1489.5,450571.3999999985,8012,NNB,B,14
15,test,1,0.0,2-Back,1,m,Thu May 08 2025 09:26:09 GMT-0500 (Central Daylight Time),453943.5,097_m_f_n_a.png,I,m,860,17,2,1872.5,452071.0,8012,NNB,B,15
16,test,1,0.0,2-Back,1,m,Thu May 08 2025 09:26:09 GMT-0500 (Central Daylight Time),455726.3999999985,178_m_m_n_a.png,I,m,754,18,2,1770.3999999985099,453956.0,8012,NNB,B,16
0,test,2,0.0,2-Back,,,Thu May 08 2025 09:26:09 GMT-0500 (Central Daylight Time),455726.3999999985,178_m_m_n_a.png,I,space,3307,1,2,1770.3999999985099,453956.0,8012,NNB,B,0
0,test,2,0.0,2-Back,,,Thu May 08 2025 09:26:09 GMT-0500 (Central Daylight Time),455726.3999999985,173_y_f_n_a.png,I,space,3307,2,2,1770.3999999985099,453956.0,8012,NNB,B,0
1,test,2,1.0,2-Back,1,z,Thu May 08 2025 09:26:09 GMT-0500 (Central Daylight Time),466023.299999997,178_m_m_n_a.png,I,z,812,3,2,1821.3999999985099,464201.8999999985,8012,NNB,B,1
2,test,2,0.0,2-Back,1,m,Thu May 08 2025 09:26:09 GMT-0500 (Central Daylight Time),467789.5,097_m_f_n_a.png,I,m,738,4,2,1756.7999999970198,466032.700000003,8012,NNB,B,2
3,test,2,0.0,2-Back,1,m,Thu May 08 2025 09:26:09 GMT-0500 (Central Daylight Time),469589.0,173_y_f_n_a.png,I,m,773,5,2,1787.0,467802.0,8012,NNB,B,3
4,test,2,0.0,2-Back,1,m,Thu May 08 2025 09:26:09 GMT-0500 (Central Daylight Time),471571.6000000015,065_o_m_n_a.png,I,m,957,6,2,1971.6000000014901,469600.0,8012,NNB,B,4
5,test,2,0.0,2-Back,1,m,Thu May 08 2025 09:26:09 GMT-0500 (Central Daylight Time),473254.3999999985,152_y_f_n_a.png,I,m,654,7,2,1672.3999999985099,471582.0,8012,NNB,B,5
6,test,2,1.0,2-Back,1,z,Thu May 08 2025 09:26:09 GMT-0500 (Central Daylight Time),474903.8999999985,065_o_m_n_a.png,I,z,628,8,2,1638.6999999955297,473265.200000003,8012,NNB,B,6
7,test,2,0.0,2-Back,1,m,Thu May 08 2025 09:26:09 GMT-0500 (Central Daylight Time),476569.8999999985,013_y_m_n_a.png,I,m,633,9,2,1656.1000000014901,474913.799999997,8012,NNB,B,7
8,test,2,0.0,2-Back,1,m,Thu May 08 2025 09:26:09 GMT-0500 (Central Daylight Time),478319.299999997,013_y_m_n_a.png,I,m,719,10,2,1738.1999999955297,476581.1000000015,8012,NNB,B,8
9,test,2,0.0,2-Back,1,m,Thu May 08 2025 09:26:09 GMT-0500 (Central Daylight Time),479985.700000003,029_m_f_n_a.png,I,m,642,11,2,1656.8000000044703,478328.8999999985,8012,NNB,B,9
9,test,2,0.0,2-Back,0,m,Thu May 08 2025 09:26:09 GMT-0500 (Central Daylight Time),481751.5,173_y_f_n_a.png,I,z,718,12,2,1749.2000000029802,480002.299999997,8012,NNB,B,10
10,test,2,1.0,2-Back,1,z,Thu May 08 2025 09:26:09 GMT-0500 (Central Daylight Time),483267.8999999985,029_m_f_n_a.png,I,z,490,13,2,1505.7999999970198,481762.1000000015,8012,NNB,B,11
11,test,2,0.0,2-Back,1,m,Thu May 08 2025 09:26:09 GMT-0500 (Central Daylight Time),484883.8999999985,176_o_m_n_a.png,I,m,598,14,2,1606.1000000014901,483277.799999997,8012,NNB,B,12
12,test,2,0.0,2-Back,1,m,Thu May 08 2025 09:26:09 GMT-0500 (Central Daylight Time),486616.8999999985,176_o_m_n_a.png,I,m,604,15,2,1720.1000000014901,484896.799999997,8012,NNB,B,13
13,test,2,0.0,2-Back,1,m,Thu May 08 2025 09:26:09 GMT-0500 (Central Daylight Time),488416.299999997,110_o_f_n_a.png,I,m,777,16,2,1788.3999999985099,486627.8999999985,8012,NNB,B,14
14,test,2,0.0,2-Back,1,m,Thu May 08 2025 09:26:09 GMT-0500 (Central Daylight Time),490115.799999997,126_m_m_n_a.png,I,m,673,17,2,1685.2999999970198,488430.5,8012,NNB,B,15
15,test,2,1.0,2-Back,1,z,Thu May 08 2025 09:26:09 GMT-0500 (Central Daylight Time),491582.0,110_o_f_n_a.png,I,z,446,18,2,1454.6000000014901,490127.3999999985,8012,NNB,B,16
0,test,3,1.0,2-Back,,,Thu May 08 2025 09:26:09 GMT-0500 (Central Daylight Time),491582.0,153_y_m_n_a.png,I,space,2284,1,2,1454.6000000014901,490127.3999999985,8012,NNB,B,0
0,test,3,1.0,2-Back,,,Thu May 08 2025 09:26:09 GMT-0500 (Central Daylight Time),491582.0,153_y_m_n_a.png,I,space,2284,2,2,1454.6000000014901,490127.3999999985,8012,NNB,B,0
1,test,3,0.0,2-Back,1,m,Thu May 08 2025 09:26:09 GMT-0500 (Central Daylight Time),500978.8999999985,110_o_f_n_a.png,I,m,925,3,2,1938.6999999955297,499040.200000003,8012,NNB,B,1
2,test,3,0.0,2-Back,1,m,Thu May 08 2025 09:26:09 GMT-0500 (Central Daylight Time),502778.5,178_m_m_n_a.png,I,m,766,4,2,1789.7999999970198,500988.700000003,8012,NNB,B,2
3,test,3,1.0,2-Back,1,z,Thu May 08 2025 09:26:09 GMT-0500 (Central Daylight Time),504661.0,110_o_f_n_a.png,I,z,855,5,2,1870.7999999970198,502790.200000003,8012,NNB,B,3
4,test,3,0.0,2-Back,1,m,Thu May 08 2025 09:26:09 GMT-0500 (Central Daylight Time),506477.0,013_y_m_n_a.png,I,m,796,6,2,1802.5,504674.5,8012,NNB,B,4
5,test,3,0.0,2-Back,1,m,Thu May 08 2025 09:26:09 GMT-0500 (Central Daylight Time),508459.8999999985,178_m_m_n_a.png,I,m,964,7,2,1969.1999999955297,506490.700000003,8012,NNB,B,5
6,test,3,1.0,2-Back,1,z,Thu May 08 2025 09:26:09 GMT-0500 (Central Daylight Time),510142.700000003,013_y_m_n_a.png,I,z,583,8,2,1669.7000000029802,508473.0,8012,NNB,B,6
7,test,3,0.0,2-Back,1,m,Thu May 08 2025 09:26:09 GMT-0500 (Central Daylight Time),511942.1000000015,173_y_f_n_a.png,I,m,779,9,2,1787.7000000029802,510154.3999999985,8012,NNB,B,7
8,test,3,0.0,2-Back,1,m,Thu May 08 2025 09:26:09 GMT-0500 (Central Daylight Time),513808.200000003,126_m_m_n_a.png,I,m,835,10,2,1853.1000000014901,511955.1000000015,8012,NNB,B,8
9,test,3,1.0,2-Back,1,z,Thu May 08 2025 09:26:09 GMT-0500 (Central Daylight Time),515557.6000000015,173_y_f_n_a.png,I,z,721,11,2,1739.6000000014901,513818.0,8012,NNB,B,9
10,test,3,1.0,2-Back,1,z,Thu May 08 2025 09:26:09 GMT-0500 (Central Daylight Time),517407.1000000015,126_m_m_n_a.png,I,z,828,12,2,1838.5,515568.6000000015,8012,NNB,B,10
11,test,3,0.0,2-Back,1,m,Thu May 08 2025 09:26:09 GMT-0500 (Central Daylight Time),519006.5,110_o_f_n_a.png,I,m,578,13,2,1589.2999999970198,517417.200000003,8012,NNB,B,11
12,test,3,0.0,2-Back,1,m,Thu May 08 2025 09:26:09 GMT-0500 (Central Daylight Time),520639.5,097_m_f_n_a.png,I,m,604,14,2,1622.1000000014901,519017.3999999985,8012,NNB,B,12
13,test,3,0.0,2-Back,1,m,Thu May 08 2025 09:26:09 GMT-0500 (Central Daylight Time),522422.3999999985,065_o_m_n_a.png,I,m,755,15,2,1769.7999999970198,520652.6000000015,8012,NNB,B,13
14,test,3,1.0,2-Back,1,z,Thu May 08 2025 09:26:09 GMT-0500 (Central Daylight Time),523988.299999997,097_m_f_n_a.png,I,z,548,16,2,1552.0,522436.299999997,8012,NNB,B,14
15,test,3,0.0,2-Back,1,m,Thu May 08 2025 09:26:09 GMT-0500 (Central Daylight Time),525821.200000003,086_o_f_n_a.png,I,m,805,17,2,1820.9000000059605,524000.299999997,8012,NNB,B,15
16,test,3,0.0,2-Back,1,m,Thu May 08 2025 09:26:09 GMT-0500 (Central Daylight Time),527670.3999999985,086_o_f_n_a.png,I,m,828,18,2,1837.6000000014901,525832.799999997,8012,NNB,B,16
0,test,4,0.0,2-Back,,,Thu May 08 2025 09:26:09 GMT-0500 (Central Daylight Time),527670.3999999985,176_o_m_n_a.png,I,space,2612,1,2,1837.6000000014901,525832.799999997,8012,NNB,B,0
0,test,4,0.0,2-Back,,,Thu May 08 2025 09:26:09 GMT-0500 (Central Daylight Time),527670.3999999985,152_y_f_n_a.png,I,space,2612,2,2,1837.6000000014901,525832.799999997,8012,NNB,B,0
1,test,4,1.0,2-Back,1,z,Thu May 08 2025 09:26:09 GMT-0500 (Central Daylight Time),537467.700000003,176_o_m_n_a.png,I,z,907,3,2,1920.8000000044703,535546.8999999985,8012,NNB,B,1
2,test,4,1.0,2-Back,1,z,Thu May 08 2025 09:26:09 GMT-0500 (Central Daylight Time),539300.3999999985,152_y_f_n_a.png,I,z,815,4,2,1820.0,537480.3999999985,8012,NNB,B,2
3,test,4,0.0,2-Back,1,m,Thu May 08 2025 09:26:09 GMT-0500 (Central Daylight Time),540933.0,110_o_f_n_a.png,I,m,613,5,2,1622.6000000014901,539310.3999999985,8012,NNB,B,3
4,test,4,0.0,2-Back,1,m,Thu May 08 2025 09:26:09 GMT-0500 (Central Daylight Time),542682.700000003,110_o_f_n_a.png,I,m,732,6,2,1740.0,540942.700000003,8012,NNB,B,4
5,test,4,0.0,2-Back,1,m,Thu May 08 2025 09:26:09 GMT-0500 (Central Daylight Time),544415.3999999985,029_m_f_n_a.png,I,m,712,7,2,1723.1000000014901,542692.299999997,8012,NNB,B,5
6,test,4,0.0,2-Back,1,m,Thu May 08 2025 09:26:09 GMT-0500 (Central Daylight Time),546098.3999999985,013_y_m_n_a.png,I,m,650,8,2,1671.8999999985099,544426.5,8012,NNB,B,6
7,test,4,1.0,2-Back,1,z,Thu May 08 2025 09:26:09 GMT-0500 (Central Daylight Time),547680.8999999985,029_m_f_n_a.png,I,z,559,9,2,1570.8999999985099,546110.0,8012,NNB,B,7
8,test,4,0.0,2-Back,1,m,Thu May 08 2025 09:26:09 GMT-0500 (Central Daylight Time),549330.799999997,126_m_m_n_a.png,I,m,633,10,2,1638.5999999940395,547692.200000003,8012,NNB,B,8
9,test,4,0.0,2-Back,1,m,Thu May 08 2025 09:26:09 GMT-0500 (Central Daylight Time),551129.8999999985,013_y_m_n_a.png,I,m,775,11,2,1787.1000000014901,549342.799999997,8012,NNB,B,9
10,test,4,0.0,2-Back,1,m,Thu May 08 2025 09:26:09 GMT-0500 (Central Daylight Time),552812.799999997,086_o_f_n_a.png,I,m,655,12,2,1671.8999999985099,551140.8999999985,8012,NNB,B,10
11,test,4,0.0,2-Back,1,m,Thu May 08 2025 09:26:09 GMT-0500 (Central Daylight Time),554578.799999997,153_y_m_n_a.png,I,m,734,13,2,1751.6999999955297,552827.1000000015,8012,NNB,B,11
12,test,4,1.0,2-Back,1,z,Thu May 08 2025 09:26:09 GMT-0500 (Central Daylight Time),556211.6000000015,086_o_f_n_a.png,I,z,615,14,2,1621.0,554590.6000000015,8012,NNB,B,12
13,test,4,1.0,2-Back,1,z,Thu May 08 2025 09:26:09 GMT-0500 (Central Daylight Time),558044.299999997,153_y_m_n_a.png,I,z,815,15,2,1820.8999999985099,556223.3999999985,8012,NNB,B,13
14,test,4,0.0,2-Back,1,m,Thu May 08 2025 09:26:09 GMT-0500 (Central Daylight Time),559777.200000003,178_m_m_n_a.png,I,m,701,16,2,1722.9000000059605,558054.299999997,8012,NNB,B,14
15,test,4,0.0,2-Back,1,m,Thu May 08 2025 09:26:09 GMT-0500 (Central Daylight Time),561659.8999999985,097_m_f_n_a.png,I,m,856,17,2,1868.6999999955297,559791.200000003,8012,NNB,B,15
16,test,4,1.0,2-Back,1,z,Thu May 08 2025 09:26:09 GMT-0500 (Central Daylight Time),563342.799999997,178_m_m_n_a.png,I,z,653,18,2,1671.8999999985099,561670.8999999985,8012,NNB,B,16
0,test,5,1.0,2-Back,,,Thu May 08 2025 09:26:09 GMT-0500 (Central Daylight Time),563342.799999997,153_y_m_n_a.png,I,space,1684,1,2,1671.8999999985099,561670.8999999985,8012,NNB,B,0
0,test,5,1.0,2-Back,,,Thu May 08 2025 09:26:09 GMT-0500 (Central Daylight Time),563342.799999997,097_m_f_n_a.png,I,space,1684,2,2,1671.8999999985099,561670.8999999985,8012,NNB,B,0
1,test,5,1.0,2-Back,1,z,Thu May 08 2025 09:26:09 GMT-0500 (Central Daylight Time),572023.3999999985,153_y_m_n_a.png,I,z,904,3,2,1921.8999999985099,570101.5,8012,NNB,B,1
2,test,5,1.0,2-Back,1,z,Thu May 08 2025 09:26:09 GMT-0500 (Central Daylight Time),573706.200000003,097_m_f_n_a.png,I,z,650,4,2,1672.6000000014901,572033.6000000015,8012,NNB,B,2
3,test,5,0.0,2-Back,1,m,Thu May 08 2025 09:26:09 GMT-0500 (Central Daylight Time),575322.299999997,086_o_f_n_a.png,I,m,591,5,2,1604.7999999970198,573717.5,8012,NNB,B,3
4,test,5,0.0,2-Back,1,m,Thu May 08 2025 09:26:09 GMT-0500 (Central Daylight Time),577138.6000000015,153_y_m_n_a.png,I,m,784,6,2,1804.1000000014901,575334.5,8012,NNB,B,4
5,test,5,0.0,2-Back,1,m,Thu May 08 2025 09:26:09 GMT-0500 (Central Daylight Time),578838.0,173_y_f_n_a.png,I,m,680,7,2,1688.7000000029802,577149.299999997,8012,NNB,B,5
6,test,5,0.0,2-Back,1,m,Thu May 08 2025 09:26:09 GMT-0500 (Central Daylight Time),580837.299999997,086_o_f_n_a.png,I,m,980,8,2,1986.5999999940395,578850.700000003,8012,NNB,B,6
6,test,5,1.0,2-Back,0,z,Thu May 08 2025 09:26:09 GMT-0500 (Central Daylight Time),582986.700000003,173_y_f_n_a.png,I,m,1125,9,2,2138.4000000059605,580848.299999997,8012,NNB,B,7
7,test,5,0.0,2-Back,1,m,Thu May 08 2025 09:26:09 GMT-0500 (Central Daylight Time),585102.5,065_o_m_n_a.png,I,m,1095,10,2,2105.7000000029802,582996.799999997,8012,NNB,B,8
8,test,5,0.0,2-Back,1,m,Thu May 08 2025 09:26:09 GMT-0500 (Central Daylight Time),586818.799999997,029_m_f_n_a.png,I,m,692,11,2,1703.7999999970198,585115.0,8012,NNB,B,9
9,test,5,0.0,2-Back,1,m,Thu May 08 2025 09:26:09 GMT-0500 (Central Daylight Time),588501.3999999985,126_m_m_n_a.png,I,m,663,12,2,1670.5,586830.8999999985,8012,NNB,B,10
10,test,5,0.0,2-Back,1,m,Thu May 08 2025 09:26:09 GMT-0500 (Central Daylight Time),590167.6000000015,065_o_m_n_a.png,I,m,643,13,2,1654.2000000029802,588513.3999999985,8012,NNB,B,11
11,test,5,1.0,2-Back,1,z,Thu May 08 2025 09:26:09 GMT-0500 (Central Daylight Time),591867.3999999985,126_m_m_n_a.png,I,z,667,14,2,1686.7999999970198,590180.6000000015,8012,NNB,B,12
12,test,5,0.0,2-Back,1,m,Thu May 08 2025 09:26:09 GMT-0500 (Central Daylight Time),593733.200000003,152_y_f_n_a.png,I,m,839,15,2,1855.7000000029802,591877.5,8012,NNB,B,13
13,test,5,0.0,2-Back,1,m,Thu May 08 2025 09:26:09 GMT-0500 (Central Daylight Time),595499.299999997,176_o_m_n_a.png,I,m,749,16,2,1754.8999999985099,593744.3999999985,8012,NNB,B,14
14,test,5,0.0,2-Back,1,m,Thu May 08 2025 09:26:09 GMT-0500 (Central Daylight Time),597198.700000003,029_m_f_n_a.png,I,m,679,17,2,1687.2000000029802,595511.5,8012,NNB,B,15
15,test,5,1.0,2-Back,1,z,Thu May 08 2025 09:26:09 GMT-0500 (Central Daylight Time),598848.299999997,176_o_m_n_a.png,I,z,627,18,2,1638.5999999940395,597209.700000003,8012,NNB,B,16
