acc_sum,block,block_c,change,condition,correct,correct_response,datetime,endtime,face,project,response,response_time,row_sel,session_number,start_end,starttime,subject_id,task,task_vers,trial
0,prac,1,,1-Back,,,Thu Aug 21 2025 09:26:24 GMT-0500 (Central Daylight Time),,012_o_f_d_a.png,O,space,2873,1,1,,,7204,VNB,C,0
0,prac,1,0.0,1-Back,0,m,Thu Aug 21 2025 09:26:24 GMT-0500 (Central Daylight Time),165807.0,022_y_f_n_a.png,O,None,2014,2,1,2869.2999999523163,162937.70000004768,7204,VNB,C,1
1,prac,1,0.0,1-Back,1,m,Thu Aug 21 2025 09:26:24 GMT-0500 (Central Daylight Time),168472.89999997616,014_m_m_h_a.png,O,m,1803,3,1,2656.399999976158,165816.5,7204,VNB,C,2
2,prac,1,0.0,1-Back,1,m,Thu Aug 21 2025 09:26:24 GMT-0500 (Central Daylight Time),170806.20000004768,025_y_m_d_a.png,O,m,1483,4,1,2322.0,168484.20000004768,7204,VNB,C,3
2,prac,1,0.0,1-Back,0,m,Thu Aug 21 2025 09:26:24 GMT-0500 (Central Daylight Time),172856.0,012_o_f_n_a.png,O,z,1191,5,1,2039.2000000476837,170816.79999995232,7204,VNB,C,4
3,prac,1,1.0,1-Back,1,z,Thu Aug 21 2025 09:26:24 GMT-0500 (Central Daylight Time),174891.10000002384,025_y_m_n_a.png,O,z,1180,6,1,2023.3999999761581,172867.70000004768,7204,VNB,C,5
4,prac,1,0.0,1-Back,1,m,Thu Aug 21 2025 09:26:24 GMT-0500 (Central Daylight Time),176654.5,015_o_m_h_a.png,O,m,880,7,1,1757.6000000238419,174896.89999997616,7204,VNB,C,6
5,prac,1,0.0,1-Back,1,m,Thu Aug 21 2025 09:26:24 GMT-0500 (Central Daylight Time),178487.60000002384,019_m_f_d_a.png,O,m,947,8,1,1820.3999999761581,176667.20000004768,7204,VNB,C,7
6,prac,1,1.0,1-Back,1,z,Thu Aug 21 2025 09:26:24 GMT-0500 (Central Daylight Time),180354.29999995232,022_y_f_d_a.png,O,z,1010,9,1,1856.7999999523163,178497.5,7204,VNB,C,8
7,prac,1,0.0,1-Back,1,m,Thu Aug 21 2025 09:26:24 GMT-0500 (Central Daylight Time),182404.0,014_m_m_n_a.png,O,m,1180,10,1,2038.2999999523163,180365.70000004768,7204,VNB,C,9
8,prac,1,0.0,1-Back,1,m,Thu Aug 21 2025 09:26:24 GMT-0500 (Central Daylight Time),184468.5,012_o_f_h_a.png,O,m,1188,11,1,2054.7000000476837,182413.79999995232,7204,VNB,C,10
9,prac,1,0.0,1-Back,1,m,Thu Aug 21 2025 09:26:24 GMT-0500 (Central Daylight Time),186085.60000002384,025_y_m_d_a.png,O,m,762,12,1,1608.3999999761581,184477.20000004768,7204,VNB,C,11
0,test,1,0.0,1-Back,,,Thu Aug 21 2025 09:26:24 GMT-0500 (Central Daylight Time),186085.60000002384,022_y_f_d_a.png,O,space,7683,1,1,1608.3999999761581,184477.20000004768,7204,VNB,C,0
1,test,1,0.0,1-Back,1,m,Thu Aug 21 2025 09:26:24 GMT-0500 (Central Daylight Time),204027.29999995232,019_m_f_n_a.png,O,m,1013,2,1,2029.7999999523163,201997.5,7204,VNB,C,1
2,test,1,0.0,1-Back,1,m,Thu Aug 21 2025 09:26:24 GMT-0500 (Central Daylight Time),206377.5,015_o_m_h_a.png,O,m,1317,3,1,2347.600000023842,204029.89999997616,7204,VNB,C,2
3,test,1,1.0,1-Back,1,z,Thu Aug 21 2025 09:26:24 GMT-0500 (Central Daylight Time),209127.70000004768,014_m_m_h_a.png,O,z,1731,4,1,2747.0,206380.70000004768,7204,VNB,C,3
4,test,1,0.0,1-Back,1,m,Thu Aug 21 2025 09:26:24 GMT-0500 (Central Daylight Time),211459.79999995232,012_o_f_n_a.png,O,m,1310,5,1,2326.7999999523163,209133.0,7204,VNB,C,4
5,test,1,0.0,1-Back,1,m,Thu Aug 21 2025 09:26:24 GMT-0500 (Central Daylight Time),213575.60000002384,025_y_m_d_a.png,O,m,1087,6,1,2107.100000023842,211468.5,7204,VNB,C,5
6,test,1,1.0,1-Back,1,z,Thu Aug 21 2025 09:26:24 GMT-0500 (Central Daylight Time),215575.10000002384,019_m_f_d_a.png,O,z,971,7,1,1984.8999999761581,213590.20000004768,7204,VNB,C,6
7,test,1,0.0,1-Back,1,m,Thu Aug 21 2025 09:26:24 GMT-0500 (Central Daylight Time),217574.5,022_y_f_h_a.png,O,m,972,8,1,1990.3999999761581,215584.10000002384,7204,VNB,C,7
7,test,1,0.0,1-Back,0,m,Thu Aug 21 2025 09:26:24 GMT-0500 (Central Daylight Time),219525.29999995232,015_o_m_n_a.png,O,z,934,9,1,1944.0,217581.29999995232,7204,VNB,C,8
8,test,1,0.0,1-Back,1,m,Thu Aug 21 2025 09:26:24 GMT-0500 (Central Daylight Time),222289.39999997616,025_y_m_h_a.png,O,m,1744,10,1,2758.600000023842,219530.79999995232,7204,VNB,C,9
9,test,1,0.0,1-Back,1,m,Thu Aug 21 2025 09:26:24 GMT-0500 (Central Daylight Time),224238.60000002384,015_o_m_d_a.png,O,m,922,11,1,1942.3999999761581,222296.20000004768,7204,VNB,C,10
10,test,1,1.0,1-Back,1,z,Thu Aug 21 2025 09:26:24 GMT-0500 (Central Daylight Time),226139.0,012_o_f_d_a.png,O,z,868,12,1,1891.1000000238419,224247.89999997616,7204,VNB,C,11
11,test,1,0.0,1-Back,1,m,Thu Aug 21 2025 09:26:24 GMT-0500 (Central Daylight Time),228322.0,014_m_m_n_a.png,O,m,1162,13,1,2171.600000023842,226150.39999997616,7204,VNB,C,12
12,test,1,1.0,1-Back,1,z,Thu Aug 21 2025 09:26:24 GMT-0500 (Central Daylight Time),230620.89999997616,022_y_f_n_a.png,O,z,1264,14,1,2290.100000023842,228330.79999995232,7204,VNB,C,13
13,test,1,0.0,1-Back,1,m,Thu Aug 21 2025 09:26:24 GMT-0500 (Central Daylight Time),232501.5,019_m_f_h_a.png,O,m,852,15,1,1874.2000000476837,230627.29999995232,7204,VNB,C,14
14,test,1,0.0,1-Back,1,m,Thu Aug 21 2025 09:26:24 GMT-0500 (Central Daylight Time),234368.89999997616,014_m_m_d_a.png,O,m,844,16,1,1864.3999999761581,232504.5,7204,VNB,C,15
15,test,1,0.0,1-Back,1,m,Thu Aug 21 2025 09:26:24 GMT-0500 (Central Daylight Time),236452.20000004768,025_y_m_n_a.png,O,m,1059,17,1,2074.4000000953674,234377.79999995232,7204,VNB,C,16
16,test,1,0.0,1-Back,1,m,Thu Aug 21 2025 09:26:24 GMT-0500 (Central Daylight Time),239068.10000002384,012_o_f_h_a.png,O,m,1592,18,1,2606.2000000476837,236461.89999997616,7204,VNB,C,17
0,test,2,0.0,1-Back,,,Thu Aug 21 2025 09:26:24 GMT-0500 (Central Daylight Time),239068.10000002384,025_y_m_n_a.png,O,space,1936,1,1,2606.2000000476837,236461.89999997616,7204,VNB,C,0
1,test,2,0.0,1-Back,1,m,Thu Aug 21 2025 09:26:24 GMT-0500 (Central Daylight Time),244899.0,022_y_f_h_a.png,O,m,841,2,1,1855.2000000476837,243043.79999995232,7204,VNB,C,1
2,test,2,1.0,1-Back,1,m,Thu Aug 21 2025 09:26:24 GMT-0500 (Central Daylight Time),247682.0,015_o_m_n_a.png,O,m,1753,3,1,2774.7000000476837,244907.29999995232,7204,VNB,C,2
3,test,2,0.0,1-Back,1,m,Thu Aug 21 2025 09:26:24 GMT-0500 (Central Daylight Time),249598.20000004768,019_m_f_d_a.png,O,m,885,4,1,1906.0,247692.20000004768,7204,VNB,C,3
4,test,2,0.0,1-Back,1,z,Thu Aug 21 2025 09:26:24 GMT-0500 (Central Daylight Time),251596.10000002384,014_m_m_d_a.png,O,z,972,5,1,1989.8999999761581,249606.20000004768,7204,VNB,C,4
5,test,2,0.0,1-Back,1,m,Thu Aug 21 2025 09:26:24 GMT-0500 (Central Daylight Time),253446.29999995232,025_y_m_h_a.png,O,m,824,6,1,1843.0,251603.29999995232,7204,VNB,C,5
6,test,2,1.0,1-Back,1,z,Thu Aug 21 2025 09:26:24 GMT-0500 (Central Daylight Time),255362.10000002384,012_o_f_h_a.png,O,z,893,7,1,1906.6000000238419,253455.5,7204,VNB,C,6
7,test,2,0.0,1-Back,1,m,Thu Aug 21 2025 09:26:24 GMT-0500 (Central Daylight Time),257111.20000004768,019_m_f_n_a.png,O,m,729,8,1,1739.1000000238419,255372.10000002384,7204,VNB,C,7
8,test,2,0.0,1-Back,1,m,Thu Aug 21 2025 09:26:24 GMT-0500 (Central Daylight Time),259745.39999997616,022_y_f_d_a.png,O,m,1606,9,1,2627.100000023842,257118.29999995232,7204,VNB,C,8
9,test,2,0.0,1-Back,1,m,Thu Aug 21 2025 09:26:24 GMT-0500 (Central Daylight Time),261860.5,014_m_m_n_a.png,O,m,1082,10,1,2106.600000023842,259753.89999997616,7204,VNB,C,9
10,test,2,1.0,1-Back,1,m,Thu Aug 21 2025 09:26:24 GMT-0500 (Central Daylight Time),263593.5,019_m_f_h_a.png,O,m,704,11,1,1727.1000000238419,261866.39999997616,7204,VNB,C,10
11,test,2,0.0,1-Back,1,z,Thu Aug 21 2025 09:26:24 GMT-0500 (Central Daylight Time),265424.89999997616,015_o_m_h_a.png,O,z,812,12,1,1823.0,263601.89999997616,7204,VNB,C,11
12,test,2,0.0,1-Back,1,m,Thu Aug 21 2025 09:26:24 GMT-0500 (Central Daylight Time),267942.0,025_y_m_d_a.png,O,m,1491,13,1,2510.0,265432.0,7204,VNB,C,12
13,test,2,0.0,1-Back,1,m,Thu Aug 21 2025 09:26:24 GMT-0500 (Central Daylight Time),270257.89999997616,012_o_f_n_a.png,O,m,1286,14,1,2305.100000023842,267952.7999999523,7204,VNB,C,13
14,test,2,0.0,1-Back,1,z,Thu Aug 21 2025 09:26:24 GMT-0500 (Central Daylight Time),271972.60000002384,022_y_f_n_a.png,O,z,683,15,1,1706.6000000238419,270266.0,7204,VNB,C,14
15,test,2,1.0,1-Back,1,m,Thu Aug 21 2025 09:26:24 GMT-0500 (Central Daylight Time),273838.89999997616,014_m_m_h_a.png,O,m,846,16,1,1860.2999999523163,271978.60000002384,7204,VNB,C,15
16,test,2,0.0,1-Back,1,m,Thu Aug 21 2025 09:26:24 GMT-0500 (Central Daylight Time),276238.5,012_o_f_d_a.png,O,m,1367,17,1,2391.7000000476837,273846.7999999523,7204,VNB,C,16
17,test,2,1.0,1-Back,1,z,Thu Aug 21 2025 09:26:24 GMT-0500 (Central Daylight Time),278038.10000002384,015_o_m_d_a.png,O,z,768,18,1,1792.1000000238419,276246.0,7204,VNB,C,17
0,test,3,1.0,1-Back,,,Thu Aug 21 2025 09:26:24 GMT-0500 (Central Daylight Time),278038.10000002384,012_o_f_h_a.png,O,space,1469,1,1,1792.1000000238419,276246.0,7204,VNB,C,0
1,test,3,0.0,1-Back,1,m,Thu Aug 21 2025 09:26:24 GMT-0500 (Central Daylight Time),284053.5,019_m_f_d_a.png,O,m,1401,2,1,2425.2999999523163,281628.2000000477,7204,VNB,C,1
2,test,3,1.0,1-Back,1,m,Thu Aug 21 2025 09:26:24 GMT-0500 (Central Daylight Time),286535.89999997616,014_m_m_n_a.png,O,m,1456,3,1,2473.6999999284744,284062.2000000477,7204,VNB,C,2
3,test,3,0.0,1-Back,1,z,Thu Aug 21 2025 09:26:24 GMT-0500 (Central Daylight Time),288084.5,012_o_f_n_a.png,O,z,524,4,1,1540.5,286544.0,7204,VNB,C,3
4,test,3,1.0,1-Back,1,m,Thu Aug 21 2025 09:26:24 GMT-0500 (Central Daylight Time),289784.10000002384,015_o_m_d_a.png,O,m,670,5,1,1691.6000000238419,288092.5,7204,VNB,C,4
5,test,3,0.0,1-Back,1,m,Thu Aug 21 2025 09:26:24 GMT-0500 (Central Daylight Time),291800.0,022_y_f_h_a.png,O,m,987,6,1,2005.5,289794.5,7204,VNB,C,5
6,test,3,0.0,1-Back,1,z,Thu Aug 21 2025 09:26:24 GMT-0500 (Central Daylight Time),293349.39999997616,025_y_m_h_a.png,O,z,518,7,1,1537.2999999523163,291812.10000002384,7204,VNB,C,6
7,test,3,0.0,1-Back,1,m,Thu Aug 21 2025 09:26:24 GMT-0500 (Central Daylight Time),295183.10000002384,019_m_f_n_a.png,O,m,816,8,1,1825.0,293358.10000002384,7204,VNB,C,7
8,test,3,0.0,1-Back,1,m,Thu Aug 21 2025 09:26:24 GMT-0500 (Central Daylight Time),297314.89999997616,022_y_f_d_a.png,O,m,1099,9,1,2125.5,295189.39999997616,7204,VNB,C,8
9,test,3,1.0,1-Back,1,m,Thu Aug 21 2025 09:26:24 GMT-0500 (Central Daylight Time),299264.89999997616,015_o_m_n_a.png,O,m,927,10,1,1945.3999999761581,297319.5,7204,VNB,C,9
10,test,3,0.0,1-Back,1,m,Thu Aug 21 2025 09:26:24 GMT-0500 (Central Daylight Time),301165.2000000477,014_m_m_h_a.png,O,m,867,11,1,1890.9000000953674,299274.2999999523,7204,VNB,C,10
11,test,3,0.0,1-Back,1,z,Thu Aug 21 2025 09:26:24 GMT-0500 (Central Daylight Time),302613.7000000477,019_m_f_h_a.png,O,z,422,12,1,1440.5,301173.2000000477,7204,VNB,C,11
12,test,3,1.0,1-Back,1,m,Thu Aug 21 2025 09:26:24 GMT-0500 (Central Daylight Time),304380.2999999523,012_o_f_d_a.png,O,m,744,13,1,1757.7999999523163,302622.5,7204,VNB,C,12
13,test,3,0.0,1-Back,1,z,Thu Aug 21 2025 09:26:24 GMT-0500 (Central Daylight Time),306613.2999999523,014_m_m_d_a.png,O,z,1201,14,1,2224.2999999523163,304389.0,7204,VNB,C,13
14,test,3,0.0,1-Back,1,m,Thu Aug 21 2025 09:26:24 GMT-0500 (Central Daylight Time),308845.89999997616,025_y_m_n_a.png,O,m,1206,15,1,2220.600000023842,306625.2999999523,7204,VNB,C,14
15,test,3,1.0,1-Back,1,m,Thu Aug 21 2025 09:26:24 GMT-0500 (Central Daylight Time),310594.39999997616,015_o_m_h_a.png,O,m,717,16,1,1740.1000000238419,308854.2999999523,7204,VNB,C,15
16,test,3,0.0,1-Back,1,m,Thu Aug 21 2025 09:26:24 GMT-0500 (Central Daylight Time),312577.10000002384,025_y_m_d_a.png,O,m,963,17,1,1973.7000000476837,310603.39999997616,7204,VNB,C,16
17,test,3,1.0,1-Back,1,m,Thu Aug 21 2025 09:26:24 GMT-0500 (Central Daylight Time),314460.2999999523,022_y_f_n_a.png,O,m,859,18,1,1872.5999999046326,312587.7000000477,7204,VNB,C,17
0,test,4,1.0,1-Back,,,Thu Aug 21 2025 09:26:24 GMT-0500 (Central Daylight Time),314460.2999999523,014_m_m_d_a.png,O,space,1399,1,1,1872.5999999046326,312587.7000000477,7204,VNB,C,0
1,test,4,0.0,1-Back,1,z,Thu Aug 21 2025 09:26:24 GMT-0500 (Central Daylight Time),319875.2999999523,015_o_m_d_a.png,O,z,958,2,1,1976.3999999761581,317898.89999997616,7204,VNB,C,1
2,test,4,0.0,1-Back,1,m,Thu Aug 21 2025 09:26:24 GMT-0500 (Central Daylight Time),322058.7000000477,025_y_m_h_a.png,O,m,1161,3,1,2174.8000000715256,319883.89999997616,7204,VNB,C,2
3,test,4,0.0,1-Back,1,m,Thu Aug 21 2025 09:26:24 GMT-0500 (Central Daylight Time),324256.60000002384,019_m_f_n_a.png,O,m,1178,4,1,2189.600000023842,322067.0,7204,VNB,C,3
4,test,4,1.0,1-Back,1,m,Thu Aug 21 2025 09:26:24 GMT-0500 (Central Daylight Time),326073.5,012_o_f_h_a.png,O,m,796,5,1,1809.5,324264.0,7204,VNB,C,4
5,test,4,0.0,1-Back,1,m,Thu Aug 21 2025 09:26:24 GMT-0500 (Central Daylight Time),327758.2000000477,014_m_m_n_a.png,O,m,668,6,1,1677.7000000476837,326080.5,7204,VNB,C,5
6,test,4,0.0,1-Back,1,m,Thu Aug 21 2025 09:26:24 GMT-0500 (Central Daylight Time),330006.0,025_y_m_d_a.png,O,m,1233,7,1,2240.399999976158,327765.60000002384,7204,VNB,C,6
7,test,4,1.0,1-Back,1,z,Thu Aug 21 2025 09:26:24 GMT-0500 (Central Daylight Time),331771.2999999523,022_y_f_d_a.png,O,z,741,8,1,1758.5999999046326,330012.7000000477,7204,VNB,C,7
8,test,4,0.0,1-Back,1,m,Thu Aug 21 2025 09:26:24 GMT-0500 (Central Daylight Time),333671.0,019_m_f_h_a.png,O,m,869,9,1,1891.1000000238419,331779.89999997616,7204,VNB,C,8
9,test,4,0.0,1-Back,1,z,Thu Aug 21 2025 09:26:24 GMT-0500 (Central Daylight Time),335287.5,015_o_m_h_a.png,O,z,599,10,1,1607.2999999523163,333680.2000000477,7204,VNB,C,9
10,test,4,1.0,1-Back,1,m,Thu Aug 21 2025 09:26:24 GMT-0500 (Central Daylight Time),337037.89999997616,012_o_f_n_a.png,O,m,733,11,1,1741.1000000238419,335296.7999999523,7204,VNB,C,10
11,test,4,0.0,1-Back,1,m,Thu Aug 21 2025 09:26:24 GMT-0500 (Central Daylight Time),339021.2999999523,019_m_f_d_a.png,O,m,950,12,1,1978.0999999046326,337043.2000000477,7204,VNB,C,11
12,test,4,0.0,1-Back,1,m,Thu Aug 21 2025 09:26:24 GMT-0500 (Central Daylight Time),341103.10000002384,022_y_f_n_a.png,O,m,1065,13,1,2072.899999976158,339030.2000000477,7204,VNB,C,12
13,test,4,0.0,1-Back,1,m,Thu Aug 21 2025 09:26:24 GMT-0500 (Central Daylight Time),342834.39999997616,012_o_f_d_a.png,O,m,711,14,1,1722.1999999284744,341112.2000000477,7204,VNB,C,13
14,test,4,0.0,1-Back,1,m,Thu Aug 21 2025 09:26:24 GMT-0500 (Central Daylight Time),345034.89999997616,022_y_f_h_a.png,O,m,1169,15,1,2193.0,342841.89999997616,7204,VNB,C,14
15,test,4,1.0,1-Back,1,z,Thu Aug 21 2025 09:26:24 GMT-0500 (Central Daylight Time),346633.10000002384,014_m_m_h_a.png,O,z,578,16,1,1590.2000000476837,345042.89999997616,7204,VNB,C,15
16,test,4,0.0,1-Back,1,m,Thu Aug 21 2025 09:26:24 GMT-0500 (Central Daylight Time),348365.7000000477,015_o_m_n_a.png,O,m,705,17,1,1722.6000000238419,346643.10000002384,7204,VNB,C,16
17,test,4,1.0,1-Back,1,z,Thu Aug 21 2025 09:26:24 GMT-0500 (Central Daylight Time),349865.60000002384,025_y_m_n_a.png,O,z,478,18,1,1490.2000000476837,348375.39999997616,7204,VNB,C,17
0,test,5,1.0,1-Back,,,Thu Aug 21 2025 09:26:24 GMT-0500 (Central Daylight Time),349865.60000002384,015_o_m_n_a.png,O,space,1491,1,1,1490.2000000476837,348375.39999997616,7204,VNB,C,0
1,test,5,1.0,1-Back,1,m,Thu Aug 21 2025 09:26:24 GMT-0500 (Central Daylight Time),354999.7999999523,012_o_f_h_a.png,O,m,599,2,1,1612.1999999284744,353387.60000002384,7204,VNB,C,1
2,test,5,0.0,1-Back,1,m,Thu Aug 21 2025 09:26:24 GMT-0500 (Central Daylight Time),357030.2999999523,025_y_m_d_a.png,O,m,998,3,1,2022.5,355007.7999999523,7204,VNB,C,2
3,test,5,0.0,1-Back,1,z,Thu Aug 21 2025 09:26:24 GMT-0500 (Central Daylight Time),358645.89999997616,015_o_m_d_a.png,O,z,589,4,1,1605.2999999523163,357040.60000002384,7204,VNB,C,3
4,test,5,0.0,1-Back,1,m,Thu Aug 21 2025 09:26:24 GMT-0500 (Central Daylight Time),360379.2999999523,019_m_f_h_a.png,O,m,700,5,1,1728.5999999046326,358650.7000000477,7204,VNB,C,4
5,test,5,0.0,1-Back,1,m,Thu Aug 21 2025 09:26:24 GMT-0500 (Central Daylight Time),361945.89999997616,022_y_f_n_a.png,O,m,547,6,1,1559.1000000238419,360386.7999999523,7204,VNB,C,5
6,test,5,1.0,1-Back,1,z,Thu Aug 21 2025 09:26:24 GMT-0500 (Central Daylight Time),363594.2000000477,012_o_f_n_a.png,O,z,618,7,1,1639.8000000715256,361954.39999997616,7204,VNB,C,6
7,test,5,0.0,1-Back,1,m,Thu Aug 21 2025 09:26:24 GMT-0500 (Central Daylight Time),365393.5,019_m_f_d_a.png,O,m,778,8,1,1790.3999999761581,363603.10000002384,7204,VNB,C,7
8,test,5,0.0,1-Back,1,m,Thu Aug 21 2025 09:26:24 GMT-0500 (Central Daylight Time),367592.39999997616,025_y_m_h_a.png,O,m,1171,9,1,2188.1999999284744,365404.2000000477,7204,VNB,C,8
9,test,5,0.0,1-Back,1,m,Thu Aug 21 2025 09:26:24 GMT-0500 (Central Daylight Time),369327.60000002384,022_y_f_d_a.png,O,m,705,10,1,1728.8999999761581,367598.7000000477,7204,VNB,C,9
10,test,5,0.0,1-Back,1,m,Thu Aug 21 2025 09:26:24 GMT-0500 (Central Daylight Time),371176.7000000477,014_m_m_n_a.png,O,m,822,11,1,1843.7000000476837,369333.0,7204,VNB,C,10
11,test,5,1.0,1-Back,1,z,Thu Aug 21 2025 09:26:24 GMT-0500 (Central Daylight Time),372692.0,019_m_f_n_a.png,O,z,494,12,1,1506.7999999523163,371185.2000000477,7204,VNB,C,11
12,test,5,0.0,1-Back,1,m,Thu Aug 21 2025 09:26:24 GMT-0500 (Central Daylight Time),374574.7999999523,015_o_m_h_a.png,O,m,850,13,1,1875.0999999046326,372699.7000000477,7204,VNB,C,12
13,test,5,0.0,1-Back,1,z,Thu Aug 21 2025 09:26:24 GMT-0500 (Central Daylight Time),376623.2000000477,014_m_m_h_a.png,O,z,1023,14,1,2040.8000000715256,374582.39999997616,7204,VNB,C,13
14,test,5,1.0,1-Back,1,m,Thu Aug 21 2025 09:26:24 GMT-0500 (Central Daylight Time),378490.7999999523,012_o_f_d_a.png,O,m,842,15,1,1859.5,376631.2999999523,7204,VNB,C,14
15,test,5,0.0,1-Back,1,m,Thu Aug 21 2025 09:26:24 GMT-0500 (Central Daylight Time),380305.5,025_y_m_n_a.png,O,m,792,16,1,1807.0,378498.5,7204,VNB,C,15
16,test,5,0.0,1-Back,1,m,Thu Aug 21 2025 09:26:24 GMT-0500 (Central Daylight Time),381904.2000000477,022_y_f_h_a.png,O,m,575,17,1,1593.2000000476837,380311.0,7204,VNB,C,16
17,test,5,0.0,1-Back,1,m,Thu Aug 21 2025 09:26:24 GMT-0500 (Central Daylight Time),383587.89999997616,014_m_m_d_a.png,O,m,651,18,1,1677.0,381910.89999997616,7204,VNB,C,17
0,prac,1,0.0,2-Back,,,Thu Aug 21 2025 09:26:24 GMT-0500 (Central Daylight Time),383587.89999997616,019_m_f_n_a.png,O,space,5234,1,1,1677.0,381910.89999997616,7204,VNB,C,0
0,prac,1,0.0,2-Back,,,Thu Aug 21 2025 09:26:24 GMT-0500 (Central Daylight Time),383587.89999997616,012_o_f_h_a.png,O,space,5234,2,1,1677.0,381910.89999997616,7204,VNB,C,0
1,prac,1,0.0,2-Back,1,m,Thu Aug 21 2025 09:26:24 GMT-0500 (Central Daylight Time),492838.10000002384,015_o_m_d_a.png,O,m,1249,3,1,2106.100000023842,490732.0,7204,VNB,C,1
2,prac,1,1.0,2-Back,1,z,Thu Aug 21 2025 09:26:24 GMT-0500 (Central Daylight Time),495653.89999997616,014_m_m_h_a.png,O,z,1967,4,1,2810.0,492843.89999997616,7204,VNB,C,2
3,prac,1,0.0,2-Back,1,m,Thu Aug 21 2025 09:26:24 GMT-0500 (Central Daylight Time),498052.7999999523,022_y_f_n_a.png,O,m,1521,5,1,2386.1999999284744,495666.60000002384,7204,VNB,C,3
3,prac,1,1.0,2-Back,0,z,Thu Aug 21 2025 09:26:24 GMT-0500 (Central Daylight Time),500268.89999997616,015_o_m_h_a.png,O,m,1360,6,1,2206.600000023842,498062.2999999523,7204,VNB,C,4
3,prac,1,1.0,2-Back,0,z,Thu Aug 21 2025 09:26:24 GMT-0500 (Central Daylight Time),502784.2000000477,025_y_m_n_a.png,O,m,1682,7,1,2506.5,500277.7000000477,7204,VNB,C,5
4,prac,1,0.0,2-Back,1,m,Thu Aug 21 2025 09:26:24 GMT-0500 (Central Daylight Time),505365.2999999523,019_m_f_d_a.png,O,m,1703,8,1,2571.6999999284744,502793.60000002384,7204,VNB,C,6
4,prac,1,0.0,2-Back,0,m,Thu Aug 21 2025 09:26:24 GMT-0500 (Central Daylight Time),508098.39999997616,012_o_f_d_a.png,O,z,1856,9,1,2722.1999999284744,505376.2000000477,7204,VNB,C,7
5,prac,1,0.0,2-Back,1,m,Thu Aug 21 2025 09:26:24 GMT-0500 (Central Daylight Time),510663.5,014_m_m_h_a.png,O,m,1775,10,1,2554.600000023842,508108.89999997616,7204,VNB,C,8
5,prac,1,1.0,2-Back,0,z,Thu Aug 21 2025 09:26:24 GMT-0500 (Central Daylight Time),513532.10000002384,022_y_f_d_a.png,O,None,2001,11,1,2858.8000000715256,510673.2999999523,7204,VNB,C,9
6,prac,1,0.0,2-Back,1,m,Thu Aug 21 2025 09:26:24 GMT-0500 (Central Daylight Time),516328.60000002384,015_o_m_n_a.png,O,m,1929,12,1,2786.0,513542.60000002384,7204,VNB,C,10
0,test,1,0.0,2-Back,,,Thu Aug 21 2025 09:26:24 GMT-0500 (Central Daylight Time),516328.60000002384,025_y_m_h_a.png,O,space,7621,1,1,2786.0,513542.60000002384,7204,VNB,C,0
0,test,1,0.0,2-Back,,,Thu Aug 21 2025 09:26:24 GMT-0500 (Central Daylight Time),516328.60000002384,012_o_f_n_a.png,O,space,7621,2,1,2786.0,513542.60000002384,7204,VNB,C,0
1,test,1,0.0,2-Back,1,z,Thu Aug 21 2025 09:26:24 GMT-0500 (Central Daylight Time),540188.2999999523,015_o_m_h_a.png,O,z,591,3,1,1609.5999999046326,538578.7000000477,7204,VNB,C,1
2,test,1,0.0,2-Back,1,m,Thu Aug 21 2025 09:26:24 GMT-0500 (Central Daylight Time),541972.7999999523,019_m_f_d_a.png,O,m,752,4,1,1776.6999999284744,540196.1000000238,7204,VNB,C,2
3,test,1,1.0,2-Back,1,m,Thu Aug 21 2025 09:26:24 GMT-0500 (Central Daylight Time),544504.7000000477,025_y_m_n_a.png,O,m,1517,5,1,2526.0,541978.7000000477,7204,VNB,C,3
4,test,1,0.0,2-Back,1,z,Thu Aug 21 2025 09:26:24 GMT-0500 (Central Daylight Time),546070.5,022_y_f_d_a.png,O,z,551,6,1,1561.6000000238419,544508.8999999762,7204,VNB,C,4
4,test,1,0.0,2-Back,0,m,Thu Aug 21 2025 09:26:24 GMT-0500 (Central Daylight Time),549102.8999999762,014_m_m_h_a.png,O,None,2016,7,1,3023.2999999523163,546079.6000000238,7204,VNB,C,5
5,test,1,1.0,2-Back,1,m,Thu Aug 21 2025 09:26:24 GMT-0500 (Central Daylight Time),551217.8999999762,022_y_f_n_a.png,O,m,1086,8,1,2105.600000023842,549112.2999999523,7204,VNB,C,6
6,test,1,0.0,2-Back,1,z,Thu Aug 21 2025 09:26:24 GMT-0500 (Central Daylight Time),553237.5,012_o_f_h_a.png,O,z,985,9,1,2011.8999999761581,551225.6000000238,7204,VNB,C,7
7,test,1,0.0,2-Back,1,m,Thu Aug 21 2025 09:26:24 GMT-0500 (Central Daylight Time),555416.6000000238,015_o_m_d_a.png,O,m,1161,10,1,2171.600000023842,553245.0,7204,VNB,C,8
8,test,1,1.0,2-Back,1,m,Thu Aug 21 2025 09:26:24 GMT-0500 (Central Daylight Time),558166.5,014_m_m_d_a.png,O,m,1725,11,1,2738.899999976158,555427.6000000238,7204,VNB,C,9
9,test,1,0.0,2-Back,1,m,Thu Aug 21 2025 09:26:24 GMT-0500 (Central Daylight Time),561081.5,019_m_f_n_a.png,O,m,1894,12,1,2905.2000000476837,558176.2999999523,7204,VNB,C,10
10,test,1,0.0,2-Back,1,m,Thu Aug 21 2025 09:26:24 GMT-0500 (Central Daylight Time),563146.6000000238,022_y_f_h_a.png,O,m,1026,13,1,2049.100000023842,561097.5,7204,VNB,C,11
11,test,1,0.0,2-Back,1,z,Thu Aug 21 2025 09:26:24 GMT-0500 (Central Daylight Time),565230.3999999762,014_m_m_n_a.png,O,z,1065,14,1,2075.7999999523163,563154.6000000238,7204,VNB,C,12
12,test,1,0.0,2-Back,1,m,Thu Aug 21 2025 09:26:24 GMT-0500 (Central Daylight Time),568179.2999999523,025_y_m_d_a.png,O,m,1928,15,1,2941.7999999523163,565237.5,7204,VNB,C,13
12,test,1,1.0,2-Back,0,m,Thu Aug 21 2025 09:26:24 GMT-0500 (Central Daylight Time),570744.2999999523,019_m_f_h_a.png,O,z,1543,16,1,2554.899999976158,568189.3999999762,7204,VNB,C,14
13,test,1,0.0,2-Back,1,z,Thu Aug 21 2025 09:26:24 GMT-0500 (Central Daylight Time),573678.3999999762,012_o_f_d_a.png,O,z,1900,17,1,2926.5,570751.8999999762,7204,VNB,C,15
14,test,1,0.0,2-Back,1,m,Thu Aug 21 2025 09:26:24 GMT-0500 (Central Daylight Time),575927.8999999762,015_o_m_n_a.png,O,m,1228,18,1,2239.399999976158,573688.5,7204,VNB,C,16
0,test,2,0.0,2-Back,,,Thu Aug 21 2025 09:26:24 GMT-0500 (Central Daylight Time),575927.8999999762,014_m_m_h_a.png,O,space,3139,1,1,2239.399999976158,573688.5,7204,VNB,C,0
0,test,2,0.0,2-Back,,,Thu Aug 21 2025 09:26:24 GMT-0500 (Central Daylight Time),575927.8999999762,022_y_f_n_a.png,O,space,3139,2,1,2239.399999976158,573688.5,7204,VNB,C,0
1,test,2,1.0,2-Back,1,z,Thu Aug 21 2025 09:26:24 GMT-0500 (Central Daylight Time),586292.3999999762,012_o_f_h_a.png,O,z,984,3,1,2010.6000000238419,584281.7999999523,7204,VNB,C,1
2,test,2,0.0,2-Back,1,m,Thu Aug 21 2025 09:26:24 GMT-0500 (Central Daylight Time),588206.8999999762,015_o_m_d_a.png,O,m,891,4,1,1907.1999999284744,586299.7000000477,7204,VNB,C,2
3,test,2,0.0,2-Back,1,m,Thu Aug 21 2025 09:26:24 GMT-0500 (Central Daylight Time),590005.6000000238,019_m_f_d_a.png,O,m,773,5,1,1789.1000000238419,588216.5,7204,VNB,C,3
3,test,2,0.0,2-Back,0,m,Thu Aug 21 2025 09:26:24 GMT-0500 (Central Daylight Time),592938.6000000238,025_y_m_h_a.png,O,z,1900,6,1,2925.2000000476837,590013.3999999762,7204,VNB,C,4
4,test,2,0.0,2-Back,1,m,Thu Aug 21 2025 09:26:24 GMT-0500 (Central Daylight Time),595586.3999999762,012_o_f_n_a.png,O,m,1616,7,1,2641.2999999523163,592945.1000000238,7204,VNB,C,5
5,test,2,1.0,2-Back,1,z,Thu Aug 21 2025 09:26:24 GMT-0500 (Central Daylight Time),597205.0,015_o_m_h_a.png,O,z,586,8,1,1613.7999999523163,595591.2000000477,7204,VNB,C,6
5,test,2,0.0,2-Back,0,m,Thu Aug 21 2025 09:26:24 GMT-0500 (Central Daylight Time),599869.5,022_y_f_d_a.png,O,z,1634,9,1,2657.399999976158,597212.1000000238,7204,VNB,C,7
6,test,2,0.0,2-Back,1,m,Thu Aug 21 2025 09:26:24 GMT-0500 (Central Daylight Time),601820.2000000477,025_y_m_d_a.png,O,m,917,10,1,1939.7000000476837,599880.5,7204,VNB,C,8
7,test,2,0.0,2-Back,1,m,Thu Aug 21 2025 09:26:24 GMT-0500 (Central Daylight Time),604134.7999999523,014_m_m_n_a.png,O,m,1290,11,1,2306.399999976158,601828.3999999762,7204,VNB,C,9
8,test,2,0.0,2-Back,1,m,Thu Aug 21 2025 09:26:24 GMT-0500 (Central Daylight Time),606567.2999999523,019_m_f_h_a.png,O,m,1404,12,1,2422.0999999046326,604145.2000000477,7204,VNB,C,10
8,test,2,1.0,2-Back,0,z,Thu Aug 21 2025 09:26:24 GMT-0500 (Central Daylight Time),609098.7000000477,015_o_m_n_a.png,O,m,1509,13,1,2521.8000000715256,606576.8999999762,7204,VNB,C,11
9,test,2,0.0,2-Back,1,m,Thu Aug 21 2025 09:26:24 GMT-0500 (Central Daylight Time),611299.0,012_o_f_d_a.png,O,m,1174,14,1,2193.100000023842,609105.8999999762,7204,VNB,C,12
9,test,2,0.0,2-Back,0,m,Thu Aug 21 2025 09:26:24 GMT-0500 (Central Daylight Time),613749.2000000477,022_y_f_h_a.png,O,z,1435,15,1,2440.7000000476837,611308.5,7204,VNB,C,13
9,test,2,0.0,2-Back,0,z,Thu Aug 21 2025 09:26:24 GMT-0500 (Central Daylight Time),615964.0,014_m_m_d_a.png,O,m,1191,16,1,2207.399999976158,613756.6000000238,7204,VNB,C,14
10,test,2,0.0,2-Back,1,m,Thu Aug 21 2025 09:26:24 GMT-0500 (Central Daylight Time),618313.1000000238,025_y_m_n_a.png,O,m,1319,17,1,2339.7000000476837,615973.3999999762,7204,VNB,C,15
10,test,2,1.0,2-Back,0,m,Thu Aug 21 2025 09:26:24 GMT-0500 (Central Daylight Time),620513.1000000238,019_m_f_n_a.png,O,z,1170,18,1,2191.600000023842,618321.5,7204,VNB,C,16
0,test,3,1.0,2-Back,,,Thu Aug 21 2025 09:26:24 GMT-0500 (Central Daylight Time),620513.1000000238,015_o_m_n_a.png,O,space,2068,1,1,2191.600000023842,618321.5,7204,VNB,C,0
0,test,3,1.0,2-Back,,,Thu Aug 21 2025 09:26:24 GMT-0500 (Central Daylight Time),620513.1000000238,012_o_f_d_a.png,O,space,2068,2,1,2191.600000023842,618321.5,7204,VNB,C,0
1,test,3,0.0,2-Back,1,m,Thu Aug 21 2025 09:26:24 GMT-0500 (Central Daylight Time),629659.6000000238,022_y_f_h_a.png,O,m,985,3,1,2008.8000000715256,627650.7999999523,7204,VNB,C,1
2,test,3,0.0,2-Back,1,z,Thu Aug 21 2025 09:26:24 GMT-0500 (Central Daylight Time),631441.6000000238,019_m_f_d_a.png,O,z,761,4,1,1773.5,629668.1000000238,7204,VNB,C,2
2,test,3,1.0,2-Back,0,m,Thu Aug 21 2025 09:26:24 GMT-0500 (Central Daylight Time),634425.3999999762,025_y_m_n_a.png,O,z,1954,5,1,2975.899999976158,631449.5,7204,VNB,C,3
3,test,3,0.0,2-Back,1,m,Thu Aug 21 2025 09:26:24 GMT-0500 (Central Daylight Time),637322.5,015_o_m_h_a.png,O,m,1876,6,1,2886.2000000476837,634436.2999999523,7204,VNB,C,4
3,test,3,0.0,2-Back,0,z,Thu Aug 21 2025 09:26:24 GMT-0500 (Central Daylight Time),640354.7999999523,022_y_f_n_a.png,O,None,2015,7,1,3026.0,637328.7999999523,7204,VNB,C,5
4,test,3,1.0,2-Back,1,m,Thu Aug 21 2025 09:26:24 GMT-0500 (Central Daylight Time),642189.3999999762,014_m_m_d_a.png,O,m,809,8,1,1826.3999999761581,640363.0,7204,VNB,C,6
4,test,3,0.0,2-Back,0,m,Thu Aug 21 2025 09:26:24 GMT-0500 (Central Daylight Time),645220.8999999762,025_y_m_d_a.png,O,None,2016,9,1,3022.2999999523163,642198.6000000238,7204,VNB,C,7
4,test,3,0.0,2-Back,0,m,Thu Aug 21 2025 09:26:24 GMT-0500 (Central Daylight Time),648070.2000000477,012_o_f_h_a.png,O,z,1830,10,1,2841.4000000953674,645228.7999999523,7204,VNB,C,8
4,test,3,1.0,2-Back,0,m,Thu Aug 21 2025 09:26:24 GMT-0500 (Central Daylight Time),651102.3999999762,019_m_f_n_a.png,O,None,2015,11,1,3024.100000023842,648078.2999999523,7204,VNB,C,9
5,test,3,1.0,2-Back,1,z,Thu Aug 21 2025 09:26:24 GMT-0500 (Central Daylight Time),653301.2000000477,014_m_m_h_a.png,O,z,1169,12,1,2189.9000000953674,651111.2999999523,7204,VNB,C,10
5,test,3,0.0,2-Back,0,m,Thu Aug 21 2025 09:26:24 GMT-0500 (Central Daylight Time),655368.2999999523,022_y_f_d_a.png,O,z,1036,13,1,2057.2999999523163,653311.0,7204,VNB,C,11
6,test,3,0.0,2-Back,1,m,Thu Aug 21 2025 09:26:24 GMT-0500 (Central Daylight Time),657134.8999999762,012_o_f_n_a.png,O,m,740,14,1,1760.0,655374.8999999762,7204,VNB,C,12
6,test,3,0.0,2-Back,0,z,Thu Aug 21 2025 09:26:24 GMT-0500 (Central Daylight Time),660167.2000000477,015_o_m_d_a.png,O,None,2015,15,1,3024.600000023842,657142.6000000238,7204,VNB,C,13
7,test,3,1.0,2-Back,1,m,Thu Aug 21 2025 09:26:24 GMT-0500 (Central Daylight Time),661882.2999999523,019_m_f_h_a.png,O,m,685,16,1,1707.2999999523163,660175.0,7204,VNB,C,14
8,test,3,0.0,2-Back,1,m,Thu Aug 21 2025 09:26:24 GMT-0500 (Central Daylight Time),663715.2000000477,014_m_m_n_a.png,O,m,810,17,1,1827.6000000238419,661887.6000000238,7204,VNB,C,15
8,test,3,0.0,2-Back,0,z,Thu Aug 21 2025 09:26:24 GMT-0500 (Central Daylight Time),666414.2999999523,025_y_m_h_a.png,O,m,1680,18,1,2690.399999976158,663723.8999999762,7204,VNB,C,16
0,test,4,0.0,2-Back,,,Thu Aug 21 2025 09:26:24 GMT-0500 (Central Daylight Time),666414.2999999523,019_m_f_n_a.png,O,space,2189,1,1,2690.399999976158,663723.8999999762,7204,VNB,C,0
0,test,4,0.0,2-Back,,,Thu Aug 21 2025 09:26:24 GMT-0500 (Central Daylight Time),666414.2999999523,015_o_m_n_a.png,O,space,2189,2,1,2690.399999976158,663723.8999999762,7204,VNB,C,0
0,test,4,1.0,2-Back,0,m,Thu Aug 21 2025 09:26:24 GMT-0500 (Central Daylight Time),675928.7999999523,025_y_m_h_a.png,O,z,1070,3,1,2091.899999976158,673836.8999999762,7204,VNB,C,1
1,test,4,1.0,2-Back,1,m,Thu Aug 21 2025 09:26:24 GMT-0500 (Central Daylight Time),677795.1000000238,012_o_f_d_a.png,O,m,843,4,1,1856.8999999761581,675938.2000000477,7204,VNB,C,2
1,test,4,0.0,2-Back,0,z,Thu Aug 21 2025 09:26:24 GMT-0500 (Central Daylight Time),680258.3999999762,015_o_m_h_a.png,O,m,1440,5,1,2453.5,677804.8999999762,7204,VNB,C,3
1,test,4,0.0,2-Back,0,m,Thu Aug 21 2025 09:26:24 GMT-0500 (Central Daylight Time),682326.0,014_m_m_n_a.png,O,z,1039,6,1,2063.2000000476837,680262.7999999523,7204,VNB,C,4
2,test,4,0.0,2-Back,1,m,Thu Aug 21 2025 09:26:24 GMT-0500 (Central Daylight Time),684592.6000000238,019_m_f_d_a.png,O,m,1234,7,1,2263.899999976158,682328.7000000477,7204,VNB,C,5
3,test,4,0.0,2-Back,1,z,Thu Aug 21 2025 09:26:24 GMT-0500 (Central Daylight Time),686741.0,022_y_f_n_a.png,O,z,1115,8,1,2138.2000000476837,684602.7999999523,7204,VNB,C,6
4,test,4,1.0,2-Back,1,m,Thu Aug 21 2025 09:26:24 GMT-0500 (Central Daylight Time),689041.2000000477,012_o_f_h_a.png,O,m,1271,9,1,2297.5,686743.7000000477,7204,VNB,C,7
4,test,4,0.0,2-Back,0,m,Thu Aug 21 2025 09:26:24 GMT-0500 (Central Daylight Time),691273.3999999762,014_m_m_h_a.png,O,z,1201,10,1,2222.0,689051.3999999762,7204,VNB,C,8
4,test,4,0.0,2-Back,0,m,Thu Aug 21 2025 09:26:24 GMT-0500 (Central Daylight Time),693389.8999999762,022_y_f_d_a.png,O,z,1099,11,1,2107.399999976158,691282.5,7204,VNB,C,9
5,test,4,0.0,2-Back,1,m,Thu Aug 21 2025 09:26:24 GMT-0500 (Central Daylight Time),696088.7999999523,025_y_m_n_a.png,O,m,1668,12,1,2689.0,693399.7999999523,7204,VNB,C,10
5,test,4,0.0,2-Back,0,z,Thu Aug 21 2025 09:26:24 GMT-0500 (Central Daylight Time),698355.7000000477,015_o_m_d_a.png,O,m,1244,13,1,2258.600000023842,696097.1000000238,7204,VNB,C,11
5,test,4,1.0,2-Back,0,m,Thu Aug 21 2025 09:26:24 GMT-0500 (Central Daylight Time),700386.7999999523,019_m_f_h_a.png,O,z,1001,14,1,2022.6999999284744,698364.1000000238,7204,VNB,C,12
5,test,4,1.0,2-Back,0,m,Thu Aug 21 2025 09:26:24 GMT-0500 (Central Daylight Time),702686.7000000477,022_y_f_h_a.png,O,z,1282,15,1,2295.2000000476837,700391.5,7204,VNB,C,13
6,test,4,0.0,2-Back,1,m,Thu Aug 21 2025 09:26:24 GMT-0500 (Central Daylight Time),705069.1000000238,012_o_f_n_a.png,O,m,1358,16,1,2375.899999976158,702693.2000000477,7204,VNB,C,14
7,test,4,0.0,2-Back,1,m,Thu Aug 21 2025 09:26:24 GMT-0500 (Central Daylight Time),707367.7000000477,025_y_m_d_a.png,O,m,1271,17,1,2289.8000000715256,705077.8999999762,7204,VNB,C,15
7,test,4,1.0,2-Back,0,m,Thu Aug 21 2025 09:26:24 GMT-0500 (Central Daylight Time),710400.1000000238,014_m_m_d_a.png,O,None,2016,18,1,3024.399999976158,707375.7000000477,7204,VNB,C,16
0,test,5,1.0,2-Back,,,Thu Aug 21 2025 09:26:24 GMT-0500 (Central Daylight Time),710400.1000000238,022_y_f_d_a.png,O,space,2820,1,1,3024.399999976158,707375.7000000477,7204,VNB,C,0
0,test,5,1.0,2-Back,,,Thu Aug 21 2025 09:26:24 GMT-0500 (Central Daylight Time),710400.1000000238,012_o_f_h_a.png,O,space,2820,2,1,3024.399999976158,707375.7000000477,7204,VNB,C,0
1,test,5,1.0,2-Back,1,z,Thu Aug 21 2025 09:26:24 GMT-0500 (Central Daylight Time),720180.6000000238,015_o_m_d_a.png,O,z,708,3,1,1722.7000000476837,718457.8999999762,7204,VNB,C,1
2,test,5,1.0,2-Back,1,m,Thu Aug 21 2025 09:26:24 GMT-0500 (Central Daylight Time),722180.7000000477,019_m_f_n_a.png,O,m,967,4,1,1993.2000000476837,720187.5,7204,VNB,C,2
2,test,5,0.0,2-Back,0,m,Thu Aug 21 2025 09:26:24 GMT-0500 (Central Daylight Time),724713.0,014_m_m_h_a.png,O,z,1511,5,1,2523.2999999523163,722189.7000000477,7204,VNB,C,3
2,test,5,0.0,2-Back,0,z,Thu Aug 21 2025 09:26:24 GMT-0500 (Central Daylight Time),726878.7999999523,022_y_f_n_a.png,O,m,1134,6,1,2158.2999999523163,724720.5,7204,VNB,C,4
2,test,5,0.0,2-Back,0,m,Thu Aug 21 2025 09:26:24 GMT-0500 (Central Daylight Time),729427.6000000238,012_o_f_d_a.png,O,z,1517,7,1,2537.600000023842,726890.0,7204,VNB,C,5
2,test,5,0.0,2-Back,0,m,Thu Aug 21 2025 09:26:24 GMT-0500 (Central Daylight Time),732460.6000000238,015_o_m_h_a.png,O,None,2015,8,1,3025.100000023842,729435.5,7204,VNB,C,6
3,test,5,1.0,2-Back,1,z,Thu Aug 21 2025 09:26:24 GMT-0500 (Central Daylight Time),734660.7999999523,019_m_f_d_a.png,O,z,1169,9,1,2193.399999976158,732467.3999999762,7204,VNB,C,7
4,test,5,0.0,2-Back,1,m,Thu Aug 21 2025 09:26:24 GMT-0500 (Central Daylight Time),736724.3999999762,025_y_m_n_a.png,O,m,1039,10,1,2055.0,734669.3999999762,7204,VNB,C,8
4,test,5,0.0,2-Back,0,m,Thu Aug 21 2025 09:26:24 GMT-0500 (Central Daylight Time),738791.3999999762,014_m_m_n_a.png,O,z,1048,11,1,2061.2999999523163,736730.1000000238,7204,VNB,C,9
5,test,5,0.0,2-Back,1,m,Thu Aug 21 2025 09:26:24 GMT-0500 (Central Daylight Time),741174.3999999762,022_y_f_h_a.png,O,m,1355,12,1,2375.399999976158,738799.0,7204,VNB,C,10
6,test,5,0.0,2-Back,1,m,Thu Aug 21 2025 09:26:24 GMT-0500 (Central Daylight Time),743656.8999999762,025_y_m_d_a.png,O,m,1462,13,1,2472.899999976158,741184.0,7204,VNB,C,11
6,test,5,1.0,2-Back,0,z,Thu Aug 21 2025 09:26:24 GMT-0500 (Central Daylight Time),746222.2999999523,019_m_f_h_a.png,O,m,1547,14,1,2557.0,743665.2999999523,7204,VNB,C,12
6,test,5,0.0,2-Back,0,m,Thu Aug 21 2025 09:26:24 GMT-0500 (Central Daylight Time),748837.6000000238,015_o_m_n_a.png,O,z,1589,15,1,2603.899999976158,746233.7000000477,7204,VNB,C,13
7,test,5,0.0,2-Back,1,m,Thu Aug 21 2025 09:26:24 GMT-0500 (Central Daylight Time),751070.1000000238,014_m_m_d_a.png,O,m,1204,16,1,2223.600000023842,748846.5,7204,VNB,C,14
8,test,5,0.0,2-Back,1,z,Thu Aug 21 2025 09:26:24 GMT-0500 (Central Daylight Time),753103.8999999762,012_o_f_n_a.png,O,z,1013,17,1,2026.1999999284744,751077.7000000477,7204,VNB,C,15
9,test,5,1.0,2-Back,1,m,Thu Aug 21 2025 09:26:24 GMT-0500 (Central Daylight Time),755819.7000000477,025_y_m_h_a.png,O,m,1687,18,1,2709.2000000476837,753110.5,7204,VNB,C,16
