block_c,block_dur,condition,countdown,datetime,endtime,list,multichar_response,project,response,response_time,session_number,start_end,starttime,subject_id,task,task_vers,trial
,,,,Tue Sep 03 2024 09:48:03 GMT-0500 (Central Daylight Time),,,,O,space,394,1,,,7016,WL,B,
prac,,0,,Tue Sep 03 2024 09:48:03 GMT-0500 (Central Daylight Time),,NA,b,O,b,15145,1,,,7016,WL,B,1.0
prac,,0,,Tue Sep 03 2024 09:48:03 GMT-0500 (Central Daylight Time),,NA,bo,O,o,442,1,,,7016,WL,B,1.0
prac,,0,,Tue Sep 03 2024 09:48:03 GMT-0500 (Central Daylight Time),,NA,boo,O,o,145,1,,,7016,WL,B,1.0
prac,,0,,Tue Sep 03 2024 09:48:03 GMT-0500 (Central Daylight Time),,NA,boos,O,s,154,1,,,7016,WL,B,1.0
prac,,0,,Tue Sep 03 2024 09:48:03 GMT-0500 (Central Daylight Time),,NA,boost,O,t,283,1,,,7016,WL,B,1.0
prac,,0,,Tue Sep 03 2024 09:48:03 GMT-0500 (Central Daylight Time),,NA,boostenter,O,enter,2969,1,,,7016,WL,B,1.0
1,0.8159999847412109,learn,59184.00001525879,Tue Sep 03 2024 09:48:03 GMT-0500 (Central Daylight Time),175963.90000003576,A,s,O,s,808,1,813.9000000357628,175150.0,7016,WL,B,1.0
1,1.1159999370574951,learn,58884.000062942505,Tue Sep 03 2024 09:48:03 GMT-0500 (Central Daylight Time),176264.30000001192,A,st,O,t,288,1,1114.300000011921,175150.0,7016,WL,B,1.0
1,1.4160001277923584,learn,58583.99987220764,Tue Sep 03 2024 09:48:03 GMT-0500 (Central Daylight Time),176563.80000001192,A,str,O,r,285,1,1413.800000011921,175150.0,7016,WL,B,1.0
1,1.7320001125335693,learn,58267.99988746643,Tue Sep 03 2024 09:48:03 GMT-0500 (Central Daylight Time),176880.60000002384,A,stre,O,e,297,1,1730.6000000238419,175150.0,7016,WL,B,1.0
1,1.8819999694824219,learn,58118.00003051758,Tue Sep 03 2024 09:48:03 GMT-0500 (Central Daylight Time),177030.40000003576,A,stree,O,e,133,1,1880.4000000357628,175150.0,7016,WL,B,1.0
1,2.199000120162964,learn,57800.999879837036,Tue Sep 03 2024 09:48:03 GMT-0500 (Central Daylight Time),177347.0,A,street,O,t,295,1,2197.0,175150.0,7016,WL,B,1.0
1,3.131999969482422,learn,56868.00003051758,Tue Sep 03 2024 09:48:03 GMT-0500 (Central Daylight Time),178280.0,A,streetenter,O,enter,923,1,3130.0,175150.0,7016,WL,B,1.0
1,3.615000009536743,learn,56384.99999046326,Tue Sep 03 2024 09:48:03 GMT-0500 (Central Daylight Time),178763.40000003576,A,g,O,g,461,1,482.60000002384186,178280.80000001192,7016,WL,B,2.0
1,3.815000057220459,learn,56184.99994277954,Tue Sep 03 2024 09:48:03 GMT-0500 (Central Daylight Time),178963.20000004768,A,gr,O,r,178,1,682.4000000357628,178280.80000001192,7016,WL,B,2.0
1,4.215000152587891,learn,55784.99984741211,Tue Sep 03 2024 09:48:03 GMT-0500 (Central Daylight Time),179362.80000001192,A,gra,O,a,378,1,1082.0,178280.80000001192,7016,WL,B,2.0
1,4.5980000495910645,learn,55401.999950408936,Tue Sep 03 2024 09:48:03 GMT-0500 (Central Daylight Time),179746.30000001192,A,gras,O,s,369,1,1465.5,178280.80000001192,7016,WL,B,2.0
1,4.763999938964844,learn,55236.000061035156,Tue Sep 03 2024 09:48:03 GMT-0500 (Central Daylight Time),179912.70000004768,A,grass,O,s,155,1,1631.9000000357628,178280.80000001192,7016,WL,B,2.0
1,5.88100004196167,learn,54118.99995803833,Tue Sep 03 2024 09:48:03 GMT-0500 (Central Daylight Time),181029.20000004768,A,grassenter,O,enter,1109,1,2748.400000035763,178280.80000001192,7016,WL,B,2.0
1,6.513999938964844,learn,53486.000061035156,Tue Sep 03 2024 09:48:03 GMT-0500 (Central Daylight Time),181662.20000004768,A,d,O,d,616,1,632.4000000357628,181029.80000001192,7016,WL,B,3.0
1,6.864000082015991,learn,53135.99991798401,Tue Sep 03 2024 09:48:03 GMT-0500 (Central Daylight Time),182012.40000003576,A,do,O,o,336,1,982.6000000238419,181029.80000001192,7016,WL,B,3.0
1,7.031000137329102,learn,52968.9998626709,Tue Sep 03 2024 09:48:03 GMT-0500 (Central Daylight Time),182178.80000001192,A,doo,O,o,161,1,1149.0,181029.80000001192,7016,WL,B,3.0
1,7.330000162124634,learn,52669.999837875366,Tue Sep 03 2024 09:48:03 GMT-0500 (Central Daylight Time),182478.70000004768,A,door,O,r,291,1,1448.9000000357628,181029.80000001192,7016,WL,B,3.0
1,7.814000129699707,learn,52185.99987030029,Tue Sep 03 2024 09:48:03 GMT-0500 (Central Daylight Time),182961.80000001192,A,doorenter,O,enter,462,1,1932.0,181029.80000001192,7016,WL,B,3.0
1,8.164000034332275,learn,51835.999965667725,Tue Sep 03 2024 09:48:03 GMT-0500 (Central Daylight Time),183311.90000003576,A,c,O,c,340,1,349.69999998807907,182962.20000004768,7016,WL,B,4.0
1,8.430000066757202,learn,51569.9999332428,Tue Sep 03 2024 09:48:03 GMT-0500 (Central Daylight Time),183578.60000002384,A,ci,O,i,245,1,616.3999999761581,182962.20000004768,7016,WL,B,4.0
1,8.680000066757202,learn,51319.9999332428,Tue Sep 03 2024 09:48:03 GMT-0500 (Central Daylight Time),183828.30000001192,A,cit,O,t,242,1,866.0999999642372,182962.20000004768,7016,WL,B,4.0
1,8.963000059127808,learn,51036.99994087219,Tue Sep 03 2024 09:48:03 GMT-0500 (Central Daylight Time),184111.60000002384,A,city,O,y,274,1,1149.3999999761581,182962.20000004768,7016,WL,B,4.0
1,9.597000122070312,learn,50402.99987792969,Tue Sep 03 2024 09:48:03 GMT-0500 (Central Daylight Time),184744.80000001192,A,cityenter,O,enter,622,1,1782.5999999642372,182962.20000004768,7016,WL,B,4.0
1,10.080000162124634,learn,49919.999837875366,Tue Sep 03 2024 09:48:03 GMT-0500 (Central Daylight Time),185227.80000001192,A,w,O,w,469,1,482.5999999642372,184745.20000004768,7016,WL,B,5.0
1,10.36300015449524,learn,49636.99984550476,Tue Sep 03 2024 09:48:03 GMT-0500 (Central Daylight Time),185510.90000003576,A,wi,O,i,274,1,765.6999999880791,184745.20000004768,7016,WL,B,5.0
1,10.796000003814697,learn,49203.9999961853,Tue Sep 03 2024 09:48:03 GMT-0500 (Central Daylight Time),185944.20000004768,A,wif,O,f,415,1,1199.0,184745.20000004768,7016,WL,B,5.0
1,10.979000091552734,learn,49020.999908447266,Tue Sep 03 2024 09:48:03 GMT-0500 (Central Daylight Time),186127.60000002384,A,wife,O,e,165,1,1382.3999999761581,184745.20000004768,7016,WL,B,5.0
1,11.446000099182129,learn,48553.99990081787,Tue Sep 03 2024 09:48:03 GMT-0500 (Central Daylight Time),186594.0,A,wifeenter,O,enter,445,1,1848.7999999523163,184745.20000004768,7016,WL,B,5.0
1,12.646000146865845,learn,47353.999853134155,Tue Sep 03 2024 09:48:03 GMT-0500 (Central Daylight Time),187793.90000003576,A,w,O,w,1188,1,1199.4000000357628,186594.5,7016,WL,B,6.0
1,12.878999948501587,learn,47121.00005149841,Tue Sep 03 2024 09:48:03 GMT-0500 (Central Daylight Time),188026.80000001192,A,wi,O,i,212,1,1432.300000011921,186594.5,7016,WL,B,6.0
1,13.128999948501587,learn,46871.00005149841,Tue Sep 03 2024 09:48:03 GMT-0500 (Central Daylight Time),188276.80000001192,A,win,O,n,243,1,1682.300000011921,186594.5,7016,WL,B,6.0
1,13.444999933242798,learn,46555.0000667572,Tue Sep 03 2024 09:48:03 GMT-0500 (Central Daylight Time),188593.5,A,wind,O,d,297,1,1999.0,186594.5,7016,WL,B,6.0
1,13.661999940872192,learn,46338.00005912781,Tue Sep 03 2024 09:48:03 GMT-0500 (Central Daylight Time),188809.80000001192,A,windo,O,o,195,1,2215.300000011921,186594.5,7016,WL,B,6.0
1,13.894999980926514,learn,46105.000019073486,Tue Sep 03 2024 09:48:03 GMT-0500 (Central Daylight Time),189043.30000001192,A,window,O,w,212,1,2448.800000011921,186594.5,7016,WL,B,6.0
1,14.34500002861023,learn,45654.99997138977,Tue Sep 03 2024 09:48:03 GMT-0500 (Central Daylight Time),189493.20000004768,A,windowenter,O,enter,440,1,2898.7000000476837,186594.5,7016,WL,B,6.0
1,15.394999980926514,learn,44605.000019073486,Tue Sep 03 2024 09:48:03 GMT-0500 (Central Daylight Time),190543.0,A,a,O,a,1033,1,1049.3999999761581,189493.60000002384,7016,WL,B,7.0
1,15.66100001335144,learn,44338.99998664856,Tue Sep 03 2024 09:48:03 GMT-0500 (Central Daylight Time),190809.40000003576,A,ar,O,r,247,1,1315.800000011921,189493.60000002384,7016,WL,B,7.0
1,17.111000061035156,learn,42888.999938964844,Tue Sep 03 2024 09:48:03 GMT-0500 (Central Daylight Time),192259.0,A,arm,O,m,1437,1,2765.399999976158,189493.60000002384,7016,WL,B,7.0
1,18.294000148773193,learn,41705.99985122681,Tue Sep 03 2024 09:48:03 GMT-0500 (Central Daylight Time),193441.70000004768,A,armenter,O,enter,1163,1,3948.100000023842,189493.60000002384,7016,WL,B,7.0
1,18.82100009918213,learn,41178.99990081787,Tue Sep 03 2024 09:48:03 GMT-0500 (Central Daylight Time),193969.10000002384,A,l,O,l,522,1,526.8999999761581,193442.20000004768,7016,WL,B,8.0
1,19.210000038146973,learn,40789.99996185303,Tue Sep 03 2024 09:48:03 GMT-0500 (Central Daylight Time),194358.20000004768,A,la,O,a,373,1,916.0,193442.20000004768,7016,WL,B,8.0
1,19.759999990463257,learn,40240.00000953674,Tue Sep 03 2024 09:48:03 GMT-0500 (Central Daylight Time),194908.10000002384,A,lak,O,k,535,1,1465.8999999761581,193442.20000004768,7016,WL,B,8.0
1,20.276000022888184,learn,39723.99997711182,Tue Sep 03 2024 09:48:03 GMT-0500 (Central Daylight Time),195424.60000002384,A,lake,O,e,498,1,1982.3999999761581,193442.20000004768,7016,WL,B,8.0
1,21.159000158309937,learn,38840.99984169006,Tue Sep 03 2024 09:48:03 GMT-0500 (Central Daylight Time),196307.40000003576,A,lakeenter,O,enter,878,1,2865.199999988079,193442.20000004768,7016,WL,B,8.0
1,21.542999982833862,learn,38457.00001716614,Tue Sep 03 2024 09:48:03 GMT-0500 (Central Daylight Time),196690.90000003576,A,f,O,f,362,1,383.19999998807907,196307.70000004768,7016,WL,B,9.0
1,21.842999935150146,learn,38157.00006484985,Tue Sep 03 2024 09:48:03 GMT-0500 (Central Daylight Time),196990.80000001192,A,fi,O,i,283,1,683.0999999642372,196307.70000004768,7016,WL,B,9.0
1,22.3270001411438,learn,37672.9998588562,Tue Sep 03 2024 09:48:03 GMT-0500 (Central Daylight Time),197475.10000002384,A,fir,O,r,471,1,1167.3999999761581,196307.70000004768,7016,WL,B,9.0
1,22.659000158309937,learn,37340.99984169006,Tue Sep 03 2024 09:48:03 GMT-0500 (Central Daylight Time),197807.20000004768,A,fire,O,e,323,1,1499.5,196307.70000004768,7016,WL,B,9.0
1,23.858999967575073,learn,36141.00003242493,Tue Sep 03 2024 09:48:03 GMT-0500 (Central Daylight Time),199006.90000003576,A,fireenter,O,enter,1191,1,2699.199999988079,196307.70000004768,7016,WL,B,9.0
1,25.02500009536743,learn,34974.99990463257,Tue Sep 03 2024 09:48:03 GMT-0500 (Central Daylight Time),200172.90000003576,A,c,O,c,1160,1,1165.6000000238419,199007.30000001192,7016,WL,B,10.0
1,25.375,learn,34625.0,Tue Sep 03 2024 09:48:03 GMT-0500 (Central Daylight Time),200523.0,A,ci,O,i,329,1,1515.699999988079,199007.30000001192,7016,WL,B,10.0
1,25.85800004005432,learn,34141.99995994568,Tue Sep 03 2024 09:48:03 GMT-0500 (Central Daylight Time),201006.20000004768,A,cit,O,t,467,1,1998.9000000357628,199007.30000001192,7016,WL,B,10.0
1,26.258000135421753,learn,33741.99986457825,Tue Sep 03 2024 09:48:03 GMT-0500 (Central Daylight Time),201406.0,A,city,O,y,392,1,2398.699999988079,199007.30000001192,7016,WL,B,10.0
1,28.207000017166138,learn,31792.999982833862,Tue Sep 03 2024 09:48:03 GMT-0500 (Central Daylight Time),203355.30000001192,A,cityenter,O,enter,1943,1,4348.0,199007.30000001192,7016,WL,B,10.0
1,29.59000015258789,learn,30409.99984741211,Tue Sep 03 2024 09:48:03 GMT-0500 (Central Daylight Time),204738.40000003576,A,s,O,s,1371,1,1382.9000000357628,203355.5,7016,WL,B,11.0
1,29.957000017166138,learn,30042.999982833862,Tue Sep 03 2024 09:48:03 GMT-0500 (Central Daylight Time),205104.80000001192,A,st,O,t,348,1,1749.300000011921,203355.5,7016,WL,B,11.0
1,30.140000104904175,learn,29859.999895095825,Tue Sep 03 2024 09:48:03 GMT-0500 (Central Daylight Time),205288.10000002384,A,sta,O,a,174,1,1932.6000000238419,203355.5,7016,WL,B,11.0
1,30.42300009727478,learn,29576.99990272522,Tue Sep 03 2024 09:48:03 GMT-0500 (Central Daylight Time),205571.5,A,star,O,r,262,1,2216.0,203355.5,7016,WL,B,11.0
1,32.48900008201599,learn,27510.99991798401,Tue Sep 03 2024 09:48:03 GMT-0500 (Central Daylight Time),207637.40000003576,A,starenter,O,enter,2051,1,4281.900000035763,203355.5,7016,WL,B,11.0
1,34.07200002670288,learn,25927.99997329712,Tue Sep 03 2024 09:48:03 GMT-0500 (Central Daylight Time),209220.5,A,p,O,p,1568,1,1582.699999988079,207637.80000001192,7016,WL,B,12.0
1,34.388999938964844,learn,25611.000061035156,Tue Sep 03 2024 09:48:03 GMT-0500 (Central Daylight Time),209536.80000001192,A,pi,O,i,297,1,1899.0,207637.80000001192,7016,WL,B,12.0
1,34.65499997138977,learn,25345.00002861023,Tue Sep 03 2024 09:48:03 GMT-0500 (Central Daylight Time),209803.5,A,pip,O,p,245,1,2165.699999988079,207637.80000001192,7016,WL,B,12.0
1,35.121999979019165,learn,24878.000020980835,Tue Sep 03 2024 09:48:03 GMT-0500 (Central Daylight Time),210269.80000001192,A,pipe,O,e,459,1,2632.0,207637.80000001192,7016,WL,B,12.0
1,36.32100009918213,learn,23678.99990081787,Tue Sep 03 2024 09:48:03 GMT-0500 (Central Daylight Time),211469.60000002384,A,pipeenter,O,enter,1192,1,3831.800000011921,207637.80000001192,7016,WL,B,12.0
1,58.098000049591064,learn,1901.9999504089355,Tue Sep 03 2024 09:48:03 GMT-0500 (Central Daylight Time),233246.0,A,p,O,p,21761,1,21776.0,211470.0,7016,WL,B,13.0
1,58.432000160217285,learn,1567.9998397827148,Tue Sep 03 2024 09:48:03 GMT-0500 (Central Daylight Time),233580.30000001192,A,pu,O,u,328,1,22110.30000001192,211470.0,7016,WL,B,13.0
1,58.765000104904175,learn,1234.9998950958252,Tue Sep 03 2024 09:48:03 GMT-0500 (Central Daylight Time),233912.80000001192,A,pup,O,p,314,1,22442.80000001192,211470.0,7016,WL,B,13.0
1,59.06400012969971,learn,935.999870300293,Tue Sep 03 2024 09:48:03 GMT-0500 (Central Daylight Time),234212.5,A,pupi,O,i,293,1,22742.5,211470.0,7016,WL,B,13.0
1,59.29699993133545,learn,703.0000686645508,Tue Sep 03 2024 09:48:03 GMT-0500 (Central Daylight Time),234445.60000002384,A,pupil,O,l,225,1,22975.600000023842,211470.0,7016,WL,B,13.0
1,59.71399998664856,learn,286.00001335144043,Tue Sep 03 2024 09:48:03 GMT-0500 (Central Daylight Time),234862.20000004768,A,pupilenter,O,enter,401,1,23392.200000047684,211470.0,7016,WL,B,13.0
1,60.013999938964844,learn,-13.99993896484375,Tue Sep 03 2024 09:48:03 GMT-0500 (Central Daylight Time),235162.5,A,None,O,None,295,1,300.0,234862.5,7016,WL,B,14.0
2,0.7660000324249268,learn,59233.99996757507,Tue Sep 03 2024 09:48:03 GMT-0500 (Central Daylight Time),326733.3000000119,A,s,O,s,760,1,766.0999999642372,325967.2000000477,7016,WL,B,1.0
2,1.2660000324249268,learn,58733.99996757507,Tue Sep 03 2024 09:48:03 GMT-0500 (Central Daylight Time),327233.7000000477,A,st,O,t,489,1,1266.5,325967.2000000477,7016,WL,B,1.0
2,1.5160000324249268,learn,58483.99996757507,Tue Sep 03 2024 09:48:03 GMT-0500 (Central Daylight Time),327483.2000000477,A,str,O,r,229,1,1516.0,325967.2000000477,7016,WL,B,1.0
2,1.8320000171661377,learn,58167.99998283386,Tue Sep 03 2024 09:48:03 GMT-0500 (Central Daylight Time),327799.60000002384,A,stre,O,e,307,1,1832.3999999761581,325967.2000000477,7016,WL,B,1.0
2,1.999000072479248,learn,58000.99992752075,Tue Sep 03 2024 09:48:03 GMT-0500 (Central Daylight Time),327966.3000000119,A,stree,O,e,150,1,1999.0999999642372,325967.2000000477,7016,WL,B,1.0
2,2.2990000247955322,learn,57700.99997520447,Tue Sep 03 2024 09:48:03 GMT-0500 (Central Daylight Time),328266.2000000477,A,street,O,t,280,1,2299.0,325967.2000000477,7016,WL,B,1.0
2,3.865000009536743,learn,56134.99999046326,Tue Sep 03 2024 09:48:03 GMT-0500 (Central Daylight Time),329832.3000000119,A,stree,O,backspace,1556,1,3865.099999964237,325967.2000000477,7016,WL,B,1.0
2,4.515000104904175,learn,55484.999895095825,Tue Sep 03 2024 09:48:03 GMT-0500 (Central Daylight Time),330482.10000002384,A,streeenter,O,enter,638,1,4514.899999976158,325967.2000000477,7016,WL,B,1.0
2,6.164000034332275,learn,53835.999965667725,Tue Sep 03 2024 09:48:03 GMT-0500 (Central Daylight Time),332131.7000000477,A,g,O,g,1636,1,1649.300000011921,330482.40000003576,7016,WL,B,2.0
2,6.3480000495910645,learn,53651.999950408936,Tue Sep 03 2024 09:48:03 GMT-0500 (Central Daylight Time),332315.0,A,gr,O,r,179,1,1832.5999999642372,330482.40000003576,7016,WL,B,2.0
2,6.914000034332275,learn,53085.999965667725,Tue Sep 03 2024 09:48:03 GMT-0500 (Central Daylight Time),332881.60000002384,A,gra,O,a,555,1,2399.199999988079,330482.40000003576,7016,WL,B,2.0
2,7.21399998664856,learn,52786.00001335144,Tue Sep 03 2024 09:48:03 GMT-0500 (Central Daylight Time),333181.3000000119,A,gras,O,s,293,1,2698.899999976158,330482.40000003576,7016,WL,B,2.0
2,7.364000082015991,learn,52635.99991798401,Tue Sep 03 2024 09:48:03 GMT-0500 (Central Daylight Time),333331.2000000477,A,grass,O,s,145,1,2848.800000011921,330482.40000003576,7016,WL,B,2.0
2,7.831000089645386,learn,52168.999910354614,Tue Sep 03 2024 09:48:03 GMT-0500 (Central Daylight Time),333798.0,A,grassenter,O,enter,451,1,3315.599999964237,330482.40000003576,7016,WL,B,2.0
2,8.44700002670288,learn,51552.99997329712,Tue Sep 03 2024 09:48:03 GMT-0500 (Central Daylight Time),334414.3000000119,A,s,O,s,600,1,616.0,333798.3000000119,7016,WL,B,3.0
2,8.730000019073486,learn,51269.999980926514,Tue Sep 03 2024 09:48:03 GMT-0500 (Central Daylight Time),334697.60000002384,A,st,O,t,272,1,899.3000000119209,333798.3000000119,7016,WL,B,3.0
2,9.094000101089478,learn,50905.99989891052,Tue Sep 03 2024 09:48:03 GMT-0500 (Central Daylight Time),335061.60000002384,A,str,O,r,221,1,1263.300000011921,333798.3000000119,7016,WL,B,3.0
2,9.240999937057495,learn,50759.000062942505,Tue Sep 03 2024 09:48:03 GMT-0500 (Central Daylight Time),335208.7000000477,A,stre,O,e,141,1,1410.4000000357628,333798.3000000119,7016,WL,B,3.0
2,9.380000114440918,learn,50619.99988555908,Tue Sep 03 2024 09:48:03 GMT-0500 (Central Daylight Time),335347.3000000119,A,stree,O,e,126,1,1549.0,333798.3000000119,7016,WL,B,3.0
2,9.663000106811523,learn,50336.99989318848,Tue Sep 03 2024 09:48:03 GMT-0500 (Central Daylight Time),335630.7000000477,A,street,O,t,267,1,1832.4000000357628,333798.3000000119,7016,WL,B,3.0
2,10.02999997138977,learn,49970.00002861023,Tue Sep 03 2024 09:48:03 GMT-0500 (Central Daylight Time),335997.10000002384,A,streetenter,O,enter,351,1,2198.800000011921,333798.3000000119,7016,WL,B,3.0
2,11.345999956130981,learn,48654.00004386902,Tue Sep 03 2024 09:48:03 GMT-0500 (Central Daylight Time),337313.3000000119,A,f,O,f,1306,1,1315.8999999761581,335997.40000003576,7016,WL,B,4.0
2,11.578999996185303,learn,48421.0000038147,Tue Sep 03 2024 09:48:03 GMT-0500 (Central Daylight Time),337546.7000000477,A,fi,O,i,221,1,1549.300000011921,335997.40000003576,7016,WL,B,4.0
2,11.812000036239624,learn,48187.999963760376,Tue Sep 03 2024 09:48:03 GMT-0500 (Central Daylight Time),337779.60000002384,A,fir,O,r,228,1,1782.199999988079,335997.40000003576,7016,WL,B,4.0
2,11.979000091552734,learn,48020.999908447266,Tue Sep 03 2024 09:48:03 GMT-0500 (Central Daylight Time),337946.60000002384,A,fire,O,e,155,1,1949.199999988079,335997.40000003576,7016,WL,B,4.0
2,12.746999979019165,learn,47253.000020980835,Tue Sep 03 2024 09:48:03 GMT-0500 (Central Daylight Time),338714.0,A,fireenter,O,enter,756,1,2716.599999964237,335997.40000003576,7016,WL,B,4.0
2,13.09500002861023,learn,46904.99997138977,Tue Sep 03 2024 09:48:03 GMT-0500 (Central Daylight Time),339062.90000003576,A,a,O,a,332,1,348.60000002384186,338714.3000000119,7016,WL,B,5.0
2,13.328999996185303,learn,46671.0000038147,Tue Sep 03 2024 09:48:03 GMT-0500 (Central Daylight Time),339296.0,A,ar,O,r,223,1,581.6999999880791,338714.3000000119,7016,WL,B,5.0
2,14.495000123977661,learn,45504.99987602234,Tue Sep 03 2024 09:48:03 GMT-0500 (Central Daylight Time),340462.2000000477,A,arm,O,m,1150,1,1747.9000000357628,338714.3000000119,7016,WL,B,5.0
2,15.229000091552734,learn,44770.999908447266,Tue Sep 03 2024 09:48:03 GMT-0500 (Central Daylight Time),341196.5,A,armenter,O,enter,728,1,2482.199999988079,338714.3000000119,7016,WL,B,5.0
2,15.67799997329712,learn,44322.00002670288,Tue Sep 03 2024 09:48:03 GMT-0500 (Central Daylight Time),341645.3000000119,A,d,O,d,434,1,448.5,341196.8000000119,7016,WL,B,6.0
2,15.960999965667725,learn,44039.000034332275,Tue Sep 03 2024 09:48:03 GMT-0500 (Central Daylight Time),341928.5,A,do,O,o,265,1,731.6999999880791,341196.8000000119,7016,WL,B,6.0
2,16.094000101089478,learn,43905.99989891052,Tue Sep 03 2024 09:48:03 GMT-0500 (Central Daylight Time),342061.90000003576,A,doo,O,o,126,1,865.1000000238419,341196.8000000119,7016,WL,B,6.0
2,16.511000156402588,learn,43488.99984359741,Tue Sep 03 2024 09:48:03 GMT-0500 (Central Daylight Time),342478.40000003576,A,door,O,r,409,1,1281.6000000238419,341196.8000000119,7016,WL,B,6.0
2,17.311000108718872,learn,42688.99989128113,Tue Sep 03 2024 09:48:03 GMT-0500 (Central Daylight Time),343278.0,A,doorenter,O,enter,784,1,2081.199999988079,341196.8000000119,7016,WL,B,6.0
2,17.594000101089478,learn,42405.99989891052,Tue Sep 03 2024 09:48:03 GMT-0500 (Central Daylight Time),343561.40000003576,A,w,O,w,272,1,283.0,343278.40000003576,7016,WL,B,7.0
2,17.8270001411438,learn,42172.9998588562,Tue Sep 03 2024 09:48:03 GMT-0500 (Central Daylight Time),343794.7000000477,A,wi,O,i,221,1,516.3000000119209,343278.40000003576,7016,WL,B,7.0
2,18.127000093460083,learn,41872.99990653992,Tue Sep 03 2024 09:48:03 GMT-0500 (Central Daylight Time),344094.60000002384,A,win,O,n,292,1,816.1999999880791,343278.40000003576,7016,WL,B,7.0
2,18.3270001411438,learn,41672.9998588562,Tue Sep 03 2024 09:48:03 GMT-0500 (Central Daylight Time),344294.40000003576,A,wind,O,d,192,1,1016.0,343278.40000003576,7016,WL,B,7.0
2,18.610000133514404,learn,41389.999866485596,Tue Sep 03 2024 09:48:03 GMT-0500 (Central Daylight Time),344577.8000000119,A,windo,O,o,264,1,1299.3999999761581,343278.40000003576,7016,WL,B,7.0
2,18.8270001411438,learn,41172.9998588562,Tue Sep 03 2024 09:48:03 GMT-0500 (Central Daylight Time),344794.3000000119,A,window,O,w,205,1,1515.8999999761581,343278.40000003576,7016,WL,B,7.0
2,19.210000038146973,learn,40789.99996185303,Tue Sep 03 2024 09:48:03 GMT-0500 (Central Daylight Time),345177.5,A,windowenter,O,enter,364,1,1899.0999999642372,343278.40000003576,7016,WL,B,7.0
2,19.526999950408936,learn,40473.000049591064,Tue Sep 03 2024 09:48:03 GMT-0500 (Central Daylight Time),345494.0,A,w,O,w,301,1,316.0999999642372,345177.90000003576,7016,WL,B,8.0
2,20.14300012588501,learn,39856.99987411499,Tue Sep 03 2024 09:48:03 GMT-0500 (Central Daylight Time),346110.7000000477,A,wi,O,i,608,1,932.8000000119209,345177.90000003576,7016,WL,B,8.0
2,20.41000008583069,learn,39589.99991416931,Tue Sep 03 2024 09:48:03 GMT-0500 (Central Daylight Time),346377.3000000119,A,wif,O,f,256,1,1199.3999999761581,345177.90000003576,7016,WL,B,8.0
2,20.66000008583069,learn,39339.99991416931,Tue Sep 03 2024 09:48:03 GMT-0500 (Central Daylight Time),346627.0,A,wife,O,e,229,1,1449.0999999642372,345177.90000003576,7016,WL,B,8.0
2,21.45900011062622,learn,38540.99988937378,Tue Sep 03 2024 09:48:03 GMT-0500 (Central Daylight Time),347426.90000003576,A,wifeenter,O,enter,787,1,2249.0,345177.90000003576,7016,WL,B,8.0
2,21.743000030517578,learn,38256.99996948242,Tue Sep 03 2024 09:48:03 GMT-0500 (Central Daylight Time),347710.10000002384,A,s,O,s,268,1,282.80000001192093,347427.3000000119,7016,WL,B,9.0
2,21.9760000705719,learn,38023.9999294281,Tue Sep 03 2024 09:48:03 GMT-0500 (Central Daylight Time),347943.3000000119,A,sk,O,k,224,1,516.0,347427.3000000119,7016,WL,B,9.0
2,22.176000118255615,learn,37823.999881744385,Tue Sep 03 2024 09:48:03 GMT-0500 (Central Daylight Time),348143.40000003576,A,ski,O,i,191,1,716.1000000238419,347427.3000000119,7016,WL,B,9.0
2,22.509000062942505,learn,37490.999937057495,Tue Sep 03 2024 09:48:03 GMT-0500 (Central Daylight Time),348476.60000002384,A,skin,O,n,327,1,1049.300000011921,347427.3000000119,7016,WL,B,9.0
2,23.04200005531311,learn,36957.99994468689,Tue Sep 03 2024 09:48:03 GMT-0500 (Central Daylight Time),349009.8000000119,A,skinenter,O,enter,514,1,1582.5,347427.3000000119,7016,WL,B,9.0
2,23.659000158309937,learn,36340.99984169006,Tue Sep 03 2024 09:48:03 GMT-0500 (Central Daylight Time),349626.10000002384,A,c,O,c,596,1,615.8000000119209,349010.3000000119,7016,WL,B,10.0
2,23.975000143051147,learn,36024.99985694885,Tue Sep 03 2024 09:48:03 GMT-0500 (Central Daylight Time),349943.0,A,ca,O,a,301,1,932.6999999880791,349010.3000000119,7016,WL,B,10.0
2,24.424999952316284,learn,35575.000047683716,Tue Sep 03 2024 09:48:03 GMT-0500 (Central Daylight Time),350392.5,A,cab,O,b,440,1,1382.199999988079,349010.3000000119,7016,WL,B,10.0
2,24.875,learn,35125.0,Tue Sep 03 2024 09:48:03 GMT-0500 (Central Daylight Time),350842.5,A,cabi,O,i,438,1,1832.199999988079,349010.3000000119,7016,WL,B,10.0
2,25.325000047683716,learn,34674.999952316284,Tue Sep 03 2024 09:48:03 GMT-0500 (Central Daylight Time),351292.2000000477,A,cabin,O,n,444,1,2281.900000035763,349010.3000000119,7016,WL,B,10.0
2,26.490999937057495,learn,33509.000062942505,Tue Sep 03 2024 09:48:03 GMT-0500 (Central Daylight Time),352458.60000002384,A,cabinenter,O,enter,1154,1,3448.300000011921,349010.3000000119,7016,WL,B,10.0
2,26.907999992370605,learn,33092.000007629395,Tue Sep 03 2024 09:48:03 GMT-0500 (Central Daylight Time),352875.10000002384,A,l,O,l,412,1,416.10000002384186,352459.0,7016,WL,B,11.0
2,27.44099998474121,learn,32559.00001525879,Tue Sep 03 2024 09:48:03 GMT-0500 (Central Daylight Time),353408.10000002384,A,la,O,a,515,1,949.1000000238419,352459.0,7016,WL,B,11.0
2,27.723999977111816,learn,32276.000022888184,Tue Sep 03 2024 09:48:03 GMT-0500 (Central Daylight Time),353691.5,A,lak,O,k,271,1,1232.5,352459.0,7016,WL,B,11.0
2,28.006999969482422,learn,31993.000030517578,Tue Sep 03 2024 09:48:03 GMT-0500 (Central Daylight Time),353974.90000003576,A,lake,O,e,266,1,1515.9000000357628,352459.0,7016,WL,B,11.0
2,28.457000017166138,learn,31542.999982833862,Tue Sep 03 2024 09:48:03 GMT-0500 (Central Daylight Time),354424.7000000477,A,lakeenter,O,enter,439,1,1965.7000000476837,352459.0,7016,WL,B,11.0
2,29.44099998474121,learn,30559.00001525879,Tue Sep 03 2024 09:48:03 GMT-0500 (Central Daylight Time),355407.90000003576,A,f,O,f,966,1,982.9000000357628,354425.0,7016,WL,B,12.0
2,29.67300009727478,learn,30326.99990272522,Tue Sep 03 2024 09:48:03 GMT-0500 (Central Daylight Time),355640.8000000119,A,fi,O,i,222,1,1215.800000011921,354425.0,7016,WL,B,12.0
2,29.890000104904175,learn,30109.999895095825,Tue Sep 03 2024 09:48:03 GMT-0500 (Central Daylight Time),355857.40000003576,A,fir,O,r,198,1,1432.4000000357628,354425.0,7016,WL,B,12.0
2,30.09000015258789,learn,29909.99984741211,Tue Sep 03 2024 09:48:03 GMT-0500 (Central Daylight Time),356057.5,A,fire,O,e,189,1,1632.5,354425.0,7016,WL,B,12.0
2,30.59000015258789,learn,29409.99984741211,Tue Sep 03 2024 09:48:03 GMT-0500 (Central Daylight Time),356557.5,A,fireenter,O,enter,485,1,2132.5,354425.0,7016,WL,B,12.0
2,30.94000005722046,learn,29059.99994277954,Tue Sep 03 2024 09:48:03 GMT-0500 (Central Daylight Time),356907.3000000119,A,c,O,c,345,1,349.5,356557.8000000119,7016,WL,B,13.0
2,31.35599994659424,learn,28644.00005340576,Tue Sep 03 2024 09:48:03 GMT-0500 (Central Daylight Time),357323.7000000477,A,ci,O,i,404,1,765.9000000357628,356557.8000000119,7016,WL,B,13.0
2,31.623000144958496,learn,28376.999855041504,Tue Sep 03 2024 09:48:03 GMT-0500 (Central Daylight Time),357590.5,A,cit,O,t,259,1,1032.699999988079,356557.8000000119,7016,WL,B,13.0
2,32.02300000190735,learn,27976.99999809265,Tue Sep 03 2024 09:48:03 GMT-0500 (Central Daylight Time),357990.2000000477,A,city,O,y,392,1,1432.4000000357628,356557.8000000119,7016,WL,B,13.0
2,33.35599994659424,learn,26644.00005340576,Tue Sep 03 2024 09:48:03 GMT-0500 (Central Daylight Time),359323.2000000477,A,cityenter,O,enter,1313,1,2765.400000035763,356557.8000000119,7016,WL,B,13.0
2,34.305999994277954,learn,25694.000005722046,Tue Sep 03 2024 09:48:03 GMT-0500 (Central Daylight Time),360273.90000003576,A,p,O,p,930,1,950.4000000357628,359323.5,7016,WL,B,14.0
2,34.7720000743866,learn,25227.999925613403,Tue Sep 03 2024 09:48:03 GMT-0500 (Central Daylight Time),360739.40000003576,A,pu,O,u,452,1,1415.9000000357628,359323.5,7016,WL,B,14.0
2,35.47200012207031,learn,24527.999877929688,Tue Sep 03 2024 09:48:03 GMT-0500 (Central Daylight Time),361439.2000000477,A,pup,O,p,691,1,2115.7000000476837,359323.5,7016,WL,B,14.0
2,35.705000162124634,learn,24294.999837875366,Tue Sep 03 2024 09:48:03 GMT-0500 (Central Daylight Time),361672.3000000119,A,pupi,O,i,223,1,2348.800000011921,359323.5,7016,WL,B,14.0
2,36.15499997138977,learn,23845.00002861023,Tue Sep 03 2024 09:48:03 GMT-0500 (Central Daylight Time),362122.2000000477,A,pupil,O,l,429,1,2798.7000000476837,359323.5,7016,WL,B,14.0
2,37.1710000038147,learn,22828.999996185303,Tue Sep 03 2024 09:48:03 GMT-0500 (Central Daylight Time),363138.90000003576,A,pupilenter,O,enter,1012,1,3815.400000035763,359323.5,7016,WL,B,14.0
2,37.57100009918213,learn,22428.99990081787,Tue Sep 03 2024 09:48:03 GMT-0500 (Central Daylight Time),363538.5,A,l,O,l,387,1,399.2999999523163,363139.2000000477,7016,WL,B,15.0
2,37.9539999961853,learn,22046.000003814697,Tue Sep 03 2024 09:48:03 GMT-0500 (Central Daylight Time),363921.8000000119,A,la,O,a,364,1,782.5999999642372,363139.2000000477,7016,WL,B,15.0
2,38.187000036239624,learn,21812.999963760376,Tue Sep 03 2024 09:48:03 GMT-0500 (Central Daylight Time),364154.8000000119,A,lak,O,k,220,1,1015.5999999642372,363139.2000000477,7016,WL,B,15.0
2,38.72000002861023,learn,21279.99997138977,Tue Sep 03 2024 09:48:03 GMT-0500 (Central Daylight Time),364688.10000002384,A,lake,O,e,523,1,1548.8999999761581,363139.2000000477,7016,WL,B,15.0
2,39.837000131607056,learn,20162.999868392944,Tue Sep 03 2024 09:48:03 GMT-0500 (Central Daylight Time),365804.5,A,lakeenter,O,enter,1102,1,2665.2999999523163,363139.2000000477,7016,WL,B,15.0
3,1.0340001583099365,learn,58965.99984169006,Tue Sep 03 2024 09:48:03 GMT-0500 (Central Daylight Time),442947.0,A,s,O,s,1021,1,1033.0999999642372,441913.90000003576,7016,WL,B,1.0
3,1.434000015258789,learn,58565.99998474121,Tue Sep 03 2024 09:48:03 GMT-0500 (Central Daylight Time),443347.0,A,st,O,t,387,1,1433.0999999642372,441913.90000003576,7016,WL,B,1.0
3,2.1000001430511475,learn,57899.99985694885,Tue Sep 03 2024 09:48:03 GMT-0500 (Central Daylight Time),444013.10000002384,A,str,O,r,660,1,2099.199999988079,441913.90000003576,7016,WL,B,1.0
3,2.4160001277923584,learn,57583.99987220764,Tue Sep 03 2024 09:48:03 GMT-0500 (Central Daylight Time),444329.60000002384,A,stre,O,e,297,1,2415.699999988079,441913.90000003576,7016,WL,B,1.0
3,2.5329999923706055,learn,57467.000007629395,Tue Sep 03 2024 09:48:03 GMT-0500 (Central Daylight Time),444446.3000000119,A,stree,O,e,109,1,2532.399999976158,441913.90000003576,7016,WL,B,1.0
3,2.866000175476074,learn,57133.999824523926,Tue Sep 03 2024 09:48:03 GMT-0500 (Central Daylight Time),444779.5,A,street,O,t,328,1,2865.599999964237,441913.90000003576,7016,WL,B,1.0
3,4.299000024795532,learn,55700.99997520447,Tue Sep 03 2024 09:48:03 GMT-0500 (Central Daylight Time),446212.7000000477,A,streetenter,O,enter,1419,1,4298.800000011921,441913.90000003576,7016,WL,B,1.0
3,5.0990002155303955,learn,54900.999784469604,Tue Sep 03 2024 09:48:03 GMT-0500 (Central Daylight Time),447012.2000000477,A,g,O,g,785,1,799.2000000476837,446213.0,7016,WL,B,2.0
3,5.31600022315979,learn,54683.99977684021,Tue Sep 03 2024 09:48:03 GMT-0500 (Central Daylight Time),447228.8000000119,A,gr,O,r,210,1,1015.8000000119209,446213.0,7016,WL,B,2.0
3,5.682000160217285,learn,54317.999839782715,Tue Sep 03 2024 09:48:03 GMT-0500 (Central Daylight Time),447595.40000003576,A,gra,O,a,354,1,1382.4000000357628,446213.0,7016,WL,B,2.0
3,6.015000104904175,learn,53984.999895095825,Tue Sep 03 2024 09:48:03 GMT-0500 (Central Daylight Time),447928.60000002384,A,gras,O,s,315,1,1715.6000000238419,446213.0,7016,WL,B,2.0
3,6.14900016784668,learn,53850.99983215332,Tue Sep 03 2024 09:48:03 GMT-0500 (Central Daylight Time),448062.10000002384,A,grass,O,s,126,1,1849.1000000238419,446213.0,7016,WL,B,2.0
3,6.765000104904175,learn,53234.999895095825,Tue Sep 03 2024 09:48:03 GMT-0500 (Central Daylight Time),448678.40000003576,A,grassenter,O,enter,608,1,2465.400000035763,446213.0,7016,WL,B,2.0
3,8.748000144958496,learn,51251.999855041504,Tue Sep 03 2024 09:48:03 GMT-0500 (Central Daylight Time),450661.0,A,d,O,d,1976,1,1982.2999999523163,448678.7000000477,7016,WL,B,3.0
3,9.13100004196167,learn,50868.99995803833,Tue Sep 03 2024 09:48:03 GMT-0500 (Central Daylight Time),451044.2000000477,A,do,O,o,369,1,2365.5,448678.7000000477,7016,WL,B,3.0
3,9.264000177383423,learn,50735.99982261658,Tue Sep 03 2024 09:48:03 GMT-0500 (Central Daylight Time),451177.7000000477,A,doo,O,o,122,1,2499.0,448678.7000000477,7016,WL,B,3.0
3,9.531000137329102,learn,50468.9998626709,Tue Sep 03 2024 09:48:03 GMT-0500 (Central Daylight Time),451443.90000003576,A,door,O,r,253,1,2765.199999988079,448678.7000000477,7016,WL,B,3.0
3,10.497000217437744,learn,49502.999782562256,Tue Sep 03 2024 09:48:03 GMT-0500 (Central Daylight Time),452410.8000000119,A,doorenter,O,enter,947,1,3732.099999964237,448678.7000000477,7016,WL,B,3.0
3,11.026000022888184,learn,48973.99997711182,Tue Sep 03 2024 09:48:03 GMT-0500 (Central Daylight Time),452938.90000003576,A,w,O,w,377,1,527.8000000119209,452411.10000002384,7016,WL,B,4.0
3,11.11300015449524,learn,48886.99984550476,Tue Sep 03 2024 09:48:03 GMT-0500 (Central Daylight Time),453026.7000000477,A,wi,O,i,67,1,615.6000000238419,452411.10000002384,7016,WL,B,4.0
3,11.430000066757202,learn,48569.9999332428,Tue Sep 03 2024 09:48:03 GMT-0500 (Central Daylight Time),453343.7000000477,A,wif,O,f,300,1,932.6000000238419,452411.10000002384,7016,WL,B,4.0
3,11.647000074386597,learn,48352.9999256134,Tue Sep 03 2024 09:48:03 GMT-0500 (Central Daylight Time),453560.2000000477,A,wife,O,e,207,1,1149.1000000238419,452411.10000002384,7016,WL,B,4.0
3,12.063000202178955,learn,47936.999797821045,Tue Sep 03 2024 09:48:03 GMT-0500 (Central Daylight Time),453976.90000003576,A,wifeenter,O,enter,406,1,1565.800000011921,452411.10000002384,7016,WL,B,4.0
3,12.446000099182129,learn,47553.99990081787,Tue Sep 03 2024 09:48:03 GMT-0500 (Central Daylight Time),454359.8000000119,A,a,O,a,366,1,382.69999998807907,453977.10000002384,7016,WL,B,5.0
3,12.813000202178955,learn,47186.999797821045,Tue Sep 03 2024 09:48:03 GMT-0500 (Central Daylight Time),454726.40000003576,A,ar,O,r,359,1,749.3000000119209,453977.10000002384,7016,WL,B,5.0
3,13.313000202178955,learn,46686.999797821045,Tue Sep 03 2024 09:48:03 GMT-0500 (Central Daylight Time),455226.2000000477,A,arm,O,m,488,1,1249.1000000238419,453977.10000002384,7016,WL,B,5.0
3,13.896000146865845,learn,46103.999853134155,Tue Sep 03 2024 09:48:03 GMT-0500 (Central Daylight Time),455809.60000002384,A,armenter,O,enter,572,1,1832.5,453977.10000002384,7016,WL,B,5.0
3,14.163000106811523,learn,45836.99989318848,Tue Sep 03 2024 09:48:03 GMT-0500 (Central Daylight Time),456076.0,A,s,O,s,253,1,266.0999999642372,455809.90000003576,7016,WL,B,6.0
3,15.078999996185303,learn,44921.0000038147,Tue Sep 03 2024 09:48:03 GMT-0500 (Central Daylight Time),456992.5,A,st,O,t,907,1,1182.5999999642372,455809.90000003576,7016,WL,B,6.0
3,15.912000179290771,learn,44087.99982070923,Tue Sep 03 2024 09:48:03 GMT-0500 (Central Daylight Time),457825.40000003576,A,sta,O,a,813,1,2015.5,455809.90000003576,7016,WL,B,6.0
3,16.26200008392334,learn,43737.99991607666,Tue Sep 03 2024 09:48:03 GMT-0500 (Central Daylight Time),458175.40000003576,A,star,O,r,341,1,2365.5,455809.90000003576,7016,WL,B,6.0
3,17.41200017929077,learn,42587.99982070923,Tue Sep 03 2024 09:48:03 GMT-0500 (Central Daylight Time),459325.10000002384,A,starenter,O,enter,1135,1,3515.199999988079,455809.90000003576,7016,WL,B,6.0
3,18.195000171661377,learn,41804.99982833862,Tue Sep 03 2024 09:48:03 GMT-0500 (Central Daylight Time),460108.10000002384,A,s,O,s,769,1,782.6000000238419,459325.5,7016,WL,B,7.0
3,18.461000204086304,learn,41538.999795913696,Tue Sep 03 2024 09:48:03 GMT-0500 (Central Daylight Time),460374.8000000119,A,sk,O,k,258,1,1049.300000011921,459325.5,7016,WL,B,7.0
3,18.695000171661377,learn,41304.99982833862,Tue Sep 03 2024 09:48:03 GMT-0500 (Central Daylight Time),460608.0,A,ski,O,i,216,1,1282.5,459325.5,7016,WL,B,7.0
3,19.295000076293945,learn,40704.999923706055,Tue Sep 03 2024 09:48:03 GMT-0500 (Central Daylight Time),461207.90000003576,A,skin,O,n,582,1,1882.4000000357628,459325.5,7016,WL,B,7.0
3,19.794000148773193,learn,40205.99985122681,Tue Sep 03 2024 09:48:03 GMT-0500 (Central Daylight Time),461707.5,A,skinenter,O,enter,495,1,2382.0,459325.5,7016,WL,B,7.0
3,20.111000061035156,learn,39888.999938964844,Tue Sep 03 2024 09:48:03 GMT-0500 (Central Daylight Time),462024.3000000119,A,w,O,w,307,1,316.5,461707.8000000119,7016,WL,B,8.0
3,20.39400005340576,learn,39605.99994659424,Tue Sep 03 2024 09:48:03 GMT-0500 (Central Daylight Time),462307.3000000119,A,wi,O,i,270,1,599.5,461707.8000000119,7016,WL,B,8.0
3,20.677000045776367,learn,39322.99995422363,Tue Sep 03 2024 09:48:03 GMT-0500 (Central Daylight Time),462590.7000000477,A,win,O,n,267,1,882.9000000357628,461707.8000000119,7016,WL,B,8.0
3,20.844000101089478,learn,39155.99989891052,Tue Sep 03 2024 09:48:03 GMT-0500 (Central Daylight Time),462757.3000000119,A,wind,O,d,160,1,1049.5,461707.8000000119,7016,WL,B,8.0
3,21.061000108718872,learn,38938.99989128113,Tue Sep 03 2024 09:48:03 GMT-0500 (Central Daylight Time),462974.0,A,windo,O,o,209,1,1266.199999988079,461707.8000000119,7016,WL,B,8.0
3,21.3270001411438,learn,38672.9998588562,Tue Sep 03 2024 09:48:03 GMT-0500 (Central Daylight Time),463240.60000002384,A,window,O,w,256,1,1532.800000011921,461707.8000000119,7016,WL,B,8.0
3,21.89400005340576,learn,38105.99994659424,Tue Sep 03 2024 09:48:03 GMT-0500 (Central Daylight Time),463806.90000003576,A,windowenter,O,enter,558,1,2099.100000023842,461707.8000000119,7016,WL,B,8.0
3,22.877000093460083,learn,37122.99990653992,Tue Sep 03 2024 09:48:03 GMT-0500 (Central Daylight Time),464789.90000003576,A,c,O,c,967,1,982.6999999880791,463807.2000000477,7016,WL,B,9.0
3,23.31000018119812,learn,36689.99981880188,Tue Sep 03 2024 09:48:03 GMT-0500 (Central Daylight Time),465223.10000002384,A,ci,O,i,417,1,1415.8999999761581,463807.2000000477,7016,WL,B,9.0
3,23.610000133514404,learn,36389.999866485596,Tue Sep 03 2024 09:48:03 GMT-0500 (Central Daylight Time),465523.2000000477,A,cit,O,t,279,1,1716.0,463807.2000000477,7016,WL,B,9.0
3,23.9760000705719,learn,36023.9999294281,Tue Sep 03 2024 09:48:03 GMT-0500 (Central Daylight Time),465889.7000000477,A,city,O,y,355,1,2082.5,463807.2000000477,7016,WL,B,9.0
3,26.642000198364258,learn,33357.99980163574,Tue Sep 03 2024 09:48:03 GMT-0500 (Central Daylight Time),468555.3000000119,A,cityenter,O,enter,2653,1,4748.099999964237,463807.2000000477,7016,WL,B,9.0
3,27.509000062942505,learn,32490.999937057495,Tue Sep 03 2024 09:48:03 GMT-0500 (Central Daylight Time),469422.0,A,l,O,l,859,1,866.2999999523163,468555.7000000477,7016,WL,B,10.0
3,27.992000102996826,learn,32007.999897003174,Tue Sep 03 2024 09:48:03 GMT-0500 (Central Daylight Time),469904.90000003576,A,la,O,a,464,1,1349.199999988079,468555.7000000477,7016,WL,B,10.0
3,28.20900011062622,learn,31790.99988937378,Tue Sep 03 2024 09:48:03 GMT-0500 (Central Daylight Time),470122.0,A,lak,O,k,206,1,1566.2999999523163,468555.7000000477,7016,WL,B,10.0
3,28.642000198364258,learn,31357.999801635742,Tue Sep 03 2024 09:48:03 GMT-0500 (Central Daylight Time),470555.2000000477,A,lake,O,e,428,1,1999.5,468555.7000000477,7016,WL,B,10.0
3,29.69100022315979,learn,30308.99977684021,Tue Sep 03 2024 09:48:03 GMT-0500 (Central Daylight Time),471604.60000002384,A,lakeenter,O,enter,1035,1,3048.899999976158,468555.7000000477,7016,WL,B,10.0
3,30.058000087738037,learn,29941.999912261963,Tue Sep 03 2024 09:48:03 GMT-0500 (Central Daylight Time),471971.10000002384,A,p,O,p,362,1,366.19999998807907,471604.90000003576,7016,WL,B,11.0
3,30.391000032424927,learn,29608.999967575073,Tue Sep 03 2024 09:48:03 GMT-0500 (Central Daylight Time),472304.5,A,pi,O,i,323,1,699.5999999642372,471604.90000003576,7016,WL,B,11.0
3,30.741000175476074,learn,29258.999824523926,Tue Sep 03 2024 09:48:03 GMT-0500 (Central Daylight Time),472653.90000003576,A,pip,O,p,334,1,1049.0,471604.90000003576,7016,WL,B,11.0
3,31.407999992370605,learn,28592.000007629395,Tue Sep 03 2024 09:48:03 GMT-0500 (Central Daylight Time),473320.90000003576,A,pipe,O,e,649,1,1716.0,471604.90000003576,7016,WL,B,11.0
3,31.807000160217285,learn,28192.999839782715,Tue Sep 03 2024 09:48:03 GMT-0500 (Central Daylight Time),473720.60000002384,A,pipeenter,O,enter,382,1,2115.699999988079,471604.90000003576,7016,WL,B,11.0
3,32.307000160217285,learn,27692.999839782715,Tue Sep 03 2024 09:48:03 GMT-0500 (Central Daylight Time),474220.5,A,p,O,p,486,1,499.5999999642372,473720.90000003576,7016,WL,B,12.0
3,32.67400002479553,learn,27325.999975204468,Tue Sep 03 2024 09:48:03 GMT-0500 (Central Daylight Time),474587.10000002384,A,pu,O,u,346,1,866.1999999880791,473720.90000003576,7016,WL,B,12.0
3,33.10700011253357,learn,26892.99988746643,Tue Sep 03 2024 09:48:03 GMT-0500 (Central Daylight Time),475020.2000000477,A,pup,O,p,427,1,1299.300000011921,473720.90000003576,7016,WL,B,12.0
3,33.540000200271606,learn,26459.999799728394,Tue Sep 03 2024 09:48:03 GMT-0500 (Central Daylight Time),475453.2000000477,A,pupi,O,i,426,1,1732.300000011921,473720.90000003576,7016,WL,B,12.0
3,33.807000160217285,learn,26192.999839782715,Tue Sep 03 2024 09:48:03 GMT-0500 (Central Daylight Time),475719.8000000119,A,pupil,O,l,257,1,1998.8999999761581,473720.90000003576,7016,WL,B,12.0
3,34.69000005722046,learn,25309.99994277954,Tue Sep 03 2024 09:48:03 GMT-0500 (Central Daylight Time),476602.90000003576,A,pupilenter,O,enter,862,1,2882.0,473720.90000003576,7016,WL,B,12.0
3,35.0220000743866,learn,24977.999925613403,Tue Sep 03 2024 09:48:03 GMT-0500 (Central Daylight Time),476936.2000000477,A,c,O,c,324,1,332.9000000357628,476603.3000000119,7016,WL,B,13.0
3,35.2720000743866,learn,24727.999925613403,Tue Sep 03 2024 09:48:03 GMT-0500 (Central Daylight Time),477187.0,A,cl,O,l,238,1,583.6999999880791,476603.3000000119,7016,WL,B,13.0
3,35.48800015449524,learn,24511.99984550476,Tue Sep 03 2024 09:48:03 GMT-0500 (Central Daylight Time),477402.8000000119,A,clo,O,o,203,1,799.5,476603.3000000119,7016,WL,B,13.0
3,36.15500020980835,learn,23844.99979019165,Tue Sep 03 2024 09:48:03 GMT-0500 (Central Daylight Time),478069.10000002384,A,cloc,O,c,651,1,1465.800000011921,476603.3000000119,7016,WL,B,13.0
3,36.48800015449524,learn,23511.99984550476,Tue Sep 03 2024 09:48:03 GMT-0500 (Central Daylight Time),478402.3000000119,A,clock,O,k,321,1,1799.0,476603.3000000119,7016,WL,B,13.0
3,37.53700017929077,learn,22462.99982070923,Tue Sep 03 2024 09:48:03 GMT-0500 (Central Daylight Time),479451.90000003576,A,clockenter,O,enter,1044,1,2848.600000023842,476603.3000000119,7016,WL,B,13.0
3,38.52000021934509,learn,21479.999780654907,Tue Sep 03 2024 09:48:03 GMT-0500 (Central Daylight Time),480434.90000003576,A,f,O,f,971,1,982.8000000119209,479452.10000002384,7016,WL,B,14.0
3,38.82000017166138,learn,21179.999828338623,Tue Sep 03 2024 09:48:03 GMT-0500 (Central Daylight Time),480734.60000002384,A,fi,O,i,283,1,1282.5,479452.10000002384,7016,WL,B,14.0
3,39.087000131607056,learn,20912.999868392944,Tue Sep 03 2024 09:48:03 GMT-0500 (Central Daylight Time),481001.60000002384,A,fir,O,r,246,1,1549.5,479452.10000002384,7016,WL,B,14.0
3,39.23700022697449,learn,20762.999773025513,Tue Sep 03 2024 09:48:03 GMT-0500 (Central Daylight Time),481151.60000002384,A,fire,O,e,141,1,1699.5,479452.10000002384,7016,WL,B,14.0
3,40.420000076293945,learn,19579.999923706055,Tue Sep 03 2024 09:48:03 GMT-0500 (Central Daylight Time),482334.5,A,fireenter,O,enter,1167,1,2882.399999976158,479452.10000002384,7016,WL,B,14.0
3,48.28400015830994,learn,11715.999841690063,Tue Sep 03 2024 09:48:03 GMT-0500 (Central Daylight Time),490198.60000002384,A,s,O,s,7856,1,7863.800000011921,482334.8000000119,7016,WL,B,15.0
3,48.6010000705719,learn,11398.9999294281,Tue Sep 03 2024 09:48:03 GMT-0500 (Central Daylight Time),490515.3000000119,A,sk,O,k,311,1,8180.5,482334.8000000119,7016,WL,B,15.0
3,48.801000118255615,learn,11198.999881744385,Tue Sep 03 2024 09:48:03 GMT-0500 (Central Daylight Time),490715.2000000477,A,ski,O,i,195,1,8380.400000035763,482334.8000000119,7016,WL,B,15.0
3,49.367000102996826,learn,10632.999897003174,Tue Sep 03 2024 09:48:03 GMT-0500 (Central Daylight Time),491281.7000000477,A,skin,O,n,548,1,8946.900000035763,482334.8000000119,7016,WL,B,15.0
3,50.617000102996826,learn,9382.999897003174,Tue Sep 03 2024 09:48:03 GMT-0500 (Central Daylight Time),492531.2000000477,A,skinenter,O,enter,1236,1,10196.400000035763,482334.8000000119,7016,WL,B,15.0
4,1.1670000553131104,learn,58832.99994468689,Tue Sep 03 2024 09:48:03 GMT-0500 (Central Daylight Time),564175.3000000119,A,s,O,s,1150,1,1166.0999999642372,563009.2000000477,7016,WL,B,1.0
4,1.6329998970031738,learn,58367.000102996826,Tue Sep 03 2024 09:48:03 GMT-0500 (Central Daylight Time),564641.9000000358,A,st,O,t,446,1,1632.699999988079,563009.2000000477,7016,WL,B,1.0
4,1.9659998416900635,learn,58034.00015830994,Tue Sep 03 2024 09:48:03 GMT-0500 (Central Daylight Time),564975.2000000477,A,str,O,r,324,1,1966.0,563009.2000000477,7016,WL,B,1.0
4,2.2990000247955322,learn,57700.99997520447,Tue Sep 03 2024 09:48:03 GMT-0500 (Central Daylight Time),565308.2000000477,A,stre,O,e,327,1,2299.0,563009.2000000477,7016,WL,B,1.0
4,2.4659998416900635,learn,57534.00015830994,Tue Sep 03 2024 09:48:03 GMT-0500 (Central Daylight Time),565474.9000000358,A,stree,O,e,146,1,2465.699999988079,563009.2000000477,7016,WL,B,1.0
4,3.1489999294281006,learn,56851.0000705719,Tue Sep 03 2024 09:48:03 GMT-0500 (Central Daylight Time),566158.1000000238,A,street,O,t,668,1,3148.899999976158,563009.2000000477,7016,WL,B,1.0
4,4.315999984741211,learn,55684.00001525879,Tue Sep 03 2024 09:48:03 GMT-0500 (Central Daylight Time),567324.4000000358,A,streetenter,O,enter,1160,1,4315.199999988079,563009.2000000477,7016,WL,B,1.0
4,5.2149999141693115,learn,54785.00008583069,Tue Sep 03 2024 09:48:03 GMT-0500 (Central Daylight Time),568224.0,A,g,O,g,882,1,899.1999999880791,567324.8000000119,7016,WL,B,2.0
4,5.448999881744385,learn,54551.000118255615,Tue Sep 03 2024 09:48:03 GMT-0500 (Central Daylight Time),568457.5,A,gr,O,r,222,1,1132.699999988079,567324.8000000119,7016,WL,B,2.0
4,5.865000009536743,learn,54134.99999046326,Tue Sep 03 2024 09:48:03 GMT-0500 (Central Daylight Time),568874.0,A,gra,O,a,397,1,1549.199999988079,567324.8000000119,7016,WL,B,2.0
4,6.2149999141693115,learn,53785.00008583069,Tue Sep 03 2024 09:48:03 GMT-0500 (Central Daylight Time),569223.9000000358,A,gras,O,s,340,1,1899.1000000238419,567324.8000000119,7016,WL,B,2.0
4,6.38100004196167,learn,53618.99995803833,Tue Sep 03 2024 09:48:03 GMT-0500 (Central Daylight Time),569390.2000000477,A,grass,O,s,151,1,2065.400000035763,567324.8000000119,7016,WL,B,2.0
4,7.914000034332275,learn,52085.999965667725,Tue Sep 03 2024 09:48:03 GMT-0500 (Central Daylight Time),570923.2000000477,A,grassenter,O,enter,1512,1,3598.400000035763,567324.8000000119,7016,WL,B,2.0
4,9.996999979019165,learn,50003.000020980835,Tue Sep 03 2024 09:48:03 GMT-0500 (Central Daylight Time),573006.0,A,d,O,d,2067,1,2082.399999976158,570923.6000000238,7016,WL,B,3.0
4,10.246999979019165,learn,49753.000020980835,Tue Sep 03 2024 09:48:03 GMT-0500 (Central Daylight Time),573255.9000000358,A,do,O,o,241,1,2332.300000011921,570923.6000000238,7016,WL,B,3.0
4,10.396999835968018,learn,49603.00016403198,Tue Sep 03 2024 09:48:03 GMT-0500 (Central Daylight Time),573405.9000000358,A,doo,O,o,143,1,2482.300000011921,570923.6000000238,7016,WL,B,3.0
4,10.763999938964844,learn,49236.000061035156,Tue Sep 03 2024 09:48:03 GMT-0500 (Central Daylight Time),573772.3000000119,A,door,O,r,353,1,2848.699999988079,570923.6000000238,7016,WL,B,3.0
4,11.19700002670288,learn,48802.99997329712,Tue Sep 03 2024 09:48:03 GMT-0500 (Central Daylight Time),574205.7000000477,A,doorenter,O,enter,426,1,3282.100000023842,570923.6000000238,7016,WL,B,3.0
4,11.679999828338623,learn,48320.00017166138,Tue Sep 03 2024 09:48:03 GMT-0500 (Central Daylight Time),574688.8000000119,A,w,O,w,473,1,482.80000001192093,574206.0,7016,WL,B,4.0
4,11.996000051498413,learn,48003.99994850159,Tue Sep 03 2024 09:48:03 GMT-0500 (Central Daylight Time),575005.3000000119,A,wi,O,i,302,1,799.3000000119209,574206.0,7016,WL,B,4.0
4,12.246999979019165,learn,47753.000020980835,Tue Sep 03 2024 09:48:03 GMT-0500 (Central Daylight Time),575255.4000000358,A,win,O,n,241,1,1049.4000000357628,574206.0,7016,WL,B,4.0
4,12.412999868392944,learn,47587.000131607056,Tue Sep 03 2024 09:48:03 GMT-0500 (Central Daylight Time),575421.7000000477,A,wind,O,d,159,1,1215.7000000476837,574206.0,7016,WL,B,4.0
4,12.679999828338623,learn,47320.00017166138,Tue Sep 03 2024 09:48:03 GMT-0500 (Central Daylight Time),575688.5,A,windo,O,o,249,1,1482.5,574206.0,7016,WL,B,4.0
4,13.013999938964844,learn,46986.000061035156,Tue Sep 03 2024 09:48:03 GMT-0500 (Central Daylight Time),576022.4000000358,A,window,O,w,326,1,1816.4000000357628,574206.0,7016,WL,B,4.0
4,13.829999923706055,learn,46170.000076293945,Tue Sep 03 2024 09:48:03 GMT-0500 (Central Daylight Time),576838.6000000238,A,windowenter,O,enter,800,1,2632.600000023842,574206.0,7016,WL,B,4.0
4,14.628999948501587,learn,45371.00005149841,Tue Sep 03 2024 09:48:03 GMT-0500 (Central Daylight Time),577638.0,A,w,O,w,784,1,799.0999999642372,576838.9000000358,7016,WL,B,5.0
4,14.911999940872192,learn,45088.00005912781,Tue Sep 03 2024 09:48:03 GMT-0500 (Central Daylight Time),577920.8000000119,A,wi,O,i,272,1,1081.8999999761581,576838.9000000358,7016,WL,B,5.0
4,15.194999933242798,learn,44805.0000667572,Tue Sep 03 2024 09:48:03 GMT-0500 (Central Daylight Time),578204.3000000119,A,wif,O,f,270,1,1365.3999999761581,576838.9000000358,7016,WL,B,5.0
4,15.411999940872192,learn,44588.00005912781,Tue Sep 03 2024 09:48:03 GMT-0500 (Central Daylight Time),578420.9000000358,A,wife,O,e,210,1,1582.0,576838.9000000358,7016,WL,B,5.0
4,16.694999933242798,learn,43305.0000667572,Tue Sep 03 2024 09:48:03 GMT-0500 (Central Daylight Time),579704.0,A,wifeenter,O,enter,1266,1,2865.099999964237,576838.9000000358,7016,WL,B,5.0
4,17.378000020980835,learn,42621.999979019165,Tue Sep 03 2024 09:48:03 GMT-0500 (Central Daylight Time),580387.2000000477,A,a,O,a,663,1,682.7000000476837,579704.5,7016,WL,B,6.0
4,17.794999837875366,learn,42205.000162124634,Tue Sep 03 2024 09:48:03 GMT-0500 (Central Daylight Time),580803.3000000119,A,ar,O,r,411,1,1098.800000011921,579704.5,7016,WL,B,6.0
4,18.16100001335144,learn,41838.99998664856,Tue Sep 03 2024 09:48:03 GMT-0500 (Central Daylight Time),581170.1000000238,A,arn,O,n,355,1,1465.6000000238419,579704.5,7016,WL,B,6.0
4,18.777999877929688,learn,41222.00012207031,Tue Sep 03 2024 09:48:03 GMT-0500 (Central Daylight Time),581786.6000000238,A,arnenter,O,enter,596,1,2082.100000023842,579704.5,7016,WL,B,6.0
4,19.0939998626709,learn,40906.0001373291,Tue Sep 03 2024 09:48:03 GMT-0500 (Central Daylight Time),582103.0,A,s,O,s,308,1,316.0,581787.0,7016,WL,B,7.0
4,20.177000045776367,learn,39822.99995422363,Tue Sep 03 2024 09:48:03 GMT-0500 (Central Daylight Time),583186.0,A,st,O,t,1071,1,1399.0,581787.0,7016,WL,B,7.0
4,20.80999994277954,learn,39190.00005722046,Tue Sep 03 2024 09:48:03 GMT-0500 (Central Daylight Time),583819.2000000477,A,sta,O,a,628,1,2032.2000000476837,581787.0,7016,WL,B,7.0
4,21.194000005722046,learn,38805.999994277954,Tue Sep 03 2024 09:48:03 GMT-0500 (Central Daylight Time),584202.4000000358,A,star,O,r,364,1,2415.400000035763,581787.0,7016,WL,B,7.0
4,23.109999895095825,learn,36890.000104904175,Tue Sep 03 2024 09:48:03 GMT-0500 (Central Daylight Time),586118.4000000358,A,starenter,O,enter,1908,1,4331.400000035763,581787.0,7016,WL,B,7.0
4,23.460000038146973,learn,36539.99996185303,Tue Sep 03 2024 09:48:03 GMT-0500 (Central Daylight Time),586468.3000000119,A,w,O,w,336,1,349.5999999642372,586118.7000000477,7016,WL,B,8.0
4,23.692999839782715,learn,36307.000160217285,Tue Sep 03 2024 09:48:03 GMT-0500 (Central Daylight Time),586701.7000000477,A,wi,O,i,226,1,583.0,586118.7000000477,7016,WL,B,8.0
4,24.55900001525879,learn,35440.99998474121,Tue Sep 03 2024 09:48:03 GMT-0500 (Central Daylight Time),587568.0,A,win,O,n,849,1,1449.2999999523163,586118.7000000477,7016,WL,B,8.0
4,24.858999967575073,learn,35141.00003242493,Tue Sep 03 2024 09:48:03 GMT-0500 (Central Daylight Time),587868.0,A,wind,O,d,286,1,1749.2999999523163,586118.7000000477,7016,WL,B,8.0
4,25.05900001525879,learn,34940.99998474121,Tue Sep 03 2024 09:48:03 GMT-0500 (Central Daylight Time),588067.8000000119,A,windo,O,o,187,1,1949.0999999642372,586118.7000000477,7016,WL,B,8.0
4,25.29200005531311,learn,34707.99994468689,Tue Sep 03 2024 09:48:03 GMT-0500 (Central Daylight Time),588301.0,A,window,O,w,227,1,2182.2999999523163,586118.7000000477,7016,WL,B,8.0
4,26.30900001525879,learn,33690.99998474121,Tue Sep 03 2024 09:48:03 GMT-0500 (Central Daylight Time),589317.5,A,windowenter,O,enter,1009,1,3198.7999999523163,586118.7000000477,7016,WL,B,8.0
4,26.95899987220764,learn,33041.00012779236,Tue Sep 03 2024 09:48:03 GMT-0500 (Central Daylight Time),589967.3000000119,A,f,O,f,641,1,649.6999999880791,589317.6000000238,7016,WL,B,9.0
4,27.325000047683716,learn,32674.999952316284,Tue Sep 03 2024 09:48:03 GMT-0500 (Central Daylight Time),590333.8000000119,A,fi,O,i,351,1,1016.1999999880791,589317.6000000238,7016,WL,B,9.0
4,27.524999856948853,learn,32475.000143051147,Tue Sep 03 2024 09:48:03 GMT-0500 (Central Daylight Time),590533.7000000477,A,fir,O,r,192,1,1216.1000000238419,589317.6000000238,7016,WL,B,9.0
4,27.691999912261963,learn,32308.000087738037,Tue Sep 03 2024 09:48:03 GMT-0500 (Central Daylight Time),590700.4000000358,A,fire,O,e,161,1,1382.800000011921,589317.6000000238,7016,WL,B,9.0
4,28.340999841690063,learn,31659.000158309937,Tue Sep 03 2024 09:48:03 GMT-0500 (Central Daylight Time),591350.2000000477,A,fireenter,O,enter,642,1,2032.6000000238419,589317.6000000238,7016,WL,B,9.0
4,28.95799994468689,learn,31042.00005531311,Tue Sep 03 2024 09:48:03 GMT-0500 (Central Daylight Time),591966.4000000358,A,a,O,a,599,1,615.8000000119209,591350.6000000238,7016,WL,B,10.0
4,29.257999897003174,learn,30742.000102996826,Tue Sep 03 2024 09:48:03 GMT-0500 (Central Daylight Time),592266.6000000238,A,ar,O,r,280,1,916.0,591350.6000000238,7016,WL,B,10.0
4,29.95799994468689,learn,30042.00005531311,Tue Sep 03 2024 09:48:03 GMT-0500 (Central Daylight Time),592966.5,A,arm,O,m,692,1,1615.8999999761581,591350.6000000238,7016,WL,B,10.0
4,30.507999897003174,learn,29492.000102996826,Tue Sep 03 2024 09:48:03 GMT-0500 (Central Daylight Time),593516.3000000119,A,armenter,O,enter,536,1,2165.699999988079,591350.6000000238,7016,WL,B,10.0
4,30.93499994277954,learn,29065.00005722046,Tue Sep 03 2024 09:48:03 GMT-0500 (Central Daylight Time),593944.3000000119,A,c,O,c,423,1,427.69999998807907,593516.6000000238,7016,WL,B,11.0
4,31.15999984741211,learn,28840.00015258789,Tue Sep 03 2024 09:48:03 GMT-0500 (Central Daylight Time),594168.8000000119,A,ca,O,a,206,1,652.1999999880791,593516.6000000238,7016,WL,B,11.0
4,32.073999881744385,learn,27926.000118255615,Tue Sep 03 2024 09:48:03 GMT-0500 (Central Daylight Time),595082.8000000119,A,cab,O,b,893,1,1566.199999988079,593516.6000000238,7016,WL,B,11.0
4,32.49000000953674,learn,27509.999990463257,Tue Sep 03 2024 09:48:03 GMT-0500 (Central Daylight Time),595499.0,A,cabi,O,i,404,1,1982.3999999761581,593516.6000000238,7016,WL,B,11.0
4,32.94099998474121,learn,27059.00001525879,Tue Sep 03 2024 09:48:03 GMT-0500 (Central Daylight Time),595949.5,A,cabin,O,n,444,1,2432.899999976158,593516.6000000238,7016,WL,B,11.0
4,33.65599989891052,learn,26344.000101089478,Tue Sep 03 2024 09:48:03 GMT-0500 (Central Daylight Time),596665.0,A,cabinenter,O,enter,695,1,3148.399999976158,593516.6000000238,7016,WL,B,11.0
4,34.687999963760376,learn,25312.000036239624,Tue Sep 03 2024 09:48:03 GMT-0500 (Central Daylight Time),597698.1000000238,A,f,O,f,1021,1,1032.800000011921,596665.3000000119,7016,WL,B,12.0
4,34.98799991607666,learn,25012.00008392334,Tue Sep 03 2024 09:48:03 GMT-0500 (Central Daylight Time),597998.0,A,fi,O,i,284,1,1332.699999988079,596665.3000000119,7016,WL,B,12.0
4,35.23799991607666,learn,24762.00008392334,Tue Sep 03 2024 09:48:03 GMT-0500 (Central Daylight Time),598248.1000000238,A,fir,O,r,241,1,1582.800000011921,596665.3000000119,7016,WL,B,12.0
4,35.4210000038147,learn,24578.999996185303,Tue Sep 03 2024 09:48:03 GMT-0500 (Central Daylight Time),598431.3000000119,A,fire,O,e,167,1,1766.0,596665.3000000119,7016,WL,B,12.0
4,36.55399990081787,learn,23446.00009918213,Tue Sep 03 2024 09:48:03 GMT-0500 (Central Daylight Time),599564.0,A,fireenter,O,enter,1127,1,2898.699999988079,596665.3000000119,7016,WL,B,12.0
4,36.90400004386902,learn,23095.99995613098,Tue Sep 03 2024 09:48:03 GMT-0500 (Central Daylight Time),599914.1000000238,A,c,O,c,339,1,349.80000001192093,599564.3000000119,7016,WL,B,13.0
4,37.22099995613098,learn,22779.00004386902,Tue Sep 03 2024 09:48:03 GMT-0500 (Central Daylight Time),600230.9000000358,A,ci,O,i,308,1,666.6000000238419,599564.3000000119,7016,WL,B,13.0
4,37.53699994087219,learn,22463.000059127808,Tue Sep 03 2024 09:48:03 GMT-0500 (Central Daylight Time),600547.4000000358,A,cit,O,t,303,1,983.1000000238419,599564.3000000119,7016,WL,B,13.0
4,37.83699989318848,learn,22163.000106811523,Tue Sep 03 2024 09:48:03 GMT-0500 (Central Daylight Time),600847.2000000477,A,city,O,y,283,1,1282.9000000357628,599564.3000000119,7016,WL,B,13.0
4,38.519999980926514,learn,21480.000019073486,Tue Sep 03 2024 09:48:03 GMT-0500 (Central Daylight Time),601530.2000000477,A,cityenter,O,enter,663,1,1965.9000000357628,599564.3000000119,7016,WL,B,13.0
4,38.954999923706055,learn,21045.000076293945,Tue Sep 03 2024 09:48:03 GMT-0500 (Central Daylight Time),601964.6000000238,A,p,O,p,428,1,434.10000002384186,601530.5,7016,WL,B,14.0
4,39.3529999256134,learn,20647.000074386597,Tue Sep 03 2024 09:48:03 GMT-0500 (Central Daylight Time),602363.4000000358,A,pi,O,i,386,1,832.9000000357628,601530.5,7016,WL,B,14.0
4,39.65299987792969,learn,20347.000122070312,Tue Sep 03 2024 09:48:03 GMT-0500 (Central Daylight Time),602663.2000000477,A,pip,O,p,283,1,1132.7000000476837,601530.5,7016,WL,B,14.0
4,40.11999988555908,learn,19880.000114440918,Tue Sep 03 2024 09:48:03 GMT-0500 (Central Daylight Time),603129.7000000477,A,pipe,O,e,455,1,1599.2000000476837,601530.5,7016,WL,B,14.0
4,40.8199999332428,learn,19180.000066757202,Tue Sep 03 2024 09:48:03 GMT-0500 (Central Daylight Time),603829.6000000238,A,pipeenter,O,enter,685,1,2299.100000023842,601530.5,7016,WL,B,14.0
4,41.335999965667725,learn,18664.000034332275,Tue Sep 03 2024 09:48:03 GMT-0500 (Central Daylight Time),604346.1000000238,A,c,O,c,497,1,516.1999999880791,603829.9000000358,7016,WL,B,15.0
4,41.8199999332428,learn,18180.000066757202,Tue Sep 03 2024 09:48:03 GMT-0500 (Central Daylight Time),604829.7000000477,A,cl,O,l,468,1,999.8000000119209,603829.9000000358,7016,WL,B,15.0
4,42.05299997329712,learn,17947.00002670288,Tue Sep 03 2024 09:48:03 GMT-0500 (Central Daylight Time),605062.6000000238,A,clo,O,o,225,1,1232.699999988079,603829.9000000358,7016,WL,B,15.0
4,42.28600001335144,learn,17713.99998664856,Tue Sep 03 2024 09:48:03 GMT-0500 (Central Daylight Time),605295.9000000358,A,cloc,O,c,224,1,1466.0,603829.9000000358,7016,WL,B,15.0
4,42.86899995803833,learn,17131.00004196167,Tue Sep 03 2024 09:48:03 GMT-0500 (Central Daylight Time),605879.1000000238,A,clock,O,k,574,1,2049.199999988079,603829.9000000358,7016,WL,B,15.0
4,44.234999895095825,learn,15765.000104904175,Tue Sep 03 2024 09:48:03 GMT-0500 (Central Daylight Time),607245.5,A,clockenter,O,enter,1352,1,3415.599999964237,603829.9000000358,7016,WL,B,15.0
5,1.0,learn,60000.0,Tue Sep 03 2024 09:48:03 GMT-0500 (Central Daylight Time),680155.4000000358,A,s,O,s,995,1,999.6999999880791,679155.7000000477,7016,WL,B,1.0
5,1.4669997692108154,learn,60000.0,Tue Sep 03 2024 09:48:03 GMT-0500 (Central Daylight Time),680622.3000000119,A,st,O,t,451,1,1466.5999999642372,679155.7000000477,7016,WL,B,1.0
5,1.75,learn,60000.0,Tue Sep 03 2024 09:48:03 GMT-0500 (Central Daylight Time),680905.3000000119,A,str,O,r,264,1,1749.5999999642372,679155.7000000477,7016,WL,B,1.0
5,2.182999849319458,learn,60000.0,Tue Sep 03 2024 09:48:03 GMT-0500 (Central Daylight Time),681338.7000000477,A,stre,O,e,421,1,2183.0,679155.7000000477,7016,WL,B,1.0
5,2.3339998722076416,learn,60000.0,Tue Sep 03 2024 09:48:03 GMT-0500 (Central Daylight Time),681489.3000000119,A,stree,O,e,132,1,2333.599999964237,679155.7000000477,7016,WL,B,1.0
5,2.6669998168945312,learn,60000.0,Tue Sep 03 2024 09:48:03 GMT-0500 (Central Daylight Time),681821.8000000119,A,street,O,t,317,1,2666.099999964237,679155.7000000477,7016,WL,B,1.0
5,3.4659998416900635,learn,60000.0,Tue Sep 03 2024 09:48:03 GMT-0500 (Central Daylight Time),682621.4000000358,A,streetenter,O,enter,785,1,3465.699999988079,679155.7000000477,7016,WL,B,1.0
5,4.315999984741211,learn,60000.0,Tue Sep 03 2024 09:48:03 GMT-0500 (Central Daylight Time),683471.3000000119,A,g,O,g,833,1,849.5,682621.8000000119,7016,WL,B,2.0
5,4.615999937057495,learn,60000.0,Tue Sep 03 2024 09:48:03 GMT-0500 (Central Daylight Time),683771.4000000358,A,gr,O,r,279,1,1149.6000000238419,682621.8000000119,7016,WL,B,2.0
5,5.098999977111816,learn,60000.0,Tue Sep 03 2024 09:48:03 GMT-0500 (Central Daylight Time),684254.4000000358,A,gra,O,a,475,1,1632.6000000238419,682621.8000000119,7016,WL,B,2.0
5,5.448999881744385,learn,60000.0,Tue Sep 03 2024 09:48:03 GMT-0500 (Central Daylight Time),684604.1000000238,A,gras,O,s,344,1,1982.300000011921,682621.8000000119,7016,WL,B,2.0
5,5.615999937057495,learn,60000.0,Tue Sep 03 2024 09:48:03 GMT-0500 (Central Daylight Time),684771.0,A,grass,O,s,146,1,2149.199999988079,682621.8000000119,7016,WL,B,2.0
5,6.248999834060669,learn,60000.0,Tue Sep 03 2024 09:48:03 GMT-0500 (Central Daylight Time),685403.9000000358,A,grassenter,O,enter,628,1,2782.100000023842,682621.8000000119,7016,WL,B,2.0
5,7.847999811172485,learn,60000.0,Tue Sep 03 2024 09:48:03 GMT-0500 (Central Daylight Time),687003.3000000119,A,d,O,d,1595,1,1599.0,685404.3000000119,7016,WL,B,3.0
5,8.114999771118164,learn,60000.0,Tue Sep 03 2024 09:48:03 GMT-0500 (Central Daylight Time),687269.9000000358,A,do,O,o,259,1,1865.6000000238419,685404.3000000119,7016,WL,B,3.0
5,8.264999866485596,learn,60000.0,Tue Sep 03 2024 09:48:03 GMT-0500 (Central Daylight Time),687419.8000000119,A,doo,O,o,145,1,2015.5,685404.3000000119,7016,WL,B,3.0
5,8.764999866485596,learn,60000.0,Tue Sep 03 2024 09:48:03 GMT-0500 (Central Daylight Time),687920.0,A,door,O,r,483,1,2515.699999988079,685404.3000000119,7016,WL,B,3.0
5,9.763999938964844,learn,60000.0,Tue Sep 03 2024 09:48:03 GMT-0500 (Central Daylight Time),688919.5,A,doorenter,O,enter,983,1,3515.199999988079,685404.3000000119,7016,WL,B,3.0
5,10.464999914169312,learn,60000.0,Tue Sep 03 2024 09:48:03 GMT-0500 (Central Daylight Time),689620.5,A,w,O,w,687,1,700.5999999642372,688919.9000000358,7016,WL,B,4.0
5,10.71399998664856,learn,60000.0,Tue Sep 03 2024 09:48:03 GMT-0500 (Central Daylight Time),689869.2000000477,A,wi,O,i,242,1,949.3000000119209,688919.9000000358,7016,WL,B,4.0
5,11.113999843597412,learn,60000.0,Tue Sep 03 2024 09:48:03 GMT-0500 (Central Daylight Time),690269.2000000477,A,wif,O,f,385,1,1349.300000011921,688919.9000000358,7016,WL,B,4.0
5,11.29699993133545,learn,60000.0,Tue Sep 03 2024 09:48:03 GMT-0500 (Central Daylight Time),690452.4000000358,A,wife,O,e,177,1,1532.5,688919.9000000358,7016,WL,B,4.0
5,11.929999828338623,learn,60000.0,Tue Sep 03 2024 09:48:03 GMT-0500 (Central Daylight Time),691085.4000000358,A,wifeenter,O,enter,618,1,2165.5,688919.9000000358,7016,WL,B,4.0
5,12.398000001907349,learn,60000.0,Tue Sep 03 2024 09:48:03 GMT-0500 (Central Daylight Time),691553.0,A,a,O,a,457,1,467.19999998807907,691085.8000000119,7016,WL,B,5.0
5,12.696999788284302,learn,60000.0,Tue Sep 03 2024 09:48:03 GMT-0500 (Central Daylight Time),691851.9000000358,A,ar,O,r,285,1,766.1000000238419,691085.8000000119,7016,WL,B,5.0
5,13.446999788284302,learn,60000.0,Tue Sep 03 2024 09:48:03 GMT-0500 (Central Daylight Time),692601.7000000477,A,arm,O,m,731,1,1515.9000000357628,691085.8000000119,7016,WL,B,5.0
5,14.312999963760376,learn,60000.0,Tue Sep 03 2024 09:48:03 GMT-0500 (Central Daylight Time),693467.9000000358,A,armenter,O,enter,853,1,2382.100000023842,691085.8000000119,7016,WL,B,5.0
5,14.645999908447266,learn,60000.0,Tue Sep 03 2024 09:48:03 GMT-0500 (Central Daylight Time),693801.3000000119,A,w,O,w,315,1,333.0999999642372,693468.2000000477,7016,WL,B,6.0
5,14.912999868392944,learn,60000.0,Tue Sep 03 2024 09:48:03 GMT-0500 (Central Daylight Time),694067.8000000119,A,wi,O,i,261,1,599.5999999642372,693468.2000000477,7016,WL,B,6.0
5,15.245999813079834,learn,60000.0,Tue Sep 03 2024 09:48:03 GMT-0500 (Central Daylight Time),694401.2000000477,A,win,O,n,315,1,933.0,693468.2000000477,7016,WL,B,6.0
5,15.562999963760376,learn,60000.0,Tue Sep 03 2024 09:48:03 GMT-0500 (Central Daylight Time),694717.8000000119,A,wind,O,d,301,1,1249.5999999642372,693468.2000000477,7016,WL,B,6.0
5,15.795999765396118,learn,60000.0,Tue Sep 03 2024 09:48:03 GMT-0500 (Central Daylight Time),694950.9000000358,A,windo,O,o,217,1,1482.699999988079,693468.2000000477,7016,WL,B,6.0
5,16.17899990081787,learn,60000.0,Tue Sep 03 2024 09:48:03 GMT-0500 (Central Daylight Time),695334.3000000119,A,window,O,w,376,1,1866.0999999642372,693468.2000000477,7016,WL,B,6.0
5,16.661999940872192,learn,60000.0,Tue Sep 03 2024 09:48:03 GMT-0500 (Central Daylight Time),695817.4000000358,A,windowenter,O,enter,464,1,2349.199999988079,693468.2000000477,7016,WL,B,6.0
5,17.311999797821045,learn,60000.0,Tue Sep 03 2024 09:48:03 GMT-0500 (Central Daylight Time),696467.1000000238,A,c,O,c,637,1,649.3999999761581,695817.7000000477,7016,WL,B,7.0
5,17.59499979019165,learn,60000.0,Tue Sep 03 2024 09:48:03 GMT-0500 (Central Daylight Time),696750.5,A,ci,O,i,267,1,932.7999999523163,695817.7000000477,7016,WL,B,7.0
5,17.912999868392944,learn,60000.0,Tue Sep 03 2024 09:48:03 GMT-0500 (Central Daylight Time),697068.1000000238,A,cit,O,t,296,1,1250.3999999761581,695817.7000000477,7016,WL,B,7.0
5,18.32799983024597,learn,60000.0,Tue Sep 03 2024 09:48:03 GMT-0500 (Central Daylight Time),697483.5,A,city,O,y,402,1,1665.7999999523163,695817.7000000477,7016,WL,B,7.0
5,19.527999877929688,learn,60000.0,Tue Sep 03 2024 09:48:03 GMT-0500 (Central Daylight Time),698683.1000000238,A,cityenter,O,enter,1187,1,2865.399999976158,695817.7000000477,7016,WL,B,7.0
5,20.26099991798401,learn,60000.0,Tue Sep 03 2024 09:48:03 GMT-0500 (Central Daylight Time),699416.2000000477,A,p,O,p,716,1,732.8000000119209,698683.4000000358,7016,WL,B,8.0
5,20.57799983024597,learn,60000.0,Tue Sep 03 2024 09:48:03 GMT-0500 (Central Daylight Time),699732.9000000358,A,pi,O,i,302,1,1049.5,698683.4000000358,7016,WL,B,8.0
5,20.877999782562256,learn,60000.0,Tue Sep 03 2024 09:48:03 GMT-0500 (Central Daylight Time),700032.7000000477,A,pip,O,p,290,1,1349.300000011921,698683.4000000358,7016,WL,B,8.0
5,21.443999767303467,learn,60000.0,Tue Sep 03 2024 09:48:03 GMT-0500 (Central Daylight Time),700599.2000000477,A,pipe,O,e,550,1,1915.800000011921,698683.4000000358,7016,WL,B,8.0
5,22.360999822616577,learn,60000.0,Tue Sep 03 2024 09:48:03 GMT-0500 (Central Daylight Time),701516.5,A,pipeenter,O,enter,911,1,2833.099999964237,698683.4000000358,7016,WL,B,8.0
5,23.22599983215332,learn,60000.0,Tue Sep 03 2024 09:48:03 GMT-0500 (Central Daylight Time),702381.6000000238,A,c,O,c,849,1,864.6999999880791,701516.9000000358,7016,WL,B,9.0
5,23.626999855041504,learn,60000.0,Tue Sep 03 2024 09:48:03 GMT-0500 (Central Daylight Time),702782.2000000477,A,ca,O,a,393,1,1265.300000011921,701516.9000000358,7016,WL,B,9.0
5,24.05999994277954,learn,60000.0,Tue Sep 03 2024 09:48:03 GMT-0500 (Central Daylight Time),703215.0,A,cab,O,b,424,1,1698.0999999642372,701516.9000000358,7016,WL,B,9.0
5,24.542999982833862,learn,60000.0,Tue Sep 03 2024 09:48:03 GMT-0500 (Central Daylight Time),703698.2000000477,A,cabi,O,i,471,1,2181.300000011921,701516.9000000358,7016,WL,B,9.0
5,24.959999799728394,learn,60000.0,Tue Sep 03 2024 09:48:03 GMT-0500 (Central Daylight Time),704114.7000000477,A,cabin,O,n,397,1,2597.800000011921,701516.9000000358,7016,WL,B,9.0
5,25.658999919891357,learn,60000.0,Tue Sep 03 2024 09:48:03 GMT-0500 (Central Daylight Time),704814.6000000238,A,cabinenter,O,enter,692,1,3297.699999988079,701516.9000000358,7016,WL,B,9.0
5,26.075999975204468,learn,60000.0,Tue Sep 03 2024 09:48:03 GMT-0500 (Central Daylight Time),705231.2000000477,A,p,O,p,408,1,416.30000001192093,704814.9000000358,7016,WL,B,10.0
5,26.525999784469604,learn,60000.0,Tue Sep 03 2024 09:48:03 GMT-0500 (Central Daylight Time),705681.0,A,pi,O,i,439,1,866.0999999642372,704814.9000000358,7016,WL,B,10.0
5,26.858999967575073,learn,60000.0,Tue Sep 03 2024 09:48:03 GMT-0500 (Central Daylight Time),706014.1000000238,A,pip,O,p,317,1,1199.199999988079,704814.9000000358,7016,WL,B,10.0
5,27.45899987220764,learn,60000.0,Tue Sep 03 2024 09:48:03 GMT-0500 (Central Daylight Time),706614.0,A,pipe,O,e,584,1,1799.0999999642372,704814.9000000358,7016,WL,B,10.0
5,28.307999849319458,learn,60000.0,Tue Sep 03 2024 09:48:03 GMT-0500 (Central Daylight Time),707463.6000000238,A,pipeenter,O,enter,833,1,2648.699999988079,704814.9000000358,7016,WL,B,10.0
5,28.72499990463257,learn,60000.0,Tue Sep 03 2024 09:48:03 GMT-0500 (Central Daylight Time),707880.1000000238,A,p,O,p,407,1,416.19999998807907,707463.9000000358,7016,WL,B,11.0
5,29.191999912261963,learn,60000.0,Tue Sep 03 2024 09:48:03 GMT-0500 (Central Daylight Time),708346.9000000358,A,pu,O,u,463,1,883.0,707463.9000000358,7016,WL,B,11.0
5,29.823999881744385,learn,60000.0,Tue Sep 03 2024 09:48:03 GMT-0500 (Central Daylight Time),708979.7000000477,A,pup,O,p,628,1,1515.800000011921,707463.9000000358,7016,WL,B,11.0
5,30.223999977111816,learn,60000.0,Tue Sep 03 2024 09:48:03 GMT-0500 (Central Daylight Time),709379.6000000238,A,pupi,O,i,395,1,1915.699999988079,707463.9000000358,7016,WL,B,11.0
5,30.723999977111816,learn,60000.0,Tue Sep 03 2024 09:48:03 GMT-0500 (Central Daylight Time),709879.7000000477,A,pupil,O,l,491,1,2415.800000011921,707463.9000000358,7016,WL,B,11.0
5,31.507999897003174,learn,60000.0,Tue Sep 03 2024 09:48:03 GMT-0500 (Central Daylight Time),710662.9000000358,A,pupilenter,O,enter,775,1,3199.0,707463.9000000358,7016,WL,B,11.0
5,31.923999786376953,learn,60000.0,Tue Sep 03 2024 09:48:03 GMT-0500 (Central Daylight Time),711079.2000000477,A,l,O,l,408,1,416.0,710663.2000000477,7016,WL,B,12.0
5,32.44799995422363,learn,60000.0,Tue Sep 03 2024 09:48:03 GMT-0500 (Central Daylight Time),711602.9000000358,A,la,O,a,519,1,939.6999999880791,710663.2000000477,7016,WL,B,12.0
5,32.639999866485596,learn,60000.0,Tue Sep 03 2024 09:48:03 GMT-0500 (Central Daylight Time),711795.7000000477,A,lak,O,k,188,1,1132.5,710663.2000000477,7016,WL,B,12.0
5,32.889999866485596,learn,60000.0,Tue Sep 03 2024 09:48:03 GMT-0500 (Central Daylight Time),712045.5,A,lake,O,e,235,1,1382.2999999523163,710663.2000000477,7016,WL,B,12.0
5,33.62399983406067,learn,60000.0,Tue Sep 03 2024 09:48:03 GMT-0500 (Central Daylight Time),712778.8000000119,A,lakeenter,O,enter,729,1,2115.599999964237,710663.2000000477,7016,WL,B,12.0
5,34.07299995422363,learn,60000.0,Tue Sep 03 2024 09:48:03 GMT-0500 (Central Daylight Time),713228.6000000238,A,f,O,f,436,1,449.5,712779.1000000238,7016,WL,B,13.0
5,34.35699987411499,learn,60000.0,Tue Sep 03 2024 09:48:03 GMT-0500 (Central Daylight Time),713512.0,A,fi,O,i,266,1,732.8999999761581,712779.1000000238,7016,WL,B,13.0
5,34.58999991416931,learn,60000.0,Tue Sep 03 2024 09:48:03 GMT-0500 (Central Daylight Time),713745.1000000238,A,fir,O,r,215,1,966.0,712779.1000000238,7016,WL,B,13.0
5,34.82299995422363,learn,60000.0,Tue Sep 03 2024 09:48:03 GMT-0500 (Central Daylight Time),713978.5,A,fire,O,e,213,1,1199.3999999761581,712779.1000000238,7016,WL,B,13.0
5,36.07299995422363,learn,60000.0,Tue Sep 03 2024 09:48:03 GMT-0500 (Central Daylight Time),715227.9000000358,A,fireenter,O,enter,1236,1,2448.800000011921,712779.1000000238,7016,WL,B,13.0
5,37.72199988365173,learn,60000.0,Tue Sep 03 2024 09:48:03 GMT-0500 (Central Daylight Time),716877.4000000358,A,c,O,c,1635,1,1649.199999988079,715228.2000000477,7016,WL,B,14.0
5,37.97099995613098,learn,60000.0,Tue Sep 03 2024 09:48:03 GMT-0500 (Central Daylight Time),717127.3000000119,A,cl,O,l,240,1,1899.0999999642372,715228.2000000477,7016,WL,B,14.0
5,38.270999908447266,learn,60000.0,Tue Sep 03 2024 09:48:03 GMT-0500 (Central Daylight Time),717427.3000000119,A,clo,O,o,295,1,2199.099999964237,715228.2000000477,7016,WL,B,14.0
5,38.50399994850159,learn,60000.0,Tue Sep 03 2024 09:48:03 GMT-0500 (Central Daylight Time),717660.5,A,cloc,O,c,227,1,2432.2999999523163,715228.2000000477,7016,WL,B,14.0
5,39.120999813079834,learn,60000.0,Tue Sep 03 2024 09:48:03 GMT-0500 (Central Daylight Time),718277.3000000119,A,clock,O,k,602,1,3049.099999964237,715228.2000000477,7016,WL,B,14.0
5,40.23599982261658,learn,60000.0,Tue Sep 03 2024 09:48:03 GMT-0500 (Central Daylight Time),719393.2000000477,A,clockenter,O,enter,1105,1,4165.0,715228.2000000477,7016,WL,B,14.0
5,42.9689998626709,learn,60000.0,Tue Sep 03 2024 09:48:03 GMT-0500 (Central Daylight Time),722125.9000000358,A,s,O,s,2717,1,2732.400000035763,719393.5,7016,WL,B,15.0
5,43.35199999809265,learn,60000.0,Tue Sep 03 2024 09:48:03 GMT-0500 (Central Daylight Time),722508.9000000358,A,st,O,t,377,1,3115.400000035763,719393.5,7016,WL,B,15.0
5,43.55299997329712,learn,60000.0,Tue Sep 03 2024 09:48:03 GMT-0500 (Central Daylight Time),722710.0,A,sta,O,a,194,1,3316.5,719393.5,7016,WL,B,15.0
5,43.76899981498718,learn,60000.0,Tue Sep 03 2024 09:48:03 GMT-0500 (Central Daylight Time),722925.6000000238,A,star,O,r,208,1,3532.100000023842,719393.5,7016,WL,B,15.0
5,44.73599982261658,learn,60000.0,Tue Sep 03 2024 09:48:03 GMT-0500 (Central Daylight Time),723893.1000000238,A,starenter,O,enter,961,1,4499.600000023842,719393.5,7016,WL,B,15.0
6,1.3670001029968262,distr,58632.999897003174,Tue Sep 03 2024 09:48:03 GMT-0500 (Central Daylight Time),823394.2000000477,B,b,O,b,1356,1,1366.6000000238419,822027.6000000238,7016,WL,B,1.0
6,2.249000072479248,distr,57750.99992752075,Tue Sep 03 2024 09:48:03 GMT-0500 (Central Daylight Time),824276.9000000358,B,ba,O,a,868,1,2249.300000011921,822027.6000000238,7016,WL,B,1.0
6,2.866000175476074,distr,57133.999824523926,Tue Sep 03 2024 09:48:03 GMT-0500 (Central Daylight Time),824893.5,B,bab,O,b,610,1,2865.899999976158,822027.6000000238,7016,WL,B,1.0
6,3.2829999923706055,distr,56717.000007629395,Tue Sep 03 2024 09:48:03 GMT-0500 (Central Daylight Time),825310.1000000238,B,baby,O,y,401,1,3282.5,822027.6000000238,7016,WL,B,1.0
6,4.633000135421753,distr,55366.99986457825,Tue Sep 03 2024 09:48:03 GMT-0500 (Central Daylight Time),826660.7000000477,B,babyenter,O,enter,1344,1,4633.100000023842,822027.6000000238,7016,WL,B,1.0
6,6.3480000495910645,distr,53651.999950408936,Tue Sep 03 2024 09:48:03 GMT-0500 (Central Daylight Time),828375.5,B,o,O,o,1705,1,1714.5,826661.0,7016,WL,B,2.0
6,6.680999994277954,distr,53319.000005722046,Tue Sep 03 2024 09:48:03 GMT-0500 (Central Daylight Time),828708.9000000358,B,oc,O,c,319,1,2047.9000000357628,826661.0,7016,WL,B,2.0
6,7.781000137329102,distr,52218.9998626709,Tue Sep 03 2024 09:48:03 GMT-0500 (Central Daylight Time),829808.5,B,oce,O,e,1082,1,3147.5,826661.0,7016,WL,B,2.0
6,8.114000082015991,distr,51885.99991798401,Tue Sep 03 2024 09:48:03 GMT-0500 (Central Daylight Time),830142.0,B,ocea,O,a,318,1,3481.0,826661.0,7016,WL,B,2.0
6,8.764000177383423,distr,51235.99982261658,Tue Sep 03 2024 09:48:03 GMT-0500 (Central Daylight Time),830791.7000000477,B,ocean,O,n,641,1,4130.700000047684,826661.0,7016,WL,B,2.0
6,9.814000129699707,distr,50185.99987030029,Tue Sep 03 2024 09:48:03 GMT-0500 (Central Daylight Time),831841.3000000119,B,oceanenter,O,enter,1039,1,5180.300000011921,826661.0,7016,WL,B,2.0
6,10.246999979019165,distr,49753.000020980835,Tue Sep 03 2024 09:48:03 GMT-0500 (Central Daylight Time),832274.5,B,l,O,l,421,1,432.89999997615814,831841.6000000238,7016,WL,B,3.0
6,10.514000177383423,distr,49485.99982261658,Tue Sep 03 2024 09:48:03 GMT-0500 (Central Daylight Time),832541.1000000238,B,li,O,i,260,1,699.5,831841.6000000238,7016,WL,B,3.0
6,10.913000106811523,distr,49086.99989318848,Tue Sep 03 2024 09:48:03 GMT-0500 (Central Daylight Time),832940.9000000358,B,lip,O,p,393,1,1099.300000011921,831841.6000000238,7016,WL,B,3.0
6,11.896000146865845,distr,48103.999853134155,Tue Sep 03 2024 09:48:03 GMT-0500 (Central Daylight Time),833923.8000000119,B,lipenter,O,enter,978,1,2082.199999988079,831841.6000000238,7016,WL,B,3.0
6,12.430000066757202,distr,47569.9999332428,Tue Sep 03 2024 09:48:03 GMT-0500 (Central Daylight Time),834457.2000000477,B,b,O,b,515,1,533.1000000238419,833924.1000000238,7016,WL,B,4.0
6,12.730000019073486,distr,47269.999980926514,Tue Sep 03 2024 09:48:03 GMT-0500 (Central Daylight Time),834757.2000000477,B,ba,O,a,285,1,833.1000000238419,833924.1000000238,7016,WL,B,4.0
6,13.496000051498413,distr,46503.99994850159,Tue Sep 03 2024 09:48:03 GMT-0500 (Central Daylight Time),835523.7000000477,B,bar,O,r,745,1,1599.6000000238419,833924.1000000238,7016,WL,B,4.0
6,14.229000091552734,distr,45770.999908447266,Tue Sep 03 2024 09:48:03 GMT-0500 (Central Daylight Time),836256.6000000238,B,barenter,O,enter,715,1,2332.5,833924.1000000238,7016,WL,B,4.0
6,14.595999956130981,distr,45404.00004386902,Tue Sep 03 2024 09:48:03 GMT-0500 (Central Daylight Time),836623.1000000238,B,s,O,s,358,1,366.10000002384186,836257.0,7016,WL,B,5.0
6,15.028000116348267,distr,44971.99988365173,Tue Sep 03 2024 09:48:03 GMT-0500 (Central Daylight Time),837056.1000000238,B,st,O,t,415,1,799.1000000238419,836257.0,7016,WL,B,5.0
6,15.361999988555908,distr,44638.00001144409,Tue Sep 03 2024 09:48:03 GMT-0500 (Central Daylight Time),837389.6000000238,B,ste,O,e,327,1,1132.6000000238419,836257.0,7016,WL,B,5.0
6,15.945000171661377,distr,44054.99982833862,Tue Sep 03 2024 09:48:03 GMT-0500 (Central Daylight Time),837972.7000000477,B,stea,O,a,569,1,1715.7000000476837,836257.0,7016,WL,B,5.0
6,16.528000116348267,distr,43471.99988365173,Tue Sep 03 2024 09:48:03 GMT-0500 (Central Daylight Time),838556.0,B,stean,O,n,569,1,2299.0,836257.0,7016,WL,B,5.0
6,17.344000101089478,distr,42655.99989891052,Tue Sep 03 2024 09:48:03 GMT-0500 (Central Daylight Time),839372.3000000119,B,stea,O,backspace,811,1,3115.300000011921,836257.0,7016,WL,B,5.0
6,17.794000148773193,distr,42205.99985122681,Tue Sep 03 2024 09:48:03 GMT-0500 (Central Daylight Time),839822.0,B,steam,O,m,442,1,3565.0,836257.0,7016,WL,B,5.0
6,19.360000133514404,distr,40639.999866485596,Tue Sep 03 2024 09:48:03 GMT-0500 (Central Daylight Time),841388.0,B,steamenter,O,enter,1561,1,5131.0,836257.0,7016,WL,B,5.0
6,20.427000045776367,distr,39572.99995422363,Tue Sep 03 2024 09:48:03 GMT-0500 (Central Daylight Time),842454.6000000238,B,p,O,p,1051,1,1066.300000011921,841388.3000000119,7016,WL,B,6.0
6,20.776000022888184,distr,39223.99997711182,Tue Sep 03 2024 09:48:03 GMT-0500 (Central Daylight Time),842804.5,B,pa,O,a,344,1,1416.199999988079,841388.3000000119,7016,WL,B,6.0
6,21.70900011062622,distr,38290.99988937378,Tue Sep 03 2024 09:48:03 GMT-0500 (Central Daylight Time),843737.4000000358,B,pal,O,l,922,1,2349.100000023842,841388.3000000119,7016,WL,B,6.0
6,22.009000062942505,distr,37990.999937057495,Tue Sep 03 2024 09:48:03 GMT-0500 (Central Daylight Time),844037.5,B,pala,O,a,285,1,2649.199999988079,841388.3000000119,7016,WL,B,6.0
6,22.292999982833862,distr,37707.00001716614,Tue Sep 03 2024 09:48:03 GMT-0500 (Central Daylight Time),844320.7000000477,B,palac,O,c,265,1,2932.400000035763,841388.3000000119,7016,WL,B,6.0
6,22.509000062942505,distr,37490.999937057495,Tue Sep 03 2024 09:48:03 GMT-0500 (Central Daylight Time),844537.2000000477,B,palace,O,e,198,1,3148.900000035763,841388.3000000119,7016,WL,B,6.0
6,23.842000007629395,distr,36157.999992370605,Tue Sep 03 2024 09:48:03 GMT-0500 (Central Daylight Time),845870.2000000477,B,palaceenter,O,enter,1325,1,4481.900000035763,841388.3000000119,7016,WL,B,6.0
6,25.27500009536743,distr,34724.99990463257,Tue Sep 03 2024 09:48:03 GMT-0500 (Central Daylight Time),847303.3000000119,B,v,O,v,1417,1,1432.8999999761581,845870.4000000358,7016,WL,B,7.0
6,25.575000047683716,distr,34424.999952316284,Tue Sep 03 2024 09:48:03 GMT-0500 (Central Daylight Time),847603.2000000477,B,vi,O,i,287,1,1732.800000011921,845870.4000000358,7016,WL,B,7.0
6,26.258000135421753,distr,33741.99986457825,Tue Sep 03 2024 09:48:03 GMT-0500 (Central Daylight Time),848286.1000000238,B,vil,O,l,667,1,2415.699999988079,845870.4000000358,7016,WL,B,7.0
6,26.409000158309937,distr,33590.99984169006,Tue Sep 03 2024 09:48:03 GMT-0500 (Central Daylight Time),848437.2000000477,B,vill,O,l,136,1,2566.800000011921,845870.4000000358,7016,WL,B,7.0
6,26.64199995994568,distr,33358.00004005432,Tue Sep 03 2024 09:48:03 GMT-0500 (Central Daylight Time),848670.5,B,ville,O,e,225,1,2800.099999964237,845870.4000000358,7016,WL,B,7.0
6,26.89199995994568,distr,33108.00004005432,Tue Sep 03 2024 09:48:03 GMT-0500 (Central Daylight Time),848920.1000000238,B,villeg,O,g,240,1,3049.699999988079,845870.4000000358,7016,WL,B,7.0
6,27.473999977111816,distr,32526.000022888184,Tue Sep 03 2024 09:48:03 GMT-0500 (Central Daylight Time),849502.4000000358,B,villege,O,e,567,1,3632.0,845870.4000000358,7016,WL,B,7.0
6,29.623000144958496,distr,30376.999855041504,Tue Sep 03 2024 09:48:03 GMT-0500 (Central Daylight Time),851651.5,B,villeg,O,backspace,2144,1,5781.099999964237,845870.4000000358,7016,WL,B,7.0
6,29.84000015258789,distr,30159.99984741211,Tue Sep 03 2024 09:48:03 GMT-0500 (Central Daylight Time),851868.4000000358,B,ville,O,backspace,203,1,5998.0,845870.4000000358,7016,WL,B,7.0
6,31.055999994277954,distr,28944.000005722046,Tue Sep 03 2024 09:48:03 GMT-0500 (Central Daylight Time),853084.3000000119,B,vill,O,backspace,1202,1,7213.899999976158,845870.4000000358,7016,WL,B,7.0
6,31.956000089645386,distr,28043.999910354614,Tue Sep 03 2024 09:48:03 GMT-0500 (Central Daylight Time),853984.1000000238,B,vil,O,backspace,880,1,8113.699999988079,845870.4000000358,7016,WL,B,7.0
6,33.555999994277954,distr,26444.000005722046,Tue Sep 03 2024 09:48:03 GMT-0500 (Central Daylight Time),855583.9000000358,B,vill,O,l,1591,1,9713.5,845870.4000000358,7016,WL,B,7.0
6,33.871999979019165,distr,26128.000020980835,Tue Sep 03 2024 09:48:03 GMT-0500 (Central Daylight Time),855900.4000000358,B,villi,O,i,302,1,10030.0,845870.4000000358,7016,WL,B,7.0
6,34.25600004196167,distr,25743.99995803833,Tue Sep 03 2024 09:48:03 GMT-0500 (Central Daylight Time),856283.7000000477,B,villig,O,g,370,1,10413.300000011921,845870.4000000358,7016,WL,B,7.0
6,34.48900008201599,distr,25510.99991798401,Tue Sep 03 2024 09:48:03 GMT-0500 (Central Daylight Time),856516.8000000119,B,villige,O,e,219,1,10646.399999976158,845870.4000000358,7016,WL,B,7.0
6,35.705000162124634,distr,24294.999837875366,Tue Sep 03 2024 09:48:03 GMT-0500 (Central Daylight Time),857733.1000000238,B,villigeenter,O,enter,1202,1,11862.699999988079,845870.4000000358,7016,WL,B,7.0
6,38.7039999961853,distr,21296.000003814697,Tue Sep 03 2024 09:48:03 GMT-0500 (Central Daylight Time),860732.3000000119,B,c,O,c,2994,1,2998.800000011921,857733.5,7016,WL,B,8.0
6,38.97099995613098,distr,21029.00004386902,Tue Sep 03 2024 09:48:03 GMT-0500 (Central Daylight Time),860999.5,B,co,O,o,258,1,3266.0,857733.5,7016,WL,B,8.0
6,39.22099995613098,distr,20779.00004386902,Tue Sep 03 2024 09:48:03 GMT-0500 (Central Daylight Time),861248.9000000358,B,coi,O,i,231,1,3515.400000035763,857733.5,7016,WL,B,8.0
6,39.687000036239624,distr,20312.999963760376,Tue Sep 03 2024 09:48:03 GMT-0500 (Central Daylight Time),861715.4000000358,B,coin,O,n,445,1,3981.900000035763,857733.5,7016,WL,B,8.0
6,40.55400013923645,distr,19445.99986076355,Tue Sep 03 2024 09:48:03 GMT-0500 (Central Daylight Time),862581.8000000119,B,coinenter,O,enter,851,1,4848.300000011921,857733.5,7016,WL,B,8.0
6,40.95300006866455,distr,19046.99993133545,Tue Sep 03 2024 09:48:03 GMT-0500 (Central Daylight Time),862981.5,B,a,O,a,385,1,399.39999997615814,862582.1000000238,7016,WL,B,9.0
6,41.253000020980835,distr,18746.999979019165,Tue Sep 03 2024 09:48:03 GMT-0500 (Central Daylight Time),863281.3000000119,B,ar,O,r,289,1,699.1999999880791,862582.1000000238,7016,WL,B,9.0
6,42.78600001335144,distr,17213.99998664856,Tue Sep 03 2024 09:48:03 GMT-0500 (Central Daylight Time),864814.4000000358,B,arm,O,m,1517,1,2232.300000011921,862582.1000000238,7016,WL,B,9.0
6,43.28600001335144,distr,16713.99998664856,Tue Sep 03 2024 09:48:03 GMT-0500 (Central Daylight Time),865314.0,B,army,O,y,488,1,2731.899999976158,862582.1000000238,7016,WL,B,9.0
6,45.402000188827515,distr,14597.999811172485,Tue Sep 03 2024 09:48:03 GMT-0500 (Central Daylight Time),867430.0,B,armyenter,O,enter,2100,1,4847.899999976158,862582.1000000238,7016,WL,B,9.0
6,47.26800012588501,distr,12731.99987411499,Tue Sep 03 2024 09:48:03 GMT-0500 (Central Daylight Time),869296.1000000238,B,l,O,l,1857,1,1865.800000011921,867430.3000000119,7016,WL,B,10.0
6,47.51800012588501,distr,12481.99987411499,Tue Sep 03 2024 09:48:03 GMT-0500 (Central Daylight Time),869545.9000000358,B,li,O,i,238,1,2115.600000023842,867430.3000000119,7016,WL,B,10.0
6,47.8510000705719,distr,12148.9999294281,Tue Sep 03 2024 09:48:03 GMT-0500 (Central Daylight Time),869879.2000000477,B,lip,O,p,325,1,2448.900000035763,867430.3000000119,7016,WL,B,10.0
6,48.95099997520447,distr,11049.000024795532,Tue Sep 03 2024 09:48:03 GMT-0500 (Central Daylight Time),870979.1000000238,B,lipenter,O,enter,1087,1,3548.800000011921,867430.3000000119,7016,WL,B,10.0
6,58.11500000953674,distr,1884.9999904632568,Tue Sep 03 2024 09:48:03 GMT-0500 (Central Daylight Time),880142.8000000119,B,b,O,b,9148,1,9163.399999976158,870979.4000000358,7016,WL,B,11.0
6,58.38100004196167,distr,1618.99995803833,Tue Sep 03 2024 09:48:03 GMT-0500 (Central Daylight Time),880409.5,B,ba,O,a,256,1,9430.099999964237,870979.4000000358,7016,WL,B,11.0
6,58.664000034332275,distr,1335.9999656677246,Tue Sep 03 2024 09:48:03 GMT-0500 (Central Daylight Time),880692.3000000119,B,bar,O,r,277,1,9712.899999976158,870979.4000000358,7016,WL,B,11.0
6,59.5310001373291,distr,468.99986267089844,Tue Sep 03 2024 09:48:03 GMT-0500 (Central Daylight Time),881558.8000000119,B,barenter,O,enter,850,1,10579.399999976158,870979.4000000358,7016,WL,B,11.0
6,60.01400017738342,distr,-14.000177383422852,Tue Sep 03 2024 09:48:03 GMT-0500 (Central Daylight Time),882042.6000000238,B,None,O,None,479,1,483.39999997615814,881559.2000000477,7016,WL,B,12.0
7,0.8669998645782471,immed,59133.00013542175,Tue Sep 03 2024 09:48:03 GMT-0500 (Central Daylight Time),898637.0,A,s,O,s,861,1,866.5,897770.5,7016,WL,B,1.0
7,1.2839999198913574,immed,58716.00008010864,Tue Sep 03 2024 09:48:03 GMT-0500 (Central Daylight Time),899053.5,A,st,O,t,401,1,1283.0,897770.5,7016,WL,B,1.0
7,1.5499999523162842,immed,58450.000047683716,Tue Sep 03 2024 09:48:03 GMT-0500 (Central Daylight Time),899320.1000000238,A,str,O,r,257,1,1549.6000000238419,897770.5,7016,WL,B,1.0
7,1.9169998168945312,immed,58083.00018310547,Tue Sep 03 2024 09:48:03 GMT-0500 (Central Daylight Time),899686.7000000477,A,stre,O,e,359,1,1916.2000000476837,897770.5,7016,WL,B,1.0
7,2.2799999713897705,immed,57720.00002861023,Tue Sep 03 2024 09:48:03 GMT-0500 (Central Daylight Time),900050.2000000477,A,stree,O,e,211,1,2279.7000000476837,897770.5,7016,WL,B,1.0
7,2.4670000076293945,immed,57532.999992370605,Tue Sep 03 2024 09:48:03 GMT-0500 (Central Daylight Time),900236.5,A,street,O,t,172,1,2466.0,897770.5,7016,WL,B,1.0
7,3.5829999446868896,immed,56417.00005531311,Tue Sep 03 2024 09:48:03 GMT-0500 (Central Daylight Time),901352.9000000358,A,streetenter,O,enter,1106,1,3582.400000035763,897770.5,7016,WL,B,1.0
7,4.948999881744385,immed,55051.000118255615,Tue Sep 03 2024 09:48:03 GMT-0500 (Central Daylight Time),902719.1000000238,A,g,O,g,1350,1,1365.800000011921,901353.3000000119,7016,WL,B,2.0
7,5.248999834060669,immed,54751.00016593933,Tue Sep 03 2024 09:48:03 GMT-0500 (Central Daylight Time),903018.9000000358,A,gr,O,r,287,1,1665.6000000238419,901353.3000000119,7016,WL,B,2.0
7,5.615999937057495,immed,54384.000062942505,Tue Sep 03 2024 09:48:03 GMT-0500 (Central Daylight Time),903385.6000000238,A,gra,O,a,356,1,2032.300000011921,901353.3000000119,7016,WL,B,2.0
7,5.98199987411499,immed,54018.00012588501,Tue Sep 03 2024 09:48:03 GMT-0500 (Central Daylight Time),903752.0,A,gras,O,s,357,1,2398.699999988079,901353.3000000119,7016,WL,B,2.0
7,6.131999969482422,immed,53868.00003051758,Tue Sep 03 2024 09:48:03 GMT-0500 (Central Daylight Time),903902.0,A,grass,O,s,143,1,2548.699999988079,901353.3000000119,7016,WL,B,2.0
7,7.4649999141693115,immed,52535.00008583069,Tue Sep 03 2024 09:48:03 GMT-0500 (Central Daylight Time),905235.0,A,grassenter,O,enter,1313,1,3881.699999988079,901353.3000000119,7016,WL,B,2.0
7,8.347999811172485,immed,51652.000188827515,Tue Sep 03 2024 09:48:03 GMT-0500 (Central Daylight Time),906117.8000000119,A,d,O,d,876,1,882.5999999642372,905235.2000000477,7016,WL,B,3.0
7,8.664999961853027,immed,51335.00003814697,Tue Sep 03 2024 09:48:03 GMT-0500 (Central Daylight Time),906434.7000000477,A,do,O,o,297,1,1199.5,905235.2000000477,7016,WL,B,3.0
7,8.847999811172485,immed,51152.000188827515,Tue Sep 03 2024 09:48:03 GMT-0500 (Central Daylight Time),906617.8000000119,A,doo,O,o,164,1,1382.5999999642372,905235.2000000477,7016,WL,B,3.0
7,9.197999954223633,immed,50802.00004577637,Tue Sep 03 2024 09:48:03 GMT-0500 (Central Daylight Time),906967.8000000119,A,door,O,r,333,1,1732.5999999642372,905235.2000000477,7016,WL,B,3.0
7,9.980999946594238,immed,50019.00005340576,Tue Sep 03 2024 09:48:03 GMT-0500 (Central Daylight Time),907750.9000000358,A,doorenter,O,enter,775,1,2515.699999988079,905235.2000000477,7016,WL,B,3.0
7,10.730999946594238,immed,49269.00005340576,Tue Sep 03 2024 09:48:03 GMT-0500 (Central Daylight Time),908500.7000000477,A,w,O,w,744,1,749.6000000238419,907751.1000000238,7016,WL,B,4.0
7,11.030999898910522,immed,48969.00010108948,Tue Sep 03 2024 09:48:03 GMT-0500 (Central Daylight Time),908800.6000000238,A,wi,O,i,290,1,1049.5,907751.1000000238,7016,WL,B,4.0
7,11.363999843597412,immed,48636.00015640259,Tue Sep 03 2024 09:48:03 GMT-0500 (Central Daylight Time),909133.6000000238,A,win,O,n,318,1,1382.5,907751.1000000238,7016,WL,B,4.0
7,11.613999843597412,immed,48386.00015640259,Tue Sep 03 2024 09:48:03 GMT-0500 (Central Daylight Time),909383.7000000477,A,wind,O,d,241,1,1632.6000000238419,907751.1000000238,7016,WL,B,4.0
7,11.879999876022339,immed,48120.00012397766,Tue Sep 03 2024 09:48:03 GMT-0500 (Central Daylight Time),909650.1000000238,A,windo,O,o,246,1,1899.0,907751.1000000238,7016,WL,B,4.0
7,12.163999795913696,immed,47836.000204086304,Tue Sep 03 2024 09:48:03 GMT-0500 (Central Daylight Time),909933.4000000358,A,window,O,w,269,1,2182.300000011921,907751.1000000238,7016,WL,B,4.0
7,12.829999923706055,immed,47170.000076293945,Tue Sep 03 2024 09:48:03 GMT-0500 (Central Daylight Time),910599.8000000119,A,windowenter,O,enter,657,1,2848.699999988079,907751.1000000238,7016,WL,B,4.0
7,13.44599986076355,immed,46554.00013923645,Tue Sep 03 2024 09:48:03 GMT-0500 (Central Daylight Time),911216.2000000477,A,w,O,w,599,1,616.1000000238419,910600.1000000238,7016,WL,B,5.0
7,14.046000003814697,immed,45953.9999961853,Tue Sep 03 2024 09:48:03 GMT-0500 (Central Daylight Time),911816.1000000238,A,wi,O,i,582,1,1216.0,910600.1000000238,7016,WL,B,5.0
7,14.229999780654907,immed,45770.00021934509,Tue Sep 03 2024 09:48:03 GMT-0500 (Central Daylight Time),911999.5,A,wif,O,f,175,1,1399.3999999761581,910600.1000000238,7016,WL,B,5.0
7,14.712999820709229,immed,45287.00017929077,Tue Sep 03 2024 09:48:03 GMT-0500 (Central Daylight Time),912482.6000000238,A,wife,O,e,471,1,1882.5,910600.1000000238,7016,WL,B,5.0
7,15.711999893188477,immed,44288.00010681152,Tue Sep 03 2024 09:48:03 GMT-0500 (Central Daylight Time),913482.3000000119,A,wifeenter,O,enter,988,1,2882.199999988079,910600.1000000238,7016,WL,B,5.0
7,18.51199984550476,immed,41488.00015449524,Tue Sep 03 2024 09:48:03 GMT-0500 (Central Daylight Time),916281.4000000358,A,f,O,f,2780,1,2798.800000011921,913482.6000000238,7016,WL,B,6.0
7,18.794999837875366,immed,41205.000162124634,Tue Sep 03 2024 09:48:03 GMT-0500 (Central Daylight Time),916564.6000000238,A,fi,O,i,269,1,3082.0,913482.6000000238,7016,WL,B,6.0
7,19.027999877929688,immed,40972.00012207031,Tue Sep 03 2024 09:48:03 GMT-0500 (Central Daylight Time),916797.9000000358,A,fir,O,r,217,1,3315.300000011921,913482.6000000238,7016,WL,B,6.0
7,19.210999965667725,immed,40789.000034332275,Tue Sep 03 2024 09:48:03 GMT-0500 (Central Daylight Time),916981.3000000119,A,fire,O,e,168,1,3498.699999988079,913482.6000000238,7016,WL,B,6.0
7,19.92799997329712,immed,40072.00002670288,Tue Sep 03 2024 09:48:03 GMT-0500 (Central Daylight Time),917697.6000000238,A,fireenter,O,enter,697,1,4215.0,913482.6000000238,7016,WL,B,6.0
7,20.3439998626709,immed,39656.0001373291,Tue Sep 03 2024 09:48:03 GMT-0500 (Central Daylight Time),918114.2000000477,A,l,O,l,405,1,416.0,917698.2000000477,7016,WL,B,7.0
7,20.627999782562256,immed,39372.000217437744,Tue Sep 03 2024 09:48:03 GMT-0500 (Central Daylight Time),918397.4000000358,A,la,O,a,276,1,699.1999999880791,917698.2000000477,7016,WL,B,7.0
7,20.82799983024597,immed,39172.00016975403,Tue Sep 03 2024 09:48:03 GMT-0500 (Central Daylight Time),918597.4000000358,A,lak,O,k,185,1,899.1999999880791,917698.2000000477,7016,WL,B,7.0
7,21.01099991798401,immed,38989.00008201599,Tue Sep 03 2024 09:48:03 GMT-0500 (Central Daylight Time),918780.5,A,lake,O,e,177,1,1082.2999999523163,917698.2000000477,7016,WL,B,7.0
7,22.40999984741211,immed,37590.00015258789,Tue Sep 03 2024 09:48:03 GMT-0500 (Central Daylight Time),920180.2000000477,A,lakeenter,O,enter,1386,1,2482.0,917698.2000000477,7016,WL,B,7.0
7,25.008999824523926,immed,34991.000175476074,Tue Sep 03 2024 09:48:03 GMT-0500 (Central Daylight Time),922779.3000000119,A,c,O,c,2594,1,2598.599999964237,920180.7000000477,7016,WL,B,8.0
7,25.30899977684021,immed,34691.00022315979,Tue Sep 03 2024 09:48:03 GMT-0500 (Central Daylight Time),923079.2000000477,A,ci,O,i,283,1,2898.5,920180.7000000477,7016,WL,B,8.0
7,25.68999981880188,immed,34310.00018119812,Tue Sep 03 2024 09:48:03 GMT-0500 (Central Daylight Time),923459.7000000477,A,cit,O,t,375,1,3279.0,920180.7000000477,7016,WL,B,8.0
7,26.125999927520752,immed,33874.00007247925,Tue Sep 03 2024 09:48:03 GMT-0500 (Central Daylight Time),923895.5,A,city,O,y,427,1,3714.7999999523163,920180.7000000477,7016,WL,B,8.0
7,27.258999824523926,immed,32741.000175476074,Tue Sep 03 2024 09:48:03 GMT-0500 (Central Daylight Time),925028.7000000477,A,cityenter,O,enter,1119,1,4848.0,920180.7000000477,7016,WL,B,8.0
7,27.658999919891357,immed,32341.000080108643,Tue Sep 03 2024 09:48:03 GMT-0500 (Central Daylight Time),925428.7000000477,A,p,O,p,393,1,399.7000000476837,925029.0,7016,WL,B,9.0
7,28.092000007629395,immed,31907.999992370605,Tue Sep 03 2024 09:48:03 GMT-0500 (Central Daylight Time),925861.8000000119,A,pi,O,i,426,1,832.8000000119209,925029.0,7016,WL,B,9.0
7,28.557999849319458,immed,31442.000150680542,Tue Sep 03 2024 09:48:03 GMT-0500 (Central Daylight Time),926328.3000000119,A,pip,O,p,457,1,1299.300000011921,925029.0,7016,WL,B,9.0
7,28.875,immed,31125.0,Tue Sep 03 2024 09:48:03 GMT-0500 (Central Daylight Time),926644.7000000477,A,pipe,O,e,310,1,1615.7000000476837,925029.0,7016,WL,B,9.0
7,29.507999897003174,immed,30492.000102996826,Tue Sep 03 2024 09:48:03 GMT-0500 (Central Daylight Time),927278.1000000238,A,pipeenter,O,enter,618,1,2249.100000023842,925029.0,7016,WL,B,9.0
7,29.94099998474121,immed,30059.00001525879,Tue Sep 03 2024 09:48:03 GMT-0500 (Central Daylight Time),927711.3000000119,A,p,O,p,425,1,432.89999997615814,927278.4000000358,7016,WL,B,10.0
7,30.274999856948853,immed,29725.000143051147,Tue Sep 03 2024 09:48:03 GMT-0500 (Central Daylight Time),928044.4000000358,A,pu,O,u,327,1,766.0,927278.4000000358,7016,WL,B,10.0
7,30.675999879837036,immed,29324.000120162964,Tue Sep 03 2024 09:48:03 GMT-0500 (Central Daylight Time),928445.3000000119,A,pup,O,p,394,1,1166.8999999761581,927278.4000000358,7016,WL,B,10.0
7,31.62399983406067,immed,28376.00016593933,Tue Sep 03 2024 09:48:03 GMT-0500 (Central Daylight Time),929393.9000000358,A,pupi,O,i,937,1,2115.5,927278.4000000358,7016,WL,B,10.0
7,32.323999881744385,immed,27676.000118255615,Tue Sep 03 2024 09:48:03 GMT-0500 (Central Daylight Time),930093.8000000119,A,pupil,O,l,685,1,2815.399999976158,927278.4000000358,7016,WL,B,10.0
7,33.70699977874756,immed,26293.00022125244,Tue Sep 03 2024 09:48:03 GMT-0500 (Central Daylight Time),931476.7000000477,A,pupilenter,O,enter,1377,1,4198.300000011921,927278.4000000358,7016,WL,B,10.0
7,34.056999921798706,immed,25943.000078201294,Tue Sep 03 2024 09:48:03 GMT-0500 (Central Daylight Time),931826.7000000477,A,c,O,c,330,1,349.7000000476837,931477.0,7016,WL,B,11.0
7,34.25599980354309,immed,25744.00019645691,Tue Sep 03 2024 09:48:03 GMT-0500 (Central Daylight Time),932026.3000000119,A,cl,O,l,188,1,549.3000000119209,931477.0,7016,WL,B,11.0
7,34.472999811172485,immed,25527.000188827515,Tue Sep 03 2024 09:48:03 GMT-0500 (Central Daylight Time),932243.2000000477,A,clo,O,o,212,1,766.2000000476837,931477.0,7016,WL,B,11.0
7,34.74000000953674,immed,25259.999990463257,Tue Sep 03 2024 09:48:03 GMT-0500 (Central Daylight Time),932509.7000000477,A,cloc,O,c,252,1,1032.7000000476837,931477.0,7016,WL,B,11.0
7,35.9229998588562,immed,24077.0001411438,Tue Sep 03 2024 09:48:03 GMT-0500 (Central Daylight Time),933692.7000000477,A,clock,O,k,1168,1,2215.7000000476837,931477.0,7016,WL,B,11.0
7,37.40599989891052,immed,22594.000101089478,Tue Sep 03 2024 09:48:03 GMT-0500 (Central Daylight Time),935175.4000000358,A,clockenter,O,enter,1474,1,3698.400000035763,931477.0,7016,WL,B,11.0
7,37.85499978065491,immed,22145.000219345093,Tue Sep 03 2024 09:48:03 GMT-0500 (Central Daylight Time),935625.3000000119,A,c,O,c,431,1,449.5999999642372,935175.7000000477,7016,WL,B,12.0
7,38.371999979019165,immed,21628.000020980835,Tue Sep 03 2024 09:48:03 GMT-0500 (Central Daylight Time),936142.0,A,ca,O,a,509,1,966.2999999523163,935175.7000000477,7016,WL,B,12.0
7,38.67199993133545,immed,21328.00006866455,Tue Sep 03 2024 09:48:03 GMT-0500 (Central Daylight Time),936441.8000000119,A,cab,O,b,281,1,1266.0999999642372,935175.7000000477,7016,WL,B,12.0
7,38.90499997138977,immed,21095.00002861023,Tue Sep 03 2024 09:48:03 GMT-0500 (Central Daylight Time),936675.1000000238,A,cabi,O,i,229,1,1499.3999999761581,935175.7000000477,7016,WL,B,12.0
7,39.27199983596802,immed,20728.000164031982,Tue Sep 03 2024 09:48:03 GMT-0500 (Central Daylight Time),937041.5,A,cabin,O,n,347,1,1865.7999999523163,935175.7000000477,7016,WL,B,12.0
7,40.520999908447266,immed,19479.000091552734,Tue Sep 03 2024 09:48:03 GMT-0500 (Central Daylight Time),938291.0,A,cabinenter,O,enter,1229,1,3115.2999999523163,935175.7000000477,7016,WL,B,12.0
7,47.45199990272522,immed,12548.00009727478,Tue Sep 03 2024 09:48:03 GMT-0500 (Central Daylight Time),945222.1000000238,A,s,O,s,6916,1,6930.800000011921,938291.3000000119,7016,WL,B,13.0
7,47.819000005722046,immed,12180.999994277954,Tue Sep 03 2024 09:48:03 GMT-0500 (Central Daylight Time),945589.0,A,st,O,t,353,1,7297.699999988079,938291.3000000119,7016,WL,B,13.0
7,48.10199999809265,immed,11898.000001907349,Tue Sep 03 2024 09:48:03 GMT-0500 (Central Daylight Time),945872.2000000477,A,sta,O,a,274,1,7580.900000035763,938291.3000000119,7016,WL,B,13.0
7,48.28600001335144,immed,11713.99998664856,Tue Sep 03 2024 09:48:03 GMT-0500 (Central Daylight Time),946055.4000000358,A,star,O,r,166,1,7764.100000023842,938291.3000000119,7016,WL,B,13.0
7,49.03499984741211,immed,10965.00015258789,Tue Sep 03 2024 09:48:03 GMT-0500 (Central Daylight Time),946805.0,A,starenter,O,enter,735,1,8513.699999988079,938291.3000000119,7016,WL,B,13.0
7,49.48699998855591,immed,10513.000011444092,Tue Sep 03 2024 09:48:03 GMT-0500 (Central Daylight Time),947256.9000000358,A,a,O,a,441,1,451.5,946805.4000000358,7016,WL,B,14.0
7,49.91799998283386,immed,10082.000017166138,Tue Sep 03 2024 09:48:03 GMT-0500 (Central Daylight Time),947688.2000000477,A,ar,O,r,421,1,882.8000000119209,946805.4000000358,7016,WL,B,14.0
