acc_sum,block,block_c,block_cond,con_img,correct,correct_response,datetime,endtime,face,jitter,line,project,response,response_time,row_sel,session_number,start_end,starttime,subject_id,task,task_vers,trial
1,prac,1,A,haborder.png,1,m,Wed Apr 15 2026 11:00:00 GMT-0400 (Eastern Daylight Time),58501.200000000186,CFD-BM-034-035-HC.jpg,1700,solid,I,m,873,1,1,3367.2999999998137,55133.90000000037,9070,ATS,C,1
2,prac,1,A,haborder.png,1,z,Wed Apr 15 2026 11:00:00 GMT-0400 (Eastern Daylight Time),61267.800000000745,CFD-BF-002-018-A.jpg,1200,solid,I,z,766,6,1,6133.9000000003725,55133.90000000037,9070,ATS,C,2
3,prac,1,A,haborder.png,1,z,Wed Apr 15 2026 11:00:00 GMT-0400 (Eastern Daylight Time),63667.800000000745,CFD-BF-031-020-A.jpg,1000,solid,I,z,609,4,1,8533.900000000373,55133.90000000037,9070,ATS,C,3
4,prac,1,A,haborder.png,1,m,Wed Apr 15 2026 11:00:00 GMT-0400 (Eastern Daylight Time),66617.70000000019,CFD-BM-022-004-HC.jpg,1500,solid,I,m,661,3,1,11483.799999999814,55133.90000000037,9070,ATS,C,4
5,prac,1,A,haborder.png,1,z,Wed Apr 15 2026 11:00:00 GMT-0400 (Eastern Daylight Time),69701.10000000056,CFD-BM-043-014-A.jpg,1600,solid,I,z,683,2,1,14567.200000000186,55133.90000000037,9070,ATS,C,5
6,prac,1,A,haborder.png,1,z,Wed Apr 15 2026 11:00:00 GMT-0400 (Eastern Daylight Time),72117.70000000019,CFD-WF-023-013-A.jpg,1000,solid,I,z,598,12,1,16983.799999999814,55133.90000000037,9070,ATS,C,6
7,prac,1,A,haborder.png,1,m,Wed Apr 15 2026 11:00:00 GMT-0400 (Eastern Daylight Time),75134.30000000075,CFD-WF-013-009-HC.jpg,1500,solid,I,m,731,11,1,20000.400000000373,55133.90000000037,9070,ATS,C,7
8,prac,1,A,haborder.png,1,z,Wed Apr 15 2026 11:00:00 GMT-0400 (Eastern Daylight Time),78634.30000000075,CFD-WM-036-018-A.jpg,1900,solid,I,z,802,8,1,23500.400000000373,55133.90000000037,9070,ATS,C,8
9,prac,1,A,haborder.png,1,m,Wed Apr 15 2026 11:00:00 GMT-0400 (Eastern Daylight Time),81417.70000000019,CFD-WM-028-005-HC.jpg,1400,solid,I,m,594,7,1,26283.799999999814,55133.90000000037,9070,ATS,C,9
10,prac,1,A,haborder.png,1,z,Wed Apr 15 2026 11:00:00 GMT-0400 (Eastern Daylight Time),84467.70000000019,CFD-WF-037-016-A.jpg,1600,solid,I,z,659,10,1,29333.799999999814,55133.90000000037,9070,ATS,C,10
11,prac,1,A,haborder.png,1,m,Wed Apr 15 2026 11:00:00 GMT-0400 (Eastern Daylight Time),88067.80000000075,CFD-BF-019-004-HC.jpg,2000,solid,I,m,800,5,1,32933.90000000037,55133.90000000037,9070,ATS,C,11
12,prac,1,A,haborder.png,1,m,Wed Apr 15 2026 11:00:00 GMT-0400 (Eastern Daylight Time),91234.40000000037,CFD-WM-035-036-HC.jpg,1700,solid,I,m,678,9,1,36100.5,55133.90000000037,9070,ATS,C,12
0,prac,1,B,mfborder.png,0,z,Wed Apr 15 2026 11:00:00 GMT-0400 (Eastern Daylight Time),141467.5,CFD-BF-042-031-HC.jpg,1500,3,I,None,1516,dash,1,3799.699999999255,137667.80000000075,9070,ATS,C,1
1,prac,1,B,mfborder.png,1,m,Wed Apr 15 2026 11:00:00 GMT-0400 (Eastern Daylight Time),144484.30000000075,CFD-WM-035-036-HC.jpg,1600,10,I,m,617,dash,1,6816.5,137667.80000000075,9070,ATS,C,2
2,prac,1,B,mfborder.png,1,m,Wed Apr 15 2026 11:00:00 GMT-0400 (Eastern Daylight Time),147783.90000000037,CFD-BM-043-014-A.jpg,2000,5,I,m,511,dash,1,10116.099999999627,137667.80000000075,9070,ATS,C,3
3,prac,1,B,mfborder.png,1,m,Wed Apr 15 2026 11:00:00 GMT-0400 (Eastern Daylight Time),150651.0,CFD-BM-022-004-HC.jpg,1700,1,I,m,367,dash,1,12983.199999999255,137667.80000000075,9070,ATS,C,4
4,prac,1,B,mfborder.png,1,m,Wed Apr 15 2026 11:00:00 GMT-0400 (Eastern Daylight Time),153717.7000000002,CFD-WM-036-018-A.jpg,1700,9,I,m,572,dash,1,16049.899999999441,137667.80000000075,9070,ATS,C,5
4,prac,1,B,mfborder.png,0,z,Wed Apr 15 2026 11:00:00 GMT-0400 (Eastern Daylight Time),156751.0,CFD-WF-037-016-A.jpg,1500,11,I,m,739,dash,1,19083.199999999255,137667.80000000075,9070,ATS,C,6
5,prac,1,B,mfborder.png,1,m,Wed Apr 15 2026 11:00:00 GMT-0400 (Eastern Daylight Time),160101.10000000056,CFD-BM-021-026-A.jpg,1600,2,I,m,965,dash,1,22433.299999999814,137667.80000000075,9070,ATS,C,7
6,prac,1,B,mfborder.png,1,z,Wed Apr 15 2026 11:00:00 GMT-0400 (Eastern Daylight Time),162951.2000000002,CFD-BF-031-020-A.jpg,1000,4,I,z,1063,dash,1,25283.39999999944,137667.80000000075,9070,ATS,C,8
7,prac,1,B,mfborder.png,1,m,Wed Apr 15 2026 11:00:00 GMT-0400 (Eastern Daylight Time),166034.40000000037,CFD-WM-034-040-A.jpg,1200,6,I,m,1093,dash,1,28366.599999999627,137667.80000000075,9070,ATS,C,9
8,prac,1,B,mfborder.png,1,z,Wed Apr 15 2026 11:00:00 GMT-0400 (Eastern Daylight Time),168700.7000000002,CFD-WF-013-009-HC.jpg,1000,12,I,z,875,dash,1,31032.89999999944,137667.80000000075,9070,ATS,C,10
9,prac,1,B,mfborder.png,1,z,Wed Apr 15 2026 11:00:00 GMT-0400 (Eastern Daylight Time),172401.10000000056,CFD-WF-001-010-HC.jpg,1900,8,I,z,1010,dash,1,34733.299999999814,137667.80000000075,9070,ATS,C,11
10,prac,1,B,mfborder.png,1,z,Wed Apr 15 2026 11:00:00 GMT-0400 (Eastern Daylight Time),175167.60000000056,CFD-BF-019-004-HC.jpg,1400,7,I,z,570,dash,1,37499.799999999814,137667.80000000075,9070,ATS,C,12
1,test,1,A,haborder.png,1,m,Wed Apr 15 2026 11:00:00 GMT-0400 (Eastern Daylight Time),213801.0,CFD-WM-035-036-HC.jpg,1700,solid,I,m,712,9,1,2433.5999999996275,211367.40000000037,9070,ATS,C,1
2,test,1,A,haborder.png,1,z,Wed Apr 15 2026 11:00:00 GMT-0400 (Eastern Daylight Time),216267.7000000002,CFD-BM-043-014-A.jpg,1600,solid,I,z,843,2,1,4900.299999999814,211367.40000000037,9070,ATS,C,2
3,test,1,A,haborder.png,1,z,Wed Apr 15 2026 11:00:00 GMT-0400 (Eastern Daylight Time),218684.2000000002,CFD-WF-037-016-A.jpg,1600,solid,I,z,792,10,1,7316.799999999814,211367.40000000037,9070,ATS,C,3
4,test,1,A,haborder.png,1,m,Wed Apr 15 2026 11:00:00 GMT-0400 (Eastern Daylight Time),221734.5,CFD-BF-019-004-HC.jpg,2000,solid,I,m,1032,5,1,10367.099999999627,211367.40000000037,9070,ATS,C,4
5,test,1,A,haborder.png,1,z,Wed Apr 15 2026 11:00:00 GMT-0400 (Eastern Daylight Time),224184.30000000075,CFD-WF-037-016-A.jpg,1600,solid,I,z,829,10,1,12816.900000000373,211367.40000000037,9070,ATS,C,5
6,test,1,A,haborder.png,1,m,Wed Apr 15 2026 11:00:00 GMT-0400 (Eastern Daylight Time),226584.2000000002,CFD-BM-034-035-HC.jpg,1700,solid,I,m,680,1,1,15216.799999999814,211367.40000000037,9070,ATS,C,6
7,test,1,A,haborder.png,1,m,Wed Apr 15 2026 11:00:00 GMT-0400 (Eastern Daylight Time),228834.30000000075,CFD-WM-028-005-HC.jpg,1400,solid,I,m,828,7,1,17466.900000000373,211367.40000000037,9070,ATS,C,7
8,test,1,A,haborder.png,1,z,Wed Apr 15 2026 11:00:00 GMT-0400 (Eastern Daylight Time),230617.60000000056,CFD-BF-031-020-A.jpg,1000,solid,I,z,754,4,1,19250.200000000186,211367.40000000037,9070,ATS,C,8
9,test,1,A,haborder.png,1,m,Wed Apr 15 2026 11:00:00 GMT-0400 (Eastern Daylight Time),232817.40000000037,CFD-BM-022-004-HC.jpg,1500,solid,I,m,679,3,1,21450.0,211367.40000000037,9070,ATS,C,9
10,test,1,A,haborder.png,1,m,Wed Apr 15 2026 11:00:00 GMT-0400 (Eastern Daylight Time),235067.60000000056,CFD-BM-022-004-HC.jpg,1500,solid,I,m,718,3,1,23700.200000000186,211367.40000000037,9070,ATS,C,10
11,test,1,A,haborder.png,1,z,Wed Apr 15 2026 11:00:00 GMT-0400 (Eastern Daylight Time),236767.40000000037,CFD-WF-023-013-A.jpg,1000,solid,I,z,672,12,1,25400.0,211367.40000000037,9070,ATS,C,11
12,test,1,A,haborder.png,1,m,Wed Apr 15 2026 11:00:00 GMT-0400 (Eastern Daylight Time),238950.90000000037,CFD-WF-013-009-HC.jpg,1500,solid,I,m,665,11,1,27583.5,211367.40000000037,9070,ATS,C,12
13,test,1,A,haborder.png,1,z,Wed Apr 15 2026 11:00:00 GMT-0400 (Eastern Daylight Time),241650.80000000075,CFD-WM-036-018-A.jpg,1900,solid,I,z,777,8,1,30283.400000000373,211367.40000000037,9070,ATS,C,13
14,test,1,A,haborder.png,1,z,Wed Apr 15 2026 11:00:00 GMT-0400 (Eastern Daylight Time),243700.60000000056,CFD-WF-023-013-A.jpg,1000,solid,I,z,1017,12,1,32333.200000000186,211367.40000000037,9070,ATS,C,14
15,test,1,A,haborder.png,1,z,Wed Apr 15 2026 11:00:00 GMT-0400 (Eastern Daylight Time),246084.0,CFD-BF-002-018-A.jpg,1200,solid,I,z,1151,6,1,34716.59999999963,211367.40000000037,9070,ATS,C,15
16,test,1,A,haborder.png,1,m,Wed Apr 15 2026 11:00:00 GMT-0400 (Eastern Daylight Time),248450.90000000037,CFD-WM-035-036-HC.jpg,1700,solid,I,m,643,9,1,37083.5,211367.40000000037,9070,ATS,C,16
17,test,1,A,haborder.png,1,z,Wed Apr 15 2026 11:00:00 GMT-0400 (Eastern Daylight Time),251134.2000000002,CFD-WM-036-018-A.jpg,1900,solid,I,z,757,8,1,39766.799999999814,211367.40000000037,9070,ATS,C,17
18,test,1,A,haborder.png,1,m,Wed Apr 15 2026 11:00:00 GMT-0400 (Eastern Daylight Time),253217.5,CFD-WM-028-005-HC.jpg,1400,solid,I,m,663,7,1,41850.09999999963,211367.40000000037,9070,ATS,C,18
19,test,1,A,haborder.png,1,z,Wed Apr 15 2026 11:00:00 GMT-0400 (Eastern Daylight Time),254952.0,CFD-BF-031-020-A.jpg,1000,solid,I,z,715,4,1,43584.59999999963,211367.40000000037,9070,ATS,C,19
20,test,1,A,haborder.png,1,m,Wed Apr 15 2026 11:00:00 GMT-0400 (Eastern Daylight Time),257334.60000000056,CFD-BM-034-035-HC.jpg,1700,solid,I,m,657,1,1,45967.200000000186,211367.40000000037,9070,ATS,C,20
20,test,1,A,haborder.png,0,z,Wed Apr 15 2026 11:00:00 GMT-0400 (Eastern Daylight Time),260068.0,CFD-BF-002-018-A.jpg,1200,solid,I,None,1516,6,1,48700.59999999963,211367.40000000037,9070,ATS,C,21
21,test,1,A,haborder.png,1,m,Wed Apr 15 2026 11:00:00 GMT-0400 (Eastern Daylight Time),262250.80000000075,CFD-WF-013-009-HC.jpg,1500,solid,I,m,652,11,1,50883.40000000037,211367.40000000037,9070,ATS,C,22
22,test,1,A,haborder.png,1,m,Wed Apr 15 2026 11:00:00 GMT-0400 (Eastern Daylight Time),265100.9000000004,CFD-BF-019-004-HC.jpg,2000,solid,I,m,817,5,1,53733.5,211367.40000000037,9070,ATS,C,23
22,test,1,A,haborder.png,0,z,Wed Apr 15 2026 11:00:00 GMT-0400 (Eastern Daylight Time),267684.4000000004,CFD-BM-043-014-A.jpg,1600,solid,I,m,959,2,1,56317.0,211367.40000000037,9070,ATS,C,24
1,test,1,B,mfborder.png,1,m,Wed Apr 15 2026 11:00:00 GMT-0400 (Eastern Daylight Time),284917.80000000075,CFD-WM-036-018-A.jpg,1700,dash,I,m,866,9,1,2583.4000000003725,282334.4000000004,9070,ATS,C,1
2,test,1,B,mfborder.png,1,m,Wed Apr 15 2026 11:00:00 GMT-0400 (Eastern Daylight Time),287317.60000000056,CFD-BM-022-004-HC.jpg,1700,dash,I,m,674,1,1,4983.200000000186,282334.4000000004,9070,ATS,C,2
3,test,1,B,mfborder.png,1,z,Wed Apr 15 2026 11:00:00 GMT-0400 (Eastern Daylight Time),288934.0,CFD-WF-013-009-HC.jpg,1000,dash,I,z,598,12,1,6599.5999999996275,282334.4000000004,9070,ATS,C,3
4,test,1,B,mfborder.png,1,z,Wed Apr 15 2026 11:00:00 GMT-0400 (Eastern Daylight Time),291050.80000000075,CFD-BF-042-031-HC.jpg,1500,dash,I,z,585,3,1,8716.400000000373,282334.4000000004,9070,ATS,C,4
5,test,1,B,mfborder.png,1,m,Wed Apr 15 2026 11:00:00 GMT-0400 (Eastern Daylight Time),293383.9000000004,CFD-BM-022-004-HC.jpg,1700,dash,I,m,613,1,1,11049.5,282334.4000000004,9070,ATS,C,5
6,test,1,B,mfborder.png,1,m,Wed Apr 15 2026 11:00:00 GMT-0400 (Eastern Daylight Time),295667.60000000056,CFD-WM-035-036-HC.jpg,1600,dash,I,m,659,10,1,13333.200000000186,282334.4000000004,9070,ATS,C,6
7,test,1,B,mfborder.png,1,z,Wed Apr 15 2026 11:00:00 GMT-0400 (Eastern Daylight Time),297317.5,CFD-BF-031-020-A.jpg,1000,dash,I,z,624,4,1,14983.099999999627,282334.4000000004,9070,ATS,C,7
8,test,1,B,mfborder.png,1,m,Wed Apr 15 2026 11:00:00 GMT-0400 (Eastern Daylight Time),299117.4000000004,CFD-WM-034-040-A.jpg,1200,dash,I,m,583,6,1,16783.0,282334.4000000004,9070,ATS,C,8
9,test,1,B,mfborder.png,1,m,Wed Apr 15 2026 11:00:00 GMT-0400 (Eastern Daylight Time),301717.60000000056,CFD-BM-043-014-A.jpg,2000,dash,I,m,575,5,1,19383.200000000186,282334.4000000004,9070,ATS,C,9
10,test,1,B,mfborder.png,1,z,Wed Apr 15 2026 11:00:00 GMT-0400 (Eastern Daylight Time),303884.2000000002,CFD-BF-019-004-HC.jpg,1400,dash,I,z,734,7,1,21549.799999999814,282334.4000000004,9070,ATS,C,10
11,test,1,B,mfborder.png,1,m,Wed Apr 15 2026 11:00:00 GMT-0400 (Eastern Daylight Time),305767.5,CFD-WM-034-040-A.jpg,1200,dash,I,m,655,6,1,23433.099999999627,282334.4000000004,9070,ATS,C,11
12,test,1,B,mfborder.png,1,z,Wed Apr 15 2026 11:00:00 GMT-0400 (Eastern Daylight Time),307984.30000000075,CFD-BF-042-031-HC.jpg,1500,dash,I,z,696,3,1,25649.900000000373,282334.4000000004,9070,ATS,C,12
13,test,1,B,mfborder.png,1,z,Wed Apr 15 2026 11:00:00 GMT-0400 (Eastern Daylight Time),309550.9000000004,CFD-WF-013-009-HC.jpg,1000,dash,I,z,539,12,1,27216.5,282334.4000000004,9070,ATS,C,13
14,test,1,B,mfborder.png,1,m,Wed Apr 15 2026 11:00:00 GMT-0400 (Eastern Daylight Time),312017.4000000004,CFD-WM-036-018-A.jpg,1700,dash,I,m,745,9,1,29683.0,282334.4000000004,9070,ATS,C,14
15,test,1,B,mfborder.png,1,z,Wed Apr 15 2026 11:00:00 GMT-0400 (Eastern Daylight Time),314284.5,CFD-WF-037-016-A.jpg,1500,dash,I,z,735,11,1,31950.099999999627,282334.4000000004,9070,ATS,C,15
16,test,1,B,mfborder.png,1,m,Wed Apr 15 2026 11:00:00 GMT-0400 (Eastern Daylight Time),316950.60000000056,CFD-BM-043-014-A.jpg,2000,dash,I,m,639,5,1,34616.200000000186,282334.4000000004,9070,ATS,C,16
17,test,1,B,mfborder.png,1,z,Wed Apr 15 2026 11:00:00 GMT-0400 (Eastern Daylight Time),318600.9000000004,CFD-BF-031-020-A.jpg,1000,dash,I,z,620,4,1,36266.5,282334.4000000004,9070,ATS,C,17
18,test,1,B,mfborder.png,1,z,Wed Apr 15 2026 11:00:00 GMT-0400 (Eastern Daylight Time),321017.7000000002,CFD-WF-037-016-A.jpg,1500,dash,I,z,886,11,1,38683.299999999814,282334.4000000004,9070,ATS,C,18
19,test,1,B,mfborder.png,1,z,Wed Apr 15 2026 11:00:00 GMT-0400 (Eastern Daylight Time),323884.0,CFD-WF-001-010-HC.jpg,1900,dash,I,z,934,8,1,41549.59999999963,282334.4000000004,9070,ATS,C,19
20,test,1,B,mfborder.png,1,m,Wed Apr 15 2026 11:00:00 GMT-0400 (Eastern Daylight Time),326167.60000000056,CFD-BM-021-026-A.jpg,1600,dash,I,m,656,2,1,43833.200000000186,282334.4000000004,9070,ATS,C,20
21,test,1,B,mfborder.png,1,z,Wed Apr 15 2026 11:00:00 GMT-0400 (Eastern Daylight Time),328250.9000000004,CFD-BF-019-004-HC.jpg,1400,dash,I,z,652,7,1,45916.5,282334.4000000004,9070,ATS,C,21
22,test,1,B,mfborder.png,1,m,Wed Apr 15 2026 11:00:00 GMT-0400 (Eastern Daylight Time),330617.5,CFD-WM-035-036-HC.jpg,1600,dash,I,m,736,10,1,48283.09999999963,282334.4000000004,9070,ATS,C,22
23,test,1,B,mfborder.png,1,m,Wed Apr 15 2026 11:00:00 GMT-0400 (Eastern Daylight Time),332934.30000000075,CFD-BM-021-026-A.jpg,1600,dash,I,m,690,2,1,50599.90000000037,282334.4000000004,9070,ATS,C,23
24,test,1,B,mfborder.png,1,z,Wed Apr 15 2026 11:00:00 GMT-0400 (Eastern Daylight Time),335584.30000000075,CFD-WF-001-010-HC.jpg,1900,dash,I,z,729,8,1,53249.90000000037,282334.4000000004,9070,ATS,C,24
1,prac,1,C,mfborder.png,1,z,Wed Apr 15 2026 11:00:00 GMT-0400 (Eastern Daylight Time),410784.2000000002,CFD-WF-023-013-A.jpg,1500,solid,I,z,1037,8,1,3333.2000000001863,407451.0,9070,ATS,C,1
2,prac,1,C,haborder.png,1,m,Wed Apr 15 2026 11:00:00 GMT-0400 (Eastern Daylight Time),414133.9000000004,CFD-WM-028-005-HC.jpg,1400,solid,I,m,1154,8,1,6682.9000000003725,407451.0,9070,ATS,C,2
2,prac,1,C,haborder.png,0,z,Wed Apr 15 2026 11:00:00 GMT-0400 (Eastern Daylight Time),418334.30000000075,CFD-BF-031-020-A.jpg,1900,dash,I,None,1517,8,1,10883.300000000745,407451.0,9070,ATS,C,3
3,prac,1,C,haborder.png,1,m,Wed Apr 15 2026 11:00:00 GMT-0400 (Eastern Daylight Time),421517.80000000075,CFD-BM-022-004-HC.jpg,1500,solid,I,m,891,8,1,14066.800000000745,407451.0,9070,ATS,C,4
4,prac,1,C,mfborder.png,1,m,Wed Apr 15 2026 11:00:00 GMT-0400 (Eastern Daylight Time),425301.0,CFD-BM-034-035-HC.jpg,2000,solid,I,m,990,8,1,17850.0,407451.0,9070,ATS,C,5
5,prac,1,C,mfborder.png,1,z,Wed Apr 15 2026 11:00:00 GMT-0400 (Eastern Daylight Time),427951.10000000056,CFD-BF-019-004-HC.jpg,1000,dash,I,z,838,8,1,20500.10000000056,407451.0,9070,ATS,C,6
6,prac,1,C,mfborder.png,1,m,Wed Apr 15 2026 11:00:00 GMT-0400 (Eastern Daylight Time),430901.0,CFD-BM-043-014-A.jpg,1200,dash,I,m,965,8,1,23450.0,407451.0,9070,ATS,C,7
7,prac,1,C,haborder.png,1,m,Wed Apr 15 2026 11:00:00 GMT-0400 (Eastern Daylight Time),434117.80000000075,CFD-WM-028-005-HC.jpg,1000,dash,I,m,1423,8,1,26666.800000000745,407451.0,9070,ATS,C,8
8,prac,1,C,mfborder.png,1,m,Wed Apr 15 2026 11:00:00 GMT-0400 (Eastern Daylight Time),437767.80000000075,CFD-WM-036-018-A.jpg,1700,solid,I,m,1162,8,1,30316.800000000745,407451.0,9070,ATS,C,9
9,prac,1,C,mfborder.png,1,z,Wed Apr 15 2026 11:00:00 GMT-0400 (Eastern Daylight Time),440934.4000000004,CFD-WF-013-009-HC.jpg,1600,dash,I,z,772,8,1,33483.40000000037,407451.0,9070,ATS,C,10
10,prac,1,C,haborder.png,1,z,Wed Apr 15 2026 11:00:00 GMT-0400 (Eastern Daylight Time),444484.4000000004,CFD-WF-037-016-A.jpg,1600,dash,I,z,1167,8,1,37033.40000000037,407451.0,9070,ATS,C,11
10,prac,1,C,haborder.png,0,z,Wed Apr 15 2026 11:00:00 GMT-0400 (Eastern Daylight Time),448500.9000000004,CFD-BF-002-018-A.jpg,1700,solid,I,None,1516,8,1,41049.90000000037,407451.0,9070,ATS,C,12
1,test,1,C,mfborder.png,1,m,Wed Apr 15 2026 11:00:00 GMT-0400 (Eastern Daylight Time),466217.80000000075,CFD-WM-034-040-A.jpg,2000,dash,I,m,1270,5,1,3299.9000000003725,462917.9000000004,9070,ATS,C,1
2,test,1,C,haborder.png,1,z,Wed Apr 15 2026 11:00:00 GMT-0400 (Eastern Daylight Time),469034.30000000075,CFD-WM-036-018-A.jpg,1400,solid,I,z,1387,7,1,6116.4000000003725,462917.9000000004,9070,ATS,C,2
2,test,1,C,haborder.png,0,m,Wed Apr 15 2026 11:00:00 GMT-0400 (Eastern Daylight Time),471768.30000000075,CFD-WF-001-010-HC.jpg,1500,solid,I,z,1205,11,1,8850.400000000373,462917.9000000004,9070,ATS,C,3
2,test,1,C,mfborder.png,0,m,Wed Apr 15 2026 11:00:00 GMT-0400 (Eastern Daylight Time),474501.10000000056,CFD-BM-022-004-HC.jpg,1200,dash,I,None,1516,6,1,11583.200000000186,462917.9000000004,9070,ATS,C,4
3,test,1,C,mfborder.png,1,m,Wed Apr 15 2026 11:00:00 GMT-0400 (Eastern Daylight Time),477534.2000000002,CFD-WM-034-040-A.jpg,2000,dash,I,m,1015,5,1,14616.299999999814,462917.9000000004,9070,ATS,C,5
4,test,1,C,mfborder.png,1,z,Wed Apr 15 2026 11:00:00 GMT-0400 (Eastern Daylight Time),479800.9000000004,CFD-BF-031-020-A.jpg,1600,dash,I,z,637,2,1,16883.0,462917.9000000004,9070,ATS,C,6
5,test,1,C,mfborder.png,1,m,Wed Apr 15 2026 11:00:00 GMT-0400 (Eastern Daylight Time),481701.0,CFD-WM-035-036-HC.jpg,1000,dash,I,m,867,4,1,18783.099999999627,462917.9000000004,9070,ATS,C,7
6,test,1,C,haborder.png,1,m,Wed Apr 15 2026 11:00:00 GMT-0400 (Eastern Daylight Time),484401.0,CFD-BF-019-004-HC.jpg,1600,solid,I,m,1071,10,1,21483.099999999627,462917.9000000004,9070,ATS,C,8
7,test,1,C,haborder.png,1,m,Wed Apr 15 2026 11:00:00 GMT-0400 (Eastern Daylight Time),487000.9000000004,CFD-WF-001-010-HC.jpg,1500,solid,I,m,1071,11,1,24083.0,462917.9000000004,9070,ATS,C,9
8,test,1,C,mfborder.png,1,m,Wed Apr 15 2026 11:00:00 GMT-0400 (Eastern Daylight Time),488950.80000000075,CFD-BM-022-004-HC.jpg,1200,dash,I,m,731,6,1,26032.900000000373,462917.9000000004,9070,ATS,C,10
9,test,1,C,haborder.png,1,m,Wed Apr 15 2026 11:00:00 GMT-0400 (Eastern Daylight Time),491001.10000000056,CFD-WF-013-009-HC.jpg,1000,solid,I,m,1021,12,1,28083.200000000186,462917.9000000004,9070,ATS,C,11
9,test,1,C,haborder.png,0,z,Wed Apr 15 2026 11:00:00 GMT-0400 (Eastern Daylight Time),493518.4000000004,CFD-BM-021-026-A.jpg,1700,solid,I,m,798,9,1,30600.5,462917.9000000004,9070,ATS,C,12
9,test,1,C,haborder.png,0,z,Wed Apr 15 2026 11:00:00 GMT-0400 (Eastern Daylight Time),496234.2000000002,CFD-BM-043-014-A.jpg,1900,solid,I,m,786,8,1,33316.299999999814,462917.9000000004,9070,ATS,C,13
9,test,1,C,haborder.png,0,z,Wed Apr 15 2026 11:00:00 GMT-0400 (Eastern Daylight Time),498901.10000000056,CFD-BM-043-014-A.jpg,1900,solid,I,m,734,8,1,35983.200000000186,462917.9000000004,9070,ATS,C,14
9,test,1,C,mfborder.png,0,z,Wed Apr 15 2026 11:00:00 GMT-0400 (Eastern Daylight Time),501934.4000000004,CFD-WF-037-016-A.jpg,1500,dash,I,None,1516,3,1,39016.5,462917.9000000004,9070,ATS,C,15
9,test,1,C,haborder.png,0,z,Wed Apr 15 2026 11:00:00 GMT-0400 (Eastern Daylight Time),504834.30000000075,CFD-BM-021-026-A.jpg,1700,solid,I,m,1169,9,1,41916.40000000037,462917.9000000004,9070,ATS,C,16
10,test,1,C,mfborder.png,1,z,Wed Apr 15 2026 11:00:00 GMT-0400 (Eastern Daylight Time),507517.2000000002,CFD-BF-042-031-HC.jpg,1700,dash,I,z,965,1,1,44599.299999999814,462917.9000000004,9070,ATS,C,17
11,test,1,C,mfborder.png,1,z,Wed Apr 15 2026 11:00:00 GMT-0400 (Eastern Daylight Time),510450.9000000004,CFD-WF-037-016-A.jpg,1500,dash,I,z,1402,3,1,47533.0,462917.9000000004,9070,ATS,C,18
11,test,1,C,haborder.png,0,z,Wed Apr 15 2026 11:00:00 GMT-0400 (Eastern Daylight Time),513384.9000000004,CFD-WM-036-018-A.jpg,1400,solid,I,None,1517,7,1,50467.0,462917.9000000004,9070,ATS,C,19
12,test,1,C,mfborder.png,1,z,Wed Apr 15 2026 11:00:00 GMT-0400 (Eastern Daylight Time),516101.10000000056,CFD-BF-042-031-HC.jpg,1700,dash,I,z,984,1,1,53183.200000000186,462917.9000000004,9070,ATS,C,20
13,test,1,C,mfborder.png,1,z,Wed Apr 15 2026 11:00:00 GMT-0400 (Eastern Daylight Time),518700.9000000004,CFD-BF-031-020-A.jpg,1600,dash,I,z,975,2,1,55783.0,462917.9000000004,9070,ATS,C,21
14,test,1,C,mfborder.png,1,m,Wed Apr 15 2026 11:00:00 GMT-0400 (Eastern Daylight Time),520467.5,CFD-WM-035-036-HC.jpg,1000,dash,I,m,735,4,1,57549.59999999963,462917.9000000004,9070,ATS,C,22
14,test,1,C,haborder.png,0,m,Wed Apr 15 2026 11:00:00 GMT-0400 (Eastern Daylight Time),522867.60000000056,CFD-WF-013-009-HC.jpg,1000,solid,I,z,1368,12,1,59949.700000000186,462917.9000000004,9070,ATS,C,23
15,test,1,C,haborder.png,1,m,Wed Apr 15 2026 11:00:00 GMT-0400 (Eastern Daylight Time),525517.6000000006,CFD-BF-019-004-HC.jpg,1600,solid,I,m,1016,10,1,62599.700000000186,462917.9000000004,9070,ATS,C,24
1,test,2,C,mfborder.png,1,m,Wed Apr 15 2026 11:00:00 GMT-0400 (Eastern Daylight Time),537167.8000000007,CFD-BM-043-014-A.jpg,2000,dash,I,m,989,5,1,3016.800000000745,534151.0,9070,ATS,C,1
2,test,2,C,haborder.png,1,m,Wed Apr 15 2026 11:00:00 GMT-0400 (Eastern Daylight Time),539650.9000000004,CFD-BM-022-004-HC.jpg,1600,solid,I,m,860,10,1,5499.9000000003725,534151.0,9070,ATS,C,2
3,test,2,C,mfborder.png,1,m,Wed Apr 15 2026 11:00:00 GMT-0400 (Eastern Daylight Time),541784.1000000006,CFD-WM-036-018-A.jpg,1200,dash,I,m,904,6,1,7633.100000000559,534151.0,9070,ATS,C,3
3,test,2,C,haborder.png,0,z,Wed Apr 15 2026 11:00:00 GMT-0400 (Eastern Daylight Time),544717.9000000004,CFD-BF-031-020-A.jpg,1400,solid,I,None,1517,7,1,10566.900000000373,534151.0,9070,ATS,C,4
4,test,2,C,haborder.png,1,z,Wed Apr 15 2026 11:00:00 GMT-0400 (Eastern Daylight Time),547467.5,CFD-WF-037-016-A.jpg,1700,solid,I,z,1027,9,1,13316.5,534151.0,9070,ATS,C,5
4,test,2,C,mfborder.png,0,z,Wed Apr 15 2026 11:00:00 GMT-0400 (Eastern Daylight Time),549984.1000000006,CFD-WF-023-013-A.jpg,1600,dash,I,m,888,2,1,15833.100000000559,534151.0,9070,ATS,C,6
5,test,2,C,mfborder.png,1,m,Wed Apr 15 2026 11:00:00 GMT-0400 (Eastern Daylight Time),551684.3000000007,CFD-BM-034-035-HC.jpg,1000,dash,I,m,668,4,1,17533.300000000745,534151.0,9070,ATS,C,7
6,test,2,C,haborder.png,1,m,Wed Apr 15 2026 11:00:00 GMT-0400 (Eastern Daylight Time),554150.7000000002,CFD-WM-028-005-HC.jpg,1500,solid,I,m,948,11,1,19999.700000000186,534151.0,9070,ATS,C,8
7,test,2,C,haborder.png,1,z,Wed Apr 15 2026 11:00:00 GMT-0400 (Eastern Daylight Time),557084.3000000007,CFD-WF-037-016-A.jpg,1700,solid,I,z,1201,9,1,22933.300000000745,534151.0,9070,ATS,C,9
7,test,2,C,mfborder.png,0,z,Wed Apr 15 2026 11:00:00 GMT-0400 (Eastern Daylight Time),559767.5,CFD-WF-013-009-HC.jpg,1700,dash,I,m,964,1,1,25616.5,534151.0,9070,ATS,C,10
8,test,2,C,haborder.png,1,m,Wed Apr 15 2026 11:00:00 GMT-0400 (Eastern Daylight Time),562017.6000000006,CFD-WM-028-005-HC.jpg,1000,solid,I,m,1220,12,1,27866.60000000056,534151.0,9070,ATS,C,11
9,test,2,C,mfborder.png,1,z,Wed Apr 15 2026 11:00:00 GMT-0400 (Eastern Daylight Time),564300.9000000004,CFD-BF-019-004-HC.jpg,1500,dash,I,z,758,3,1,30149.900000000373,534151.0,9070,ATS,C,12
10,test,2,C,mfborder.png,1,m,Wed Apr 15 2026 11:00:00 GMT-0400 (Eastern Daylight Time),566084.4000000004,CFD-BM-034-035-HC.jpg,1000,dash,I,m,759,4,1,31933.400000000373,534151.0,9070,ATS,C,13
11,test,2,C,mfborder.png,1,z,Wed Apr 15 2026 11:00:00 GMT-0400 (Eastern Daylight Time),568317.7000000002,CFD-BF-019-004-HC.jpg,1500,dash,I,z,716,3,1,34166.700000000186,534151.0,9070,ATS,C,14
12,test,2,C,mfborder.png,1,z,Wed Apr 15 2026 11:00:00 GMT-0400 (Eastern Daylight Time),570800.9000000004,CFD-WF-023-013-A.jpg,1600,dash,I,z,862,2,1,36649.90000000037,534151.0,9070,ATS,C,15
12,test,2,C,haborder.png,0,z,Wed Apr 15 2026 11:00:00 GMT-0400 (Eastern Daylight Time),574150.8000000007,CFD-BF-002-018-A.jpg,1900,solid,I,m,1431,8,1,39999.800000000745,534151.0,9070,ATS,C,16
13,test,2,C,haborder.png,1,m,Wed Apr 15 2026 11:00:00 GMT-0400 (Eastern Daylight Time),575967.5,CFD-WM-028-005-HC.jpg,1000,solid,I,m,789,12,1,41816.5,534151.0,9070,ATS,C,17
14,test,2,C,mfborder.png,1,z,Wed Apr 15 2026 11:00:00 GMT-0400 (Eastern Daylight Time),578467.5,CFD-WF-013-009-HC.jpg,1700,dash,I,z,775,1,1,44316.5,534151.0,9070,ATS,C,18
15,test,2,C,haborder.png,1,m,Wed Apr 15 2026 11:00:00 GMT-0400 (Eastern Daylight Time),580900.9000000004,CFD-WM-028-005-HC.jpg,1500,solid,I,m,900,11,1,46749.90000000037,534151.0,9070,ATS,C,19
16,test,2,C,haborder.png,1,m,Wed Apr 15 2026 11:00:00 GMT-0400 (Eastern Daylight Time),583184.1000000006,CFD-BM-022-004-HC.jpg,1600,solid,I,m,662,10,1,49033.10000000056,534151.0,9070,ATS,C,20
17,test,2,C,haborder.png,1,z,Wed Apr 15 2026 11:00:00 GMT-0400 (Eastern Daylight Time),585967.7000000002,CFD-BF-031-020-A.jpg,1400,solid,I,z,1364,7,1,51816.700000000186,534151.0,9070,ATS,C,21
18,test,2,C,haborder.png,1,z,Wed Apr 15 2026 11:00:00 GMT-0400 (Eastern Daylight Time),589217.5,CFD-BF-002-018-A.jpg,1900,solid,I,z,1320,8,1,55066.5,534151.0,9070,ATS,C,22
19,test,2,C,mfborder.png,1,m,Wed Apr 15 2026 11:00:00 GMT-0400 (Eastern Daylight Time),591201.0,CFD-WM-036-018-A.jpg,1200,dash,I,m,754,6,1,57050.0,534151.0,9070,ATS,C,23
20,test,2,C,mfborder.png,1,m,Wed Apr 15 2026 11:00:00 GMT-0400 (Eastern Daylight Time),593934.3000000007,CFD-BM-043-014-A.jpg,2000,dash,I,m,707,5,1,59783.300000000745,534151.0,9070,ATS,C,24
0,test,3,C,haborder.png,0,m,Wed Apr 15 2026 11:00:00 GMT-0400 (Eastern Daylight Time),601784.3000000007,CFD-BF-019-004-HC.jpg,1600,solid,I,z,1080,10,1,2699.7000000001863,599084.6000000006,9070,ATS,C,1
1,test,3,C,mfborder.png,1,z,Wed Apr 15 2026 11:00:00 GMT-0400 (Eastern Daylight Time),604067.5,CFD-WF-037-016-A.jpg,1500,dash,I,z,752,3,1,4982.899999999441,599084.6000000006,9070,ATS,C,2
1,test,3,C,mfborder.png,0,z,Wed Apr 15 2026 11:00:00 GMT-0400 (Eastern Daylight Time),607202.0,CFD-BF-031-020-A.jpg,1600,dash,I,None,1516,2,1,8117.399999999441,599084.6000000006,9070,ATS,C,3
2,test,3,C,mfborder.png,1,m,Wed Apr 15 2026 11:00:00 GMT-0400 (Eastern Daylight Time),609134.9000000004,CFD-BM-022-004-HC.jpg,1200,dash,I,m,715,6,1,10050.299999999814,599084.6000000006,9070,ATS,C,4
3,test,3,C,mfborder.png,1,m,Wed Apr 15 2026 11:00:00 GMT-0400 (Eastern Daylight Time),610934.3000000007,CFD-BM-022-004-HC.jpg,1200,dash,I,m,574,6,1,11849.700000000186,599084.6000000006,9070,ATS,C,5
3,test,3,C,haborder.png,0,m,Wed Apr 15 2026 11:00:00 GMT-0400 (Eastern Daylight Time),613401.0,CFD-BF-019-004-HC.jpg,1600,solid,I,z,838,10,1,14316.399999999441,599084.6000000006,9070,ATS,C,6
4,test,3,C,mfborder.png,1,m,Wed Apr 15 2026 11:00:00 GMT-0400 (Eastern Daylight Time),616250.7000000002,CFD-WM-034-040-A.jpg,2000,dash,I,m,818,5,1,17166.099999999627,599084.6000000006,9070,ATS,C,7
5,test,3,C,mfborder.png,1,z,Wed Apr 15 2026 11:00:00 GMT-0400 (Eastern Daylight Time),618767.6000000006,CFD-BF-031-020-A.jpg,1600,dash,I,z,897,2,1,19683.0,599084.6000000006,9070,ATS,C,8
5,test,3,C,haborder.png,0,z,Wed Apr 15 2026 11:00:00 GMT-0400 (Eastern Daylight Time),621301.1000000006,CFD-WM-036-018-A.jpg,1400,solid,I,m,1100,7,1,22216.5,599084.6000000006,9070,ATS,C,9
6,test,3,C,mfborder.png,1,m,Wed Apr 15 2026 11:00:00 GMT-0400 (Eastern Daylight Time),624217.7000000002,CFD-WM-034-040-A.jpg,2000,dash,I,m,895,5,1,25133.099999999627,599084.6000000006,9070,ATS,C,10
7,test,3,C,mfborder.png,1,z,Wed Apr 15 2026 11:00:00 GMT-0400 (Eastern Daylight Time),626734.2000000002,CFD-BF-042-031-HC.jpg,1700,dash,I,z,790,1,1,27649.599999999627,599084.6000000006,9070,ATS,C,11
8,test,3,C,haborder.png,1,m,Wed Apr 15 2026 11:00:00 GMT-0400 (Eastern Daylight Time),629084.2000000002,CFD-WF-013-009-HC.jpg,1000,solid,I,m,1317,12,1,29999.599999999627,599084.6000000006,9070,ATS,C,12
9,test,3,C,haborder.png,1,m,Wed Apr 15 2026 11:00:00 GMT-0400 (Eastern Daylight Time),631451.0,CFD-WF-001-010-HC.jpg,1500,solid,I,m,836,11,1,32366.39999999944,599084.6000000006,9070,ATS,C,13
9,test,3,C,haborder.png,0,z,Wed Apr 15 2026 11:00:00 GMT-0400 (Eastern Daylight Time),634634.4000000004,CFD-BM-021-026-A.jpg,1700,solid,I,m,1453,9,1,35549.799999999814,599084.6000000006,9070,ATS,C,14
9,test,3,C,haborder.png,0,z,Wed Apr 15 2026 11:00:00 GMT-0400 (Eastern Daylight Time),637417.6000000006,CFD-BM-021-026-A.jpg,1700,solid,I,m,1062,9,1,38333.0,599084.6000000006,9070,ATS,C,15
10,test,3,C,haborder.png,1,m,Wed Apr 15 2026 11:00:00 GMT-0400 (Eastern Daylight Time),639301.0,CFD-WF-013-009-HC.jpg,1000,solid,I,m,858,12,1,40216.39999999944,599084.6000000006,9070,ATS,C,16
11,test,3,C,mfborder.png,1,m,Wed Apr 15 2026 11:00:00 GMT-0400 (Eastern Daylight Time),641134.2000000002,CFD-WM-035-036-HC.jpg,1000,dash,I,m,807,4,1,42049.59999999963,599084.6000000006,9070,ATS,C,17
12,test,3,C,mfborder.png,1,m,Wed Apr 15 2026 11:00:00 GMT-0400 (Eastern Daylight Time),642867.6000000006,CFD-WM-035-036-HC.jpg,1000,dash,I,m,710,4,1,43783.0,599084.6000000006,9070,ATS,C,18
12,test,3,C,haborder.png,0,z,Wed Apr 15 2026 11:00:00 GMT-0400 (Eastern Daylight Time),645850.9000000004,CFD-BM-043-014-A.jpg,1900,solid,I,m,1060,8,1,46766.299999999814,599084.6000000006,9070,ATS,C,19
12,test,3,C,mfborder.png,0,z,Wed Apr 15 2026 11:00:00 GMT-0400 (Eastern Daylight Time),649001.1000000006,CFD-BF-042-031-HC.jpg,1700,dash,I,m,1429,1,1,49916.5,599084.6000000006,9070,ATS,C,20
13,test,3,C,haborder.png,1,z,Wed Apr 15 2026 11:00:00 GMT-0400 (Eastern Daylight Time),651450.9000000004,CFD-WM-036-018-A.jpg,1400,solid,I,z,1027,7,1,52366.299999999814,599084.6000000006,9070,ATS,C,21
13,test,3,C,mfborder.png,0,z,Wed Apr 15 2026 11:00:00 GMT-0400 (Eastern Daylight Time),654484.7000000002,CFD-WF-037-016-A.jpg,1500,dash,I,None,1516,3,1,55400.09999999963,599084.6000000006,9070,ATS,C,22
14,test,3,C,haborder.png,1,m,Wed Apr 15 2026 11:00:00 GMT-0400 (Eastern Daylight Time),657118.3000000007,CFD-WF-001-010-HC.jpg,1500,solid,I,m,1107,11,1,58033.700000000186,599084.6000000006,9070,ATS,C,23
14,test,3,C,haborder.png,0,z,Wed Apr 15 2026 11:00:00 GMT-0400 (Eastern Daylight Time),660101.1000000006,CFD-BM-043-014-A.jpg,1900,solid,I,m,1058,8,1,61016.5,599084.6000000006,9070,ATS,C,24
1,test,4,C,mfborder.png,1,z,Wed Apr 15 2026 11:00:00 GMT-0400 (Eastern Daylight Time),669067.7000000002,CFD-BF-019-004-HC.jpg,1500,dash,I,z,1093,3,1,2616.399999999441,666451.3000000007,9070,ATS,C,1
2,test,4,C,mfborder.png,1,m,Wed Apr 15 2026 11:00:00 GMT-0400 (Eastern Daylight Time),670834.4000000004,CFD-BM-034-035-HC.jpg,1000,dash,I,m,737,4,1,4383.0999999996275,666451.3000000007,9070,ATS,C,2
3,test,4,C,mfborder.png,1,z,Wed Apr 15 2026 11:00:00 GMT-0400 (Eastern Daylight Time),673284.3000000007,CFD-WF-013-009-HC.jpg,1700,dash,I,z,726,1,1,6833.0,666451.3000000007,9070,ATS,C,3
4,test,4,C,haborder.png,1,z,Wed Apr 15 2026 11:00:00 GMT-0400 (Eastern Daylight Time),676301.1000000006,CFD-WF-037-016-A.jpg,1700,solid,I,z,1299,9,1,9849.799999999814,666451.3000000007,9070,ATS,C,4
5,test,4,C,mfborder.png,1,m,Wed Apr 15 2026 11:00:00 GMT-0400 (Eastern Daylight Time),679767.6000000006,CFD-BM-043-014-A.jpg,2000,dash,I,m,1447,5,1,13316.299999999814,666451.3000000007,9070,ATS,C,5
6,test,4,C,mfborder.png,1,z,Wed Apr 15 2026 11:00:00 GMT-0400 (Eastern Daylight Time),682167.7000000002,CFD-WF-023-013-A.jpg,1600,dash,I,z,780,2,1,15716.399999999441,666451.3000000007,9070,ATS,C,6
7,test,4,C,haborder.png,1,m,Wed Apr 15 2026 11:00:00 GMT-0400 (Eastern Daylight Time),684617.7000000002,CFD-WM-028-005-HC.jpg,1000,solid,I,m,1428,12,1,18166.39999999944,666451.3000000007,9070,ATS,C,7
8,test,4,C,haborder.png,1,z,Wed Apr 15 2026 11:00:00 GMT-0400 (Eastern Daylight Time),687201.1000000006,CFD-BF-031-020-A.jpg,1400,solid,I,z,1162,7,1,20749.799999999814,666451.3000000007,9070,ATS,C,8
9,test,4,C,mfborder.png,1,z,Wed Apr 15 2026 11:00:00 GMT-0400 (Eastern Daylight Time),690384.3000000007,CFD-WF-013-009-HC.jpg,1700,dash,I,z,1463,1,1,23933.0,666451.3000000007,9070,ATS,C,9
10,test,4,C,haborder.png,1,m,Wed Apr 15 2026 11:00:00 GMT-0400 (Eastern Daylight Time),692834.2000000002,CFD-BM-022-004-HC.jpg,1600,solid,I,m,827,10,1,26382.89999999944,666451.3000000007,9070,ATS,C,10
11,test,4,C,haborder.png,1,z,Wed Apr 15 2026 11:00:00 GMT-0400 (Eastern Daylight Time),695600.7000000002,CFD-BF-031-020-A.jpg,1400,solid,I,z,1337,7,1,29149.39999999944,666451.3000000007,9070,ATS,C,11
12,test,4,C,mfborder.png,1,m,Wed Apr 15 2026 11:00:00 GMT-0400 (Eastern Daylight Time),697717.7000000002,CFD-BM-034-035-HC.jpg,1000,dash,I,m,1099,4,1,31266.39999999944,666451.3000000007,9070,ATS,C,12
13,test,4,C,mfborder.png,1,m,Wed Apr 15 2026 11:00:00 GMT-0400 (Eastern Daylight Time),700317.6000000006,CFD-WM-036-018-A.jpg,1200,dash,I,m,1374,6,1,33866.299999999814,666451.3000000007,9070,ATS,C,13
14,test,4,C,mfborder.png,1,m,Wed Apr 15 2026 11:00:00 GMT-0400 (Eastern Daylight Time),703217.6000000006,CFD-BM-043-014-A.jpg,2000,dash,I,m,878,5,1,36766.299999999814,666451.3000000007,9070,ATS,C,14
14,test,4,C,haborder.png,0,z,Wed Apr 15 2026 11:00:00 GMT-0400 (Eastern Daylight Time),706651.2000000002,CFD-BF-002-018-A.jpg,1900,solid,I,None,1516,8,1,40199.89999999944,666451.3000000007,9070,ATS,C,15
15,test,4,C,haborder.png,1,m,Wed Apr 15 2026 11:00:00 GMT-0400 (Eastern Daylight Time),708884.1000000006,CFD-WM-028-005-HC.jpg,1500,solid,I,m,700,11,1,42432.799999999814,666451.3000000007,9070,ATS,C,16
15,test,4,C,mfborder.png,0,m,Wed Apr 15 2026 11:00:00 GMT-0400 (Eastern Daylight Time),710917.4000000004,CFD-WM-036-018-A.jpg,1200,dash,I,z,815,6,1,44466.09999999963,666451.3000000007,9070,ATS,C,17
16,test,4,C,haborder.png,1,m,Wed Apr 15 2026 11:00:00 GMT-0400 (Eastern Daylight Time),713534.2000000002,CFD-WM-028-005-HC.jpg,1500,solid,I,m,1091,11,1,47082.89999999944,666451.3000000007,9070,ATS,C,18
17,test,4,C,haborder.png,1,m,Wed Apr 15 2026 11:00:00 GMT-0400 (Eastern Daylight Time),716434.4000000004,CFD-BM-022-004-HC.jpg,1600,solid,I,m,1277,10,1,49983.09999999963,666451.3000000007,9070,ATS,C,19
18,test,4,C,haborder.png,1,z,Wed Apr 15 2026 11:00:00 GMT-0400 (Eastern Daylight Time),719134.1000000006,CFD-WF-037-016-A.jpg,1700,solid,I,z,982,9,1,52682.799999999814,666451.3000000007,9070,ATS,C,20
19,test,4,C,mfborder.png,1,z,Wed Apr 15 2026 11:00:00 GMT-0400 (Eastern Daylight Time),721551.0,CFD-WF-023-013-A.jpg,1600,dash,I,z,790,2,1,55099.699999999255,666451.3000000007,9070,ATS,C,21
20,test,4,C,haborder.png,1,m,Wed Apr 15 2026 11:00:00 GMT-0400 (Eastern Daylight Time),723451.0,CFD-WM-028-005-HC.jpg,1000,solid,I,m,877,12,1,56999.699999999255,666451.3000000007,9070,ATS,C,22
21,test,4,C,haborder.png,1,z,Wed Apr 15 2026 11:00:00 GMT-0400 (Eastern Daylight Time),726434.2000000002,CFD-BF-002-018-A.jpg,1900,solid,I,z,1060,8,1,59982.89999999944,666451.3000000007,9070,ATS,C,23
22,test,4,C,mfborder.png,1,z,Wed Apr 15 2026 11:00:00 GMT-0400 (Eastern Daylight Time),729350.8000000007,CFD-BF-019-004-HC.jpg,1500,dash,I,z,1398,3,1,62899.5,666451.3000000007,9070,ATS,C,24
