Number,acc_sum,block,block_c,block_cond,con_img,correct,correct_response,datetime,endtime,jitter,project,response,response_time,row_sel,session_number,start_end,starttime,subject_id,task,task_vers,trial
9,1,prac,1,A,circle.png,1,m,Thu Mar 26 2026 10:07:17 GMT-0500 (Central Daylight Time),102476.59999999404,1500,O,m,811,8,1,3093.2999999970198,99383.29999999702,7779,NTS,A,1
4,2,prac,1,A,circle.png,1,z,Thu Mar 26 2026 10:07:17 GMT-0500 (Central Daylight Time),105192.59999999404,1400,O,z,515,4,1,2709.2999999970198,102483.29999999702,7779,NTS,A,2
8,3,prac,1,A,circle.png,1,m,Thu Mar 26 2026 10:07:17 GMT-0500 (Central Daylight Time),108259.40000000596,1600,O,m,680,7,1,3061.5,105197.90000000596,7779,NTS,A,3
1,4,prac,1,A,circle.png,1,z,Thu Mar 26 2026 10:07:17 GMT-0500 (Central Daylight Time),110657.59999999404,1000,O,z,607,1,1,2392.5999999940395,108265.0,7779,NTS,A,4
8,5,prac,1,A,circle.png,1,m,Thu Mar 26 2026 10:07:17 GMT-0500 (Central Daylight Time),113606.90000000596,1600,O,m,560,7,1,2943.9000000059605,110663.0,7779,NTS,A,5
6,6,prac,1,A,circle.png,1,m,Thu Mar 26 2026 10:07:17 GMT-0500 (Central Daylight Time),117021.79999999702,1900,O,m,718,5,1,3409.2000000029802,113612.59999999404,7779,NTS,A,6
3,7,prac,1,A,circle.png,1,z,Thu Mar 26 2026 10:07:17 GMT-0500 (Central Daylight Time),119621.59999999404,1200,O,z,603,3,1,2594.0,117027.59999999404,7779,NTS,A,7
9,8,prac,1,A,circle.png,1,m,Thu Mar 26 2026 10:07:17 GMT-0500 (Central Daylight Time),122487.40000000596,1500,O,m,567,8,1,2860.800000011921,119626.59999999404,7779,NTS,A,8
7,8,prac,1,A,circle.png,0,m,Thu Mar 26 2026 10:07:17 GMT-0500 (Central Daylight Time),125586.40000000596,1700,O,z,606,6,1,3094.1000000089407,122492.29999999702,7779,NTS,A,9
2,9,prac,1,A,circle.png,1,z,Thu Mar 26 2026 10:07:17 GMT-0500 (Central Daylight Time),129218.40000000596,2000,O,z,846,2,1,3626.4000000059605,125592.0,7779,NTS,A,10
3,10,prac,1,A,circle.png,1,z,Thu Mar 26 2026 10:07:17 GMT-0500 (Central Daylight Time),132000.90000000596,1200,O,z,798,3,1,2777.5,129223.40000000596,7779,NTS,A,11
6,11,prac,1,A,circle.png,1,m,Thu Mar 26 2026 10:07:17 GMT-0500 (Central Daylight Time),135433.0,1900,O,m,741,5,1,3427.2999999970198,132005.70000000298,7779,NTS,A,12
9,1,prac,1,B,triangle.png,1,z,Thu Mar 26 2026 10:07:17 GMT-0500 (Central Daylight Time),164757.40000000596,1400,O,z,1019,8,1,3344.300000011921,161413.09999999404,7779,NTS,A,1
3,2,prac,1,B,triangle.png,1,z,Thu Mar 26 2026 10:07:17 GMT-0500 (Central Daylight Time),167989.59999999404,1600,O,z,836,3,1,3226.199999988079,164763.40000000596,7779,NTS,A,2
2,3,prac,1,B,triangle.png,1,m,Thu Mar 26 2026 10:07:17 GMT-0500 (Central Daylight Time),171571.90000000596,1700,O,m,1088,2,1,3577.5,167994.40000000596,7779,NTS,A,3
4,4,prac,1,B,triangle.png,1,m,Thu Mar 26 2026 10:07:17 GMT-0500 (Central Daylight Time),174637.40000000596,1500,O,m,777,4,1,3060.5,171576.90000000596,7779,NTS,A,4
4,5,prac,1,B,triangle.png,1,m,Thu Mar 26 2026 10:07:17 GMT-0500 (Central Daylight Time),177469.90000000596,1500,O,m,544,4,1,2827.0,174642.90000000596,7779,NTS,A,5
8,6,prac,1,B,triangle.png,1,m,Thu Mar 26 2026 10:07:17 GMT-0500 (Central Daylight Time),180253.5,1200,O,m,795,7,1,2778.2000000029802,177475.29999999702,7779,NTS,A,6
9,7,prac,1,B,triangle.png,1,z,Thu Mar 26 2026 10:07:17 GMT-0500 (Central Daylight Time),183101.5,1400,O,z,653,8,1,2843.2000000029802,180258.29999999702,7779,NTS,A,7
1,8,prac,1,B,triangle.png,1,z,Thu Mar 26 2026 10:07:17 GMT-0500 (Central Daylight Time),186500.40000000596,1900,O,z,712,1,1,3393.6000000089407,183106.79999999702,7779,NTS,A,8
7,9,prac,1,B,triangle.png,1,z,Thu Mar 26 2026 10:07:17 GMT-0500 (Central Daylight Time),190332.59999999404,2000,O,z,1036,6,1,3827.0999999940395,186505.5,7779,NTS,A,9
7,10,prac,1,B,triangle.png,1,z,Thu Mar 26 2026 10:07:17 GMT-0500 (Central Daylight Time),193848.20000000298,2000,O,z,717,6,1,3510.6000000089407,190337.59999999404,7779,NTS,A,10
6,11,prac,1,B,triangle.png,1,m,Thu Mar 26 2026 10:07:17 GMT-0500 (Central Daylight Time),196430.59999999404,1000,O,m,784,5,1,2577.2999999970198,193853.29999999702,7779,NTS,A,11
3,12,prac,1,B,triangle.png,1,z,Thu Mar 26 2026 10:07:17 GMT-0500 (Central Daylight Time),199313.09999999404,1600,O,z,490,3,1,2877.5,196435.59999999404,7779,NTS,A,12
2,1,test,1,A,circle.png,1,z,Thu Mar 26 2026 10:07:17 GMT-0500 (Central Daylight Time),221256.29999999702,2000,O,z,1376,2,1,3394.5999999940395,217861.70000000298,7779,NTS,A,1
4,2,test,1,A,circle.png,1,z,Thu Mar 26 2026 10:07:17 GMT-0500 (Central Daylight Time),223372.29999999702,1400,O,z,697,4,1,2112.0,221260.29999999702,7779,NTS,A,2
6,3,test,1,A,circle.png,1,m,Thu Mar 26 2026 10:07:17 GMT-0500 (Central Daylight Time),226054.59999999404,1900,O,m,760,5,1,2678.5999999940395,223376.0,7779,NTS,A,3
7,4,test,1,A,circle.png,1,m,Thu Mar 26 2026 10:07:17 GMT-0500 (Central Daylight Time),229020.5,1700,O,m,1237,6,1,2961.7000000029802,226058.79999999702,7779,NTS,A,4
1,5,test,1,A,circle.png,1,z,Thu Mar 26 2026 10:07:17 GMT-0500 (Central Daylight Time),230869.70000000298,1000,O,z,821,1,1,1845.4000000059605,229024.29999999702,7779,NTS,A,5
3,6,test,1,A,circle.png,1,z,Thu Mar 26 2026 10:07:17 GMT-0500 (Central Daylight Time),232852.5,1200,O,z,762,3,1,1979.2000000029802,230873.29999999702,7779,NTS,A,6
8,7,test,1,A,circle.png,1,m,Thu Mar 26 2026 10:07:17 GMT-0500 (Central Daylight Time),235501.79999999702,1600,O,m,920,7,1,2645.3999999910593,232856.40000000596,7779,NTS,A,7
8,8,test,1,A,circle.png,1,m,Thu Mar 26 2026 10:07:17 GMT-0500 (Central Daylight Time),237801.09999999404,1600,O,m,667,7,1,2295.5999999940395,235505.5,7779,NTS,A,8
4,9,test,1,A,circle.png,1,z,Thu Mar 26 2026 10:07:17 GMT-0500 (Central Daylight Time),240116.90000000596,1400,O,z,888,4,1,2312.300000011921,237804.59999999404,7779,NTS,A,9
3,10,test,1,A,circle.png,1,z,Thu Mar 26 2026 10:07:17 GMT-0500 (Central Daylight Time),242099.5,1200,O,z,755,3,1,1978.9000000059605,240120.59999999404,7779,NTS,A,10
8,11,test,1,A,circle.png,1,m,Thu Mar 26 2026 10:07:17 GMT-0500 (Central Daylight Time),244598.59999999404,1600,O,m,870,7,1,2495.3999999910593,242103.20000000298,7779,NTS,A,11
3,12,test,1,A,circle.png,1,z,Thu Mar 26 2026 10:07:17 GMT-0500 (Central Daylight Time),246498.40000000596,1200,O,z,674,3,1,1896.1000000089407,244602.29999999702,7779,NTS,A,12
1,13,test,1,A,circle.png,1,z,Thu Mar 26 2026 10:07:17 GMT-0500 (Central Daylight Time),248181.0,1000,O,z,661,1,1,1678.7999999970198,246502.20000000298,7779,NTS,A,13
6,14,test,1,A,circle.png,1,m,Thu Mar 26 2026 10:07:17 GMT-0500 (Central Daylight Time),250913.09999999404,1900,O,m,799,5,1,2728.2999999970198,248184.79999999702,7779,NTS,A,14
4,15,test,1,A,circle.png,1,z,Thu Mar 26 2026 10:07:17 GMT-0500 (Central Daylight Time),253012.79999999702,1400,O,z,670,4,1,2095.7000000029802,250917.09999999404,7779,NTS,A,15
9,16,test,1,A,circle.png,1,m,Thu Mar 26 2026 10:07:17 GMT-0500 (Central Daylight Time),255245.40000000596,1500,O,m,704,8,1,2228.9000000059605,253016.5,7779,NTS,A,16
6,17,test,1,A,circle.png,1,m,Thu Mar 26 2026 10:07:17 GMT-0500 (Central Daylight Time),258256.70000000298,1900,O,m,947,5,1,3007.5,255249.20000000298,7779,NTS,A,17
7,18,test,1,A,circle.png,1,m,Thu Mar 26 2026 10:07:17 GMT-0500 (Central Daylight Time),260860.20000000298,1700,O,m,871,6,1,2599.7000000029802,258260.5,7779,NTS,A,18
6,19,test,1,A,circle.png,1,m,Thu Mar 26 2026 10:07:17 GMT-0500 (Central Daylight Time),263625.90000000596,1900,O,m,848,5,1,2761.9000000059605,260864.0,7779,NTS,A,19
7,20,test,1,A,circle.png,1,m,Thu Mar 26 2026 10:07:17 GMT-0500 (Central Daylight Time),266358.700000003,1700,O,m,1003,6,1,2729.4000000059605,263629.299999997,7779,NTS,A,20
2,21,test,1,A,circle.png,1,z,Thu Mar 26 2026 10:07:17 GMT-0500 (Central Daylight Time),269024.5,2000,O,z,643,2,1,2662.0999999940395,266362.40000000596,7779,NTS,A,21
1,22,test,1,A,circle.png,1,z,Thu Mar 26 2026 10:07:17 GMT-0500 (Central Daylight Time),270673.700000003,1000,O,z,632,1,1,1645.7000000029802,269028.0,7779,NTS,A,22
9,23,test,1,A,circle.png,1,m,Thu Mar 26 2026 10:07:17 GMT-0500 (Central Daylight Time),272956.59999999404,1500,O,m,763,8,1,2279.2999999970198,270677.299999997,7779,NTS,A,23
9,24,test,1,A,circle.png,1,m,Thu Mar 26 2026 10:07:17 GMT-0500 (Central Daylight Time),275106.09999999404,1500,O,m,625,8,1,2146.0,272960.09999999404,7779,NTS,A,24
8,1,test,1,B,triangle.png,1,m,Thu Mar 26 2026 10:07:17 GMT-0500 (Central Daylight Time),291501.0,1700,O,m,1238,15,1,2962.9000000059605,288538.09999999404,7779,NTS,A,1
9,2,test,1,B,triangle.png,1,z,Thu Mar 26 2026 10:07:17 GMT-0500 (Central Daylight Time),293566.59999999404,1400,O,z,637,8,1,2061.3999999910593,291505.200000003,7779,NTS,A,2
1,3,test,1,B,triangle.png,1,z,Thu Mar 26 2026 10:07:17 GMT-0500 (Central Daylight Time),296282.5,1900,O,z,791,1,1,2712.5,293570.0,7779,NTS,A,3
1,4,test,1,B,triangle.png,1,z,Thu Mar 26 2026 10:07:17 GMT-0500 (Central Daylight Time),298265.40000000596,1400,O,z,550,9,1,1978.6000000089407,296286.799999997,7779,NTS,A,4
7,5,test,1,B,triangle.png,1,z,Thu Mar 26 2026 10:07:17 GMT-0500 (Central Daylight Time),301047.700000003,2000,O,z,760,6,1,2778.5,298269.200000003,7779,NTS,A,5
9,6,test,1,B,triangle.png,1,z,Thu Mar 26 2026 10:07:17 GMT-0500 (Central Daylight Time),303197.0,1400,O,z,730,8,1,2145.5,301051.5,7779,NTS,A,6
8,7,test,1,B,triangle.png,1,m,Thu Mar 26 2026 10:07:17 GMT-0500 (Central Daylight Time),305113.5,1200,O,m,692,7,1,1912.9000000059605,303200.59999999404,7779,NTS,A,7
4,8,test,1,B,triangle.png,1,m,Thu Mar 26 2026 10:07:17 GMT-0500 (Central Daylight Time),306779.5,1000,O,m,647,12,1,1662.2999999970198,305117.200000003,7779,NTS,A,8
3,9,test,1,B,triangle.png,1,z,Thu Mar 26 2026 10:07:17 GMT-0500 (Central Daylight Time),309446.40000000596,2000,O,z,638,11,1,2663.2000000029802,306783.200000003,7779,NTS,A,9
1,10,test,1,B,triangle.png,1,z,Thu Mar 26 2026 10:07:17 GMT-0500 (Central Daylight Time),311461.299999997,1400,O,z,596,9,1,2010.8999999910593,309450.40000000596,7779,NTS,A,10
2,11,test,1,B,triangle.png,1,m,Thu Mar 26 2026 10:07:17 GMT-0500 (Central Daylight Time),313543.799999997,1200,O,m,859,10,1,2078.8999999910593,311464.90000000596,7779,NTS,A,11
7,12,test,1,B,triangle.png,1,z,Thu Mar 26 2026 10:07:17 GMT-0500 (Central Daylight Time),315943.200000003,1600,O,z,777,14,1,2395.1000000089407,313548.09999999404,7779,NTS,A,12
1,13,test,1,B,triangle.png,1,z,Thu Mar 26 2026 10:07:17 GMT-0500 (Central Daylight Time),318575.59999999404,1900,O,z,702,1,1,2628.699999988079,315946.90000000596,7779,NTS,A,13
9,14,test,1,B,triangle.png,1,z,Thu Mar 26 2026 10:07:17 GMT-0500 (Central Daylight Time),321259.299999997,1900,O,z,765,16,1,2679.5,318579.799999997,7779,NTS,A,14
6,15,test,1,B,triangle.png,1,m,Thu Mar 26 2026 10:07:17 GMT-0500 (Central Daylight Time),323340.59999999404,1500,O,m,562,13,1,2077.5999999940395,321263.0,7779,NTS,A,15
4,16,test,1,B,triangle.png,1,m,Thu Mar 26 2026 10:07:17 GMT-0500 (Central Daylight Time),325123.59999999404,1000,O,m,764,12,1,1779.2999999970198,323344.299999997,7779,NTS,A,16
3,17,test,1,B,triangle.png,1,z,Thu Mar 26 2026 10:07:17 GMT-0500 (Central Daylight Time),327422.90000000596,1600,O,z,670,3,1,2295.7000000029802,325127.200000003,7779,NTS,A,17
6,18,test,1,B,triangle.png,1,m,Thu Mar 26 2026 10:07:17 GMT-0500 (Central Daylight Time),329222.200000003,1000,O,m,769,5,1,1795.5,327426.700000003,7779,NTS,A,18
2,19,test,1,B,triangle.png,1,m,Thu Mar 26 2026 10:07:17 GMT-0500 (Central Daylight Time),331671.700000003,1700,O,m,726,2,1,2446.2000000029802,329225.5,7779,NTS,A,19
9,20,test,1,B,triangle.png,1,z,Thu Mar 26 2026 10:07:17 GMT-0500 (Central Daylight Time),334220.59999999404,1900,O,z,629,16,1,2545.2999999970198,331675.299999997,7779,NTS,A,20
6,21,test,1,B,triangle.png,1,m,Thu Mar 26 2026 10:07:17 GMT-0500 (Central Daylight Time),336387.0,1500,O,m,640,13,1,2162.5999999940395,334224.40000000596,7779,NTS,A,21
3,22,test,1,B,triangle.png,1,z,Thu Mar 26 2026 10:07:17 GMT-0500 (Central Daylight Time),339085.700000003,2000,O,z,678,11,1,2695.0,336390.700000003,7779,NTS,A,22
8,23,test,1,B,triangle.png,1,m,Thu Mar 26 2026 10:07:17 GMT-0500 (Central Daylight Time),340985.299999997,1200,O,m,675,7,1,1896.3999999910593,339088.90000000596,7779,NTS,A,23
4,24,test,1,B,triangle.png,1,m,Thu Mar 26 2026 10:07:17 GMT-0500 (Central Daylight Time),343184.40000000596,1500,O,m,675,4,1,2195.7000000029802,340988.700000003,7779,NTS,A,24
9,0,prac,1,C,circle.png,0,m,Thu Mar 26 2026 10:07:17 GMT-0500 (Central Daylight Time),415062.09999999404,1900,O,None,1516,8,1,4193.79999999702,410868.299999997,7779,NTS,A,1
2,1,prac,1,C,triangle.png,1,m,Thu Mar 26 2026 10:07:17 GMT-0500 (Central Daylight Time),418561.0,1600,O,m,1107,2,1,3493.7999999970198,415067.200000003,7779,NTS,A,2
3,2,prac,1,C,triangle.png,1,z,Thu Mar 26 2026 10:07:17 GMT-0500 (Central Daylight Time),421976.59999999404,1500,O,z,1131,3,1,3410.8999999910593,418565.700000003,7779,NTS,A,3
7,2,prac,1,C,triangle.png,0,z,Thu Mar 26 2026 10:07:17 GMT-0500 (Central Daylight Time),425458.799999997,1200,O,None,1505,6,1,3477.0,421981.799999997,7779,NTS,A,4
1,3,prac,1,C,circle.png,1,z,Thu Mar 26 2026 10:07:17 GMT-0500 (Central Daylight Time),428624.5,1700,O,z,675,1,1,3160.7000000029802,425463.799999997,7779,NTS,A,5
6,4,prac,1,C,circle.png,1,m,Thu Mar 26 2026 10:07:17 GMT-0500 (Central Daylight Time),432156.700000003,2000,O,m,737,5,1,3527.6000000089407,428629.09999999404,7779,NTS,A,6
8,5,prac,1,C,triangle.png,1,m,Thu Mar 26 2026 10:07:17 GMT-0500 (Central Daylight Time),435240.200000003,1400,O,m,884,7,1,3078.6000000089407,432161.59999999404,7779,NTS,A,7
4,5,prac,1,C,circle.png,0,z,Thu Mar 26 2026 10:07:17 GMT-0500 (Central Daylight Time),437788.40000000596,1000,O,m,754,4,1,2543.300000011921,435245.09999999404,7779,NTS,A,8
1,6,prac,1,C,circle.png,1,z,Thu Mar 26 2026 10:07:17 GMT-0500 (Central Daylight Time),441087.299999997,1700,O,z,800,1,1,3293.8999999910593,437793.40000000596,7779,NTS,A,9
9,7,prac,1,C,circle.png,1,m,Thu Mar 26 2026 10:07:17 GMT-0500 (Central Daylight Time),444569.5,1900,O,m,798,8,1,3477.5,441092.0,7779,NTS,A,10
4,8,prac,1,C,circle.png,1,z,Thu Mar 26 2026 10:07:17 GMT-0500 (Central Daylight Time),447685.40000000596,1000,O,z,1328,4,1,3111.1000000089407,444574.299999997,7779,NTS,A,11
6,9,prac,1,C,circle.png,1,m,Thu Mar 26 2026 10:07:17 GMT-0500 (Central Daylight Time),451334.0,2000,O,m,859,5,1,3643.2000000029802,447690.799999997,7779,NTS,A,12
6,1,test,1,C,triangle.png,1,m,Thu Mar 26 2026 10:07:17 GMT-0500 (Central Daylight Time),491954.59999999404,1000,O,m,1431,13,1,2445.8999999910593,489508.700000003,7779,NTS,A,1
4,2,test,1,C,triangle.png,1,m,Thu Mar 26 2026 10:07:17 GMT-0500 (Central Daylight Time),494353.90000000596,1500,O,m,883,12,1,2394.1000000089407,491959.799999997,7779,NTS,A,2
8,3,test,1,C,circle.png,1,m,Thu Mar 26 2026 10:07:17 GMT-0500 (Central Daylight Time),496903.09999999404,1200,O,m,1319,15,1,2545.699999988079,494357.40000000596,7779,NTS,A,3
8,4,test,1,C,triangle.png,1,m,Thu Mar 26 2026 10:07:17 GMT-0500 (Central Daylight Time),499668.700000003,1600,O,m,1146,23,1,2761.9000000059605,496906.799999997,7779,NTS,A,4
6,4,test,1,C,circle.png,0,m,Thu Mar 26 2026 10:07:17 GMT-0500 (Central Daylight Time),503101.200000003,1900,O,None,1516,21,1,3428.2999999970198,499672.90000000596,7779,NTS,A,5
3,5,test,1,C,circle.png,1,z,Thu Mar 26 2026 10:07:17 GMT-0500 (Central Daylight Time),505651.299999997,1600,O,z,931,11,1,2546.5,503104.799999997,7779,NTS,A,6
2,6,test,1,C,circle.png,1,z,Thu Mar 26 2026 10:07:17 GMT-0500 (Central Daylight Time),508199.5,1700,O,z,819,18,1,2544.4000000059605,505655.09999999404,7779,NTS,A,7
3,7,test,1,C,circle.png,1,z,Thu Mar 26 2026 10:07:17 GMT-0500 (Central Daylight Time),510765.299999997,1600,O,z,946,19,1,2562.0999999940395,508203.200000003,7779,NTS,A,8
4,8,test,1,C,circle.png,1,z,Thu Mar 26 2026 10:07:17 GMT-0500 (Central Daylight Time),513347.90000000596,1400,O,z,1163,4,1,2578.5,510769.40000000596,7779,NTS,A,9
3,9,test,1,C,triangle.png,1,z,Thu Mar 26 2026 10:07:17 GMT-0500 (Central Daylight Time),515630.5,1200,O,z,1062,3,1,2278.7000000029802,513351.799999997,7779,NTS,A,10
2,10,test,1,C,triangle.png,1,m,Thu Mar 26 2026 10:07:17 GMT-0500 (Central Daylight Time),518329.5,2000,O,m,682,2,1,2695.0999999940395,515634.40000000596,7779,NTS,A,11
9,11,test,1,C,circle.png,1,m,Thu Mar 26 2026 10:07:17 GMT-0500 (Central Daylight Time),520829.0,1500,O,m,972,8,1,2496.2000000029802,518332.799999997,7779,NTS,A,12
2,11,test,1,C,circle.png,0,z,Thu Mar 26 2026 10:07:17 GMT-0500 (Central Daylight Time),523344.799999997,1700,O,m,784,10,1,2512.5,520832.299999997,7779,NTS,A,13
9,11,test,1,C,triangle.png,0,z,Thu Mar 26 2026 10:07:17 GMT-0500 (Central Daylight Time),525910.700000003,1400,O,m,1143,16,1,2562.2000000029802,523348.5,7779,NTS,A,14
8,12,test,1,C,triangle.png,1,m,Thu Mar 26 2026 10:07:17 GMT-0500 (Central Daylight Time),528393.299999997,1600,O,m,850,7,1,2478.7999999970198,525914.5,7779,NTS,A,15
1,13,test,1,C,circle.png,1,z,Thu Mar 26 2026 10:07:17 GMT-0500 (Central Daylight Time),530159.299999997,1000,O,z,743,1,1,1762.2999999970198,528397.0,7779,NTS,A,16
7,14,test,1,C,triangle.png,1,z,Thu Mar 26 2026 10:07:17 GMT-0500 (Central Daylight Time),533325.900000006,1700,O,z,1438,22,1,3163.1000000089407,530162.799999997,7779,NTS,A,17
1,14,test,1,C,triangle.png,0,z,Thu Mar 26 2026 10:07:17 GMT-0500 (Central Daylight Time),536757.400000006,1900,O,None,1516,17,1,3427.800000011921,533329.599999994,7779,NTS,A,18
9,15,test,1,C,circle.png,1,m,Thu Mar 26 2026 10:07:17 GMT-0500 (Central Daylight Time),539489.400000006,1500,O,m,1199,24,1,2728.2000000029802,536761.200000003,7779,NTS,A,19
4,16,test,1,C,triangle.png,1,m,Thu Mar 26 2026 10:07:17 GMT-0500 (Central Daylight Time),541872.5,1500,O,m,783,20,1,2379.5,539493.0,7779,NTS,A,20
7,17,test,1,C,triangle.png,1,z,Thu Mar 26 2026 10:07:17 GMT-0500 (Central Daylight Time),544504.700000003,1700,O,z,908,6,1,2628.5,541876.200000003,7779,NTS,A,21
7,18,test,1,C,circle.png,1,m,Thu Mar 26 2026 10:07:17 GMT-0500 (Central Daylight Time),547603.799999997,2000,O,m,1081,14,1,3095.3999999910593,544508.400000006,7779,NTS,A,22
6,19,test,1,C,circle.png,1,m,Thu Mar 26 2026 10:07:17 GMT-0500 (Central Daylight Time),550636.200000003,1900,O,m,1114,5,1,3028.2999999970198,547607.900000006,7779,NTS,A,23
1,20,test,1,C,triangle.png,1,z,Thu Mar 26 2026 10:07:17 GMT-0500 (Central Daylight Time),553418.400000006,1900,O,z,865,9,1,2778.2000000029802,550640.200000003,7779,NTS,A,24
2,0,test,2,C,circle.png,0,z,Thu Mar 26 2026 10:07:17 GMT-0500 (Central Daylight Time),563565.400000006,1700,O,m,696,18,1,2412.4000000059605,561153.0,7779,NTS,A,1
8,1,test,2,C,circle.png,1,m,Thu Mar 26 2026 10:07:17 GMT-0500 (Central Daylight Time),565548.299999997,1200,O,m,763,23,1,1978.8999999910593,563569.400000006,7779,NTS,A,2
9,1,test,2,C,circle.png,0,m,Thu Mar 26 2026 10:07:17 GMT-0500 (Central Daylight Time),567847.5,1500,O,z,768,8,1,2295.7000000029802,565551.799999997,7779,NTS,A,3
1,2,test,2,C,circle.png,1,z,Thu Mar 26 2026 10:07:17 GMT-0500 (Central Daylight Time),569913.599999994,1000,O,z,1049,1,1,2062.2999999970198,567851.299999997,7779,NTS,A,4
4,3,test,2,C,triangle.png,1,m,Thu Mar 26 2026 10:07:17 GMT-0500 (Central Daylight Time),572162.900000006,1500,O,m,723,20,1,2245.800000011921,569917.099999994,7779,NTS,A,5
6,4,test,2,C,triangle.png,1,m,Thu Mar 26 2026 10:07:17 GMT-0500 (Central Daylight Time),573912.200000003,1000,O,m,725,21,1,1745.4000000059605,572166.799999997,7779,NTS,A,6
8,5,test,2,C,triangle.png,1,m,Thu Mar 26 2026 10:07:17 GMT-0500 (Central Daylight Time),576311.5,1600,O,m,768,7,1,2395.4000000059605,573916.099999994,7779,NTS,A,7
1,6,test,2,C,triangle.png,1,z,Thu Mar 26 2026 10:07:17 GMT-0500 (Central Daylight Time),578977.299999997,1900,O,z,741,9,1,2662.2000000029802,576315.099999994,7779,NTS,A,8
9,6,test,2,C,triangle.png,0,z,Thu Mar 26 2026 10:07:17 GMT-0500 (Central Daylight Time),581909.599999994,1400,O,None,1516,24,1,2928.7999999970198,578980.799999997,7779,NTS,A,9
3,7,test,2,C,triangle.png,1,z,Thu Mar 26 2026 10:07:17 GMT-0500 (Central Daylight Time),583992.400000006,1200,O,z,851,3,1,2079.0,581913.400000006,7779,NTS,A,10
9,8,test,2,C,triangle.png,1,z,Thu Mar 26 2026 10:07:17 GMT-0500 (Central Daylight Time),586258.200000003,1400,O,z,840,16,1,2261.6000000089407,583996.599999994,7779,NTS,A,11
7,9,test,2,C,circle.png,1,m,Thu Mar 26 2026 10:07:17 GMT-0500 (Central Daylight Time),589573.900000006,2000,O,m,1295,14,1,3312.0,586261.900000006,7779,NTS,A,12
6,10,test,2,C,circle.png,1,m,Thu Mar 26 2026 10:07:17 GMT-0500 (Central Daylight Time),592339.900000006,1900,O,m,848,5,1,2762.4000000059605,589577.5,7779,NTS,A,13
2,11,test,2,C,triangle.png,1,m,Thu Mar 26 2026 10:07:17 GMT-0500 (Central Daylight Time),595372.200000003,2000,O,m,1012,2,1,3028.2999999970198,592343.900000006,7779,NTS,A,14
4,11,test,2,C,circle.png,0,z,Thu Mar 26 2026 10:07:17 GMT-0500 (Central Daylight Time),597437.900000006,1400,O,m,644,4,1,2061.6000000089407,595376.299999997,7779,NTS,A,15
3,12,test,2,C,circle.png,1,z,Thu Mar 26 2026 10:07:17 GMT-0500 (Central Daylight Time),599887.400000006,1600,O,z,826,11,1,2445.4000000059605,597442.0,7779,NTS,A,16
7,13,test,2,C,circle.png,1,m,Thu Mar 26 2026 10:07:17 GMT-0500 (Central Daylight Time),602886.599999994,2000,O,m,969,22,1,2995.0,599891.599999994,7779,NTS,A,17
3,14,test,2,C,circle.png,1,z,Thu Mar 26 2026 10:07:17 GMT-0500 (Central Daylight Time),605385.900000006,1600,O,z,866,19,1,2495.2000000029802,602890.700000003,7779,NTS,A,18
1,15,test,2,C,triangle.png,1,z,Thu Mar 26 2026 10:07:17 GMT-0500 (Central Daylight Time),608185.0,1900,O,z,876,17,1,2795.0999999940395,605389.900000006,7779,NTS,A,19
2,15,test,2,C,circle.png,0,z,Thu Mar 26 2026 10:07:17 GMT-0500 (Central Daylight Time),610533.900000006,1700,O,m,629,10,1,2345.0,608188.900000006,7779,NTS,A,20
6,16,test,2,C,triangle.png,1,m,Thu Mar 26 2026 10:07:17 GMT-0500 (Central Daylight Time),612417.0,1000,O,m,754,13,1,1878.9000000059605,610538.099999994,7779,NTS,A,21
8,16,test,2,C,circle.png,0,m,Thu Mar 26 2026 10:07:17 GMT-0500 (Central Daylight Time),614650.700000003,1200,O,z,1000,15,1,2230.1000000089407,612420.599999994,7779,NTS,A,22
4,17,test,2,C,triangle.png,1,m,Thu Mar 26 2026 10:07:17 GMT-0500 (Central Daylight Time),617615.400000006,1500,O,m,1435,12,1,2959.9000000059605,614655.5,7779,NTS,A,23
7,17,test,2,C,triangle.png,0,z,Thu Mar 26 2026 10:07:17 GMT-0500 (Central Daylight Time),620847.799999997,1700,O,None,1516,6,1,3228.5,617619.299999997,7779,NTS,A,24
4,1,test,3,C,circle.png,1,z,Thu Mar 26 2026 10:07:17 GMT-0500 (Central Daylight Time),640574.599999994,1400,O,z,744,20,1,2161.3999999910593,638413.200000003,7779,NTS,A,1
9,2,test,3,C,circle.png,1,m,Thu Mar 26 2026 10:07:17 GMT-0500 (Central Daylight Time),642940.400000006,1500,O,m,838,8,1,2361.0,640579.400000006,7779,NTS,A,2
6,3,test,3,C,circle.png,1,m,Thu Mar 26 2026 10:07:17 GMT-0500 (Central Daylight Time),646106.299999997,1900,O,m,1241,21,1,3162.2999999970198,642944.0,7779,NTS,A,3
2,4,test,3,C,triangle.png,1,m,Thu Mar 26 2026 10:07:17 GMT-0500 (Central Daylight Time),648955.400000006,2000,O,m,831,2,1,2845.6000000089407,646109.799999997,7779,NTS,A,4
4,5,test,3,C,triangle.png,1,m,Thu Mar 26 2026 10:07:17 GMT-0500 (Central Daylight Time),651288.0,1500,O,m,810,12,1,2328.7999999970198,648959.200000003,7779,NTS,A,5
6,6,test,3,C,triangle.png,1,m,Thu Mar 26 2026 10:07:17 GMT-0500 (Central Daylight Time),653237.299999997,1000,O,m,920,13,1,1945.2999999970198,651292.0,7779,NTS,A,6
1,7,test,3,C,circle.png,1,z,Thu Mar 26 2026 10:07:17 GMT-0500 (Central Daylight Time),655169.799999997,1000,O,z,915,1,1,1928.7999999970198,653241.0,7779,NTS,A,7
7,8,test,3,C,circle.png,1,m,Thu Mar 26 2026 10:07:17 GMT-0500 (Central Daylight Time),658135.799999997,2000,O,m,944,14,1,2962.5999999940395,655173.200000003,7779,NTS,A,8
1,9,test,3,C,circle.png,1,z,Thu Mar 26 2026 10:07:17 GMT-0500 (Central Daylight Time),659868.700000003,1000,O,z,712,17,1,1729.2000000029802,658139.5,7779,NTS,A,9
8,10,test,3,C,triangle.png,1,m,Thu Mar 26 2026 10:07:17 GMT-0500 (Central Daylight Time),662134.5,1600,O,m,644,7,1,2262.0999999940395,659872.400000006,7779,NTS,A,10
4,11,test,3,C,circle.png,1,z,Thu Mar 26 2026 10:07:17 GMT-0500 (Central Daylight Time),664800.400000006,1400,O,z,1233,4,1,2662.300000011921,662138.099999994,7779,NTS,A,11
9,11,test,3,C,circle.png,0,m,Thu Mar 26 2026 10:07:17 GMT-0500 (Central Daylight Time),667216.299999997,1500,O,z,893,24,1,2412.0999999940395,664804.200000003,7779,NTS,A,12
3,12,test,3,C,triangle.png,1,z,Thu Mar 26 2026 10:07:17 GMT-0500 (Central Daylight Time),669165.799999997,1200,O,z,729,19,1,1945.8999999910593,667219.900000006,7779,NTS,A,13
1,13,test,3,C,triangle.png,1,z,Thu Mar 26 2026 10:07:17 GMT-0500 (Central Daylight Time),671831.700000003,1900,O,z,743,9,1,2662.5,669169.200000003,7779,NTS,A,14
6,14,test,3,C,circle.png,1,m,Thu Mar 26 2026 10:07:17 GMT-0500 (Central Daylight Time),674464.0,1900,O,m,701,5,1,2628.5999999940395,671835.400000006,7779,NTS,A,15
8,15,test,3,C,triangle.png,1,m,Thu Mar 26 2026 10:07:17 GMT-0500 (Central Daylight Time),676946.5,1600,O,m,857,23,1,2478.5,674468.0,7779,NTS,A,16
9,15,test,3,C,triangle.png,0,z,Thu Mar 26 2026 10:07:17 GMT-0500 (Central Daylight Time),679246.0,1400,O,m,879,16,1,2294.7000000029802,676951.299999997,7779,NTS,A,17
2,16,test,3,C,triangle.png,1,m,Thu Mar 26 2026 10:07:17 GMT-0500 (Central Daylight Time),681961.700000003,2000,O,m,684,18,1,2712.1000000089407,679249.599999994,7779,NTS,A,18
3,17,test,3,C,circle.png,1,z,Thu Mar 26 2026 10:07:17 GMT-0500 (Central Daylight Time),684110.799999997,1600,O,z,528,11,1,2145.5,681965.299999997,7779,NTS,A,19
2,18,test,3,C,circle.png,1,z,Thu Mar 26 2026 10:07:17 GMT-0500 (Central Daylight Time),687059.900000006,1700,O,z,1222,10,1,2945.5,684114.400000006,7779,NTS,A,20
3,18,test,3,C,triangle.png,0,z,Thu Mar 26 2026 10:07:17 GMT-0500 (Central Daylight Time),689792.700000003,1200,O,None,1516,3,1,2728.7999999970198,687063.900000006,7779,NTS,A,21
7,18,test,3,C,triangle.png,0,z,Thu Mar 26 2026 10:07:17 GMT-0500 (Central Daylight Time),692676.0,1700,O,m,1165,6,1,2879.4000000059605,689796.599999994,7779,NTS,A,22
8,19,test,3,C,circle.png,1,m,Thu Mar 26 2026 10:07:17 GMT-0500 (Central Daylight Time),694774.200000003,1200,O,m,877,15,1,2094.4000000059605,692679.799999997,7779,NTS,A,23
7,20,test,3,C,triangle.png,1,z,Thu Mar 26 2026 10:07:17 GMT-0500 (Central Daylight Time),697690.0,1700,O,z,1198,22,1,2912.0,694778.0,7779,NTS,A,24
8,1,test,4,C,circle.png,1,m,Thu Mar 26 2026 10:07:17 GMT-0500 (Central Daylight Time),725282.700000003,1200,O,m,1432,15,1,2647.2000000029802,722635.5,7779,NTS,A,1
1,2,test,4,C,triangle.png,1,z,Thu Mar 26 2026 10:07:17 GMT-0500 (Central Daylight Time),728064.0,1900,O,z,860,9,1,2777.5999999940395,725286.400000006,7779,NTS,A,2
9,3,test,4,C,circle.png,1,m,Thu Mar 26 2026 10:07:17 GMT-0500 (Central Daylight Time),730946.400000006,1500,O,m,1358,8,1,2878.7000000029802,728067.700000003,7779,NTS,A,3
7,4,test,4,C,circle.png,1,m,Thu Mar 26 2026 10:07:17 GMT-0500 (Central Daylight Time),734028.700000003,2000,O,m,1054,14,1,3078.4000000059605,730950.299999997,7779,NTS,A,4
3,5,test,4,C,triangle.png,1,z,Thu Mar 26 2026 10:07:17 GMT-0500 (Central Daylight Time),736427.900000006,1200,O,z,1173,3,1,2395.4000000059605,734032.5,7779,NTS,A,5
4,6,test,4,C,circle.png,1,z,Thu Mar 26 2026 10:07:17 GMT-0500 (Central Daylight Time),739343.700000003,1400,O,z,1484,4,1,2912.1000000089407,736431.599999994,7779,NTS,A,6
4,7,test,4,C,circle.png,1,z,Thu Mar 26 2026 10:07:17 GMT-0500 (Central Daylight Time),741942.900000006,1400,O,z,1170,20,1,2594.7000000029802,739348.200000003,7779,NTS,A,7
6,8,test,4,C,circle.png,1,m,Thu Mar 26 2026 10:07:17 GMT-0500 (Central Daylight Time),745125.200000003,1900,O,m,1255,21,1,3178.4000000059605,741946.799999997,7779,NTS,A,8
2,8,test,4,C,circle.png,0,z,Thu Mar 26 2026 10:07:17 GMT-0500 (Central Daylight Time),747674.5,1700,O,m,831,10,1,2545.7000000029802,745128.799999997,7779,NTS,A,9
3,9,test,4,C,circle.png,1,z,Thu Mar 26 2026 10:07:17 GMT-0500 (Central Daylight Time),750090.099999994,1600,O,z,798,11,1,2412.0,747678.099999994,7779,NTS,A,10
9,10,test,4,C,circle.png,1,m,Thu Mar 26 2026 10:07:17 GMT-0500 (Central Daylight Time),752822.799999997,1500,O,m,1210,24,1,2728.7999999970198,750094.0,7779,NTS,A,11
8,11,test,4,C,triangle.png,1,m,Thu Mar 26 2026 10:07:17 GMT-0500 (Central Daylight Time),755322.200000003,1600,O,m,875,23,1,2495.1000000089407,752827.099999994,7779,NTS,A,12
2,12,test,4,C,triangle.png,1,m,Thu Mar 26 2026 10:07:17 GMT-0500 (Central Daylight Time),758420.799999997,2000,O,m,1072,2,1,3094.8999999910593,755325.900000006,7779,NTS,A,13
6,13,test,4,C,triangle.png,1,m,Thu Mar 26 2026 10:07:17 GMT-0500 (Central Daylight Time),760270.599999994,1000,O,m,827,13,1,1846.0999999940395,758424.5,7779,NTS,A,14
8,14,test,4,C,triangle.png,1,m,Thu Mar 26 2026 10:07:17 GMT-0500 (Central Daylight Time),762686.200000003,1600,O,m,794,7,1,2411.7000000029802,760274.5,7779,NTS,A,15
7,14,test,4,C,triangle.png,0,z,Thu Mar 26 2026 10:07:17 GMT-0500 (Central Daylight Time),765568.900000006,1700,O,m,1159,22,1,2878.9000000059605,762690.0,7779,NTS,A,16
2,15,test,4,C,triangle.png,1,m,Thu Mar 26 2026 10:07:17 GMT-0500 (Central Daylight Time),769017.700000003,2000,O,m,1417,18,1,3444.7999999970198,765572.900000006,7779,NTS,A,17
7,16,test,4,C,triangle.png,1,z,Thu Mar 26 2026 10:07:17 GMT-0500 (Central Daylight Time),772183.599999994,1700,O,z,1436,6,1,3162.2999999970198,769021.299999997,7779,NTS,A,18
6,17,test,4,C,circle.png,1,m,Thu Mar 26 2026 10:07:17 GMT-0500 (Central Daylight Time),775599.0,1900,O,m,1494,5,1,3411.7999999970198,772187.200000003,7779,NTS,A,19
3,18,test,4,C,triangle.png,1,z,Thu Mar 26 2026 10:07:17 GMT-0500 (Central Daylight Time),777581.799999997,1200,O,z,762,19,1,1978.8999999910593,775602.900000006,7779,NTS,A,20
4,19,test,4,C,triangle.png,1,m,Thu Mar 26 2026 10:07:17 GMT-0500 (Central Daylight Time),779781.099999994,1500,O,m,672,12,1,2195.5999999940395,777585.5,7779,NTS,A,21
1,20,test,4,C,circle.png,1,z,Thu Mar 26 2026 10:07:17 GMT-0500 (Central Daylight Time),782080.299999997,1000,O,z,1275,1,1,2295.5,779784.799999997,7779,NTS,A,22
1,21,test,4,C,circle.png,1,z,Thu Mar 26 2026 10:07:17 GMT-0500 (Central Daylight Time),783779.599999994,1000,O,z,680,17,1,1695.5,782084.099999994,7779,NTS,A,23
9,21,test,4,C,triangle.png,0,z,Thu Mar 26 2026 10:07:17 GMT-0500 (Central Daylight Time),786712.0,1400,O,None,1516,16,1,2928.7000000029802,783783.299999997,7779,NTS,A,24
