acc_sum,block,block_c,change,condition,correct,correct_response,datetime,endtime,face,project,response,response_time,row_sel,session_number,start_end,starttime,subject_id,task,task_vers,trial
0,prac,1,,1-Back,,,Tue Dec 09 2025 14:00:40 GMT-0600 (Central Standard Time),,124_o_f_d_a.png,O,space,6646,1,1,,,7243,VNB,A,0
1,prac,1,0.0,1-Back,1.0,m,Tue Dec 09 2025 14:00:40 GMT-0600 (Central Standard Time),142487.10000002384,071_y_f_n_a.png,O,m,1250,2,1,2055.5,140431.60000002384,7243,VNB,A,1
2,prac,1,0.0,1-Back,1.0,m,Tue Dec 09 2025 14:00:40 GMT-0600 (Central Standard Time),144900.70000004768,165_m_m_h_a.png,O,m,1595,3,1,2398.7000000476837,142502.0,7243,VNB,A,2
3,prac,1,0.0,1-Back,1.0,m,Tue Dec 09 2025 14:00:40 GMT-0600 (Central Standard Time),146867.5,109_y_m_d_a.png,O,m,1157,4,1,1955.0,144912.5,7243,VNB,A,3
4,prac,1,0.0,1-Back,1.0,m,Tue Dec 09 2025 14:00:40 GMT-0600 (Central Standard Time),148885.40000003576,124_o_f_n_a.png,O,m,1187,5,1,2004.6000000238419,146880.80000001192,7243,VNB,A,4
5,prac,1,1.0,1-Back,1.0,z,Tue Dec 09 2025 14:00:40 GMT-0600 (Central Standard Time),150550.60000002384,109_y_m_n_a.png,O,z,842,6,1,1650.3999999761581,148900.20000004768,7243,VNB,A,5
6,prac,1,0.0,1-Back,1.0,m,Tue Dec 09 2025 14:00:40 GMT-0600 (Central Standard Time),152632.20000004768,039_o_m_h_a.png,O,m,1282,7,1,2068.800000011921,150563.40000003576,7243,VNB,A,6
7,prac,1,0.0,1-Back,1.0,m,Tue Dec 09 2025 14:00:40 GMT-0600 (Central Standard Time),154432.80000001192,139_m_f_d_a.png,O,m,1003,8,1,1787.8999999761581,152644.90000003576,7243,VNB,A,7
8,prac,1,1.0,1-Back,1.0,z,Tue Dec 09 2025 14:00:40 GMT-0600 (Central Standard Time),156164.20000004768,071_y_f_d_a.png,O,z,918,9,1,1719.4000000357628,154444.80000001192,7243,VNB,A,8
9,prac,1,0.0,1-Back,1.0,m,Tue Dec 09 2025 14:00:40 GMT-0600 (Central Standard Time),158013.70000004768,165_m_m_n_a.png,O,m,1036,10,1,1838.5,156175.20000004768,7243,VNB,A,9
10,prac,1,0.0,1-Back,1.0,m,Tue Dec 09 2025 14:00:40 GMT-0600 (Central Standard Time),159794.70000004768,124_o_f_h_a.png,O,m,963,11,1,1768.9000000357628,158025.80000001192,7243,VNB,A,10
11,prac,1,0.0,1-Back,1.0,m,Tue Dec 09 2025 14:00:40 GMT-0600 (Central Standard Time),161495.70000004768,109_y_m_d_a.png,O,m,925,12,1,1691.6000000238419,159804.10000002384,7243,VNB,A,11
0,test,1,0.0,1-Back,,,Tue Dec 09 2025 14:00:40 GMT-0600 (Central Standard Time),161495.70000004768,071_y_f_d_a.png,O,space,10103,1,1,1691.6000000238419,159804.10000002384,7243,VNB,A,0
1,test,1,0.0,1-Back,1.0,m,Tue Dec 09 2025 14:00:40 GMT-0600 (Central Standard Time),182755.90000003576,139_m_f_n_a.png,O,m,999,2,1,2027.9000000357628,180728.0,7243,VNB,A,1
2,test,1,0.0,1-Back,1.0,m,Tue Dec 09 2025 14:00:40 GMT-0600 (Central Standard Time),184888.80000001192,039_o_m_h_a.png,O,m,1098,3,1,2122.699999988079,182766.10000002384,7243,VNB,A,2
3,test,1,1.0,1-Back,1.0,z,Tue Dec 09 2025 14:00:40 GMT-0600 (Central Standard Time),186754.5,165_m_m_h_a.png,O,z,848,4,1,1856.2999999523163,184898.20000004768,7243,VNB,A,3
4,test,1,0.0,1-Back,1.0,m,Tue Dec 09 2025 14:00:40 GMT-0600 (Central Standard Time),188686.60000002384,124_o_f_n_a.png,O,m,907,5,1,1920.699999988079,186765.90000003576,7243,VNB,A,4
5,test,1,0.0,1-Back,1.0,m,Tue Dec 09 2025 14:00:40 GMT-0600 (Central Standard Time),190552.80000001192,109_y_m_d_a.png,O,m,842,6,1,1856.800000011921,188696.0,7243,VNB,A,5
6,test,1,1.0,1-Back,1.0,z,Tue Dec 09 2025 14:00:40 GMT-0600 (Central Standard Time),192487.40000003576,139_m_f_d_a.png,O,z,911,7,1,1923.300000011921,190564.10000002384,7243,VNB,A,6
7,test,1,0.0,1-Back,1.0,m,Tue Dec 09 2025 14:00:40 GMT-0600 (Central Standard Time),194551.10000002384,071_y_f_h_a.png,O,m,1043,8,1,2051.899999976158,192499.20000004768,7243,VNB,A,7
8,test,1,0.0,1-Back,1.0,m,Tue Dec 09 2025 14:00:40 GMT-0600 (Central Standard Time),196551.30000001192,039_o_m_n_a.png,O,m,976,9,1,1989.800000011921,194561.5,7243,VNB,A,8
9,test,1,0.0,1-Back,1.0,m,Tue Dec 09 2025 14:00:40 GMT-0600 (Central Standard Time),198750.60000002384,109_y_m_h_a.png,O,m,1169,10,1,2189.199999988079,196561.40000003576,7243,VNB,A,9
10,test,1,0.0,1-Back,1.0,m,Tue Dec 09 2025 14:00:40 GMT-0600 (Central Standard Time),200667.30000001192,039_o_m_d_a.png,O,m,900,11,1,1906.8999999761581,198760.40000003576,7243,VNB,A,10
11,test,1,1.0,1-Back,1.0,z,Tue Dec 09 2025 14:00:40 GMT-0600 (Central Standard Time),202398.90000003576,124_o_f_d_a.png,O,z,709,12,1,1722.199999988079,200676.70000004768,7243,VNB,A,11
12,test,1,0.0,1-Back,1.0,m,Tue Dec 09 2025 14:00:40 GMT-0600 (Central Standard Time),204232.5,165_m_m_n_a.png,O,m,800,13,1,1822.7999999523163,202409.70000004768,7243,VNB,A,12
13,test,1,1.0,1-Back,1.0,z,Tue Dec 09 2025 14:00:40 GMT-0600 (Central Standard Time),206348.70000004768,071_y_f_n_a.png,O,z,1096,14,1,2106.5,204242.20000004768,7243,VNB,A,13
14,test,1,0.0,1-Back,1.0,m,Tue Dec 09 2025 14:00:40 GMT-0600 (Central Standard Time),208281.90000003576,139_m_f_h_a.png,O,m,908,15,1,1921.699999988079,206360.20000004768,7243,VNB,A,14
15,test,1,0.0,1-Back,1.0,m,Tue Dec 09 2025 14:00:40 GMT-0600 (Central Standard Time),210296.70000004768,165_m_m_d_a.png,O,m,990,16,1,2003.6000000238419,208293.10000002384,7243,VNB,A,15
16,test,1,0.0,1-Back,1.0,m,Tue Dec 09 2025 14:00:40 GMT-0600 (Central Standard Time),212162.60000002384,109_y_m_n_a.png,O,m,838,17,1,1855.800000011921,210306.80000001192,7243,VNB,A,16
17,test,1,0.0,1-Back,1.0,m,Tue Dec 09 2025 14:00:40 GMT-0600 (Central Standard Time),214012.30000001192,124_o_f_h_a.png,O,m,828,18,1,1840.0,212172.30000001192,7243,VNB,A,17
0,test,2,0.0,1-Back,,,Tue Dec 09 2025 14:00:40 GMT-0600 (Central Standard Time),214012.30000001192,109_y_m_n_a.png,O,space,1307,1,1,1840.0,212172.30000001192,7243,VNB,A,0
1,test,2,0.0,1-Back,1.0,m,Tue Dec 09 2025 14:00:40 GMT-0600 (Central Standard Time),219144.40000003576,071_y_f_h_a.png,O,m,775,2,1,1789.1000000238419,217355.30000001192,7243,VNB,A,1
2,test,2,1.0,1-Back,1.0,m,Tue Dec 09 2025 14:00:40 GMT-0600 (Central Standard Time),221026.40000003576,039_o_m_n_a.png,O,m,865,3,1,1876.300000011921,219150.10000002384,7243,VNB,A,2
3,test,2,0.0,1-Back,1.0,m,Tue Dec 09 2025 14:00:40 GMT-0600 (Central Standard Time),223593.70000004768,139_m_f_d_a.png,O,m,1549,4,1,2557.600000023842,221036.10000002384,7243,VNB,A,3
4,test,2,0.0,1-Back,1.0,z,Tue Dec 09 2025 14:00:40 GMT-0600 (Central Standard Time),225358.60000002384,165_m_m_d_a.png,O,z,734,5,1,1754.6000000238419,223604.0,7243,VNB,A,4
5,test,2,0.0,1-Back,1.0,m,Tue Dec 09 2025 14:00:40 GMT-0600 (Central Standard Time),227407.40000003576,109_y_m_h_a.png,O,m,1023,6,1,2038.9000000357628,225368.5,7243,VNB,A,5
6,test,2,1.0,1-Back,1.0,z,Tue Dec 09 2025 14:00:40 GMT-0600 (Central Standard Time),229457.0,124_o_f_h_a.png,O,z,1021,7,1,2043.699999988079,227413.30000001192,7243,VNB,A,6
7,test,2,0.0,1-Back,1.0,m,Tue Dec 09 2025 14:00:40 GMT-0600 (Central Standard Time),231423.10000002384,139_m_f_n_a.png,O,m,940,8,1,1955.3999999761581,229467.70000004768,7243,VNB,A,7
8,test,2,0.0,1-Back,1.0,m,Tue Dec 09 2025 14:00:40 GMT-0600 (Central Standard Time),233273.5,071_y_f_d_a.png,O,m,822,9,1,1838.8999999761581,231434.60000002384,7243,VNB,A,8
9,test,2,0.0,1-Back,1.0,m,Tue Dec 09 2025 14:00:40 GMT-0600 (Central Standard Time),235171.60000002384,165_m_m_n_a.png,O,m,880,10,1,1886.199999988079,233285.40000003576,7243,VNB,A,9
10,test,2,1.0,1-Back,1.0,m,Tue Dec 09 2025 14:00:40 GMT-0600 (Central Standard Time),237121.20000004768,139_m_f_h_a.png,O,m,932,11,1,1942.800000011921,235178.40000003576,7243,VNB,A,10
11,test,2,0.0,1-Back,1.0,z,Tue Dec 09 2025 14:00:40 GMT-0600 (Central Standard Time),238704.60000002384,039_o_m_h_a.png,O,z,552,12,1,1571.1000000238419,237133.5,7243,VNB,A,11
12,test,2,0.0,1-Back,1.0,m,Tue Dec 09 2025 14:00:40 GMT-0600 (Central Standard Time),240421.0,109_y_m_d_a.png,O,m,698,13,1,1707.2999999523163,238713.70000004768,7243,VNB,A,12
13,test,2,0.0,1-Back,1.0,m,Tue Dec 09 2025 14:00:40 GMT-0600 (Central Standard Time),242536.70000004768,124_o_f_n_a.png,O,m,1090,14,1,2105.100000023842,240431.60000002384,7243,VNB,A,13
14,test,2,0.0,1-Back,1.0,z,Tue Dec 09 2025 14:00:40 GMT-0600 (Central Standard Time),244354.60000002384,071_y_f_n_a.png,O,z,800,15,1,1806.800000011921,242547.80000001192,7243,VNB,A,14
15,test,2,1.0,1-Back,1.0,m,Tue Dec 09 2025 14:00:40 GMT-0600 (Central Standard Time),246319.80000001192,165_m_m_h_a.png,O,m,950,16,1,1954.800000011921,244365.0,7243,VNB,A,15
16,test,2,0.0,1-Back,1.0,m,Tue Dec 09 2025 14:00:40 GMT-0600 (Central Standard Time),248767.60000002384,124_o_f_d_a.png,O,m,1416,17,1,2435.699999988079,246331.90000003576,7243,VNB,A,16
17,test,2,1.0,1-Back,1.0,z,Tue Dec 09 2025 14:00:40 GMT-0600 (Central Standard Time),250502.0,039_o_m_d_a.png,O,z,717,18,1,1723.2999999523163,248778.70000004768,7243,VNB,A,17
0,test,3,1.0,1-Back,,,Tue Dec 09 2025 14:00:40 GMT-0600 (Central Standard Time),250502.0,124_o_f_h_a.png,O,space,1299,1,1,1723.2999999523163,248778.70000004768,7243,VNB,A,0
1,test,3,0.0,1-Back,1.0,m,Tue Dec 09 2025 14:00:40 GMT-0600 (Central Standard Time),255715.20000004768,139_m_f_d_a.png,O,m,821,2,1,1838.5,253876.70000004768,7243,VNB,A,1
2,test,3,1.0,1-Back,1.0,m,Tue Dec 09 2025 14:00:40 GMT-0600 (Central Standard Time),257497.30000001192,165_m_m_n_a.png,O,m,755,3,1,1769.5,255727.80000001192,7243,VNB,A,2
3,test,3,0.0,1-Back,1.0,z,Tue Dec 09 2025 14:00:40 GMT-0600 (Central Standard Time),259133.5,124_o_f_n_a.png,O,z,612,4,1,1624.7999999523163,257508.70000004768,7243,VNB,A,3
4,test,3,1.0,1-Back,1.0,m,Tue Dec 09 2025 14:00:40 GMT-0600 (Central Standard Time),260980.20000004768,039_o_m_d_a.png,O,m,819,5,1,1836.300000011921,259143.90000003576,7243,VNB,A,4
5,test,3,0.0,1-Back,1.0,m,Tue Dec 09 2025 14:00:40 GMT-0600 (Central Standard Time),262896.3000000119,071_y_f_h_a.png,O,m,898,6,1,1906.300000011921,260990.0,7243,VNB,A,5
6,test,3,0.0,1-Back,1.0,z,Tue Dec 09 2025 14:00:40 GMT-0600 (Central Standard Time),264680.5,109_y_m_h_a.png,O,z,751,7,1,1773.5,262907.0,7243,VNB,A,6
7,test,3,0.0,1-Back,1.0,m,Tue Dec 09 2025 14:00:40 GMT-0600 (Central Standard Time),266595.40000003576,139_m_f_n_a.png,O,m,888,8,1,1905.199999988079,264690.2000000477,7243,VNB,A,7
8,test,3,0.0,1-Back,1.0,m,Tue Dec 09 2025 14:00:40 GMT-0600 (Central Standard Time),268660.8000000119,071_y_f_d_a.png,O,m,1044,9,1,2053.099999964237,266607.7000000477,7243,VNB,A,8
9,test,3,1.0,1-Back,1.0,m,Tue Dec 09 2025 14:00:40 GMT-0600 (Central Standard Time),270527.5,039_o_m_n_a.png,O,m,849,10,1,1856.2999999523163,268671.2000000477,7243,VNB,A,9
10,test,3,0.0,1-Back,1.0,m,Tue Dec 09 2025 14:00:40 GMT-0600 (Central Standard Time),272343.8000000119,165_m_m_h_a.png,O,m,791,11,1,1808.5999999642372,270535.2000000477,7243,VNB,A,10
11,test,3,0.0,1-Back,1.0,z,Tue Dec 09 2025 14:00:40 GMT-0600 (Central Standard Time),274293.3000000119,139_m_f_h_a.png,O,z,921,12,1,1939.199999988079,272354.10000002384,7243,VNB,A,11
12,test,3,1.0,1-Back,1.0,m,Tue Dec 09 2025 14:00:40 GMT-0600 (Central Standard Time),275959.10000002384,124_o_f_d_a.png,O,m,643,13,1,1657.0,274302.10000002384,7243,VNB,A,12
13,test,3,0.0,1-Back,1.0,z,Tue Dec 09 2025 14:00:40 GMT-0600 (Central Standard Time),277692.2000000477,165_m_m_d_a.png,O,z,712,14,1,1722.0,275970.2000000477,7243,VNB,A,13
14,test,3,0.0,1-Back,1.0,m,Tue Dec 09 2025 14:00:40 GMT-0600 (Central Standard Time),279508.8000000119,109_y_m_n_a.png,O,m,797,15,1,1805.699999988079,277703.10000002384,7243,VNB,A,14
14,test,3,1.0,1-Back,0.0,m,Tue Dec 09 2025 14:00:40 GMT-0600 (Central Standard Time),281424.3000000119,039_o_m_h_a.png,O,z,883,16,1,1906.3999999761581,279517.90000003576,7243,VNB,A,15
15,test,3,0.0,1-Back,1.0,m,Tue Dec 09 2025 14:00:40 GMT-0600 (Central Standard Time),283806.8000000119,109_y_m_d_a.png,O,m,1361,17,1,2371.899999976158,281434.90000003576,7243,VNB,A,16
15,test,3,1.0,1-Back,0.0,m,Tue Dec 09 2025 14:00:40 GMT-0600 (Central Standard Time),285856.5,071_y_f_n_a.png,O,z,1025,18,1,2038.5,283818.0,7243,VNB,A,17
0,test,4,1.0,1-Back,,,Tue Dec 09 2025 14:00:40 GMT-0600 (Central Standard Time),285856.5,165_m_m_d_a.png,O,space,1303,1,1,2038.5,283818.0,7243,VNB,A,0
1,test,4,0.0,1-Back,1.0,z,Tue Dec 09 2025 14:00:40 GMT-0600 (Central Standard Time),291221.3000000119,039_o_m_d_a.png,O,z,1001,2,1,2020.0,289201.3000000119,7243,VNB,A,1
2,test,4,0.0,1-Back,1.0,m,Tue Dec 09 2025 14:00:40 GMT-0600 (Central Standard Time),293444.40000003576,109_y_m_h_a.png,O,m,1188,3,1,2211.100000023842,291233.3000000119,7243,VNB,A,2
3,test,4,0.0,1-Back,1.0,m,Tue Dec 09 2025 14:00:40 GMT-0600 (Central Standard Time),295486.10000002384,139_m_f_n_a.png,O,m,1010,4,1,2032.1000000238419,293454.0,7243,VNB,A,3
4,test,4,1.0,1-Back,1.0,m,Tue Dec 09 2025 14:00:40 GMT-0600 (Central Standard Time),297402.40000003576,124_o_f_h_a.png,O,m,888,5,1,1905.699999988079,295496.7000000477,7243,VNB,A,4
5,test,4,0.0,1-Back,1.0,m,Tue Dec 09 2025 14:00:40 GMT-0600 (Central Standard Time),299169.3000000119,165_m_m_n_a.png,O,m,751,6,1,1756.5999999642372,297412.7000000477,7243,VNB,A,5
6,test,4,0.0,1-Back,1.0,m,Tue Dec 09 2025 14:00:40 GMT-0600 (Central Standard Time),301117.2000000477,109_y_m_d_a.png,O,m,918,7,1,1937.0,299180.2000000477,7243,VNB,A,6
7,test,4,1.0,1-Back,1.0,z,Tue Dec 09 2025 14:00:40 GMT-0600 (Central Standard Time),302766.8000000119,071_y_f_d_a.png,O,z,626,8,1,1641.3999999761581,301125.40000003576,7243,VNB,A,7
8,test,4,0.0,1-Back,1.0,m,Tue Dec 09 2025 14:00:40 GMT-0600 (Central Standard Time),304750.8000000119,139_m_f_h_a.png,O,m,960,9,1,1973.8999999761581,302776.90000003576,7243,VNB,A,8
9,test,4,0.0,1-Back,1.0,z,Tue Dec 09 2025 14:00:40 GMT-0600 (Central Standard Time),306382.60000002384,039_o_m_h_a.png,O,z,603,10,1,1620.3999999761581,304762.2000000477,7243,VNB,A,9
10,test,4,1.0,1-Back,1.0,m,Tue Dec 09 2025 14:00:40 GMT-0600 (Central Standard Time),308215.0,124_o_f_n_a.png,O,m,799,11,1,1823.5,306391.5,7243,VNB,A,10
11,test,4,0.0,1-Back,1.0,m,Tue Dec 09 2025 14:00:40 GMT-0600 (Central Standard Time),310415.5,139_m_f_d_a.png,O,m,1167,12,1,2192.7999999523163,308222.7000000477,7243,VNB,A,11
12,test,4,0.0,1-Back,1.0,m,Tue Dec 09 2025 14:00:40 GMT-0600 (Central Standard Time),312431.10000002384,071_y_f_n_a.png,O,m,991,13,1,2004.8999999761581,310426.2000000477,7243,VNB,A,12
13,test,4,0.0,1-Back,1.0,m,Tue Dec 09 2025 14:00:40 GMT-0600 (Central Standard Time),314246.2000000477,124_o_f_d_a.png,O,m,784,14,1,1806.2000000476837,312440.0,7243,VNB,A,13
14,test,4,0.0,1-Back,1.0,m,Tue Dec 09 2025 14:00:40 GMT-0600 (Central Standard Time),316114.2000000477,071_y_f_h_a.png,O,m,840,15,1,1857.800000011921,314256.40000003576,7243,VNB,A,14
15,test,4,1.0,1-Back,1.0,z,Tue Dec 09 2025 14:00:40 GMT-0600 (Central Standard Time),317963.5,165_m_m_h_a.png,O,z,824,16,1,1839.7999999523163,316123.7000000477,7243,VNB,A,15
16,test,4,0.0,1-Back,1.0,m,Tue Dec 09 2025 14:00:40 GMT-0600 (Central Standard Time),319763.90000003576,039_o_m_n_a.png,O,m,785,17,1,1790.800000011921,317973.10000002384,7243,VNB,A,16
17,test,4,1.0,1-Back,1.0,z,Tue Dec 09 2025 14:00:40 GMT-0600 (Central Standard Time),322560.90000003576,109_y_m_n_a.png,O,z,1764,18,1,2786.5,319774.40000003576,7243,VNB,A,17
0,test,5,1.0,1-Back,,,Tue Dec 09 2025 14:00:40 GMT-0600 (Central Standard Time),322560.90000003576,039_o_m_n_a.png,O,space,4031,1,1,2786.5,319774.40000003576,7243,VNB,A,0
1,test,5,1.0,1-Back,1.0,m,Tue Dec 09 2025 14:00:40 GMT-0600 (Central Standard Time),330508.5,124_o_f_h_a.png,O,m,869,2,1,1887.5,328621.0,7243,VNB,A,1
2,test,5,0.0,1-Back,1.0,m,Tue Dec 09 2025 14:00:40 GMT-0600 (Central Standard Time),332391.90000003576,109_y_m_d_a.png,O,m,860,3,1,1873.0,330518.90000003576,7243,VNB,A,2
3,test,5,0.0,1-Back,1.0,z,Tue Dec 09 2025 14:00:40 GMT-0600 (Central Standard Time),334124.10000002384,039_o_m_d_a.png,O,z,712,4,1,1723.300000011921,332400.8000000119,7243,VNB,A,3
4,test,5,0.0,1-Back,1.0,m,Tue Dec 09 2025 14:00:40 GMT-0600 (Central Standard Time),335989.40000003576,139_m_f_h_a.png,O,m,835,5,1,1854.6000000238419,334134.8000000119,7243,VNB,A,4
5,test,5,0.0,1-Back,1.0,m,Tue Dec 09 2025 14:00:40 GMT-0600 (Central Standard Time),338121.90000003576,071_y_f_n_a.png,O,m,1113,6,1,2121.100000023842,336000.8000000119,7243,VNB,A,5
6,test,5,1.0,1-Back,1.0,z,Tue Dec 09 2025 14:00:40 GMT-0600 (Central Standard Time),340005.2000000477,124_o_f_n_a.png,O,z,854,7,1,1873.0,338132.2000000477,7243,VNB,A,6
7,test,5,0.0,1-Back,1.0,m,Tue Dec 09 2025 14:00:40 GMT-0600 (Central Standard Time),342671.40000003576,139_m_f_d_a.png,O,m,1642,8,1,2658.800000011921,340012.60000002384,7243,VNB,A,7
8,test,5,0.0,1-Back,1.0,m,Tue Dec 09 2025 14:00:40 GMT-0600 (Central Standard Time),344754.90000003576,109_y_m_h_a.png,O,m,1055,9,1,2073.900000035763,342681.0,7243,VNB,A,8
8,test,5,0.0,1-Back,0.0,m,Tue Dec 09 2025 14:00:40 GMT-0600 (Central Standard Time),347088.0,071_y_f_d_a.png,O,z,1310,10,1,2322.7999999523163,344765.2000000477,7243,VNB,A,9
9,test,5,0.0,1-Back,1.0,m,Tue Dec 09 2025 14:00:40 GMT-0600 (Central Standard Time),349218.0,165_m_m_n_a.png,O,m,1110,11,1,2118.399999976158,347099.60000002384,7243,VNB,A,10
10,test,5,1.0,1-Back,1.0,z,Tue Dec 09 2025 14:00:40 GMT-0600 (Central Standard Time),351268.2000000477,139_m_f_n_a.png,O,z,1020,12,1,2039.800000011921,349228.40000003576,7243,VNB,A,11
11,test,5,0.0,1-Back,1.0,m,Tue Dec 09 2025 14:00:40 GMT-0600 (Central Standard Time),353283.90000003576,039_o_m_h_a.png,O,m,987,13,1,2004.0,351279.90000003576,7243,VNB,A,12
12,test,5,0.0,1-Back,1.0,z,Tue Dec 09 2025 14:00:40 GMT-0600 (Central Standard Time),355050.3000000119,165_m_m_h_a.png,O,z,740,14,1,1757.199999988079,353293.10000002384,7243,VNB,A,13
13,test,5,1.0,1-Back,1.0,m,Tue Dec 09 2025 14:00:40 GMT-0600 (Central Standard Time),356784.40000003576,124_o_f_d_a.png,O,m,709,15,1,1722.800000011921,355061.60000002384,7243,VNB,A,14
14,test,5,0.0,1-Back,1.0,m,Tue Dec 09 2025 14:00:40 GMT-0600 (Central Standard Time),358897.8000000119,109_y_m_n_a.png,O,m,1086,16,1,2101.599999964237,356796.2000000477,7243,VNB,A,15
15,test,5,0.0,1-Back,1.0,m,Tue Dec 09 2025 14:00:40 GMT-0600 (Central Standard Time),360932.5,071_y_f_h_a.png,O,m,1005,17,1,2028.5,358904.0,7243,VNB,A,16
16,test,5,0.0,1-Back,1.0,m,Tue Dec 09 2025 14:00:40 GMT-0600 (Central Standard Time),362781.8000000119,165_m_m_d_a.png,O,m,819,18,1,1837.0,360944.8000000119,7243,VNB,A,17
0,prac,1,0.0,2-Back,,,Tue Dec 09 2025 14:00:40 GMT-0600 (Central Standard Time),362781.8000000119,139_m_f_n_a.png,O,space,7730,1,1,1837.0,360944.8000000119,7243,VNB,A,0
0,prac,1,0.0,2-Back,,,Tue Dec 09 2025 14:00:40 GMT-0600 (Central Standard Time),362781.8000000119,124_o_f_h_a.png,O,space,7730,2,1,1837.0,360944.8000000119,7243,VNB,A,0
1,prac,1,0.0,2-Back,1.0,m,Tue Dec 09 2025 14:00:40 GMT-0600 (Central Standard Time),459186.5,039_o_m_d_a.png,O,m,1494,3,1,2291.899999976158,456894.60000002384,7243,VNB,A,1
1,prac,1,1.0,2-Back,0.0,z,Tue Dec 09 2025 14:00:40 GMT-0600 (Central Standard Time),461984.90000003576,165_m_m_h_a.png,O,None,2013,4,1,2786.199999988079,459198.7000000477,7243,VNB,A,2
2,prac,1,0.0,2-Back,1.0,m,Tue Dec 09 2025 14:00:40 GMT-0600 (Central Standard Time),464399.7000000477,071_y_f_n_a.png,O,m,1619,5,1,2407.2000000476837,461992.5,7243,VNB,A,3
3,prac,1,1.0,2-Back,1.0,z,Tue Dec 09 2025 14:00:40 GMT-0600 (Central Standard Time),466583.0,039_o_m_h_a.png,O,z,1397,6,1,2171.099999964237,464411.90000003576,7243,VNB,A,4
4,prac,1,1.0,2-Back,1.0,z,Tue Dec 09 2025 14:00:40 GMT-0600 (Central Standard Time),468748.2000000477,109_y_m_n_a.png,O,z,1347,7,1,2154.400000035763,466593.8000000119,7243,VNB,A,5
5,prac,1,0.0,2-Back,1.0,m,Tue Dec 09 2025 14:00:40 GMT-0600 (Central Standard Time),470796.7000000477,139_m_f_d_a.png,O,m,1235,8,1,2036.1000000238419,468760.60000002384,7243,VNB,A,6
6,prac,1,0.0,2-Back,1.0,m,Tue Dec 09 2025 14:00:40 GMT-0600 (Central Standard Time),473213.60000002384,124_o_f_d_a.png,O,m,1577,9,1,2406.0,470807.60000002384,7243,VNB,A,7
7,prac,1,0.0,2-Back,1.0,m,Tue Dec 09 2025 14:00:40 GMT-0600 (Central Standard Time),474879.40000003576,165_m_m_h_a.png,O,m,872,10,1,1654.6000000238419,473224.8000000119,7243,VNB,A,8
8,prac,1,1.0,2-Back,1.0,z,Tue Dec 09 2025 14:00:40 GMT-0600 (Central Standard Time),476362.2000000477,071_y_f_d_a.png,O,z,676,11,1,1467.0,474895.2000000477,7243,VNB,A,9
8,prac,1,0.0,2-Back,0.0,m,Tue Dec 09 2025 14:00:40 GMT-0600 (Central Standard Time),478361.10000002384,039_o_m_n_a.png,O,z,1195,12,1,1987.1000000238419,476374.0,7243,VNB,A,10
0,test,1,0.0,2-Back,,,Tue Dec 09 2025 14:00:40 GMT-0600 (Central Standard Time),478361.10000002384,109_y_m_h_a.png,O,space,13863,1,1,1987.1000000238419,476374.0,7243,VNB,A,0
0,test,1,0.0,2-Back,,,Tue Dec 09 2025 14:00:40 GMT-0600 (Central Standard Time),478361.10000002384,124_o_f_n_a.png,O,space,13863,2,1,1987.1000000238419,476374.0,7243,VNB,A,0
1,test,1,0.0,2-Back,1.0,z,Tue Dec 09 2025 14:00:40 GMT-0600 (Central Standard Time),512634.90000003576,039_o_m_h_a.png,O,z,757,3,1,1772.9000000357628,510862.0,7243,VNB,A,1
2,test,1,0.0,2-Back,1.0,m,Tue Dec 09 2025 14:00:40 GMT-0600 (Central Standard Time),514633.40000003576,139_m_f_d_a.png,O,m,981,4,1,1987.699999988079,512645.7000000477,7243,VNB,A,2
3,test,1,1.0,2-Back,1.0,m,Tue Dec 09 2025 14:00:40 GMT-0600 (Central Standard Time),517098.40000003576,109_y_m_n_a.png,O,m,1436,5,1,2455.100000023842,514643.3000000119,7243,VNB,A,3
3,test,1,0.0,2-Back,0.0,z,Tue Dec 09 2025 14:00:40 GMT-0600 (Central Standard Time),520130.5,071_y_f_d_a.png,O,None,2014,6,1,3020.5,517110.0,7243,VNB,A,4
4,test,1,0.0,2-Back,1.0,m,Tue Dec 09 2025 14:00:40 GMT-0600 (Central Standard Time),522414.40000003576,165_m_m_h_a.png,O,m,1261,7,1,2272.400000035763,520142.0,7243,VNB,A,5
5,test,1,1.0,2-Back,1.0,m,Tue Dec 09 2025 14:00:40 GMT-0600 (Central Standard Time),524297.1000000238,071_y_f_n_a.png,O,m,864,8,1,1871.800000011921,522425.3000000119,7243,VNB,A,6
6,test,1,0.0,2-Back,1.0,z,Tue Dec 09 2025 14:00:40 GMT-0600 (Central Standard Time),525979.0,124_o_f_h_a.png,O,z,654,9,1,1673.0,524306.0,7243,VNB,A,7
7,test,1,0.0,2-Back,1.0,m,Tue Dec 09 2025 14:00:40 GMT-0600 (Central Standard Time),528195.9000000358,039_o_m_d_a.png,O,m,1187,10,1,2206.199999988079,525989.7000000477,7243,VNB,A,8
7,test,1,1.0,2-Back,0.0,m,Tue Dec 09 2025 14:00:40 GMT-0600 (Central Standard Time),530713.2000000477,165_m_m_d_a.png,O,z,1497,11,1,2506.5,528206.7000000477,7243,VNB,A,9
8,test,1,0.0,2-Back,1.0,m,Tue Dec 09 2025 14:00:40 GMT-0600 (Central Standard Time),533677.5,139_m_f_n_a.png,O,m,1935,12,1,2953.599999964237,530723.9000000358,7243,VNB,A,10
9,test,1,0.0,2-Back,1.0,m,Tue Dec 09 2025 14:00:40 GMT-0600 (Central Standard Time),536192.5,071_y_f_h_a.png,O,m,1490,13,1,2504.599999964237,533687.9000000358,7243,VNB,A,11
10,test,1,0.0,2-Back,1.0,z,Tue Dec 09 2025 14:00:40 GMT-0600 (Central Standard Time),538109.4000000358,165_m_m_n_a.png,O,z,886,14,1,1905.199999988079,536204.2000000477,7243,VNB,A,12
11,test,1,0.0,2-Back,1.0,m,Tue Dec 09 2025 14:00:40 GMT-0600 (Central Standard Time),540124.7000000477,109_y_m_d_a.png,O,m,993,15,1,2005.5,538119.2000000477,7243,VNB,A,13
11,test,1,1.0,2-Back,0.0,m,Tue Dec 09 2025 14:00:40 GMT-0600 (Central Standard Time),542692.1000000238,139_m_f_h_a.png,O,z,1549,16,1,2559.399999976158,540132.7000000477,7243,VNB,A,14
11,test,1,0.0,2-Back,0.0,z,Tue Dec 09 2025 14:00:40 GMT-0600 (Central Standard Time),544841.4000000358,124_o_f_d_a.png,O,m,1116,17,1,2138.900000035763,542702.5,7243,VNB,A,15
12,test,1,0.0,2-Back,1.0,m,Tue Dec 09 2025 14:00:40 GMT-0600 (Central Standard Time),547573.4000000358,039_o_m_n_a.png,O,m,1712,18,1,2721.199999988079,544852.2000000477,7243,VNB,A,16
0,test,2,0.0,2-Back,,,Tue Dec 09 2025 14:00:40 GMT-0600 (Central Standard Time),547573.4000000358,165_m_m_h_a.png,O,space,2186,1,1,2721.199999988079,544852.2000000477,7243,VNB,A,0
0,test,2,0.0,2-Back,,,Tue Dec 09 2025 14:00:40 GMT-0600 (Central Standard Time),547573.4000000358,071_y_f_n_a.png,O,space,2186,2,1,2721.199999988079,544852.2000000477,7243,VNB,A,0
1,test,2,1.0,2-Back,1.0,z,Tue Dec 09 2025 14:00:40 GMT-0600 (Central Standard Time),557070.3000000119,124_o_f_h_a.png,O,z,1170,3,1,2188.899999976158,554881.4000000358,7243,VNB,A,1
2,test,2,0.0,2-Back,1.0,m,Tue Dec 09 2025 14:00:40 GMT-0600 (Central Standard Time),559202.5,039_o_m_d_a.png,O,m,1106,4,1,2121.899999976158,557080.6000000238,7243,VNB,A,2
3,test,2,0.0,2-Back,1.0,m,Tue Dec 09 2025 14:00:40 GMT-0600 (Central Standard Time),561435.9000000358,139_m_f_d_a.png,O,m,1204,5,1,2222.400000035763,559213.5,7243,VNB,A,3
4,test,2,0.0,2-Back,1.0,m,Tue Dec 09 2025 14:00:40 GMT-0600 (Central Standard Time),563603.0,109_y_m_h_a.png,O,m,1150,6,1,2154.7999999523163,561448.2000000477,7243,VNB,A,4
5,test,2,0.0,2-Back,1.0,m,Tue Dec 09 2025 14:00:40 GMT-0600 (Central Standard Time),565601.8000000119,124_o_f_n_a.png,O,m,983,7,1,1988.0,563613.8000000119,7243,VNB,A,5
6,test,2,1.0,2-Back,1.0,z,Tue Dec 09 2025 14:00:40 GMT-0600 (Central Standard Time),567184.5,039_o_m_h_a.png,O,z,567,8,1,1571.699999988079,565612.8000000119,7243,VNB,A,6
7,test,2,0.0,2-Back,1.0,m,Tue Dec 09 2025 14:00:40 GMT-0600 (Central Standard Time),569233.9000000358,071_y_f_d_a.png,O,m,1032,9,1,2039.1000000238419,567194.8000000119,7243,VNB,A,7
7,test,2,0.0,2-Back,0.0,m,Tue Dec 09 2025 14:00:40 GMT-0600 (Central Standard Time),571848.8000000119,109_y_m_d_a.png,O,z,1599,10,1,2607.099999964237,569241.7000000477,7243,VNB,A,8
8,test,2,0.0,2-Back,1.0,m,Tue Dec 09 2025 14:00:40 GMT-0600 (Central Standard Time),574364.9000000358,165_m_m_n_a.png,O,m,1496,11,1,2505.300000011921,571859.6000000238,7243,VNB,A,9
9,test,2,0.0,2-Back,1.0,m,Tue Dec 09 2025 14:00:40 GMT-0600 (Central Standard Time),576680.2000000477,139_m_f_h_a.png,O,m,1291,12,1,2305.900000035763,574374.3000000119,7243,VNB,A,10
10,test,2,1.0,2-Back,1.0,z,Tue Dec 09 2025 14:00:40 GMT-0600 (Central Standard Time),579313.6000000238,039_o_m_n_a.png,O,z,1599,13,1,2623.300000011921,576690.3000000119,7243,VNB,A,11
11,test,2,0.0,2-Back,1.0,m,Tue Dec 09 2025 14:00:40 GMT-0600 (Central Standard Time),581794.9000000358,124_o_f_d_a.png,O,m,1463,14,1,2472.400000035763,579322.5,7243,VNB,A,12
12,test,2,0.0,2-Back,1.0,m,Tue Dec 09 2025 14:00:40 GMT-0600 (Central Standard Time),584111.5,071_y_f_h_a.png,O,m,1284,15,1,2307.5,581804.0,7243,VNB,A,13
13,test,2,0.0,2-Back,1.0,z,Tue Dec 09 2025 14:00:40 GMT-0600 (Central Standard Time),586276.4000000358,165_m_m_d_a.png,O,z,1144,16,1,2154.400000035763,584122.0,7243,VNB,A,14
14,test,2,0.0,2-Back,1.0,m,Tue Dec 09 2025 14:00:40 GMT-0600 (Central Standard Time),588642.9000000358,109_y_m_n_a.png,O,m,1346,17,1,2359.100000023842,586283.8000000119,7243,VNB,A,15
15,test,2,1.0,2-Back,1.0,m,Tue Dec 09 2025 14:00:40 GMT-0600 (Central Standard Time),590942.2000000477,139_m_f_n_a.png,O,m,1270,18,1,2288.300000011921,588653.9000000358,7243,VNB,A,16
0,test,3,1.0,2-Back,,,Tue Dec 09 2025 14:00:40 GMT-0600 (Central Standard Time),590942.2000000477,039_o_m_n_a.png,O,space,2737,1,1,2288.300000011921,588653.9000000358,7243,VNB,A,0
0,test,3,1.0,2-Back,,,Tue Dec 09 2025 14:00:40 GMT-0600 (Central Standard Time),590942.2000000477,124_o_f_d_a.png,O,space,2737,2,1,2288.300000011921,588653.9000000358,7243,VNB,A,0
1,test,3,0.0,2-Back,1.0,m,Tue Dec 09 2025 14:00:40 GMT-0600 (Central Standard Time),601088.6000000238,071_y_f_h_a.png,O,m,1312,3,1,2338.300000011921,598750.3000000119,7243,VNB,A,1
1,test,3,0.0,2-Back,0.0,z,Tue Dec 09 2025 14:00:40 GMT-0600 (Central Standard Time),603705.0,139_m_f_d_a.png,O,m,1599,4,1,2606.599999964237,601098.4000000358,7243,VNB,A,2
1,test,3,1.0,2-Back,0.0,m,Tue Dec 09 2025 14:00:40 GMT-0600 (Central Standard Time),606255.2000000477,109_y_m_n_a.png,O,z,1527,5,1,2540.5,603714.7000000477,7243,VNB,A,3
2,test,3,0.0,2-Back,1.0,m,Tue Dec 09 2025 14:00:40 GMT-0600 (Central Standard Time),608570.2000000477,039_o_m_h_a.png,O,m,1291,6,1,2303.100000023842,606267.1000000238,7243,VNB,A,4
3,test,3,0.0,2-Back,1.0,z,Tue Dec 09 2025 14:00:40 GMT-0600 (Central Standard Time),610420.3000000119,071_y_f_n_a.png,O,z,821,7,1,1838.300000011921,608582.0,7243,VNB,A,5
4,test,3,1.0,2-Back,1.0,m,Tue Dec 09 2025 14:00:40 GMT-0600 (Central Standard Time),612352.3000000119,165_m_m_d_a.png,O,m,909,8,1,1919.5999999642372,610432.7000000477,7243,VNB,A,6
4,test,3,0.0,2-Back,0.0,m,Tue Dec 09 2025 14:00:40 GMT-0600 (Central Standard Time),614601.2000000477,109_y_m_d_a.png,O,z,1223,9,1,2236.0,612365.2000000477,7243,VNB,A,7
5,test,3,0.0,2-Back,1.0,m,Tue Dec 09 2025 14:00:40 GMT-0600 (Central Standard Time),617508.9000000358,124_o_f_h_a.png,O,m,1891,10,1,2895.800000011921,614613.1000000238,7243,VNB,A,8
6,test,3,1.0,2-Back,1.0,m,Tue Dec 09 2025 14:00:40 GMT-0600 (Central Standard Time),619982.8000000119,139_m_f_n_a.png,O,m,1460,11,1,2467.0,617515.8000000119,7243,VNB,A,9
7,test,3,1.0,2-Back,1.0,z,Tue Dec 09 2025 14:00:40 GMT-0600 (Central Standard Time),622083.5,165_m_m_h_a.png,O,z,1072,12,1,2089.099999964237,619994.4000000358,7243,VNB,A,10
8,test,3,0.0,2-Back,1.0,m,Tue Dec 09 2025 14:00:40 GMT-0600 (Central Standard Time),624097.7000000477,071_y_f_d_a.png,O,m,989,13,1,2005.800000011921,622091.9000000358,7243,VNB,A,11
9,test,3,0.0,2-Back,1.0,m,Tue Dec 09 2025 14:00:40 GMT-0600 (Central Standard Time),626114.3000000119,124_o_f_n_a.png,O,m,990,14,1,2005.699999988079,624108.6000000238,7243,VNB,A,12
10,test,3,0.0,2-Back,1.0,z,Tue Dec 09 2025 14:00:40 GMT-0600 (Central Standard Time),629029.8000000119,039_o_m_d_a.png,O,z,1893,15,1,2904.0,626125.8000000119,7243,VNB,A,13
10,test,3,1.0,2-Back,0.0,m,Tue Dec 09 2025 14:00:40 GMT-0600 (Central Standard Time),631314.1000000238,139_m_f_h_a.png,O,z,1257,16,1,2272.899999976158,629041.2000000477,7243,VNB,A,14
11,test,3,0.0,2-Back,1.0,m,Tue Dec 09 2025 14:00:40 GMT-0600 (Central Standard Time),633612.4000000358,165_m_m_n_a.png,O,m,1278,17,1,2286.600000023842,631325.8000000119,7243,VNB,A,15
11,test,3,0.0,2-Back,0.0,z,Tue Dec 09 2025 14:00:40 GMT-0600 (Central Standard Time),636644.6000000238,109_y_m_h_a.png,O,None,2015,18,1,3021.100000023842,633623.5,7243,VNB,A,16
0,test,4,0.0,2-Back,,,Tue Dec 09 2025 14:00:40 GMT-0600 (Central Standard Time),636644.6000000238,139_m_f_n_a.png,O,space,2203,1,1,3021.100000023842,633623.5,7243,VNB,A,0
0,test,4,0.0,2-Back,,,Tue Dec 09 2025 14:00:40 GMT-0600 (Central Standard Time),636644.6000000238,039_o_m_n_a.png,O,space,2203,2,1,3021.100000023842,633623.5,7243,VNB,A,0
1,test,4,1.0,2-Back,1.0,m,Tue Dec 09 2025 14:00:40 GMT-0600 (Central Standard Time),646041.6000000238,109_y_m_h_a.png,O,m,1099,3,1,2105.199999988079,643936.4000000358,7243,VNB,A,1
2,test,4,1.0,2-Back,1.0,m,Tue Dec 09 2025 14:00:40 GMT-0600 (Central Standard Time),648056.5,124_o_f_d_a.png,O,m,982,4,1,2002.5999999642372,646053.9000000358,7243,VNB,A,2
3,test,4,0.0,2-Back,1.0,z,Tue Dec 09 2025 14:00:40 GMT-0600 (Central Standard Time),650024.7000000477,039_o_m_h_a.png,O,z,934,5,1,1958.2000000476837,648066.5,7243,VNB,A,3
4,test,4,0.0,2-Back,1.0,m,Tue Dec 09 2025 14:00:40 GMT-0600 (Central Standard Time),652490.0,165_m_m_n_a.png,O,m,1448,6,1,2453.599999964237,650036.4000000358,7243,VNB,A,4
4,test,4,0.0,2-Back,0.0,m,Tue Dec 09 2025 14:00:40 GMT-0600 (Central Standard Time),655421.9000000358,139_m_f_d_a.png,O,z,1900,7,1,2919.900000035763,652502.0,7243,VNB,A,5
5,test,4,0.0,2-Back,1.0,z,Tue Dec 09 2025 14:00:40 GMT-0600 (Central Standard Time),657420.9000000358,071_y_f_n_a.png,O,z,976,8,1,1988.199999988079,655432.7000000477,7243,VNB,A,6
6,test,4,1.0,2-Back,1.0,m,Tue Dec 09 2025 14:00:40 GMT-0600 (Central Standard Time),659820.2000000477,124_o_f_h_a.png,O,m,1379,9,1,2388.400000035763,657431.8000000119,7243,VNB,A,7
7,test,4,0.0,2-Back,1.0,m,Tue Dec 09 2025 14:00:40 GMT-0600 (Central Standard Time),662270.7000000477,165_m_m_h_a.png,O,m,1420,10,1,2439.0,659831.7000000477,7243,VNB,A,8
8,test,4,0.0,2-Back,1.0,m,Tue Dec 09 2025 14:00:40 GMT-0600 (Central Standard Time),664352.2000000477,071_y_f_d_a.png,O,m,1058,11,1,2069.5,662282.7000000477,7243,VNB,A,9
9,test,4,0.0,2-Back,1.0,m,Tue Dec 09 2025 14:00:40 GMT-0600 (Central Standard Time),666302.2000000477,109_y_m_n_a.png,O,m,919,12,1,1939.1000000238419,664363.1000000238,7243,VNB,A,10
9,test,4,0.0,2-Back,0.0,z,Tue Dec 09 2025 14:00:40 GMT-0600 (Central Standard Time),668051.5,039_o_m_d_a.png,O,m,721,13,1,1736.8999999761581,666314.6000000238,7243,VNB,A,11
9,test,4,1.0,2-Back,0.0,m,Tue Dec 09 2025 14:00:40 GMT-0600 (Central Standard Time),670439.2000000477,139_m_f_h_a.png,O,z,1372,14,1,2376.7000000476837,668062.5,7243,VNB,A,12
10,test,4,1.0,2-Back,1.0,m,Tue Dec 09 2025 14:00:40 GMT-0600 (Central Standard Time),672900.5,071_y_f_h_a.png,O,m,1450,15,1,2454.599999964237,670445.9000000358,7243,VNB,A,13
10,test,4,0.0,2-Back,0.0,m,Tue Dec 09 2025 14:00:40 GMT-0600 (Central Standard Time),675932.1000000238,124_o_f_n_a.png,O,None,2016,16,1,3020.600000023842,672911.5,7243,VNB,A,14
10,test,4,0.0,2-Back,0.0,m,Tue Dec 09 2025 14:00:40 GMT-0600 (Central Standard Time),678681.4000000358,109_y_m_d_a.png,O,z,1724,17,1,2738.5,675942.9000000358,7243,VNB,A,15
11,test,4,1.0,2-Back,1.0,m,Tue Dec 09 2025 14:00:40 GMT-0600 (Central Standard Time),681098.1000000238,165_m_m_d_a.png,O,m,1385,18,1,2408.699999988079,678689.4000000358,7243,VNB,A,16
0,test,5,1.0,2-Back,,,Tue Dec 09 2025 14:00:40 GMT-0600 (Central Standard Time),681098.1000000238,071_y_f_d_a.png,O,space,1149,1,1,2408.699999988079,678689.4000000358,7243,VNB,A,0
0,test,5,1.0,2-Back,,,Tue Dec 09 2025 14:00:40 GMT-0600 (Central Standard Time),681098.1000000238,124_o_f_h_a.png,O,space,1149,2,1,2408.699999988079,678689.4000000358,7243,VNB,A,0
1,test,5,1.0,2-Back,1.0,z,Tue Dec 09 2025 14:00:40 GMT-0600 (Central Standard Time),689294.7000000477,039_o_m_d_a.png,O,z,917,3,1,1939.2000000476837,687355.5,7243,VNB,A,1
2,test,5,1.0,2-Back,1.0,m,Tue Dec 09 2025 14:00:40 GMT-0600 (Central Standard Time),691643.6000000238,139_m_f_n_a.png,O,m,1320,4,1,2338.600000023842,689305.0,7243,VNB,A,2
3,test,5,0.0,2-Back,1.0,m,Tue Dec 09 2025 14:00:40 GMT-0600 (Central Standard Time),693726.0,165_m_m_h_a.png,O,m,1051,5,1,2070.7999999523163,691655.2000000477,7243,VNB,A,3
4,test,5,0.0,2-Back,1.0,z,Tue Dec 09 2025 14:00:40 GMT-0600 (Central Standard Time),696658.8000000119,071_y_f_n_a.png,O,z,1914,6,1,2921.099999964237,693737.7000000477,7243,VNB,A,4
5,test,5,0.0,2-Back,1.0,m,Tue Dec 09 2025 14:00:40 GMT-0600 (Central Standard Time),698875.0,124_o_f_d_a.png,O,m,1190,7,1,2206.399999976158,696668.6000000238,7243,VNB,A,5
5,test,5,0.0,2-Back,0.0,m,Tue Dec 09 2025 14:00:40 GMT-0600 (Central Standard Time),700858.5,039_o_m_h_a.png,O,z,966,8,1,1973.2999999523163,698885.2000000477,7243,VNB,A,6
5,test,5,1.0,2-Back,0.0,z,Tue Dec 09 2025 14:00:40 GMT-0600 (Central Standard Time),703639.2000000477,139_m_f_d_a.png,O,m,1758,9,1,2767.7000000476837,700871.5,7243,VNB,A,7
6,test,5,0.0,2-Back,1.0,m,Tue Dec 09 2025 14:00:40 GMT-0600 (Central Standard Time),706255.8000000119,109_y_m_n_a.png,O,m,1583,10,1,2606.800000011921,703649.0,7243,VNB,A,8
7,test,5,0.0,2-Back,1.0,m,Tue Dec 09 2025 14:00:40 GMT-0600 (Central Standard Time),708855.4000000358,165_m_m_n_a.png,O,m,1576,11,1,2589.600000023842,706265.8000000119,7243,VNB,A,9
7,test,5,0.0,2-Back,0.0,m,Tue Dec 09 2025 14:00:40 GMT-0600 (Central Standard Time),711371.5,071_y_f_h_a.png,O,z,1489,12,1,2504.399999976158,708867.1000000238,7243,VNB,A,10
7,test,5,0.0,2-Back,0.0,m,Tue Dec 09 2025 14:00:40 GMT-0600 (Central Standard Time),713919.7000000477,109_y_m_d_a.png,O,z,1527,13,1,2537.100000023842,711382.6000000238,7243,VNB,A,11
7,test,5,1.0,2-Back,0.0,z,Tue Dec 09 2025 14:00:40 GMT-0600 (Central Standard Time),716019.7000000477,139_m_f_h_a.png,O,m,1079,14,1,2088.400000035763,713931.3000000119,7243,VNB,A,12
8,test,5,0.0,2-Back,1.0,m,Tue Dec 09 2025 14:00:40 GMT-0600 (Central Standard Time),718720.3000000119,039_o_m_n_a.png,O,m,1667,15,1,2690.199999988079,716030.1000000238,7243,VNB,A,13
8,test,5,0.0,2-Back,0.0,m,Tue Dec 09 2025 14:00:40 GMT-0600 (Central Standard Time),720485.4000000358,165_m_m_d_a.png,O,z,745,16,1,1754.4000000357628,718731.0,7243,VNB,A,14
9,test,5,0.0,2-Back,1.0,z,Tue Dec 09 2025 14:00:40 GMT-0600 (Central Standard Time),723150.4000000358,124_o_f_n_a.png,O,z,1634,17,1,2655.5,720494.9000000358,7243,VNB,A,15
10,test,5,1.0,2-Back,1.0,m,Tue Dec 09 2025 14:00:40 GMT-0600 (Central Standard Time),725315.8000000119,109_y_m_h_a.png,O,m,1136,18,1,2152.899999976158,723162.9000000358,7243,VNB,A,16
