acc_sum,block,block_c,block_cond,con_img,correct,correct_response,datetime,endtime,face,jitter,line,project,response,response_time,row_sel,session_number,start_end,starttime,subject_id,task,task_vers,trial
1,prac,1,A,haborder.png,1,z,Thu Feb 05 2026 15:53:55 GMT-0500 (Eastern Standard Time),67877.69999980927,CFD-WF-026-008-A.jpg,1600,solid,I,z,897,10,1,3283.5999994277954,64594.10000038147,9047,ATS,B,1
1,prac,1,A,haborder.png,0,z,Thu Feb 05 2026 15:53:55 GMT-0500 (Eastern Standard Time),71477.30000019073,CFD-WM-009-009-A.jpg,1900,solid,I,m,915,8,1,6883.199999809265,64594.10000038147,9047,ATS,B,2
2,prac,1,A,haborder.png,1,m,Thu Feb 05 2026 15:53:55 GMT-0500 (Eastern Standard Time),75110.69999980927,CFD-BM-020-024-HC.jpg,1500,solid,I,m,1346,3,1,10516.599999427795,64594.10000038147,9047,ATS,B,3
3,prac,1,A,haborder.png,1,m,Thu Feb 05 2026 15:53:55 GMT-0500 (Eastern Standard Time),78744.10000038147,CFD-BF-035-007-HC.jpg,2000,solid,I,m,846,5,1,14150.0,64594.10000038147,9047,ATS,B,4
4,prac,1,A,haborder.png,1,m,Thu Feb 05 2026 15:53:55 GMT-0500 (Eastern Standard Time),81677.5,CFD-WF-011-006-HC.jpg,1500,solid,I,m,639,11,1,17083.39999961853,64594.10000038147,9047,ATS,B,5
5,prac,1,A,haborder.png,1,m,Thu Feb 05 2026 15:53:55 GMT-0500 (Eastern Standard Time),84994.0,CFD-WM-012-007-HC.jpg,1700,solid,I,m,818,9,1,20399.89999961853,64594.10000038147,9047,ATS,B,6
6,prac,1,A,haborder.png,1,z,Thu Feb 05 2026 15:53:55 GMT-0500 (Eastern Standard Time),87660.69999980927,CFD-BF-050-012-A.jpg,1200,solid,I,z,673,6,1,23066.599999427795,64594.10000038147,9047,ATS,B,7
7,prac,1,A,haborder.png,1,z,Thu Feb 05 2026 15:53:55 GMT-0500 (Eastern Standard Time),90210.69999980927,CFD-WF-013-015-A.jpg,1000,solid,I,z,753,12,1,25616.599999427795,64594.10000038147,9047,ATS,B,8
8,prac,1,A,haborder.png,1,z,Thu Feb 05 2026 15:53:55 GMT-0500 (Eastern Standard Time),92677.39999961853,CFD-BF-051-043-A.jpg,1000,solid,I,z,681,4,1,28083.29999923706,64594.10000038147,9047,ATS,B,9
9,prac,1,A,haborder.png,1,m,Thu Feb 05 2026 15:53:55 GMT-0500 (Eastern Standard Time),95627.5,CFD-WM-011-006-HC.jpg,1400,solid,I,m,758,7,1,31033.39999961853,64594.10000038147,9047,ATS,B,10
10,prac,1,A,haborder.png,1,z,Thu Feb 05 2026 15:53:55 GMT-0500 (Eastern Standard Time),98660.80000019073,CFD-BM-037-041-A.jpg,1600,solid,I,z,649,2,1,34066.699999809265,64594.10000038147,9047,ATS,B,11
11,prac,1,A,haborder.png,1,m,Thu Feb 05 2026 15:53:55 GMT-0500 (Eastern Standard Time),102227.60000038147,CFD-BM-015-017-HC.jpg,1700,solid,I,m,1068,1,1,37633.5,64594.10000038147,9047,ATS,B,12
1,prac,1,B,mfborder.png,1,m,Thu Feb 05 2026 15:53:55 GMT-0500 (Eastern Standard Time),135177.39999961853,CFD-BM-041-048-A.jpg,1600,dash,I,m,1044,2,1,3433.199999809265,131744.19999980927,9047,ATS,B,1
2,prac,1,B,mfborder.png,1,m,Thu Feb 05 2026 15:53:55 GMT-0500 (Eastern Standard Time),138693.89999961853,CFD-BM-037-041-A.jpg,2000,dash,I,m,730,5,1,6949.699999809265,131744.19999980927,9047,ATS,B,2
2,prac,1,B,mfborder.png,0,z,Thu Feb 05 2026 15:53:55 GMT-0500 (Eastern Standard Time),142493.89999961853,CFD-BF-027-013-HC.jpg,1500,dash,I,None,1515,3,1,10749.699999809265,131744.19999980927,9047,ATS,B,3
2,prac,1,B,mfborder.png,0,z,Thu Feb 05 2026 15:53:55 GMT-0500 (Eastern Standard Time),146193.80000019073,CFD-BF-035-007-HC.jpg,1400,dash,I,None,1515,7,1,14449.60000038147,131744.19999980927,9047,ATS,B,4
3,prac,1,B,mfborder.png,1,z,Thu Feb 05 2026 15:53:55 GMT-0500 (Eastern Standard Time),149510.80000019073,CFD-WF-027-007-HC.jpg,1900,dash,I,z,629,8,1,17766.60000038147,131744.19999980927,9047,ATS,B,5
4,prac,1,B,mfborder.png,1,z,Thu Feb 05 2026 15:53:55 GMT-0500 (Eastern Standard Time),151877.30000019073,CFD-WF-011-006-HC.jpg,1000,dash,I,z,582,12,1,20133.10000038147,131744.19999980927,9047,ATS,B,6
5,prac,1,B,mfborder.png,1,z,Thu Feb 05 2026 15:53:55 GMT-0500 (Eastern Standard Time),155093.89999961853,CFD-WF-026-008-A.jpg,1500,dash,I,z,930,11,1,23349.699999809265,131744.19999980927,9047,ATS,B,7
6,prac,1,B,mfborder.png,1,m,Thu Feb 05 2026 15:53:55 GMT-0500 (Eastern Standard Time),158160.5,CFD-BM-020-024-HC.jpg,1700,dash,I,m,570,1,1,26416.300000190735,131744.19999980927,9047,ATS,B,8
7,prac,1,B,mfborder.png,1,m,Thu Feb 05 2026 15:53:55 GMT-0500 (Eastern Standard Time),161427.39999961853,CFD-WM-012-007-HC.jpg,1600,dash,I,m,867,10,1,29683.199999809265,131744.19999980927,9047,ATS,B,9
8,prac,1,B,mfborder.png,1,m,Thu Feb 05 2026 15:53:55 GMT-0500 (Eastern Standard Time),165260.5,CFD-WM-009-009-A.jpg,1700,dash,I,m,1341,9,1,33516.300000190735,131744.19999980927,9047,ATS,B,10
9,prac,1,B,mfborder.png,1,z,Thu Feb 05 2026 15:53:55 GMT-0500 (Eastern Standard Time),168460.69999980927,CFD-BF-051-043-A.jpg,1000,dash,I,z,1409,4,1,36716.5,131744.19999980927,9047,ATS,B,11
10,prac,1,B,mfborder.png,1,m,Thu Feb 05 2026 15:53:55 GMT-0500 (Eastern Standard Time),171127.30000019073,CFD-WM-037-060-A.jpg,1200,dash,I,m,662,6,1,39383.10000038147,131744.19999980927,9047,ATS,B,12
1,test,1,A,haborder.png,1,m,Thu Feb 05 2026 15:53:55 GMT-0500 (Eastern Standard Time),190694.0,CFD-WM-012-007-HC.jpg,1700,solid,I,m,833,9,1,2550.1000003814697,188143.89999961853,9047,ATS,B,1
2,test,1,A,haborder.png,1,m,Thu Feb 05 2026 15:53:55 GMT-0500 (Eastern Standard Time),192943.89999961853,CFD-WF-011-006-HC.jpg,1500,solid,I,m,723,11,1,4800.0,188143.89999961853,9047,ATS,B,2
3,test,1,A,haborder.png,1,m,Thu Feb 05 2026 15:53:55 GMT-0500 (Eastern Standard Time),195093.89999961853,CFD-WM-011-006-HC.jpg,1400,solid,I,m,732,7,1,6950.0,188143.89999961853,9047,ATS,B,3
4,test,1,A,haborder.png,1,m,Thu Feb 05 2026 15:53:55 GMT-0500 (Eastern Standard Time),197093.80000019073,CFD-WM-011-006-HC.jpg,1400,solid,I,m,582,7,1,8949.900000572205,188143.89999961853,9047,ATS,B,4
5,test,1,A,haborder.png,1,z,Thu Feb 05 2026 15:53:55 GMT-0500 (Eastern Standard Time),198927.10000038147,CFD-BF-050-012-A.jpg,1200,solid,I,z,606,6,1,10783.20000076294,188143.89999961853,9047,ATS,B,5
6,test,1,A,haborder.png,1,m,Thu Feb 05 2026 15:53:55 GMT-0500 (Eastern Standard Time),201010.5,CFD-BM-020-024-HC.jpg,1500,solid,I,m,553,3,1,12866.60000038147,188143.89999961853,9047,ATS,B,6
7,test,1,A,haborder.png,1,z,Thu Feb 05 2026 15:53:55 GMT-0500 (Eastern Standard Time),202810.5,CFD-WF-013-015-A.jpg,1000,solid,I,z,778,12,1,14666.60000038147,188143.89999961853,9047,ATS,B,7
8,test,1,A,haborder.png,1,z,Thu Feb 05 2026 15:53:55 GMT-0500 (Eastern Standard Time),204610.5,CFD-BF-050-012-A.jpg,1200,solid,I,z,569,6,1,16466.60000038147,188143.89999961853,9047,ATS,B,8
9,test,1,A,haborder.png,1,z,Thu Feb 05 2026 15:53:55 GMT-0500 (Eastern Standard Time),206826.69999980927,CFD-WF-026-008-A.jpg,1600,solid,I,z,593,10,1,18682.800000190735,188143.89999961853,9047,ATS,B,9
10,test,1,A,haborder.png,1,z,Thu Feb 05 2026 15:53:55 GMT-0500 (Eastern Standard Time),209310.39999961853,CFD-BM-037-041-A.jpg,1600,solid,I,z,857,2,1,21166.5,188143.89999961853,9047,ATS,B,10
11,test,1,A,haborder.png,1,m,Thu Feb 05 2026 15:53:55 GMT-0500 (Eastern Standard Time),211343.80000019073,CFD-WF-011-006-HC.jpg,1500,solid,I,m,505,11,1,23199.900000572205,188143.89999961853,9047,ATS,B,11
12,test,1,A,haborder.png,1,m,Thu Feb 05 2026 15:53:55 GMT-0500 (Eastern Standard Time),214160.5,CFD-BF-035-007-HC.jpg,2000,solid,I,m,788,5,1,26016.60000038147,188143.89999961853,9047,ATS,B,12
13,test,1,A,haborder.png,1,z,Thu Feb 05 2026 15:53:55 GMT-0500 (Eastern Standard Time),216827.10000038147,CFD-BM-037-041-A.jpg,1600,solid,I,z,1043,2,1,28683.20000076294,188143.89999961853,9047,ATS,B,13
14,test,1,A,haborder.png,1,z,Thu Feb 05 2026 15:53:55 GMT-0500 (Eastern Standard Time),219494.19999980927,CFD-WM-009-009-A.jpg,1900,solid,I,z,750,8,1,31350.300000190735,188143.89999961853,9047,ATS,B,14
14,test,1,A,haborder.png,0,m,Thu Feb 05 2026 15:53:55 GMT-0500 (Eastern Standard Time),222727.30000019073,CFD-BM-015-017-HC.jpg,1700,solid,I,None,1516,1,1,34583.400000572205,188143.89999961853,9047,ATS,B,15
15,test,1,A,haborder.png,1,m,Thu Feb 05 2026 15:53:55 GMT-0500 (Eastern Standard Time),225110.19999980927,CFD-WM-012-007-HC.jpg,1700,solid,I,m,663,9,1,36966.300000190735,188143.89999961853,9047,ATS,B,16
16,test,1,A,haborder.png,1,m,Thu Feb 05 2026 15:53:55 GMT-0500 (Eastern Standard Time),227760.5,CFD-BF-035-007-HC.jpg,2000,solid,I,m,621,5,1,39616.60000038147,188143.89999961853,9047,ATS,B,17
17,test,1,A,haborder.png,1,m,Thu Feb 05 2026 15:53:55 GMT-0500 (Eastern Standard Time),230260.30000019073,CFD-BM-015-017-HC.jpg,1700,solid,I,m,767,1,1,42116.400000572205,188143.89999961853,9047,ATS,B,18
18,test,1,A,haborder.png,1,z,Thu Feb 05 2026 15:53:55 GMT-0500 (Eastern Standard Time),232510.30000019073,CFD-WF-026-008-A.jpg,1600,solid,I,z,623,10,1,44366.400000572205,188143.89999961853,9047,ATS,B,19
19,test,1,A,haborder.png,1,z,Thu Feb 05 2026 15:53:55 GMT-0500 (Eastern Standard Time),234193.69999980927,CFD-BF-051-043-A.jpg,1000,solid,I,z,653,4,1,46049.800000190735,188143.89999961853,9047,ATS,B,20
20,test,1,A,haborder.png,1,m,Thu Feb 05 2026 15:53:55 GMT-0500 (Eastern Standard Time),236377.0,CFD-BM-020-024-HC.jpg,1500,solid,I,m,662,3,1,48233.10000038147,188143.89999961853,9047,ATS,B,21
21,test,1,A,haborder.png,1,z,Thu Feb 05 2026 15:53:55 GMT-0500 (Eastern Standard Time),238943.69999980927,CFD-WM-009-009-A.jpg,1900,solid,I,z,638,8,1,50799.800000190735,188143.89999961853,9047,ATS,B,22
22,test,1,A,haborder.png,1,z,Thu Feb 05 2026 15:53:55 GMT-0500 (Eastern Standard Time),240760.30000019073,CFD-WF-013-015-A.jpg,1000,solid,I,z,797,12,1,52616.400000572205,188143.89999961853,9047,ATS,B,23
23,test,1,A,haborder.png,1,z,Thu Feb 05 2026 15:53:55 GMT-0500 (Eastern Standard Time),242460.39999961853,CFD-BF-051-043-A.jpg,1000,solid,I,z,675,4,1,54316.5,188143.89999961853,9047,ATS,B,24
1,test,1,B,mfborder.png,1,m,Thu Feb 05 2026 15:53:55 GMT-0500 (Eastern Standard Time),258993.80000019073,CFD-WM-009-009-A.jpg,1700,dash,I,m,586,9,1,2316.5,256677.30000019073,9047,ATS,B,1
2,test,1,B,mfborder.png,1,z,Thu Feb 05 2026 15:53:55 GMT-0500 (Eastern Standard Time),260593.5,CFD-WF-011-006-HC.jpg,1000,dash,I,z,571,12,1,3916.199999809265,256677.30000019073,9047,ATS,B,2
2,test,1,B,mfborder.png,0,z,Thu Feb 05 2026 15:53:55 GMT-0500 (Eastern Standard Time),263093.69999980927,CFD-BF-035-007-HC.jpg,1400,dash,I,m,1066,7,1,6416.39999961853,256677.30000019073,9047,ATS,B,3
3,test,1,B,mfborder.png,1,z,Thu Feb 05 2026 15:53:55 GMT-0500 (Eastern Standard Time),265827.10000038147,CFD-WF-026-008-A.jpg,1500,dash,I,z,1201,11,1,9149.800000190735,256677.30000019073,9047,ATS,B,4
4,test,1,B,mfborder.png,1,m,Thu Feb 05 2026 15:53:55 GMT-0500 (Eastern Standard Time),268310.19999980927,CFD-BM-020-024-HC.jpg,1700,dash,I,m,766,1,1,11632.89999961853,256677.30000019073,9047,ATS,B,5
5,test,1,B,mfborder.png,1,m,Thu Feb 05 2026 15:53:55 GMT-0500 (Eastern Standard Time),270977.0,CFD-BM-037-041-A.jpg,2000,dash,I,m,637,5,1,14299.699999809265,256677.30000019073,9047,ATS,B,6
6,test,1,B,mfborder.png,1,m,Thu Feb 05 2026 15:53:55 GMT-0500 (Eastern Standard Time),273260.39999961853,CFD-BM-041-048-A.jpg,1600,dash,I,m,658,2,1,16583.099999427795,256677.30000019073,9047,ATS,B,7
7,test,1,B,mfborder.png,1,m,Thu Feb 05 2026 15:53:55 GMT-0500 (Eastern Standard Time),275310.39999961853,CFD-WM-037-060-A.jpg,1200,dash,I,m,823,6,1,18633.099999427795,256677.30000019073,9047,ATS,B,8
8,test,1,B,mfborder.png,1,m,Thu Feb 05 2026 15:53:55 GMT-0500 (Eastern Standard Time),277960.30000019073,CFD-BM-037-041-A.jpg,2000,dash,I,m,629,5,1,21283.0,256677.30000019073,9047,ATS,B,9
9,test,1,B,mfborder.png,1,z,Thu Feb 05 2026 15:53:55 GMT-0500 (Eastern Standard Time),280043.69999980927,CFD-BF-027-013-HC.jpg,1500,dash,I,z,560,3,1,23366.39999961853,256677.30000019073,9047,ATS,B,10
9,test,1,B,mfborder.png,0,z,Thu Feb 05 2026 15:53:55 GMT-0500 (Eastern Standard Time),282560.39999961853,CFD-WF-027-007-HC.jpg,1900,dash,I,m,587,8,1,25883.099999427795,256677.30000019073,9047,ATS,B,11
10,test,1,B,mfborder.png,1,m,Thu Feb 05 2026 15:53:55 GMT-0500 (Eastern Standard Time),284827.10000038147,CFD-WM-012-007-HC.jpg,1600,dash,I,m,643,10,1,28149.800000190735,256677.30000019073,9047,ATS,B,12
11,test,1,B,mfborder.png,1,z,Thu Feb 05 2026 15:53:55 GMT-0500 (Eastern Standard Time),287410.30000019073,CFD-WF-027-007-HC.jpg,1900,dash,I,z,652,8,1,30733.0,256677.30000019073,9047,ATS,B,13
12,test,1,B,mfborder.png,1,m,Thu Feb 05 2026 15:53:55 GMT-0500 (Eastern Standard Time),289677.0,CFD-WM-009-009-A.jpg,1700,dash,I,m,541,9,1,32999.699999809265,256677.30000019073,9047,ATS,B,14
13,test,1,B,mfborder.png,1,z,Thu Feb 05 2026 15:53:55 GMT-0500 (Eastern Standard Time),291593.69999980927,CFD-BF-051-043-A.jpg,1000,dash,I,z,896,4,1,34916.39999961853,256677.30000019073,9047,ATS,B,15
14,test,1,B,mfborder.png,1,z,Thu Feb 05 2026 15:53:55 GMT-0500 (Eastern Standard Time),293327.0,CFD-BF-051-043-A.jpg,1000,dash,I,z,706,4,1,36649.699999809265,256677.30000019073,9047,ATS,B,16
15,test,1,B,mfborder.png,1,z,Thu Feb 05 2026 15:53:55 GMT-0500 (Eastern Standard Time),295693.69999980927,CFD-BF-027-013-HC.jpg,1500,dash,I,z,840,3,1,39016.39999961853,256677.30000019073,9047,ATS,B,17
16,test,1,B,mfborder.png,1,m,Thu Feb 05 2026 15:53:55 GMT-0500 (Eastern Standard Time),298093.60000038147,CFD-BM-020-024-HC.jpg,1700,dash,I,m,674,1,1,41416.300000190735,256677.30000019073,9047,ATS,B,18
17,test,1,B,mfborder.png,1,m,Thu Feb 05 2026 15:53:55 GMT-0500 (Eastern Standard Time),300293.89999961853,CFD-WM-012-007-HC.jpg,1600,dash,I,m,582,10,1,43616.599999427795,256677.30000019073,9047,ATS,B,19
18,test,1,B,mfborder.png,1,z,Thu Feb 05 2026 15:53:55 GMT-0500 (Eastern Standard Time),302493.69999980927,CFD-WF-026-008-A.jpg,1500,dash,I,z,675,11,1,45816.39999961853,256677.30000019073,9047,ATS,B,20
19,test,1,B,mfborder.png,1,z,Thu Feb 05 2026 15:53:55 GMT-0500 (Eastern Standard Time),304110.39999961853,CFD-WF-011-006-HC.jpg,1000,dash,I,z,590,12,1,47433.099999427795,256677.30000019073,9047,ATS,B,21
20,test,1,B,mfborder.png,1,m,Thu Feb 05 2026 15:53:55 GMT-0500 (Eastern Standard Time),306443.60000038147,CFD-BM-041-048-A.jpg,1600,dash,I,m,709,2,1,49766.300000190735,256677.30000019073,9047,ATS,B,22
21,test,1,B,mfborder.png,1,m,Thu Feb 05 2026 15:53:55 GMT-0500 (Eastern Standard Time),308343.39999961853,CFD-WM-037-060-A.jpg,1200,dash,I,m,680,6,1,51666.099999427795,256677.30000019073,9047,ATS,B,23
21,test,1,B,mfborder.png,0,z,Thu Feb 05 2026 15:53:55 GMT-0500 (Eastern Standard Time),311277.30000019073,CFD-BF-035-007-HC.jpg,1400,dash,I,None,1517,7,1,54600.0,256677.30000019073,9047,ATS,B,24
0,2,1,C,mfborder.png,0,z,Thu Feb 05 2026 15:53:55 GMT-0500 (Eastern Standard Time),373277.19999980927,CFD-WF-013-015-A.jpg,1500,solid,I,None,1516,prac,1,3800.0,369477.19999980927,9047,ATS,B,1
0,6,1,C,mfborder.png,0,m,Thu Feb 05 2026 15:53:55 GMT-0500 (Eastern Standard Time),377293.60000038147,CFD-WM-009-009-A.jpg,1700,solid,I,None,1516,prac,1,7816.400000572205,369477.19999980927,9047,ATS,B,2
0,8,1,C,haborder.png,0,z,Thu Feb 05 2026 15:53:55 GMT-0500 (Eastern Standard Time),381293.60000038147,CFD-BF-050-012-A.jpg,1700,solid,I,None,1516,prac,1,11816.400000572205,369477.19999980927,9047,ATS,B,3
1,5,1,C,mfborder.png,1,m,Thu Feb 05 2026 15:53:55 GMT-0500 (Eastern Standard Time),384510.30000019073,CFD-BM-037-041-A.jpg,1200,dash,I,m,1222,prac,1,15033.10000038147,369477.19999980927,9047,ATS,B,4
1,4,1,C,mfborder.png,0,m,Thu Feb 05 2026 15:53:55 GMT-0500 (Eastern Standard Time),388360.39999961853,CFD-BM-015-017-HC.jpg,2000,solid,I,z,1061,prac,1,18883.199999809265,369477.19999980927,9047,ATS,B,5
1,3,1,C,mfborder.png,0,z,Thu Feb 05 2026 15:53:55 GMT-0500 (Eastern Standard Time),391010.30000019073,CFD-BF-035-007-HC.jpg,1000,dash,I,m,852,prac,1,21533.10000038147,369477.19999980927,9047,ATS,B,6
2,12,1,C,haborder.png,1,m,Thu Feb 05 2026 15:53:55 GMT-0500 (Eastern Standard Time),393910.30000019073,CFD-WM-011-006-HC.jpg,1400,solid,I,m,714,prac,1,24433.10000038147,369477.19999980927,9047,ATS,B,7
2,9,1,C,haborder.png,0,z,Thu Feb 05 2026 15:53:55 GMT-0500 (Eastern Standard Time),397810.39999961853,CFD-WF-026-008-A.jpg,1600,dash,I,None,1515,prac,1,28333.199999809265,369477.19999980927,9047,ATS,B,8
3,7,1,C,haborder.png,1,z,Thu Feb 05 2026 15:53:55 GMT-0500 (Eastern Standard Time),401177.0,CFD-BF-051-043-A.jpg,1900,dash,I,z,678,prac,1,31699.800000190735,369477.19999980927,9047,ATS,B,9
4,11,1,C,haborder.png,1,m,Thu Feb 05 2026 15:53:55 GMT-0500 (Eastern Standard Time),403943.60000038147,CFD-WM-011-006-HC.jpg,1000,dash,I,m,979,prac,1,34466.400000572205,369477.19999980927,9047,ATS,B,10
5,10,1,C,haborder.png,1,m,Thu Feb 05 2026 15:53:55 GMT-0500 (Eastern Standard Time),406927.10000038147,CFD-BM-020-024-HC.jpg,1500,solid,I,m,688,prac,1,37449.900000572205,369477.19999980927,9047,ATS,B,11
6,1,1,C,mfborder.png,1,z,Thu Feb 05 2026 15:53:55 GMT-0500 (Eastern Standard Time),410043.5,CFD-WF-011-006-HC.jpg,1600,dash,I,z,725,prac,1,40566.300000190735,369477.19999980927,9047,ATS,B,12
0,9,2,C,haborder.png,0,z,Thu Feb 05 2026 15:53:55 GMT-0500 (Eastern Standard Time),417160.10000038147,CFD-WF-026-008-A.jpg,1600,dash,I,None,1515,prac,1,47682.900000572205,369477.19999980927,9047,ATS,B,1
1,4,2,C,mfborder.png,1,m,Thu Feb 05 2026 15:53:55 GMT-0500 (Eastern Standard Time),420526.89999961853,CFD-BM-015-017-HC.jpg,2000,solid,I,m,572,prac,1,51049.699999809265,369477.19999980927,9047,ATS,B,2
1,6,2,C,mfborder.png,0,m,Thu Feb 05 2026 15:53:55 GMT-0500 (Eastern Standard Time),423777.0,CFD-WM-009-009-A.jpg,1700,solid,I,z,753,prac,1,54299.800000190735,369477.19999980927,9047,ATS,B,3
1,2,2,C,mfborder.png,0,z,Thu Feb 05 2026 15:53:55 GMT-0500 (Eastern Standard Time),427126.80000019073,CFD-WF-013-015-A.jpg,1500,solid,I,m,1063,prac,1,57649.60000038147,369477.19999980927,9047,ATS,B,4
1,12,2,C,haborder.png,0,m,Thu Feb 05 2026 15:53:55 GMT-0500 (Eastern Standard Time),430826.80000019073,CFD-WM-011-006-HC.jpg,1400,solid,I,None,1516,prac,1,61349.60000038147,369477.19999980927,9047,ATS,B,5
2,8,2,C,haborder.png,1,z,Thu Feb 05 2026 15:53:55 GMT-0500 (Eastern Standard Time),433910.30000019073,CFD-BF-050-012-A.jpg,1700,solid,I,z,598,prac,1,64433.10000038147,369477.19999980927,9047,ATS,B,6
2,3,2,C,mfborder.png,0,z,Thu Feb 05 2026 15:53:55 GMT-0500 (Eastern Standard Time),436493.60000038147,CFD-BF-035-007-HC.jpg,1000,dash,I,m,790,prac,1,67016.4000005722,369477.19999980927,9047,ATS,B,7
2,1,2,C,mfborder.png,0,z,Thu Feb 05 2026 15:53:55 GMT-0500 (Eastern Standard Time),440393.5,CFD-WF-011-006-HC.jpg,1600,dash,I,None,1516,prac,1,70916.30000019073,369477.19999980927,9047,ATS,B,8
2,7,2,C,haborder.png,0,z,Thu Feb 05 2026 15:53:55 GMT-0500 (Eastern Standard Time),444410.30000019073,CFD-BF-051-043-A.jpg,1900,dash,I,m,1326,prac,1,74933.10000038147,369477.19999980927,9047,ATS,B,9
2,11,2,C,haborder.png,0,m,Thu Feb 05 2026 15:53:55 GMT-0500 (Eastern Standard Time),447710.19999980927,CFD-WM-011-006-HC.jpg,1000,dash,I,None,1516,prac,1,78233.0,369477.19999980927,9047,ATS,B,10
2,5,2,C,mfborder.png,0,m,Thu Feb 05 2026 15:53:55 GMT-0500 (Eastern Standard Time),451210.0,CFD-BM-037-041-A.jpg,1200,dash,I,None,1516,prac,1,81732.80000019073,369477.19999980927,9047,ATS,B,11
3,10,2,C,haborder.png,1,m,Thu Feb 05 2026 15:53:55 GMT-0500 (Eastern Standard Time),454260.30000019073,CFD-BM-020-024-HC.jpg,1500,solid,I,m,750,prac,1,84783.10000038147,369477.19999980927,9047,ATS,B,12
0,test,1,C,haborder.png,0,z,Thu Feb 05 2026 15:53:55 GMT-0500 (Eastern Standard Time),484077.0,CFD-BM-041-048-A.jpg,1700,solid,I,m,1008,9,1,2733.300000190735,481343.69999980927,9047,ATS,B,1
0,test,1,C,mfborder.png,0,z,Thu Feb 05 2026 15:53:55 GMT-0500 (Eastern Standard Time),487210.0,CFD-BF-051-043-A.jpg,1600,dash,I,None,1516,2,1,5866.300000190735,481343.69999980927,9047,ATS,B,2
1,test,1,C,haborder.png,1,m,Thu Feb 05 2026 15:53:55 GMT-0500 (Eastern Standard Time),489809.60000038147,CFD-WF-027-007-HC.jpg,1500,solid,I,m,1069,11,1,8465.900000572205,481343.69999980927,9047,ATS,B,3
1,test,1,C,mfborder.png,0,m,Thu Feb 05 2026 15:53:55 GMT-0500 (Eastern Standard Time),492060.19999980927,CFD-WM-012-007-HC.jpg,1000,dash,I,z,1226,4,1,10716.5,481343.69999980927,9047,ATS,B,4
1,test,1,C,mfborder.png,0,z,Thu Feb 05 2026 15:53:55 GMT-0500 (Eastern Standard Time),495093.39999961853,CFD-WF-026-008-A.jpg,1500,dash,I,None,1516,3,1,13749.699999809265,481343.69999980927,9047,ATS,B,5
2,test,1,C,haborder.png,1,z,Thu Feb 05 2026 15:53:55 GMT-0500 (Eastern Standard Time),497943.30000019073,CFD-BM-041-048-A.jpg,1700,solid,I,z,1131,9,1,16599.60000038147,481343.69999980927,9047,ATS,B,6
3,test,1,C,mfborder.png,1,m,Thu Feb 05 2026 15:53:55 GMT-0500 (Eastern Standard Time),500276.80000019073,CFD-WM-012-007-HC.jpg,1000,dash,I,m,1301,4,1,18933.10000038147,481343.69999980927,9047,ATS,B,7
4,test,1,C,mfborder.png,1,m,Thu Feb 05 2026 15:53:55 GMT-0500 (Eastern Standard Time),502276.80000019073,CFD-BM-020-024-HC.jpg,1200,dash,I,m,767,6,1,20933.10000038147,481343.69999980927,9047,ATS,B,8
5,test,1,C,mfborder.png,1,z,Thu Feb 05 2026 15:53:55 GMT-0500 (Eastern Standard Time),504660.10000038147,CFD-BF-051-043-A.jpg,1600,dash,I,z,751,2,1,23316.400000572205,481343.69999980927,9047,ATS,B,9
5,test,1,C,haborder.png,0,m,Thu Feb 05 2026 15:53:55 GMT-0500 (Eastern Standard Time),507560.0,CFD-BF-035-007-HC.jpg,1600,solid,I,z,1280,10,1,26216.300000190735,481343.69999980927,9047,ATS,B,10
6,test,1,C,haborder.png,1,m,Thu Feb 05 2026 15:53:55 GMT-0500 (Eastern Standard Time),509776.69999980927,CFD-WF-011-006-HC.jpg,1000,solid,I,m,1188,12,1,28433.0,481343.69999980927,9047,ATS,B,11
6,test,1,C,haborder.png,0,z,Thu Feb 05 2026 15:53:55 GMT-0500 (Eastern Standard Time),512243.39999961853,CFD-WM-009-009-A.jpg,1400,solid,I,m,1035,7,1,30899.699999809265,481343.69999980927,9047,ATS,B,12
6,test,1,C,haborder.png,0,m,Thu Feb 05 2026 15:53:55 GMT-0500 (Eastern Standard Time),515376.89999961853,CFD-BF-035-007-HC.jpg,1600,solid,I,None,1516,10,1,34033.199999809265,481343.69999980927,9047,ATS,B,13
7,test,1,C,haborder.png,1,z,Thu Feb 05 2026 15:53:55 GMT-0500 (Eastern Standard Time),518176.80000019073,CFD-BM-037-041-A.jpg,1900,solid,I,z,871,8,1,36833.10000038147,481343.69999980927,9047,ATS,B,14
8,test,1,C,mfborder.png,1,m,Thu Feb 05 2026 15:53:55 GMT-0500 (Eastern Standard Time),521660.10000038147,CFD-WM-037-060-A.jpg,2000,dash,I,m,1459,5,1,40316.400000572205,481343.69999980927,9047,ATS,B,15
9,test,1,C,mfborder.png,1,m,Thu Feb 05 2026 15:53:55 GMT-0500 (Eastern Standard Time),524210.19999980927,CFD-BM-020-024-HC.jpg,1200,dash,I,m,1320,6,1,42866.5,481343.69999980927,9047,ATS,B,16
9,test,1,C,haborder.png,0,z,Thu Feb 05 2026 15:53:55 GMT-0500 (Eastern Standard Time),527643.3999996185,CFD-BM-037-041-A.jpg,1900,solid,I,None,1516,8,1,46299.699999809265,481343.69999980927,9047,ATS,B,17
10,test,1,C,mfborder.png,1,z,Thu Feb 05 2026 15:53:55 GMT-0500 (Eastern Standard Time),530526.8000001907,CFD-WF-026-008-A.jpg,1500,dash,I,z,1356,3,1,49183.10000038147,481343.69999980927,9047,ATS,B,18
11,test,1,C,mfborder.png,1,z,Thu Feb 05 2026 15:53:55 GMT-0500 (Eastern Standard Time),533276.8000001907,CFD-BF-027-013-HC.jpg,1700,dash,I,z,1025,1,1,51933.10000038147,481343.69999980927,9047,ATS,B,19
12,test,1,C,haborder.png,1,m,Thu Feb 05 2026 15:53:55 GMT-0500 (Eastern Standard Time),535743.3999996185,CFD-WF-027-007-HC.jpg,1500,solid,I,m,939,11,1,54399.699999809265,481343.69999980927,9047,ATS,B,20
12,test,1,C,haborder.png,0,z,Thu Feb 05 2026 15:53:55 GMT-0500 (Eastern Standard Time),538243.3000001907,CFD-WM-009-009-A.jpg,1400,solid,I,m,1068,7,1,56899.60000038147,481343.69999980927,9047,ATS,B,21
12,test,1,C,mfborder.png,0,m,Thu Feb 05 2026 15:53:55 GMT-0500 (Eastern Standard Time),541776.6999998093,CFD-WM-037-060-A.jpg,2000,dash,I,None,1516,5,1,60433.0,481343.69999980927,9047,ATS,B,22
13,test,1,C,haborder.png,1,m,Thu Feb 05 2026 15:53:55 GMT-0500 (Eastern Standard Time),544293.1000003815,CFD-WF-011-006-HC.jpg,1000,solid,I,m,1483,12,1,62949.400000572205,481343.69999980927,9047,ATS,B,23
14,test,1,C,mfborder.png,1,z,Thu Feb 05 2026 15:53:55 GMT-0500 (Eastern Standard Time),546776.6999998093,CFD-BF-027-013-HC.jpg,1700,dash,I,z,762,1,1,65433.0,481343.69999980927,9047,ATS,B,24
0,test,2,C,mfborder.png,0,m,Thu Feb 05 2026 15:53:55 GMT-0500 (Eastern Standard Time),555543.6000003815,CFD-BM-037-041-A.jpg,2000,dash,I,None,1516,5,1,3533.5,552010.1000003815,9047,ATS,B,1
1,test,2,C,haborder.png,1,z,Thu Feb 05 2026 15:53:55 GMT-0500 (Eastern Standard Time),558776.6000003815,CFD-BF-050-012-A.jpg,1900,solid,I,z,1312,8,1,6766.5,552010.1000003815,9047,ATS,B,2
2,test,2,C,mfborder.png,1,z,Thu Feb 05 2026 15:53:55 GMT-0500 (Eastern Standard Time),561660.0,CFD-BF-035-007-HC.jpg,1500,dash,I,z,1359,3,1,9649.89999961853,552010.1000003815,9047,ATS,B,3
3,test,2,C,haborder.png,1,z,Thu Feb 05 2026 15:53:55 GMT-0500 (Eastern Standard Time),564660.1000003815,CFD-WF-026-008-A.jpg,1700,solid,I,z,1268,9,1,12650.0,552010.1000003815,9047,ATS,B,4
4,test,2,C,haborder.png,1,m,Thu Feb 05 2026 15:53:55 GMT-0500 (Eastern Standard Time),566826.6999998093,CFD-WM-011-006-HC.jpg,1000,solid,I,m,1144,12,1,14816.599999427795,552010.1000003815,9047,ATS,B,5
5,test,2,C,mfborder.png,1,m,Thu Feb 05 2026 15:53:55 GMT-0500 (Eastern Standard Time),569043.3999996185,CFD-BM-015-017-HC.jpg,1000,dash,I,m,1185,4,1,17033.29999923706,552010.1000003815,9047,ATS,B,6
6,test,2,C,haborder.png,1,z,Thu Feb 05 2026 15:53:55 GMT-0500 (Eastern Standard Time),571693.3000001907,CFD-BF-051-043-A.jpg,1400,solid,I,z,1224,7,1,19683.199999809265,552010.1000003815,9047,ATS,B,7
7,test,2,C,mfborder.png,1,m,Thu Feb 05 2026 15:53:55 GMT-0500 (Eastern Standard Time),573643.1000003815,CFD-BM-015-017-HC.jpg,1000,dash,I,m,926,4,1,21633.0,552010.1000003815,9047,ATS,B,8
8,test,2,C,mfborder.png,1,m,Thu Feb 05 2026 15:53:55 GMT-0500 (Eastern Standard Time),575943.0,CFD-WM-009-009-A.jpg,1200,dash,I,m,1080,6,1,23932.89999961853,552010.1000003815,9047,ATS,B,9
9,test,2,C,mfborder.png,1,m,Thu Feb 05 2026 15:53:55 GMT-0500 (Eastern Standard Time),578626.8000001907,CFD-BM-037-041-A.jpg,2000,dash,I,m,652,5,1,26616.699999809265,552010.1000003815,9047,ATS,B,10
9,test,2,C,mfborder.png,0,z,Thu Feb 05 2026 15:53:55 GMT-0500 (Eastern Standard Time),581010.0,CFD-BF-035-007-HC.jpg,1500,dash,I,m,853,3,1,28999.89999961853,552010.1000003815,9047,ATS,B,11
10,test,2,C,mfborder.png,1,z,Thu Feb 05 2026 15:53:55 GMT-0500 (Eastern Standard Time),583559.8000001907,CFD-WF-011-006-HC.jpg,1700,dash,I,z,830,1,1,31549.699999809265,552010.1000003815,9047,ATS,B,12
11,test,2,C,haborder.png,1,z,Thu Feb 05 2026 15:53:55 GMT-0500 (Eastern Standard Time),586343.0,CFD-WF-026-008-A.jpg,1700,solid,I,z,1064,9,1,34332.89999961853,552010.1000003815,9047,ATS,B,13
12,test,2,C,mfborder.png,1,z,Thu Feb 05 2026 15:53:55 GMT-0500 (Eastern Standard Time),588926.6999998093,CFD-WF-013-015-A.jpg,1600,dash,I,z,956,2,1,36916.599999427795,552010.1000003815,9047,ATS,B,14
13,test,2,C,mfborder.png,1,z,Thu Feb 05 2026 15:53:55 GMT-0500 (Eastern Standard Time),591426.6999998093,CFD-WF-011-006-HC.jpg,1700,dash,I,z,769,1,1,39416.599999427795,552010.1000003815,9047,ATS,B,15
14,test,2,C,haborder.png,1,m,Thu Feb 05 2026 15:53:55 GMT-0500 (Eastern Standard Time),593793.3999996185,CFD-BM-020-024-HC.jpg,1600,solid,I,m,737,10,1,41783.29999923706,552010.1000003815,9047,ATS,B,16
15,test,2,C,haborder.png,1,z,Thu Feb 05 2026 15:53:55 GMT-0500 (Eastern Standard Time),596243.3000001907,CFD-BF-051-043-A.jpg,1400,solid,I,z,1018,7,1,44233.199999809265,552010.1000003815,9047,ATS,B,17
16,test,2,C,mfborder.png,1,z,Thu Feb 05 2026 15:53:55 GMT-0500 (Eastern Standard Time),598826.6000003815,CFD-WF-013-015-A.jpg,1600,dash,I,z,960,2,1,46816.5,552010.1000003815,9047,ATS,B,18
17,test,2,C,haborder.png,1,m,Thu Feb 05 2026 15:53:55 GMT-0500 (Eastern Standard Time),601210.0,CFD-BM-020-024-HC.jpg,1600,solid,I,m,761,10,1,49199.89999961853,552010.1000003815,9047,ATS,B,19
18,test,2,C,haborder.png,1,m,Thu Feb 05 2026 15:53:55 GMT-0500 (Eastern Standard Time),602943.3999996185,CFD-WM-011-006-HC.jpg,1000,solid,I,m,706,12,1,50933.29999923706,552010.1000003815,9047,ATS,B,20
18,test,2,C,mfborder.png,0,m,Thu Feb 05 2026 15:53:55 GMT-0500 (Eastern Standard Time),605676.8000001907,CFD-WM-009-009-A.jpg,1200,dash,I,None,1515,6,1,53666.699999809265,552010.1000003815,9047,ATS,B,21
19,test,2,C,haborder.png,1,m,Thu Feb 05 2026 15:53:55 GMT-0500 (Eastern Standard Time),608293.1999998093,CFD-WM-011-006-HC.jpg,1500,solid,I,m,1083,11,1,56283.099999427795,552010.1000003815,9047,ATS,B,22
20,test,2,C,haborder.png,1,z,Thu Feb 05 2026 15:53:55 GMT-0500 (Eastern Standard Time),610910.0,CFD-BF-050-012-A.jpg,1900,solid,I,z,691,8,1,58899.89999961853,552010.1000003815,9047,ATS,B,23
21,test,2,C,haborder.png,1,m,Thu Feb 05 2026 15:53:55 GMT-0500 (Eastern Standard Time),613260.0,CFD-WM-011-006-HC.jpg,1500,solid,I,m,826,11,1,61249.89999961853,552010.1000003815,9047,ATS,B,24
0,test,3,C,mfborder.png,0,m,Thu Feb 05 2026 15:53:55 GMT-0500 (Eastern Standard Time),620093.5,CFD-WM-037-060-A.jpg,2000,dash,I,z,1342,5,1,3366.8999996185303,616726.6000003815,9047,ATS,B,1
1,test,3,C,mfborder.png,1,z,Thu Feb 05 2026 15:53:55 GMT-0500 (Eastern Standard Time),622493.3000001907,CFD-BF-027-013-HC.jpg,1700,dash,I,z,674,1,1,5766.699999809265,616726.6000003815,9047,ATS,B,2
2,test,3,C,mfborder.png,1,z,Thu Feb 05 2026 15:53:55 GMT-0500 (Eastern Standard Time),625243.3000001907,CFD-WF-026-008-A.jpg,1500,dash,I,z,1226,3,1,8516.699999809265,616726.6000003815,9047,ATS,B,3
3,test,3,C,haborder.png,1,z,Thu Feb 05 2026 15:53:55 GMT-0500 (Eastern Standard Time),628443.3999996185,CFD-BM-041-048-A.jpg,1700,solid,I,z,1477,9,1,11716.79999923706,616726.6000003815,9047,ATS,B,4
4,test,3,C,mfborder.png,1,m,Thu Feb 05 2026 15:53:55 GMT-0500 (Eastern Standard Time),630543.3000001907,CFD-BM-020-024-HC.jpg,1200,dash,I,m,872,6,1,13816.699999809265,616726.6000003815,9047,ATS,B,5
4,test,3,C,haborder.png,0,z,Thu Feb 05 2026 15:53:55 GMT-0500 (Eastern Standard Time),633093.6999998093,CFD-WM-009-009-A.jpg,1400,solid,I,m,1132,7,1,16367.099999427795,616726.6000003815,9047,ATS,B,6
4,test,3,C,haborder.png,0,m,Thu Feb 05 2026 15:53:55 GMT-0500 (Eastern Standard Time),635959.8999996185,CFD-WF-027-007-HC.jpg,1500,solid,I,z,1347,11,1,19233.29999923706,616726.6000003815,9047,ATS,B,7
5,test,3,C,haborder.png,1,z,Thu Feb 05 2026 15:53:55 GMT-0500 (Eastern Standard Time),638759.8999996185,CFD-BM-037-041-A.jpg,1900,solid,I,z,880,8,1,22033.29999923706,616726.6000003815,9047,ATS,B,8
6,test,3,C,mfborder.png,1,z,Thu Feb 05 2026 15:53:55 GMT-0500 (Eastern Standard Time),641060.0,CFD-WF-026-008-A.jpg,1500,dash,I,z,768,3,1,24333.39999961853,616726.6000003815,9047,ATS,B,9
7,test,3,C,haborder.png,1,z,Thu Feb 05 2026 15:53:55 GMT-0500 (Eastern Standard Time),644160.1000003815,CFD-BM-037-041-A.jpg,1900,solid,I,z,1172,8,1,27433.5,616726.6000003815,9047,ATS,B,10
8,test,3,C,mfborder.png,1,m,Thu Feb 05 2026 15:53:55 GMT-0500 (Eastern Standard Time),646226.5,CFD-BM-020-024-HC.jpg,1200,dash,I,m,836,6,1,29499.89999961853,616726.6000003815,9047,ATS,B,11
8,test,3,C,haborder.png,0,m,Thu Feb 05 2026 15:53:55 GMT-0500 (Eastern Standard Time),648760.0,CFD-WF-011-006-HC.jpg,1000,solid,I,None,1517,12,1,32033.39999961853,616726.6000003815,9047,ATS,B,12
8,test,3,C,haborder.png,0,z,Thu Feb 05 2026 15:53:55 GMT-0500 (Eastern Standard Time),651693.3000001907,CFD-WM-009-009-A.jpg,1400,solid,I,None,1516,7,1,34966.699999809265,616726.6000003815,9047,ATS,B,13
9,test,3,C,haborder.png,1,m,Thu Feb 05 2026 15:53:55 GMT-0500 (Eastern Standard Time),654343.0,CFD-BF-035-007-HC.jpg,1600,solid,I,m,1031,10,1,37616.39999961853,616726.6000003815,9047,ATS,B,14
10,test,3,C,mfborder.png,1,m,Thu Feb 05 2026 15:53:55 GMT-0500 (Eastern Standard Time),656626.6000003815,CFD-WM-012-007-HC.jpg,1000,dash,I,m,1253,4,1,39900.0,616726.6000003815,9047,ATS,B,15
11,test,3,C,mfborder.png,1,z,Thu Feb 05 2026 15:53:55 GMT-0500 (Eastern Standard Time),658943.3000001907,CFD-BF-051-043-A.jpg,1600,dash,I,z,689,2,1,42216.699999809265,616726.6000003815,9047,ATS,B,16
12,test,3,C,haborder.png,1,m,Thu Feb 05 2026 15:53:55 GMT-0500 (Eastern Standard Time),661709.8999996185,CFD-BF-035-007-HC.jpg,1600,solid,I,m,1140,10,1,44983.29999923706,616726.6000003815,9047,ATS,B,17
13,test,3,C,mfborder.png,1,m,Thu Feb 05 2026 15:53:55 GMT-0500 (Eastern Standard Time),663576.5,CFD-WM-012-007-HC.jpg,1000,dash,I,m,846,4,1,46849.89999961853,616726.6000003815,9047,ATS,B,18
14,test,3,C,mfborder.png,1,m,Thu Feb 05 2026 15:53:55 GMT-0500 (Eastern Standard Time),666443.1999998093,CFD-WM-037-060-A.jpg,2000,dash,I,m,843,5,1,49716.599999427795,616726.6000003815,9047,ATS,B,19
15,test,3,C,mfborder.png,1,z,Thu Feb 05 2026 15:53:55 GMT-0500 (Eastern Standard Time),668976.6000003815,CFD-BF-051-043-A.jpg,1600,dash,I,z,904,2,1,52250.0,616726.6000003815,9047,ATS,B,20
16,test,3,C,mfborder.png,1,z,Thu Feb 05 2026 15:53:55 GMT-0500 (Eastern Standard Time),671759.8999996185,CFD-BF-027-013-HC.jpg,1700,dash,I,z,1055,1,1,55033.29999923706,616726.6000003815,9047,ATS,B,21
17,test,3,C,haborder.png,1,z,Thu Feb 05 2026 15:53:55 GMT-0500 (Eastern Standard Time),674243.3000001907,CFD-BM-041-048-A.jpg,1700,solid,I,z,752,9,1,57516.699999809265,616726.6000003815,9047,ATS,B,22
17,test,3,C,haborder.png,0,m,Thu Feb 05 2026 15:53:55 GMT-0500 (Eastern Standard Time),676842.8000001907,CFD-WF-027-007-HC.jpg,1500,solid,I,z,1077,11,1,60116.199999809265,616726.6000003815,9047,ATS,B,23
18,test,3,C,haborder.png,1,m,Thu Feb 05 2026 15:53:55 GMT-0500 (Eastern Standard Time),678793.1000003815,CFD-WF-011-006-HC.jpg,1000,solid,I,m,929,12,1,62066.5,616726.6000003815,9047,ATS,B,24
1,test,4,C,mfborder.png,1,z,Thu Feb 05 2026 15:53:55 GMT-0500 (Eastern Standard Time),683760.1000003815,CFD-WF-011-006-HC.jpg,1700,dash,I,z,1272,1,1,2999.4000005722046,680760.6999998093,9047,ATS,B,1
2,test,4,C,mfborder.png,1,z,Thu Feb 05 2026 15:53:55 GMT-0500 (Eastern Standard Time),686593.3000001907,CFD-BF-035-007-HC.jpg,1500,dash,I,z,1304,3,1,5832.60000038147,680760.6999998093,9047,ATS,B,2
3,test,4,C,haborder.png,1,m,Thu Feb 05 2026 15:53:55 GMT-0500 (Eastern Standard Time),689126.3000001907,CFD-WM-011-006-HC.jpg,1500,solid,I,m,1015,11,1,8365.60000038147,680760.6999998093,9047,ATS,B,3
4,test,4,C,mfborder.png,1,m,Thu Feb 05 2026 15:53:55 GMT-0500 (Eastern Standard Time),690893.1999998093,CFD-BM-015-017-HC.jpg,1000,dash,I,m,742,4,1,10132.5,680760.6999998093,9047,ATS,B,4
5,test,4,C,haborder.png,1,z,Thu Feb 05 2026 15:53:55 GMT-0500 (Eastern Standard Time),693243.1999998093,CFD-BF-051-043-A.jpg,1400,solid,I,z,927,7,1,12482.5,680760.6999998093,9047,ATS,B,5
6,test,4,C,haborder.png,1,m,Thu Feb 05 2026 15:53:55 GMT-0500 (Eastern Standard Time),695709.8000001907,CFD-BM-020-024-HC.jpg,1600,solid,I,m,841,10,1,14949.10000038147,680760.6999998093,9047,ATS,B,6
7,test,4,C,mfborder.png,1,z,Thu Feb 05 2026 15:53:55 GMT-0500 (Eastern Standard Time),698209.8000001907,CFD-WF-013-015-A.jpg,1600,dash,I,z,870,2,1,17449.10000038147,680760.6999998093,9047,ATS,B,7
7,test,4,C,mfborder.png,0,z,Thu Feb 05 2026 15:53:55 GMT-0500 (Eastern Standard Time),701010.0,CFD-WF-011-006-HC.jpg,1700,dash,I,m,1070,1,1,20249.300000190735,680760.6999998093,9047,ATS,B,8
8,test,4,C,mfborder.png,1,m,Thu Feb 05 2026 15:53:55 GMT-0500 (Eastern Standard Time),702759.6999998093,CFD-BM-015-017-HC.jpg,1000,dash,I,m,730,4,1,21999.0,680760.6999998093,9047,ATS,B,9
8,test,4,C,mfborder.png,0,m,Thu Feb 05 2026 15:53:55 GMT-0500 (Eastern Standard Time),705593.1999998093,CFD-BM-037-041-A.jpg,2000,dash,I,z,812,5,1,24832.5,680760.6999998093,9047,ATS,B,10
9,test,4,C,haborder.png,1,m,Thu Feb 05 2026 15:53:55 GMT-0500 (Eastern Standard Time),707409.8000001907,CFD-WM-011-006-HC.jpg,1000,solid,I,m,787,12,1,26649.10000038147,680760.6999998093,9047,ATS,B,11
10,test,4,C,haborder.png,1,z,Thu Feb 05 2026 15:53:55 GMT-0500 (Eastern Standard Time),710493.1999998093,CFD-WF-026-008-A.jpg,1700,solid,I,z,1358,9,1,29732.5,680760.6999998093,9047,ATS,B,12
11,test,4,C,haborder.png,1,z,Thu Feb 05 2026 15:53:55 GMT-0500 (Eastern Standard Time),712626.6000003815,CFD-BF-051-043-A.jpg,1400,solid,I,z,703,7,1,31865.900000572205,680760.6999998093,9047,ATS,B,13
11,test,4,C,mfborder.png,0,m,Thu Feb 05 2026 15:53:55 GMT-0500 (Eastern Standard Time),716160.0,CFD-BM-037-041-A.jpg,2000,dash,I,None,1516,5,1,35399.300000190735,680760.6999998093,9047,ATS,B,14
12,test,4,C,mfborder.png,1,m,Thu Feb 05 2026 15:53:55 GMT-0500 (Eastern Standard Time),718159.8000001907,CFD-WM-009-009-A.jpg,1200,dash,I,m,772,6,1,37399.10000038147,680760.6999998093,9047,ATS,B,15
13,test,4,C,mfborder.png,1,z,Thu Feb 05 2026 15:53:55 GMT-0500 (Eastern Standard Time),720643.1999998093,CFD-WF-013-015-A.jpg,1600,dash,I,z,852,2,1,39882.5,680760.6999998093,9047,ATS,B,16
14,test,4,C,haborder.png,1,m,Thu Feb 05 2026 15:53:55 GMT-0500 (Eastern Standard Time),722793.1999998093,CFD-WM-011-006-HC.jpg,1500,solid,I,m,629,11,1,42032.5,680760.6999998093,9047,ATS,B,17
15,test,4,C,haborder.png,1,z,Thu Feb 05 2026 15:53:55 GMT-0500 (Eastern Standard Time),725293.1999998093,CFD-WF-026-008-A.jpg,1700,solid,I,z,758,9,1,44532.5,680760.6999998093,9047,ATS,B,18
16,test,4,C,haborder.png,1,m,Thu Feb 05 2026 15:53:55 GMT-0500 (Eastern Standard Time),728259.8999996185,CFD-BM-020-024-HC.jpg,1600,solid,I,m,1335,10,1,47499.199999809265,680760.6999998093,9047,ATS,B,19
16,test,4,C,mfborder.png,0,m,Thu Feb 05 2026 15:53:55 GMT-0500 (Eastern Standard Time),730909.8000001907,CFD-WM-009-009-A.jpg,1200,dash,I,z,1424,6,1,50149.10000038147,680760.6999998093,9047,ATS,B,20
17,test,4,C,mfborder.png,1,z,Thu Feb 05 2026 15:53:55 GMT-0500 (Eastern Standard Time),733926.3000001907,CFD-BF-035-007-HC.jpg,1500,dash,I,z,1498,3,1,53165.60000038147,680760.6999998093,9047,ATS,B,21
18,test,4,C,haborder.png,1,m,Thu Feb 05 2026 15:53:55 GMT-0500 (Eastern Standard Time),735876.5,CFD-WM-011-006-HC.jpg,1000,solid,I,m,917,12,1,55115.800000190735,680760.6999998093,9047,ATS,B,22
18,test,4,C,haborder.png,0,z,Thu Feb 05 2026 15:53:55 GMT-0500 (Eastern Standard Time),739309.8999996185,CFD-BF-050-012-A.jpg,1900,solid,I,None,1516,8,1,58549.199999809265,680760.6999998093,9047,ATS,B,23
19,test,4,C,haborder.png,1,z,Thu Feb 05 2026 15:53:55 GMT-0500 (Eastern Standard Time),741893.3000001907,CFD-BF-050-012-A.jpg,1900,solid,I,z,666,8,1,61132.60000038147,680760.6999998093,9047,ATS,B,24
