Number,acc_sum,block,block_c,block_cond,con_img,correct,correct_response,datetime,endtime,jitter,project,response,response_time,row_sel,session_number,start_end,starttime,subject_id,task,task_vers,trial
3,0,prac,1,A,circle.png,0,z,Thu Jan 22 2026 15:13:30 GMT-0500 (Eastern Standard Time),66188.89999961853,1200,I,None,1512,3,1,3487.8999996185303,62701.0,9048,NTS,A,1
8,0,prac,1,A,circle.png,0,m,Thu Jan 22 2026 15:13:30 GMT-0500 (Eastern Standard Time),69739.19999980927,1600,I,z,1157,7,1,3539.199999809265,66200.0,9048,NTS,A,2
2,0,prac,1,A,circle.png,0,z,Thu Jan 22 2026 15:13:30 GMT-0500 (Eastern Standard Time),74039.0,2000,I,None,1514,2,1,4288.900000572205,69750.0999994278,9048,NTS,A,3
6,0,prac,1,A,circle.png,0,m,Thu Jan 22 2026 15:13:30 GMT-0500 (Eastern Standard Time),78239.0,1900,I,None,1514,5,1,4187.900000572205,74051.0999994278,9048,NTS,A,4
8,0,prac,1,A,circle.png,0,m,Thu Jan 22 2026 15:13:30 GMT-0500 (Eastern Standard Time),81539.0999994278,1600,I,z,900,7,1,3287.8999996185303,78251.19999980927,9048,NTS,A,5
1,0,prac,1,A,circle.png,0,z,Thu Jan 22 2026 15:13:30 GMT-0500 (Eastern Standard Time),84839.0,1000,I,None,1514,1,1,3288.9000005722046,81550.0999994278,9048,NTS,A,6
1,1,prac,1,A,circle.png,1,z,Thu Jan 22 2026 15:13:30 GMT-0500 (Eastern Standard Time),87738.89999961853,1000,I,z,1109,1,1,2889.199999809265,84849.69999980927,9048,NTS,A,7
4,1,prac,1,A,circle.png,0,z,Thu Jan 22 2026 15:13:30 GMT-0500 (Eastern Standard Time),91438.89999961853,1400,I,None,1515,4,1,3691.8999996185303,87747.0,9048,NTS,A,8
9,1,prac,1,A,circle.png,0,m,Thu Jan 22 2026 15:13:30 GMT-0500 (Eastern Standard Time),95055.5999994278,1500,I,z,1321,8,1,3606.5,91449.0999994278,9048,NTS,A,9
7,1,prac,1,A,circle.png,0,m,Thu Jan 22 2026 15:13:30 GMT-0500 (Eastern Standard Time),99055.5,1700,I,None,1515,6,1,3988.800000190735,95066.69999980927,9048,NTS,A,10
3,2,prac,1,A,circle.png,1,z,Thu Jan 22 2026 15:13:30 GMT-0500 (Eastern Standard Time),102039.0,1200,I,z,996,3,1,2974.2000007629395,99064.79999923706,9048,NTS,A,11
9,2,prac,1,A,circle.png,0,m,Thu Jan 22 2026 15:13:30 GMT-0500 (Eastern Standard Time),105305.69999980927,1500,I,z,977,8,1,3255.9000005722046,102049.79999923706,9048,NTS,A,12
7,0,prac,2,A,circle.png,0,m,Thu Jan 22 2026 15:13:30 GMT-0500 (Eastern Standard Time),176405.5,1700,I,None,1515,6,1,3989.1000003814697,172416.39999961853,9048,NTS,A,1
1,1,prac,2,A,circle.png,1,z,Thu Jan 22 2026 15:13:30 GMT-0500 (Eastern Standard Time),179105.69999980927,1000,I,z,900,1,1,2689.0,176416.69999980927,9048,NTS,A,2
8,1,prac,2,A,circle.png,0,m,Thu Jan 22 2026 15:13:30 GMT-0500 (Eastern Standard Time),183022.0999994278,1600,I,None,1514,7,1,3896.0,179126.0999994278,9048,NTS,A,3
6,2,prac,2,A,circle.png,1,m,Thu Jan 22 2026 15:13:30 GMT-0500 (Eastern Standard Time),186555.29999923706,1900,I,m,843,5,1,3522.199999809265,183033.0999994278,9048,NTS,A,4
3,3,prac,2,A,circle.png,1,z,Thu Jan 22 2026 15:13:30 GMT-0500 (Eastern Standard Time),189722.29999923706,1200,I,z,1176,3,1,3154.0999994277954,186568.19999980927,9048,NTS,A,5
3,4,prac,2,A,circle.png,1,z,Thu Jan 22 2026 15:13:30 GMT-0500 (Eastern Standard Time),192655.5999994278,1200,I,z,937,3,1,2922.0999994277954,189733.5,9048,NTS,A,6
1,5,prac,2,A,circle.png,1,z,Thu Jan 22 2026 15:13:30 GMT-0500 (Eastern Standard Time),195472.29999923706,1000,I,z,1020,1,1,2807.7999992370605,192664.5,9048,NTS,A,7
7,6,prac,2,A,circle.png,1,m,Thu Jan 22 2026 15:13:30 GMT-0500 (Eastern Standard Time),199055.5999994278,1700,I,m,1088,6,1,3572.0,195483.5999994278,9048,NTS,A,8
8,7,prac,2,A,circle.png,1,m,Thu Jan 22 2026 15:13:30 GMT-0500 (Eastern Standard Time),202339.0,1600,I,m,884,7,1,3273.300000190735,199065.69999980927,9048,NTS,A,9
9,8,prac,2,A,circle.png,1,m,Thu Jan 22 2026 15:13:30 GMT-0500 (Eastern Standard Time),205772.29999923706,1500,I,m,1141,8,1,3423.199999809265,202349.0999994278,9048,NTS,A,10
4,9,prac,2,A,circle.png,1,z,Thu Jan 22 2026 15:13:30 GMT-0500 (Eastern Standard Time),208738.89999961853,1400,I,z,768,4,1,2953.699999809265,205785.19999980927,9048,NTS,A,11
2,10,prac,2,A,circle.png,1,z,Thu Jan 22 2026 15:13:30 GMT-0500 (Eastern Standard Time),212288.89999961853,2000,I,z,753,2,1,3539.8999996185303,208749.0,9048,NTS,A,12
1,0,prac,1,B,triangle.png,0,z,Thu Jan 22 2026 15:13:30 GMT-0500 (Eastern Standard Time),281822.0999994278,1900,I,None,1515,1,1,4187.300000190735,277634.79999923706,9048,NTS,A,1
8,1,prac,1,B,triangle.png,1,m,Thu Jan 22 2026 15:13:30 GMT-0500 (Eastern Standard Time),284622.0999994278,1200,I,m,806,7,1,2789.800000190735,281832.29999923706,9048,NTS,A,2
3,2,prac,1,B,triangle.png,1,z,Thu Jan 22 2026 15:13:30 GMT-0500 (Eastern Standard Time),287822.29999923706,1600,I,z,806,3,1,3189.5999994277954,284632.69999980927,9048,NTS,A,3
2,3,prac,1,B,triangle.png,1,m,Thu Jan 22 2026 15:13:30 GMT-0500 (Eastern Standard Time),291288.89999961853,1700,I,m,978,2,1,3456.699999809265,287832.19999980927,9048,NTS,A,4
8,4,prac,1,B,triangle.png,1,m,Thu Jan 22 2026 15:13:30 GMT-0500 (Eastern Standard Time),293988.89999961853,1200,I,m,716,7,1,2690.3999996185303,291298.5,9048,NTS,A,5
4,5,prac,1,B,triangle.png,1,m,Thu Jan 22 2026 15:13:30 GMT-0500 (Eastern Standard Time),297072.0999994278,1500,I,m,788,4,1,3072.800000190735,293999.29999923706,9048,NTS,A,6
1,6,prac,1,B,triangle.png,1,z,Thu Jan 22 2026 15:13:30 GMT-0500 (Eastern Standard Time),300455.5,1900,I,z,697,1,1,3373.800000190735,297081.69999980927,9048,NTS,A,7
3,7,prac,1,B,triangle.png,1,z,Thu Jan 22 2026 15:13:30 GMT-0500 (Eastern Standard Time),303838.89999961853,1600,I,z,1004,3,1,3373.800000190735,300465.0999994278,9048,NTS,A,8
6,8,prac,1,B,triangle.png,1,m,Thu Jan 22 2026 15:13:30 GMT-0500 (Eastern Standard Time),306388.79999923706,1000,I,m,766,5,1,2539.7999992370605,303849.0,9048,NTS,A,9
9,9,prac,1,B,triangle.png,1,z,Thu Jan 22 2026 15:13:30 GMT-0500 (Eastern Standard Time),309272.29999923706,1400,I,z,696,8,1,2873.0,306399.29999923706,9048,NTS,A,10
4,10,prac,1,B,triangle.png,1,m,Thu Jan 22 2026 15:13:30 GMT-0500 (Eastern Standard Time),312522.19999980927,1500,I,m,961,4,1,3239.800000190735,309282.39999961853,9048,NTS,A,11
7,11,prac,1,B,triangle.png,1,z,Thu Jan 22 2026 15:13:30 GMT-0500 (Eastern Standard Time),315955.5,2000,I,z,635,6,1,3423.6000003814697,312531.89999961853,9048,NTS,A,12
6,1,test,1,A,circle.png,1,m,Thu Jan 22 2026 15:13:30 GMT-0500 (Eastern Standard Time),356055.19999980927,1900,I,m,747,5,1,2658.800000190735,353396.39999961853,9048,NTS,A,1
7,2,test,1,A,circle.png,1,m,Thu Jan 22 2026 15:13:30 GMT-0500 (Eastern Standard Time),358688.69999980927,1700,I,m,904,6,1,2625.800000190735,356062.89999961853,9048,NTS,A,2
2,3,test,1,A,circle.png,1,z,Thu Jan 22 2026 15:13:30 GMT-0500 (Eastern Standard Time),361455.39999961853,2000,I,z,739,2,1,2758.6000003814697,358696.79999923706,9048,NTS,A,3
4,4,test,1,A,circle.png,1,z,Thu Jan 22 2026 15:13:30 GMT-0500 (Eastern Standard Time),364305.29999923706,1400,I,z,1421,4,1,2841.7999992370605,361463.5,9048,NTS,A,4
6,5,test,1,A,circle.png,1,m,Thu Jan 22 2026 15:13:30 GMT-0500 (Eastern Standard Time),367072.0,1900,I,m,838,5,1,2758.1000003814697,364313.89999961853,9048,NTS,A,5
9,6,test,1,A,circle.png,1,m,Thu Jan 22 2026 15:13:30 GMT-0500 (Eastern Standard Time),369305.29999923706,1500,I,m,710,8,1,2224.7999992370605,367080.5,9048,NTS,A,6
9,7,test,1,A,circle.png,1,m,Thu Jan 22 2026 15:13:30 GMT-0500 (Eastern Standard Time),371355.29999923706,1500,I,m,527,8,1,2037.8999996185303,369317.39999961853,9048,NTS,A,7
4,8,test,1,A,circle.png,1,z,Thu Jan 22 2026 15:13:30 GMT-0500 (Eastern Standard Time),373505.39999961853,1400,I,z,720,4,1,2141.8999996185303,371363.5,9048,NTS,A,8
1,9,test,1,A,circle.png,1,z,Thu Jan 22 2026 15:13:30 GMT-0500 (Eastern Standard Time),375472.0,1000,I,z,938,1,1,1958.8000001907349,373513.19999980927,9048,NTS,A,9
2,10,test,1,A,circle.png,1,z,Thu Jan 22 2026 15:13:30 GMT-0500 (Eastern Standard Time),378955.19999980927,2000,I,z,1460,2,1,3475.1000003814697,375480.0999994278,9048,NTS,A,10
8,11,test,1,A,circle.png,1,m,Thu Jan 22 2026 15:13:30 GMT-0500 (Eastern Standard Time),381372.0,1600,I,m,793,7,1,2405.9000005722046,378966.0999994278,9048,NTS,A,11
7,12,test,1,A,circle.png,1,m,Thu Jan 22 2026 15:13:30 GMT-0500 (Eastern Standard Time),383888.5999994278,1700,I,m,788,6,1,2509.0999994277954,381379.5,9048,NTS,A,12
4,13,test,1,A,circle.png,1,z,Thu Jan 22 2026 15:13:30 GMT-0500 (Eastern Standard Time),385921.89999961853,1400,I,z,603,4,1,2025.6999998092651,383896.19999980927,9048,NTS,A,13
1,14,test,1,A,circle.png,1,z,Thu Jan 22 2026 15:13:30 GMT-0500 (Eastern Standard Time),387638.39999961853,1000,I,z,698,1,1,1709.1000003814697,385929.29999923706,9048,NTS,A,14
6,15,test,1,A,circle.png,1,m,Thu Jan 22 2026 15:13:30 GMT-0500 (Eastern Standard Time),390221.79999923706,1900,I,m,655,5,1,2575.8999996185303,387645.89999961853,9048,NTS,A,15
1,16,test,1,A,circle.png,1,z,Thu Jan 22 2026 15:13:30 GMT-0500 (Eastern Standard Time),391855.29999923706,1000,I,z,606,1,1,1625.3999996185303,390229.89999961853,9048,NTS,A,16
3,17,test,1,A,circle.png,1,z,Thu Jan 22 2026 15:13:30 GMT-0500 (Eastern Standard Time),393838.79999923706,1200,I,z,755,3,1,1974.0999994277954,391864.69999980927,9048,NTS,A,17
2,18,test,1,A,circle.png,1,z,Thu Jan 22 2026 15:13:30 GMT-0500 (Eastern Standard Time),396471.5999994278,2000,I,z,613,2,1,2624.5999994277954,393847.0,9048,NTS,A,18
4,19,test,1,A,circle.png,1,z,Thu Jan 22 2026 15:13:30 GMT-0500 (Eastern Standard Time),398471.5999994278,1400,I,z,578,4,1,1991.3999996185303,396480.19999980927,9048,NTS,A,19
8,20,test,1,A,circle.png,1,m,Thu Jan 22 2026 15:13:30 GMT-0500 (Eastern Standard Time),400705.29999923706,1600,I,m,604,7,1,2225.0,398480.29999923706,9048,NTS,A,20
3,21,test,1,A,circle.png,1,z,Thu Jan 22 2026 15:13:30 GMT-0500 (Eastern Standard Time),402605.19999980927,1200,I,z,675,3,1,1891.5,400713.69999980927,9048,NTS,A,21
6,22,test,1,A,circle.png,1,m,Thu Jan 22 2026 15:13:30 GMT-0500 (Eastern Standard Time),405721.79999923706,1900,I,m,1194,5,1,3108.7999992370605,402613.0,9048,NTS,A,22
8,23,test,1,A,circle.png,1,m,Thu Jan 22 2026 15:13:30 GMT-0500 (Eastern Standard Time),408038.69999980927,1600,I,m,682,7,1,2309.1000003814697,405729.5999994278,9048,NTS,A,23
3,24,test,1,A,circle.png,1,z,Thu Jan 22 2026 15:13:30 GMT-0500 (Eastern Standard Time),409855.29999923706,1200,I,z,589,3,1,1805.3999996185303,408049.89999961853,9048,NTS,A,24
4,0,test,1,B,triangle.png,0,m,Thu Jan 22 2026 15:13:30 GMT-0500 (Eastern Standard Time),422872.0,1500,I,None,1516,4,1,3025.5,419846.5,9048,NTS,A,1
4,0,test,1,B,triangle.png,0,m,Thu Jan 22 2026 15:13:30 GMT-0500 (Eastern Standard Time),425905.19999980927,1500,I,None,1516,4,1,3023.1000003814697,422882.0999994278,9048,NTS,A,2
7,0,test,1,B,triangle.png,0,z,Thu Jan 22 2026 15:13:30 GMT-0500 (Eastern Standard Time),428788.5999994278,1600,I,m,1250,14,1,2872.5999994277954,425916.0,9048,NTS,A,3
6,0,test,1,B,triangle.png,0,m,Thu Jan 22 2026 15:13:30 GMT-0500 (Eastern Standard Time),431322.0,1000,I,None,1516,5,1,2525.2000007629395,428796.79999923706,9048,NTS,A,4
4,1,test,1,B,triangle.png,1,m,Thu Jan 22 2026 15:13:30 GMT-0500 (Eastern Standard Time),433705.0999994278,1000,I,m,1363,12,1,2375.0999994277954,431330.0,9048,NTS,A,5
1,2,test,1,B,triangle.png,1,z,Thu Jan 22 2026 15:13:30 GMT-0500 (Eastern Standard Time),435888.5,1400,I,z,756,9,1,2171.5,433717.0,9048,NTS,A,6
8,3,test,1,B,triangle.png,1,m,Thu Jan 22 2026 15:13:30 GMT-0500 (Eastern Standard Time),438438.5,1700,I,m,832,15,1,2542.1000003814697,435896.39999961853,9048,NTS,A,7
8,4,test,1,B,triangle.png,1,m,Thu Jan 22 2026 15:13:30 GMT-0500 (Eastern Standard Time),440438.5,1200,I,m,782,7,1,1990.7000007629395,438447.79999923706,9048,NTS,A,8
1,5,test,1,B,triangle.png,1,z,Thu Jan 22 2026 15:13:30 GMT-0500 (Eastern Standard Time),442988.5999994278,1900,I,z,626,1,1,2542.800000190735,440445.79999923706,9048,NTS,A,9
4,6,test,1,B,triangle.png,1,m,Thu Jan 22 2026 15:13:30 GMT-0500 (Eastern Standard Time),444721.89999961853,1000,I,m,704,12,1,1725.1000003814697,442996.79999923706,9048,NTS,A,10
9,7,test,1,B,triangle.png,1,z,Thu Jan 22 2026 15:13:30 GMT-0500 (Eastern Standard Time),447371.79999923706,1900,I,z,727,16,1,2642.5,444729.29999923706,9048,NTS,A,11
6,8,test,1,B,triangle.png,1,m,Thu Jan 22 2026 15:13:30 GMT-0500 (Eastern Standard Time),449155.19999980927,1000,I,m,753,5,1,1775.6000003814697,447379.5999994278,9048,NTS,A,12
1,9,test,1,B,triangle.png,1,z,Thu Jan 22 2026 15:13:30 GMT-0500 (Eastern Standard Time),451688.19999980927,1900,I,z,613,1,1,2525.0,449163.19999980927,9048,NTS,A,13
6,10,test,1,B,triangle.png,1,m,Thu Jan 22 2026 15:13:30 GMT-0500 (Eastern Standard Time),453755.19999980927,1500,I,m,544,13,1,2058.5,451696.69999980927,9048,NTS,A,14
2,11,test,1,B,triangle.png,1,m,Thu Jan 22 2026 15:13:30 GMT-0500 (Eastern Standard Time),456056.0,1200,I,m,1081,10,1,2293.2000007629395,453762.79999923706,9048,NTS,A,15
6,12,test,1,B,triangle.png,1,m,Thu Jan 22 2026 15:13:30 GMT-0500 (Eastern Standard Time),458171.79999923706,1500,I,m,593,13,1,2108.7999992370605,456063.0,9048,NTS,A,16
3,13,test,1,B,triangle.png,1,z,Thu Jan 22 2026 15:13:30 GMT-0500 (Eastern Standard Time),460621.89999961853,1600,I,z,825,3,1,2441.800000190735,458180.0999994278,9048,NTS,A,17
3,14,test,1,B,triangle.png,1,z,Thu Jan 22 2026 15:13:30 GMT-0500 (Eastern Standard Time),463438.39999961853,2000,I,z,791,11,1,2807.3999996185303,460631.0,9048,NTS,A,18
7,14,test,1,B,triangle.png,0,z,Thu Jan 22 2026 15:13:30 GMT-0500 (Eastern Standard Time),466971.89999961853,2000,I,None,1516,6,1,3525.1000003814697,463446.79999923706,9048,NTS,A,19
2,15,test,1,B,triangle.png,1,m,Thu Jan 22 2026 15:13:30 GMT-0500 (Eastern Standard Time),469638.5,1700,I,m,949,2,1,2656.300000190735,466982.19999980927,9048,NTS,A,20
2,16,test,1,B,triangle.png,1,m,Thu Jan 22 2026 15:13:30 GMT-0500 (Eastern Standard Time),471955.19999980927,1700,I,m,586,2,1,2310.0,469645.19999980927,9048,NTS,A,21
9,17,test,1,B,triangle.png,1,z,Thu Jan 22 2026 15:13:30 GMT-0500 (Eastern Standard Time),474071.5999994278,1400,I,z,698,8,1,2108.300000190735,471963.29999923706,9048,NTS,A,22
7,17,test,1,B,triangle.png,0,z,Thu Jan 22 2026 15:13:30 GMT-0500 (Eastern Standard Time),477205.19999980927,1600,I,None,1516,14,1,3119.699999809265,474085.5,9048,NTS,A,23
8,18,test,1,B,triangle.png,1,m,Thu Jan 22 2026 15:13:30 GMT-0500 (Eastern Standard Time),479021.89999961853,1200,I,m,591,7,1,1808.1000003814697,477213.79999923706,9048,NTS,A,24
7,1,prac,1,C,triangle.png,1,z,Thu Jan 22 2026 15:13:30 GMT-0500 (Eastern Standard Time),531105.1999998093,1200,I,z,870,6,1,2856.5,528248.6999998093,9048,NTS,A,1
1,1,prac,1,C,circle.png,0,z,Thu Jan 22 2026 15:13:30 GMT-0500 (Eastern Standard Time),535105.0,1700,I,None,1515,1,1,3989.300000190735,531115.6999998093,9048,NTS,A,2
8,2,prac,1,C,triangle.png,1,m,Thu Jan 22 2026 15:13:30 GMT-0500 (Eastern Standard Time),538188.5,1400,I,m,892,7,1,3073.300000190735,535115.1999998093,9048,NTS,A,3
6,3,prac,1,C,circle.png,1,m,Thu Jan 22 2026 15:13:30 GMT-0500 (Eastern Standard Time),542121.8999996185,2000,I,m,1144,5,1,3923.800000190735,538198.0999994278,9048,NTS,A,4
3,4,prac,1,C,triangle.png,1,z,Thu Jan 22 2026 15:13:30 GMT-0500 (Eastern Standard Time),545605.0999994278,1500,I,z,1199,3,1,3472.300000190735,542132.7999992371,9048,NTS,A,5
7,4,prac,1,C,triangle.png,0,z,Thu Jan 22 2026 15:13:30 GMT-0500 (Eastern Standard Time),548855.0999994278,1200,I,m,1264,6,1,3237.800000190735,545617.2999992371,9048,NTS,A,6
2,5,prac,1,C,triangle.png,1,m,Thu Jan 22 2026 15:13:30 GMT-0500 (Eastern Standard Time),552171.8999996185,1600,I,m,926,2,1,3304.0,548867.8999996185,9048,NTS,A,7
2,6,prac,1,C,triangle.png,1,m,Thu Jan 22 2026 15:13:30 GMT-0500 (Eastern Standard Time),555171.7999992371,1600,I,m,600,2,1,2989.3999996185303,552182.3999996185,9048,NTS,A,8
9,6,prac,1,C,circle.png,0,m,Thu Jan 22 2026 15:13:30 GMT-0500 (Eastern Standard Time),558471.7999992371,1900,I,z,613,8,1,3289.2999992370605,555182.5,9048,NTS,A,9
4,6,prac,1,C,circle.png,0,z,Thu Jan 22 2026 15:13:30 GMT-0500 (Eastern Standard Time),561405.1999998093,1000,I,m,1141,4,1,2923.699999809265,558481.5,9048,NTS,A,10
1,7,prac,1,C,circle.png,1,z,Thu Jan 22 2026 15:13:30 GMT-0500 (Eastern Standard Time),564755.1999998093,1700,I,z,852,1,1,3340.5,561414.6999998093,9048,NTS,A,11
3,7,prac,1,C,triangle.png,0,z,Thu Jan 22 2026 15:13:30 GMT-0500 (Eastern Standard Time),568555.0,1500,I,None,1516,3,1,3789.5,564765.5,9048,NTS,A,12
1,1,prac,2,C,circle.png,1,z,Thu Jan 22 2026 15:13:30 GMT-0500 (Eastern Standard Time),579238.6999998093,1700,I,z,1197,1,1,3672.9000005722046,575565.7999992371,9048,NTS,A,1
2,2,prac,2,C,triangle.png,1,m,Thu Jan 22 2026 15:13:30 GMT-0500 (Eastern Standard Time),582505.0999994278,1600,I,m,877,2,1,3256.0999994277954,579249.0,9048,NTS,A,2
8,3,prac,2,C,triangle.png,1,m,Thu Jan 22 2026 15:13:30 GMT-0500 (Eastern Standard Time),585555.1999998093,1400,I,m,851,7,1,3040.699999809265,582514.5,9048,NTS,A,3
6,4,prac,2,C,circle.png,1,m,Thu Jan 22 2026 15:13:30 GMT-0500 (Eastern Standard Time),589638.5999994278,2000,I,m,1298,5,1,4072.800000190735,585565.7999992371,9048,NTS,A,4
3,5,prac,2,C,triangle.png,1,z,Thu Jan 22 2026 15:13:30 GMT-0500 (Eastern Standard Time),592571.8999996185,1500,I,z,642,3,1,2919.800000190735,589652.0999994278,9048,NTS,A,5
9,6,prac,2,C,circle.png,1,m,Thu Jan 22 2026 15:13:30 GMT-0500 (Eastern Standard Time),596021.6999998093,1900,I,m,765,8,1,3439.5,592582.1999998093,9048,NTS,A,6
2,6,prac,2,C,triangle.png,0,m,Thu Jan 22 2026 15:13:30 GMT-0500 (Eastern Standard Time),599021.8999996185,1600,I,z,606,2,1,2990.6000003814697,596031.2999992371,9048,NTS,A,7
3,6,prac,2,C,triangle.png,0,z,Thu Jan 22 2026 15:13:30 GMT-0500 (Eastern Standard Time),602821.7999992371,1500,I,None,1516,3,1,3789.3999996185303,599032.3999996185,9048,NTS,A,8
4,6,prac,2,C,circle.png,0,z,Thu Jan 22 2026 15:13:30 GMT-0500 (Eastern Standard Time),605905.1999998093,1000,I,m,1286,4,1,3073.9000005722046,602831.2999992371,9048,NTS,A,9
9,6,prac,2,C,circle.png,0,m,Thu Jan 22 2026 15:13:30 GMT-0500 (Eastern Standard Time),609538.5,1900,I,z,935,8,1,3622.4000005722046,605916.0999994278,9048,NTS,A,10
7,6,prac,2,C,triangle.png,0,z,Thu Jan 22 2026 15:13:30 GMT-0500 (Eastern Standard Time),613038.2999992371,1200,I,None,1516,6,1,3489.2999992370605,609549.0,9048,NTS,A,11
7,6,prac,2,C,triangle.png,0,z,Thu Jan 22 2026 15:13:30 GMT-0500 (Eastern Standard Time),616538.3999996185,1200,I,None,1516,6,1,3489.5,613048.8999996185,9048,NTS,A,12
6,1,test,1,C,triangle.png,1,m,Thu Jan 22 2026 15:13:30 GMT-0500 (Eastern Standard Time),649705.0,1000,I,m,829,13,1,1842.2000007629395,647862.7999992371,9048,NTS,A,1
8,2,test,1,C,triangle.png,1,m,Thu Jan 22 2026 15:13:30 GMT-0500 (Eastern Standard Time),652154.8999996185,1600,I,m,827,23,1,2441.800000190735,649713.0999994278,9048,NTS,A,2
2,2,test,1,C,circle.png,0,z,Thu Jan 22 2026 15:13:30 GMT-0500 (Eastern Standard Time),655388.3999996185,1700,I,None,1516,18,1,3225.0,652163.3999996185,9048,NTS,A,3
6,3,test,1,C,circle.png,1,m,Thu Jan 22 2026 15:13:30 GMT-0500 (Eastern Standard Time),657888.2999992371,1900,I,m,572,21,1,2491.199999809265,655397.0999994278,9048,NTS,A,4
9,3,test,1,C,circle.png,0,m,Thu Jan 22 2026 15:13:30 GMT-0500 (Eastern Standard Time),660838.2999992371,1500,I,z,1432,8,1,2939.3999996185303,657898.8999996185,9048,NTS,A,5
9,3,test,1,C,triangle.png,0,z,Thu Jan 22 2026 15:13:30 GMT-0500 (Eastern Standard Time),663771.5999994278,1400,I,None,1515,16,1,2925.0,660846.5999994278,9048,NTS,A,6
3,3,test,1,C,triangle.png,0,z,Thu Jan 22 2026 15:13:30 GMT-0500 (Eastern Standard Time),666505.0,1200,I,None,1516,3,1,2725.300000190735,663779.6999998093,9048,NTS,A,7
9,4,test,1,C,circle.png,1,m,Thu Jan 22 2026 15:13:30 GMT-0500 (Eastern Standard Time),669438.1999998093,1500,I,m,1408,24,1,2924.300000190735,666513.8999996185,9048,NTS,A,8
8,4,test,1,C,circle.png,0,m,Thu Jan 22 2026 15:13:30 GMT-0500 (Eastern Standard Time),671971.6999998093,1200,I,z,1301,15,1,2525.1000003814697,669446.5999994278,9048,NTS,A,9
1,5,test,1,C,triangle.png,1,z,Thu Jan 22 2026 15:13:30 GMT-0500 (Eastern Standard Time),674805.0,1900,I,z,900,9,1,2825.6000003814697,671979.3999996185,9048,NTS,A,10
2,5,test,1,C,circle.png,0,z,Thu Jan 22 2026 15:13:30 GMT-0500 (Eastern Standard Time),677254.7999992371,1700,I,m,732,10,1,2442.199999809265,674812.5999994278,9048,NTS,A,11
6,6,test,1,C,circle.png,1,m,Thu Jan 22 2026 15:13:30 GMT-0500 (Eastern Standard Time),679838.2999992371,1900,I,m,658,5,1,2575.0999994277954,677263.1999998093,9048,NTS,A,12
1,6,test,1,C,triangle.png,0,z,Thu Jan 22 2026 15:13:30 GMT-0500 (Eastern Standard Time),683271.6999998093,1900,I,None,1516,17,1,3425.199999809265,679846.5,9048,NTS,A,13
4,7,test,1,C,triangle.png,1,m,Thu Jan 22 2026 15:13:30 GMT-0500 (Eastern Standard Time),685571.5999994278,1500,I,m,768,12,1,2291.3999996185303,683280.1999998093,9048,NTS,A,14
1,7,test,1,C,circle.png,0,z,Thu Jan 22 2026 15:13:30 GMT-0500 (Eastern Standard Time),687771.6999998093,1000,I,m,1176,1,1,2191.0,685580.6999998093,9048,NTS,A,15
2,7,test,1,C,triangle.png,0,m,Thu Jan 22 2026 15:13:30 GMT-0500 (Eastern Standard Time),690404.8999996185,2000,I,z,601,2,1,2625.199999809265,687779.6999998093,9048,NTS,A,16
4,8,test,1,C,triangle.png,1,m,Thu Jan 22 2026 15:13:30 GMT-0500 (Eastern Standard Time),692520.8999996185,1500,I,m,595,20,1,2108.1000003814697,690412.7999992371,9048,NTS,A,17
3,8,test,1,C,circle.png,0,z,Thu Jan 22 2026 15:13:30 GMT-0500 (Eastern Standard Time),694921.5999994278,1600,I,m,778,19,1,2395.0,692526.5999994278,9048,NTS,A,18
8,8,test,1,C,triangle.png,0,m,Thu Jan 22 2026 15:13:30 GMT-0500 (Eastern Standard Time),698055.0999994278,1600,I,None,1516,7,1,3124.300000190735,694930.7999992371,9048,NTS,A,19
7,9,test,1,C,circle.png,1,m,Thu Jan 22 2026 15:13:30 GMT-0500 (Eastern Standard Time),700638.2999992371,2000,I,m,558,14,1,2574.3999996185303,698063.8999996185,9048,NTS,A,20
3,9,test,1,C,circle.png,0,z,Thu Jan 22 2026 15:13:30 GMT-0500 (Eastern Standard Time),703021.5999994278,1600,I,m,757,11,1,2375.5999994277954,700646.0,9048,NTS,A,21
7,9,test,1,C,triangle.png,0,z,Thu Jan 22 2026 15:13:30 GMT-0500 (Eastern Standard Time),705855.0,1700,I,m,1106,22,1,2825.800000190735,703029.1999998093,9048,NTS,A,22
4,10,test,1,C,circle.png,1,z,Thu Jan 22 2026 15:13:30 GMT-0500 (Eastern Standard Time),708405.0,1400,I,z,1117,4,1,2539.800000190735,705865.1999998093,9048,NTS,A,23
7,10,test,1,C,triangle.png,0,z,Thu Jan 22 2026 15:13:30 GMT-0500 (Eastern Standard Time),710771.5999994278,1700,I,m,636,6,1,2352.300000190735,708419.2999992371,9048,NTS,A,24
7,0,test,2,C,circle.png,0,m,Thu Jan 22 2026 15:13:30 GMT-0500 (Eastern Standard Time),719371.8999996185,2000,I,None,1517,14,1,3525.800000190735,715846.0999994278,9048,NTS,A,1
4,1,test,2,C,triangle.png,1,m,Thu Jan 22 2026 15:13:30 GMT-0500 (Eastern Standard Time),722204.8999996185,1500,I,m,1309,12,1,2825.1000003814697,719379.7999992371,9048,NTS,A,2
1,2,test,2,C,triangle.png,1,z,Thu Jan 22 2026 15:13:30 GMT-0500 (Eastern Standard Time),725021.5,1900,I,z,891,9,1,2807.7000007629395,722213.7999992371,9048,NTS,A,3
6,3,test,2,C,circle.png,1,m,Thu Jan 22 2026 15:13:30 GMT-0500 (Eastern Standard Time),727788.2999992371,1900,I,m,842,5,1,2758.5999994277954,725029.6999998093,9048,NTS,A,4
1,4,test,2,C,triangle.png,1,z,Thu Jan 22 2026 15:13:30 GMT-0500 (Eastern Standard Time),730604.7999992371,1900,I,z,892,17,1,2807.7999992370605,727797.0,9048,NTS,A,5
9,5,test,2,C,circle.png,1,m,Thu Jan 22 2026 15:13:30 GMT-0500 (Eastern Standard Time),732821.5,1500,I,m,684,8,1,2205.9000005722046,730615.5999994278,9048,NTS,A,6
7,5,test,2,C,triangle.png,0,z,Thu Jan 22 2026 15:13:30 GMT-0500 (Eastern Standard Time),736055.0,1700,I,None,1516,6,1,3224.0,732831.0,9048,NTS,A,7
7,6,test,2,C,circle.png,1,m,Thu Jan 22 2026 15:13:30 GMT-0500 (Eastern Standard Time),739004.8999996185,2000,I,m,926,22,1,2941.300000190735,736063.5999994278,9048,NTS,A,8
2,7,test,2,C,triangle.png,1,m,Thu Jan 22 2026 15:13:30 GMT-0500 (Eastern Standard Time),741755.0,2000,I,m,727,2,1,2741.7000007629395,739013.2999992371,9048,NTS,A,9
4,7,test,2,C,triangle.png,0,m,Thu Jan 22 2026 15:13:30 GMT-0500 (Eastern Standard Time),743904.8999996185,1500,I,z,605,20,1,2134.0,741770.8999996185,9048,NTS,A,10
4,7,test,2,C,circle.png,0,z,Thu Jan 22 2026 15:13:30 GMT-0500 (Eastern Standard Time),746004.8999996185,1400,I,m,667,4,1,2091.3999996185303,743913.5,9048,NTS,A,11
8,8,test,2,C,circle.png,1,m,Thu Jan 22 2026 15:13:30 GMT-0500 (Eastern Standard Time),748238.2999992371,1200,I,m,1007,15,1,2225.2999992370605,746013.0,9048,NTS,A,12
6,9,test,2,C,triangle.png,1,m,Thu Jan 22 2026 15:13:30 GMT-0500 (Eastern Standard Time),749971.5999994278,1000,I,m,702,21,1,1721.5999994277954,748250.0,9048,NTS,A,13
1,10,test,2,C,circle.png,1,z,Thu Jan 22 2026 15:13:30 GMT-0500 (Eastern Standard Time),752070.7999992371,1000,I,z,1079,1,1,2090.0,749980.7999992371,9048,NTS,A,14
8,11,test,2,C,triangle.png,1,m,Thu Jan 22 2026 15:13:30 GMT-0500 (Eastern Standard Time),754238.1999998093,1600,I,m,542,7,1,2162.0,752076.1999998093,9048,NTS,A,15
3,11,test,2,C,triangle.png,0,z,Thu Jan 22 2026 15:13:30 GMT-0500 (Eastern Standard Time),756971.6999998093,1200,I,None,1517,3,1,2724.800000190735,754246.8999996185,9048,NTS,A,16
9,12,test,2,C,triangle.png,1,z,Thu Jan 22 2026 15:13:30 GMT-0500 (Eastern Standard Time),759388.1999998093,1400,I,z,992,16,1,2406.199999809265,756982.0,9048,NTS,A,17
3,12,test,2,C,circle.png,0,z,Thu Jan 22 2026 15:13:30 GMT-0500 (Eastern Standard Time),761855.0,1600,I,m,840,19,1,2458.6000003814697,759396.3999996185,9048,NTS,A,18
3,12,test,2,C,circle.png,0,z,Thu Jan 22 2026 15:13:30 GMT-0500 (Eastern Standard Time),764254.8999996185,1600,I,m,774,11,1,2390.8999996185303,761864.0,9048,NTS,A,19
8,13,test,2,C,circle.png,1,m,Thu Jan 22 2026 15:13:30 GMT-0500 (Eastern Standard Time),766588.1999998093,1200,I,m,1109,23,1,2322.4000005722046,764265.7999992371,9048,NTS,A,20
9,14,test,2,C,triangle.png,1,z,Thu Jan 22 2026 15:13:30 GMT-0500 (Eastern Standard Time),769455.0,1400,I,z,1439,24,1,2858.4000005722046,766596.5999994278,9048,NTS,A,21
2,14,test,2,C,circle.png,0,z,Thu Jan 22 2026 15:13:30 GMT-0500 (Eastern Standard Time),772171.2999992371,1700,I,m,993,10,1,2707.7999992370605,769463.5,9048,NTS,A,22
6,14,test,2,C,triangle.png,0,m,Thu Jan 22 2026 15:13:30 GMT-0500 (Eastern Standard Time),774087.8999996185,1000,I,z,896,13,1,1908.3000001907349,772179.5999994278,9048,NTS,A,23
2,14,test,2,C,circle.png,0,z,Thu Jan 22 2026 15:13:30 GMT-0500 (Eastern Standard Time),776521.3999996185,1700,I,m,713,18,1,2424.0,774097.3999996185,9048,NTS,A,24
4,1,test,3,C,triangle.png,1,m,Thu Jan 22 2026 15:13:30 GMT-0500 (Eastern Standard Time),785538.2999992371,1500,I,m,954,12,1,2476.0,783062.2999992371,9048,NTS,A,1
3,1,test,3,C,triangle.png,0,z,Thu Jan 22 2026 15:13:30 GMT-0500 (Eastern Standard Time),787838.1999998093,1200,I,m,1075,19,1,2291.699999809265,785546.5,9048,NTS,A,2
9,2,test,3,C,circle.png,1,m,Thu Jan 22 2026 15:13:30 GMT-0500 (Eastern Standard Time),790454.5,1500,I,m,1098,24,1,2608.0,787846.5,9048,NTS,A,3
2,3,test,3,C,circle.png,1,z,Thu Jan 22 2026 15:13:30 GMT-0500 (Eastern Standard Time),792871.1999998093,1700,I,z,698,10,1,2408.5,790462.6999998093,9048,NTS,A,4
1,4,test,3,C,circle.png,1,z,Thu Jan 22 2026 15:13:30 GMT-0500 (Eastern Standard Time),794788.1999998093,1000,I,z,884,17,1,1908.3000001907349,792879.8999996185,9048,NTS,A,5
3,5,test,3,C,circle.png,1,z,Thu Jan 22 2026 15:13:30 GMT-0500 (Eastern Standard Time),797388.1999998093,1600,I,z,977,11,1,2590.6000003814697,794797.5999994278,9048,NTS,A,6
3,5,test,3,C,triangle.png,0,z,Thu Jan 22 2026 15:13:30 GMT-0500 (Eastern Standard Time),799904.7999992371,1200,I,m,1289,3,1,2507.0999994277954,797397.6999998093,9048,NTS,A,7
7,5,test,3,C,triangle.png,0,z,Thu Jan 22 2026 15:13:30 GMT-0500 (Eastern Standard Time),802454.5,1700,I,m,831,6,1,2539.0,799915.5,9048,NTS,A,8
8,6,test,3,C,triangle.png,1,m,Thu Jan 22 2026 15:13:30 GMT-0500 (Eastern Standard Time),805021.5,1600,I,m,941,23,1,2558.300000190735,802463.1999998093,9048,NTS,A,9
9,6,test,3,C,circle.png,0,m,Thu Jan 22 2026 15:13:30 GMT-0500 (Eastern Standard Time),808054.8999996185,1500,I,None,1516,8,1,3024.5,805030.3999996185,9048,NTS,A,10
8,7,test,3,C,circle.png,1,m,Thu Jan 22 2026 15:13:30 GMT-0500 (Eastern Standard Time),810121.3999996185,1200,I,m,847,15,1,2058.300000190735,808063.0999994278,9048,NTS,A,11
4,7,test,3,C,circle.png,0,z,Thu Jan 22 2026 15:13:30 GMT-0500 (Eastern Standard Time),812437.3999996185,1400,I,m,898,4,1,2304.6000003814697,810132.7999992371,9048,NTS,A,12
2,7,test,3,C,triangle.png,0,m,Thu Jan 22 2026 15:13:30 GMT-0500 (Eastern Standard Time),815971.5,2000,I,None,1516,2,1,3528.6000003814697,812442.8999996185,9048,NTS,A,13
7,8,test,3,C,circle.png,1,m,Thu Jan 22 2026 15:13:30 GMT-0500 (Eastern Standard Time),818821.0999994278,2000,I,m,832,14,1,2841.5,815979.5999994278,9048,NTS,A,14
8,9,test,3,C,triangle.png,1,m,Thu Jan 22 2026 15:13:30 GMT-0500 (Eastern Standard Time),821338.0,1600,I,m,895,7,1,2510.5,818827.5,9048,NTS,A,15
6,10,test,3,C,circle.png,1,m,Thu Jan 22 2026 15:13:30 GMT-0500 (Eastern Standard Time),824038.1999998093,1900,I,m,767,5,1,2691.300000190735,821346.8999996185,9048,NTS,A,16
7,10,test,3,C,triangle.png,0,z,Thu Jan 22 2026 15:13:30 GMT-0500 (Eastern Standard Time),826688.0,1700,I,m,922,22,1,2641.0,824047.0,9048,NTS,A,17
1,11,test,3,C,triangle.png,1,z,Thu Jan 22 2026 15:13:30 GMT-0500 (Eastern Standard Time),829454.7999992371,1900,I,z,840,9,1,2759.5999994277954,826695.1999998093,9048,NTS,A,18
2,12,test,3,C,triangle.png,1,m,Thu Jan 22 2026 15:13:30 GMT-0500 (Eastern Standard Time),832204.6999998093,2000,I,m,725,18,1,2741.4000005722046,829463.2999992371,9048,NTS,A,19
6,13,test,3,C,circle.png,1,m,Thu Jan 22 2026 15:13:30 GMT-0500 (Eastern Standard Time),834871.1999998093,1900,I,m,747,21,1,2657.5,832213.6999998093,9048,NTS,A,20
9,13,test,3,C,triangle.png,0,z,Thu Jan 22 2026 15:13:30 GMT-0500 (Eastern Standard Time),837221.3999996185,1400,I,m,916,16,1,2341.699999809265,834879.6999998093,9048,NTS,A,21
6,14,test,3,C,triangle.png,1,m,Thu Jan 22 2026 15:13:30 GMT-0500 (Eastern Standard Time),839554.7999992371,1000,I,m,1302,13,1,2325.3999996185303,837229.3999996185,9048,NTS,A,22
4,14,test,3,C,circle.png,0,z,Thu Jan 22 2026 15:13:30 GMT-0500 (Eastern Standard Time),841788.0999994278,1400,I,m,809,20,1,2225.199999809265,839562.8999996185,9048,NTS,A,23
1,14,test,3,C,circle.png,0,z,Thu Jan 22 2026 15:13:30 GMT-0500 (Eastern Standard Time),843704.6999998093,1000,I,m,897,1,1,1908.1999998092651,841796.5,9048,NTS,A,24
2,1,test,4,C,triangle.png,1,m,Thu Jan 22 2026 15:13:30 GMT-0500 (Eastern Standard Time),849404.8999996185,2000,I,m,1208,18,1,3225.0,846179.8999996185,9048,NTS,A,1
1,2,test,4,C,circle.png,1,z,Thu Jan 22 2026 15:13:30 GMT-0500 (Eastern Standard Time),851271.0999994278,1000,I,z,847,17,1,1857.8999996185303,849413.1999998093,9048,NTS,A,2
9,2,test,4,C,circle.png,0,m,Thu Jan 22 2026 15:13:30 GMT-0500 (Eastern Standard Time),854288.0999994278,1500,I,z,1490,24,1,3008.0999994277954,851280.0,9048,NTS,A,3
7,2,test,4,C,triangle.png,0,z,Thu Jan 22 2026 15:13:30 GMT-0500 (Eastern Standard Time),856971.3999996185,1700,I,m,960,6,1,2671.3999996185303,854300.0,9048,NTS,A,4
2,3,test,4,C,triangle.png,1,m,Thu Jan 22 2026 15:13:30 GMT-0500 (Eastern Standard Time),859687.6999998093,2000,I,m,696,2,1,2708.300000190735,856979.3999996185,9048,NTS,A,5
8,3,test,4,C,triangle.png,0,m,Thu Jan 22 2026 15:13:30 GMT-0500 (Eastern Standard Time),862821.5,1600,I,None,1516,23,1,3125.2000007629395,859696.2999992371,9048,NTS,A,6
4,3,test,4,C,triangle.png,0,m,Thu Jan 22 2026 15:13:30 GMT-0500 (Eastern Standard Time),865854.6999998093,1500,I,None,1516,12,1,3024.300000190735,862830.3999996185,9048,NTS,A,7
3,4,test,4,C,circle.png,1,z,Thu Jan 22 2026 15:13:30 GMT-0500 (Eastern Standard Time),868771.3999996185,1600,I,z,1285,11,1,2908.6000003814697,865862.7999992371,9048,NTS,A,8
1,5,test,4,C,triangle.png,1,z,Thu Jan 22 2026 15:13:30 GMT-0500 (Eastern Standard Time),871637.8999996185,1900,I,z,948,9,1,2857.300000190735,868780.5999994278,9048,NTS,A,9
8,6,test,4,C,triangle.png,1,m,Thu Jan 22 2026 15:13:30 GMT-0500 (Eastern Standard Time),873906.0999994278,1600,I,m,638,7,1,2259.699999809265,871646.3999996185,9048,NTS,A,10
9,6,test,4,C,circle.png,0,m,Thu Jan 22 2026 15:13:30 GMT-0500 (Eastern Standard Time),876837.8999996185,1500,I,z,1400,8,1,2925.6000003814697,873912.2999992371,9048,NTS,A,11
1,7,test,4,C,circle.png,1,z,Thu Jan 22 2026 15:13:30 GMT-0500 (Eastern Standard Time),878688.0,1000,I,z,822,1,1,1841.0,876847.0,9048,NTS,A,12
6,8,test,4,C,circle.png,1,m,Thu Jan 22 2026 15:13:30 GMT-0500 (Eastern Standard Time),881271.0999994278,1900,I,m,664,21,1,2574.800000190735,878696.2999992371,9048,NTS,A,13
6,9,test,4,C,circle.png,1,m,Thu Jan 22 2026 15:13:30 GMT-0500 (Eastern Standard Time),883871.3999996185,1900,I,m,672,5,1,2592.1000003814697,881279.2999992371,9048,NTS,A,14
9,9,test,4,C,triangle.png,0,z,Thu Jan 22 2026 15:13:30 GMT-0500 (Eastern Standard Time),886104.3999996185,1400,I,m,812,16,1,2224.6000003814697,883879.7999992371,9048,NTS,A,15
2,10,test,4,C,circle.png,1,z,Thu Jan 22 2026 15:13:30 GMT-0500 (Eastern Standard Time),888504.5999994278,1700,I,z,680,10,1,2386.199999809265,886118.3999996185,9048,NTS,A,16
6,11,test,4,C,triangle.png,1,m,Thu Jan 22 2026 15:13:30 GMT-0500 (Eastern Standard Time),890138.0,1000,I,m,611,13,1,1623.7000007629395,888514.2999992371,9048,NTS,A,17
3,12,test,4,C,triangle.png,1,z,Thu Jan 22 2026 15:13:30 GMT-0500 (Eastern Standard Time),892254.6999998093,1200,I,z,890,3,1,2107.800000190735,890146.8999996185,9048,NTS,A,18
7,12,test,4,C,triangle.png,0,z,Thu Jan 22 2026 15:13:30 GMT-0500 (Eastern Standard Time),894671.5,1700,I,m,689,22,1,2408.6000003814697,892262.8999996185,9048,NTS,A,19
7,13,test,4,C,circle.png,1,m,Thu Jan 22 2026 15:13:30 GMT-0500 (Eastern Standard Time),897504.6999998093,2000,I,m,804,14,1,2824.4000005722046,894680.2999992371,9048,NTS,A,20
8,14,test,4,C,circle.png,1,m,Thu Jan 22 2026 15:13:30 GMT-0500 (Eastern Standard Time),899538.0999994278,1200,I,m,803,15,1,2024.8000001907349,897513.2999992371,9048,NTS,A,21
3,15,test,4,C,triangle.png,1,z,Thu Jan 22 2026 15:13:30 GMT-0500 (Eastern Standard Time),901638.0,1200,I,z,867,19,1,2091.800000190735,899546.1999998093,9048,NTS,A,22
4,15,test,4,C,circle.png,0,z,Thu Jan 22 2026 15:13:30 GMT-0500 (Eastern Standard Time),903721.2999992371,1400,I,m,662,20,1,2071.699999809265,901649.5999994278,9048,NTS,A,23
4,15,test,4,C,circle.png,0,z,Thu Jan 22 2026 15:13:30 GMT-0500 (Eastern Standard Time),905754.6999998093,1400,I,m,610,4,1,2024.3000001907349,903730.3999996185,9048,NTS,A,24
