acc_sum,block,block_c,condition,correct,correct_response,datetime,endtime,flanker,jitter,project,response,response_test_buffer_response,response_test_target_response,response_time,response_time_test_buffer_response,response_time_test_target_response,row_sel,session_number,start_end,starttime,subject_id,target,task,task_vers,time_test_buffer,time_test_buffer_response,time_test_constants,time_test_flanker,time_test_jitter,time_test_logger,time_test_target,time_test_target_response,time_test_variables,trial
1,prac,1,con,1,m,Thu May 22 2025 12:03:09 GMT-0500 (Central Daylight Time),145549.90000009537,gold,800,I,m,,,115,,,13,2,2211.7000000476837,143338.20000004768,8026,gold,NF,C,,,,,,,,,,1
1,prac,1,con,0,z,Thu May 22 2025 12:03:09 GMT-0500 (Central Daylight Time),147732.5,banana,800,I,m,,,75,,,1,2,2177.2999999523163,145555.20000004768,8026,banana,NF,C,,,,,,,,,,2
1,prac,1,inc,0,m,Thu May 22 2025 12:03:09 GMT-0500 (Central Daylight Time),152697.5,pear,900,I,None,,,1799,,,14,2,4960.099999904633,147737.40000009537,8026,iron,NF,C,,,,,,,,,,3
2,prac,1,con,1,m,Thu May 22 2025 12:03:09 GMT-0500 (Central Daylight Time),155380.40000009537,silver,1000,I,m,,,367,,,11,2,2678.2999999523163,152702.10000014305,8026,silver,NF,C,,,,,,,,,,4
3,prac,1,con,1,m,Thu May 22 2025 12:03:09 GMT-0500 (Central Daylight Time),157912.79999995232,bronze,800,I,m,,,421,,,9,2,2527.5999999046326,155385.20000004768,8026,bronze,NF,C,,,,,,,,,,5
4,prac,1,inc,1,m,Thu May 22 2025 12:03:09 GMT-0500 (Central Daylight Time),160628.29999995232,cherry,900,I,m,,,499,,,10,2,2710.0,157918.29999995232,8026,copper,NF,C,,,,,,,,,,6
5,prac,1,inc,1,m,Thu May 22 2025 12:03:09 GMT-0500 (Central Daylight Time),163477.5,plum,1100,I,m,,,448,,,16,2,2844.399999856949,160633.10000014305,8026,lead,NF,C,,,,,,,,,,7
6,prac,1,inc,1,z,Thu May 22 2025 12:03:09 GMT-0500 (Central Daylight Time),166210.0,iron,900,I,z,,,526,,,6,2,2728.0,163482.0,8026,pear,NF,C,,,,,,,,,,8
7,prac,1,inc,1,m,Thu May 22 2025 12:03:09 GMT-0500 (Central Daylight Time),169059.20000004768,raisin,1100,I,m,,,435,,,12,2,2844.7000000476837,166214.5,8026,cobalt,NF,C,,,,,,,,,,9
8,prac,1,inc,1,z,Thu May 22 2025 12:03:09 GMT-0500 (Central Daylight Time),171808.20000004768,copper,900,I,z,,,538,,,2,2,2744.2999999523163,169063.90000009537,8026,cherry,NF,C,,,,,,,,,,10
9,prac,1,con,1,m,Thu May 22 2025 12:03:09 GMT-0500 (Central Daylight Time),174574.10000014305,zinc,1000,I,m,,,457,,,15,2,2760.9000000953674,171813.20000004768,8026,zinc,NF,C,,,,,,,,,,11
10,prac,1,con,1,z,Thu May 22 2025 12:03:09 GMT-0500 (Central Daylight Time),177156.60000014305,lime,800,I,z,,,475,,,5,2,2578.100000143051,174578.5,8026,lime,NF,C,,,,,,,,,,12
11,prac,1,con,1,z,Thu May 22 2025 12:03:09 GMT-0500 (Central Daylight Time),179822.29999995232,orange,1000,I,z,,,363,,,3,2,2661.399999856949,177160.90000009537,8026,orange,NF,C,,,,,,,,,,13
12,prac,1,inc,1,z,Thu May 22 2025 12:03:09 GMT-0500 (Central Daylight Time),182688.10000014305,lead,1100,I,z,,,465,,,8,2,2861.2000000476837,179826.90000009537,8026,plum,NF,C,,,,,,,,,,14
13,prac,1,con,1,z,Thu May 22 2025 12:03:09 GMT-0500 (Central Daylight Time),185353.79999995232,kiwi,1000,I,z,,,353,,,7,2,2658.399999856949,182695.40000009537,8026,kiwi,NF,C,,,,,,,,,,15
14,prac,1,inc,1,z,Thu May 22 2025 12:03:09 GMT-0500 (Central Daylight Time),188169.79999995232,cobalt,1100,I,z,,,403,,,4,2,2811.399999856949,185358.40000009537,8026,raisin,NF,C,,,,,,,,,,16
1,test,1,inc,1,z,Thu May 22 2025 12:03:09 GMT-0500 (Central Daylight Time),210779.20000004768,bronze,800,I,z,z,None,435,236.0,199.0,21,2,1779.4000000953674,208999.79999995232,8026,orange,NF,C,205409,205409,203879,204692,203879,205658,205209,205209,205658,1
2,test,1,inc,1,m,Thu May 22 2025 12:03:09 GMT-0500 (Central Daylight Time),212911.90000009537,plum,1100,I,m,m,None,498,299.0,199.0,128,2,2127.7999999523163,210784.10000014305,8026,lead,NF,C,207491,207491,205663,206775,205663,207791,207292,207292,207791,2
3,test,1,inc,1,m,Thu May 22 2025 12:03:09 GMT-0500 (Central Daylight Time),214994.40000009537,orange,1000,I,m,m,None,545,345.0,200.0,95,2,2078.2999999523163,212916.10000014305,8026,cobalt,NF,C,209524,209524,207795,208807,207796,209873,209324,209324,209873,3
4,test,1,con,1,z,Thu May 22 2025 12:03:09 GMT-0500 (Central Daylight Time),216828.29999995232,cherry,900,I,z,z,None,393,194.0,199.0,10,2,1829.5999999046326,214998.70000004768,8026,cherry,NF,C,211507,211507,209878,210791,209878,211707,211307,211307,211707,4
5,test,1,con,1,z,Thu May 22 2025 12:03:09 GMT-0500 (Central Daylight Time),218709.90000009537,banana,1000,I,z,z,None,333,134.0,199.0,3,2,1877.2999999523163,216832.60000014305,8026,banana,NF,C,213439,213439,211712,212723,211712,213589,213240,213240,213589,5
6,test,1,inc,1,m,Thu May 22 2025 12:03:09 GMT-0500 (Central Daylight Time),220726.10000014305,orange,1000,I,m,m,None,476,276.0,200.0,71,2,2011.8000001907349,218714.29999995232,8026,bronze,NF,C,215322,215322,213593,214606,213594,215605,215122,215122,215605,6
7,test,1,inc,1,z,Thu May 22 2025 12:03:09 GMT-0500 (Central Daylight Time),222808.79999995232,lead,1100,I,z,z,None,447,247.0,200.0,48,2,2078.5,220730.29999995232,8026,pear,NF,C,217438,217438,215609,216722,215610,217688,217238,217238,217688,7
8,test,1,inc,1,m,Thu May 22 2025 12:03:09 GMT-0500 (Central Daylight Time),224708.20000004768,pear,900,I,m,m,None,452,252.0,200.0,102,2,1895.2999999523163,222812.90000009537,8026,gold,NF,C,219321,219321,217692,218604,217692,219587,219121,219121,219587,8
9,test,1,con,1,m,Thu May 22 2025 12:03:09 GMT-0500 (Central Daylight Time),226707.79999995232,silver,1100,I,m,m,None,353,153.0,200.0,84,2,1995.5,224712.29999995232,8026,silver,NF,C,221420,221420,219591,220704,219592,221587,221220,221220,221587,9
10,test,1,inc,1,m,Thu May 22 2025 12:03:09 GMT-0500 (Central Daylight Time),228573.40000009537,pear,900,I,m,m,None,424,225.0,199.0,118,2,1861.2999999523163,226712.10000014305,8026,zinc,NF,C,223220,223220,221591,222503,221591,223453,223020,223020,223452,10
11,test,1,con,1,m,Thu May 22 2025 12:03:09 GMT-0500 (Central Daylight Time),230472.90000009537,cobalt,1000,I,m,m,None,354,155.0,199.0,91,2,1894.7000000476837,228578.20000004768,8026,cobalt,NF,C,225186,225186,223457,224469,223458,225352,224986,224986,225352,11
12,test,1,inc,1,m,Thu May 22 2025 12:03:09 GMT-0500 (Central Daylight Time),232422.40000009537,kiwi,1000,I,m,m,None,407,208.0,199.0,103,2,1945.5,230476.90000009537,8026,gold,NF,C,227085,227085,225356,226369,225356,227301,226886,226886,227301,12
13,test,1,inc,1,m,Thu May 22 2025 12:03:09 GMT-0500 (Central Daylight Time),234205.20000004768,banana,800,I,m,m,None,433,234.0,199.0,69,2,1778.9000000953674,232426.29999995232,8026,bronze,NF,C,228835,228835,227305,228118,227306,229084,228635,228635,229084,13
14,test,1,inc,1,z,Thu May 22 2025 12:03:09 GMT-0500 (Central Daylight Time),236321.29999995232,lead,1100,I,z,z,None,480,280.0,200.0,40,2,2111.5,234209.79999995232,8026,lime,NF,C,230917,230917,229089,230201,229089,231200,230717,230717,231200,14
15,test,1,con,1,m,Thu May 22 2025 12:03:09 GMT-0500 (Central Daylight Time),238103.90000009537,gold,800,I,m,m,None,440,240.0,200.0,97,2,1778.1000001430511,236325.79999995232,8026,gold,NF,C,232733,232733,231205,232017,231205,232983,232533,232533,232983,15
16,test,1,inc,1,z,Thu May 22 2025 12:03:09 GMT-0500 (Central Daylight Time),240070.0,silver,1000,I,z,z,None,425,225.0,200.0,23,2,1961.8999998569489,238108.10000014305,8026,orange,NF,C,234716,234716,232987,234000,232988,234949,234516,234516,234949,16
17,test,1,con,1,z,Thu May 22 2025 12:03:09 GMT-0500 (Central Daylight Time),241869.40000009537,plum,900,I,z,z,None,358,159.0,199.0,58,2,1795.2999999523163,240074.10000014305,8026,plum,NF,C,236582,236582,234953,235866,234954,236749,236383,236383,236748,17
18,test,1,inc,1,m,Thu May 22 2025 12:03:09 GMT-0500 (Central Daylight Time),243652.40000009537,lime,800,I,m,m,None,434,235.0,199.0,109,2,1779.2000000476837,241873.20000004768,8026,iron,NF,C,238282,238282,236752,237565,236753,238531,238082,238082,238531,18
18,test,1,con,0,z,Thu May 22 2025 12:03:09 GMT-0500 (Central Daylight Time),245451.70000004768,plum,800,I,m,m,None,452,253.0,199.0,57,2,1794.2000000476837,243657.5,8026,plum,NF,C,240064,240064,238537,239348,238537,240331,239865,239865,240331,19
19,test,1,inc,1,m,Thu May 22 2025 12:03:09 GMT-0500 (Central Daylight Time),247384.20000004768,pear,900,I,m,m,None,496,297.0,199.0,126,2,1928.2000000476837,245456.0,8026,lead,NF,C,241964,241964,240335,241247,240335,242263,241764,241764,242263,20
20,test,1,con,1,z,Thu May 22 2025 12:03:09 GMT-0500 (Central Daylight Time),249467.10000014305,plum,1100,I,z,z,None,436,237.0,199.0,60,2,2078.4000000953674,247388.70000004768,8026,plum,NF,C,244096,244096,242268,243380,242268,244346,243897,243897,244346,21
21,test,1,con,1,m,Thu May 22 2025 12:03:09 GMT-0500 (Central Daylight Time),251666.29999995232,lead,1100,I,m,m,None,562,362.0,200.0,124,2,2193.5,249472.79999995232,8026,lead,NF,C,246179,246179,244352,245463,244352,246545,245979,245979,246545,22
22,test,1,con,1,z,Thu May 22 2025 12:03:09 GMT-0500 (Central Daylight Time),253715.70000004768,lime,1000,I,z,z,None,503,304.0,199.0,35,2,2045.0999999046326,251670.60000014305,8026,lime,NF,C,248278,248278,246550,247562,246550,248595,248079,248079,248595,23
23,test,1,inc,1,z,Thu May 22 2025 12:03:09 GMT-0500 (Central Daylight Time),255681.90000009537,copper,900,I,z,z,None,521,321.0,200.0,30,2,1961.2000000476837,253720.70000004768,8026,raisin,NF,C,250228,250228,248600,249511,248600,250561,250028,250028,250561,24
24,test,1,con,1,z,Thu May 22 2025 12:03:09 GMT-0500 (Central Daylight Time),257398.0,kiwi,800,I,z,z,None,367,167.0,200.0,49,2,1712.3999998569489,255685.60000014305,8026,kiwi,NF,C,252094,252094,250565,251378,250565,252277,251894,251894,252277,25
25,test,1,con,1,z,Thu May 22 2025 12:03:09 GMT-0500 (Central Daylight Time),259480.5,kiwi,1100,I,z,z,None,439,239.0,200.0,52,2,2077.899999856949,257402.60000014305,8026,kiwi,NF,C,254110,254110,252282,253394,252282,254360,253910,253910,254360,26
25,test,1,con,0,m,Thu May 22 2025 12:03:09 GMT-0500 (Central Daylight Time),261629.79999995232,gold,1100,I,z,z,None,499,300.0,199.0,100,2,2145.0,259484.79999995232,8026,gold,NF,C,256193,256193,254364,255476,254364,256509,255993,255993,256509,27
26,test,1,con,1,z,Thu May 22 2025 12:03:09 GMT-0500 (Central Daylight Time),263462.7999999523,raisin,800,I,z,z,None,483,283.0,200.0,25,2,1828.7999999523163,261634.0,8026,raisin,NF,C,258042,258042,256513,257325,256513,258342,257842,257842,258342,28
27,test,1,con,1,z,Thu May 22 2025 12:03:09 GMT-0500 (Central Daylight Time),265462.2000000477,pear,1000,I,z,z,None,459,259.0,200.0,43,2,1995.5,263466.7000000477,8026,pear,NF,C,260075,260075,258346,259358,258346,260341,259875,259875,260341,29
28,test,1,con,1,m,Thu May 22 2025 12:03:09 GMT-0500 (Central Daylight Time),267411.2000000477,copper,1000,I,m,m,None,411,211.0,200.0,75,2,1944.5999999046326,265466.60000014305,8026,copper,NF,C,262074,262074,260346,261358,260346,262290,261874,261874,262290,30
29,test,1,inc,1,m,Thu May 22 2025 12:03:09 GMT-0500 (Central Daylight Time),269460.60000014305,orange,1000,I,m,m,None,502,302.0,200.0,87,2,2045.2000000476837,267415.40000009537,8026,silver,NF,C,264023,264023,262294,263307,262295,264340,263823,263823,264340,31
30,test,1,inc,1,m,Thu May 22 2025 12:03:09 GMT-0500 (Central Daylight Time),271443.60000014305,cherry,900,I,m,m,None,535,336.0,199.0,70,2,1978.8000001907349,269464.7999999523,8026,bronze,NF,C,265973,265973,264344,265256,264344,266323,265773,265773,266323,32
31,test,1,inc,1,z,Thu May 22 2025 12:03:09 GMT-0500 (Central Daylight Time),273542.90000009537,copper,900,I,z,z,None,649,450.0,199.0,6,2,2095.100000143051,271447.7999999523,8026,banana,NF,C,267955,267955,266327,267239,266327,268422,267756,267756,268422,33
32,test,1,con,1,z,Thu May 22 2025 12:03:09 GMT-0500 (Central Daylight Time),275625.60000014305,banana,1100,I,z,z,None,447,247.0,200.0,4,2,2078.800000190735,273546.7999999523,8026,banana,NF,C,270255,270255,268426,269538,268426,270505,270055,270055,270505,34
33,test,1,con,1,z,Thu May 22 2025 12:03:09 GMT-0500 (Central Daylight Time),277824.60000014305,lime,1100,I,z,z,None,563,364.0,199.0,36,2,2195.100000143051,275629.5,8026,lime,NF,C,272337,272337,270509,271621,270509,272704,272138,272138,272704,35
34,test,1,con,1,z,Thu May 22 2025 12:03:09 GMT-0500 (Central Daylight Time),279757.40000009537,kiwi,1000,I,z,z,None,392,192.0,200.0,51,2,1928.1000001430511,277829.2999999523,8026,kiwi,NF,C,274437,274437,272708,273720,272709,274637,274237,274237,274636,36
35,test,1,con,1,m,Thu May 22 2025 12:03:09 GMT-0500 (Central Daylight Time),281873.60000014305,bronze,1100,I,m,m,None,471,272.0,199.0,68,2,2111.9000000953674,279761.7000000477,8026,bronze,NF,C,276469,276469,274641,275753,274641,276753,276270,276270,276753,37
36,test,1,con,1,z,Thu May 22 2025 12:03:09 GMT-0500 (Central Daylight Time),283956.10000014305,raisin,1000,I,z,z,None,542,327.0,215.0,27,2,2078.300000190735,281877.7999999523,8026,raisin,NF,C,278502,278502,276757,277769,276757,278835,278287,278287,278835,38
37,test,1,inc,1,m,Thu May 22 2025 12:03:09 GMT-0500 (Central Daylight Time),285922.10000014305,orange,1000,I,m,m,None,421,221.0,200.0,79,2,1962.2000000476837,283959.90000009537,8026,copper,NF,C,280569,280569,278839,279852,278839,280801,280368,280368,280801,39
38,test,1,con,1,z,Thu May 22 2025 12:03:09 GMT-0500 (Central Daylight Time),287671.7000000477,banana,800,I,z,z,None,406,207.0,199.0,1,2,1745.2000000476837,285926.5,8026,banana,NF,C,282334,282334,280806,281618,280806,282551,282135,282135,282551,40
39,test,1,inc,1,m,Thu May 22 2025 12:03:09 GMT-0500 (Central Daylight Time),289437.90000009537,banana,800,I,m,m,None,424,225.0,199.0,85,2,1762.4000000953674,287675.5,8026,silver,NF,C,284084,284084,282555,283367,282555,284317,283884,283884,284317,41
40,test,1,con,1,m,Thu May 22 2025 12:03:09 GMT-0500 (Central Daylight Time),291337.2999999523,lead,800,I,m,m,None,555,356.0,199.0,121,2,1895.2999999523163,289442.0,8026,lead,NF,C,285850,285850,284321,285134,284321,286216,285650,285650,286216,42
41,test,1,con,1,m,Thu May 22 2025 12:03:09 GMT-0500 (Central Daylight Time),293469.90000009537,iron,1100,I,m,m,None,483,284.0,199.0,108,2,2128.9000000953674,291341.0,8026,iron,NF,C,288049,288049,286220,287333,286220,288349,287849,287850,288349,43
42,test,1,inc,1,m,Thu May 22 2025 12:03:09 GMT-0500 (Central Daylight Time),295352.7000000477,banana,800,I,m,m,None,547,347.0,200.0,77,2,1878.5,293474.2000000477,8026,copper,NF,C,289882,289882,288353,289165,288354,290232,289682,289682,290232,44
43,test,1,inc,1,z,Thu May 22 2025 12:03:09 GMT-0500 (Central Daylight Time),297168.60000014305,bronze,800,I,z,z,None,481,281.0,200.0,5,2,1812.2000000476837,295356.40000009537,8026,banana,NF,C,291765,291765,290235,291048,290236,292048,291565,291565,292048,45
44,test,1,inc,1,m,Thu May 22 2025 12:03:09 GMT-0500 (Central Daylight Time),299218.10000014305,raisin,1100,I,m,m,None,404,204.0,200.0,80,2,2045.3000001907349,297172.7999999523,8026,copper,NF,C,293881,293881,292052,293164,292052,294097,293681,293681,294097,46
45,test,1,inc,1,z,Thu May 22 2025 12:03:09 GMT-0500 (Central Daylight Time),301117.5,copper,900,I,z,z,None,451,251.0,200.0,22,2,1895.0,299222.5,8026,orange,NF,C,295730,295730,294102,295014,294102,295997,295530,295530,295997,47
46,test,1,con,1,m,Thu May 22 2025 12:03:09 GMT-0500 (Central Daylight Time),302916.90000009537,gold,900,I,m,m,None,358,159.0,199.0,98,2,1795.6000001430511,301121.2999999523,8026,gold,NF,C,297629,297630,296000,296913,296001,297796,297430,297430,297796,48
47,test,1,inc,1,z,Thu May 22 2025 12:03:09 GMT-0500 (Central Daylight Time),304866.10000014305,silver,1000,I,z,z,None,412,212.0,200.0,15,2,1945.5,302920.60000014305,8026,cherry,NF,C,299529,299529,297800,298813,297800,299745,299329,299329,299745,49
48,test,1,inc,1,z,Thu May 22 2025 12:03:09 GMT-0500 (Central Daylight Time),306682.2999999523,gold,800,I,z,z,None,471,271.0,200.0,53,2,1812.1999998092651,304870.10000014305,8026,kiwi,NF,C,301278,301278,299749,300562,299750,301561,301078,301078,301561,50
49,test,1,con,1,m,Thu May 22 2025 12:03:09 GMT-0500 (Central Daylight Time),308781.7000000477,cobalt,1100,I,m,m,None,459,260.0,199.0,92,2,2094.2000000476837,306687.5,8026,cobalt,NF,C,303394,303394,301567,302678,301567,303661,303195,303195,303661,51
50,test,1,con,1,z,Thu May 22 2025 12:03:09 GMT-0500 (Central Daylight Time),310731.0,kiwi,900,I,z,z,None,502,303.0,199.0,50,2,1945.2000000476837,308785.7999999523,8026,kiwi,NF,C,305294,305294,303665,304578,303665,305610,305094,305094,305610,52
51,test,1,inc,1,z,Thu May 22 2025 12:03:09 GMT-0500 (Central Daylight Time),312680.40000009537,iron,900,I,z,z,None,505,306.0,199.0,38,2,1945.7000000476837,310734.7000000477,8026,lime,NF,C,307243,307243,305614,306527,305614,307559,307043,307044,307559,53
52,test,1,con,1,m,Thu May 22 2025 12:03:09 GMT-0500 (Central Daylight Time),314529.7000000477,cobalt,800,I,m,m,None,505,305.0,200.0,89,2,1845.4000000953674,312684.2999999523,8026,cobalt,NF,C,309092,309092,307563,308376,307564,309409,308892,308892,309409,54
53,test,1,inc,1,m,Thu May 22 2025 12:03:09 GMT-0500 (Central Daylight Time),316446.0,lime,800,I,m,m,None,567,367.0,200.0,101,2,1912.2000000476837,314533.7999999523,8026,gold,NF,C,310942,310942,309413,310226,309413,311325,310742,310742,311325,55
54,test,1,con,1,z,Thu May 22 2025 12:03:09 GMT-0500 (Central Daylight Time),318162.2000000477,orange,800,I,z,z,None,371,171.0,200.0,17,2,1712.2000000476837,316450.0,8026,orange,NF,C,312858,312858,311329,312142,311329,313041,312658,312658,313041,56
55,test,1,con,1,m,Thu May 22 2025 12:03:09 GMT-0500 (Central Daylight Time),319944.7000000477,silver,900,I,m,m,None,339,139.0,200.0,82,2,1778.5,318166.2000000477,8026,silver,NF,C,314674,314674,313045,313958,313046,314824,314474,314474,314824,57
56,test,1,con,1,z,Thu May 22 2025 12:03:09 GMT-0500 (Central Daylight Time),321927.40000009537,pear,1100,I,z,z,None,348,148.0,200.0,44,2,1978.7000000476837,319948.7000000477,8026,pear,NF,C,316657,316657,314828,315941,314828,316806,316457,316457,316806,58
57,test,1,inc,1,m,Thu May 22 2025 12:03:09 GMT-0500 (Central Daylight Time),323993.60000014305,kiwi,1000,I,m,m,None,413,213.0,200.0,127,2,2062.4000000953674,321931.2000000477,8026,lead,NF,C,318656,318656,316810,317954,316810,318873,318456,318456,318873,59
58,test,1,inc,1,m,Thu May 22 2025 12:03:09 GMT-0500 (Central Daylight Time),325976.2999999523,kiwi,1000,I,m,m,None,447,248.0,199.0,119,2,1978.5,323997.7999999523,8026,zinc,NF,C,320605,320605,318877,319889,318877,320855,320406,320406,320855,60
59,test,1,con,1,m,Thu May 22 2025 12:03:09 GMT-0500 (Central Daylight Time),327942.60000014305,silver,1000,I,m,m,None,433,233.0,200.0,83,2,1962.3000001907349,325980.2999999523,8026,silver,NF,C,322588,322588,320859,321872,320860,322822,322388,322388,322822,61
60,test,1,con,1,m,Thu May 22 2025 12:03:09 GMT-0500 (Central Daylight Time),329891.7000000477,bronze,1000,I,m,m,None,411,211.0,200.0,67,2,1944.7999999523163,327946.90000009537,8026,bronze,NF,C,324554,324554,322826,323838,322826,324771,324354,324354,324771,62
61,test,1,inc,1,z,Thu May 22 2025 12:03:09 GMT-0500 (Central Daylight Time),331841.10000014305,silver,1000,I,z,z,None,404,205.0,199.0,7,2,1945.1000001430511,329896.0,8026,banana,NF,C,326504,326504,324775,325788,324775,326720,326304,326304,326720,63
62,test,1,con,1,z,Thu May 22 2025 12:03:09 GMT-0500 (Central Daylight Time),333923.7999999523,orange,1100,I,z,z,None,436,236.0,200.0,20,2,2079.199999809265,331844.60000014305,8026,orange,NF,C,328553,328553,326724,327837,326724,328803,328353,328353,328803,64
63,test,1,con,1,z,Thu May 22 2025 12:03:09 GMT-0500 (Central Daylight Time),335972.90000009537,cherry,1100,I,z,z,None,409,209.0,200.0,12,2,2045.2999999523163,333927.60000014305,8026,cherry,NF,C,330636,330636,328807,329919,328807,330852,330436,330436,330852,65
64,test,1,con,1,m,Thu May 22 2025 12:03:09 GMT-0500 (Central Daylight Time),337822.7000000477,bronze,800,I,m,m,None,517,317.0,200.0,65,2,1845.5,335977.2000000477,8026,bronze,NF,C,332385,332385,330856,331670,330857,332702,332185,332185,332702,66
65,test,1,con,1,z,Thu May 22 2025 12:03:09 GMT-0500 (Central Daylight Time),339688.7999999523,lime,800,I,z,z,None,521,322.0,199.0,33,2,1862.6999998092651,337826.10000014305,8026,lime,NF,C,334235,334235,332705,333518,332705,334568,334035,334035,334568,67
66,test,1,inc,1,m,Thu May 22 2025 12:03:09 GMT-0500 (Central Daylight Time),341771.2000000477,plum,1100,I,m,m,None,436,237.0,199.0,104,2,2078.5,339692.7000000477,8026,gold,NF,C,336400,336400,334572,335684,334572,336650,336201,336201,336650,68
67,test,1,inc,1,m,Thu May 22 2025 12:03:09 GMT-0500 (Central Daylight Time),343655.10000014305,cherry,900,I,m,m,None,434,235.0,199.0,86,2,1880.0,341775.10000014305,8026,silver,NF,C,338283,338283,336654,337567,336655,338534,338084,338084,338534,69
68,test,1,con,1,m,Thu May 22 2025 12:03:09 GMT-0500 (Central Daylight Time),345836.7999999523,zinc,1100,I,m,m,None,535,335.0,200.0,116,2,2176.2999999523163,343660.5,8026,zinc,NF,C,340366,340366,338540,339651,338540,340716,340166,340166,340716,70
69,test,1,inc,1,m,Thu May 22 2025 12:03:09 GMT-0500 (Central Daylight Time),347986.0,raisin,1100,I,m,m,None,512,313.0,199.0,88,2,2145.399999856949,345840.60000014305,8026,silver,NF,C,342549,342549,340720,341832,340720,342865,342349,342349,342865,71
70,test,1,inc,1,z,Thu May 22 2025 12:03:09 GMT-0500 (Central Daylight Time),349935.5,iron,900,I,z,z,None,516,316.0,200.0,54,2,1945.0,347990.5,8026,kiwi,NF,C,344498,344498,342870,343782,342870,344815,344298,344298,344815,72
71,test,1,inc,1,z,Thu May 22 2025 12:03:09 GMT-0500 (Central Daylight Time),351734.90000009537,gold,800,I,z,z,None,465,266.0,199.0,45,2,1795.4000000953674,349939.5,8026,pear,NF,C,346348,346348,344819,345631,344819,346614,346148,346148,346614,73
72,test,1,inc,1,m,Thu May 22 2025 12:03:09 GMT-0500 (Central Daylight Time),353817.5,raisin,1100,I,m,m,None,446,246.0,200.0,72,2,2078.7000000476837,351738.7999999523,8026,bronze,NF,C,348447,348447,346618,347731,346618,348697,348247,348247,348697,74
73,test,1,con,1,z,Thu May 22 2025 12:03:09 GMT-0500 (Central Daylight Time),355866.90000009537,raisin,1100,I,z,z,None,410,211.0,199.0,28,2,2045.5,353821.40000009537,8026,raisin,NF,C,350530,350530,348700,349813,348701,350746,350330,350330,350746,75
74,test,1,con,1,z,Thu May 22 2025 12:03:09 GMT-0500 (Central Daylight Time),357599.60000014305,cherry,800,I,z,z,None,398,198.0,200.0,9,2,1728.8000001907349,355870.7999999523,8026,cherry,NF,C,352279,352279,350750,351563,350750,352479,352079,352079,352479,76
75,test,1,inc,1,m,Thu May 22 2025 12:03:09 GMT-0500 (Central Daylight Time),359648.90000009537,raisin,1100,I,m,m,None,414,214.0,200.0,96,2,2045.6000001430511,357603.2999999523,8026,cobalt,NF,C,354312,354312,352482,353595,352483,354528,354112,354112,354528,77
76,test,1,inc,1,z,Thu May 22 2025 12:03:09 GMT-0500 (Central Daylight Time),361614.90000009537,silver,1000,I,z,z,None,424,224.0,200.0,31,2,1961.9000000953674,359653.0,8026,raisin,NF,C,356261,356261,354532,355545,354532,356494,356061,356061,356494,78
77,test,1,con,1,z,Thu May 22 2025 12:03:09 GMT-0500 (Central Daylight Time),363414.60000014305,lime,900,I,z,z,None,358,158.0,200.0,34,2,1795.9000000953674,361618.7000000477,8026,lime,NF,C,358127,358127,356498,357411,356498,358294,357927,357927,358294,79
78,test,1,inc,1,z,Thu May 22 2025 12:03:09 GMT-0500 (Central Daylight Time),365363.7000000477,iron,900,I,z,z,None,501,302.0,199.0,62,2,1945.0,363418.7000000477,8026,plum,NF,C,359927,359927,358298,359210,358298,360243,359727,359727,360243,80
79,test,1,con,1,z,Thu May 22 2025 12:03:09 GMT-0500 (Central Daylight Time),367363.2000000477,orange,1000,I,z,z,None,461,261.0,200.0,19,2,1995.2000000476837,365368.0,8026,orange,NF,C,361976,361976,360247,361260,360247,362242,361776,361776,362242,81
80,test,1,inc,1,z,Thu May 22 2025 12:03:09 GMT-0500 (Central Daylight Time),369162.7999999523,bronze,800,I,z,z,None,462,263.0,199.0,29,2,1795.7999999523163,367367.0,8026,raisin,NF,C,363775,363775,362246,363059,362246,364042,363576,363576,364042,82
81,test,1,inc,1,z,Thu May 22 2025 12:03:09 GMT-0500 (Central Daylight Time),371328.60000014305,lead,1100,I,z,z,None,462,263.0,199.0,64,2,2161.800000190735,369166.7999999523,8026,plum,NF,C,365942,365942,364046,365237,364046,366208,365742,365742,366208,83
82,test,1,con,1,m,Thu May 22 2025 12:03:09 GMT-0500 (Central Daylight Time),373294.7999999523,copper,900,I,m,m,None,525,325.0,200.0,74,2,1961.6999998092651,371333.10000014305,8026,copper,NF,C,367841,367841,366212,367124,366212,368174,367641,367641,368174,84
83,test,1,inc,1,z,Thu May 22 2025 12:03:09 GMT-0500 (Central Daylight Time),375444.10000014305,lead,1100,I,z,z,None,510,311.0,199.0,56,2,2145.2000000476837,373298.90000009537,8026,kiwi,NF,C,370007,370007,368178,369290,368178,370323,369807,369807,370323,85
84,test,1,inc,1,m,Thu May 22 2025 12:03:09 GMT-0500 (Central Daylight Time),377176.7000000477,banana,800,I,m,m,None,389,188.0,201.0,93,2,1728.5,375448.2000000477,8026,cobalt,NF,C,371857,371857,370327,371140,370328,372056,371656,371656,372056,86
85,test,1,inc,1,m,Thu May 22 2025 12:03:09 GMT-0500 (Central Daylight Time),379076.10000014305,pear,900,I,m,m,None,452,252.0,200.0,110,2,1895.5,377180.60000014305,8026,iron,NF,C,373689,373689,372060,372973,372060,373955,373489,373489,373955,87
86,test,1,con,1,z,Thu May 22 2025 12:03:09 GMT-0500 (Central Daylight Time),380925.7000000477,pear,800,I,z,z,None,501,301.0,200.0,41,2,1845.9000000953674,379079.7999999523,8026,pear,NF,C,375488,375488,373959,374772,373959,375805,375288,375288,375805,88
87,test,1,con,1,z,Thu May 22 2025 12:03:09 GMT-0500 (Central Daylight Time),382858.40000009537,cherry,1000,I,z,z,None,386,187.0,199.0,11,2,1929.1000001430511,380929.2999999523,8026,cherry,NF,C,377538,377538,375808,376821,375809,377737,377338,377338,377737,89
88,test,1,con,1,m,Thu May 22 2025 12:03:09 GMT-0500 (Central Daylight Time),384924.2999999523,zinc,1000,I,m,m,None,518,319.0,199.0,115,2,2061.699999809265,382862.60000014305,8026,zinc,NF,C,379470,379470,377742,378754,377742,379803,379271,379271,379803,90
89,test,1,con,1,m,Thu May 22 2025 12:03:09 GMT-0500 (Central Daylight Time),386790.5,cobalt,900,I,m,m,None,425,226.0,199.0,90,2,1861.2000000476837,384929.2999999523,8026,cobalt,NF,C,381436,381436,379808,380720,379809,381670,381237,381237,381670,91
90,test,1,inc,1,z,Thu May 22 2025 12:03:09 GMT-0500 (Central Daylight Time),388956.40000009537,zinc,1000,I,z,z,None,626,427.0,199.0,39,2,2161.9000000953674,386794.5,8026,lime,NF,C,383402,383402,381674,382686,381674,383835,383203,383203,383835,92
91,test,1,con,1,m,Thu May 22 2025 12:03:09 GMT-0500 (Central Daylight Time),390939.2999999523,copper,1100,I,m,m,None,344,145.0,199.0,76,2,1978.8999998569489,388960.40000009537,8026,copper,NF,C,385668,385668,383839,384952,383840,385818,385469,385469,385818,93
92,test,1,con,1,m,Thu May 22 2025 12:03:09 GMT-0500 (Central Daylight Time),392907.40000009537,zinc,900,I,m,m,None,521,322.0,199.0,114,2,1964.4000000953674,390943.0,8026,zinc,NF,C,387451,387451,385822,386735,385822,387786,387252,387252,387786,94
92,test,1,inc,0,m,Thu May 22 2025 12:03:09 GMT-0500 (Central Daylight Time),394838.0,cherry,900,I,z,z,None,367,167.0,200.0,78,2,1926.3999998569489,392911.60000014305,8026,copper,NF,C,389534,389534,387791,388830,387791,389717,389334,389334,389717,95
93,test,1,con,1,z,Thu May 22 2025 12:03:09 GMT-0500 (Central Daylight Time),396720.7999999523,plum,1000,I,z,z,None,340,140.0,200.0,59,2,1878.6999998092651,394842.10000014305,8026,plum,NF,C,391450,391450,389721,390734,389722,391600,391250,391250,391600,96
94,test,1,inc,1,z,Thu May 22 2025 12:03:09 GMT-0500 (Central Daylight Time),398720.10000014305,zinc,1000,I,z,z,None,465,265.0,200.0,55,2,1995.6000001430511,396724.5,8026,kiwi,NF,C,393333,393333,391604,392617,391604,393599,393133,393133,393599,97
95,test,1,inc,1,m,Thu May 22 2025 12:03:09 GMT-0500 (Central Daylight Time),400769.2999999523,plum,1100,I,m,m,None,405,205.0,200.0,120,2,2045.5999999046326,398723.7000000477,8026,zinc,NF,C,395432,395432,393603,394716,393603,395648,395232,395232,395648,98
96,test,1,inc,1,m,Thu May 22 2025 12:03:09 GMT-0500 (Central Daylight Time),402885.5,plum,1100,I,m,m,None,475,276.0,199.0,112,2,2112.2999999523163,400773.2000000477,8026,iron,NF,C,397481,397481,395652,396765,395652,397765,397282,397282,397764,99
97,test,1,con,1,m,Thu May 22 2025 12:03:09 GMT-0500 (Central Daylight Time),404801.5,bronze,900,I,m,m,None,478,279.0,199.0,66,2,1912.2000000476837,402889.2999999523,8026,bronze,NF,C,399398,399398,397768,398681,397769,399681,399198,399198,399681,100
98,test,1,con,1,m,Thu May 22 2025 12:03:09 GMT-0500 (Central Daylight Time),406667.40000009537,silver,800,I,m,m,None,518,319.0,199.0,81,2,1861.7999999523163,404805.60000014305,8026,silver,NF,C,401214,401214,399685,400497,399685,401546,401014,401014,401546,101
99,test,1,inc,1,z,Thu May 22 2025 12:03:09 GMT-0500 (Central Daylight Time),408567.0,copper,900,I,z,z,None,466,267.0,199.0,14,2,1895.5,406671.5,8026,cherry,NF,C,403179,403179,401551,402463,401551,403446,402980,402980,403446,102
100,test,1,inc,1,z,Thu May 22 2025 12:03:09 GMT-0500 (Central Daylight Time),410682.7999999523,cobalt,1100,I,z,z,None,470,270.0,200.0,8,2,2112.0999999046326,408570.7000000477,8026,banana,NF,C,405279,405279,403450,404562,403450,405562,405079,405079,405562,103
101,test,1,con,1,z,Thu May 22 2025 12:03:09 GMT-0500 (Central Daylight Time),412532.2999999523,banana,900,I,z,z,None,402,202.0,200.0,2,2,1845.1999998092651,410687.10000014305,8026,banana,NF,C,407195,407195,405566,406479,405566,407411,406995,406995,407411,104
102,test,1,inc,1,z,Thu May 22 2025 12:03:09 GMT-0500 (Central Daylight Time),414298.40000009537,bronze,800,I,z,z,None,427,228.0,199.0,13,2,1762.2999999523163,412536.10000014305,8026,cherry,NF,C,408945,408945,407415,408228,407415,409177,408745,408745,409177,105
103,test,1,con,1,m,Thu May 22 2025 12:03:09 GMT-0500 (Central Daylight Time),416348.0,lead,900,I,m,m,None,609,410.0,199.0,122,2,2045.7000000476837,414302.2999999523,8026,lead,NF,C,410811,410811,409181,410094,409182,411227,410611,410611,411227,106
104,test,1,con,1,m,Thu May 22 2025 12:03:09 GMT-0500 (Central Daylight Time),418397.5,iron,1000,I,m,m,None,483,284.0,199.0,107,2,2045.2999999523163,416352.2000000477,8026,iron,NF,C,412977,412977,411231,412272,411232,413277,412777,412777,413277,107
105,test,1,inc,1,z,Thu May 22 2025 12:03:09 GMT-0500 (Central Daylight Time),420513.2999999523,cobalt,1100,I,z,z,None,471,272.0,199.0,16,2,2112.0,418401.2999999523,8026,cherry,NF,C,415109,415109,413280,414393,413281,415392,414910,414910,415392,108
106,test,1,con,1,m,Thu May 22 2025 12:03:09 GMT-0500 (Central Daylight Time),422279.2000000477,copper,800,I,m,m,None,425,225.0,200.0,73,2,1761.5,420517.7000000477,8026,copper,NF,C,416925,416925,415397,416209,415397,417158,416725,416725,417158,109
107,test,1,inc,1,z,Thu May 22 2025 12:03:09 GMT-0500 (Central Daylight Time),424045.40000009537,gold,800,I,z,z,None,416,217.0,199.0,37,2,1762.0,422283.40000009537,8026,lime,NF,C,418692,418692,417162,417975,417163,418924,418492,418492,418924,110
108,test,1,inc,1,m,Thu May 22 2025 12:03:09 GMT-0500 (Central Daylight Time),426061.5,kiwi,1000,I,m,m,None,477,277.0,200.0,111,2,2010.0,424051.5,8026,iron,NF,C,420657,420657,418930,419941,418931,420941,420457,420457,420941,111
109,test,1,inc,1,z,Thu May 22 2025 12:03:09 GMT-0500 (Central Daylight Time),428210.7999999523,cobalt,1100,I,z,z,None,504,304.0,200.0,24,2,2145.199999809265,426065.60000014305,8026,orange,NF,C,422773,422773,420945,422057,420945,423090,422573,422573,423090,112
110,test,1,inc,1,m,Thu May 22 2025 12:03:09 GMT-0500 (Central Daylight Time),429943.5,lime,800,I,m,m,None,390,190.0,200.0,117,2,1728.0999999046326,428215.40000009537,8026,zinc,NF,C,424623,424623,423094,423906,423095,424823,424423,424423,424823,113
111,test,1,con,1,z,Thu May 22 2025 12:03:09 GMT-0500 (Central Daylight Time),431826.2000000477,orange,900,I,z,z,None,437,238.0,199.0,18,2,1879.0999999046326,429947.10000014305,8026,orange,NF,C,426455,426455,424826,425739,424826,426705,426256,426256,426705,114
112,test,1,con,1,z,Thu May 22 2025 12:03:09 GMT-0500 (Central Daylight Time),433708.90000009537,pear,900,I,z,z,None,443,243.0,200.0,42,2,1879.0,431829.90000009537,8026,pear,NF,C,428338,428338,426709,427622,426709,428588,428138,428138,428588,115
113,test,1,con,1,m,Thu May 22 2025 12:03:09 GMT-0500 (Central Daylight Time),435608.2999999523,iron,900,I,m,m,None,464,264.0,200.0,106,2,1895.3999998569489,433712.90000009537,8026,iron,NF,C,430221,430221,428592,429505,428592,430487,430021,430021,430487,116
114,test,1,inc,1,m,Thu May 22 2025 12:03:09 GMT-0500 (Central Daylight Time),437491.0,cherry,900,I,m,m,None,444,245.0,199.0,94,2,1878.7000000476837,435612.2999999523,8026,cobalt,NF,C,432120,432120,430491,431404,430492,432370,431921,431921,432370,117
115,test,1,inc,1,z,Thu May 22 2025 12:03:09 GMT-0500 (Central Daylight Time),439507.2000000477,zinc,1000,I,z,z,None,470,270.0,200.0,63,2,2012.5,437494.7000000477,8026,plum,NF,C,434103,434103,432374,433387,432374,434386,433903,433903,434386,118
116,test,1,inc,1,z,Thu May 22 2025 12:03:09 GMT-0500 (Central Daylight Time),441439.7999999523,gold,800,I,z,z,None,477,273.0,204.0,61,2,1928.0999999046326,439511.7000000477,8026,plum,NF,C,436036,436036,434391,435203,434391,436319,435832,435832,436319,119
117,test,1,inc,1,z,Thu May 22 2025 12:03:09 GMT-0500 (Central Daylight Time),443455.7999999523,zinc,1000,I,z,z,None,481,281.0,200.0,47,2,2011.7999999523163,441444.0,8026,pear,NF,C,438052,438052,436323,437335,436323,438335,437852,437852,438335,120
118,test,1,inc,1,m,Thu May 22 2025 12:03:09 GMT-0500 (Central Daylight Time),445288.60000014305,lime,800,I,m,m,None,497,297.0,200.0,125,2,1828.4000000953674,443460.2000000477,8026,lead,NF,C,439868,439868,438339,439152,438339,440168,439668,439668,440168,121
118,test,1,con,0,m,Thu May 22 2025 12:03:09 GMT-0500 (Central Daylight Time),447387.90000009537,gold,1000,I,z,z,None,551,352.0,199.0,99,2,2095.2999999523163,445292.60000014305,8026,gold,NF,C,441901,441901,440172,441184,440172,442267,441701,441701,442267,122
119,test,1,inc,1,z,Thu May 22 2025 12:03:09 GMT-0500 (Central Daylight Time),449254.40000009537,iron,900,I,z,z,None,426,226.0,200.0,46,2,1862.9000000953674,447391.5,8026,pear,NF,C,443900,443900,442271,443184,442271,444133,443700,443700,444133,123
120,test,1,con,1,m,Thu May 22 2025 12:03:09 GMT-0500 (Central Daylight Time),451253.40000009537,lead,1000,I,m,m,None,451,251.0,200.0,123,2,1995.1000001430511,449258.2999999523,8026,lead,NF,C,445866,445866,444137,445150,444138,446133,445666,445666,446132,124
121,test,1,con,1,z,Thu May 22 2025 12:03:09 GMT-0500 (Central Daylight Time),453186.2999999523,raisin,900,I,z,z,None,494,295.0,199.0,26,2,1928.1999998092651,451258.10000014305,8026,raisin,NF,C,447766,447766,446137,447049,446138,448065,447566,447566,448065,125
122,test,1,inc,1,z,Thu May 22 2025 12:03:09 GMT-0500 (Central Daylight Time),455335.40000009537,cobalt,1100,I,z,z,None,507,307.0,200.0,32,2,2144.9000000953674,453190.5,8026,raisin,NF,C,449898,449898,448070,449182,448070,450214,449698,449698,450214,126
123,test,1,con,1,m,Thu May 22 2025 12:03:09 GMT-0500 (Central Daylight Time),457101.7000000477,zinc,800,I,m,m,None,433,234.0,199.0,113,2,1762.5,455339.2000000477,8026,zinc,NF,C,451731,451731,450218,451031,450219,451981,451532,451532,451981,127
124,test,1,con,1,m,Thu May 22 2025 12:03:09 GMT-0500 (Central Daylight Time),458951.0,iron,800,I,m,m,None,507,307.0,200.0,105,2,1845.0,457106.0,8026,iron,NF,C,453514,453514,451985,452798,451985,453830,453314,453314,453830,128
