Number,acc_sum,block,block_c,block_cond,con_img,correct,correct_response,datetime,endtime,jitter,project,response,response_time,row_sel,session_number,start_end,starttime,subject_id,task,task_vers,trial
6,0,prac,1,A,circle.png,0,m,Fri Dec 05 2025 13:49:20 GMT-0600 (Central Standard Time),81368.5,1900,O,None,1515,5,1,4191.100000023842,77177.39999997616,7708,NTS,A,1
3,1,prac,1,A,circle.png,1,z,Fri Dec 05 2025 13:49:20 GMT-0600 (Central Standard Time),84183.0,1200,O,z,798,3,1,2789.8000000715256,81393.19999992847,7708,NTS,A,2
1,2,prac,1,A,circle.png,1,z,Fri Dec 05 2025 13:49:20 GMT-0600 (Central Standard Time),86598.69999992847,1000,O,z,610,1,1,2392.899999976158,84205.79999995232,7708,NTS,A,3
4,3,prac,1,A,circle.png,1,z,Fri Dec 05 2025 13:49:20 GMT-0600 (Central Standard Time),89614.39999997616,1400,O,z,785,4,1,2984.600000023842,86629.79999995232,7708,NTS,A,4
4,4,prac,1,A,circle.png,1,z,Fri Dec 05 2025 13:49:20 GMT-0600 (Central Standard Time),92430.19999992847,1400,O,z,592,4,1,2783.5999999046326,89646.60000002384,7708,NTS,A,5
2,5,prac,1,A,circle.png,1,z,Fri Dec 05 2025 13:49:20 GMT-0600 (Central Standard Time),95896.0,2000,O,z,659,2,1,3438.5,92457.5,7708,NTS,A,6
9,6,prac,1,A,circle.png,1,m,Fri Dec 05 2025 13:49:20 GMT-0600 (Central Standard Time),98843.89999997616,1500,O,m,639,8,1,2918.2999999523163,95925.60000002384,7708,NTS,A,7
7,7,prac,1,A,circle.png,1,m,Fri Dec 05 2025 13:49:20 GMT-0600 (Central Standard Time),101960.10000002384,1700,O,m,626,6,1,3107.100000023842,98853.0,7708,NTS,A,8
9,8,prac,1,A,circle.png,1,m,Fri Dec 05 2025 13:49:20 GMT-0600 (Central Standard Time),104876.39999997616,1500,O,m,612,8,1,2901.7999999523163,101974.60000002384,7708,NTS,A,9
7,9,prac,1,A,circle.png,1,m,Fri Dec 05 2025 13:49:20 GMT-0600 (Central Standard Time),108140.89999997616,1700,O,m,754,6,1,3238.5,104902.39999997616,7708,NTS,A,10
8,10,prac,1,A,circle.png,1,m,Fri Dec 05 2025 13:49:20 GMT-0600 (Central Standard Time),111140.29999995232,1600,O,m,612,7,1,2988.5,108151.79999995232,7708,NTS,A,11
1,11,prac,1,A,circle.png,1,z,Fri Dec 05 2025 13:49:20 GMT-0600 (Central Standard Time),113656.89999997616,1000,O,z,701,1,1,2500.0,111156.89999997616,7708,NTS,A,12
2,1,prac,1,B,triangle.png,1,m,Fri Dec 05 2025 13:49:20 GMT-0600 (Central Standard Time),155876.29999995232,1700,O,m,956,2,1,3439.0,152437.29999995232,7708,NTS,A,1
3,2,prac,1,B,triangle.png,1,z,Fri Dec 05 2025 13:49:20 GMT-0600 (Central Standard Time),158925.10000002384,1600,O,z,638,3,1,3022.3000000715256,155902.79999995232,7708,NTS,A,2
9,2,prac,1,B,triangle.png,0,z,Fri Dec 05 2025 13:49:20 GMT-0600 (Central Standard Time),162290.5,1400,O,m,1158,8,1,3336.5,158954.0,7708,NTS,A,3
1,2,prac,1,B,triangle.png,0,z,Fri Dec 05 2025 13:49:20 GMT-0600 (Central Standard Time),166289.29999995232,1900,O,m,1282,1,1,3970.5,162318.79999995232,7708,NTS,A,4
8,2,prac,1,B,triangle.png,0,m,Fri Dec 05 2025 13:49:20 GMT-0600 (Central Standard Time),169804.79999995232,1200,O,None,1515,7,1,3487.899999976158,166316.89999997616,7708,NTS,A,5
2,3,prac,1,B,triangle.png,1,m,Fri Dec 05 2025 13:49:20 GMT-0600 (Central Standard Time),173487.29999995232,1700,O,m,1169,2,1,3661.100000023842,169826.19999992847,7708,NTS,A,6
6,4,prac,1,B,triangle.png,1,m,Fri Dec 05 2025 13:49:20 GMT-0600 (Central Standard Time),176252.69999992847,1000,O,m,938,5,1,2736.1999999284744,173516.5,7708,NTS,A,7
4,5,prac,1,B,triangle.png,1,m,Fri Dec 05 2025 13:49:20 GMT-0600 (Central Standard Time),179818.39999997616,1500,O,m,1249,4,1,3542.2000000476837,176276.19999992847,7708,NTS,A,8
8,6,prac,1,B,triangle.png,1,m,Fri Dec 05 2025 13:49:20 GMT-0600 (Central Standard Time),182450.79999995232,1200,O,m,616,7,1,2604.899999976158,179845.89999997616,7708,NTS,A,9
9,7,prac,1,B,triangle.png,1,z,Fri Dec 05 2025 13:49:20 GMT-0600 (Central Standard Time),185483.0,1400,O,z,824,8,1,3005.899999976158,182477.10000002384,7708,NTS,A,10
1,8,prac,1,B,triangle.png,1,z,Fri Dec 05 2025 13:49:20 GMT-0600 (Central Standard Time),188948.60000002384,1900,O,z,755,1,1,3436.9000000953674,185511.69999992847,7708,NTS,A,11
7,9,prac,1,B,triangle.png,1,z,Fri Dec 05 2025 13:49:20 GMT-0600 (Central Standard Time),192947.5,2000,O,z,1190,6,1,3971.100000023842,188976.39999997616,7708,NTS,A,12
2,1,test,1,A,circle.png,1,z,Fri Dec 05 2025 13:49:20 GMT-0600 (Central Standard Time),213674.19999992847,2000,O,z,1384,2,1,3412.2999999523163,210261.89999997616,7708,NTS,A,1
6,2,test,1,A,circle.png,1,m,Fri Dec 05 2025 13:49:20 GMT-0600 (Central Standard Time),216556.29999995232,1900,O,m,947,5,1,2862.1999999284744,213694.10000002384,7708,NTS,A,2
2,3,test,1,A,circle.png,1,z,Fri Dec 05 2025 13:49:20 GMT-0600 (Central Standard Time),219305.0,2000,O,z,710,2,1,2726.7000000476837,216578.29999995232,7708,NTS,A,3
7,4,test,1,A,circle.png,1,m,Fri Dec 05 2025 13:49:20 GMT-0600 (Central Standard Time),221620.79999995232,1700,O,m,580,6,1,2294.1999999284744,219326.60000002384,7708,NTS,A,4
8,5,test,1,A,circle.png,1,m,Fri Dec 05 2025 13:49:20 GMT-0600 (Central Standard Time),224170.5,1600,O,m,915,7,1,2535.899999976158,221634.60000002384,7708,NTS,A,5
8,6,test,1,A,circle.png,1,m,Fri Dec 05 2025 13:49:20 GMT-0600 (Central Standard Time),226386.39999997616,1600,O,m,575,7,1,2195.7999999523163,224190.60000002384,7708,NTS,A,6
8,7,test,1,A,circle.png,1,m,Fri Dec 05 2025 13:49:20 GMT-0600 (Central Standard Time),228535.5,1600,O,m,511,7,1,2129.8000000715256,226405.69999992847,7708,NTS,A,7
4,8,test,1,A,circle.png,1,z,Fri Dec 05 2025 13:49:20 GMT-0600 (Central Standard Time),230851.29999995232,1400,O,z,866,4,1,2296.0,228555.29999995232,7708,NTS,A,8
3,9,test,1,A,circle.png,1,z,Fri Dec 05 2025 13:49:20 GMT-0600 (Central Standard Time),232900.89999997616,1200,O,z,812,3,1,2030.7000000476837,230870.19999992847,7708,NTS,A,9
3,10,test,1,A,circle.png,1,z,Fri Dec 05 2025 13:49:20 GMT-0600 (Central Standard Time),234750.19999992847,1200,O,z,612,3,1,1830.3999999761581,232919.79999995232,7708,NTS,A,10
4,11,test,1,A,circle.png,1,z,Fri Dec 05 2025 13:49:20 GMT-0600 (Central Standard Time),237132.60000002384,1400,O,z,945,4,1,2364.4000000953674,234768.19999992847,7708,NTS,A,11
1,12,test,1,A,circle.png,1,z,Fri Dec 05 2025 13:49:20 GMT-0600 (Central Standard Time),238815.29999995232,1000,O,z,645,1,1,1664.1999999284744,237151.10000002384,7708,NTS,A,12
6,13,test,1,A,circle.png,1,m,Fri Dec 05 2025 13:49:20 GMT-0600 (Central Standard Time),241497.79999995232,1900,O,m,740,5,1,2663.1999999284744,238834.60000002384,7708,NTS,A,13
1,14,test,1,A,circle.png,1,z,Fri Dec 05 2025 13:49:20 GMT-0600 (Central Standard Time),243380.79999995232,1000,O,z,831,1,1,1864.1999999284744,241516.60000002384,7708,NTS,A,14
2,15,test,1,A,circle.png,1,z,Fri Dec 05 2025 13:49:20 GMT-0600 (Central Standard Time),246462.89999997616,2000,O,z,1035,2,1,3060.2999999523163,243402.60000002384,7708,NTS,A,15
7,16,test,1,A,circle.png,1,m,Fri Dec 05 2025 13:49:20 GMT-0600 (Central Standard Time),248828.79999995232,1700,O,m,647,6,1,2352.399999976158,246476.39999997616,7708,NTS,A,16
1,17,test,1,A,circle.png,1,z,Fri Dec 05 2025 13:49:20 GMT-0600 (Central Standard Time),250528.29999995232,1000,O,z,659,1,1,1678.6000000238419,248849.69999992847,7708,NTS,A,17
7,18,test,1,A,circle.png,1,m,Fri Dec 05 2025 13:49:20 GMT-0600 (Central Standard Time),252910.79999995232,1700,O,m,645,6,1,2363.7999999523163,250547.0,7708,NTS,A,18
9,19,test,1,A,circle.png,1,m,Fri Dec 05 2025 13:49:20 GMT-0600 (Central Standard Time),255059.39999997616,1500,O,m,605,8,1,2130.7999999523163,252928.60000002384,7708,NTS,A,19
9,20,test,1,A,circle.png,1,m,Fri Dec 05 2025 13:49:20 GMT-0600 (Central Standard Time),257142.69999992847,1500,O,m,562,8,1,2078.0999999046326,255064.60000002384,7708,NTS,A,20
3,21,test,1,A,circle.png,1,z,Fri Dec 05 2025 13:49:20 GMT-0600 (Central Standard Time),259092.0,1200,O,z,698,3,1,1928.3000000715256,257163.69999992847,7708,NTS,A,21
7,22,test,1,A,circle.png,1,m,Fri Dec 05 2025 13:49:20 GMT-0600 (Central Standard Time),261507.89999997616,1700,O,m,673,6,1,2396.0,259111.89999997616,7708,NTS,A,22
9,23,test,1,A,circle.png,1,m,Fri Dec 05 2025 13:49:20 GMT-0600 (Central Standard Time),263690.7999999523,1500,O,m,642,8,1,2165.2999999523163,261525.5,7708,NTS,A,23
4,24,test,1,A,circle.png,1,z,Fri Dec 05 2025 13:49:20 GMT-0600 (Central Standard Time),265856.1999999285,1400,O,z,727,4,1,2147.0,263709.1999999285,7708,NTS,A,24
4,1,test,1,B,triangle.png,1,m,Fri Dec 05 2025 13:49:20 GMT-0600 (Central Standard Time),289282.5,1000,O,m,1010,12,1,2030.3000000715256,287252.1999999285,7708,NTS,A,1
1,2,test,1,B,triangle.png,1,z,Fri Dec 05 2025 13:49:20 GMT-0600 (Central Standard Time),292147.7999999523,1900,O,z,916,1,1,2843.399999976158,289304.39999997616,7708,NTS,A,2
7,3,test,1,B,triangle.png,1,z,Fri Dec 05 2025 13:49:20 GMT-0600 (Central Standard Time),295196.89999997616,1600,O,z,1415,14,1,3030.100000023842,292166.7999999523,7708,NTS,A,3
9,3,test,1,B,triangle.png,0,z,Fri Dec 05 2025 13:49:20 GMT-0600 (Central Standard Time),298646.0,1900,O,None,1515,16,1,3427.8000000715256,295218.1999999285,7708,NTS,A,4
6,4,test,1,B,triangle.png,1,m,Fri Dec 05 2025 13:49:20 GMT-0600 (Central Standard Time),300428.5,1000,O,m,748,5,1,1762.6000000238419,298665.89999997616,7708,NTS,A,5
2,5,test,1,B,triangle.png,1,m,Fri Dec 05 2025 13:49:20 GMT-0600 (Central Standard Time),302445.10000002384,1200,O,m,781,10,1,1997.3000000715256,300447.7999999523,7708,NTS,A,6
4,6,test,1,B,triangle.png,1,m,Fri Dec 05 2025 13:49:20 GMT-0600 (Central Standard Time),304577.10000002384,1500,O,m,586,4,1,2111.4000000953674,302465.6999999285,7708,NTS,A,7
3,7,test,1,B,triangle.png,1,z,Fri Dec 05 2025 13:49:20 GMT-0600 (Central Standard Time),307309.10000002384,2000,O,z,697,11,1,2712.7000000476837,304596.39999997616,7708,NTS,A,8
1,8,test,1,B,triangle.png,1,z,Fri Dec 05 2025 13:49:20 GMT-0600 (Central Standard Time),309925.5,1900,O,z,698,1,1,2605.600000023842,307319.89999997616,7708,NTS,A,9
2,9,test,1,B,triangle.png,1,m,Fri Dec 05 2025 13:49:20 GMT-0600 (Central Standard Time),312457.89999997616,1700,O,m,793,2,1,2512.7000000476837,309945.1999999285,7708,NTS,A,10
2,10,test,1,B,triangle.png,1,m,Fri Dec 05 2025 13:49:20 GMT-0600 (Central Standard Time),314423.60000002384,1200,O,m,728,10,1,1946.7000000476837,312476.89999997616,7708,NTS,A,11
7,11,test,1,B,triangle.png,1,z,Fri Dec 05 2025 13:49:20 GMT-0600 (Central Standard Time),317289.7999999523,2000,O,z,819,6,1,2849.600000023842,314440.1999999285,7708,NTS,A,12
9,12,test,1,B,triangle.png,1,z,Fri Dec 05 2025 13:49:20 GMT-0600 (Central Standard Time),319822.1999999285,1400,O,z,1097,8,1,2517.399999976158,317304.7999999523,7708,NTS,A,13
6,13,test,1,B,triangle.png,1,m,Fri Dec 05 2025 13:49:20 GMT-0600 (Central Standard Time),321989.10000002384,1500,O,m,633,13,1,2147.5,319841.60000002384,7708,NTS,A,14
7,14,test,1,B,triangle.png,1,z,Fri Dec 05 2025 13:49:20 GMT-0600 (Central Standard Time),324670.7999999523,1600,O,z,1038,14,1,2662.0,322008.7999999523,7708,NTS,A,15
3,15,test,1,B,triangle.png,1,z,Fri Dec 05 2025 13:49:20 GMT-0600 (Central Standard Time),327486.2999999523,1600,O,z,1171,3,1,2800.5,324685.7999999523,7708,NTS,A,16
8,16,test,1,B,triangle.png,1,m,Fri Dec 05 2025 13:49:20 GMT-0600 (Central Standard Time),329335.60000002384,1200,O,m,603,7,1,1829.7000000476837,327505.89999997616,7708,NTS,A,17
8,17,test,1,B,triangle.png,1,m,Fri Dec 05 2025 13:49:20 GMT-0600 (Central Standard Time),331718.2999999523,1700,O,m,639,15,1,2363.1999999284744,329355.10000002384,7708,NTS,A,18
1,18,test,1,B,triangle.png,1,z,Fri Dec 05 2025 13:49:20 GMT-0600 (Central Standard Time),333901.5,1400,O,z,749,9,1,2163.399999976158,331738.10000002384,7708,NTS,A,19
3,19,test,1,B,triangle.png,1,z,Fri Dec 05 2025 13:49:20 GMT-0600 (Central Standard Time),336450.10000002384,1600,O,z,901,3,1,2530.3000000715256,333919.7999999523,7708,NTS,A,20
8,20,test,1,B,triangle.png,1,m,Fri Dec 05 2025 13:49:20 GMT-0600 (Central Standard Time),338416.10000002384,1200,O,m,728,7,1,1944.8000000715256,336471.2999999523,7708,NTS,A,21
6,20,test,1,B,triangle.png,0,m,Fri Dec 05 2025 13:49:20 GMT-0600 (Central Standard Time),340664.6999999285,1000,O,z,1201,5,1,2230.5,338434.1999999285,7708,NTS,A,22
2,21,test,1,B,triangle.png,1,m,Fri Dec 05 2025 13:49:20 GMT-0600 (Central Standard Time),343364.7999999523,1700,O,m,974,2,1,2692.6999999284744,340672.10000002384,7708,NTS,A,23
7,22,test,1,B,triangle.png,1,z,Fri Dec 05 2025 13:49:20 GMT-0600 (Central Standard Time),346180.39999997616,2000,O,z,766,6,1,2795.0,343385.39999997616,7708,NTS,A,24
8,1,prac,1,C,triangle.png,1,m,Fri Dec 05 2025 13:49:20 GMT-0600 (Central Standard Time),418873.2999999523,1400,O,m,1217,7,1,3407.6999999284744,415465.60000002384,7708,NTS,A,1
2,2,prac,1,C,triangle.png,1,m,Fri Dec 05 2025 13:49:20 GMT-0600 (Central Standard Time),422338.6999999285,1600,O,m,1057,2,1,3435.6999999284744,418903.0,7708,NTS,A,2
8,3,prac,1,C,triangle.png,1,m,Fri Dec 05 2025 13:49:20 GMT-0600 (Central Standard Time),425153.7999999523,1400,O,m,616,7,1,2790.899999976158,422362.89999997616,7708,NTS,A,3
4,3,prac,1,C,circle.png,0,z,Fri Dec 05 2025 13:49:20 GMT-0600 (Central Standard Time),428453.2999999523,1000,O,None,1515,4,1,3291.1999999284744,425162.10000002384,7708,NTS,A,4
6,4,prac,1,C,circle.png,1,m,Fri Dec 05 2025 13:49:20 GMT-0600 (Central Standard Time),432202.1999999285,2000,O,m,932,5,1,3723.899999976158,428478.2999999523,7708,NTS,A,5
2,4,prac,1,C,triangle.png,0,m,Fri Dec 05 2025 13:49:20 GMT-0600 (Central Standard Time),435767.6999999285,1600,O,z,1151,2,1,3538.5999999046326,432229.10000002384,7708,NTS,A,6
7,5,prac,1,C,triangle.png,1,z,Fri Dec 05 2025 13:49:20 GMT-0600 (Central Standard Time),438700.0,1200,O,z,923,6,1,2916.2000000476837,435783.7999999523,7708,NTS,A,7
1,6,prac,1,C,circle.png,1,z,Fri Dec 05 2025 13:49:20 GMT-0600 (Central Standard Time),442582.39999997616,1700,O,z,1378,1,1,3855.899999976158,438726.5,7708,NTS,A,8
4,7,prac,1,C,circle.png,1,z,Fri Dec 05 2025 13:49:20 GMT-0600 (Central Standard Time),445364.60000002384,1000,O,z,980,4,1,2754.7000000476837,442609.89999997616,7708,NTS,A,9
9,8,prac,1,C,circle.png,1,m,Fri Dec 05 2025 13:49:20 GMT-0600 (Central Standard Time),449162.7999999523,1900,O,m,1090,8,1,3769.2999999523163,445393.5,7708,NTS,A,10
3,9,prac,1,C,triangle.png,1,z,Fri Dec 05 2025 13:49:20 GMT-0600 (Central Standard Time),452595.5,1500,O,z,1133,3,1,3417.600000023842,449177.89999997616,7708,NTS,A,11
9,10,prac,1,C,circle.png,1,m,Fri Dec 05 2025 13:49:20 GMT-0600 (Central Standard Time),456594.10000002384,1900,O,m,1282,8,1,3969.100000023842,452625.0,7708,NTS,A,12
2,0,test,1,C,circle.png,0,z,Fri Dec 05 2025 13:49:20 GMT-0600 (Central Standard Time),496514.2999999523,1700,O,m,1294,18,1,3012.7999999523163,493501.5,7708,NTS,A,1
1,1,test,1,C,triangle.png,1,z,Fri Dec 05 2025 13:49:20 GMT-0600 (Central Standard Time),499429.7999999523,1900,O,z,980,9,1,2891.5,496538.2999999523,7708,NTS,A,2
2,2,test,1,C,triangle.png,1,m,Fri Dec 05 2025 13:49:20 GMT-0600 (Central Standard Time),502612.89999997616,2000,O,m,1148,2,1,3162.100000023842,499450.7999999523,7708,NTS,A,3
9,2,test,1,C,circle.png,0,m,Fri Dec 05 2025 13:49:20 GMT-0600 (Central Standard Time),505561.39999997616,1500,O,z,1403,8,1,2929.2999999523163,502632.10000002384,7708,NTS,A,4
9,2,test,1,C,circle.png,0,m,Fri Dec 05 2025 13:49:20 GMT-0600 (Central Standard Time),508610.10000002384,1500,O,None,1515,24,1,3027.0,505583.10000002384,7708,NTS,A,5
8,3,test,1,C,circle.png,1,m,Fri Dec 05 2025 13:49:20 GMT-0600 (Central Standard Time),510809.89999997616,1200,O,m,960,15,1,2178.899999976158,508631.0,7708,NTS,A,6
6,3,test,1,C,circle.png,0,m,Fri Dec 05 2025 13:49:20 GMT-0600 (Central Standard Time),514258.5,1900,O,None,1515,5,1,3429.0,510829.5,7708,NTS,A,7
8,3,test,1,C,triangle.png,0,m,Fri Dec 05 2025 13:49:20 GMT-0600 (Central Standard Time),516990.6999999285,1600,O,z,1096,7,1,2711.5999999046326,514279.10000002384,7708,NTS,A,8
8,3,test,1,C,triangle.png,0,m,Fri Dec 05 2025 13:49:20 GMT-0600 (Central Standard Time),519907.10000002384,1600,O,z,1268,23,1,2896.4000000953674,517010.6999999285,7708,NTS,A,9
1,4,test,1,C,circle.png,1,z,Fri Dec 05 2025 13:49:20 GMT-0600 (Central Standard Time),522405.89999997616,1000,O,z,1456,1,1,2476.399999976158,519929.5,7708,NTS,A,10
4,5,test,1,C,triangle.png,1,m,Fri Dec 05 2025 13:49:20 GMT-0600 (Central Standard Time),525138.6999999285,1500,O,m,1192,20,1,2713.0999999046326,522425.60000002384,7708,NTS,A,11
3,6,test,1,C,circle.png,1,z,Fri Dec 05 2025 13:49:20 GMT-0600 (Central Standard Time),527954.1999999285,1600,O,z,1168,19,1,2794.6999999284744,525159.5,7708,NTS,A,12
6,6,test,1,C,triangle.png,0,m,Fri Dec 05 2025 13:49:20 GMT-0600 (Central Standard Time),530503.1999999285,1000,O,None,1515,13,1,2528.5,527974.6999999285,7708,NTS,A,13
2,6,test,1,C,circle.png,0,z,Fri Dec 05 2025 13:49:20 GMT-0600 (Central Standard Time),533318.7999999523,1700,O,m,1088,10,1,2803.0,530515.7999999523,7708,NTS,A,14
3,6,test,1,C,triangle.png,0,z,Fri Dec 05 2025 13:49:20 GMT-0600 (Central Standard Time),535551.3999999762,1200,O,m,987,3,1,2212.5,533338.8999999762,7708,NTS,A,15
7,7,test,1,C,triangle.png,1,z,Fri Dec 05 2025 13:49:20 GMT-0600 (Central Standard Time),538650.3999999762,1700,O,z,1360,6,1,3078.7999999523163,535571.6000000238,7708,NTS,A,16
1,8,test,1,C,triangle.png,1,z,Fri Dec 05 2025 13:49:20 GMT-0600 (Central Standard Time),541616.1000000238,1900,O,z,1020,17,1,2947.100000023842,538669.0,7708,NTS,A,17
9,8,test,1,C,triangle.png,0,z,Fri Dec 05 2025 13:49:20 GMT-0600 (Central Standard Time),544549.1000000238,1400,O,m,1499,16,1,2913.0,541636.1000000238,7708,NTS,A,18
4,8,test,1,C,circle.png,0,z,Fri Dec 05 2025 13:49:20 GMT-0600 (Central Standard Time),547497.8999999762,1400,O,None,1516,4,1,2928.7000000476837,544569.1999999285,7708,NTS,A,19
7,9,test,1,C,circle.png,1,m,Fri Dec 05 2025 13:49:20 GMT-0600 (Central Standard Time),550480.1999999285,2000,O,m,938,14,1,2962.5,547517.6999999285,7708,NTS,A,20
4,9,test,1,C,triangle.png,0,m,Fri Dec 05 2025 13:49:20 GMT-0600 (Central Standard Time),552962.1000000238,1500,O,z,934,12,1,2459.7000000476837,550502.3999999762,7708,NTS,A,21
6,9,test,1,C,circle.png,0,m,Fri Dec 05 2025 13:49:20 GMT-0600 (Central Standard Time),556161.2999999523,1900,O,z,1277,21,1,3186.6999999284744,552974.6000000238,7708,NTS,A,22
3,10,test,1,C,circle.png,1,z,Fri Dec 05 2025 13:49:20 GMT-0600 (Central Standard Time),559243.8999999762,1600,O,z,1441,11,1,3063.2000000476837,556180.6999999285,7708,NTS,A,23
7,10,test,1,C,triangle.png,0,z,Fri Dec 05 2025 13:49:20 GMT-0600 (Central Standard Time),562459.5,1700,O,m,1467,22,1,3194.8000000715256,559264.6999999285,7708,NTS,A,24
7,1,test,2,C,circle.png,1,m,Fri Dec 05 2025 13:49:20 GMT-0600 (Central Standard Time),587684.6999999285,2000,O,m,1389,22,1,3413.399999976158,584271.2999999523,7708,NTS,A,1
8,1,test,2,C,triangle.png,0,m,Fri Dec 05 2025 13:49:20 GMT-0600 (Central Standard Time),590832.8999999762,1600,O,None,1515,7,1,3127.2000000476837,587705.6999999285,7708,NTS,A,2
2,1,test,2,C,triangle.png,0,m,Fri Dec 05 2025 13:49:20 GMT-0600 (Central Standard Time),594199.0,2000,O,z,1338,2,1,3354.899999976158,590844.1000000238,7708,NTS,A,3
4,2,test,2,C,triangle.png,1,m,Fri Dec 05 2025 13:49:20 GMT-0600 (Central Standard Time),596948.2999999523,1500,O,m,1209,20,1,2728.399999976158,594219.8999999762,7708,NTS,A,4
9,2,test,2,C,triangle.png,0,z,Fri Dec 05 2025 13:49:20 GMT-0600 (Central Standard Time),599530.6000000238,1400,O,m,1142,24,1,2560.9000000953674,596969.6999999285,7708,NTS,A,5
8,2,test,2,C,circle.png,0,m,Fri Dec 05 2025 13:49:20 GMT-0600 (Central Standard Time),602279.6000000238,1200,O,None,1515,15,1,2729.3000000715256,599550.2999999523,7708,NTS,A,6
9,3,test,2,C,triangle.png,1,z,Fri Dec 05 2025 13:49:20 GMT-0600 (Central Standard Time),604945.3999999762,1400,O,z,1227,16,1,2646.899999976158,602298.5,7708,NTS,A,7
3,4,test,2,C,triangle.png,1,z,Fri Dec 05 2025 13:49:20 GMT-0600 (Central Standard Time),607511.1999999285,1200,O,z,1322,3,1,2545.7999999523163,604965.3999999762,7708,NTS,A,8
6,5,test,2,C,triangle.png,1,m,Fri Dec 05 2025 13:49:20 GMT-0600 (Central Standard Time),609594.1999999285,1000,O,m,1035,21,1,2062.5999999046326,607531.6000000238,7708,NTS,A,9
6,6,test,2,C,circle.png,1,m,Fri Dec 05 2025 13:49:20 GMT-0600 (Central Standard Time),612525.7999999523,1900,O,m,989,5,1,2912.2999999523163,609613.5,7708,NTS,A,10
1,7,test,2,C,circle.png,1,z,Fri Dec 05 2025 13:49:20 GMT-0600 (Central Standard Time),614608.7999999523,1000,O,z,1053,1,1,2076.5,612532.2999999523,7708,NTS,A,11
7,7,test,2,C,triangle.png,0,z,Fri Dec 05 2025 13:49:20 GMT-0600 (Central Standard Time),617841.1999999285,1700,O,m,1486,6,1,3213.0,614628.1999999285,7708,NTS,A,12
1,8,test,2,C,triangle.png,1,z,Fri Dec 05 2025 13:49:20 GMT-0600 (Central Standard Time),620990.1999999285,1900,O,z,1213,9,1,3128.0999999046326,617862.1000000238,7708,NTS,A,13
7,9,test,2,C,circle.png,1,m,Fri Dec 05 2025 13:49:20 GMT-0600 (Central Standard Time),624172.6999999285,2000,O,m,1142,14,1,3162.6999999284744,621010.0,7708,NTS,A,14
2,10,test,2,C,circle.png,1,z,Fri Dec 05 2025 13:49:20 GMT-0600 (Central Standard Time),626938.0,1700,O,z,1018,18,1,2745.0,624193.0,7708,NTS,A,15
3,11,test,2,C,circle.png,1,z,Fri Dec 05 2025 13:49:20 GMT-0600 (Central Standard Time),629587.6000000238,1600,O,z,1000,11,1,2631.2000000476837,626956.3999999762,7708,NTS,A,16
4,11,test,2,C,circle.png,0,z,Fri Dec 05 2025 13:49:20 GMT-0600 (Central Standard Time),632086.3999999762,1400,O,m,1063,4,1,2477.5,629608.8999999762,7708,NTS,A,17
4,11,test,2,C,triangle.png,0,m,Fri Dec 05 2025 13:49:20 GMT-0600 (Central Standard Time),635069.1000000238,1500,O,z,1440,12,1,2963.8000000715256,632105.2999999523,7708,NTS,A,18
9,11,test,2,C,circle.png,0,m,Fri Dec 05 2025 13:49:20 GMT-0600 (Central Standard Time),638117.8999999762,1500,O,None,1516,8,1,3029.399999976158,635088.5,7708,NTS,A,19
1,11,test,2,C,triangle.png,0,z,Fri Dec 05 2025 13:49:20 GMT-0600 (Central Standard Time),641567.1000000238,1900,O,None,1516,17,1,3429.100000023842,638138.0,7708,NTS,A,20
2,12,test,2,C,circle.png,1,z,Fri Dec 05 2025 13:49:20 GMT-0600 (Central Standard Time),644582.8999999762,1700,O,z,1272,10,1,2995.7999999523163,641587.1000000238,7708,NTS,A,21
8,13,test,2,C,circle.png,1,m,Fri Dec 05 2025 13:49:20 GMT-0600 (Central Standard Time),646631.1999999285,1200,O,m,803,23,1,2028.0999999046326,644603.1000000238,7708,NTS,A,22
3,14,test,2,C,circle.png,1,z,Fri Dec 05 2025 13:49:20 GMT-0600 (Central Standard Time),649081.1999999285,1600,O,z,827,19,1,2444.5999999046326,646636.6000000238,7708,NTS,A,23
6,15,test,2,C,triangle.png,1,m,Fri Dec 05 2025 13:49:20 GMT-0600 (Central Standard Time),651430.1000000238,1000,O,m,1305,13,1,2329.100000023842,649101.0,7708,NTS,A,24
6,1,test,3,C,circle.png,1,m,Fri Dec 05 2025 13:49:20 GMT-0600 (Central Standard Time),677171.8999999762,1900,O,m,1391,21,1,3314.2999999523163,673857.6000000238,7708,NTS,A,1
9,2,test,3,C,circle.png,1,m,Fri Dec 05 2025 13:49:20 GMT-0600 (Central Standard Time),679571.0,1500,O,m,859,8,1,2383.899999976158,677187.1000000238,7708,NTS,A,2
6,3,test,3,C,circle.png,1,m,Fri Dec 05 2025 13:49:20 GMT-0600 (Central Standard Time),682453.2999999523,1900,O,m,940,5,1,2862.1999999284744,679591.1000000238,7708,NTS,A,3
8,3,test,3,C,triangle.png,0,m,Fri Dec 05 2025 13:49:20 GMT-0600 (Central Standard Time),685602.3999999762,1600,O,None,1516,23,1,3129.399999976158,682473.0,7708,NTS,A,4
6,3,test,3,C,triangle.png,0,m,Fri Dec 05 2025 13:49:20 GMT-0600 (Central Standard Time),688151.6000000238,1000,O,None,1515,13,1,2530.100000023842,685621.5,7708,NTS,A,5
2,4,test,3,C,triangle.png,1,m,Fri Dec 05 2025 13:49:20 GMT-0600 (Central Standard Time),691083.2999999523,2000,O,m,898,18,1,2911.899999976158,688171.3999999762,7708,NTS,A,6
7,4,test,3,C,circle.png,0,m,Fri Dec 05 2025 13:49:20 GMT-0600 (Central Standard Time),694616.1000000238,2000,O,None,1515,14,1,3527.100000023842,691089.0,7708,NTS,A,7
1,5,test,3,C,circle.png,1,z,Fri Dec 05 2025 13:49:20 GMT-0600 (Central Standard Time),696581.8999999762,1000,O,z,931,17,1,1945.5,694636.3999999762,7708,NTS,A,8
3,6,test,3,C,circle.png,1,z,Fri Dec 05 2025 13:49:20 GMT-0600 (Central Standard Time),699014.6999999285,1600,O,z,788,11,1,2413.1999999284744,696601.5,7708,NTS,A,9
4,7,test,3,C,triangle.png,1,m,Fri Dec 05 2025 13:49:20 GMT-0600 (Central Standard Time),701497.1000000238,1500,O,m,945,12,1,2461.600000023842,699035.5,7708,NTS,A,10
2,7,test,3,C,triangle.png,0,m,Fri Dec 05 2025 13:49:20 GMT-0600 (Central Standard Time),704829.5,2000,O,z,1290,2,1,3311.899999976158,701517.6000000238,7708,NTS,A,11
4,7,test,3,C,circle.png,0,z,Fri Dec 05 2025 13:49:20 GMT-0600 (Central Standard Time),707312.1000000238,1400,O,m,1046,20,1,2464.3000000715256,704847.7999999523,7708,NTS,A,12
8,8,test,3,C,triangle.png,1,m,Fri Dec 05 2025 13:49:20 GMT-0600 (Central Standard Time),710144.6000000238,1600,O,m,1196,7,1,2814.4000000953674,707330.1999999285,7708,NTS,A,13
9,9,test,3,C,circle.png,1,m,Fri Dec 05 2025 13:49:20 GMT-0600 (Central Standard Time),713076.2999999523,1500,O,m,1383,24,1,2910.7999999523163,710165.5,7708,NTS,A,14
2,10,test,3,C,circle.png,1,z,Fri Dec 05 2025 13:49:20 GMT-0600 (Central Standard Time),715509.1000000238,1700,O,z,716,10,1,2421.7000000476837,713087.3999999762,7708,NTS,A,15
9,10,test,3,C,triangle.png,0,z,Fri Dec 05 2025 13:49:20 GMT-0600 (Central Standard Time),718458.7999999523,1400,O,None,1516,16,1,2929.2999999523163,715529.5,7708,NTS,A,16
8,11,test,3,C,circle.png,1,m,Fri Dec 05 2025 13:49:20 GMT-0600 (Central Standard Time),720590.6999999285,1200,O,m,898,15,1,2110.2999999523163,718480.3999999762,7708,NTS,A,17
1,12,test,3,C,triangle.png,1,z,Fri Dec 05 2025 13:49:20 GMT-0600 (Central Standard Time),723140.2999999523,1900,O,z,600,9,1,2530.100000023842,720610.1999999285,7708,NTS,A,18
7,12,test,3,C,triangle.png,0,z,Fri Dec 05 2025 13:49:20 GMT-0600 (Central Standard Time),726022.1999999285,1700,O,m,1148,22,1,2861.7999999523163,723160.3999999762,7708,NTS,A,19
3,13,test,3,C,triangle.png,1,z,Fri Dec 05 2025 13:49:20 GMT-0600 (Central Standard Time),728005.1999999285,1200,O,z,733,3,1,1962.0999999046326,726043.1000000238,7708,NTS,A,20
4,13,test,3,C,circle.png,0,z,Fri Dec 05 2025 13:49:20 GMT-0600 (Central Standard Time),730221.2999999523,1400,O,m,774,4,1,2197.6999999284744,728023.6000000238,7708,NTS,A,21
1,14,test,3,C,circle.png,1,z,Fri Dec 05 2025 13:49:20 GMT-0600 (Central Standard Time),732053.6999999285,1000,O,z,799,1,1,1812.5,730241.1999999285,7708,NTS,A,22
7,14,test,3,C,triangle.png,0,z,Fri Dec 05 2025 13:49:20 GMT-0600 (Central Standard Time),734603.1999999285,1700,O,m,800,6,1,2529.0999999046326,732074.1000000238,7708,NTS,A,23
3,14,test,3,C,triangle.png,0,z,Fri Dec 05 2025 13:49:20 GMT-0600 (Central Standard Time),736669.1999999285,1200,O,m,833,19,1,2044.8999999761581,734624.2999999523,7708,NTS,A,24
8,0,test,4,C,triangle.png,0,m,Fri Dec 05 2025 13:49:20 GMT-0600 (Central Standard Time),744783.0,1600,O,None,1515,23,1,3132.899999976158,741650.1000000238,7708,NTS,A,1
2,1,test,4,C,triangle.png,1,m,Fri Dec 05 2025 13:49:20 GMT-0600 (Central Standard Time),747831.8999999762,2000,O,m,1013,2,1,3030.7000000476837,744801.1999999285,7708,NTS,A,2
9,2,test,4,C,circle.png,1,m,Fri Dec 05 2025 13:49:20 GMT-0600 (Central Standard Time),750381.0,1500,O,m,1016,8,1,2527.600000023842,747853.3999999762,7708,NTS,A,3
8,3,test,4,C,triangle.png,1,m,Fri Dec 05 2025 13:49:20 GMT-0600 (Central Standard Time),753196.8999999762,1600,O,m,1174,7,1,2794.899999976158,750402.0,7708,NTS,A,4
6,4,test,4,C,triangle.png,1,m,Fri Dec 05 2025 13:49:20 GMT-0600 (Central Standard Time),754929.7999999523,1000,O,m,695,13,1,1714.5,753215.2999999523,7708,NTS,A,5
9,4,test,4,C,triangle.png,0,z,Fri Dec 05 2025 13:49:20 GMT-0600 (Central Standard Time),757128.7999999523,1400,O,m,755,16,1,2184.399999976158,754944.3999999762,7708,NTS,A,6
2,4,test,4,C,circle.png,0,z,Fri Dec 05 2025 13:49:20 GMT-0600 (Central Standard Time),760377.6999999285,1700,O,None,1516,10,1,3227.0,757150.6999999285,7708,NTS,A,7
3,5,test,4,C,triangle.png,1,z,Fri Dec 05 2025 13:49:20 GMT-0600 (Central Standard Time),762677.1999999285,1200,O,z,1050,19,1,2280.5999999046326,760396.6000000238,7708,NTS,A,8
4,5,test,4,C,circle.png,0,z,Fri Dec 05 2025 13:49:20 GMT-0600 (Central Standard Time),765342.6000000238,1400,O,m,1230,4,1,2646.4000000953674,762696.1999999285,7708,NTS,A,9
1,5,test,4,C,triangle.png,0,z,Fri Dec 05 2025 13:49:20 GMT-0600 (Central Standard Time),768775.3999999762,1900,O,None,1516,9,1,3419.0,765356.3999999762,7708,NTS,A,10
1,6,test,4,C,circle.png,1,z,Fri Dec 05 2025 13:49:20 GMT-0600 (Central Standard Time),771024.1999999285,1000,O,z,1212,1,1,2228.0,768796.1999999285,7708,NTS,A,11
4,6,test,4,C,circle.png,0,z,Fri Dec 05 2025 13:49:20 GMT-0600 (Central Standard Time),773973.3999999762,1400,O,None,1515,20,1,2928.7999999523163,771044.6000000238,7708,NTS,A,12
4,6,test,4,C,triangle.png,0,m,Fri Dec 05 2025 13:49:20 GMT-0600 (Central Standard Time),777022.6999999285,1500,O,None,1515,12,1,3031.5999999046326,773991.1000000238,7708,NTS,A,13
7,6,test,4,C,circle.png,0,m,Fri Dec 05 2025 13:49:20 GMT-0600 (Central Standard Time),780354.6999999285,2000,O,z,1284,14,1,3312.7999999523163,777041.8999999762,7708,NTS,A,14
6,7,test,4,C,circle.png,1,m,Fri Dec 05 2025 13:49:20 GMT-0600 (Central Standard Time),783103.5,1900,O,m,813,5,1,2729.2000000476837,780374.2999999523,7708,NTS,A,15
6,8,test,4,C,circle.png,1,m,Fri Dec 05 2025 13:49:20 GMT-0600 (Central Standard Time),785885.8999999762,1900,O,m,848,21,1,2760.399999976158,783125.5,7708,NTS,A,16
9,9,test,4,C,circle.png,1,m,Fri Dec 05 2025 13:49:20 GMT-0600 (Central Standard Time),788202.1999999285,1500,O,m,769,24,1,2295.7999999523163,785906.3999999762,7708,NTS,A,17
2,9,test,4,C,triangle.png,0,m,Fri Dec 05 2025 13:49:20 GMT-0600 (Central Standard Time),791217.6000000238,2000,O,z,970,18,1,2994.4000000953674,788223.1999999285,7708,NTS,A,18
7,9,test,4,C,triangle.png,0,z,Fri Dec 05 2025 13:49:20 GMT-0600 (Central Standard Time),793949.7999999523,1700,O,m,998,6,1,2712.0,791237.7999999523,7708,NTS,A,19
1,10,test,4,C,circle.png,1,z,Fri Dec 05 2025 13:49:20 GMT-0600 (Central Standard Time),796399.1999999285,1000,O,z,1405,17,1,2427.899999976158,793971.2999999523,7708,NTS,A,20
3,10,test,4,C,triangle.png,0,z,Fri Dec 05 2025 13:49:20 GMT-0600 (Central Standard Time),798981.8999999762,1200,O,m,1348,3,1,2564.2000000476837,796417.6999999285,7708,NTS,A,21
3,10,test,4,C,circle.png,0,z,Fri Dec 05 2025 13:49:20 GMT-0600 (Central Standard Time),801497.6000000238,1600,O,m,869,11,1,2495.9000000953674,799001.6999999285,7708,NTS,A,22
8,11,test,4,C,circle.png,1,m,Fri Dec 05 2025 13:49:20 GMT-0600 (Central Standard Time),803580.3999999762,1200,O,m,858,15,1,2069.7999999523163,801510.6000000238,7708,NTS,A,23
7,12,test,4,C,triangle.png,1,z,Fri Dec 05 2025 13:49:20 GMT-0600 (Central Standard Time),806546.3999999762,1700,O,z,1219,22,1,2947.2000000476837,803599.1999999285,7708,NTS,A,24
