acc_sum,block,block_c,condition,correct,correct_response,datetime,endtime,flanker,jitter,project,response,response_test_buffer_response,response_test_target_response,response_time,response_time_test_buffer_response,response_time_test_target_response,row_sel,session_number,start_end,starttime,subject_id,target,task,task_vers,time_test_buffer,time_test_buffer_response,time_test_constants,time_test_flanker,time_test_jitter,time_test_logger,time_test_target,time_test_target_response,time_test_variables,trial
1,prac,1,con,1,m,Tue Dec 02 2025 14:07:13 GMT-0600 (Central Standard Time),150887.20000001788,zinc,1000,I,m,,,1650,,,15,,3961.0,146926.20000001788,7713,zinc,NF,C,,,,,,,,,,1
1,prac,1,inc,0,z,Tue Dec 02 2025 14:07:13 GMT-0600 (Central Standard Time),154086.10000002384,lead,1100,I,m,,,783,,,8,,3193.4000000059605,150892.70000001788,7713,plum,NF,C,,,,,,,,,,2
1,prac,1,inc,0,z,Tue Dec 02 2025 14:07:13 GMT-0600 (Central Standard Time),159251.30000001192,cobalt,1100,I,None,,,1799,,,4,,5160.5,154090.80000001192,7713,raisin,NF,C,,,,,,,,,,3
2,prac,1,inc,1,m,Tue Dec 02 2025 14:07:13 GMT-0600 (Central Standard Time),162633.40000000596,raisin,1100,I,m,,,980,,,12,,3377.4000000059605,159256.0,7713,cobalt,NF,C,,,,,,,,,,4
3,prac,1,con,1,z,Tue Dec 02 2025 14:07:13 GMT-0600 (Central Standard Time),165915.80000001192,kiwi,1000,I,z,,,968,,,7,,3277.9000000059605,162637.90000000596,7713,kiwi,NF,C,,,,,,,,,,5
4,prac,1,inc,1,z,Tue Dec 02 2025 14:07:13 GMT-0600 (Central Standard Time),168998.10000002384,copper,900,I,z,,,866,,,2,,3077.7000000178814,165920.40000000596,7713,cherry,NF,C,,,,,,,,,,6
5,prac,1,con,1,z,Tue Dec 02 2025 14:07:13 GMT-0600 (Central Standard Time),172175.5,orange,1000,I,z,,,821,,,3,,3173.0999999940395,169002.40000000596,7713,orange,NF,C,,,,,,,,,,7
6,prac,1,con,1,z,Tue Dec 02 2025 14:07:13 GMT-0600 (Central Standard Time),174929.80000001192,lime,800,I,z,,,645,,,5,,2749.300000011921,172180.5,7713,lime,NF,C,,,,,,,,,,8
7,prac,1,con,1,m,Tue Dec 02 2025 14:07:13 GMT-0600 (Central Standard Time),177728.90000000596,silver,1000,I,m,,,488,,,11,,2794.699999988079,174934.20000001788,7713,silver,NF,C,,,,,,,,,,9
8,prac,1,inc,1,z,Tue Dec 02 2025 14:07:13 GMT-0600 (Central Standard Time),180510.90000000596,iron,900,I,z,,,572,,,6,,2777.4000000059605,177733.5,7713,pear,NF,C,,,,,,,,,,10
9,prac,1,con,1,z,Tue Dec 02 2025 14:07:13 GMT-0600 (Central Standard Time),183143.60000002384,banana,800,I,z,,,523,,,1,,2627.5,180516.10000002384,7713,banana,NF,C,,,,,,,,,,11
10,prac,1,con,1,m,Tue Dec 02 2025 14:07:13 GMT-0600 (Central Standard Time),185743.80000001192,gold,800,I,m,,,482,,,13,,2594.4000000059605,183149.40000000596,7713,gold,NF,C,,,,,,,,,,12
11,prac,1,inc,1,m,Tue Dec 02 2025 14:07:13 GMT-0600 (Central Standard Time),188691.90000000596,cherry,900,I,m,,,736,,,10,,2943.5999999940395,185748.30000001192,7713,copper,NF,C,,,,,,,,,,13
12,prac,1,inc,1,m,Tue Dec 02 2025 14:07:13 GMT-0600 (Central Standard Time),191657.70000001788,plum,1100,I,m,,,563,,,16,,2961.300000011921,188696.40000000596,7713,lead,NF,C,,,,,,,,,,14
13,prac,1,con,1,m,Tue Dec 02 2025 14:07:13 GMT-0600 (Central Standard Time),194323.60000002384,bronze,800,I,m,,,561,,,9,,2661.600000023842,191662.0,7713,bronze,NF,C,,,,,,,,,,15
14,prac,1,inc,1,m,Tue Dec 02 2025 14:07:13 GMT-0600 (Central Standard Time),197189.20000001788,pear,900,I,m,,,659,,,14,,2861.4000000059605,194327.80000001192,7713,iron,NF,C,,,,,,,,,,16
1,test,1,inc,1,m,Tue Dec 02 2025 14:07:13 GMT-0600 (Central Standard Time),213750.90000000596,raisin,1100,I,m,m,None,552,352.0,200.0,80,,2195.7999999821186,211555.10000002384,7713,copper,NF,C,199382,199382,197553,198666,197553,199749,199182,199182,199749,1
2,test,1,con,1,m,Tue Dec 02 2025 14:07:13 GMT-0600 (Central Standard Time),215783.40000000596,silver,1000,I,m,m,None,492,292.0,200.0,83,,2027.5,213755.90000000596,7713,silver,NF,C,201482,201482,199754,200765,199754,201782,201282,201282,201781,2
3,test,1,inc,1,z,Tue Dec 02 2025 14:07:13 GMT-0600 (Central Standard Time),217966.20000001788,lead,1100,I,z,z,None,535,336.0,199.0,64,,2178.2000000178814,215788.0,7713,plum,NF,C,203614,203614,201786,202898,201786,203964,203415,203415,203964,3
4,test,1,inc,1,m,Tue Dec 02 2025 14:07:13 GMT-0600 (Central Standard Time),220148.80000001192,raisin,1100,I,m,m,None,452,253.0,199.0,96,,2178.5999999940395,217970.20000001788,7713,cobalt,NF,C,205880,205881,203968,205178,203969,206147,205681,205681,206147,4
5,test,1,con,1,z,Tue Dec 02 2025 14:07:13 GMT-0600 (Central Standard Time),222531.5,plum,1000,I,z,z,None,846,646.0,200.0,59,,2378.899999976158,220152.60000002384,7713,plum,NF,C,207880,207880,206151,207164,206151,208530,207680,207680,208530,5
6,test,1,con,1,m,Tue Dec 02 2025 14:07:13 GMT-0600 (Central Standard Time),224763.80000001192,iron,1000,I,m,m,None,696,496.0,200.0,107,,2228.0,222535.80000001192,7713,iron,NF,C,210262,210262,208534,209546,208534,210762,210062,210062,210762,6
7,test,1,inc,1,m,Tue Dec 02 2025 14:07:13 GMT-0600 (Central Standard Time),226763.30000001192,cherry,900,I,m,m,None,555,355.0,200.0,70,,1994.9000000059605,224768.40000000596,7713,bronze,NF,C,212395,212395,210766,211679,210767,212761,212195,212195,212761,7
8,test,1,con,1,z,Tue Dec 02 2025 14:07:13 GMT-0600 (Central Standard Time),229095.90000000596,lime,1100,I,z,z,None,683,483.0,200.0,36,,2328.5,226767.40000000596,7713,lime,NF,C,214594,214594,212765,213878,212766,215094,214394,214394,215094,8
9,test,1,con,1,m,Tue Dec 02 2025 14:07:13 GMT-0600 (Central Standard Time),230962.0,cobalt,900,I,m,m,None,431,231.0,200.0,90,,1862.199999988079,229099.80000001192,7713,cobalt,NF,C,216727,216727,215098,216011,215098,216960,216527,216527,216960,9
10,test,1,inc,1,m,Tue Dec 02 2025 14:07:13 GMT-0600 (Central Standard Time),232811.20000001788,banana,800,I,m,m,None,505,305.0,200.0,85,,1844.7000000178814,230966.5,7713,silver,NF,C,218493,218493,216965,217777,216965,218809,218293,218293,218809,10
11,test,1,inc,1,z,Tue Dec 02 2025 14:07:13 GMT-0600 (Central Standard Time),235160.5,cobalt,1100,I,z,z,None,716,516.0,200.0,16,,2344.699999988079,232815.80000001192,7713,cherry,NF,C,220642,220642,218814,219926,218814,221159,220442,220442,221158,11
12,test,1,inc,1,z,Tue Dec 02 2025 14:07:13 GMT-0600 (Central Standard Time),237160.10000002384,bronze,800,I,z,z,None,657,458.0,199.0,5,,1995.6000000238419,235164.5,7713,banana,NF,C,222692,222692,221163,221975,221163,223158,222492,222492,223158,12
13,test,1,inc,1,z,Tue Dec 02 2025 14:07:13 GMT-0600 (Central Standard Time),239076.20000001788,gold,800,I,z,z,None,571,371.0,200.0,45,,1911.800000011921,237164.40000000596,7713,pear,NF,C,224691,224691,223162,223975,223163,225074,224491,224491,225074,13
14,test,1,con,1,m,Tue Dec 02 2025 14:07:13 GMT-0600 (Central Standard Time),240975.60000002384,silver,800,I,m,m,None,551,351.0,200.0,81,,1895.300000011921,239080.30000001192,7713,silver,NF,C,226607,226607,225078,225891,225079,226974,226407,226407,226974,14
15,test,1,inc,1,z,Tue Dec 02 2025 14:07:13 GMT-0600 (Central Standard Time),243024.80000001192,copper,900,I,z,z,None,605,406.0,199.0,22,,2044.9000000059605,240979.90000000596,7713,orange,NF,C,228607,228607,226978,227890,226978,229023,228407,228407,229023,15
16,test,1,inc,1,m,Tue Dec 02 2025 14:07:13 GMT-0600 (Central Standard Time),245090.90000000596,orange,1000,I,m,m,None,530,330.0,200.0,87,,2062.0,243028.90000000596,7713,silver,NF,C,230756,230756,229027,230040,229027,231089,230556,230556,231089,16
17,test,1,inc,1,z,Tue Dec 02 2025 14:07:13 GMT-0600 (Central Standard Time),247273.5,zinc,1000,I,z,z,None,639,440.0,199.0,39,,2177.5999999940395,245095.90000000596,7713,lime,NF,C,232822,232822,231094,232106,231094,233272,232622,232622,233272,17
18,test,1,con,1,z,Tue Dec 02 2025 14:07:13 GMT-0600 (Central Standard Time),249206.30000001192,banana,800,I,z,z,None,584,385.0,199.0,1,,1928.699999988079,247277.60000002384,7713,banana,NF,C,234805,234805,233276,234089,233276,235204,234605,234605,235204,18
19,test,1,inc,1,m,Tue Dec 02 2025 14:07:13 GMT-0600 (Central Standard Time),251222.20000001788,pear,900,I,m,m,None,577,377.0,200.0,126,,2012.0,249210.20000001788,7713,lead,NF,C,236837,236837,235208,236121,235208,237220,236637,236637,237220,19
20,test,1,con,1,z,Tue Dec 02 2025 14:07:13 GMT-0600 (Central Standard Time),253538.10000002384,pear,1100,I,z,z,None,680,481.0,199.0,44,,2311.9000000059605,251226.20000001788,7713,pear,NF,C,239053,239053,237224,238337,237224,239536,238854,238854,239536,20
21,test,1,con,1,z,Tue Dec 02 2025 14:07:13 GMT-0600 (Central Standard Time),255687.5,orange,900,I,z,z,None,700,500.0,200.0,18,,2145.5,253542.0,7713,orange,NF,C,241170,241170,239540,240453,239540,241686,240969,240969,241686,21
22,test,1,con,1,m,Tue Dec 02 2025 14:07:13 GMT-0600 (Central Standard Time),257786.80000001192,lead,1100,I,m,m,None,463,262.0,201.0,124,,2094.5,255692.30000001192,7713,lead,NF,C,243520,243520,241690,242802,241691,243785,243319,243319,243785,22
23,test,1,con,1,z,Tue Dec 02 2025 14:07:13 GMT-0600 (Central Standard Time),259703.10000002384,plum,800,I,z,z,None,591,376.0,215.0,57,,1911.800000011921,257791.30000001192,7713,plum,NF,C,245318,245318,243789,244601,243790,245701,245103,245103,245701,23
24,test,1,inc,1,m,Tue Dec 02 2025 14:07:13 GMT-0600 (Central Standard Time),261985.30000001192,plum,1100,I,m,m,None,647,447.0,200.0,120,,2278.0999999940395,259707.20000001788,7713,zinc,NF,C,247534,247534,245705,246818,245705,247983,247334,247334,247983,24
25,test,1,inc,1,z,Tue Dec 02 2025 14:07:13 GMT-0600 (Central Standard Time),263968.40000000596,gold,800,I,z,z,None,640,441.0,199.0,61,,1979.0,261989.40000000596,7713,plum,NF,C,249517,249517,247987,248800,247988,249966,249317,249317,249966,25
26,test,1,inc,1,m,Tue Dec 02 2025 14:07:13 GMT-0600 (Central Standard Time),266234.2000000179,plum,1100,I,m,m,None,621,422.0,199.0,128,,2261.4000000059605,263972.8000000119,7713,lead,NF,C,251800,251800,249971,251084,249971,252232,251599,251600,252232,26
27,test,1,inc,1,z,Tue Dec 02 2025 14:07:13 GMT-0600 (Central Standard Time),268067.0,bronze,800,I,z,z,None,489,289.0,200.0,13,,1828.7999999821186,266238.2000000179,7713,cherry,NF,C,253765,253765,252236,253049,252237,254065,253565,253565,254065,27
28,test,1,con,1,m,Tue Dec 02 2025 14:07:13 GMT-0600 (Central Standard Time),270299.40000000596,copper,1100,I,m,m,None,596,396.0,200.0,76,,2228.199999988079,268071.2000000179,7713,copper,NF,C,255898,255898,254069,255183,254069,256297,255698,255698,256297,28
29,test,1,inc,1,m,Tue Dec 02 2025 14:07:13 GMT-0600 (Central Standard Time),272549.10000002384,orange,1000,I,m,m,None,711,511.0,200.0,79,,2246.100000023842,270303.0,7713,copper,NF,C,258031,258031,256301,257314,256301,258547,257831,257831,258547,29
30,test,1,inc,1,m,Tue Dec 02 2025 14:07:13 GMT-0600 (Central Standard Time),274648.40000000596,orange,1000,I,m,m,None,550,350.0,200.0,95,,2095.199999988079,272553.2000000179,7713,cobalt,NF,C,260280,260280,258551,259564,258551,260647,260080,260080,260646,30
31,test,1,con,1,m,Tue Dec 02 2025 14:07:13 GMT-0600 (Central Standard Time),276580.90000000596,iron,900,I,m,m,None,485,286.0,199.0,106,,1928.9000000059605,274652.0,7713,iron,NF,C,262279,262279,260650,261563,260650,262579,262080,262080,262579,31
32,test,1,con,1,z,Tue Dec 02 2025 14:07:13 GMT-0600 (Central Standard Time),278713.5,cherry,1000,I,z,z,None,597,397.0,200.0,11,,2129.0,276584.5,7713,cherry,NF,C,264312,264312,262583,263596,262583,264712,264112,264112,264712,32
33,test,1,inc,1,m,Tue Dec 02 2025 14:07:13 GMT-0600 (Central Standard Time),280913.0,orange,1000,I,m,m,None,657,457.0,200.0,71,,2195.7999999821186,278717.2000000179,7713,bronze,NF,C,266445,266445,264715,265728,264715,266911,266245,266245,266911,33
34,test,1,con,1,m,Tue Dec 02 2025 14:07:13 GMT-0600 (Central Standard Time),282745.60000002384,bronze,800,I,m,m,None,498,298.0,200.0,65,,1828.800000011921,280916.8000000119,7713,bronze,NF,C,268444,268444,266915,267728,266915,268744,268244,268244,268744,34
35,test,1,con,1,z,Tue Dec 02 2025 14:07:13 GMT-0600 (Central Standard Time),284711.7000000179,raisin,900,I,z,z,None,533,333.0,200.0,26,,1962.5,282749.2000000179,7713,raisin,NF,C,270377,270377,268747,269661,268747,270710,270177,270177,270710,35
36,test,1,inc,1,z,Tue Dec 02 2025 14:07:13 GMT-0600 (Central Standard Time),287161.3000000119,silver,1000,I,z,z,None,907,707.0,200.0,15,,2445.5999999940395,284715.7000000179,7713,cherry,NF,C,272443,272443,270714,271726,270714,273159,272243,272243,273159,36
37,test,1,con,1,z,Tue Dec 02 2025 14:07:13 GMT-0600 (Central Standard Time),289276.8000000119,plum,900,I,z,z,None,668,469.0,199.0,58,,2111.9000000059605,287164.90000000596,7713,plum,NF,C,274792,274792,273163,274076,273163,275275,274593,274593,275275,37
38,test,1,con,1,z,Tue Dec 02 2025 14:07:13 GMT-0600 (Central Standard Time),291443.2000000179,cherry,1100,I,z,z,None,522,322.0,200.0,12,,2162.0,289281.2000000179,7713,cherry,NF,C,277108,277108,275279,276392,275280,277441,276908,276908,277441,38
39,test,1,inc,1,m,Tue Dec 02 2025 14:07:13 GMT-0600 (Central Standard Time),293625.7000000179,raisin,1100,I,m,m,None,540,340.0,200.0,88,,2178.800000011921,291446.90000000596,7713,silver,NF,C,279274,279274,277445,278558,277445,279624,279074,279074,279624,39
40,test,1,inc,1,z,Tue Dec 02 2025 14:07:13 GMT-0600 (Central Standard Time),295508.5,gold,800,I,z,z,None,537,337.0,200.0,53,,1878.8999999761581,293629.60000002384,7713,kiwi,NF,C,281157,281157,279628,280440,279628,281507,280957,280957,281506,40
41,test,1,inc,1,z,Tue Dec 02 2025 14:07:13 GMT-0600 (Central Standard Time),297791.0,lead,1100,I,z,z,None,641,441.0,200.0,40,,2278.2999999821186,295512.7000000179,7713,lime,NF,C,283340,283340,281511,282623,281511,283789,283139,283139,283789,41
42,test,1,con,1,m,Tue Dec 02 2025 14:07:13 GMT-0600 (Central Standard Time),299673.60000002384,silver,900,I,m,m,None,448,248.0,200.0,82,,1879.1000000238419,297794.5,7713,silver,NF,C,285422,285422,283793,284706,283793,285672,285222,285222,285672,42
43,test,1,con,1,m,Tue Dec 02 2025 14:07:13 GMT-0600 (Central Standard Time),301823.60000002384,gold,1000,I,m,m,None,615,416.0,199.0,99,,2146.2000000178814,299677.40000000596,7713,gold,NF,C,287405,287405,285675,286688,285676,287822,287205,287205,287822,43
44,test,1,inc,1,z,Tue Dec 02 2025 14:07:13 GMT-0600 (Central Standard Time),304073.40000000596,cobalt,1100,I,z,z,None,616,416.0,200.0,8,,2246.4000000059605,301827.0,7713,banana,NF,C,289654,289654,287825,288938,287825,290071,289454,289454,290071,44
45,test,1,inc,1,z,Tue Dec 02 2025 14:07:13 GMT-0600 (Central Standard Time),306188.40000000596,silver,1000,I,z,z,None,571,371.0,200.0,31,,2111.2999999821186,304077.10000002384,7713,raisin,NF,C,291803,291803,290075,291087,290075,292186,291603,291603,292186,45
46,test,1,inc,1,z,Tue Dec 02 2025 14:07:13 GMT-0600 (Central Standard Time),308321.0,iron,900,I,z,z,None,690,491.0,199.0,62,,2128.2999999821186,306192.7000000179,7713,plum,NF,C,293819,293819,292191,293103,292191,294319,293620,293620,294319,46
47,test,1,inc,1,m,Tue Dec 02 2025 14:07:13 GMT-0600 (Central Standard Time),310586.8000000119,plum,1100,I,m,m,None,622,422.0,200.0,112,,2261.800000011921,308325.0,7713,iron,NF,C,296152,296152,294323,295435,294323,296585,295952,295952,296585,47
48,test,1,inc,1,z,Tue Dec 02 2025 14:07:13 GMT-0600 (Central Standard Time),312569.8000000119,copper,900,I,z,z,None,547,347.0,200.0,6,,1979.0,310590.8000000119,7713,banana,NF,C,298218,298219,296589,297502,296589,298568,298018,298018,298568,48
49,test,1,con,1,z,Tue Dec 02 2025 14:07:13 GMT-0600 (Central Standard Time),314819.10000002384,plum,1100,I,z,z,None,605,405.0,200.0,60,,2245.600000023842,312573.5,7713,plum,NF,C,300401,300401,298572,299684,298572,300817,300201,300201,300817,49
50,test,1,inc,1,m,Tue Dec 02 2025 14:07:13 GMT-0600 (Central Standard Time),316835.2000000179,lime,800,I,m,m,None,680,480.0,200.0,125,,2012.5,314822.7000000179,7713,lead,NF,C,302350,302350,300821,301634,300821,302833,302150,302150,302833,50
51,test,1,inc,1,m,Tue Dec 02 2025 14:07:13 GMT-0600 (Central Standard Time),318751.90000000596,banana,800,I,m,m,None,584,384.0,200.0,93,,1912.7999999821186,316839.10000002384,7713,cobalt,NF,C,304366,304366,302837,303650,302837,304750,304166,304166,304750,51
52,test,1,con,1,m,Tue Dec 02 2025 14:07:13 GMT-0600 (Central Standard Time),320700.5,gold,800,I,m,m,None,612,412.0,200.0,97,,1944.699999988079,318755.8000000119,7713,gold,NF,C,306282,306282,304754,305566,304754,306699,306082,306082,306699,52
53,test,1,con,1,z,Tue Dec 02 2025 14:07:13 GMT-0600 (Central Standard Time),322949.7000000179,pear,1000,I,z,z,None,709,494.0,215.0,43,,2245.0,320704.7000000179,7713,pear,NF,C,308448,308448,306703,307715,306703,308948,308233,308233,308948,53
54,test,1,inc,1,z,Tue Dec 02 2025 14:07:13 GMT-0600 (Central Standard Time),324932.3000000119,copper,900,I,z,z,None,544,345.0,199.0,14,,1978.800000011921,322953.5,7713,cherry,NF,C,310580,310580,308952,309865,308952,310930,310381,310381,310930,54
55,test,1,inc,1,m,Tue Dec 02 2025 14:07:13 GMT-0600 (Central Standard Time),327031.60000002384,cherry,900,I,m,m,None,658,457.0,201.0,94,,2095.2000000178814,324936.40000000596,7713,cobalt,NF,C,312564,312564,310934,311847,310935,313030,312363,312363,313030,55
56,test,1,con,1,z,Tue Dec 02 2025 14:07:13 GMT-0600 (Central Standard Time),329347.60000002384,raisin,1100,I,z,z,None,670,471.0,199.0,28,,2312.100000023842,327035.5,7713,raisin,NF,C,314862,314862,313034,314146,313034,315346,314663,314663,315346,56
56,test,1,inc,0,m,Tue Dec 02 2025 14:07:13 GMT-0600 (Central Standard Time),331197.3000000119,banana,800,I,z,z,None,502,302.0,200.0,69,,1845.5999999940395,329351.7000000179,7713,bronze,NF,C,316879,316879,315350,316162,315350,317195,316679,316679,317195,57
57,test,1,con,1,m,Tue Dec 02 2025 14:07:13 GMT-0600 (Central Standard Time),333496.60000002384,cobalt,1000,I,m,m,None,758,558.0,200.0,91,,2294.9000000059605,331201.7000000179,7713,cobalt,NF,C,318928,318928,317200,318212,317200,319495,318728,318728,319495,58
58,test,1,con,1,m,Tue Dec 02 2025 14:07:13 GMT-0600 (Central Standard Time),335446.0,bronze,900,I,m,m,None,501,302.0,199.0,66,,1945.5,333500.5,7713,bronze,NF,C,321128,321128,319499,320411,319499,321444,320928,320928,321444,59
59,test,1,con,1,z,Tue Dec 02 2025 14:07:13 GMT-0600 (Central Standard Time),337728.60000002384,kiwi,1000,I,z,z,None,653,450.0,203.0,51,,2279.0,335449.60000002384,7713,kiwi,NF,C,323260,323260,321448,322460,321448,323727,323057,323057,323727,60
60,test,1,inc,1,m,Tue Dec 02 2025 14:07:13 GMT-0600 (Central Standard Time),339944.40000000596,kiwi,1000,I,m,m,None,673,474.0,199.0,127,,2212.199999988079,337732.2000000179,7713,lead,NF,C,325460,325460,323730,324743,323730,325943,325260,325260,325942,61
61,test,1,con,1,m,Tue Dec 02 2025 14:07:13 GMT-0600 (Central Standard Time),342293.60000002384,silver,1100,I,m,m,None,701,502.0,199.0,84,,2345.4000000059605,339948.2000000179,7713,silver,NF,C,327776,327776,325946,327059,325946,328292,327576,327576,328292,62
62,test,1,con,1,z,Tue Dec 02 2025 14:07:13 GMT-0600 (Central Standard Time),344376.40000000596,lime,900,I,z,z,None,648,449.0,199.0,34,,2078.9000000059605,342297.5,7713,lime,NF,C,329925,329925,328296,329208,328296,330375,329725,329725,330374,63
63,test,1,con,1,m,Tue Dec 02 2025 14:07:13 GMT-0600 (Central Standard Time),346559.2000000179,gold,1100,I,m,m,None,532,333.0,199.0,100,,2178.800000011921,344380.40000000596,7713,gold,NF,C,332208,332208,330378,331491,330379,332557,332008,332008,332557,64
64,test,1,con,1,m,Tue Dec 02 2025 14:07:13 GMT-0600 (Central Standard Time),348408.3000000119,zinc,800,I,m,m,None,516,316.0,200.0,113,,1845.300000011921,346563.0,7713,zinc,NF,C,334090,334090,332561,333373,332561,334406,333890,333890,334406,65
65,test,1,inc,1,z,Tue Dec 02 2025 14:07:13 GMT-0600 (Central Standard Time),350491.2000000179,silver,1000,I,z,z,None,537,338.0,199.0,7,,2079.0999999940395,348412.10000002384,7713,banana,NF,C,336140,336140,334410,335423,334410,336489,335940,335940,336489,66
66,test,1,con,1,m,Tue Dec 02 2025 14:07:13 GMT-0600 (Central Standard Time),352840.2000000179,cobalt,1100,I,m,m,None,715,515.0,200.0,92,,2345.4000000059605,350494.8000000119,7713,cobalt,NF,C,338322,338322,336493,337606,336493,338838,338122,338122,338838,67
67,test,1,con,1,m,Tue Dec 02 2025 14:07:13 GMT-0600 (Central Standard Time),354956.60000002384,copper,1000,I,m,m,None,570,370.0,200.0,75,,2112.300000011921,352844.3000000119,7713,copper,NF,C,340572,340572,338842,339855,338843,340955,340371,340371,340955,68
68,test,1,inc,1,z,Tue Dec 02 2025 14:07:13 GMT-0600 (Central Standard Time),356856.2000000179,iron,900,I,z,z,None,465,266.0,199.0,46,,1895.7000000178814,354960.5,7713,pear,NF,C,342588,342588,340959,341871,340959,342854,342388,342388,342854,69
68,test,1,con,0,z,Tue Dec 02 2025 14:07:13 GMT-0600 (Central Standard Time),358955.3000000119,banana,1000,I,m,m,None,555,355.0,200.0,3,,2095.4000000059605,356859.90000000596,7713,banana,NF,C,344587,344587,342858,343870,342858,344953,344387,344387,344953,70
69,test,1,con,1,z,Tue Dec 02 2025 14:07:13 GMT-0600 (Central Standard Time),361021.3000000119,raisin,800,I,z,z,None,719,519.0,200.0,25,,2062.300000011921,358959.0,7713,raisin,NF,C,346486,346486,344957,345770,344957,347019,346286,346286,347019,71
70,test,1,inc,1,z,Tue Dec 02 2025 14:07:13 GMT-0600 (Central Standard Time),363287.10000002384,cobalt,1100,I,z,z,None,626,426.0,200.0,32,,2262.300000011921,361024.8000000119,7713,raisin,NF,C,348852,348852,347023,348136,347023,349285,348652,348652,349285,72
71,test,1,con,1,z,Tue Dec 02 2025 14:07:13 GMT-0600 (Central Standard Time),365319.8000000119,raisin,1000,I,z,z,None,492,292.0,200.0,27,,2029.0999999940395,363290.7000000179,7713,raisin,NF,C,351018,351018,349289,350302,349289,351318,350818,350818,351318,73
72,test,1,inc,1,m,Tue Dec 02 2025 14:07:13 GMT-0600 (Central Standard Time),367302.7000000179,lime,800,I,m,m,None,635,435.0,200.0,109,,1979.0,365323.7000000179,7713,iron,NF,C,352851,352851,351322,352135,351322,353301,352651,352651,353301,74
73,test,1,inc,1,z,Tue Dec 02 2025 14:07:13 GMT-0600 (Central Standard Time),369418.7000000179,zinc,1000,I,z,z,None,578,379.0,199.0,63,,2111.7000000178814,367307.0,7713,plum,NF,C,355034,355034,353305,354317,353305,355417,354834,354834,355417,75
74,test,1,inc,1,m,Tue Dec 02 2025 14:07:13 GMT-0600 (Central Standard Time),371401.3000000119,cherry,900,I,m,m,None,548,348.0,200.0,86,,1978.199999988079,369423.10000002384,7713,silver,NF,C,357050,357050,355421,356334,355421,357399,356850,356850,357399,76
75,test,1,inc,1,z,Tue Dec 02 2025 14:07:13 GMT-0600 (Central Standard Time),373417.3000000119,iron,900,I,z,z,None,574,374.0,200.0,54,,2012.0999999940395,371405.2000000179,7713,kiwi,NF,C,359032,359032,357403,358316,357404,359415,358832,358832,359415,77
76,test,1,inc,1,z,Tue Dec 02 2025 14:07:13 GMT-0600 (Central Standard Time),375301.10000002384,bronze,800,I,z,z,None,545,345.0,200.0,29,,1879.800000011921,373421.3000000119,7713,raisin,NF,C,360949,360949,359419,360232,359420,361299,360748,360748,361299,78
76,test,1,inc,0,m,Tue Dec 02 2025 14:07:13 GMT-0600 (Central Standard Time),377249.5,kiwi,1000,I,z,z,None,429,214.0,215.0,119,,1944.5999999940395,375304.90000000596,7713,zinc,NF,C,363031,363031,361303,362314,361303,363248,362816,362816,363247,79
77,test,1,inc,1,z,Tue Dec 02 2025 14:07:13 GMT-0600 (Central Standard Time),379465.3000000119,lead,1100,I,z,z,None,581,382.0,199.0,56,,2212.0999999940395,377253.2000000179,7713,kiwi,NF,C,365080,365080,363251,364364,363251,365463,364881,364881,365463,80
78,test,1,con,1,z,Tue Dec 02 2025 14:07:13 GMT-0600 (Central Standard Time),381498.5,lime,1000,I,z,z,None,488,289.0,199.0,35,,2029.5,379469.0,7713,lime,NF,C,367196,367196,365467,366480,365467,367497,366997,366997,367496,81
79,test,1,con,1,m,Tue Dec 02 2025 14:07:13 GMT-0600 (Central Standard Time),383797.5,zinc,1000,I,m,m,None,761,561.0,200.0,115,,2295.5,381502.0,7713,zinc,NF,C,369229,369229,367500,368513,367500,369796,369029,369029,369796,82
80,test,1,con,1,z,Tue Dec 02 2025 14:07:13 GMT-0600 (Central Standard Time),385880.3000000119,orange,1000,I,z,z,None,534,334.0,200.0,19,,2078.699999988079,383801.60000002384,7713,orange,NF,C,371528,371528,369800,370812,369800,371878,371328,371328,371878,83
81,test,1,con,1,m,Tue Dec 02 2025 14:07:13 GMT-0600 (Central Standard Time),388313.0,lead,1000,I,m,m,None,890,691.0,199.0,123,,2428.899999976158,385884.10000002384,7713,lead,NF,C,373611,373611,371882,372895,371882,374311,373412,373412,374311,84
82,test,1,con,1,z,Tue Dec 02 2025 14:07:13 GMT-0600 (Central Standard Time),390212.3000000119,orange,800,I,z,z,None,562,362.0,200.0,17,,1895.699999988079,388316.60000002384,7713,orange,NF,C,375844,375844,374315,375127,374315,376210,375644,375644,376210,85
83,test,1,con,1,m,Tue Dec 02 2025 14:07:13 GMT-0600 (Central Standard Time),392178.3000000119,lead,800,I,m,m,None,631,431.0,200.0,121,,1962.4000000059605,390215.90000000596,7713,lead,NF,C,377743,377743,376214,377027,376214,378176,377543,377543,378176,86
84,test,1,con,1,m,Tue Dec 02 2025 14:07:13 GMT-0600 (Central Standard Time),394160.8000000119,iron,800,I,m,m,None,639,440.0,199.0,105,,1978.300000011921,392182.5,7713,iron,NF,C,379710,379710,378181,378993,378181,380159,379510,379510,380159,87
85,test,1,con,1,m,Tue Dec 02 2025 14:07:13 GMT-0600 (Central Standard Time),395960.40000000596,cobalt,800,I,m,m,None,458,258.0,200.0,89,,1795.2999999821186,394165.10000002384,7713,cobalt,NF,C,381692,381692,380163,380976,380163,381958,381492,381492,381958,88
86,test,1,inc,1,z,Tue Dec 02 2025 14:07:13 GMT-0600 (Central Standard Time),397776.3000000119,gold,800,I,z,z,None,482,282.0,200.0,37,,1812.199999988079,395964.10000002384,7713,lime,NF,C,383492,383492,381962,382775,381962,383774,383291,383291,383774,89
87,test,1,con,1,m,Tue Dec 02 2025 14:07:13 GMT-0600 (Central Standard Time),399642.7000000179,copper,800,I,m,m,None,521,322.0,199.0,73,,1862.5999999940395,397780.10000002384,7713,copper,NF,C,385308,385308,383778,384591,383778,385641,385108,385108,385641,90
88,test,1,inc,1,z,Tue Dec 02 2025 14:07:13 GMT-0600 (Central Standard Time),401558.5,iron,900,I,z,z,None,475,275.0,200.0,38,,1912.0,399646.5,7713,lime,NF,C,387274,387274,385645,386557,385645,387557,387073,387073,387557,91
89,test,1,inc,1,m,Tue Dec 02 2025 14:07:13 GMT-0600 (Central Standard Time),403424.60000002384,lime,800,I,m,m,None,540,341.0,199.0,101,,1862.5,401562.10000002384,7713,gold,NF,C,389073,389073,387560,388373,387560,389423,388874,388874,389423,92
90,test,1,inc,1,z,Tue Dec 02 2025 14:07:13 GMT-0600 (Central Standard Time),405357.40000000596,bronze,800,I,z,z,None,594,394.0,200.0,21,,1929.0,403428.40000000596,7713,orange,NF,C,390956,390956,389426,390239,389427,391355,390756,390756,391355,93
91,test,1,inc,1,z,Tue Dec 02 2025 14:07:13 GMT-0600 (Central Standard Time),407573.2000000179,silver,1000,I,z,z,None,669,470.0,199.0,23,,2212.0999999940395,405361.10000002384,7713,orange,NF,C,393088,393088,391359,392372,391359,393571,392889,392889,393571,94
92,test,1,inc,1,z,Tue Dec 02 2025 14:07:13 GMT-0600 (Central Standard Time),409839.0,lead,1100,I,z,z,None,624,425.0,199.0,48,,2262.199999988079,407576.8000000119,7713,pear,NF,C,395404,395404,393575,394688,393575,395837,395205,395205,395837,95
93,test,1,con,1,z,Tue Dec 02 2025 14:07:13 GMT-0600 (Central Standard Time),412171.90000000596,banana,1100,I,z,z,None,688,488.0,200.0,4,,2328.7999999821186,409843.10000002384,7713,banana,NF,C,397670,397670,395841,396954,395841,398170,397470,397470,398170,96
94,test,1,con,1,m,Tue Dec 02 2025 14:07:13 GMT-0600 (Central Standard Time),414587.8000000119,iron,1100,I,m,m,None,779,579.0,200.0,108,,2412.0999999940395,412175.7000000179,7713,iron,NF,C,400003,400003,398174,399286,398174,400586,399803,399803,400586,97
95,test,1,inc,1,m,Tue Dec 02 2025 14:07:13 GMT-0600 (Central Standard Time),416770.3000000119,pear,900,I,m,m,None,747,547.0,200.0,118,,2178.699999988079,414591.60000002384,7713,zinc,NF,C,402219,402219,400590,401502,400590,402768,402019,402019,402768,98
96,test,1,inc,1,z,Tue Dec 02 2025 14:07:13 GMT-0600 (Central Standard Time),419003.0,zinc,1000,I,z,z,None,695,496.0,199.0,55,,2228.699999988079,416774.3000000119,7713,kiwi,NF,C,404501,404501,402772,403785,402773,405001,404302,404302,405001,99
97,test,1,inc,1,z,Tue Dec 02 2025 14:07:13 GMT-0600 (Central Standard Time),421318.90000000596,cobalt,1100,I,z,z,None,676,476.0,200.0,24,,2312.0999999940395,419006.8000000119,7713,orange,NF,C,406834,406834,405005,406118,405005,407317,406634,406634,407317,100
98,test,1,con,1,z,Tue Dec 02 2025 14:07:13 GMT-0600 (Central Standard Time),423368.10000002384,cherry,800,I,z,z,None,708,508.0,200.0,9,,2045.800000011921,421322.3000000119,7713,cherry,NF,C,408850,408850,407320,408134,407321,409366,408650,408650,409366,101
99,test,1,con,1,m,Tue Dec 02 2025 14:07:13 GMT-0600 (Central Standard Time),425650.8000000119,zinc,1100,I,m,m,None,647,446.0,201.0,116,,2279.0999999940395,423371.7000000179,7713,zinc,NF,C,411200,411200,409370,410483,409370,411649,410999,410999,411649,102
100,test,1,con,1,m,Tue Dec 02 2025 14:07:13 GMT-0600 (Central Standard Time),427933.60000002384,bronze,1100,I,m,m,None,643,443.0,200.0,68,,2278.9000000059605,425654.7000000179,7713,bronze,NF,C,413482,413482,411653,412766,411653,413932,413282,413282,413932,103
101,test,1,inc,1,m,Tue Dec 02 2025 14:07:13 GMT-0600 (Central Standard Time),430033.10000002384,pear,900,I,m,m,None,649,450.0,199.0,102,,2094.600000023842,427938.5,7713,gold,NF,C,415565,415565,413937,414848,413937,416031,415365,415365,416031,104
102,test,1,con,1,z,Tue Dec 02 2025 14:07:13 GMT-0600 (Central Standard Time),432215.7000000179,kiwi,1100,I,z,z,None,549,349.0,200.0,52,,2179.0999999940395,430036.60000002384,7713,kiwi,NF,C,417864,417864,416035,417148,416035,418214,417664,417664,418214,105
103,test,1,inc,1,m,Tue Dec 02 2025 14:07:13 GMT-0600 (Central Standard Time),434298.3000000119,pear,900,I,m,m,None,638,439.0,199.0,110,,2078.9000000059605,432219.40000000596,7713,iron,NF,C,419847,419847,418217,419130,418218,420296,419647,419647,420296,106
104,test,1,con,1,m,Tue Dec 02 2025 14:07:13 GMT-0600 (Central Standard Time),436297.8000000119,gold,900,I,m,m,None,565,365.0,200.0,98,,1995.699999988079,434302.10000002384,7713,gold,NF,C,421929,421929,420300,421213,420300,422296,421729,421729,422296,107
105,test,1,con,1,z,Tue Dec 02 2025 14:07:13 GMT-0600 (Central Standard Time),438180.60000002384,lime,800,I,z,z,None,537,337.0,200.0,33,,1879.5,436301.10000002384,7713,lime,NF,C,423829,423829,422299,423112,422299,424179,423629,423629,424179,108
106,test,1,con,1,z,Tue Dec 02 2025 14:07:13 GMT-0600 (Central Standard Time),440264.0,orange,1100,I,z,z,None,433,234.0,199.0,20,,2079.0999999940395,438184.90000000596,7713,orange,NF,C,426011,426011,424183,425295,424183,426262,425812,425812,426262,109
107,test,1,inc,1,z,Tue Dec 02 2025 14:07:13 GMT-0600 (Central Standard Time),442445.8000000119,zinc,1000,I,z,z,None,635,435.0,200.0,47,,2177.9000000059605,440267.90000000596,7713,pear,NF,C,427994,427994,426266,427278,426266,428444,427794,427794,428444,110
108,test,1,con,1,m,Tue Dec 02 2025 14:07:13 GMT-0600 (Central Standard Time),444578.5,zinc,900,I,m,m,None,689,489.0,200.0,114,,2128.5999999940395,442449.90000000596,7713,zinc,NF,C,430077,430077,428448,429360,428448,430577,429877,429877,430576,111
109,test,1,inc,1,m,Tue Dec 02 2025 14:07:13 GMT-0600 (Central Standard Time),446844.5,cherry,900,I,m,m,None,820,621.0,199.0,78,,2261.899999976158,444582.60000002384,7713,copper,NF,C,432209,432209,430581,431493,430581,432843,432010,432010,432843,112
110,test,1,con,1,m,Tue Dec 02 2025 14:07:13 GMT-0600 (Central Standard Time),448843.60000002384,lead,900,I,m,m,None,554,354.0,200.0,122,,1995.5,446848.10000002384,7713,lead,NF,C,434475,434475,432846,433760,432846,434842,434275,434275,434842,113
111,test,1,inc,1,z,Tue Dec 02 2025 14:07:13 GMT-0600 (Central Standard Time),450859.7000000179,copper,900,I,z,z,None,571,371.0,200.0,30,,2012.4000000059605,448847.3000000119,7713,raisin,NF,C,436475,436475,434845,435758,434846,436858,436275,436275,436858,114
112,test,1,inc,1,m,Tue Dec 02 2025 14:07:13 GMT-0600 (Central Standard Time),452759.10000002384,lime,800,I,m,m,None,559,359.0,200.0,117,,1895.6000000238419,450863.5,7713,zinc,NF,C,438391,438391,436862,437674,436862,438757,438191,438191,438757,115
113,test,1,inc,1,m,Tue Dec 02 2025 14:07:13 GMT-0600 (Central Standard Time),455074.90000000596,raisin,1100,I,m,m,None,678,478.0,200.0,72,,2312.199999988079,452762.7000000179,7713,bronze,NF,C,440590,440590,438761,439874,438761,441073,440390,440390,441073,116
114,test,1,inc,1,m,Tue Dec 02 2025 14:07:13 GMT-0600 (Central Standard Time),457274.5,kiwi,1000,I,m,m,None,656,456.0,200.0,103,,2193.699999988079,455080.8000000119,7713,gold,NF,C,442806,442806,441079,442090,441079,443273,442606,442606,443272,117
115,test,1,con,1,z,Tue Dec 02 2025 14:07:13 GMT-0600 (Central Standard Time),459290.5,pear,800,I,z,z,None,680,480.0,200.0,41,,2012.5999999940395,457277.90000000596,7713,pear,NF,C,444805,444805,443276,444089,443276,445289,444605,444605,445289,118
116,test,1,inc,1,m,Tue Dec 02 2025 14:07:13 GMT-0600 (Central Standard Time),461423.10000002384,plum,1100,I,m,m,None,493,293.0,200.0,104,,2128.9000000059605,459294.2000000179,7713,gold,NF,C,447121,447121,445292,446405,445292,447421,446921,446921,447421,119
117,test,1,con,1,m,Tue Dec 02 2025 14:07:13 GMT-0600 (Central Standard Time),463339.2000000179,copper,900,I,m,m,None,480,280.0,200.0,74,,1912.300000011921,461426.90000000596,7713,copper,NF,C,449054,449054,447425,448338,447425,449337,448854,448854,449337,120
118,test,1,con,1,z,Tue Dec 02 2025 14:07:13 GMT-0600 (Central Standard Time),465222.0,banana,900,I,z,z,None,459,244.0,215.0,2,,1879.199999988079,463342.8000000119,7713,banana,NF,C,450970,450970,449341,450254,449341,451220,450755,450755,451220,121
119,test,1,con,1,z,Tue Dec 02 2025 14:07:13 GMT-0600 (Central Standard Time),467204.5,pear,900,I,z,z,None,544,344.0,200.0,42,,1978.8999999761581,465225.60000002384,7713,pear,NF,C,452853,452853,451224,452137,451224,453203,452653,452653,453203,122
120,test,1,con,1,z,Tue Dec 02 2025 14:07:13 GMT-0600 (Central Standard Time),469187.60000002384,kiwi,900,I,z,z,None,554,355.0,199.0,50,,1979.2000000178814,467208.40000000596,7713,kiwi,NF,C,454819,454819,453206,454119,453207,455186,454620,454620,455186,123
121,test,1,con,1,m,Tue Dec 02 2025 14:07:13 GMT-0600 (Central Standard Time),471153.10000002384,bronze,1000,I,m,m,None,432,232.0,200.0,67,,1962.0,469191.10000002384,7713,bronze,NF,C,456918,456918,455189,456202,455189,457151,456718,456718,457151,124
122,test,1,inc,1,m,Tue Dec 02 2025 14:07:13 GMT-0600 (Central Standard Time),473202.90000000596,banana,800,I,m,m,None,705,506.0,199.0,77,,2046.4000000059605,471156.5,7713,copper,NF,C,458684,458684,457155,457968,457155,459201,458485,458485,459201,125
123,test,1,con,1,z,Tue Dec 02 2025 14:07:13 GMT-0600 (Central Standard Time),475202.2000000179,cherry,900,I,z,z,None,564,363.0,201.0,10,,1995.7000000178814,473206.5,7713,cherry,NF,C,460835,460835,459205,460117,459205,461200,460634,460634,461200,126
124,test,1,con,1,z,Tue Dec 02 2025 14:07:13 GMT-0600 (Central Standard Time),477151.5,kiwi,800,I,z,z,None,609,409.0,200.0,49,,1945.699999988079,475205.8000000119,7713,kiwi,NF,C,462733,462733,461204,462017,461204,463150,462533,462533,463150,127
125,test,1,inc,1,m,Tue Dec 02 2025 14:07:13 GMT-0600 (Central Standard Time),479367.40000000596,kiwi,1000,I,m,m,None,666,451.0,215.0,111,,2212.4000000059605,477155.0,7713,iron,NF,C,464899,464899,463153,464166,463153,465365,464684,464684,465365,128
