acc_sum,block,block_c,condition,correct,correct_response,datetime,endtime,flanker,jitter,project,response,response_test_buffer_response,response_test_target_response,response_time,response_time_test_buffer_response,response_time_test_target_response,row_sel,session_number,start_end,starttime,subject_id,target,task,task_vers,time_test_buffer,time_test_buffer_response,time_test_constants,time_test_flanker,time_test_jitter,time_test_logger,time_test_target,time_test_target_response,time_test_variables,trial
1,prac,1,con,1,m,Thu Aug 14 2025 14:32:20 GMT-0500 (Central Daylight Time),80917.89999997616,bell,1000,O,m,,,866,,,3,1,3178.600000023842,77739.29999995232,7200,bell,AF,C,,,,,,,,,,1
2,prac,1,inc,1,z,Thu Aug 14 2025 14:32:20 GMT-0500 (Central Daylight Time),84048.89999997616,rock,900,O,z,,,916,,,10,1,3125.0,80923.89999997616,7200,kind,AF,C,,,,,,,,,,2
3,prac,1,con,1,m,Thu Aug 14 2025 14:32:20 GMT-0500 (Central Daylight Time),87047.19999998808,remote,1000,O,m,,,692,,,7,1,2991.5,84055.69999998808,7200,remote,AF,C,,,,,,,,,,3
4,prac,1,inc,1,z,Thu Aug 14 2025 14:32:20 GMT-0500 (Central Daylight Time),90230.0,napkin,1100,O,z,,,765,,,12,1,3175.300000011921,87054.69999998808,7200,friend,AF,C,,,,,,,,,,4
5,prac,1,con,1,z,Thu Aug 14 2025 14:32:20 GMT-0500 (Central Daylight Time),93478.89999997616,brutal,800,O,z,,,1134,,,13,1,3241.699999988079,90237.19999998808,7200,brutal,AF,C,,,,,,,,,,5
6,prac,1,inc,1,z,Thu Aug 14 2025 14:32:20 GMT-0500 (Central Daylight Time),96644.69999998808,window,1100,O,z,,,761,,,16,1,3159.600000023842,93485.09999996424,7200,temper,AF,C,,,,,,,,,,6
7,prac,1,con,1,z,Thu Aug 14 2025 14:32:20 GMT-0500 (Central Daylight Time),99543.59999996424,rage,1000,O,z,,,593,,,15,1,2891.599999964237,96652.0,7200,rage,AF,C,,,,,,,,,,7
8,prac,1,inc,1,m,Thu Aug 14 2025 14:32:20 GMT-0500 (Central Daylight Time),102626.09999996424,brutal,1100,O,m,,,671,,,8,1,3075.300000011921,99550.79999995232,7200,window,AF,C,,,,,,,,,,8
9,prac,1,con,1,m,Thu Aug 14 2025 14:32:20 GMT-0500 (Central Daylight Time),105490.79999995232,step,800,O,m,,,753,,,1,1,2858.899999976158,102631.89999997616,7200,step,AF,C,,,,,,,,,,9
10,prac,1,inc,1,m,Thu Aug 14 2025 14:32:20 GMT-0500 (Central Daylight Time),108557.19999998808,elated,900,O,m,,,851,,,6,1,3059.5,105497.69999998808,7200,napkin,AF,C,,,,,,,,,,10
11,prac,1,con,1,z,Thu Aug 14 2025 14:32:20 GMT-0500 (Central Daylight Time),111640.5,love,1000,O,z,,,765,,,11,1,3077.600000023842,108562.89999997616,7200,love,AF,C,,,,,,,,,,11
12,prac,1,con,1,z,Thu Aug 14 2025 14:32:20 GMT-0500 (Central Daylight Time),114689.89999997616,elated,800,O,z,,,940,,,9,1,3042.399999976158,111647.5,7200,elated,AF,C,,,,,,,,,,12
13,prac,1,inc,1,z,Thu Aug 14 2025 14:32:20 GMT-0500 (Central Daylight Time),117635.29999995232,film,900,O,z,,,732,,,14,1,2939.399999976158,114695.89999997616,7200,hate,AF,C,,,,,,,,,,13
14,prac,1,con,1,m,Thu Aug 14 2025 14:32:20 GMT-0500 (Central Daylight Time),120869.5,jacket,800,O,m,,,1119,,,5,1,3223.300000011921,117646.19999998808,7200,jacket,AF,C,,,,,,,,,,14
15,prac,1,inc,1,m,Thu Aug 14 2025 14:32:20 GMT-0500 (Central Daylight Time),123918.69999998808,kind,900,O,m,,,832,,,2,1,3042.600000023842,120876.09999996424,7200,rock,AF,C,,,,,,,,,,15
16,prac,1,inc,1,m,Thu Aug 14 2025 14:32:20 GMT-0500 (Central Daylight Time),127135.09999996424,hate,1100,O,m,,,807,,,4,1,3209.300000011921,123925.79999995232,7200,film,AF,C,,,,,,,,,,16
1,test,1,con,1,m,Thu Aug 14 2025 14:32:20 GMT-0500 (Central Daylight Time),147527.29999995232,window,1000,O,m,m,None,659,459.0,200.0,123,1,2189.599999964237,145337.69999998808,7200,window,AF,C,144764,144764,143040,144047,143040,145229,144563,144563,145229,1
2,test,1,inc,1,z,Thu Aug 14 2025 14:32:20 GMT-0500 (Central Daylight Time),149659.79999995232,rock,900,O,z,z,None,696,496.0,200.0,22,1,2126.399999976158,147533.39999997616,7200,love,AF,C,146864,146864,145235,146147,145236,147362,146663,146663,147362,2
3,test,1,inc,1,z,Thu Aug 14 2025 14:32:20 GMT-0500 (Central Daylight Time),152009.89999997616,bell,1000,O,z,z,None,800,585.0,215.0,15,1,2341.5,149668.39999997616,7200,kind,AF,C,149112,149112,147370,148378,147371,149712,148896,148896,149712,3
4,test,1,con,1,m,Thu Aug 14 2025 14:32:20 GMT-0500 (Central Daylight Time),154208.29999995232,jacket,1000,O,m,m,None,650,451.0,199.0,99,1,2189.699999988079,152018.59999996424,7200,jacket,AF,C,151444,151445,149721,150729,149721,151910,151245,151245,151910,4
5,test,1,inc,1,z,Thu Aug 14 2025 14:32:20 GMT-0500 (Central Daylight Time),156507.39999997616,remote,1000,O,z,z,None,754,555.0,199.0,7,1,2289.199999988079,154218.19999998808,7200,elated,AF,C,153644,153644,151920,152927,151921,154209,153444,153444,154209,5
6,test,1,con,1,z,Thu Aug 14 2025 14:32:20 GMT-0500 (Central Daylight Time),158590.09999996424,love,900,O,z,z,None,635,434.0,201.0,18,1,2074.399999976158,156515.69999998808,7200,love,AF,C,155844,155845,154218,155126,154218,156292,155643,155643,156292,6
7,test,1,con,1,z,Thu Aug 14 2025 14:32:20 GMT-0500 (Central Daylight Time),161126.69999998808,brutal,1100,O,z,z,None,889,689.0,200.0,36,1,2529.199999988079,158597.5,7200,brutal,AF,C,158126,158126,156300,157410,156300,158829,157925,157925,158829,7
8,test,1,con,1,z,Thu Aug 14 2025 14:32:20 GMT-0500 (Central Daylight Time),163238.5,brutal,800,O,z,z,None,776,577.0,199.0,33,1,2107.7000000476837,161130.79999995232,7200,brutal,AF,C,160358,160358,158833,159641,158833,160941,160158,160158,160941,8
9,test,1,con,1,z,Thu Aug 14 2025 14:32:20 GMT-0500 (Central Daylight Time),165306.29999995232,rage,1000,O,z,z,None,517,318.0,199.0,51,1,2060.2999999523163,163246.0,7200,rage,AF,C,162675,162675,160948,161959,160948,163008,162475,162475,163008,9
10,test,1,inc,1,m,Thu Aug 14 2025 14:32:20 GMT-0500 (Central Daylight Time),167488.29999995232,temper,1000,O,m,m,None,640,441.0,199.0,111,1,2175.0,165313.29999995232,7200,napkin,AF,C,164742,164742,163015,164025,163016,165190,164542,164542,165190,10
11,test,1,con,1,z,Thu Aug 14 2025 14:32:20 GMT-0500 (Central Daylight Time),169738.59999996424,hate,900,O,z,z,None,800,601.0,199.0,42,1,2244.5,167494.09999996424,7200,hate,AF,C,166824,166824,165196,166107,165197,167441,166624,166624,167441,11
12,test,1,con,1,z,Thu Aug 14 2025 14:32:20 GMT-0500 (Central Daylight Time),172004.5,brutal,1000,O,z,z,None,729,530.0,199.0,35,1,2260.100000023842,169744.39999997616,7200,brutal,AF,C,169174,169174,167446,168457,167447,169707,168974,168974,169706,12
13,test,1,inc,1,m,Thu Aug 14 2025 14:32:20 GMT-0500 (Central Daylight Time),173969.5,elated,800,O,m,m,None,615,400.0,215.0,101,1,1958.300000011921,172011.19999998808,7200,jacket,AF,C,171255,171256,169713,170522,169714,171672,171040,171040,171672,13
14,test,1,con,1,m,Thu Aug 14 2025 14:32:20 GMT-0500 (Central Daylight Time),176601.69999998808,napkin,900,O,m,m,None,1181,982.0,199.0,106,1,2625.600000023842,173976.09999996424,7200,napkin,AF,C,173305,173305,171678,172590,171678,174304,173105,173105,174304,14
15,test,1,inc,1,z,Thu Aug 14 2025 14:32:20 GMT-0500 (Central Daylight Time),178985.09999996424,film,1100,O,z,z,None,735,535.0,200.0,24,1,2377.899999976158,176607.19999998808,7200,love,AF,C,176137,176137,174309,175422,174309,176687,175936,175936,176687,15
16,test,1,inc,1,z,Thu Aug 14 2025 14:32:20 GMT-0500 (Central Daylight Time),181284.79999995232,rock,900,O,z,z,None,850,650.0,200.0,46,1,2294.099999964237,178990.69999998808,7200,hate,AF,C,178321,178321,176693,177603,176693,178987,178120,178120,178987,16
17,test,1,inc,1,z,Thu Aug 14 2025 14:32:20 GMT-0500 (Central Daylight Time),183466.79999995232,jacket,800,O,z,z,None,841,642.0,199.0,37,1,2176.199999988079,181290.59999996424,7200,brutal,AF,C,180519,180519,178993,179803,178993,181169,180319,180319,181169,17
18,test,1,inc,1,m,Thu Aug 14 2025 14:32:20 GMT-0500 (Central Daylight Time),185499.59999996424,rage,800,O,m,m,None,683,484.0,199.0,85,1,2027.800000011921,183471.79999995232,7200,bell,AF,C,182702,182702,181174,181985,181174,183202,182503,182503,183202,18
19,test,1,inc,1,z,Thu Aug 14 2025 14:32:20 GMT-0500 (Central Daylight Time),187632.0,step,800,O,z,z,None,794,593.0,201.0,45,1,2126.5,185505.5,7200,hate,AF,C,184735,184735,183208,184017,183208,185334,184533,184533,185334,19
20,test,1,con,1,m,Thu Aug 14 2025 14:32:20 GMT-0500 (Central Daylight Time),190048.5,napkin,1100,O,m,m,None,766,551.0,215.0,108,1,2411.7000000476837,187636.79999995232,7200,napkin,AF,C,187183,187184,185339,186451,185339,187751,186968,186968,187751,20
21,test,1,con,1,z,Thu Aug 14 2025 14:32:20 GMT-0500 (Central Daylight Time),192646.19999998808,kind,1100,O,z,z,None,952,752.0,200.0,12,1,2592.699999988079,190053.5,7200,kind,AF,C,189583,189583,187756,188867,187756,190348,189383,189383,190348,21
22,test,1,inc,1,z,Thu Aug 14 2025 14:32:20 GMT-0500 (Central Daylight Time),194813.0,napkin,900,O,z,z,None,730,530.0,200.0,6,1,2163.0,192650.0,7200,elated,AF,C,191982,191982,190352,191266,190352,192515,191782,191782,192515,22
23,test,1,inc,1,z,Thu Aug 14 2025 14:32:20 GMT-0500 (Central Daylight Time),197178.5,remote,1000,O,z,z,None,817,618.0,199.0,39,1,2360.300000011921,194818.19999998808,7200,brutal,AF,C,194248,194248,192520,193533,192520,194881,194049,194049,194880,23
24,test,1,con,1,z,Thu Aug 14 2025 14:32:20 GMT-0500 (Central Daylight Time),199478.0,kind,1000,O,z,z,None,760,561.0,199.0,11,1,2292.400000035763,197185.59999996424,7200,kind,AF,C,196615,196615,194888,195899,194888,197180,196415,196415,197180,24
25,test,1,con,1,z,Thu Aug 14 2025 14:32:20 GMT-0500 (Central Daylight Time),202028.5,friend,800,O,z,z,None,1200,1000.0,200.0,25,1,2545.5,199483.0,7200,friend,AF,C,198715,198715,197185,197997,197185,199731,198514,198514,199731,25
26,test,1,inc,1,m,Thu Aug 14 2025 14:32:20 GMT-0500 (Central Daylight Time),204094.59999996424,kind,900,O,m,m,None,630,430.0,200.0,94,1,2061.099999964237,202033.5,7200,film,AF,C,201363,201363,199736,200646,199736,201797,201163,201163,201797,26
27,test,1,con,1,m,Thu Aug 14 2025 14:32:20 GMT-0500 (Central Daylight Time),206459.79999995232,film,1000,O,m,m,None,818,618.0,200.0,91,1,2360.7999999523163,204099.0,7200,film,AF,C,203529,203529,201801,202813,201801,204162,203329,203329,204162,27
28,test,1,inc,1,z,Thu Aug 14 2025 14:32:20 GMT-0500 (Central Daylight Time),208691.69999998808,remote,1000,O,z,z,None,688,488.0,200.0,31,1,2226.400000035763,206465.29999995232,7200,friend,AF,C,205895,205895,204167,205178,204168,206394,205695,205695,206394,28
29,test,1,con,1,m,Thu Aug 14 2025 14:32:20 GMT-0500 (Central Daylight Time),210790.5,rock,900,O,m,m,None,659,459.0,200.0,74,1,2094.100000023842,208696.39999997616,7200,rock,AF,C,208028,208028,206398,207312,206399,208493,207827,207827,208493,29
30,test,1,inc,1,z,Thu Aug 14 2025 14:32:20 GMT-0500 (Central Daylight Time),213224.39999997616,window,1100,O,z,z,None,783,584.0,199.0,64,1,2430.300000011921,210794.09999996424,7200,temper,AF,C,210327,210327,208496,209611,208496,210927,210128,210128,210926,30
31,test,1,con,1,m,Thu Aug 14 2025 14:32:20 GMT-0500 (Central Daylight Time),215822.5,napkin,1000,O,m,m,None,1067,868.0,199.0,107,1,2592.7000000476837,213229.79999995232,7200,napkin,AF,C,212643,212643,210932,211942,210932,213525,212443,212443,213525,31
32,test,1,inc,1,z,Thu Aug 14 2025 14:32:20 GMT-0500 (Central Daylight Time),218104.89999997616,bell,1000,O,z,z,None,739,540.0,199.0,23,1,2277.600000023842,215827.29999995232,7200,love,AF,C,215259,215259,213529,214542,213530,215807,215059,215059,215807,32
33,test,1,inc,1,m,Thu Aug 14 2025 14:32:20 GMT-0500 (Central Daylight Time),220571.5,hate,1100,O,m,m,None,815,616.0,199.0,96,1,2462.0,218109.5,7200,film,AF,C,217642,217642,215812,216926,215812,218274,217442,217442,218274,33
34,test,1,inc,1,m,Thu Aug 14 2025 14:32:20 GMT-0500 (Central Daylight Time),222886.89999997616,temper,1000,O,m,m,None,767,568.0,199.0,119,1,2310.199999988079,220576.69999998808,7200,remote,AF,C,220007,220007,218279,219290,218279,220589,219807,219807,220589,34
35,test,1,inc,1,m,Thu Aug 14 2025 14:32:20 GMT-0500 (Central Daylight Time),225003.89999997616,elated,800,O,m,m,None,781,566.0,215.0,125,1,2111.699999988079,222892.19999998808,7200,window,AF,C,222140,222140,220594,221406,220594,222706,221924,221924,222706,35
36,test,1,con,1,m,Thu Aug 14 2025 14:32:20 GMT-0500 (Central Daylight Time),227302.29999995232,remote,1100,O,m,m,None,650,435.0,215.0,116,1,2294.199999988079,225008.09999996424,7200,remote,AF,C,224555,224556,222710,223823,222710,225004,224340,224340,225004,36
37,test,1,con,1,z,Thu Aug 14 2025 14:32:20 GMT-0500 (Central Daylight Time),229385.39999997616,love,1000,O,z,z,None,535,335.0,200.0,19,1,2077.5,227307.89999997616,7200,love,AF,C,226738,226738,225010,226022,225010,227088,226538,226538,227087,37
38,test,1,con,1,m,Thu Aug 14 2025 14:32:20 GMT-0500 (Central Daylight Time),231484.59999996424,film,900,O,m,m,None,649,449.0,200.0,90,1,2093.399999976158,229391.19999998808,7200,film,AF,C,228721,228721,227093,228005,227093,229187,228521,228521,229187,38
39,test,1,inc,1,m,Thu Aug 14 2025 14:32:20 GMT-0500 (Central Daylight Time),233717.29999995232,love,1000,O,m,m,None,696,496.0,200.0,71,1,2228.0,231489.29999995232,7200,step,AF,C,230920,230920,229191,230204,229192,231419,230720,230720,231419,39
40,test,1,inc,1,z,Thu Aug 14 2025 14:32:20 GMT-0500 (Central Daylight Time),236066.79999995232,napkin,900,O,z,z,None,906,706.0,200.0,38,1,2344.5,233722.29999995232,7200,brutal,AF,C,233054,233054,231424,232337,231425,233769,232853,232853,233769,40
41,test,1,con,1,z,Thu Aug 14 2025 14:32:20 GMT-0500 (Central Daylight Time),238349.0,temper,1000,O,z,z,None,731,516.0,215.0,59,1,2276.600000023842,236072.39999997616,7200,temper,AF,C,235519,235519,233774,234785,233775,236051,235302,235303,236051,41
42,test,1,con,1,z,Thu Aug 14 2025 14:32:20 GMT-0500 (Central Daylight Time),240282.19999998808,temper,800,O,z,z,None,592,392.0,200.0,57,1,1928.800000011921,238353.39999997616,7200,temper,AF,C,237585,237585,236055,236868,236056,237984,237385,237385,237984,42
43,test,1,inc,1,z,Thu Aug 14 2025 14:32:20 GMT-0500 (Central Daylight Time),242531.79999995232,bell,1000,O,z,z,None,701,501.0,200.0,55,1,2245.699999988079,240286.09999996424,7200,rage,AF,C,239717,239717,237988,239001,237988,240234,239517,239517,240234,43
44,test,1,inc,1,m,Thu Aug 14 2025 14:32:20 GMT-0500 (Central Daylight Time),245062.89999997616,hate,1100,O,m,m,None,892,693.0,199.0,72,1,2525.399999976158,242537.5,7200,step,AF,C,242066,242066,240240,241351,240240,242765,241867,241867,242765,44
45,test,1,inc,1,m,Thu Aug 14 2025 14:32:20 GMT-0500 (Central Daylight Time),247714.39999997616,temper,1000,O,m,m,None,1116,900.0,216.0,103,1,2647.5,245066.89999997616,7200,jacket,AF,C,244516,244516,242769,243783,242769,245416,244300,244300,245416,45
46,test,1,inc,1,z,Thu Aug 14 2025 14:32:20 GMT-0500 (Central Daylight Time),250345.69999998808,bell,1000,O,z,z,None,1084,884.0,200.0,47,1,2625.699999988079,247720.0,7200,hate,AF,C,247149,247149,245422,246431,245422,248048,246948,246948,248048,46
47,test,1,inc,1,m,Thu Aug 14 2025 14:32:20 GMT-0500 (Central Daylight Time),252625.79999995232,hate,1100,O,m,m,None,654,455.0,199.0,80,1,2275.599999964237,250350.19999998808,7200,rock,AF,C,249864,249864,248052,249163,248052,250328,249665,249665,250328,47
48,test,1,inc,1,z,Thu Aug 14 2025 14:32:20 GMT-0500 (Central Daylight Time),254861.0,remote,1000,O,z,z,None,712,497.0,215.0,63,1,2232.5,252628.5,7200,temper,AF,C,252062,252062,250331,251346,250331,252563,251847,251847,252563,48
49,test,1,con,1,m,Thu Aug 14 2025 14:32:20 GMT-0500 (Central Daylight Time),257209.0,rock,1100,O,m,m,None,708,508.0,200.0,76,1,2341.600000023842,254867.39999997616,7200,rock,AF,C,254395,254395,252569,253680,252570,254911,254195,254195,254911,49
50,test,1,con,1,z,Thu Aug 14 2025 14:32:20 GMT-0500 (Central Daylight Time),259591.59999996424,elated,900,O,z,z,None,934,735.0,199.0,2,1,2376.0,257215.59999996424,7200,elated,AF,C,256544,256544,254918,255828,254918,257294,256344,256344,257294,50
51,test,1,inc,1,z,Thu Aug 14 2025 14:32:20 GMT-0500 (Central Daylight Time),261774.0,step,800,O,z,z,None,845,645.0,200.0,21,1,2173.7000000476837,259600.29999995232,7200,love,AF,C,258827,258827,257302,258110,257303,259476,258626,258626,259476,51
52,test,1,inc,1,m,Thu Aug 14 2025 14:32:20 GMT-0500 (Central Daylight Time),264073.6999999881,friend,1100,O,m,m,None,657,458.0,199.0,104,1,2292.100000023842,261781.59999996424,7200,jacket,AF,C,261309,261309,259484,260593,259484,261776,261110,261110,261776,52
53,test,1,con,1,m,Thu Aug 14 2025 14:32:20 GMT-0500 (Central Daylight Time),266389.09999996424,step,900,O,m,m,None,879,679.0,200.0,66,1,2308.199999988079,264080.89999997616,7200,step,AF,C,263408,263408,261783,262693,261783,264091,263208,263208,264091,53
54,test,1,inc,1,m,Thu Aug 14 2025 14:32:20 GMT-0500 (Central Daylight Time),268506.09999996424,rage,800,O,m,m,None,774,573.0,201.0,93,1,2109.099999964237,266397.0,7200,film,AF,C,265626,265626,264099,264908,264099,266208,265424,265424,266208,54
55,test,1,con,1,m,Thu Aug 14 2025 14:32:20 GMT-0500 (Central Daylight Time),270637.6999999881,jacket,1100,O,m,m,None,498,286.0,212.0,100,1,2122.900000035763,268514.7999999523,7200,jacket,AF,C,268041,268041,266217,267324,266217,268340,267828,267828,268340,55
56,test,1,con,1,m,Thu Aug 14 2025 14:32:20 GMT-0500 (Central Daylight Time),272553.59999996424,window,900,O,m,m,None,482,283.0,199.0,122,1,1907.300000011921,270646.2999999523,7200,window,AF,C,269958,269958,268348,269256,268349,270256,269758,269758,270256,56
57,test,1,con,1,z,Thu Aug 14 2025 14:32:20 GMT-0500 (Central Daylight Time),274451.7999999523,elated,800,O,z,z,None,561,361.0,200.0,1,1,1890.5,272561.2999999523,7200,elated,AF,C,271789,271789,270263,271073,270263,272154,271589,271589,272154,57
58,test,1,con,1,m,Thu Aug 14 2025 14:32:20 GMT-0500 (Central Daylight Time),276502.5,rock,1000,O,m,m,None,508,293.0,215.0,75,1,2047.300000011921,274455.1999999881,7200,rock,AF,C,273906,273906,272157,273172,272157,274205,273690,273690,274205,58
59,test,1,inc,1,z,Thu Aug 14 2025 14:32:20 GMT-0500 (Central Daylight Time),278654.0,rock,900,O,z,z,None,704,504.0,200.0,54,1,2145.5,276508.5,7200,rage,AF,C,275839,275839,274211,275122,274211,276356,275638,275638,276356,59
60,test,1,con,1,m,Thu Aug 14 2025 14:32:20 GMT-0500 (Central Daylight Time),280735.5,bell,800,O,m,m,None,741,542.0,199.0,81,1,2074.7000000476837,278660.7999999523,7200,bell,AF,C,277888,277888,276363,277171,276363,278438,277688,277688,278438,60
61,test,1,con,1,z,Thu Aug 14 2025 14:32:20 GMT-0500 (Central Daylight Time),282817.5,hate,800,O,z,z,None,734,534.0,200.0,41,1,2079.300000011921,280738.1999999881,7200,hate,AF,C,279971,279971,278440,279253,278440,280520,279770,279770,280519,61
62,test,1,inc,1,z,Thu Aug 14 2025 14:32:20 GMT-0500 (Central Daylight Time),285167.6999999881,film,1100,O,z,z,None,701,501.0,200.0,56,1,2343.100000023842,282824.59999996424,7200,rage,AF,C,282354,282354,280527,281637,280527,282870,282153,282153,282870,62
63,test,1,inc,1,z,Thu Aug 14 2025 14:32:20 GMT-0500 (Central Daylight Time),287234.1999999881,jacket,800,O,z,z,None,717,502.0,215.0,29,1,2061.600000023842,285172.59999996424,7200,friend,AF,C,284419,284419,282875,283687,282875,284936,284203,284203,284936,63
64,test,1,inc,1,m,Thu Aug 14 2025 14:32:20 GMT-0500 (Central Daylight Time),289399.5,love,1000,O,m,m,None,618,417.0,201.0,87,1,2161.2000000476837,287238.2999999523,7200,bell,AF,C,286670,286670,284940,285952,284941,287102,286468,286468,287101,64
65,test,1,con,1,m,Thu Aug 14 2025 14:32:20 GMT-0500 (Central Daylight Time),291715.39999997616,bell,1100,O,m,m,None,671,472.0,199.0,84,1,2309.399999976158,289406.0,7200,bell,AF,C,288935,288935,287108,288218,287108,289418,288735,288735,289417,65
66,test,1,con,1,m,Thu Aug 14 2025 14:32:20 GMT-0500 (Central Daylight Time),293981.6999999881,remote,900,O,m,m,None,821,620.0,201.0,114,1,2260.5,291721.1999999881,7200,remote,AF,C,291052,291052,289423,290335,289424,291684,290850,290850,291684,66
67,test,1,con,1,m,Thu Aug 14 2025 14:32:20 GMT-0500 (Central Daylight Time),296431.89999997616,film,1100,O,m,m,None,800,601.0,199.0,92,1,2445.699999988079,293986.1999999881,7200,film,AF,C,293518,293518,291688,292801,291688,294134,293317,293318,294134,67
68,test,1,con,1,m,Thu Aug 14 2025 14:32:20 GMT-0500 (Central Daylight Time),298462.0,remote,1000,O,m,m,None,509,310.0,199.0,115,1,2024.0,296438.0,7200,remote,AF,C,295849,295849,294140,295149,294140,296164,295650,295650,296164,68
69,test,1,con,1,z,Thu Aug 14 2025 14:32:20 GMT-0500 (Central Daylight Time),300862.59999996424,friend,900,O,z,z,None,952,752.0,200.0,26,1,2394.099999964237,298468.5,7200,friend,AF,C,297799,297799,296171,297082,296171,298565,297599,297599,298565,69
70,test,1,inc,1,z,Thu Aug 14 2025 14:32:20 GMT-0500 (Central Daylight Time),303129.09999996424,jacket,800,O,z,z,None,918,718.0,200.0,5,1,2260.5,300868.59999996424,7200,elated,AF,C,300097,300097,298571,299382,298571,300831,299897,299897,300831,70
71,test,1,con,1,z,Thu Aug 14 2025 14:32:20 GMT-0500 (Central Daylight Time),305262.0,rage,800,O,z,z,None,788,588.0,200.0,49,1,2128.0,303134.0,7200,rage,AF,C,302363,302363,300836,301647,300836,302964,302163,302163,302964,71
72,test,1,con,1,m,Thu Aug 14 2025 14:32:20 GMT-0500 (Central Daylight Time),307591.89999997616,step,1100,O,m,m,None,697,498.0,199.0,68,1,2324.0,305267.89999997616,7200,step,AF,C,304780,304780,302970,304079,302970,305294,304581,304581,305294,72
73,test,1,con,1,z,Thu Aug 14 2025 14:32:20 GMT-0500 (Central Daylight Time),310093.6999999881,elated,1100,O,z,z,None,853,653.0,200.0,4,1,2498.900000035763,307594.7999999523,7200,elated,AF,C,307129,307130,305297,306412,305297,307796,306929,306929,307796,73
74,test,1,inc,1,z,Thu Aug 14 2025 14:32:20 GMT-0500 (Central Daylight Time),312090.89999997616,jacket,800,O,z,z,None,648,449.0,199.0,61,1,1990.300000011921,310100.59999996424,7200,temper,AF,C,309329,309329,307803,308612,307803,309793,309129,309129,309793,74
75,test,1,con,1,m,Thu Aug 14 2025 14:32:20 GMT-0500 (Central Daylight Time),314107.7999999523,window,800,O,m,m,None,684,485.0,199.0,121,1,2011.199999988079,312096.59999996424,7200,window,AF,C,311310,311310,309799,310609,309799,311810,311111,311111,311810,75
76,test,1,inc,1,m,Thu Aug 14 2025 14:32:20 GMT-0500 (Central Daylight Time),316058.1999999881,rage,800,O,m,m,None,601,401.0,200.0,69,1,1945.0,314113.1999999881,7200,step,AF,C,313344,313344,311815,312628,311815,313760,313144,313144,313760,76
77,test,1,inc,1,m,Thu Aug 14 2025 14:32:20 GMT-0500 (Central Daylight Time),318241.1999999881,brutal,900,O,m,m,None,743,544.0,199.0,102,1,2178.199999988079,316063.0,7200,jacket,AF,C,315393,315393,313765,314676,313765,315943,315194,315194,315943,77
78,test,1,con,1,m,Thu Aug 14 2025 14:32:20 GMT-0500 (Central Daylight Time),320472.6999999881,bell,900,O,m,m,None,792,592.0,200.0,82,1,2225.199999988079,318247.5,7200,bell,AF,C,317577,317577,315950,316859,315950,318175,317376,317376,318175,78
79,test,1,inc,1,m,Thu Aug 14 2025 14:32:20 GMT-0500 (Central Daylight Time),322572.09999996424,kind,900,O,m,m,None,664,465.0,199.0,70,1,2094.0,320478.09999996424,7200,step,AF,C,319809,319809,318180,319092,318180,320274,319609,319609,320274,79
80,test,1,con,1,m,Thu Aug 14 2025 14:32:20 GMT-0500 (Central Daylight Time),324388.1999999881,step,800,O,m,m,None,466,265.0,201.0,65,1,1812.1000000238419,322576.09999996424,7200,step,AF,C,321809,321809,320278,321091,320278,322090,321608,321608,322090,80
81,test,1,con,1,z,Thu Aug 14 2025 14:32:20 GMT-0500 (Central Daylight Time),326537.6999999881,love,1100,O,z,z,None,507,307.0,200.0,20,1,2144.400000035763,324393.2999999523,7200,love,AF,C,323924,323924,322095,323208,322096,324240,323723,323723,324240,81
82,test,1,con,1,m,Thu Aug 14 2025 14:32:20 GMT-0500 (Central Daylight Time),328953.6999999881,jacket,900,O,m,m,None,974,774.0,200.0,98,1,2411.0,326542.6999999881,7200,jacket,AF,C,325874,325874,324245,325156,324245,326656,325673,325673,326656,82
83,test,1,con,1,z,Thu Aug 14 2025 14:32:20 GMT-0500 (Central Daylight Time),330919.6999999881,love,800,O,z,z,None,625,426.0,199.0,17,1,1961.1000000238419,328958.59999996424,7200,love,AF,C,328189,328189,326661,327476,326661,328622,327989,327989,328622,83
84,test,1,con,1,z,Thu Aug 14 2025 14:32:20 GMT-0500 (Central Daylight Time),333185.5,rage,900,O,z,z,None,842,642.0,200.0,50,1,2260.400000035763,330925.09999996424,7200,rage,AF,C,330239,330239,328627,329538,328627,330888,330039,330039,330887,84
85,test,1,inc,1,z,Thu Aug 14 2025 14:32:20 GMT-0500 (Central Daylight Time),335484.89999997616,window,1100,O,z,z,None,662,462.0,200.0,8,1,2294.899999976158,333190.0,7200,elated,AF,C,332722,332722,330892,332005,330892,333187,332522,332522,333187,85
86,test,1,inc,1,m,Thu Aug 14 2025 14:32:20 GMT-0500 (Central Daylight Time),337817.89999997616,friend,1100,O,m,m,None,684,485.0,199.0,112,1,2327.5,335490.39999997616,7200,napkin,AF,C,335019,335019,333192,334305,333193,335520,334820,334820,335520,86
87,test,1,inc,1,m,Thu Aug 14 2025 14:32:20 GMT-0500 (Central Daylight Time),339966.39999997616,brutal,900,O,m,m,None,710,511.0,199.0,126,1,2143.300000011921,337823.09999996424,7200,window,AF,C,337153,337153,335525,336436,335526,337668,336954,336954,337668,87
88,test,1,inc,1,m,Thu Aug 14 2025 14:32:20 GMT-0500 (Central Daylight Time),342082.2999999523,kind,900,O,m,m,None,672,473.0,199.0,78,1,2111.2999999523163,339971.0,7200,rock,AF,C,339303,339303,337673,338586,337673,339784,339103,339103,339784,88
89,test,1,con,1,m,Thu Aug 14 2025 14:32:20 GMT-0500 (Central Daylight Time),344248.0,step,1000,O,m,m,None,625,410.0,215.0,67,1,2159.400000035763,342088.59999996424,7200,step,AF,C,341534,341534,339791,340802,339791,341950,341319,341319,341950,89
90,test,1,con,1,m,Thu Aug 14 2025 14:32:20 GMT-0500 (Central Daylight Time),346614.2999999523,window,1100,O,m,m,None,735,535.0,200.0,124,1,2361.899999976158,344252.39999997616,7200,window,AF,C,343768,343768,341954,343066,341955,344316,343568,343568,344316,90
91,test,1,inc,1,m,Thu Aug 14 2025 14:32:20 GMT-0500 (Central Daylight Time),348699.39999997616,temper,1000,O,m,m,None,541,326.0,215.0,127,1,2078.699999988079,346620.6999999881,7200,window,AF,C,346066,346066,344323,345334,344323,346402,345851,345851,346401,91
92,test,1,con,1,z,Thu Aug 14 2025 14:32:20 GMT-0500 (Central Daylight Time),351246.09999996424,temper,1100,O,z,z,None,909,710.0,199.0,60,1,2542.399999976158,348703.6999999881,7200,temper,AF,C,348233,348233,346406,347515,346406,348948,348033,348033,348948,92
93,test,1,con,1,z,Thu Aug 14 2025 14:32:20 GMT-0500 (Central Daylight Time),353446.39999997616,brutal,900,O,z,z,None,753,552.0,201.0,34,1,2197.300000011921,351249.09999996424,7200,brutal,AF,C,350583,350583,348951,349865,348951,351148,350381,350381,351148,93
94,test,1,inc,1,m,Thu Aug 14 2025 14:32:20 GMT-0500 (Central Daylight Time),355595.59999996424,love,1000,O,m,m,None,600,401.0,199.0,79,1,2144.300000011921,353451.2999999523,7200,rock,AF,C,352882,352882,351153,352165,351154,353298,352682,352682,353298,94
95,test,1,inc,1,z,Thu Aug 14 2025 14:32:20 GMT-0500 (Central Daylight Time),357843.89999997616,rock,900,O,z,z,None,800,601.0,199.0,14,1,2242.800000011921,355601.09999996424,7200,kind,AF,C,354930,354930,353303,354214,353303,355546,354731,354731,355546,95
96,test,1,con,1,z,Thu Aug 14 2025 14:32:20 GMT-0500 (Central Daylight Time),360226.0,friend,1100,O,z,z,None,740,541.0,199.0,28,1,2376.300000011921,357849.6999999881,7200,friend,AF,C,357379,357379,355552,356664,355552,357928,357179,357179,357928,96
97,test,1,con,1,z,Thu Aug 14 2025 14:32:20 GMT-0500 (Central Daylight Time),362359.39999997616,hate,1000,O,z,z,None,592,393.0,199.0,43,1,2128.800000011921,360230.59999996424,7200,hate,AF,C,359662,359662,357933,358945,357933,360061,359463,359463,360061,97
98,test,1,inc,1,z,Thu Aug 14 2025 14:32:20 GMT-0500 (Central Daylight Time),364475.09999996424,napkin,900,O,z,z,None,681,481.0,200.0,30,1,2110.899999976158,362364.1999999881,7200,friend,AF,C,361696,361696,360066,360978,360067,362177,361495,361495,362177,98
99,test,1,inc,1,z,Thu Aug 14 2025 14:32:20 GMT-0500 (Central Daylight Time),366808.6999999881,film,1100,O,z,z,None,693,494.0,199.0,48,1,2328.400000035763,364480.2999999523,7200,hate,AF,C,364010,364010,362182,363294,362183,364511,363811,363811,364511,99
100,test,1,inc,1,m,Thu Aug 14 2025 14:32:20 GMT-0500 (Central Daylight Time),368789.59999996424,elated,800,O,m,m,None,635,434.0,201.0,117,1,1976.699999988079,366812.89999997616,7200,remote,AF,C,366044,366044,364515,365328,364515,366492,365842,365842,366492,100
101,test,1,inc,1,m,Thu Aug 14 2025 14:32:20 GMT-0500 (Central Daylight Time),370857.89999997616,brutal,900,O,m,m,None,615,416.0,199.0,118,1,2062.899999976158,368795.0,7200,remote,AF,C,368127,368127,366497,367410,366497,368560,367928,367928,368560,101
102,test,1,inc,1,m,Thu Aug 14 2025 14:32:20 GMT-0500 (Central Daylight Time),373123.7999999523,friend,1100,O,m,m,None,620,420.0,200.0,128,1,2260.699999988079,370863.09999996424,7200,window,AF,C,370390,370390,368565,369676,368566,370826,370190,370190,370826,102
103,test,1,inc,1,m,Thu Aug 14 2025 14:32:20 GMT-0500 (Central Daylight Time),375106.89999997616,elated,800,O,m,m,None,635,435.0,200.0,109,1,1977.6000000238419,373129.2999999523,7200,napkin,AF,C,372357,372357,370831,371643,370832,372809,372157,372157,372809,103
104,test,1,inc,1,z,Thu Aug 14 2025 14:32:20 GMT-0500 (Central Daylight Time),377454.39999997616,window,1100,O,z,z,None,719,518.0,201.0,32,1,2343.899999976158,375110.5,7200,friend,AF,C,374626,374626,372813,373923,372813,375157,374425,374425,375156,104
105,test,1,inc,1,z,Thu Aug 14 2025 14:32:20 GMT-0500 (Central Daylight Time),379585.5,napkin,900,O,z,z,None,687,472.0,215.0,62,1,2125.5,377460.0,7200,temper,AF,C,376806,376806,375162,376074,375162,377288,376590,376590,377288,105
106,test,1,con,1,z,Thu Aug 14 2025 14:32:20 GMT-0500 (Central Daylight Time),381668.89999997616,kind,900,O,z,z,None,651,436.0,215.0,10,1,2080.0,379588.89999997616,7200,kind,AF,C,378923,378923,377291,378192,377291,379371,378707,378707,379371,106
107,test,1,inc,1,z,Thu Aug 14 2025 14:32:20 GMT-0500 (Central Daylight Time),383835.89999997616,film,1100,O,z,z,None,531,330.0,201.0,16,1,2160.300000011921,381675.59999996424,7200,kind,AF,C,381206,381206,379378,380491,379378,381538,381004,381004,381538,107
108,test,1,inc,1,m,Thu Aug 14 2025 14:32:20 GMT-0500 (Central Daylight Time),386201.59999996424,brutal,900,O,m,m,None,933,731.0,202.0,110,1,2359.699999988079,383841.89999997616,7200,napkin,AF,C,383172,383172,381544,382454,381544,383904,382970,382970,383904,108
109,test,1,inc,1,m,Thu Aug 14 2025 14:32:20 GMT-0500 (Central Daylight Time),388384.7999999523,kind,900,O,m,m,None,733,534.0,199.0,86,1,2180.599999964237,386204.1999999881,7200,bell,AF,C,385537,385538,383906,384821,383907,386087,385338,385338,386087,109
110,test,1,con,1,m,Thu Aug 14 2025 14:32:20 GMT-0500 (Central Daylight Time),390335.5,remote,800,O,m,m,None,617,403.0,214.0,113,1,1943.5,388392.0,7200,remote,AF,C,387620,387620,386094,386903,386094,388038,387405,387405,388038,110
111,test,1,inc,1,z,Thu Aug 14 2025 14:32:20 GMT-0500 (Central Daylight Time),392566.5,step,800,O,z,z,None,894,695.0,199.0,13,1,2226.7000000476837,390339.7999999523,7200,kind,AF,C,389568,389568,388042,388854,388042,390269,389369,389369,390269,111
112,test,1,inc,1,m,Thu Aug 14 2025 14:32:20 GMT-0500 (Central Daylight Time),394749.09999996424,rage,800,O,m,m,None,842,629.0,213.0,77,1,2178.300000011921,392570.7999999523,7200,rock,AF,C,391818,391818,390273,391086,390273,392451,391604,391604,392451,112
112,test,1,inc,0,m,Thu Aug 14 2025 14:32:20 GMT-0500 (Central Daylight Time),397162.59999996424,hate,1100,O,z,z,None,777,576.0,201.0,88,1,2409.599999964237,394753.0,7200,bell,AF,C,394286,394286,392455,393571,392455,394865,394084,394084,394865,113
113,test,1,con,1,m,Thu Aug 14 2025 14:32:20 GMT-0500 (Central Daylight Time),399230.89999997616,jacket,800,O,m,m,None,719,519.0,200.0,97,1,2065.399999976158,397165.5,7200,jacket,AF,C,396400,396400,394868,395683,394868,396933,396200,396200,396933,114
114,test,1,con,1,m,Thu Aug 14 2025 14:32:20 GMT-0500 (Central Daylight Time),401413.1999999881,bell,1000,O,m,m,None,644,444.0,200.0,83,1,2175.400000035763,399237.7999999523,7200,bell,AF,C,398666,398666,396940,397951,396940,399115,398466,398466,399115,115
115,test,1,con,1,z,Thu Aug 14 2025 14:32:20 GMT-0500 (Central Daylight Time),403995.09999996424,hate,1100,O,z,z,None,933,718.0,215.0,44,1,2578.899999976158,401416.1999999881,7200,hate,AF,C,400964,400965,399118,400232,399118,401697,400749,400749,401697,116
116,test,1,con,1,z,Thu Aug 14 2025 14:32:20 GMT-0500 (Central Daylight Time),406412.1999999881,elated,1000,O,z,z,None,867,665.0,202.0,3,1,2412.0,404000.1999999881,7200,elated,AF,C,403433,403433,401702,402714,401703,404114,403231,403231,404114,117
117,test,1,con,1,m,Thu Aug 14 2025 14:32:20 GMT-0500 (Central Daylight Time),408428.59999996424,rock,800,O,m,m,None,697,483.0,214.0,73,1,2010.3999999761581,406418.1999999881,7200,rock,AF,C,405647,405647,404120,404931,404121,406131,405432,405432,406131,118
118,test,1,inc,1,m,Thu Aug 14 2025 14:32:20 GMT-0500 (Central Daylight Time),410777.2999999523,friend,1100,O,m,m,None,709,510.0,199.0,120,1,2342.7999999523163,408434.5,7200,remote,AF,C,407962,407963,406137,407247,406137,408479,407763,407763,408479,119
119,test,1,con,1,z,Thu Aug 14 2025 14:32:20 GMT-0500 (Central Daylight Time),413276.09999996424,rage,1100,O,z,z,None,853,638.0,215.0,52,1,2494.399999976158,410781.6999999881,7200,rage,AF,C,410329,410329,408484,409596,408484,410978,410114,410114,410978,120
120,test,1,inc,1,m,Thu Aug 14 2025 14:32:20 GMT-0500 (Central Daylight Time),415443.2999999523,love,1000,O,m,m,None,623,424.0,199.0,95,1,2162.099999964237,413281.1999999881,7200,film,AF,C,412712,412712,410983,411995,410984,413145,412512,412512,413145,121
121,test,1,inc,1,z,Thu Aug 14 2025 14:32:20 GMT-0500 (Central Daylight Time),418025.09999996424,window,1100,O,z,z,None,951,735.0,216.0,40,1,2576.5,415448.59999996424,7200,brutal,AF,C,414977,414977,413151,414259,413151,415727,414761,414761,415727,122
122,test,1,con,1,z,Thu Aug 14 2025 14:32:20 GMT-0500 (Central Daylight Time),420291.5,friend,1000,O,z,z,None,717,517.0,200.0,27,1,2260.2000000476837,418031.2999999523,7200,friend,AF,C,417461,417461,415733,416744,415734,417994,417260,417260,417994,123
123,test,1,inc,1,z,Thu Aug 14 2025 14:32:20 GMT-0500 (Central Daylight Time),422373.39999997616,step,800,O,z,z,None,744,545.0,199.0,53,1,2075.199999988079,420298.1999999881,7200,rage,AF,C,419525,419526,418000,418810,418001,420075,419326,419326,420075,124
124,test,1,con,1,m,Thu Aug 14 2025 14:32:20 GMT-0500 (Central Daylight Time),424389.09999996424,film,800,O,m,m,None,677,477.0,200.0,89,1,2010.699999988079,422378.39999997616,7200,film,AF,C,421610,421610,420080,420892,420081,422091,421409,421409,422091,125
125,test,1,con,1,z,Thu Aug 14 2025 14:32:20 GMT-0500 (Central Daylight Time),426555.6999999881,kind,800,O,z,z,None,823,623.0,200.0,9,1,2161.800000011921,424393.89999997616,7200,kind,AF,C,423625,423625,422096,422909,422096,424258,423424,423424,424258,126
126,test,1,con,1,z,Thu Aug 14 2025 14:32:20 GMT-0500 (Central Daylight Time),428719.7999999523,temper,900,O,z,z,None,714,515.0,199.0,58,1,2159.5,426560.2999999523,7200,temper,AF,C,425891,425891,424262,425175,424263,426422,425691,425691,426422,127
127,test,1,con,1,m,Thu Aug 14 2025 14:32:20 GMT-0500 (Central Daylight Time),430620.1999999881,napkin,800,O,m,m,None,555,355.0,200.0,105,1,1897.6000000238419,428722.59999996424,7200,napkin,AF,C,427956,427956,426425,427241,426425,428322,427756,427756,428322,128
