acc_sum,block,block_c,block_cond,con_img,correct,correct_response,datetime,endtime,face,jitter,line,project,response,response_time,row_sel,session_number,start_end,starttime,subject_id,task,task_vers,trial
1,prac,1,A,haborder.png,1,z,Mon Nov 24 2025 17:34:27 GMT-0600 (Central Standard Time),55483.39999999851,CFD-BM-005-010-A.jpg,1600,solid,I,z,1101,2,3,3498.7000000029802,51984.69999999553,8040,ATS,A,1
2,prac,1,A,haborder.png,1,z,Mon Nov 24 2025 17:34:27 GMT-0600 (Central Standard Time),58882.29999999702,CFD-WF-003-014-A.jpg,1600,solid,I,z,1011,10,3,6897.60000000149,51984.69999999553,8040,ATS,A,2
3,prac,1,A,haborder.png,1,z,Mon Nov 24 2025 17:34:27 GMT-0600 (Central Standard Time),61681.39999999851,CFD-WF-019-015-A.jpg,1000,solid,I,z,1011,12,3,9696.70000000298,51984.69999999553,8040,ATS,A,3
4,prac,1,A,haborder.png,1,z,Mon Nov 24 2025 17:34:27 GMT-0600 (Central Standard Time),64698.29999999702,CFD-BF-039-039-A.jpg,1200,solid,I,z,1021,6,3,12713.60000000149,51984.69999999553,8040,ATS,A,4
5,prac,1,A,haborder.png,1,z,Mon Nov 24 2025 17:34:27 GMT-0600 (Central Standard Time),67515.09999999404,CFD-BF-023-013-A.jpg,1000,solid,I,z,1020,4,3,15530.39999999851,51984.69999999553,8040,ATS,A,5
6,prac,1,A,haborder.png,1,m,Mon Nov 24 2025 17:34:27 GMT-0600 (Central Standard Time),71162.0,CFD-BF-028-020-HC.jpg,2000,solid,I,m,836,5,3,19177.30000000447,51984.69999999553,8040,ATS,A,6
7,prac,1,A,haborder.png,1,m,Mon Nov 24 2025 17:34:27 GMT-0600 (Central Standard Time),74094.5,CFD-WM-004-005-HC.jpg,1400,solid,I,m,740,7,3,22109.80000000447,51984.69999999553,8040,ATS,A,7
8,prac,1,A,haborder.png,1,m,Mon Nov 24 2025 17:34:27 GMT-0600 (Central Standard Time),77193.39999999851,CFD-WF-017-016-HC.jpg,1500,solid,I,m,804,11,3,25208.70000000298,51984.69999999553,8040,ATS,A,8
9,prac,1,A,haborder.png,1,m,Mon Nov 24 2025 17:34:27 GMT-0600 (Central Standard Time),80509.09999999404,CFD-BM-029-026-HC.jpg,1500,solid,I,m,1017,3,3,28524.39999999851,51984.69999999553,8040,ATS,A,9
10,prac,1,A,haborder.png,1,m,Mon Nov 24 2025 17:34:27 GMT-0600 (Central Standard Time),83958.19999999553,CFD-BM-017-052-HC.jpg,1700,solid,I,m,958,1,3,31973.5,51984.69999999553,8040,ATS,A,10
11,prac,1,A,haborder.png,1,m,Mon Nov 24 2025 17:34:27 GMT-0600 (Central Standard Time),87257.0,CFD-WM-006-013-HC.jpg,1700,solid,I,m,805,9,3,35272.30000000447,51984.69999999553,8040,ATS,A,11
12,prac,1,A,haborder.png,1,z,Mon Nov 24 2025 17:34:27 GMT-0600 (Central Standard Time),91056.59999999404,CFD-WM-013-015-A.jpg,1900,solid,I,z,1074,8,3,39071.89999999851,51984.69999999553,8040,ATS,A,12
1,prac,1,B,mfborder.png,1,z,Mon Nov 24 2025 17:34:27 GMT-0600 (Central Standard Time),113215.29999999702,CFD-BF-023-013-A.jpg,1000,dash,I,z,989,4,3,2782.2000000029802,110433.09999999404,8040,ATS,A,1
2,prac,1,B,mfborder.png,1,z,Mon Nov 24 2025 17:34:27 GMT-0600 (Central Standard Time),116731.09999999404,CFD-WF-002-008-HC.jpg,1900,dash,I,z,826,8,3,6298.0,110433.09999999404,8040,ATS,A,2
3,prac,1,B,mfborder.png,1,m,Mon Nov 24 2025 17:34:27 GMT-0600 (Central Standard Time),119680.0,CFD-WM-019-013-A.jpg,1200,dash,I,m,963,6,3,9246.90000000596,110433.09999999404,8040,ATS,A,3
4,prac,1,B,mfborder.png,1,z,Mon Nov 24 2025 17:34:27 GMT-0600 (Central Standard Time),122879.09999999404,CFD-WF-003-014-A.jpg,1500,dash,I,z,907,11,3,12446.0,110433.09999999404,8040,ATS,A,4
5,prac,1,B,mfborder.png,1,m,Mon Nov 24 2025 17:34:27 GMT-0600 (Central Standard Time),126128.19999999553,CFD-BM-010-019-A.jpg,1600,dash,I,m,853,2,3,15695.10000000149,110433.09999999404,8040,ATS,A,5
6,prac,1,B,mfborder.png,1,z,Mon Nov 24 2025 17:34:27 GMT-0600 (Central Standard Time),128977.19999999553,CFD-WF-017-016-HC.jpg,1000,dash,I,z,1054,12,3,18544.10000000149,110433.09999999404,8040,ATS,A,6
7,prac,1,B,mfborder.png,1,m,Mon Nov 24 2025 17:34:27 GMT-0600 (Central Standard Time),132509.5,CFD-BM-005-010-A.jpg,2000,dash,I,m,741,5,3,22076.40000000596,110433.09999999404,8040,ATS,A,7
8,prac,1,B,mfborder.png,1,m,Mon Nov 24 2025 17:34:27 GMT-0600 (Central Standard Time),136359.3999999985,CFD-WM-013-015-A.jpg,1700,dash,I,m,1381,9,3,25926.30000000447,110433.09999999404,8040,ATS,A,8
9,prac,1,B,mfborder.png,1,z,Mon Nov 24 2025 17:34:27 GMT-0600 (Central Standard Time),139457.5,CFD-BF-010-005-HC.jpg,1500,dash,I,z,812,3,3,29024.40000000596,110433.09999999404,8040,ATS,A,9
10,prac,1,B,mfborder.png,1,m,Mon Nov 24 2025 17:34:27 GMT-0600 (Central Standard Time),142906.29999999702,CFD-WM-006-013-HC.jpg,1600,dash,I,m,1061,10,3,32473.20000000298,110433.09999999404,8040,ATS,A,10
11,prac,1,B,mfborder.png,1,m,Mon Nov 24 2025 17:34:27 GMT-0600 (Central Standard Time),146321.79999999702,CFD-BM-029-026-HC.jpg,1700,dash,I,m,919,1,3,35888.70000000298,110433.09999999404,8040,ATS,A,11
12,prac,1,B,mfborder.png,1,z,Mon Nov 24 2025 17:34:27 GMT-0600 (Central Standard Time),149287.59999999404,CFD-BF-028-020-HC.jpg,1400,dash,I,z,772,7,3,38854.5,110433.09999999404,8040,ATS,A,12
1,test,1,A,haborder.png,1,z,Mon Nov 24 2025 17:34:27 GMT-0600 (Central Standard Time),167665.19999999553,CFD-BF-023-013-A.jpg,1000,solid,I,z,856,4,3,1882.8999999985099,165782.29999999702,8040,ATS,A,1
2,test,1,A,haborder.png,1,z,Mon Nov 24 2025 17:34:27 GMT-0600 (Central Standard Time),170730.5,CFD-WM-013-015-A.jpg,1900,solid,I,z,1137,8,3,4948.20000000298,165782.29999999702,8040,ATS,A,2
3,test,1,A,haborder.png,1,m,Mon Nov 24 2025 17:34:27 GMT-0600 (Central Standard Time),173813.19999999553,CFD-BF-028-020-HC.jpg,2000,solid,I,m,1051,5,3,8030.89999999851,165782.29999999702,8040,ATS,A,3
4,test,1,A,haborder.png,1,m,Mon Nov 24 2025 17:34:27 GMT-0600 (Central Standard Time),176495.69999999553,CFD-WM-004-005-HC.jpg,1400,solid,I,m,1265,7,3,10713.39999999851,165782.29999999702,8040,ATS,A,4
5,test,1,A,haborder.png,1,m,Mon Nov 24 2025 17:34:27 GMT-0600 (Central Standard Time),179228.09999999404,CFD-BM-029-026-HC.jpg,1500,solid,I,m,1211,3,3,13445.79999999702,165782.29999999702,8040,ATS,A,5
6,test,1,A,haborder.png,1,z,Mon Nov 24 2025 17:34:27 GMT-0600 (Central Standard Time),181910.69999999553,CFD-BM-005-010-A.jpg,1600,solid,I,z,1049,2,3,16128.39999999851,165782.29999999702,8040,ATS,A,6
7,test,1,A,haborder.png,1,z,Mon Nov 24 2025 17:34:27 GMT-0600 (Central Standard Time),184126.69999999553,CFD-WF-019-015-A.jpg,1000,solid,I,z,1184,12,3,18344.39999999851,165782.29999999702,8040,ATS,A,7
8,test,1,A,haborder.png,1,z,Mon Nov 24 2025 17:34:27 GMT-0600 (Central Standard Time),187109.19999999553,CFD-WM-013-015-A.jpg,1900,solid,I,z,1052,8,3,21326.89999999851,165782.29999999702,8040,ATS,A,8
9,test,1,A,haborder.png,1,z,Mon Nov 24 2025 17:34:27 GMT-0600 (Central Standard Time),189674.79999999702,CFD-WF-003-014-A.jpg,1600,solid,I,z,937,10,3,23892.5,165782.29999999702,8040,ATS,A,9
10,test,1,A,haborder.png,1,m,Mon Nov 24 2025 17:34:27 GMT-0600 (Central Standard Time),192290.79999999702,CFD-BM-017-052-HC.jpg,1700,solid,I,m,887,1,3,26508.5,165782.29999999702,8040,ATS,A,10
11,test,1,A,haborder.png,1,m,Mon Nov 24 2025 17:34:27 GMT-0600 (Central Standard Time),194990.09999999404,CFD-BM-017-052-HC.jpg,1700,solid,I,m,967,1,3,29207.79999999702,165782.29999999702,8040,ATS,A,11
12,test,1,A,haborder.png,1,z,Mon Nov 24 2025 17:34:27 GMT-0600 (Central Standard Time),197640.09999999404,CFD-BM-005-010-A.jpg,1600,solid,I,z,1031,2,3,31857.79999999702,165782.29999999702,8040,ATS,A,12
13,test,1,A,haborder.png,1,z,Mon Nov 24 2025 17:34:27 GMT-0600 (Central Standard Time),199821.8999999985,CFD-BF-023-013-A.jpg,1000,solid,I,z,1150,4,3,34039.60000000149,165782.29999999702,8040,ATS,A,13
14,test,1,A,haborder.png,1,m,Mon Nov 24 2025 17:34:27 GMT-0600 (Central Standard Time),202271.09999999404,CFD-WM-004-005-HC.jpg,1400,solid,I,m,1024,7,3,36488.79999999702,165782.29999999702,8040,ATS,A,14
15,test,1,A,haborder.png,1,m,Mon Nov 24 2025 17:34:27 GMT-0600 (Central Standard Time),205336.3999999985,CFD-BF-028-020-HC.jpg,2000,solid,I,m,1048,5,3,39554.10000000149,165782.29999999702,8040,ATS,A,15
16,test,1,A,haborder.png,1,m,Mon Nov 24 2025 17:34:27 GMT-0600 (Central Standard Time),208035.8999999985,CFD-WF-017-016-HC.jpg,1500,solid,I,m,1171,11,3,42253.60000000149,165782.29999999702,8040,ATS,A,16
17,test,1,A,haborder.png,1,m,Mon Nov 24 2025 17:34:27 GMT-0600 (Central Standard Time),210618.5,CFD-BM-029-026-HC.jpg,1500,solid,I,m,1062,3,3,44836.20000000298,165782.29999999702,8040,ATS,A,17
18,test,1,A,haborder.png,1,m,Mon Nov 24 2025 17:34:27 GMT-0600 (Central Standard Time),213384.09999999404,CFD-WM-006-013-HC.jpg,1700,solid,I,m,1040,9,3,47601.79999999702,165782.29999999702,8040,ATS,A,18
19,test,1,A,haborder.png,1,z,Mon Nov 24 2025 17:34:27 GMT-0600 (Central Standard Time),215599.79999999702,CFD-WF-019-015-A.jpg,1000,solid,I,z,1197,12,3,49817.5,165782.29999999702,8040,ATS,A,19
20,test,1,A,haborder.png,1,z,Mon Nov 24 2025 17:34:27 GMT-0600 (Central Standard Time),218016.0,CFD-BF-039-039-A.jpg,1200,solid,I,z,1183,6,3,52233.70000000298,165782.29999999702,8040,ATS,A,20
21,test,1,A,haborder.png,1,m,Mon Nov 24 2025 17:34:27 GMT-0600 (Central Standard Time),220848.29999999702,CFD-WM-006-013-HC.jpg,1700,solid,I,m,1115,9,3,55066.0,165782.29999999702,8040,ATS,A,21
22,test,1,A,haborder.png,1,z,Mon Nov 24 2025 17:34:27 GMT-0600 (Central Standard Time),223214.3999999985,CFD-BF-039-039-A.jpg,1200,solid,I,z,1141,6,3,57432.10000000149,165782.29999999702,8040,ATS,A,22
23,test,1,A,haborder.png,1,z,Mon Nov 24 2025 17:34:27 GMT-0600 (Central Standard Time),225930.19999999553,CFD-WF-003-014-A.jpg,1600,solid,I,z,1088,10,3,60147.89999999851,165782.29999999702,8040,ATS,A,23
24,test,1,A,haborder.png,1,m,Mon Nov 24 2025 17:34:27 GMT-0600 (Central Standard Time),228562.8999999985,CFD-WF-017-016-HC.jpg,1500,solid,I,m,1112,11,3,62780.60000000149,165782.29999999702,8040,ATS,A,24
1,test,1,B,mfborder.png,1,m,Mon Nov 24 2025 17:34:27 GMT-0600 (Central Standard Time),242408.19999999553,CFD-WM-006-013-HC.jpg,1600,dash,I,m,1182,10,3,2798.60000000149,239609.59999999404,8040,ATS,A,1
2,test,1,B,mfborder.png,1,m,Mon Nov 24 2025 17:34:27 GMT-0600 (Central Standard Time),245423.8999999985,CFD-WM-013-015-A.jpg,1700,dash,I,m,1298,9,3,5814.30000000447,239609.59999999404,8040,ATS,A,2
3,test,1,B,mfborder.png,1,z,Mon Nov 24 2025 17:34:27 GMT-0600 (Central Standard Time),247940.0,CFD-WF-003-014-A.jpg,1500,dash,I,z,994,11,3,8330.40000000596,239609.59999999404,8040,ATS,A,3
4,test,1,B,mfborder.png,1,m,Mon Nov 24 2025 17:34:27 GMT-0600 (Central Standard Time),250605.8999999985,CFD-WM-019-013-A.jpg,1200,dash,I,m,1442,6,3,10996.30000000447,239609.59999999404,8040,ATS,A,4
5,test,1,B,mfborder.png,1,m,Mon Nov 24 2025 17:34:27 GMT-0600 (Central Standard Time),253655.0,CFD-BM-005-010-A.jpg,2000,dash,I,m,1025,5,3,14045.40000000596,239609.59999999404,8040,ATS,A,5
6,test,1,B,mfborder.png,1,z,Mon Nov 24 2025 17:34:27 GMT-0600 (Central Standard Time),256098.3999999985,CFD-WF-017-016-HC.jpg,1000,dash,I,z,1410,12,3,16488.80000000447,239609.59999999404,8040,ATS,A,6
7,test,1,B,mfborder.png,1,z,Mon Nov 24 2025 17:34:27 GMT-0600 (Central Standard Time),258970.0,CFD-WF-002-008-HC.jpg,1900,dash,I,z,946,8,3,19360.40000000596,239609.59999999404,8040,ATS,A,7
8,test,1,B,mfborder.png,1,m,Mon Nov 24 2025 17:34:27 GMT-0600 (Central Standard Time),261702.59999999404,CFD-WM-006-013-HC.jpg,1600,dash,I,m,1101,10,3,22093.0,239609.59999999404,8040,ATS,A,8
9,test,1,B,mfborder.png,1,m,Mon Nov 24 2025 17:34:27 GMT-0600 (Central Standard Time),264734.8999999985,CFD-BM-005-010-A.jpg,2000,dash,I,m,1008,5,3,25125.30000000447,239609.59999999404,8040,ATS,A,9
10,test,1,B,mfborder.png,1,z,Mon Nov 24 2025 17:34:27 GMT-0600 (Central Standard Time),267284.09999999404,CFD-BF-028-020-HC.jpg,1400,dash,I,z,1128,7,3,27674.5,239609.59999999404,8040,ATS,A,10
11,test,1,B,mfborder.png,1,m,Mon Nov 24 2025 17:34:27 GMT-0600 (Central Standard Time),270066.5,CFD-BM-029-026-HC.jpg,1700,dash,I,m,1063,1,3,30456.90000000596,239609.59999999404,8040,ATS,A,11
12,test,1,B,mfborder.png,1,m,Mon Nov 24 2025 17:34:27 GMT-0600 (Central Standard Time),272815.59999999404,CFD-BM-010-019-A.jpg,1600,dash,I,m,1124,2,3,33206.0,239609.59999999404,8040,ATS,A,12
13,test,1,B,mfborder.png,1,z,Mon Nov 24 2025 17:34:27 GMT-0600 (Central Standard Time),275381.299999997,CFD-WF-003-014-A.jpg,1500,dash,I,z,1034,11,3,35771.70000000298,239609.59999999404,8040,ATS,A,13
14,test,1,B,mfborder.png,1,z,Mon Nov 24 2025 17:34:27 GMT-0600 (Central Standard Time),277780.8999999985,CFD-BF-023-013-A.jpg,1000,dash,I,z,1368,4,3,38171.30000000447,239609.59999999404,8040,ATS,A,14
15,test,1,B,mfborder.png,1,m,Mon Nov 24 2025 17:34:27 GMT-0600 (Central Standard Time),280529.5,CFD-BM-010-019-A.jpg,1600,dash,I,m,1026,2,3,40919.90000000596,239609.59999999404,8040,ATS,A,15
16,test,1,B,mfborder.png,1,z,Mon Nov 24 2025 17:34:27 GMT-0600 (Central Standard Time),283378.69999999553,CFD-WF-002-008-HC.jpg,1900,dash,I,z,929,8,3,43769.10000000149,239609.59999999404,8040,ATS,A,16
17,test,1,B,mfborder.png,1,m,Mon Nov 24 2025 17:34:27 GMT-0600 (Central Standard Time),286161.59999999404,CFD-BM-029-026-HC.jpg,1700,dash,I,m,1063,1,3,46552.0,239609.59999999404,8040,ATS,A,17
18,test,1,B,mfborder.png,1,z,Mon Nov 24 2025 17:34:27 GMT-0600 (Central Standard Time),288660.799999997,CFD-BF-028-020-HC.jpg,1400,dash,I,z,1069,7,3,49051.20000000298,239609.59999999404,8040,ATS,A,18
19,test,1,B,mfborder.png,1,m,Mon Nov 24 2025 17:34:27 GMT-0600 (Central Standard Time),290993.19999999553,CFD-WM-019-013-A.jpg,1200,dash,I,m,1106,6,3,51383.60000000149,239609.59999999404,8040,ATS,A,19
20,test,1,B,mfborder.png,1,z,Mon Nov 24 2025 17:34:27 GMT-0600 (Central Standard Time),293242.299999997,CFD-BF-023-013-A.jpg,1000,dash,I,z,1220,4,3,53632.70000000298,239609.59999999404,8040,ATS,A,20
21,test,1,B,mfborder.png,1,m,Mon Nov 24 2025 17:34:27 GMT-0600 (Central Standard Time),295941.799999997,CFD-WM-013-015-A.jpg,1700,dash,I,m,976,9,3,56332.20000000298,239609.59999999404,8040,ATS,A,21
22,test,1,B,mfborder.png,1,z,Mon Nov 24 2025 17:34:27 GMT-0600 (Central Standard Time),298174.19999999553,CFD-WF-017-016-HC.jpg,1000,dash,I,z,1208,12,3,58564.60000000149,239609.59999999404,8040,ATS,A,22
23,test,1,B,mfborder.png,1,z,Mon Nov 24 2025 17:34:27 GMT-0600 (Central Standard Time),300706.799999997,CFD-BF-010-005-HC.jpg,1500,dash,I,z,1012,3,3,61097.20000000298,239609.59999999404,8040,ATS,A,23
24,test,1,B,mfborder.png,1,z,Mon Nov 24 2025 17:34:27 GMT-0600 (Central Standard Time),303273.299999997,CFD-BF-010-005-HC.jpg,1500,dash,I,z,1050,3,3,63663.70000000298,239609.59999999404,8040,ATS,A,24
0,prac,1,C,haborder.png,0,z,Mon Nov 24 2025 17:34:27 GMT-0600 (Central Standard Time),333929.799999997,CFD-WF-003-014-A.jpg,1600,dash,I,None,1516,9,3,3898.7000000029802,330031.09999999404,8040,ATS,A,1
1,prac,1,C,mfborder.png,1,m,Mon Nov 24 2025 17:34:27 GMT-0600 (Central Standard Time),337912.09999999404,CFD-WM-013-015-A.jpg,1700,solid,I,m,1489,6,3,7881.0,330031.09999999404,8040,ATS,A,2
2,prac,1,C,haborder.png,1,m,Mon Nov 24 2025 17:34:27 GMT-0600 (Central Standard Time),341660.799999997,CFD-BM-029-026-HC.jpg,1500,solid,I,m,1450,10,3,11629.70000000298,330031.09999999404,8040,ATS,A,3
3,prac,1,C,haborder.png,1,m,Mon Nov 24 2025 17:34:27 GMT-0600 (Central Standard Time),344626.299999997,CFD-WM-004-005-HC.jpg,1000,dash,I,m,1170,11,3,14595.20000000298,330031.09999999404,8040,ATS,A,4
3,prac,1,C,mfborder.png,0,m,Mon Nov 24 2025 17:34:27 GMT-0600 (Central Standard Time),348925.19999999553,CFD-BM-017-052-HC.jpg,2000,solid,I,None,1516,4,3,18894.10000000149,330031.09999999404,8040,ATS,A,5
3,prac,1,C,mfborder.png,0,z,Mon Nov 24 2025 17:34:27 GMT-0600 (Central Standard Time),352224.19999999553,CFD-BF-028-020-HC.jpg,1000,dash,I,None,1516,3,3,22193.10000000149,330031.09999999404,8040,ATS,A,6
3,prac,1,C,mfborder.png,0,z,Mon Nov 24 2025 17:34:27 GMT-0600 (Central Standard Time),355706.5,CFD-WF-017-016-HC.jpg,1600,dash,I,m,1094,1,3,25675.40000000596,330031.09999999404,8040,ATS,A,7
4,prac,1,C,haborder.png,1,m,Mon Nov 24 2025 17:34:27 GMT-0600 (Central Standard Time),359288.69999999553,CFD-WM-004-005-HC.jpg,1400,solid,I,m,1396,12,3,29257.60000000149,330031.09999999404,8040,ATS,A,8
5,prac,1,C,haborder.png,1,z,Mon Nov 24 2025 17:34:27 GMT-0600 (Central Standard Time),363270.8999999985,CFD-BF-023-013-A.jpg,1900,dash,I,z,1291,7,3,33239.80000000447,330031.09999999404,8040,ATS,A,9
6,prac,1,C,mfborder.png,1,z,Mon Nov 24 2025 17:34:27 GMT-0600 (Central Standard Time),366852.69999999553,CFD-WF-019-015-A.jpg,1500,solid,I,z,1292,2,3,36821.60000000149,330031.09999999404,8040,ATS,A,10
7,prac,1,C,haborder.png,1,z,Mon Nov 24 2025 17:34:27 GMT-0600 (Central Standard Time),370835.09999999404,CFD-BF-039-039-A.jpg,1700,solid,I,z,1486,8,3,40804.0,330031.09999999404,8040,ATS,A,11
8,prac,1,C,mfborder.png,1,m,Mon Nov 24 2025 17:34:27 GMT-0600 (Central Standard Time),374250.59999999404,CFD-BM-005-010-A.jpg,1200,dash,I,m,1419,5,3,44219.5,330031.09999999404,8040,ATS,A,12
0,test,1,C,haborder.png,0,z,Mon Nov 24 2025 17:34:27 GMT-0600 (Central Standard Time),390428.8999999985,CFD-BM-010-019-A.jpg,1700,solid,I,m,1136,9,3,2865.7000000029802,387563.19999999553,8040,ATS,A,1
0,test,1,C,mfborder.png,0,z,Mon Nov 24 2025 17:34:27 GMT-0600 (Central Standard Time),393661.3999999985,CFD-BF-010-005-HC.jpg,1700,dash,I,None,1516,1,3,6098.20000000298,387563.19999999553,8040,ATS,A,2
0,test,1,C,haborder.png,0,m,Mon Nov 24 2025 17:34:27 GMT-0600 (Central Standard Time),396793.59999999404,CFD-BF-028-020-HC.jpg,1600,solid,I,None,1516,10,3,9230.39999999851,387563.19999999553,8040,ATS,A,3
0,test,1,C,haborder.png,0,z,Mon Nov 24 2025 17:34:27 GMT-0600 (Central Standard Time),400192.59999999404,CFD-BM-005-010-A.jpg,1900,solid,I,m,1473,8,3,12629.39999999851,387563.19999999553,8040,ATS,A,4
0,test,1,C,haborder.png,0,m,Mon Nov 24 2025 17:34:27 GMT-0600 (Central Standard Time),403225.09999999404,CFD-WF-002-008-HC.jpg,1500,solid,I,None,1516,11,3,15661.89999999851,387563.19999999553,8040,ATS,A,5
1,test,1,C,mfborder.png,1,z,Mon Nov 24 2025 17:34:27 GMT-0600 (Central Standard Time),406207.19999999553,CFD-BF-010-005-HC.jpg,1700,dash,I,z,1258,1,3,18644.0,387563.19999999553,8040,ATS,A,6
1,test,1,C,haborder.png,0,m,Mon Nov 24 2025 17:34:27 GMT-0600 (Central Standard Time),408739.69999999553,CFD-WF-017-016-HC.jpg,1000,solid,I,None,1516,12,3,21176.5,387563.19999999553,8040,ATS,A,7
1,test,1,C,mfborder.png,0,m,Mon Nov 24 2025 17:34:27 GMT-0600 (Central Standard Time),411472.299999997,CFD-BM-029-026-HC.jpg,1200,dash,I,None,1516,6,3,23909.10000000149,387563.19999999553,8040,ATS,A,8
1,test,1,C,haborder.png,0,m,Mon Nov 24 2025 17:34:27 GMT-0600 (Central Standard Time),414421.5,CFD-BF-028-020-HC.jpg,1600,solid,I,z,1318,10,3,26858.30000000447,387563.19999999553,8040,ATS,A,9
1,test,1,C,mfborder.png,0,m,Mon Nov 24 2025 17:34:27 GMT-0600 (Central Standard Time),416954.0,CFD-WM-006-013-HC.jpg,1000,dash,I,None,1516,4,3,29390.80000000447,387563.19999999553,8040,ATS,A,10
2,test,1,C,mfborder.png,1,m,Mon Nov 24 2025 17:34:27 GMT-0600 (Central Standard Time),419219.59999999404,CFD-WM-006-013-HC.jpg,1000,dash,I,m,1245,4,3,31656.39999999851,387563.19999999553,8040,ATS,A,11
3,test,1,C,mfborder.png,1,m,Mon Nov 24 2025 17:34:27 GMT-0600 (Central Standard Time),422168.69999999553,CFD-WM-019-013-A.jpg,2000,dash,I,m,923,5,3,34605.5,387563.19999999553,8040,ATS,A,12
3,test,1,C,haborder.png,0,z,Mon Nov 24 2025 17:34:27 GMT-0600 (Central Standard Time),425101.5,CFD-WM-013-015-A.jpg,1400,solid,I,None,1516,7,3,37538.30000000447,387563.19999999553,8040,ATS,A,13
4,test,1,C,mfborder.png,1,m,Mon Nov 24 2025 17:34:27 GMT-0600 (Central Standard Time),428366.8999999985,CFD-WM-019-013-A.jpg,2000,dash,I,m,1233,5,3,40803.70000000298,387563.19999999553,8040,ATS,A,14
5,test,1,C,mfborder.png,1,z,Mon Nov 24 2025 17:34:27 GMT-0600 (Central Standard Time),430716.299999997,CFD-WF-003-014-A.jpg,1500,dash,I,z,819,3,3,43153.10000000149,387563.19999999553,8040,ATS,A,15
6,test,1,C,haborder.png,1,z,Mon Nov 24 2025 17:34:27 GMT-0600 (Central Standard Time),433198.69999999553,CFD-WM-013-015-A.jpg,1400,solid,I,z,1066,7,3,45635.5,387563.19999999553,8040,ATS,A,16
6,test,1,C,mfborder.png,0,z,Mon Nov 24 2025 17:34:27 GMT-0600 (Central Standard Time),436231.5,CFD-WF-003-014-A.jpg,1500,dash,I,None,1516,3,3,48668.30000000447,387563.19999999553,8040,ATS,A,17
7,test,1,C,haborder.png,1,m,Mon Nov 24 2025 17:34:27 GMT-0600 (Central Standard Time),438813.69999999553,CFD-WF-002-008-HC.jpg,1500,solid,I,m,1059,11,3,51250.5,387563.19999999553,8040,ATS,A,18
8,test,1,C,haborder.png,1,m,Mon Nov 24 2025 17:34:27 GMT-0600 (Central Standard Time),441146.299999997,CFD-WF-017-016-HC.jpg,1000,solid,I,m,1305,12,3,53583.10000000149,387563.19999999553,8040,ATS,A,19
9,test,1,C,mfborder.png,1,m,Mon Nov 24 2025 17:34:27 GMT-0600 (Central Standard Time),443595.59999999404,CFD-BM-029-026-HC.jpg,1200,dash,I,m,1220,6,3,56032.39999999851,387563.19999999553,8040,ATS,A,20
10,test,1,C,haborder.png,1,z,Mon Nov 24 2025 17:34:27 GMT-0600 (Central Standard Time),446528.09999999404,CFD-BM-005-010-A.jpg,1900,solid,I,z,1007,8,3,58964.89999999851,387563.19999999553,8040,ATS,A,21
11,test,1,C,mfborder.png,1,z,Mon Nov 24 2025 17:34:27 GMT-0600 (Central Standard Time),449293.59999999404,CFD-BF-023-013-A.jpg,1600,dash,I,z,1135,2,3,61730.39999999851,387563.19999999553,8040,ATS,A,22
12,test,1,C,mfborder.png,1,z,Mon Nov 24 2025 17:34:27 GMT-0600 (Central Standard Time),451826.299999997,CFD-BF-023-013-A.jpg,1600,dash,I,z,913,2,3,64263.10000000149,387563.19999999553,8040,ATS,A,23
12,test,1,C,haborder.png,0,z,Mon Nov 24 2025 17:34:27 GMT-0600 (Central Standard Time),454642.0,CFD-BM-010-019-A.jpg,1700,solid,I,m,1096,9,3,67078.80000000447,387563.19999999553,8040,ATS,A,24
1,test,2,C,haborder.png,1,m,Mon Nov 24 2025 17:34:27 GMT-0600 (Central Standard Time),460640.59999999404,CFD-WM-004-005-HC.jpg,1500,solid,I,m,1225,11,3,2749.5,457891.09999999404,8040,ATS,A,1
2,test,2,C,haborder.png,1,z,Mon Nov 24 2025 17:34:27 GMT-0600 (Central Standard Time),462939.69999999553,CFD-BF-023-013-A.jpg,1400,solid,I,z,878,7,3,5048.60000000149,457891.09999999404,8040,ATS,A,2
3,test,2,C,mfborder.png,1,z,Mon Nov 24 2025 17:34:27 GMT-0600 (Central Standard Time),466005.19999999553,CFD-WF-017-016-HC.jpg,1700,dash,I,z,1343,1,3,8114.10000000149,457891.09999999404,8040,ATS,A,3
4,test,2,C,mfborder.png,1,m,Mon Nov 24 2025 17:34:27 GMT-0600 (Central Standard Time),468264.69999999553,CFD-BM-017-052-HC.jpg,1000,dash,I,m,1226,4,3,10373.60000000149,457891.09999999404,8040,ATS,A,4
5,test,2,C,haborder.png,1,m,Mon Nov 24 2025 17:34:27 GMT-0600 (Central Standard Time),471103.59999999404,CFD-WM-004-005-HC.jpg,1500,solid,I,m,1300,11,3,13212.5,457891.09999999404,8040,ATS,A,5
6,test,2,C,mfborder.png,1,z,Mon Nov 24 2025 17:34:27 GMT-0600 (Central Standard Time),473986.19999999553,CFD-WF-019-015-A.jpg,1600,dash,I,z,1263,2,3,16095.10000000149,457891.09999999404,8040,ATS,A,6
7,test,2,C,mfborder.png,1,z,Mon Nov 24 2025 17:34:27 GMT-0600 (Central Standard Time),476435.19999999553,CFD-WF-019-015-A.jpg,1600,dash,I,z,829,2,3,18544.10000000149,457891.09999999404,8040,ATS,A,7
7,test,2,C,haborder.png,0,z,Mon Nov 24 2025 17:34:27 GMT-0600 (Central Standard Time),479517.69999999553,CFD-BF-039-039-A.jpg,1900,solid,I,m,1151,8,3,21626.60000000149,457891.09999999404,8040,ATS,A,8
8,test,2,C,haborder.png,1,m,Mon Nov 24 2025 17:34:27 GMT-0600 (Central Standard Time),481666.799999997,CFD-WM-004-005-HC.jpg,1000,solid,I,m,1130,12,3,23775.70000000298,457891.09999999404,8040,ATS,A,9
9,test,2,C,mfborder.png,1,m,Mon Nov 24 2025 17:34:27 GMT-0600 (Central Standard Time),484949.3999999985,CFD-BM-005-010-A.jpg,2000,dash,I,m,1252,5,3,27058.30000000447,457891.09999999404,8040,ATS,A,10
10,test,2,C,mfborder.png,1,m,Mon Nov 24 2025 17:34:27 GMT-0600 (Central Standard Time),487315.19999999553,CFD-WM-013-015-A.jpg,1200,dash,I,m,1131,6,3,29424.10000000149,457891.09999999404,8040,ATS,A,11
10,test,2,C,haborder.png,0,z,Mon Nov 24 2025 17:34:27 GMT-0600 (Central Standard Time),490752.59999999404,CFD-BF-039-039-A.jpg,1900,solid,I,None,1516,8,3,32861.5,457891.09999999404,8040,ATS,A,12
11,test,2,C,haborder.png,1,z,Mon Nov 24 2025 17:34:27 GMT-0600 (Central Standard Time),493230.09999999404,CFD-WF-003-014-A.jpg,1700,solid,I,z,751,9,3,35339.0,457891.09999999404,8040,ATS,A,13
11,test,2,C,mfborder.png,0,z,Mon Nov 24 2025 17:34:27 GMT-0600 (Central Standard Time),496029.09999999404,CFD-BF-028-020-HC.jpg,1500,dash,I,m,1276,3,3,38138.0,457891.09999999404,8040,ATS,A,14
12,test,2,C,mfborder.png,1,m,Mon Nov 24 2025 17:34:27 GMT-0600 (Central Standard Time),499061.59999999404,CFD-BM-005-010-A.jpg,2000,dash,I,m,1010,5,3,41170.5,457891.09999999404,8040,ATS,A,15
13,test,2,C,mfborder.png,1,m,Mon Nov 24 2025 17:34:27 GMT-0600 (Central Standard Time),501362.0,CFD-WM-013-015-A.jpg,1200,dash,I,m,1082,6,3,43470.90000000596,457891.09999999404,8040,ATS,A,16
14,test,2,C,mfborder.png,1,z,Mon Nov 24 2025 17:34:27 GMT-0600 (Central Standard Time),503960.0,CFD-WF-017-016-HC.jpg,1700,dash,I,z,874,1,3,46068.90000000596,457891.09999999404,8040,ATS,A,17
15,test,2,C,haborder.png,1,m,Mon Nov 24 2025 17:34:27 GMT-0600 (Central Standard Time),506259.5,CFD-WM-004-005-HC.jpg,1000,solid,I,m,1278,12,3,48368.40000000596,457891.09999999404,8040,ATS,A,18
16,test,2,C,haborder.png,1,z,Mon Nov 24 2025 17:34:27 GMT-0600 (Central Standard Time),508841.8999999985,CFD-WF-003-014-A.jpg,1700,solid,I,z,859,9,3,50950.80000000447,457891.09999999404,8040,ATS,A,19
17,test,2,C,mfborder.png,1,z,Mon Nov 24 2025 17:34:27 GMT-0600 (Central Standard Time),511607.799999997,CFD-BF-028-020-HC.jpg,1500,dash,I,z,1241,3,3,53716.70000000298,457891.09999999404,8040,ATS,A,20
18,test,2,C,haborder.png,1,z,Mon Nov 24 2025 17:34:27 GMT-0600 (Central Standard Time),514056.59999999404,CFD-BF-023-013-A.jpg,1400,solid,I,z,1031,7,3,56165.5,457891.09999999404,8040,ATS,A,21
19,test,2,C,haborder.png,1,m,Mon Nov 24 2025 17:34:27 GMT-0600 (Central Standard Time),516672.799999997,CFD-BM-029-026-HC.jpg,1600,solid,I,m,998,10,3,58781.70000000298,457891.09999999404,8040,ATS,A,22
20,test,2,C,mfborder.png,1,m,Mon Nov 24 2025 17:34:27 GMT-0600 (Central Standard Time),519105.19999999553,CFD-BM-017-052-HC.jpg,1000,dash,I,m,1405,4,3,61214.10000000149,457891.09999999404,8040,ATS,A,23
21,test,2,C,haborder.png,1,m,Mon Nov 24 2025 17:34:27 GMT-0600 (Central Standard Time),522087.3999999985,CFD-BM-029-026-HC.jpg,1600,solid,I,m,1366,10,3,64196.30000000447,457891.09999999404,8040,ATS,A,24
0,test,3,C,mfborder.png,0,m,Mon Nov 24 2025 17:34:27 GMT-0600 (Central Standard Time),527985.8999999985,CFD-WM-019-013-A.jpg,2000,dash,I,None,1516,5,3,3532.5,524453.3999999985,8040,ATS,A,1
0,test,3,C,mfborder.png,0,z,Mon Nov 24 2025 17:34:27 GMT-0600 (Central Standard Time),531068.0,CFD-BF-010-005-HC.jpg,1700,dash,I,m,1353,1,3,6614.60000000149,524453.3999999985,8040,ATS,A,2
0,test,3,C,haborder.png,0,z,Mon Nov 24 2025 17:34:27 GMT-0600 (Central Standard Time),534183.8999999985,CFD-BM-010-019-A.jpg,1700,solid,I,m,1390,9,3,9730.5,524453.3999999985,8040,ATS,A,3
1,test,3,C,mfborder.png,1,m,Mon Nov 24 2025 17:34:27 GMT-0600 (Central Standard Time),536833.099999994,CFD-BM-029-026-HC.jpg,1200,dash,I,m,1423,6,3,12379.69999999553,524453.3999999985,8040,ATS,A,4
1,test,3,C,haborder.png,0,m,Mon Nov 24 2025 17:34:27 GMT-0600 (Central Standard Time),539115.5,CFD-WF-017-016-HC.jpg,1000,solid,I,z,1261,12,3,14662.10000000149,524453.3999999985,8040,ATS,A,5
2,test,3,C,haborder.png,1,z,Mon Nov 24 2025 17:34:27 GMT-0600 (Central Standard Time),541997.8999999985,CFD-WM-013-015-A.jpg,1400,solid,I,z,1459,7,3,17544.5,524453.3999999985,8040,ATS,A,6
3,test,3,C,haborder.png,1,z,Mon Nov 24 2025 17:34:27 GMT-0600 (Central Standard Time),544480.6999999955,CFD-WM-013-015-A.jpg,1400,solid,I,z,1056,7,3,20027.29999999702,524453.3999999985,8040,ATS,A,7
4,test,3,C,haborder.png,1,z,Mon Nov 24 2025 17:34:27 GMT-0600 (Central Standard Time),547496.3999999985,CFD-BM-005-010-A.jpg,1900,solid,I,z,1090,8,3,23043.0,524453.3999999985,8040,ATS,A,8
5,test,3,C,mfborder.png,1,z,Mon Nov 24 2025 17:34:27 GMT-0600 (Central Standard Time),550479.1999999955,CFD-WF-003-014-A.jpg,1500,dash,I,z,1459,3,3,26025.79999999702,524453.3999999985,8040,ATS,A,9
6,test,3,C,haborder.png,1,m,Mon Nov 24 2025 17:34:27 GMT-0600 (Central Standard Time),553328.0,CFD-WF-002-008-HC.jpg,1500,solid,I,m,1324,11,3,28874.60000000149,524453.3999999985,8040,ATS,A,10
6,test,3,C,mfborder.png,0,m,Mon Nov 24 2025 17:34:27 GMT-0600 (Central Standard Time),555860.299999997,CFD-WM-006-013-HC.jpg,1000,dash,I,None,1515,4,3,31406.89999999851,524453.3999999985,8040,ATS,A,11
7,test,3,C,mfborder.png,1,z,Mon Nov 24 2025 17:34:27 GMT-0600 (Central Standard Time),558842.799999997,CFD-BF-010-005-HC.jpg,1700,dash,I,z,1254,1,3,34389.39999999851,524453.3999999985,8040,ATS,A,12
8,test,3,C,mfborder.png,1,m,Mon Nov 24 2025 17:34:27 GMT-0600 (Central Standard Time),561158.8999999985,CFD-WM-006-013-HC.jpg,1000,dash,I,m,1284,4,3,36705.5,524453.3999999985,8040,ATS,A,13
9,test,3,C,haborder.png,1,m,Mon Nov 24 2025 17:34:27 GMT-0600 (Central Standard Time),564008.0,CFD-BF-028-020-HC.jpg,1600,solid,I,m,1217,10,3,39554.60000000149,524453.3999999985,8040,ATS,A,14
10,test,3,C,haborder.png,1,z,Mon Nov 24 2025 17:34:27 GMT-0600 (Central Standard Time),566673.799999997,CFD-BM-010-019-A.jpg,1700,solid,I,z,939,9,3,42220.39999999851,524453.3999999985,8040,ATS,A,15
11,test,3,C,mfborder.png,1,z,Mon Nov 24 2025 17:34:27 GMT-0600 (Central Standard Time),569739.5,CFD-BF-023-013-A.jpg,1600,dash,I,z,1445,2,3,45286.10000000149,524453.3999999985,8040,ATS,A,16
11,test,3,C,haborder.png,0,m,Mon Nov 24 2025 17:34:27 GMT-0600 (Central Standard Time),572638.6999999955,CFD-WF-002-008-HC.jpg,1500,solid,I,z,1376,11,3,48185.29999999702,524453.3999999985,8040,ATS,A,17
11,test,3,C,mfborder.png,0,z,Mon Nov 24 2025 17:34:27 GMT-0600 (Central Standard Time),575671.099999994,CFD-WF-003-014-A.jpg,1500,dash,I,None,1516,3,3,51217.69999999553,524453.3999999985,8040,ATS,A,18
12,test,3,C,mfborder.png,1,m,Mon Nov 24 2025 17:34:27 GMT-0600 (Central Standard Time),578053.5,CFD-BM-029-026-HC.jpg,1200,dash,I,m,1160,6,3,53600.10000000149,524453.3999999985,8040,ATS,A,19
13,test,3,C,mfborder.png,1,z,Mon Nov 24 2025 17:34:27 GMT-0600 (Central Standard Time),580652.799999997,CFD-BF-023-013-A.jpg,1600,dash,I,z,978,2,3,56199.39999999851,524453.3999999985,8040,ATS,A,20
13,test,3,C,haborder.png,0,m,Mon Nov 24 2025 17:34:27 GMT-0600 (Central Standard Time),583185.599999994,CFD-WF-017-016-HC.jpg,1000,solid,I,None,1516,12,3,58732.19999999553,524453.3999999985,8040,ATS,A,21
14,test,3,C,haborder.png,1,z,Mon Nov 24 2025 17:34:27 GMT-0600 (Central Standard Time),586135.1999999955,CFD-BM-005-010-A.jpg,1900,solid,I,z,1017,8,3,61681.79999999702,524453.3999999985,8040,ATS,A,22
15,test,3,C,haborder.png,1,m,Mon Nov 24 2025 17:34:27 GMT-0600 (Central Standard Time),589066.599999994,CFD-BF-028-020-HC.jpg,1600,solid,I,m,1305,10,3,64613.19999999553,524453.3999999985,8040,ATS,A,23
16,test,3,C,mfborder.png,1,m,Mon Nov 24 2025 17:34:27 GMT-0600 (Central Standard Time),592499.099999994,CFD-WM-019-013-A.jpg,2000,dash,I,m,1404,5,3,68045.69999999553,524453.3999999985,8040,ATS,A,24
0,test,4,C,mfborder.png,0,m,Mon Nov 24 2025 17:34:27 GMT-0600 (Central Standard Time),598130.5,CFD-WM-013-015-A.jpg,1200,dash,I,None,1516,6,3,2732.0,595398.5,8040,ATS,A,1
0,test,4,C,mfborder.png,0,z,Mon Nov 24 2025 17:34:27 GMT-0600 (Central Standard Time),601279.3999999985,CFD-WF-017-016-HC.jpg,1700,dash,I,m,1432,1,3,5880.89999999851,595398.5,8040,ATS,A,2
0,test,4,C,haborder.png,0,m,Mon Nov 24 2025 17:34:27 GMT-0600 (Central Standard Time),603812.3999999985,CFD-WM-004-005-HC.jpg,1000,solid,I,None,1516,12,3,8413.89999999851,595398.5,8040,ATS,A,3
0,test,4,C,mfborder.png,0,z,Mon Nov 24 2025 17:34:27 GMT-0600 (Central Standard Time),606511.099999994,CFD-BF-028-020-HC.jpg,1500,dash,I,m,1182,3,3,11112.59999999404,595398.5,8040,ATS,A,4
1,test,4,C,haborder.png,1,m,Mon Nov 24 2025 17:34:27 GMT-0600 (Central Standard Time),609243.8999999985,CFD-WM-004-005-HC.jpg,1500,solid,I,m,1203,11,3,13845.39999999851,595398.5,8040,ATS,A,5
2,test,4,C,haborder.png,1,m,Mon Nov 24 2025 17:34:27 GMT-0600 (Central Standard Time),611776.0,CFD-WM-004-005-HC.jpg,1500,solid,I,m,1015,11,3,16377.5,595398.5,8040,ATS,A,6
3,test,4,C,haborder.png,1,z,Mon Nov 24 2025 17:34:27 GMT-0600 (Central Standard Time),614608.5,CFD-BF-039-039-A.jpg,1900,solid,I,z,915,8,3,19210.0,595398.5,8040,ATS,A,7
4,test,4,C,haborder.png,1,z,Mon Nov 24 2025 17:34:27 GMT-0600 (Central Standard Time),617324.6999999955,CFD-WF-003-014-A.jpg,1700,solid,I,z,987,9,3,21926.19999999553,595398.5,8040,ATS,A,8
5,test,4,C,mfborder.png,1,z,Mon Nov 24 2025 17:34:27 GMT-0600 (Central Standard Time),620023.8999999985,CFD-BF-028-020-HC.jpg,1500,dash,I,z,1182,3,3,24625.39999999851,595398.5,8040,ATS,A,9
6,test,4,C,mfborder.png,1,z,Mon Nov 24 2025 17:34:27 GMT-0600 (Central Standard Time),622656.299999997,CFD-WF-017-016-HC.jpg,1700,dash,I,z,907,1,3,27257.79999999702,595398.5,8040,ATS,A,10
7,test,4,C,haborder.png,1,z,Mon Nov 24 2025 17:34:27 GMT-0600 (Central Standard Time),625589.0,CFD-BF-039-039-A.jpg,1900,solid,I,z,1010,8,3,30190.5,595398.5,8040,ATS,A,11
8,test,4,C,mfborder.png,1,m,Mon Nov 24 2025 17:34:27 GMT-0600 (Central Standard Time),628920.6999999955,CFD-BM-005-010-A.jpg,2000,dash,I,m,1315,5,3,33522.19999999553,595398.5,8040,ATS,A,12
9,test,4,C,haborder.png,1,m,Mon Nov 24 2025 17:34:27 GMT-0600 (Central Standard Time),631903.599999994,CFD-BM-029-026-HC.jpg,1600,solid,I,m,1358,10,3,36505.09999999404,595398.5,8040,ATS,A,13
10,test,4,C,mfborder.png,1,z,Mon Nov 24 2025 17:34:27 GMT-0600 (Central Standard Time),634852.5,CFD-WF-019-015-A.jpg,1600,dash,I,z,1327,2,3,39454.0,595398.5,8040,ATS,A,14
10,test,4,C,mfborder.png,0,m,Mon Nov 24 2025 17:34:27 GMT-0600 (Central Standard Time),637390.0,CFD-BM-017-052-HC.jpg,1000,dash,I,None,1516,4,3,41991.5,595398.5,8040,ATS,A,15
11,test,4,C,mfborder.png,1,z,Mon Nov 24 2025 17:34:27 GMT-0600 (Central Standard Time),640317.5,CFD-WF-019-015-A.jpg,1600,dash,I,z,1310,2,3,44919.0,595398.5,8040,ATS,A,16
12,test,4,C,haborder.png,1,z,Mon Nov 24 2025 17:34:27 GMT-0600 (Central Standard Time),643166.6999999955,CFD-BF-023-013-A.jpg,1400,solid,I,z,1426,7,3,47768.19999999553,595398.5,8040,ATS,A,17
13,test,4,C,haborder.png,1,z,Mon Nov 24 2025 17:34:27 GMT-0600 (Central Standard Time),646082.1999999955,CFD-WF-003-014-A.jpg,1700,solid,I,z,1197,9,3,50683.69999999553,595398.5,8040,ATS,A,18
14,test,4,C,haborder.png,1,z,Mon Nov 24 2025 17:34:27 GMT-0600 (Central Standard Time),648498.299999997,CFD-BF-023-013-A.jpg,1400,solid,I,z,988,7,3,53099.79999999702,595398.5,8040,ATS,A,19
15,test,4,C,mfborder.png,1,m,Mon Nov 24 2025 17:34:27 GMT-0600 (Central Standard Time),651730.599999994,CFD-BM-005-010-A.jpg,2000,dash,I,m,1204,5,3,56332.09999999404,595398.5,8040,ATS,A,20
16,test,4,C,mfborder.png,1,m,Mon Nov 24 2025 17:34:27 GMT-0600 (Central Standard Time),653796.599999994,CFD-BM-017-052-HC.jpg,1000,dash,I,m,1037,4,3,58398.09999999404,595398.5,8040,ATS,A,21
17,test,4,C,haborder.png,1,m,Mon Nov 24 2025 17:34:27 GMT-0600 (Central Standard Time),656445.799999997,CFD-BM-029-026-HC.jpg,1600,solid,I,m,1018,10,3,61047.29999999702,595398.5,8040,ATS,A,22
18,test,4,C,mfborder.png,1,m,Mon Nov 24 2025 17:34:27 GMT-0600 (Central Standard Time),658945.1999999955,CFD-WM-013-015-A.jpg,1200,dash,I,m,1273,6,3,63546.69999999553,595398.5,8040,ATS,A,23
19,test,4,C,haborder.png,1,m,Mon Nov 24 2025 17:34:27 GMT-0600 (Central Standard Time),661160.599999994,CFD-WM-004-005-HC.jpg,1000,solid,I,m,1197,12,3,65762.09999999404,595398.5,8040,ATS,A,24
