acc_sum,block,block_c,change,condition,correct,correct_response,datetime,endtime,face,project,response,response_time,row_sel,session_number,start_end,starttime,subject_id,task,task_vers,trial
0,prac,1,,1-Back,,,Tue Aug 20 2024 16:54:22 GMT-0500 (Central Daylight Time),,124_o_f_d_a.png,O,space,6644,1,1,,,7003,VNB,A,0
1,prac,1,0.0,1-Back,1,m,Tue Aug 20 2024 16:54:22 GMT-0500 (Central Daylight Time),108690.19999998808,071_y_f_n_a.png,O,m,1336,2,1,2139.300000011921,106550.89999997616,7003,VNB,A,1
2,prac,1,0.0,1-Back,1,m,Tue Aug 20 2024 16:54:22 GMT-0500 (Central Daylight Time),111023.10000002384,165_m_m_h_a.png,O,m,1514,3,1,2325.100000023842,108698.0,7003,VNB,A,2
2,prac,1,0.0,1-Back,0,m,Tue Aug 20 2024 16:54:22 GMT-0500 (Central Daylight Time),113722.19999998808,109_y_m_d_a.png,O,z,1892,4,1,2691.199999988079,111031.0,7003,VNB,A,3
3,prac,1,0.0,1-Back,1,m,Tue Aug 20 2024 16:54:22 GMT-0500 (Central Daylight Time),116454.89999997616,124_o_f_n_a.png,O,m,1888,5,1,2725.199999988079,113729.69999998808,7003,VNB,A,4
3,prac,1,1.0,1-Back,0,z,Tue Aug 20 2024 16:54:22 GMT-0500 (Central Daylight Time),118154.0,109_y_m_n_a.png,O,m,891,6,1,1690.8999999761581,116463.10000002384,7003,VNB,A,5
4,prac,1,0.0,1-Back,1,m,Tue Aug 20 2024 16:54:22 GMT-0500 (Central Daylight Time),120453.39999997616,039_o_m_h_a.png,O,m,1487,7,1,2291.099999964237,118162.30000001192,7003,VNB,A,6
5,prac,1,0.0,1-Back,1,m,Tue Aug 20 2024 16:54:22 GMT-0500 (Central Daylight Time),122553.5,139_m_f_d_a.png,O,m,1282,8,1,2091.399999976158,120462.10000002384,7003,VNB,A,7
6,prac,1,1.0,1-Back,1,z,Tue Aug 20 2024 16:54:22 GMT-0500 (Central Daylight Time),124602.0,071_y_f_d_a.png,O,z,1231,9,1,2040.300000011921,122561.69999998808,7003,VNB,A,8
7,prac,1,0.0,1-Back,1,m,Tue Aug 20 2024 16:54:22 GMT-0500 (Central Daylight Time),126668.30000001192,165_m_m_n_a.png,O,m,1254,10,1,2058.400000035763,124609.89999997616,7003,VNB,A,9
8,prac,1,0.0,1-Back,1,m,Tue Aug 20 2024 16:54:22 GMT-0500 (Central Daylight Time),128834.0,124_o_f_h_a.png,O,m,1347,11,1,2158.199999988079,126675.80000001192,7003,VNB,A,10
9,prac,1,0.0,1-Back,1,m,Tue Aug 20 2024 16:54:22 GMT-0500 (Central Daylight Time),130766.89999997616,109_y_m_d_a.png,O,m,1144,12,1,1925.0,128841.89999997616,7003,VNB,A,11
0,test,1,0.0,1-Back,,,Tue Aug 20 2024 16:54:22 GMT-0500 (Central Daylight Time),130766.89999997616,071_y_f_d_a.png,O,space,6462,1,1,1925.0,128841.89999997616,7003,VNB,A,0
1,test,1,0.0,1-Back,1,m,Tue Aug 20 2024 16:54:22 GMT-0500 (Central Daylight Time),148178.10000002384,139_m_f_n_a.png,O,m,858,2,1,1878.1000000238419,146300.0,7003,VNB,A,1
2,test,1,0.0,1-Back,1,m,Tue Aug 20 2024 16:54:22 GMT-0500 (Central Daylight Time),150377.19999998808,039_o_m_h_a.png,O,m,1176,3,1,2191.5,148185.69999998808,7003,VNB,A,2
3,test,1,1.0,1-Back,1,z,Tue Aug 20 2024 16:54:22 GMT-0500 (Central Daylight Time),152343.5,165_m_m_h_a.png,O,z,944,4,1,1959.699999988079,150383.80000001192,7003,VNB,A,3
4,test,1,0.0,1-Back,1,m,Tue Aug 20 2024 16:54:22 GMT-0500 (Central Daylight Time),154226.0,124_o_f_n_a.png,O,m,866,5,1,1876.300000011921,152349.69999998808,7003,VNB,A,4
5,test,1,0.0,1-Back,1,m,Tue Aug 20 2024 16:54:22 GMT-0500 (Central Daylight Time),156142.0,109_y_m_d_a.png,O,m,895,6,1,1909.1000000238419,154232.89999997616,7003,VNB,A,5
6,test,1,1.0,1-Back,1,z,Tue Aug 20 2024 16:54:22 GMT-0500 (Central Daylight Time),158124.80000001192,139_m_f_d_a.png,O,z,955,7,1,1975.0,156149.80000001192,7003,VNB,A,6
7,test,1,0.0,1-Back,1,m,Tue Aug 20 2024 16:54:22 GMT-0500 (Central Daylight Time),159908.60000002384,071_y_f_h_a.png,O,m,764,8,1,1776.800000011921,158131.80000001192,7003,VNB,A,7
8,test,1,0.0,1-Back,1,m,Tue Aug 20 2024 16:54:22 GMT-0500 (Central Daylight Time),162240.19999998808,039_o_m_n_a.png,O,m,1302,9,1,2324.699999988079,159915.5,7003,VNB,A,8
9,test,1,0.0,1-Back,1,m,Tue Aug 20 2024 16:54:22 GMT-0500 (Central Daylight Time),164322.89999997616,109_y_m_h_a.png,O,m,1057,10,1,2075.399999976158,162247.5,7003,VNB,A,9
10,test,1,0.0,1-Back,1,m,Tue Aug 20 2024 16:54:22 GMT-0500 (Central Daylight Time),166172.19999998808,039_o_m_d_a.png,O,m,823,11,1,1843.199999988079,164329.0,7003,VNB,A,10
11,test,1,1.0,1-Back,1,z,Tue Aug 20 2024 16:54:22 GMT-0500 (Central Daylight Time),167954.69999998808,124_o_f_d_a.png,O,z,765,12,1,1776.0,166178.69999998808,7003,VNB,A,11
12,test,1,0.0,1-Back,1,m,Tue Aug 20 2024 16:54:22 GMT-0500 (Central Daylight Time),169852.30000001192,165_m_m_n_a.png,O,m,880,13,1,1891.0,167961.30000001192,7003,VNB,A,12
13,test,1,1.0,1-Back,1,z,Tue Aug 20 2024 16:54:22 GMT-0500 (Central Daylight Time),172037.10000002384,071_y_f_n_a.png,O,z,1163,14,1,2177.400000035763,169859.69999998808,7003,VNB,A,13
14,test,1,0.0,1-Back,1,m,Tue Aug 20 2024 16:54:22 GMT-0500 (Central Daylight Time),174086.30000001192,139_m_f_h_a.png,O,m,1028,15,1,2041.800000011921,172044.5,7003,VNB,A,14
15,test,1,0.0,1-Back,1,m,Tue Aug 20 2024 16:54:22 GMT-0500 (Central Daylight Time),176285.69999998808,165_m_m_d_a.png,O,m,1179,16,1,2190.899999976158,174094.80000001192,7003,VNB,A,15
16,test,1,0.0,1-Back,1,m,Tue Aug 20 2024 16:54:22 GMT-0500 (Central Daylight Time),178285.0,109_y_m_n_a.png,O,m,980,17,1,1992.5,176292.5,7003,VNB,A,16
17,test,1,0.0,1-Back,1,m,Tue Aug 20 2024 16:54:22 GMT-0500 (Central Daylight Time),180218.0,124_o_f_h_a.png,O,m,900,18,1,1926.800000011921,178291.19999998808,7003,VNB,A,17
0,test,2,0.0,1-Back,,,Tue Aug 20 2024 16:54:22 GMT-0500 (Central Daylight Time),180218.0,109_y_m_n_a.png,O,space,887,1,1,1926.800000011921,178291.19999998808,7003,VNB,A,0
1,test,2,0.0,1-Back,1,m,Tue Aug 20 2024 16:54:22 GMT-0500 (Central Daylight Time),185149.60000002384,071_y_f_h_a.png,O,m,996,2,1,2009.5,183140.10000002384,7003,VNB,A,1
2,test,2,1.0,1-Back,1,m,Tue Aug 20 2024 16:54:22 GMT-0500 (Central Daylight Time),187265.69999998808,039_o_m_n_a.png,O,m,1084,3,1,2108.599999964237,185157.10000002384,7003,VNB,A,2
3,test,2,0.0,1-Back,1,m,Tue Aug 20 2024 16:54:22 GMT-0500 (Central Daylight Time),189314.69999998808,139_m_f_d_a.png,O,m,1032,4,1,2042.300000011921,187272.39999997616,7003,VNB,A,3
4,test,2,0.0,1-Back,1,z,Tue Aug 20 2024 16:54:22 GMT-0500 (Central Daylight Time),191147.89999997616,165_m_m_d_a.png,O,z,806,5,1,1825.5999999642372,189322.30000001192,7003,VNB,A,4
5,test,2,0.0,1-Back,1,m,Tue Aug 20 2024 16:54:22 GMT-0500 (Central Daylight Time),193030.5,109_y_m_h_a.png,O,m,862,6,1,1875.6000000238419,191154.89999997616,7003,VNB,A,5
6,test,2,1.0,1-Back,1,z,Tue Aug 20 2024 16:54:22 GMT-0500 (Central Daylight Time),195013.19999998808,124_o_f_h_a.png,O,z,955,7,1,1975.5,193037.69999998808,7003,VNB,A,6
7,test,2,0.0,1-Back,1,m,Tue Aug 20 2024 16:54:22 GMT-0500 (Central Daylight Time),196879.30000001192,139_m_f_n_a.png,O,m,836,8,1,1857.300000011921,195022.0,7003,VNB,A,7
7,test,2,0.0,1-Back,0,m,Tue Aug 20 2024 16:54:22 GMT-0500 (Central Daylight Time),198962.10000002384,071_y_f_d_a.png,O,z,1066,9,1,2076.300000011921,196885.80000001192,7003,VNB,A,8
8,test,2,0.0,1-Back,1,m,Tue Aug 20 2024 16:54:22 GMT-0500 (Central Daylight Time),200778.0,165_m_m_n_a.png,O,m,799,10,1,1808.699999988079,198969.30000001192,7003,VNB,A,9
9,test,2,1.0,1-Back,1,m,Tue Aug 20 2024 16:54:22 GMT-0500 (Central Daylight Time),203393.89999997616,139_m_f_h_a.png,O,m,1583,11,1,2609.399999976158,200784.5,7003,VNB,A,10
10,test,2,0.0,1-Back,1,z,Tue Aug 20 2024 16:54:22 GMT-0500 (Central Daylight Time),205110.0,039_o_m_h_a.png,O,z,695,12,1,1709.300000011921,203400.69999998808,7003,VNB,A,11
11,test,2,0.0,1-Back,1,m,Tue Aug 20 2024 16:54:22 GMT-0500 (Central Daylight Time),206942.5,109_y_m_d_a.png,O,m,812,13,1,1825.300000011921,205117.19999998808,7003,VNB,A,12
12,test,2,0.0,1-Back,1,m,Tue Aug 20 2024 16:54:22 GMT-0500 (Central Daylight Time),208959.0,124_o_f_n_a.png,O,m,986,14,1,2009.5,206949.5,7003,VNB,A,13
13,test,2,0.0,1-Back,1,z,Tue Aug 20 2024 16:54:22 GMT-0500 (Central Daylight Time),211241.39999997616,071_y_f_n_a.png,O,z,1258,15,1,2275.399999976158,208966.0,7003,VNB,A,14
14,test,2,1.0,1-Back,1,m,Tue Aug 20 2024 16:54:22 GMT-0500 (Central Daylight Time),213307.19999998808,165_m_m_h_a.png,O,m,1048,16,1,2059.099999964237,211248.10000002384,7003,VNB,A,15
15,test,2,0.0,1-Back,1,m,Tue Aug 20 2024 16:54:22 GMT-0500 (Central Daylight Time),215890.10000002384,124_o_f_d_a.png,O,m,1566,17,1,2576.2000000476837,213313.89999997616,7003,VNB,A,16
16,test,2,1.0,1-Back,1,z,Tue Aug 20 2024 16:54:22 GMT-0500 (Central Daylight Time),217839.30000001192,039_o_m_d_a.png,O,z,866,18,1,1942.4000000357628,215896.89999997616,7003,VNB,A,17
0,test,3,1.0,1-Back,,,Tue Aug 20 2024 16:54:22 GMT-0500 (Central Daylight Time),217839.30000001192,124_o_f_h_a.png,O,space,850,1,1,1942.4000000357628,215896.89999997616,7003,VNB,A,0
1,test,3,0.0,1-Back,1,m,Tue Aug 20 2024 16:54:22 GMT-0500 (Central Daylight Time),222504.60000002384,139_m_f_d_a.png,O,m,726,2,1,1741.800000011921,220762.80000001192,7003,VNB,A,1
2,test,3,1.0,1-Back,1,m,Tue Aug 20 2024 16:54:22 GMT-0500 (Central Daylight Time),225070.5,165_m_m_n_a.png,O,m,1545,3,1,2559.100000023842,222511.39999997616,7003,VNB,A,2
3,test,3,0.0,1-Back,1,z,Tue Aug 20 2024 16:54:22 GMT-0500 (Central Daylight Time),227103.10000002384,124_o_f_n_a.png,O,z,1011,4,1,2025.7000000476837,225077.39999997616,7003,VNB,A,3
4,test,3,1.0,1-Back,1,m,Tue Aug 20 2024 16:54:22 GMT-0500 (Central Daylight Time),228886.0,039_o_m_d_a.png,O,m,754,5,1,1776.1000000238419,227109.89999997616,7003,VNB,A,4
5,test,3,0.0,1-Back,1,m,Tue Aug 20 2024 16:54:22 GMT-0500 (Central Daylight Time),230835.10000002384,071_y_f_h_a.png,O,m,931,6,1,1942.800000011921,228892.30000001192,7003,VNB,A,5
6,test,3,0.0,1-Back,1,z,Tue Aug 20 2024 16:54:22 GMT-0500 (Central Daylight Time),232584.80000001192,109_y_m_h_a.png,O,z,726,7,1,1742.699999988079,230842.10000002384,7003,VNB,A,6
7,test,3,0.0,1-Back,1,m,Tue Aug 20 2024 16:54:22 GMT-0500 (Central Daylight Time),234401.0,139_m_f_n_a.png,O,m,785,8,1,1809.5,232591.5,7003,VNB,A,7
8,test,3,0.0,1-Back,1,m,Tue Aug 20 2024 16:54:22 GMT-0500 (Central Daylight Time),236700.10000002384,071_y_f_d_a.png,O,m,1272,9,1,2292.400000035763,234407.69999998808,7003,VNB,A,8
9,test,3,1.0,1-Back,1,m,Tue Aug 20 2024 16:54:22 GMT-0500 (Central Daylight Time),238832.80000001192,039_o_m_n_a.png,O,m,1109,10,1,2126.199999988079,236706.60000002384,7003,VNB,A,9
10,test,3,0.0,1-Back,1,m,Tue Aug 20 2024 16:54:22 GMT-0500 (Central Daylight Time),240667.39999997616,165_m_m_h_a.png,O,m,810,11,1,1826.0999999642372,238841.30000001192,7003,VNB,A,10
11,test,3,0.0,1-Back,1,z,Tue Aug 20 2024 16:54:22 GMT-0500 (Central Daylight Time),242465.0,139_m_f_h_a.png,O,z,775,12,1,1788.800000011921,240676.19999998808,7003,VNB,A,11
12,test,3,1.0,1-Back,1,m,Tue Aug 20 2024 16:54:22 GMT-0500 (Central Daylight Time),244314.30000001192,124_o_f_d_a.png,O,m,832,13,1,1842.699999988079,242471.60000002384,7003,VNB,A,12
13,test,3,0.0,1-Back,1,z,Tue Aug 20 2024 16:54:22 GMT-0500 (Central Daylight Time),246530.39999997616,165_m_m_d_a.png,O,z,1183,14,1,2208.7999999523163,244321.60000002384,7003,VNB,A,13
14,test,3,0.0,1-Back,1,m,Tue Aug 20 2024 16:54:22 GMT-0500 (Central Daylight Time),248446.5,109_y_m_n_a.png,O,m,895,15,1,1909.300000011921,246537.19999998808,7003,VNB,A,14
15,test,3,1.0,1-Back,1,m,Tue Aug 20 2024 16:54:22 GMT-0500 (Central Daylight Time),250312.5,039_o_m_h_a.png,O,m,843,16,1,1859.800000011921,248452.69999998808,7003,VNB,A,15
16,test,3,0.0,1-Back,1,m,Tue Aug 20 2024 16:54:22 GMT-0500 (Central Daylight Time),252045.30000001192,109_y_m_d_a.png,O,m,705,17,1,1726.1000000238419,250319.19999998808,7003,VNB,A,16
17,test,3,1.0,1-Back,1,m,Tue Aug 20 2024 16:54:22 GMT-0500 (Central Daylight Time),253828.0,071_y_f_n_a.png,O,m,764,18,1,1775.800000011921,252052.19999998808,7003,VNB,A,17
0,test,4,1.0,1-Back,,,Tue Aug 20 2024 16:54:22 GMT-0500 (Central Daylight Time),253828.0,165_m_m_d_a.png,O,space,909,1,1,1775.800000011921,252052.19999998808,7003,VNB,A,0
1,test,4,0.0,1-Back,1,z,Tue Aug 20 2024 16:54:22 GMT-0500 (Central Daylight Time),259176.30000001192,039_o_m_d_a.png,O,z,1385,2,1,2409.600000023842,256766.69999998808,7003,VNB,A,1
2,test,4,0.0,1-Back,1,m,Tue Aug 20 2024 16:54:22 GMT-0500 (Central Daylight Time),260825.89999997616,109_y_m_h_a.png,O,m,625,3,1,1642.8999999761581,259183.0,7003,VNB,A,2
3,test,4,0.0,1-Back,1,m,Tue Aug 20 2024 16:54:22 GMT-0500 (Central Daylight Time),262658.60000002384,139_m_f_n_a.png,O,m,815,4,1,1825.7000000476837,260832.89999997616,7003,VNB,A,3
4,test,4,1.0,1-Back,1,m,Tue Aug 20 2024 16:54:22 GMT-0500 (Central Daylight Time),264907.89999997616,124_o_f_h_a.png,O,m,1231,5,1,2243.0,262664.89999997616,7003,VNB,A,4
5,test,4,0.0,1-Back,1,m,Tue Aug 20 2024 16:54:22 GMT-0500 (Central Daylight Time),266573.89999997616,165_m_m_n_a.png,O,m,645,6,1,1659.2999999523163,264914.60000002384,7003,VNB,A,5
6,test,4,0.0,1-Back,1,m,Tue Aug 20 2024 16:54:22 GMT-0500 (Central Daylight Time),268290.1999999881,109_y_m_d_a.png,O,m,699,7,1,1709.699999988079,266580.5,7003,VNB,A,6
7,test,4,1.0,1-Back,1,z,Tue Aug 20 2024 16:54:22 GMT-0500 (Central Daylight Time),270006.1999999881,071_y_f_d_a.png,O,z,695,8,1,1709.0999999642372,268297.10000002384,7003,VNB,A,7
8,test,4,0.0,1-Back,1,m,Tue Aug 20 2024 16:54:22 GMT-0500 (Central Daylight Time),271989.0,139_m_f_h_a.png,O,m,955,9,1,1976.0,270013.0,7003,VNB,A,8
8,test,4,0.0,1-Back,0,z,Tue Aug 20 2024 16:54:22 GMT-0500 (Central Daylight Time),273855.10000002384,039_o_m_h_a.png,O,m,836,10,1,1858.7000000476837,271996.39999997616,7003,VNB,A,9
9,test,4,1.0,1-Back,1,m,Tue Aug 20 2024 16:54:22 GMT-0500 (Central Daylight Time),275554.6999999881,124_o_f_n_a.png,O,m,674,11,1,1691.5,273863.1999999881,7003,VNB,A,10
10,test,4,0.0,1-Back,1,m,Tue Aug 20 2024 16:54:22 GMT-0500 (Central Daylight Time),277304.0,139_m_f_d_a.png,O,m,727,12,1,1743.199999988079,275560.8000000119,7003,VNB,A,11
11,test,4,0.0,1-Back,1,m,Tue Aug 20 2024 16:54:22 GMT-0500 (Central Daylight Time),279520.10000002384,071_y_f_n_a.png,O,m,1185,13,1,2209.5,277310.60000002384,7003,VNB,A,12
12,test,4,0.0,1-Back,1,m,Tue Aug 20 2024 16:54:22 GMT-0500 (Central Daylight Time),281236.10000002384,124_o_f_d_a.png,O,m,697,14,1,1709.0,279527.10000002384,7003,VNB,A,13
13,test,4,0.0,1-Back,1,m,Tue Aug 20 2024 16:54:22 GMT-0500 (Central Daylight Time),283068.89999997616,071_y_f_h_a.png,O,m,813,15,1,1826.0999999642372,281242.8000000119,7003,VNB,A,14
14,test,4,1.0,1-Back,1,z,Tue Aug 20 2024 16:54:22 GMT-0500 (Central Daylight Time),284768.5,165_m_m_h_a.png,O,z,676,16,1,1692.5,283076.0,7003,VNB,A,15
15,test,4,0.0,1-Back,1,m,Tue Aug 20 2024 16:54:22 GMT-0500 (Central Daylight Time),286651.10000002384,039_o_m_n_a.png,O,m,857,17,1,1876.4000000357628,284774.6999999881,7003,VNB,A,16
16,test,4,1.0,1-Back,1,z,Tue Aug 20 2024 16:54:22 GMT-0500 (Central Daylight Time),288617.10000002384,109_y_m_n_a.png,O,z,859,18,1,1959.5,286657.60000002384,7003,VNB,A,17
0,test,5,1.0,1-Back,,,Tue Aug 20 2024 16:54:22 GMT-0500 (Central Daylight Time),288617.10000002384,039_o_m_n_a.png,O,space,912,1,1,1959.5,286657.60000002384,7003,VNB,A,0
1,test,5,1.0,1-Back,1,m,Tue Aug 20 2024 16:54:22 GMT-0500 (Central Daylight Time),293282.39999997616,124_o_f_h_a.png,O,m,683,2,1,1709.8999999761581,291572.5,7003,VNB,A,1
2,test,5,0.0,1-Back,1,m,Tue Aug 20 2024 16:54:22 GMT-0500 (Central Daylight Time),295315.3000000119,109_y_m_d_a.png,O,m,1007,3,1,2026.199999988079,293289.10000002384,7003,VNB,A,2
3,test,5,0.0,1-Back,1,z,Tue Aug 20 2024 16:54:22 GMT-0500 (Central Daylight Time),296998.0,039_o_m_d_a.png,O,z,662,4,1,1675.8999999761581,295322.10000002384,7003,VNB,A,3
4,test,5,0.0,1-Back,1,m,Tue Aug 20 2024 16:54:22 GMT-0500 (Central Daylight Time),298714.1999999881,139_m_f_h_a.png,O,m,691,5,1,1708.199999988079,297006.0,7003,VNB,A,4
5,test,5,0.0,1-Back,1,m,Tue Aug 20 2024 16:54:22 GMT-0500 (Central Daylight Time),300846.8000000119,071_y_f_n_a.png,O,m,1103,6,1,2125.400000035763,298721.39999997616,7003,VNB,A,5
5,test,5,1.0,1-Back,0,z,Tue Aug 20 2024 16:54:22 GMT-0500 (Central Daylight Time),302996.10000002384,124_o_f_n_a.png,O,m,1131,7,1,2142.7000000476837,300853.39999997616,7003,VNB,A,6
6,test,5,0.0,1-Back,1,m,Tue Aug 20 2024 16:54:22 GMT-0500 (Central Daylight Time),304712.5,139_m_f_d_a.png,O,m,693,8,1,1709.6000000238419,303002.89999997616,7003,VNB,A,7
7,test,5,0.0,1-Back,1,m,Tue Aug 20 2024 16:54:22 GMT-0500 (Central Daylight Time),306628.1999999881,109_y_m_h_a.png,O,m,889,9,1,1908.5999999642372,304719.60000002384,7003,VNB,A,8
8,test,5,0.0,1-Back,1,m,Tue Aug 20 2024 16:54:22 GMT-0500 (Central Daylight Time),308844.10000002384,071_y_f_d_a.png,O,m,1197,10,1,2209.2000000476837,306634.89999997616,7003,VNB,A,9
9,test,5,0.0,1-Back,1,m,Tue Aug 20 2024 16:54:22 GMT-0500 (Central Daylight Time),310876.89999997616,165_m_m_n_a.png,O,m,1013,11,1,2026.199999988079,308850.6999999881,7003,VNB,A,10
10,test,5,1.0,1-Back,1,z,Tue Aug 20 2024 16:54:22 GMT-0500 (Central Daylight Time),312559.8000000119,139_m_f_n_a.png,O,z,653,12,1,1676.300000011921,310883.5,7003,VNB,A,11
11,test,5,0.0,1-Back,1,m,Tue Aug 20 2024 16:54:22 GMT-0500 (Central Daylight Time),314275.8000000119,039_o_m_h_a.png,O,m,698,13,1,1709.300000011921,312566.5,7003,VNB,A,12
12,test,5,0.0,1-Back,1,z,Tue Aug 20 2024 16:54:22 GMT-0500 (Central Daylight Time),316158.5,165_m_m_h_a.png,O,z,854,14,1,1876.0,314282.5,7003,VNB,A,13
13,test,5,1.0,1-Back,1,m,Tue Aug 20 2024 16:54:22 GMT-0500 (Central Daylight Time),317808.0,124_o_f_d_a.png,O,m,626,15,1,1642.699999988079,316165.3000000119,7003,VNB,A,14
14,test,5,0.0,1-Back,1,m,Tue Aug 20 2024 16:54:22 GMT-0500 (Central Daylight Time),319874.10000002384,109_y_m_n_a.png,O,m,1049,16,1,2059.300000011921,317814.8000000119,7003,VNB,A,15
15,test,5,0.0,1-Back,1,m,Tue Aug 20 2024 16:54:22 GMT-0500 (Central Daylight Time),321823.3000000119,071_y_f_h_a.png,O,m,927,17,1,1942.1000000238419,319881.1999999881,7003,VNB,A,16
16,test,5,0.0,1-Back,1,m,Tue Aug 20 2024 16:54:22 GMT-0500 (Central Daylight Time),323573.0,165_m_m_d_a.png,O,m,722,18,1,1743.0,321830.0,7003,VNB,A,17
0,prac,1,0.0,2-Back,,,Tue Aug 20 2024 16:54:22 GMT-0500 (Central Daylight Time),323573.0,139_m_f_n_a.png,O,space,2263,1,1,1743.0,321830.0,7003,VNB,A,0
0,prac,1,0.0,2-Back,,,Tue Aug 20 2024 16:54:22 GMT-0500 (Central Daylight Time),323573.0,124_o_f_h_a.png,O,space,2263,2,1,1743.0,321830.0,7003,VNB,A,0
1,prac,1,0.0,2-Back,1,m,Tue Aug 20 2024 16:54:22 GMT-0500 (Central Daylight Time),414011.3000000119,039_o_m_d_a.png,O,m,1722,3,1,2522.600000023842,411488.6999999881,7003,VNB,A,1
2,prac,1,1.0,2-Back,1,z,Tue Aug 20 2024 16:54:22 GMT-0500 (Central Daylight Time),416260.6999999881,165_m_m_h_a.png,O,z,1436,4,1,2241.199999988079,414019.5,7003,VNB,A,2
3,prac,1,0.0,2-Back,1,m,Tue Aug 20 2024 16:54:22 GMT-0500 (Central Daylight Time),418126.6999999881,071_y_f_n_a.png,O,m,1059,5,1,1858.0,416268.6999999881,7003,VNB,A,3
4,prac,1,1.0,2-Back,1,z,Tue Aug 20 2024 16:54:22 GMT-0500 (Central Daylight Time),419892.60000002384,039_o_m_h_a.png,O,z,964,6,1,1758.4000000357628,418134.1999999881,7003,VNB,A,4
5,prac,1,1.0,2-Back,1,z,Tue Aug 20 2024 16:54:22 GMT-0500 (Central Daylight Time),422142.1999999881,109_y_m_n_a.png,O,z,1431,7,1,2241.399999976158,419900.8000000119,7003,VNB,A,5
6,prac,1,0.0,2-Back,1,m,Tue Aug 20 2024 16:54:22 GMT-0500 (Central Daylight Time),424641.10000002384,139_m_f_d_a.png,O,m,1682,8,1,2490.800000011921,422150.3000000119,7003,VNB,A,6
7,prac,1,0.0,2-Back,1,m,Tue Aug 20 2024 16:54:22 GMT-0500 (Central Daylight Time),427057.10000002384,124_o_f_d_a.png,O,m,1585,9,1,2407.7000000476837,424649.39999997616,7003,VNB,A,7
7,prac,1,0.0,2-Back,0,m,Tue Aug 20 2024 16:54:22 GMT-0500 (Central Daylight Time),429051.39999997616,165_m_m_h_a.png,O,z,1080,10,1,1985.7999999523163,427065.60000002384,7003,VNB,A,8
7,prac,1,1.0,2-Back,0,z,Tue Aug 20 2024 16:54:22 GMT-0500 (Central Daylight Time),431222.39999997616,071_y_f_d_a.png,O,m,1350,11,1,2158.2999999523163,429064.10000002384,7003,VNB,A,9
8,prac,1,0.0,2-Back,1,m,Tue Aug 20 2024 16:54:22 GMT-0500 (Central Daylight Time),433488.3000000119,039_o_m_n_a.png,O,m,1452,12,1,2257.900000035763,431230.39999997616,7003,VNB,A,10
0,test,1,0.0,2-Back,,,Tue Aug 20 2024 16:54:22 GMT-0500 (Central Daylight Time),433488.3000000119,109_y_m_h_a.png,O,space,2222,1,1,2257.900000035763,431230.39999997616,7003,VNB,A,0
0,test,1,0.0,2-Back,,,Tue Aug 20 2024 16:54:22 GMT-0500 (Central Daylight Time),433488.3000000119,124_o_f_n_a.png,O,space,2222,2,1,2257.900000035763,431230.39999997616,7003,VNB,A,0
1,test,1,0.0,2-Back,1,z,Tue Aug 20 2024 16:54:22 GMT-0500 (Central Daylight Time),448733.6999999881,039_o_m_h_a.png,O,z,712,3,1,1725.3999999761581,447008.3000000119,7003,VNB,A,1
2,test,1,0.0,2-Back,1,m,Tue Aug 20 2024 16:54:22 GMT-0500 (Central Daylight Time),450833.3000000119,139_m_f_d_a.png,O,m,1068,4,1,2092.5,448740.8000000119,7003,VNB,A,2
3,test,1,1.0,2-Back,1,m,Tue Aug 20 2024 16:54:22 GMT-0500 (Central Daylight Time),452832.3000000119,109_y_m_n_a.png,O,m,967,5,1,1991.9000000357628,450840.39999997616,7003,VNB,A,3
4,test,1,0.0,2-Back,1,z,Tue Aug 20 2024 16:54:22 GMT-0500 (Central Daylight Time),455131.6999999881,071_y_f_d_a.png,O,z,1281,6,1,2292.800000011921,452838.89999997616,7003,VNB,A,4
5,test,1,0.0,2-Back,1,m,Tue Aug 20 2024 16:54:22 GMT-0500 (Central Daylight Time),457414.3000000119,165_m_m_h_a.png,O,m,1254,7,1,2275.600000023842,455138.6999999881,7003,VNB,A,5
6,test,1,1.0,2-Back,1,m,Tue Aug 20 2024 16:54:22 GMT-0500 (Central Daylight Time),459313.5,071_y_f_n_a.png,O,m,867,8,1,1892.1000000238419,457421.39999997616,7003,VNB,A,6
7,test,1,0.0,2-Back,1,z,Tue Aug 20 2024 16:54:22 GMT-0500 (Central Daylight Time),461362.6999999881,124_o_f_h_a.png,O,z,1032,9,1,2042.0,459320.6999999881,7003,VNB,A,7
7,test,1,0.0,2-Back,0,m,Tue Aug 20 2024 16:54:22 GMT-0500 (Central Daylight Time),463412.5,039_o_m_d_a.png,O,z,1022,10,1,2043.300000011921,461369.1999999881,7003,VNB,A,8
8,test,1,1.0,2-Back,1,m,Tue Aug 20 2024 16:54:22 GMT-0500 (Central Daylight Time),465978.10000002384,165_m_m_d_a.png,O,m,1541,11,1,2558.5,463419.60000002384,7003,VNB,A,9
8,test,1,0.0,2-Back,0,m,Tue Aug 20 2024 16:54:22 GMT-0500 (Central Daylight Time),468194.1999999881,139_m_f_n_a.png,O,z,1199,12,1,2209.399999976158,465984.8000000119,7003,VNB,A,10
9,test,1,0.0,2-Back,1,m,Tue Aug 20 2024 16:54:22 GMT-0500 (Central Daylight Time),470460.1999999881,071_y_f_h_a.png,O,m,1247,13,1,2259.300000011921,468200.89999997616,7003,VNB,A,11
9,test,1,0.0,2-Back,0,z,Tue Aug 20 2024 16:54:22 GMT-0500 (Central Daylight Time),473493.1999999881,165_m_m_n_a.png,O,None,2016,14,1,3026.300000011921,470466.89999997616,7003,VNB,A,12
9,test,1,0.0,2-Back,0,m,Tue Aug 20 2024 16:54:22 GMT-0500 (Central Daylight Time),475458.8000000119,109_y_m_d_a.png,O,z,941,15,1,1958.699999988079,473500.10000002384,7003,VNB,A,13
10,test,1,1.0,2-Back,1,m,Tue Aug 20 2024 16:54:22 GMT-0500 (Central Daylight Time),477491.10000002384,139_m_f_h_a.png,O,m,1015,16,1,2024.5,475466.60000002384,7003,VNB,A,14
10,test,1,0.0,2-Back,0,z,Tue Aug 20 2024 16:54:22 GMT-0500 (Central Daylight Time),479690.60000002384,124_o_f_d_a.png,O,m,1174,17,1,2191.5,477499.10000002384,7003,VNB,A,15
10,test,1,0.0,2-Back,0,m,Tue Aug 20 2024 16:54:22 GMT-0500 (Central Daylight Time),482039.89999997616,039_o_m_n_a.png,O,z,1327,18,1,2342.699999988079,479697.1999999881,7003,VNB,A,16
0,test,2,0.0,2-Back,,,Tue Aug 20 2024 16:54:22 GMT-0500 (Central Daylight Time),482039.89999997616,165_m_m_h_a.png,O,space,2257,1,1,2342.699999988079,479697.1999999881,7003,VNB,A,0
0,test,2,0.0,2-Back,,,Tue Aug 20 2024 16:54:22 GMT-0500 (Central Daylight Time),482039.89999997616,071_y_f_n_a.png,O,space,2257,2,1,2342.699999988079,479697.1999999881,7003,VNB,A,0
1,test,2,1.0,2-Back,1,z,Tue Aug 20 2024 16:54:22 GMT-0500 (Central Daylight Time),491137.10000002384,124_o_f_h_a.png,O,z,718,3,1,1742.300000011921,489394.8000000119,7003,VNB,A,1
2,test,2,0.0,2-Back,1,m,Tue Aug 20 2024 16:54:22 GMT-0500 (Central Daylight Time),493119.6999999881,039_o_m_d_a.png,O,m,961,4,1,1976.0999999642372,491143.60000002384,7003,VNB,A,2
3,test,2,0.0,2-Back,1,m,Tue Aug 20 2024 16:54:22 GMT-0500 (Central Daylight Time),495435.6999999881,139_m_f_d_a.png,O,m,1298,5,1,2309.199999988079,493126.5,7003,VNB,A,3
4,test,2,0.0,2-Back,1,m,Tue Aug 20 2024 16:54:22 GMT-0500 (Central Daylight Time),497468.10000002384,109_y_m_h_a.png,O,m,1006,6,1,2024.6000000238419,495443.5,7003,VNB,A,4
5,test,2,0.0,2-Back,1,m,Tue Aug 20 2024 16:54:22 GMT-0500 (Central Daylight Time),499549.1999999881,124_o_f_n_a.png,O,m,1064,7,1,2074.099999964237,497475.10000002384,7003,VNB,A,5
5,test,2,1.0,2-Back,0,z,Tue Aug 20 2024 16:54:22 GMT-0500 (Central Daylight Time),501767.10000002384,039_o_m_h_a.png,O,m,1186,8,1,2211.100000023842,499556.0,7003,VNB,A,6
5,test,2,0.0,2-Back,0,m,Tue Aug 20 2024 16:54:22 GMT-0500 (Central Daylight Time),504066.3000000119,071_y_f_d_a.png,O,z,1268,9,1,2292.400000035763,501773.89999997616,7003,VNB,A,7
6,test,2,0.0,2-Back,1,m,Tue Aug 20 2024 16:54:22 GMT-0500 (Central Daylight Time),506315.5,109_y_m_d_a.png,O,m,1223,10,1,2239.800000011921,504075.6999999881,7003,VNB,A,8
7,test,2,0.0,2-Back,1,m,Tue Aug 20 2024 16:54:22 GMT-0500 (Central Daylight Time),508648.39999997616,165_m_m_n_a.png,O,m,1302,11,1,2325.5,506322.89999997616,7003,VNB,A,9
7,test,2,0.0,2-Back,0,m,Tue Aug 20 2024 16:54:22 GMT-0500 (Central Daylight Time),510314.10000002384,139_m_f_h_a.png,O,z,641,12,1,1658.6000000238419,508655.5,7003,VNB,A,10
7,test,2,1.0,2-Back,0,z,Tue Aug 20 2024 16:54:22 GMT-0500 (Central Daylight Time),512580.3000000119,039_o_m_n_a.png,O,m,1247,13,1,2258.400000035763,510321.89999997616,7003,VNB,A,11
8,test,2,0.0,2-Back,1,m,Tue Aug 20 2024 16:54:22 GMT-0500 (Central Daylight Time),514829.60000002384,124_o_f_d_a.png,O,m,1229,14,1,2242.100000023842,512587.5,7003,VNB,A,12
9,test,2,0.0,2-Back,1,m,Tue Aug 20 2024 16:54:22 GMT-0500 (Central Daylight Time),516978.60000002384,071_y_f_h_a.png,O,m,1132,15,1,2141.800000011921,514836.8000000119,7003,VNB,A,13
10,test,2,0.0,2-Back,1,z,Tue Aug 20 2024 16:54:22 GMT-0500 (Central Daylight Time),519044.6999999881,165_m_m_d_a.png,O,z,1038,16,1,2058.599999964237,516986.10000002384,7003,VNB,A,14
11,test,2,0.0,2-Back,1,m,Tue Aug 20 2024 16:54:22 GMT-0500 (Central Daylight Time),521360.89999997616,109_y_m_n_a.png,O,m,1284,17,1,2308.899999976158,519052.0,7003,VNB,A,15
12,test,2,1.0,2-Back,1,m,Tue Aug 20 2024 16:54:22 GMT-0500 (Central Daylight Time),523876.8000000119,139_m_f_n_a.png,O,m,1497,18,1,2508.100000023842,521368.6999999881,7003,VNB,A,16
0,test,3,1.0,2-Back,,,Tue Aug 20 2024 16:54:22 GMT-0500 (Central Daylight Time),523876.8000000119,039_o_m_n_a.png,O,space,908,1,1,2508.100000023842,521368.6999999881,7003,VNB,A,0
0,test,3,1.0,2-Back,,,Tue Aug 20 2024 16:54:22 GMT-0500 (Central Daylight Time),523876.8000000119,124_o_f_d_a.png,O,space,908,2,1,2508.100000023842,521368.6999999881,7003,VNB,A,0
1,test,3,0.0,2-Back,1,m,Tue Aug 20 2024 16:54:22 GMT-0500 (Central Daylight Time),532040.8000000119,071_y_f_h_a.png,O,m,1168,3,1,2192.699999988079,529848.1000000238,7003,VNB,A,1
1,test,3,0.0,2-Back,0,z,Tue Aug 20 2024 16:54:22 GMT-0500 (Central Daylight Time),533890.3000000119,139_m_f_d_a.png,O,m,817,4,1,1841.9000000357628,532048.3999999762,7003,VNB,A,2
2,test,3,1.0,2-Back,1,m,Tue Aug 20 2024 16:54:22 GMT-0500 (Central Daylight Time),535656.1999999881,109_y_m_n_a.png,O,m,735,5,1,1759.5999999642372,533896.6000000238,7003,VNB,A,3
3,test,3,0.0,2-Back,1,m,Tue Aug 20 2024 16:54:22 GMT-0500 (Central Daylight Time),537555.8000000119,039_o_m_h_a.png,O,m,873,6,1,1892.199999988079,535663.6000000238,7003,VNB,A,4
4,test,3,0.0,2-Back,1,z,Tue Aug 20 2024 16:54:22 GMT-0500 (Central Daylight Time),539521.8000000119,071_y_f_n_a.png,O,z,941,7,1,1959.1000000238419,537562.6999999881,7003,VNB,A,5
4,test,3,1.0,2-Back,0,m,Tue Aug 20 2024 16:54:22 GMT-0500 (Central Daylight Time),541704.3000000119,165_m_m_d_a.png,O,z,1152,8,1,2174.900000035763,539529.3999999762,7003,VNB,A,6
4,test,3,0.0,2-Back,0,m,Tue Aug 20 2024 16:54:22 GMT-0500 (Central Daylight Time),544053.5,109_y_m_d_a.png,O,z,1329,9,1,2342.199999988079,541711.3000000119,7003,VNB,A,7
5,test,3,0.0,2-Back,1,m,Tue Aug 20 2024 16:54:22 GMT-0500 (Central Daylight Time),546236.5,124_o_f_h_a.png,O,m,1164,10,1,2175.800000011921,544060.6999999881,7003,VNB,A,8
6,test,3,1.0,2-Back,1,m,Tue Aug 20 2024 16:54:22 GMT-0500 (Central Daylight Time),548852.1999999881,139_m_f_n_a.png,O,m,1597,11,1,2609.0,546243.1999999881,7003,VNB,A,9
6,test,3,1.0,2-Back,0,z,Tue Aug 20 2024 16:54:22 GMT-0500 (Central Daylight Time),550835.0,165_m_m_h_a.png,O,m,957,12,1,1975.8999999761581,548859.1000000238,7003,VNB,A,10
6,test,3,0.0,2-Back,0,m,Tue Aug 20 2024 16:54:22 GMT-0500 (Central Daylight Time),552784.3000000119,071_y_f_d_a.png,O,z,918,13,1,1942.5,550841.8000000119,7003,VNB,A,11
7,test,3,0.0,2-Back,1,m,Tue Aug 20 2024 16:54:22 GMT-0500 (Central Daylight Time),555250.3999999762,124_o_f_n_a.png,O,m,1449,14,1,2459.0,552791.3999999762,7003,VNB,A,12
7,test,3,0.0,2-Back,0,z,Tue Aug 20 2024 16:54:22 GMT-0500 (Central Daylight Time),557016.3000000119,039_o_m_d_a.png,O,m,735,15,1,1759.1000000238419,555257.1999999881,7003,VNB,A,13
7,test,3,1.0,2-Back,0,m,Tue Aug 20 2024 16:54:22 GMT-0500 (Central Daylight Time),558732.5,139_m_f_h_a.png,O,z,689,16,1,1708.6000000238419,557023.8999999762,7003,VNB,A,14
7,test,3,0.0,2-Back,0,m,Tue Aug 20 2024 16:54:22 GMT-0500 (Central Daylight Time),561031.8000000119,165_m_m_n_a.png,O,z,1269,17,1,2292.800000011921,558739.0,7003,VNB,A,15
7,test,3,0.0,2-Back,0,z,Tue Aug 20 2024 16:54:22 GMT-0500 (Central Daylight Time),562947.8999999762,109_y_m_h_a.png,O,m,898,18,1,1909.0,561038.8999999762,7003,VNB,A,16
0,test,4,0.0,2-Back,,,Tue Aug 20 2024 16:54:22 GMT-0500 (Central Daylight Time),562947.8999999762,139_m_f_n_a.png,O,space,821,1,1,1909.0,561038.8999999762,7003,VNB,A,0
0,test,4,0.0,2-Back,,,Tue Aug 20 2024 16:54:22 GMT-0500 (Central Daylight Time),562947.8999999762,039_o_m_n_a.png,O,space,821,2,1,1909.0,561038.8999999762,7003,VNB,A,0
1,test,4,1.0,2-Back,1,m,Tue Aug 20 2024 16:54:22 GMT-0500 (Central Daylight Time),570678.6999999881,109_y_m_h_a.png,O,m,770,3,1,1791.8999999761581,568886.8000000119,7003,VNB,A,1
2,test,4,1.0,2-Back,1,m,Tue Aug 20 2024 16:54:22 GMT-0500 (Central Daylight Time),572494.8000000119,124_o_f_d_a.png,O,m,795,4,1,1809.199999988079,570685.6000000238,7003,VNB,A,2
3,test,4,0.0,2-Back,1,z,Tue Aug 20 2024 16:54:22 GMT-0500 (Central Daylight Time),574310.8999999762,039_o_m_h_a.png,O,z,786,5,1,1808.3999999761581,572502.5,7003,VNB,A,3
4,test,4,0.0,2-Back,1,m,Tue Aug 20 2024 16:54:22 GMT-0500 (Central Daylight Time),576243.6999999881,165_m_m_n_a.png,O,m,914,6,1,1925.0,574318.6999999881,7003,VNB,A,4
5,test,4,0.0,2-Back,1,m,Tue Aug 20 2024 16:54:22 GMT-0500 (Central Daylight Time),578243.0,139_m_f_d_a.png,O,m,973,7,1,1992.199999988079,576250.8000000119,7003,VNB,A,5
5,test,4,0.0,2-Back,0,z,Tue Aug 20 2024 16:54:22 GMT-0500 (Central Daylight Time),580708.8999999762,071_y_f_n_a.png,O,m,1447,8,1,2458.899999976158,578250.0,7003,VNB,A,6
5,test,4,1.0,2-Back,0,m,Tue Aug 20 2024 16:54:22 GMT-0500 (Central Daylight Time),582508.1999999881,124_o_f_h_a.png,O,z,772,9,1,1792.199999988079,580716.0,7003,VNB,A,7
6,test,4,0.0,2-Back,1,m,Tue Aug 20 2024 16:54:22 GMT-0500 (Central Daylight Time),584907.5,165_m_m_h_a.png,O,m,1373,10,1,2391.800000011921,582515.6999999881,7003,VNB,A,8
7,test,4,0.0,2-Back,1,m,Tue Aug 20 2024 16:54:22 GMT-0500 (Central Daylight Time),586607.1999999881,071_y_f_d_a.png,O,m,669,11,1,1692.0,584915.1999999881,7003,VNB,A,9
8,test,4,0.0,2-Back,1,m,Tue Aug 20 2024 16:54:22 GMT-0500 (Central Daylight Time),588506.6000000238,109_y_m_n_a.png,O,m,874,12,1,1892.6000000238419,586614.0,7003,VNB,A,10
8,test,4,0.0,2-Back,0,z,Tue Aug 20 2024 16:54:22 GMT-0500 (Central Daylight Time),590439.1000000238,039_o_m_d_a.png,O,m,911,13,1,1925.800000011921,588513.3000000119,7003,VNB,A,11
8,test,4,1.0,2-Back,0,m,Tue Aug 20 2024 16:54:22 GMT-0500 (Central Daylight Time),591872.1000000238,139_m_f_h_a.png,O,z,401,14,1,1425.6000000238419,590446.5,7003,VNB,A,12
9,test,4,1.0,2-Back,1,m,Tue Aug 20 2024 16:54:22 GMT-0500 (Central Daylight Time),593802.6000000238,071_y_f_h_a.png,O,m,913,15,1,1923.6000000238419,591879.0,7003,VNB,A,13
10,test,4,0.0,2-Back,1,m,Tue Aug 20 2024 16:54:22 GMT-0500 (Central Daylight Time),596387.1999999881,124_o_f_n_a.png,O,m,1565,16,1,2576.899999976158,593810.3000000119,7003,VNB,A,14
10,test,4,0.0,2-Back,0,m,Tue Aug 20 2024 16:54:22 GMT-0500 (Central Daylight Time),599019.8999999762,109_y_m_d_a.png,O,z,1607,17,1,2625.399999976158,596394.5,7003,VNB,A,15
11,test,4,1.0,2-Back,1,m,Tue Aug 20 2024 16:54:22 GMT-0500 (Central Daylight Time),600852.5,165_m_m_d_a.png,O,m,813,18,1,1825.3999999761581,599027.1000000238,7003,VNB,A,16
0,test,5,1.0,2-Back,,,Tue Aug 20 2024 16:54:22 GMT-0500 (Central Daylight Time),600852.5,071_y_f_d_a.png,O,space,764,1,1,1825.3999999761581,599027.1000000238,7003,VNB,A,0
0,test,5,1.0,2-Back,,,Tue Aug 20 2024 16:54:22 GMT-0500 (Central Daylight Time),600852.5,124_o_f_h_a.png,O,space,764,2,1,1825.3999999761581,599027.1000000238,7003,VNB,A,0
1,test,5,1.0,2-Back,1,z,Tue Aug 20 2024 16:54:22 GMT-0500 (Central Daylight Time),608716.6999999881,039_o_m_d_a.png,O,z,980,3,1,1992.300000011921,606724.3999999762,7003,VNB,A,1
2,test,5,1.0,2-Back,1,m,Tue Aug 20 2024 16:54:22 GMT-0500 (Central Daylight Time),610433.0,139_m_f_n_a.png,O,m,693,4,1,1709.300000011921,608723.6999999881,7003,VNB,A,2
3,test,5,0.0,2-Back,1,m,Tue Aug 20 2024 16:54:22 GMT-0500 (Central Daylight Time),612698.8999999762,165_m_m_h_a.png,O,m,1240,5,1,2258.399999976158,610440.5,7003,VNB,A,3
4,test,5,0.0,2-Back,1,z,Tue Aug 20 2024 16:54:22 GMT-0500 (Central Daylight Time),614814.8999999762,071_y_f_n_a.png,O,z,1086,6,1,2108.0,612706.8999999762,7003,VNB,A,4
5,test,5,0.0,2-Back,1,m,Tue Aug 20 2024 16:54:22 GMT-0500 (Central Daylight Time),616580.8000000119,124_o_f_d_a.png,O,m,747,7,1,1759.199999988079,614821.6000000238,7003,VNB,A,5
6,test,5,0.0,2-Back,1,m,Tue Aug 20 2024 16:54:22 GMT-0500 (Central Daylight Time),618580.3999999762,039_o_m_h_a.png,O,m,972,8,1,1992.5999999642372,616587.8000000119,7003,VNB,A,6
6,test,5,1.0,2-Back,0,z,Tue Aug 20 2024 16:54:22 GMT-0500 (Central Daylight Time),620413.1000000238,139_m_f_d_a.png,O,m,805,9,1,1824.9000000357628,618588.1999999881,7003,VNB,A,7
7,test,5,0.0,2-Back,1,m,Tue Aug 20 2024 16:54:22 GMT-0500 (Central Daylight Time),622412.6000000238,109_y_m_n_a.png,O,m,972,10,1,1992.5,620420.1000000238,7003,VNB,A,8
8,test,5,0.0,2-Back,1,m,Tue Aug 20 2024 16:54:22 GMT-0500 (Central Daylight Time),624428.6000000238,165_m_m_n_a.png,O,m,997,11,1,2008.5,622420.1000000238,7003,VNB,A,9
8,test,5,0.0,2-Back,0,m,Tue Aug 20 2024 16:54:22 GMT-0500 (Central Daylight Time),626061.3000000119,071_y_f_h_a.png,O,z,605,12,1,1625.0,624436.3000000119,7003,VNB,A,10
9,test,5,0.0,2-Back,1,m,Tue Aug 20 2024 16:54:22 GMT-0500 (Central Daylight Time),628060.8000000119,109_y_m_d_a.png,O,m,972,13,1,1992.300000011921,626068.5,7003,VNB,A,11
10,test,5,1.0,2-Back,1,z,Tue Aug 20 2024 16:54:22 GMT-0500 (Central Daylight Time),629726.8000000119,139_m_f_h_a.png,O,z,644,14,1,1659.300000011921,628067.5,7003,VNB,A,12
11,test,5,0.0,2-Back,1,m,Tue Aug 20 2024 16:54:22 GMT-0500 (Central Daylight Time),631809.6999999881,039_o_m_n_a.png,O,m,1051,15,1,2076.199999988079,629733.5,7003,VNB,A,13
11,test,5,0.0,2-Back,0,m,Tue Aug 20 2024 16:54:22 GMT-0500 (Central Daylight Time),634158.8000000119,165_m_m_d_a.png,O,z,1328,16,1,2341.699999988079,631817.1000000238,7003,VNB,A,14
11,test,5,0.0,2-Back,0,z,Tue Aug 20 2024 16:54:22 GMT-0500 (Central Daylight Time),635874.8999999762,124_o_f_n_a.png,O,m,691,17,1,1709.0999999642372,634165.8000000119,7003,VNB,A,15
12,test,5,1.0,2-Back,1,m,Tue Aug 20 2024 16:54:22 GMT-0500 (Central Daylight Time),637924.3000000119,109_y_m_h_a.png,O,m,1022,18,1,2042.5,635881.8000000119,7003,VNB,A,16
