acc_sum,block,block_c,condition,correct,correct_response,datetime,endtime,flanker,jitter,project,response,response_test_buffer_response,response_test_target_response,response_time,response_time_test_buffer_response,response_time_test_target_response,row_sel,session_number,start_end,starttime,subject_id,target,task,task_vers,time_test_buffer,time_test_buffer_response,time_test_constants,time_test_flanker,time_test_jitter,time_test_logger,time_test_target,time_test_target_response,time_test_variables,trial
0,prac,1,con,0,z,Thu Jan 15 2026 14:58:06 GMT-0600 (Central Standard Time),169677.59999990463,lime,800,I,None,,,1812,,,5,1,4876.700000047684,164800.89999985695,7744,lime,NF,C,,,,,,,,,,1
0,prac,1,con,0,z,Thu Jan 15 2026 14:58:06 GMT-0600 (Central Standard Time),174529.59999990463,banana,800,I,None,,,1801,,,1,1,4847.900000095367,169681.69999980927,7744,banana,NF,C,,,,,,,,,,2
1,prac,1,inc,1,m,Thu Jan 15 2026 14:58:06 GMT-0600 (Central Standard Time),177544.09999990463,cherry,900,I,m,,,808,,,10,1,3008.4000000953674,174535.69999980927,7744,copper,NF,C,,,,,,,,,,3
2,prac,1,inc,1,z,Thu Jan 15 2026 14:58:06 GMT-0600 (Central Standard Time),180723.0,cobalt,1100,I,z,,,784,,,4,1,3174.7000000476837,177548.29999995232,7744,raisin,NF,C,,,,,,,,,,4
3,prac,1,inc,1,m,Thu Jan 15 2026 14:58:06 GMT-0600 (Central Standard Time),183489.09999990463,pear,900,I,m,,,563,,,14,1,2762.7999999523163,180726.29999995232,7744,iron,NF,C,,,,,,,,,,5
4,prac,1,inc,1,m,Thu Jan 15 2026 14:58:06 GMT-0600 (Central Standard Time),186505.39999985695,plum,1100,I,m,,,605,,,16,1,3012.399999856949,183493.0,7744,lead,NF,C,,,,,,,,,,6
5,prac,1,con,1,m,Thu Jan 15 2026 14:58:06 GMT-0600 (Central Standard Time),189587.19999980927,zinc,1000,I,m,,,769,,,15,1,3076.5999999046326,186510.59999990463,7744,zinc,NF,C,,,,,,,,,,7
6,prac,1,inc,1,z,Thu Jan 15 2026 14:58:06 GMT-0600 (Central Standard Time),192786.0,iron,900,I,z,,,1008,,,6,1,3194.4000000953674,189591.59999990463,7744,pear,NF,C,,,,,,,,,,8
7,prac,1,con,1,m,Thu Jan 15 2026 14:58:06 GMT-0600 (Central Standard Time),195636.59999990463,gold,800,I,m,,,740,,,13,1,2844.9000000953674,192791.69999980927,7744,gold,NF,C,,,,,,,,,,9
8,prac,1,con,1,m,Thu Jan 15 2026 14:58:06 GMT-0600 (Central Standard Time),198635.5,silver,1000,I,m,,,683,,,11,1,2994.800000190735,195640.69999980927,7744,silver,NF,C,,,,,,,,,,10
9,prac,1,con,1,z,Thu Jan 15 2026 14:58:06 GMT-0600 (Central Standard Time),201634.19999980927,kiwi,1000,I,z,,,687,,,7,1,2993.5999999046326,198640.59999990463,7744,kiwi,NF,C,,,,,,,,,,11
10,prac,1,con,1,m,Thu Jan 15 2026 14:58:06 GMT-0600 (Central Standard Time),204382.5,bronze,800,I,m,,,649,,,9,1,2743.5,201639.0,7744,bronze,NF,C,,,,,,,,,,12
11,prac,1,con,1,z,Thu Jan 15 2026 14:58:06 GMT-0600 (Central Standard Time),207314.5,orange,1000,I,z,,,618,,,3,1,2928.5,204386.0,7744,orange,NF,C,,,,,,,,,,13
12,prac,1,inc,1,z,Thu Jan 15 2026 14:58:06 GMT-0600 (Central Standard Time),210181.59999990463,lead,1100,I,z,,,473,,,8,1,2863.7000000476837,207317.89999985695,7744,plum,NF,C,,,,,,,,,,14
13,prac,1,inc,1,z,Thu Jan 15 2026 14:58:06 GMT-0600 (Central Standard Time),212981.0,copper,900,I,z,,,599,,,2,1,2794.100000143051,210186.89999985695,7744,cherry,NF,C,,,,,,,,,,15
14,prac,1,inc,1,m,Thu Jan 15 2026 14:58:06 GMT-0600 (Central Standard Time),215945.79999995232,raisin,1100,I,m,,,554,,,12,1,2958.5,212987.29999995232,7744,cobalt,NF,C,,,,,,,,,,16
1,test,1,con,1,m,Thu Jan 15 2026 14:58:06 GMT-0600 (Central Standard Time),237390.09999990463,iron,1000,I,m,m,None,693,493.0,200.0,107,1,2229.4000000953674,235160.69999980927,7744,iron,NF,C,228714,228714,226984,227999,226984,229213,228513,228513,229213,1
2,test,1,inc,1,z,Thu Jan 15 2026 14:58:06 GMT-0600 (Central Standard Time),239524.59999990463,copper,900,I,z,z,None,687,471.0,216.0,14,1,2129.7000000476837,237394.89999985695,7744,cherry,NF,C,230864,230864,229218,230130,229218,231348,230647,230647,231348,2
3,test,1,con,1,z,Thu Jan 15 2026 14:58:06 GMT-0600 (Central Standard Time),241754.79999995232,kiwi,1000,I,z,z,None,682,467.0,215.0,51,1,2226.7999999523163,239528.0,7744,kiwi,NF,C,233095,233095,231351,232363,231351,233578,232879,232879,233578,3
4,test,1,inc,1,z,Thu Jan 15 2026 14:58:06 GMT-0600 (Central Standard Time),243788.39999985695,iron,900,I,z,z,None,595,378.0,217.0,54,1,2027.2999999523163,241761.09999990463,7744,kiwi,NF,C,235229,235229,233584,234495,233584,235611,235012,235012,235611,4
5,test,1,inc,1,m,Thu Jan 15 2026 14:58:06 GMT-0600 (Central Standard Time),246036.5,raisin,1100,I,m,m,None,610,404.0,206.0,72,1,2242.100000143051,243794.39999985695,7744,bronze,NF,C,237443,237443,235617,236727,235618,237860,237236,237236,237859,5
6,test,1,con,1,m,Thu Jan 15 2026 14:58:06 GMT-0600 (Central Standard Time),248036.29999995232,cobalt,900,I,m,m,None,562,362.0,200.0,90,1,1994.1000001430511,246042.19999980927,7744,cobalt,NF,C,239493,239493,237865,238777,237866,239859,239293,239293,239859,6
7,test,1,inc,1,m,Thu Jan 15 2026 14:58:06 GMT-0600 (Central Standard Time),250068.69999980927,orange,1000,I,m,m,None,485,286.0,199.0,71,1,2025.8999998569489,248042.79999995232,7744,bronze,NF,C,241592,241592,239866,240875,239866,241892,241393,241393,241892,7
8,test,1,con,1,m,Thu Jan 15 2026 14:58:06 GMT-0600 (Central Standard Time),251936.5,zinc,800,I,m,m,None,533,332.0,201.0,113,1,1863.9000000953674,250072.59999990463,7744,zinc,NF,C,243427,243427,241896,242711,241896,243760,243225,243225,243760,8
9,test,1,inc,1,m,Thu Jan 15 2026 14:58:06 GMT-0600 (Central Standard Time),254068.19999980927,raisin,1100,I,m,m,None,502,288.0,214.0,80,1,2127.199999809265,251941.0,7744,copper,NF,C,245591,245591,243764,244874,243765,245891,245376,245376,245891,9
10,test,1,inc,1,z,Thu Jan 15 2026 14:58:06 GMT-0600 (Central Standard Time),255833.59999990463,gold,800,I,z,z,None,422,223.0,199.0,45,1,1759.7999999523163,254073.79999995232,7744,pear,NF,C,247423,247423,245897,246709,245897,247657,247224,247224,247657,10
11,test,1,con,1,z,Thu Jan 15 2026 14:58:06 GMT-0600 (Central Standard Time),257950.39999985695,raisin,900,I,z,z,None,669,469.0,200.0,26,1,2111.5999999046326,255838.79999995232,7744,raisin,NF,C,249290,249290,247662,248574,247662,249774,249089,249089,249773,11
12,test,1,inc,1,m,Thu Jan 15 2026 14:58:06 GMT-0600 (Central Standard Time),260165.29999995232,orange,1000,I,m,m,None,678,478.0,200.0,87,1,2210.5,257954.79999995232,7744,silver,NF,C,251506,251506,249778,250789,249778,251988,251305,251305,251988,12
13,test,1,inc,1,m,Thu Jan 15 2026 14:58:06 GMT-0600 (Central Standard Time),262232.09999990463,pear,900,I,m,m,None,645,432.0,213.0,110,1,2062.2000000476837,260169.89999985695,7744,iron,NF,C,253622,253622,251993,252905,251993,254055,253408,253408,254055,13
14,test,1,con,1,z,Thu Jan 15 2026 14:58:06 GMT-0600 (Central Standard Time),264380.59999990463,lime,1000,I,z,z,None,604,404.0,200.0,35,1,2145.2999999523163,262235.2999999523,7744,lime,NF,C,255787,255787,254058,255072,254058,256204,255587,255587,256204,14
15,test,1,con,1,m,Thu Jan 15 2026 14:58:06 GMT-0600 (Central Standard Time),266580.09999990463,lead,1100,I,m,m,None,561,362.0,199.0,124,1,2193.4000000953674,264386.69999980927,7744,lead,NF,C,258037,258037,256210,257321,256210,258403,257837,257837,258403,15
16,test,1,inc,1,m,Thu Jan 15 2026 14:58:06 GMT-0600 (Central Standard Time),268778.89999985695,plum,1100,I,m,m,None,577,376.0,201.0,120,1,2194.0,266584.89999985695,7744,zinc,NF,C,260222,260222,258408,259519,258408,260602,260020,260020,260602,16
17,test,1,inc,1,z,Thu Jan 15 2026 14:58:06 GMT-0600 (Central Standard Time),270878.2999999523,zinc,1000,I,z,z,None,552,352.0,200.0,63,1,2096.0,268782.2999999523,7744,plum,NF,C,262334,262334,260605,261618,260606,262701,262134,262134,262701,17
18,test,1,inc,1,z,Thu Jan 15 2026 14:58:06 GMT-0600 (Central Standard Time),272993.7999999523,silver,1000,I,z,z,None,571,355.0,216.0,7,1,2112.600000143051,270881.19999980927,7744,banana,NF,C,264451,264451,262704,263717,262704,264817,264235,264235,264817,18
19,test,1,con,1,z,Thu Jan 15 2026 14:58:06 GMT-0600 (Central Standard Time),274894.89999985695,cherry,900,I,z,z,None,448,248.0,200.0,10,1,1895.5,272999.39999985695,7744,cherry,NF,C,266454,266454,264822,265736,264823,266718,266254,266254,266718,19
20,test,1,inc,1,z,Thu Jan 15 2026 14:58:06 GMT-0600 (Central Standard Time),276827.0,copper,900,I,z,z,None,510,296.0,214.0,22,1,1926.6000001430511,274900.39999985695,7744,orange,NF,C,268350,268350,266723,267634,266724,268650,268136,268136,268650,20
21,test,1,con,1,m,Thu Jan 15 2026 14:58:06 GMT-0600 (Central Standard Time),278659.09999990463,lead,800,I,m,m,None,485,286.0,199.0,121,1,1827.2999999523163,276831.7999999523,7744,lead,NF,C,270184,270184,268655,269467,268655,270482,269984,269984,270482,21
22,test,1,con,1,m,Thu Jan 15 2026 14:58:06 GMT-0600 (Central Standard Time),280525.19999980927,copper,900,I,m,m,None,443,228.0,215.0,74,1,1862.2999999523163,278662.89999985695,7744,copper,NF,C,272115,272115,270486,271399,270486,272348,271900,271900,272348,22
23,test,1,con,1,m,Thu Jan 15 2026 14:58:06 GMT-0600 (Central Standard Time),282593.59999990463,iron,1100,I,m,m,None,425,226.0,199.0,108,1,2064.0,280529.59999990463,7744,iron,NF,C,274182,274182,272353,273465,272353,274417,273982,273982,274417,23
24,test,1,inc,1,z,Thu Jan 15 2026 14:58:06 GMT-0600 (Central Standard Time),284859.0,cobalt,1100,I,z,z,None,631,432.0,199.0,16,1,2262.2000000476837,282596.7999999523,7744,cherry,NF,C,276248,276248,274420,275533,274420,276682,276048,276048,276682,24
25,test,1,con,1,z,Thu Jan 15 2026 14:58:06 GMT-0600 (Central Standard Time),286991.09999990463,kiwi,800,I,z,z,None,784,584.0,200.0,49,1,2126.2000000476837,284864.89999985695,7744,kiwi,NF,C,278215,278215,276688,277498,276688,278814,278014,278014,278814,25
26,test,1,con,1,z,Thu Jan 15 2026 14:58:06 GMT-0600 (Central Standard Time),288840.7999999523,orange,900,I,z,z,None,408,209.0,199.0,18,1,1844.7000000476837,286996.09999990463,7744,orange,NF,C,280446,280446,278819,279730,278819,280664,280247,280247,280664,26
27,test,1,inc,1,z,Thu Jan 15 2026 14:58:06 GMT-0600 (Central Standard Time),290954.7999999523,lead,1100,I,z,z,None,478,279.0,199.0,56,1,2110.0,288844.7999999523,7744,kiwi,NF,C,282496,282496,280668,281779,280668,282778,282296,282296,282778,27
28,test,1,inc,1,z,Thu Jan 15 2026 14:58:06 GMT-0600 (Central Standard Time),293121.7999999523,zinc,1000,I,z,z,None,648,449.0,199.0,39,1,2163.600000143051,290958.19999980927,7744,lime,NF,C,284496,284496,282781,283795,282781,284945,284296,284296,284945,28
29,test,1,inc,1,z,Thu Jan 15 2026 14:58:06 GMT-0600 (Central Standard Time),295239.2999999523,lead,1100,I,z,z,None,485,285.0,200.0,64,1,2114.5,293124.7999999523,7744,plum,NF,C,286777,286777,284948,286063,284948,287062,286577,286577,287062,29
30,test,1,con,1,z,Thu Jan 15 2026 14:58:06 GMT-0600 (Central Standard Time),297003.39999985695,orange,800,I,z,z,None,420,221.0,199.0,17,1,1760.3999998569489,295243.0,7744,orange,NF,C,288593,288593,287066,287878,287066,288827,288394,288394,288826,30
31,test,1,inc,1,m,Thu Jan 15 2026 14:58:06 GMT-0600 (Central Standard Time),299202.59999990463,plum,1100,I,m,m,None,563,360.0,203.0,128,1,2195.9000000953674,297006.69999980927,7744,lead,NF,C,290663,290663,288830,289944,288830,291026,290460,290460,291026,31
32,test,1,con,1,z,Thu Jan 15 2026 14:58:06 GMT-0600 (Central Standard Time),301268.59999990463,orange,1000,I,z,z,None,527,328.0,199.0,19,1,2062.5,299206.09999990463,7744,orange,NF,C,292759,292759,291029,292042,291029,293092,292560,292560,293092,32
33,test,1,inc,1,z,Thu Jan 15 2026 14:58:06 GMT-0600 (Central Standard Time),303417.59999990463,zinc,1000,I,z,z,None,605,405.0,200.0,47,1,2146.2000000476837,301271.39999985695,7744,pear,NF,C,294826,294826,293094,294109,293095,295241,294625,294626,295241,33
34,test,1,con,1,z,Thu Jan 15 2026 14:58:06 GMT-0600 (Central Standard Time),305602.7999999523,banana,1100,I,z,z,None,548,349.0,199.0,4,1,2181.9000000953674,303420.89999985695,7744,banana,NF,C,297075,297075,295244,296357,295244,297426,296875,296875,297426,34
35,test,1,con,1,z,Thu Jan 15 2026 14:58:06 GMT-0600 (Central Standard Time),307616.39999985695,pear,1000,I,z,z,None,480,281.0,199.0,43,1,2010.3999998569489,305606.0,7744,pear,NF,C,299158,299158,297429,298441,297429,299439,298958,298958,299439,35
36,test,1,inc,1,m,Thu Jan 15 2026 14:58:06 GMT-0600 (Central Standard Time),309699.89999985695,plum,1100,I,m,m,None,436,237.0,199.0,112,1,2080.0999999046326,307619.7999999523,7744,iron,NF,C,301273,301273,299443,300558,299443,301523,301073,301073,301523,36
37,test,1,inc,1,z,Thu Jan 15 2026 14:58:06 GMT-0600 (Central Standard Time),311682.2999999523,iron,900,I,z,z,None,546,344.0,202.0,38,1,1977.1000001430511,309705.19999980927,7744,lime,NF,C,303158,303158,301528,302440,301529,303505,302955,302955,303505,37
38,test,1,inc,1,z,Thu Jan 15 2026 14:58:06 GMT-0600 (Central Standard Time),313748.2999999523,bronze,800,I,z,z,None,735,517.0,218.0,5,1,2062.7000000476837,311685.59999990463,7744,banana,NF,C,305041,305041,303509,304322,303509,305571,304823,304823,305571,38
39,test,1,inc,1,m,Thu Jan 15 2026 14:58:06 GMT-0600 (Central Standard Time),315602.0,lime,800,I,m,m,None,536,337.0,199.0,125,1,1850.0,313752.0,7744,lead,NF,C,307088,307088,305575,306387,305575,307425,306888,306888,307425,39
40,test,1,inc,1,z,Thu Jan 15 2026 14:58:06 GMT-0600 (Central Standard Time),317413.89999985695,bronze,800,I,z,z,None,469,268.0,201.0,13,1,1808.7999999523163,315605.09999990463,7744,cherry,NF,C,308954,308954,307428,308238,307428,309237,308753,308753,309237,40
41,test,1,inc,1,m,Thu Jan 15 2026 14:58:06 GMT-0600 (Central Standard Time),319612.2999999523,orange,1000,I,m,m,None,661,461.0,200.0,95,1,2193.2999999523163,317419.0,7744,cobalt,NF,C,310969,310969,309242,310255,309242,311435,310769,310769,311435,41
41,test,1,inc,0,m,Thu Jan 15 2026 14:58:06 GMT-0600 (Central Standard Time),321529.0,cherry,900,I,z,z,None,473,273.0,200.0,86,1,1914.1000001430511,319614.89999985695,7744,silver,NF,C,313070,313070,311438,312352,311438,313352,312870,312870,313352,42
42,test,1,con,1,z,Thu Jan 15 2026 14:58:06 GMT-0600 (Central Standard Time),323711.7999999523,pear,1100,I,z,z,None,545,345.0,200.0,44,1,2179.4000000953674,321532.39999985695,7744,pear,NF,C,315185,315185,313355,314469,313356,315535,314985,314985,315535,43
43,test,1,inc,1,z,Thu Jan 15 2026 14:58:06 GMT-0600 (Central Standard Time),325877.89999985695,silver,1000,I,z,z,None,619,420.0,199.0,23,1,2162.7000000476837,323715.19999980927,7744,orange,NF,C,317267,317267,315538,316551,315538,317701,317067,317068,317701,44
44,test,1,con,1,z,Thu Jan 15 2026 14:58:06 GMT-0600 (Central Standard Time),327876.5,banana,900,I,z,z,None,552,351.0,201.0,2,1,1995.4000000953674,325881.09999990463,7744,banana,NF,C,319335,319335,317704,318618,317704,319700,319134,319134,319699,45
45,test,1,inc,1,z,Thu Jan 15 2026 14:58:06 GMT-0600 (Central Standard Time),329991.89999985695,zinc,1000,I,z,z,None,589,390.0,199.0,55,1,2112.7000000476837,327879.19999980927,7744,kiwi,NF,C,321416,321416,319702,320716,319702,321815,321217,321217,321815,46
46,test,1,inc,1,m,Thu Jan 15 2026 14:58:06 GMT-0600 (Central Standard Time),332025.09999990463,kiwi,1000,I,m,m,None,481,267.0,214.0,127,1,2028.7000000476837,329996.39999985695,7744,lead,NF,C,323566,323566,321819,322834,321820,323848,323352,323352,323848,47
47,test,1,con,1,z,Thu Jan 15 2026 14:58:06 GMT-0600 (Central Standard Time),333912.39999985695,pear,800,I,z,z,None,551,337.0,214.0,41,1,1884.5999999046326,332027.7999999523,7744,pear,NF,C,325381,325381,323851,324665,323851,325735,325167,325167,325735,48
48,test,1,con,1,m,Thu Jan 15 2026 14:58:06 GMT-0600 (Central Standard Time),335941.39999985695,gold,800,I,m,m,None,694,493.0,201.0,97,1,2024.0999999046326,333917.2999999523,7744,gold,NF,C,327266,327266,325740,326548,325740,327764,327064,327064,327764,49
49,test,1,con,1,m,Thu Jan 15 2026 14:58:06 GMT-0600 (Central Standard Time),337924.0,bronze,900,I,m,m,None,545,345.0,200.0,66,1,1979.2000000476837,335944.7999999523,7744,bronze,NF,C,329398,329398,327768,328683,327768,329747,329197,329197,329747,50
50,test,1,inc,1,m,Thu Jan 15 2026 14:58:06 GMT-0600 (Central Standard Time),339791.69999980927,lime,800,I,m,m,None,533,312.0,221.0,109,1,1863.8999998569489,337927.7999999523,7744,iron,NF,C,331303,331303,329751,330567,329751,331615,331082,331082,331615,51
51,test,1,con,1,m,Thu Jan 15 2026 14:58:06 GMT-0600 (Central Standard Time),341674.59999990463,copper,800,I,m,m,None,548,332.0,216.0,73,1,1879.0,339795.59999990463,7744,copper,NF,C,333163,333163,331619,332430,331619,333498,332947,332947,333498,52
52,test,1,inc,1,m,Thu Jan 15 2026 14:58:06 GMT-0600 (Central Standard Time),343620.69999980927,banana,800,I,m,m,None,610,409.0,201.0,77,1,1941.2999999523163,341679.39999985695,7744,copper,NF,C,335029,335029,333502,334312,333503,335444,334828,334828,335444,53
53,test,1,con,1,m,Thu Jan 15 2026 14:58:06 GMT-0600 (Central Standard Time),345772.09999990463,bronze,1000,I,m,m,None,606,405.0,201.0,67,1,2148.2999999523163,343623.7999999523,7744,bronze,NF,C,337178,337178,335447,336462,335447,337595,336977,336977,337595,54
54,test,1,con,1,z,Thu Jan 15 2026 14:58:06 GMT-0600 (Central Standard Time),347887.39999985695,raisin,1100,I,z,z,None,469,269.0,200.0,28,1,2110.7000000476837,345776.69999980927,7744,raisin,NF,C,339427,339427,337600,338714,337600,339710,339227,339227,339710,55
55,test,1,inc,1,m,Thu Jan 15 2026 14:58:06 GMT-0600 (Central Standard Time),350037.2999999523,orange,1000,I,m,m,None,604,403.0,201.0,79,1,2143.7000000476837,347893.59999990463,7744,copper,NF,C,341444,341444,339717,340727,339717,341860,341243,341243,341860,56
56,test,1,con,1,z,Thu Jan 15 2026 14:58:06 GMT-0600 (Central Standard Time),352104.69999980927,banana,1000,I,z,z,None,533,334.0,199.0,3,1,2059.699999809265,350045.0,7744,banana,NF,C,343592,343593,341868,342877,341868,343928,343393,343393,343928,57
57,test,1,inc,1,m,Thu Jan 15 2026 14:58:06 GMT-0600 (Central Standard Time),354184.7999999523,pear,900,I,m,m,None,646,447.0,199.0,102,1,2074.2999999523163,352110.5,7744,gold,NF,C,345559,345559,343934,344842,343934,346008,345360,345360,346008,58
58,test,1,inc,1,z,Thu Jan 15 2026 14:58:06 GMT-0600 (Central Standard Time),356084.39999985695,bronze,800,I,z,z,None,552,351.0,201.0,21,1,1894.5999999046326,354189.7999999523,7744,orange,NF,C,347544,347544,346013,346827,346013,347907,347343,347343,347907,59
59,test,1,inc,1,z,Thu Jan 15 2026 14:58:06 GMT-0600 (Central Standard Time),358233.2999999523,gold,800,I,z,z,None,819,605.0,214.0,61,1,2139.7999999523163,356093.5,7744,plum,NF,C,349442,349442,347917,348724,347917,350056,349227,349227,350056,60
60,test,1,con,1,z,Thu Jan 15 2026 14:58:06 GMT-0600 (Central Standard Time),360251.39999985695,plum,1000,I,z,z,None,497,298.0,199.0,59,1,2013.5999999046326,358237.7999999523,7744,plum,NF,C,351773,351773,350061,351073,350061,352074,351574,351574,352074,61
61,test,1,inc,1,z,Thu Jan 15 2026 14:58:06 GMT-0600 (Central Standard Time),362250.39999985695,silver,1000,I,z,z,None,458,258.0,200.0,15,1,1994.0999999046326,360256.2999999523,7744,cherry,NF,C,353806,353806,352079,353090,352080,354073,353606,353606,354073,62
62,test,1,con,1,z,Thu Jan 15 2026 14:58:06 GMT-0600 (Central Standard Time),364265.19999980927,raisin,1000,I,z,z,None,496,297.0,199.0,27,1,2010.6999998092651,362254.5,7744,raisin,NF,C,355790,355790,354078,355088,354078,356088,355591,355591,356088,63
63,test,1,inc,1,m,Thu Jan 15 2026 14:58:06 GMT-0600 (Central Standard Time),366232.2999999523,cherry,900,I,m,m,None,517,315.0,202.0,70,1,1960.0,364272.2999999523,7744,bronze,NF,C,357724,357724,356095,357004,356095,358056,357521,357521,358055,64
64,test,1,inc,1,z,Thu Jan 15 2026 14:58:06 GMT-0600 (Central Standard Time),368447.19999980927,cobalt,1100,I,z,z,None,576,376.0,200.0,32,1,2208.699999809265,366238.5,7744,raisin,NF,C,359887,359887,358062,359171,358062,360270,359687,359687,360270,65
65,test,1,inc,1,z,Thu Jan 15 2026 14:58:06 GMT-0600 (Central Standard Time),370930.5,lead,1100,I,z,z,None,847,647.0,200.0,40,1,2474.4000000953674,368456.09999990463,7744,lime,NF,C,362104,362104,360279,361387,360280,362754,361904,361904,362753,66
66,test,1,con,1,z,Thu Jan 15 2026 14:58:06 GMT-0600 (Central Standard Time),372830.5,plum,900,I,z,z,None,474,261.0,213.0,58,1,1895.9000000953674,370934.59999990463,7744,plum,NF,C,364386,364386,362758,363669,362758,364654,364173,364173,364654,67
67,test,1,inc,1,z,Thu Jan 15 2026 14:58:06 GMT-0600 (Central Standard Time),374662.0,gold,800,I,z,z,None,483,283.0,200.0,53,1,1824.7000000476837,372837.2999999523,7744,kiwi,NF,C,366187,366187,364660,365469,364661,366485,365987,365987,366485,68
67,test,1,con,0,m,Thu Jan 15 2026 14:58:06 GMT-0600 (Central Standard Time),376662.39999985695,silver,1000,I,z,z,None,451,251.0,200.0,83,1,1993.7999999523163,374668.59999990463,7744,silver,NF,C,368218,368219,366492,367502,366492,368486,368018,368018,368485,69
68,test,1,con,1,m,Thu Jan 15 2026 14:58:06 GMT-0600 (Central Standard Time),378810.5,zinc,1000,I,m,m,None,604,405.0,199.0,115,1,2142.100000143051,376668.39999985695,7744,zinc,NF,C,370217,370217,368491,369502,368492,370634,370018,370018,370633,70
69,test,1,con,1,m,Thu Jan 15 2026 14:58:06 GMT-0600 (Central Standard Time),381060.69999980927,gold,900,I,m,m,None,804,603.0,201.0,98,1,2245.0,378815.69999980927,7744,gold,NF,C,372268,372268,370639,371552,370639,372884,372067,372067,372884,71
70,test,1,con,1,m,Thu Jan 15 2026 14:58:06 GMT-0600 (Central Standard Time),383160.39999985695,gold,1100,I,m,m,None,465,266.0,199.0,100,1,2095.399999856949,381065.0,7744,gold,NF,C,374717,374717,372888,374000,372888,374983,374517,374517,374983,72
71,test,1,inc,1,z,Thu Jan 15 2026 14:58:06 GMT-0600 (Central Standard Time),385325.59999990463,silver,1000,I,z,z,None,617,418.0,199.0,31,1,2160.0999999046326,383165.5,7744,raisin,NF,C,376716,376716,374989,375999,374989,377149,376516,376516,377149,73
72,test,1,inc,1,m,Thu Jan 15 2026 14:58:06 GMT-0600 (Central Standard Time),387575.0,kiwi,1000,I,m,m,None,702,501.0,201.0,119,1,2245.2000000476837,385329.7999999523,7744,zinc,NF,C,378882,378882,377153,378164,377153,379398,378681,378681,379398,74
73,test,1,inc,1,z,Thu Jan 15 2026 14:58:06 GMT-0600 (Central Standard Time),389791.09999990463,lead,1100,I,z,z,None,582,382.0,200.0,48,1,2213.5999999046326,387577.5,7744,pear,NF,C,381232,381232,379401,380514,379401,381614,381031,381031,381614,75
74,test,1,inc,1,m,Thu Jan 15 2026 14:58:06 GMT-0600 (Central Standard Time),391689.19999980927,banana,800,I,m,m,None,562,363.0,199.0,69,1,1894.5999999046326,389794.59999990463,7744,bronze,NF,C,383147,383147,381618,382431,381618,383512,382947,382947,383512,76
75,test,1,inc,1,z,Thu Jan 15 2026 14:58:06 GMT-0600 (Central Standard Time),393874.59999990463,cobalt,1100,I,z,z,None,563,350.0,213.0,8,1,2181.5999999046326,391693.0,7744,banana,NF,C,385346,385346,383516,384630,383516,385698,385132,385132,385698,77
76,test,1,inc,1,m,Thu Jan 15 2026 14:58:06 GMT-0600 (Central Standard Time),395738.59999990463,lime,800,I,m,m,None,528,311.0,217.0,117,1,1858.5,393880.09999990463,7744,zinc,NF,C,387248,387248,385703,386513,385703,387562,387030,387030,387562,78
77,test,1,inc,1,z,Thu Jan 15 2026 14:58:06 GMT-0600 (Central Standard Time),397638.5,bronze,800,I,z,z,None,550,351.0,199.0,29,1,1895.8000001907349,395742.69999980927,7744,raisin,NF,C,389095,389095,387566,388381,387566,389462,388895,388895,389462,79
78,test,1,con,1,z,Thu Jan 15 2026 14:58:06 GMT-0600 (Central Standard Time),400088.09999990463,kiwi,1100,I,z,z,None,808,608.0,200.0,52,1,2446.2000000476837,397641.89999985695,7744,kiwi,NF,C,391294,391294,389465,390578,389465,391911,391094,391094,391911,80
79,test,1,con,1,z,Thu Jan 15 2026 14:58:06 GMT-0600 (Central Standard Time),402337.5,lime,1100,I,z,z,None,632,433.0,199.0,36,1,2242.5,400095.0,7744,lime,NF,C,393726,393726,391918,393026,391918,394161,393527,393527,394161,81
80,test,1,con,1,z,Thu Jan 15 2026 14:58:06 GMT-0600 (Central Standard Time),404369.09999990463,banana,800,I,z,z,None,690,488.0,202.0,1,1,2025.9000000953674,402343.19999980927,7744,banana,NF,C,395695,395695,394166,394977,394167,396192,395493,395493,396192,82
81,test,1,con,1,m,Thu Jan 15 2026 14:58:06 GMT-0600 (Central Standard Time),406318.69999980927,cobalt,800,I,m,m,None,600,400.0,200.0,89,1,1945.7999999523163,404372.89999985695,7744,cobalt,NF,C,397726,397726,396196,397009,396196,398142,397525,397526,398142,83
82,test,1,con,1,m,Thu Jan 15 2026 14:58:06 GMT-0600 (Central Standard Time),408385.09999990463,zinc,900,I,m,m,None,630,431.0,199.0,114,1,2062.0,406323.09999990463,7744,zinc,NF,C,399775,399775,398146,399059,398146,400208,399576,399576,400208,84
83,test,1,con,1,m,Thu Jan 15 2026 14:58:06 GMT-0600 (Central Standard Time),410291.69999980927,bronze,800,I,m,m,None,571,372.0,199.0,65,1,1903.6999998092651,408388.0,7744,bronze,NF,C,401742,401742,400211,401026,400211,402115,401542,401542,402115,85
84,test,1,inc,1,m,Thu Jan 15 2026 14:58:06 GMT-0600 (Central Standard Time),412516.7999999523,raisin,1100,I,m,m,None,586,386.0,200.0,96,1,2218.600000143051,410298.19999980927,7744,cobalt,NF,C,403940,403940,402121,403224,402121,404340,403740,403740,404340,86
85,test,1,con,1,z,Thu Jan 15 2026 14:58:06 GMT-0600 (Central Standard Time),414383.39999985695,kiwi,900,I,z,z,None,423,208.0,215.0,50,1,1861.5999999046326,412521.7999999523,7744,kiwi,NF,C,405990,405990,404345,405257,404345,406206,405774,405774,406206,87
86,test,1,inc,1,z,Thu Jan 15 2026 14:58:06 GMT-0600 (Central Standard Time),416349.39999985695,iron,900,I,z,z,None,543,344.0,199.0,62,1,1961.7999999523163,414387.59999990463,7744,plum,NF,C,407823,407823,406211,407122,406211,408172,407623,407623,408172,88
86,test,1,con,0,m,Thu Jan 15 2026 14:58:06 GMT-0600 (Central Standard Time),418448.2999999523,bronze,1100,I,z,z,None,458,257.0,201.0,68,1,2095.600000143051,416352.69999980927,7744,bronze,NF,C,410006,410006,408176,409289,408176,410271,409805,409805,410271,89
87,test,1,con,1,m,Thu Jan 15 2026 14:58:06 GMT-0600 (Central Standard Time),420615.59999990463,copper,1000,I,m,m,None,617,418.0,199.0,75,1,2164.7000000476837,418450.89999985695,7744,copper,NF,C,412004,412004,410274,411290,410274,412439,411805,411805,412439,90
88,test,1,con,1,m,Thu Jan 15 2026 14:58:06 GMT-0600 (Central Standard Time),422746.7999999523,iron,900,I,m,m,None,696,496.0,200.0,106,1,2128.5,420618.2999999523,7744,iron,NF,C,414070,414070,412441,413354,412441,414570,413870,413870,414570,91
89,test,1,con,1,z,Thu Jan 15 2026 14:58:06 GMT-0600 (Central Standard Time),424763.7999999523,cherry,800,I,z,z,None,679,478.0,201.0,9,1,2014.2999999523163,422749.5,7744,cherry,NF,C,416104,416104,414573,415389,414573,416587,415903,415903,416587,92
90,test,1,inc,1,m,Thu Jan 15 2026 14:58:06 GMT-0600 (Central Standard Time),426862.19999980927,pear,900,I,m,m,None,676,477.0,199.0,126,1,2095.199999809265,424767.0,7744,lead,NF,C,418202,418202,416590,417502,416590,418685,418003,418003,418685,93
91,test,1,con,1,m,Thu Jan 15 2026 14:58:06 GMT-0600 (Central Standard Time),428945.7999999523,copper,1100,I,m,m,None,439,237.0,202.0,76,1,2077.9000000953674,426867.89999985695,7744,copper,NF,C,420521,420521,418691,419801,418691,420769,420318,420318,420769,94
92,test,1,con,1,z,Thu Jan 15 2026 14:58:06 GMT-0600 (Central Standard Time),430827.2999999523,pear,900,I,z,z,None,445,245.0,200.0,42,1,1876.0,428951.2999999523,7744,pear,NF,C,422401,422401,420774,421685,420775,422650,422200,422200,422650,95
93,test,1,inc,1,m,Thu Jan 15 2026 14:58:06 GMT-0600 (Central Standard Time),432993.19999980927,raisin,1100,I,m,m,None,520,305.0,215.0,88,1,2162.699999809265,430830.5,7744,silver,NF,C,424501,424501,422654,423768,422654,424816,424286,424286,424816,96
94,test,1,inc,1,m,Thu Jan 15 2026 14:58:06 GMT-0600 (Central Standard Time),434959.59999990463,pear,900,I,m,m,None,548,349.0,199.0,118,1,1963.7999999523163,432995.7999999523,7744,zinc,NF,C,426433,426433,424819,425722,424819,426783,426233,426233,426783,97
95,test,1,inc,1,m,Thu Jan 15 2026 14:58:06 GMT-0600 (Central Standard Time),437042.5,lime,800,I,m,m,None,739,539.0,200.0,101,1,2080.5,434962.0,7744,gold,NF,C,428315,428315,426785,427601,426785,428866,428115,428115,428866,98
96,test,1,inc,1,z,Thu Jan 15 2026 14:58:06 GMT-0600 (Central Standard Time),439125.59999990463,iron,900,I,z,z,None,634,419.0,215.0,46,1,2079.2999999523163,437046.2999999523,7744,pear,NF,C,430515,430515,428869,429783,428870,430949,430300,430300,430949,99
97,test,1,con,1,m,Thu Jan 15 2026 14:58:06 GMT-0600 (Central Standard Time),441440.69999980927,zinc,1100,I,m,m,None,687,488.0,199.0,116,1,2311.399999856949,439129.2999999523,7744,zinc,NF,C,432766,432766,430952,432063,430953,433264,432566,432566,433264,100
98,test,1,inc,1,m,Thu Jan 15 2026 14:58:06 GMT-0600 (Central Standard Time),443490.39999985695,cherry,900,I,m,m,None,619,420.0,199.0,78,1,2046.8999998569489,441443.5,7744,copper,NF,C,434881,434882,433267,434180,433267,435313,434682,434682,435313,101
99,test,1,con,1,m,Thu Jan 15 2026 14:58:06 GMT-0600 (Central Standard Time),445538.89999985695,silver,900,I,m,m,None,602,403.0,199.0,82,1,2044.5999999046326,443494.2999999523,7744,silver,NF,C,436947,436947,435317,436230,435318,437362,436748,436748,437362,102
100,test,1,inc,1,m,Thu Jan 15 2026 14:58:06 GMT-0600 (Central Standard Time),447472.5,banana,800,I,m,m,None,608,409.0,199.0,85,1,1929.0,445543.5,7744,silver,NF,C,438879,438879,437367,438179,437367,439296,438680,438680,439296,103
101,test,1,con,1,m,Thu Jan 15 2026 14:58:06 GMT-0600 (Central Standard Time),449305.2999999523,iron,800,I,m,m,None,500,301.0,199.0,105,1,1829.5,447475.7999999523,7744,iron,NF,C,440827,440827,439299,440112,439299,441128,440628,440628,441128,104
102,test,1,con,1,m,Thu Jan 15 2026 14:58:06 GMT-0600 (Central Standard Time),451272.69999980927,gold,1000,I,m,m,None,433,233.0,200.0,99,1,1963.5,449309.19999980927,7744,gold,NF,C,442862,442862,441132,442145,441132,443096,442662,442662,443096,105
103,test,1,inc,1,z,Thu Jan 15 2026 14:58:06 GMT-0600 (Central Standard Time),453137.0,copper,900,I,z,z,None,423,222.0,201.0,30,1,1860.3000001907349,451276.69999980927,7744,raisin,NF,C,444728,444728,443100,444010,443100,444960,444527,444527,444960,106
104,test,1,con,1,z,Thu Jan 15 2026 14:58:06 GMT-0600 (Central Standard Time),455237.09999990463,cherry,1100,I,z,z,None,462,261.0,201.0,12,1,2097.0,453140.09999990463,7744,cherry,NF,C,446794,446794,444963,446077,444963,447060,446593,446593,447060,107
105,test,1,inc,1,m,Thu Jan 15 2026 14:58:06 GMT-0600 (Central Standard Time),457357.19999980927,kiwi,1000,I,m,m,None,574,373.0,201.0,111,1,2117.199999809265,455240.0,7744,iron,NF,C,448793,448793,447063,448079,447063,449180,448592,448592,449180,108
106,test,1,con,1,z,Thu Jan 15 2026 14:58:06 GMT-0600 (Central Standard Time),459467.7999999523,cherry,1000,I,z,z,None,585,386.0,199.0,11,1,2107.7999999523163,457360.0,7744,cherry,NF,C,450893,450893,449183,450193,449183,451291,450694,450694,451291,109
107,test,1,inc,1,z,Thu Jan 15 2026 14:58:06 GMT-0600 (Central Standard Time),461552.89999985695,gold,800,I,z,z,None,763,551.0,212.0,37,1,2082.0,459470.89999985695,7744,lime,NF,C,452824,452824,451294,452109,451294,453376,452611,452611,453376,110
108,test,1,con,1,m,Thu Jan 15 2026 14:58:06 GMT-0600 (Central Standard Time),463750.39999985695,lead,1000,I,m,m,None,651,451.0,200.0,123,1,2192.2999999523163,461558.09999990463,7744,lead,NF,C,455107,455107,453381,454391,453381,455573,454907,454907,455573,111
109,test,1,con,1,m,Thu Jan 15 2026 14:58:06 GMT-0600 (Central Standard Time),466165.59999990463,cobalt,1100,I,m,m,None,776,577.0,199.0,92,1,2410.5999999046326,463755.0,7744,cobalt,NF,C,457406,457406,455578,456690,455578,457989,457207,457207,457989,112
110,test,1,inc,1,m,Thu Jan 15 2026 14:58:06 GMT-0600 (Central Standard Time),468299.5,kiwi,1000,I,m,m,None,586,386.0,200.0,103,1,2128.5,466171.0,7744,gold,NF,C,459724,459724,457994,459006,457994,460123,459523,459523,460123,113
111,test,1,inc,1,m,Thu Jan 15 2026 14:58:06 GMT-0600 (Central Standard Time),470465.5,plum,1100,I,m,m,None,524,324.0,200.0,104,1,2160.800000190735,468304.69999980927,7744,gold,NF,C,461955,461955,460128,461239,460128,462289,461755,461755,462289,114
112,test,1,con,1,z,Thu Jan 15 2026 14:58:06 GMT-0600 (Central Standard Time),472531.0,orange,1100,I,z,z,None,421,219.0,202.0,20,1,2059.800000190735,470471.19999980927,7744,orange,NF,C,464124,464124,462294,463404,462294,464354,463922,463922,464354,115
113,test,1,inc,1,m,Thu Jan 15 2026 14:58:06 GMT-0600 (Central Standard Time),474450.2999999523,banana,800,I,m,m,None,569,369.0,200.0,93,1,1912.6000001430511,472537.69999980927,7744,cobalt,NF,C,465887,465887,464361,465171,464361,466273,465687,465687,466273,116
114,test,1,con,1,m,Thu Jan 15 2026 14:58:06 GMT-0600 (Central Standard Time),476546.59999990463,lead,900,I,m,m,None,663,462.0,201.0,122,1,2092.5,474454.09999990463,7744,lead,NF,C,467904,467904,466277,467189,466277,468370,467703,467703,468370,117
115,test,1,inc,1,m,Thu Jan 15 2026 14:58:06 GMT-0600 (Central Standard Time),478595.89999985695,cherry,900,I,m,m,None,615,416.0,199.0,94,1,2044.7999999523163,476551.09999990463,7744,cobalt,NF,C,470003,470003,468374,469286,468374,470419,469803,469803,470419,118
116,test,1,con,1,m,Thu Jan 15 2026 14:58:06 GMT-0600 (Central Standard Time),480860.09999990463,silver,1100,I,m,m,None,624,410.0,214.0,84,1,2260.0,478600.09999990463,7744,silver,NF,C,472269,472269,470423,471535,470423,472683,472055,472055,472683,119
117,test,1,con,1,z,Thu Jan 15 2026 14:58:06 GMT-0600 (Central Standard Time),482844.39999985695,raisin,800,I,z,z,None,636,435.0,201.0,25,1,1981.7999999523163,480862.59999990463,7744,raisin,NF,C,474220,474220,472686,473503,472686,474667,474018,474019,474667,120
118,test,1,con,1,m,Thu Jan 15 2026 14:58:06 GMT-0600 (Central Standard Time),484743.2999999523,silver,800,I,m,m,None,548,333.0,215.0,81,1,1891.9000000953674,482851.39999985695,7744,silver,NF,C,476217,476217,474674,475484,474675,476566,476002,476002,476566,121
119,test,1,inc,1,z,Thu Jan 15 2026 14:58:06 GMT-0600 (Central Standard Time),486993.69999980927,cobalt,1100,I,z,z,None,605,406.0,199.0,24,1,2245.399999856949,484748.2999999523,7744,orange,NF,C,478400,478400,476571,477683,476572,478817,478200,478200,478817,122
120,test,1,con,1,z,Thu Jan 15 2026 14:58:06 GMT-0600 (Central Standard Time),488875.69999980927,lime,900,I,z,z,None,446,245.0,201.0,34,1,1875.5,487000.19999980927,7744,lime,NF,C,480450,480450,478823,479734,478823,480699,480249,480249,480699,123
121,test,1,inc,1,z,Thu Jan 15 2026 14:58:06 GMT-0600 (Central Standard Time),490742.0,copper,900,I,z,z,None,418,217.0,201.0,6,1,1860.3000001907349,488881.69999980927,7744,banana,NF,C,482333,482333,480705,481617,480705,482565,482132,482132,482565,124
122,test,1,con,1,z,Thu Jan 15 2026 14:58:06 GMT-0600 (Central Standard Time),492925.39999985695,plum,1100,I,z,z,None,535,336.0,199.0,60,1,2178.5,490746.89999985695,7744,plum,NF,C,484398,484398,482570,483681,482570,484749,484198,484198,484748,125
123,test,1,con,1,m,Thu Jan 15 2026 14:58:06 GMT-0600 (Central Standard Time),495123.7999999523,cobalt,1000,I,m,m,None,653,454.0,199.0,91,1,2193.2000000476837,492930.59999990463,7744,cobalt,NF,C,486481,486481,484754,485764,484754,486947,486281,486281,486947,126
124,test,1,con,1,z,Thu Jan 15 2026 14:58:06 GMT-0600 (Central Standard Time),497190.2999999523,lime,800,I,z,z,None,726,526.0,200.0,33,1,2063.5,495126.7999999523,7744,lime,NF,C,488481,488481,486950,487763,486950,489013,488280,488280,489013,127
125,test,1,con,1,z,Thu Jan 15 2026 14:58:06 GMT-0600 (Central Standard Time),499040.69999980927,plum,800,I,z,z,None,499,285.0,214.0,57,1,1846.5,497194.19999980927,7744,plum,NF,C,490562,490562,489017,489830,489017,490864,490348,490348,490864,128
