block_c,block_dur,condition,countdown,datetime,endtime,list,multichar_response,project,response,response_time,session_number,start_end,starttime,subject_id,task,task_vers,trial
,,,,Wed Sep 10 2025 15:38:46 GMT-0500 (Central Daylight Time),,,,I,space,1221,3,,,8014,WL,B,
prac,,0,,Wed Sep 10 2025 15:38:46 GMT-0500 (Central Daylight Time),,NA,b,I,b,2771,3,,,8014,WL,B,1.0
prac,,0,,Wed Sep 10 2025 15:38:46 GMT-0500 (Central Daylight Time),,NA,bo,I,o,167,3,,,8014,WL,B,1.0
prac,,0,,Wed Sep 10 2025 15:38:46 GMT-0500 (Central Daylight Time),,NA,boo,I,o,120,3,,,8014,WL,B,1.0
prac,,0,,Wed Sep 10 2025 15:38:46 GMT-0500 (Central Daylight Time),,NA,boos,I,s,977,3,,,8014,WL,B,1.0
prac,,0,,Wed Sep 10 2025 15:38:46 GMT-0500 (Central Daylight Time),,NA,boost,I,t,330,3,,,8014,WL,B,1.0
prac,,0,,Wed Sep 10 2025 15:38:46 GMT-0500 (Central Daylight Time),,NA,boostenter,I,enter,2731,3,,,8014,WL,B,1.0
1,1.2669999599456787,learn,58733.00004005432,Wed Sep 10 2025 15:38:46 GMT-0500 (Central Daylight Time),106125.0,A,s,I,s,1259,3,1267.2999999523163,104857.70000004768,8014,WL,B,1.0
1,1.4839999675750732,learn,58516.00003242493,Wed Sep 10 2025 15:38:46 GMT-0500 (Central Daylight Time),106341.20000004768,A,st,I,t,206,3,1483.5,104857.70000004768,8014,WL,B,1.0
1,1.6339998245239258,learn,58366.000175476074,Wed Sep 10 2025 15:38:46 GMT-0500 (Central Daylight Time),106491.90000003576,A,str,I,r,142,3,1634.199999988079,104857.70000004768,8014,WL,B,1.0
1,1.9509999752044678,learn,58049.00002479553,Wed Sep 10 2025 15:38:46 GMT-0500 (Central Daylight Time),106809.10000002384,A,stre,I,e,294,3,1951.3999999761581,104857.70000004768,8014,WL,B,1.0
1,2.116999864578247,learn,57883.00013542175,Wed Sep 10 2025 15:38:46 GMT-0500 (Central Daylight Time),106974.80000001192,A,stree,I,e,145,3,2117.099999964237,104857.70000004768,8014,WL,B,1.0
1,2.6999998092651367,learn,57300.00019073486,Wed Sep 10 2025 15:38:46 GMT-0500 (Central Daylight Time),107557.80000001192,A,street,I,t,571,3,2700.099999964237,104857.70000004768,8014,WL,B,1.0
1,3.9169998168945312,learn,56083.00018310547,Wed Sep 10 2025 15:38:46 GMT-0500 (Central Daylight Time),108774.40000003576,A,streetenter,I,enter,1206,3,3916.699999988079,104857.70000004768,8014,WL,B,1.0
1,4.432999849319458,learn,55567.00015068054,Wed Sep 10 2025 15:38:46 GMT-0500 (Central Daylight Time),109290.70000004768,A,a,I,a,509,3,515.9000000357628,108774.80000001192,8014,WL,B,2.0
1,4.799999952316284,learn,55200.000047683716,Wed Sep 10 2025 15:38:46 GMT-0500 (Central Daylight Time),109658.10000002384,A,ar,I,r,344,3,883.3000000119209,108774.80000001192,8014,WL,B,2.0
1,5.365000009536743,learn,54634.99999046326,Wed Sep 10 2025 15:38:46 GMT-0500 (Central Daylight Time),110223.0,A,arm,I,m,545,3,1448.199999988079,108774.80000001192,8014,WL,B,2.0
1,6.065999984741211,learn,53934.00001525879,Wed Sep 10 2025 15:38:46 GMT-0500 (Central Daylight Time),110923.20000004768,A,armenter,I,enter,682,3,2148.400000035763,108774.80000001192,8014,WL,B,2.0
1,6.648999929428101,learn,53351.0000705719,Wed Sep 10 2025 15:38:46 GMT-0500 (Central Daylight Time),111507.10000002384,A,d,I,d,569,3,583.3999999761581,110923.70000004768,8014,WL,B,3.0
1,6.865000009536743,learn,53134.99999046326,Wed Sep 10 2025 15:38:46 GMT-0500 (Central Daylight Time),111723.10000002384,A,do,I,o,206,3,799.3999999761581,110923.70000004768,8014,WL,B,3.0
1,7.014999866485596,learn,52985.000133514404,Wed Sep 10 2025 15:38:46 GMT-0500 (Central Daylight Time),111872.5,A,doo,I,o,134,3,948.7999999523163,110923.70000004768,8014,WL,B,3.0
1,7.232999801635742,learn,52767.00019836426,Wed Sep 10 2025 15:38:46 GMT-0500 (Central Daylight Time),112090.60000002384,A,door,I,r,203,3,1166.8999999761581,110923.70000004768,8014,WL,B,3.0
1,7.631999969482422,learn,52368.00003051758,Wed Sep 10 2025 15:38:46 GMT-0500 (Central Daylight Time),112490.10000002384,A,doorenter,I,enter,384,3,1566.3999999761581,110923.70000004768,8014,WL,B,3.0
1,8.565999984741211,learn,51434.00001525879,Wed Sep 10 2025 15:38:46 GMT-0500 (Central Daylight Time),113423.80000001192,A,g,I,g,914,3,933.3999999761581,112490.40000003576,8014,WL,B,4.0
1,8.780999898910522,learn,51219.00010108948,Wed Sep 10 2025 15:38:46 GMT-0500 (Central Daylight Time),113639.10000002384,A,gr,I,r,197,3,1148.699999988079,112490.40000003576,8014,WL,B,4.0
1,9.181999921798706,learn,50818.000078201294,Wed Sep 10 2025 15:38:46 GMT-0500 (Central Daylight Time),114039.40000003576,A,gra,I,a,389,3,1549.0,112490.40000003576,8014,WL,B,4.0
1,9.448999881744385,learn,50551.000118255615,Wed Sep 10 2025 15:38:46 GMT-0500 (Central Daylight Time),114306.80000001192,A,gras,I,s,245,3,1816.3999999761581,112490.40000003576,8014,WL,B,4.0
1,9.597999811172485,learn,50402.000188827515,Wed Sep 10 2025 15:38:46 GMT-0500 (Central Daylight Time),114456.0,A,grass,I,s,138,3,1965.5999999642372,112490.40000003576,8014,WL,B,4.0
1,9.813999891281128,learn,50186.00010871887,Wed Sep 10 2025 15:38:46 GMT-0500 (Central Daylight Time),114671.70000004768,A,grassenter,I,enter,203,3,2181.300000011921,112490.40000003576,8014,WL,B,4.0
1,10.980999946594238,learn,49019.00005340576,Wed Sep 10 2025 15:38:46 GMT-0500 (Central Daylight Time),115838.70000004768,A,p,I,p,1148,3,1166.7000000476837,114672.0,8014,WL,B,5.0
1,11.33299994468689,learn,48667.00005531311,Wed Sep 10 2025 15:38:46 GMT-0500 (Central Daylight Time),116190.60000002384,A,pu,I,u,333,3,1518.6000000238419,114672.0,8014,WL,B,5.0
1,11.579999923706055,learn,48420.000076293945,Wed Sep 10 2025 15:38:46 GMT-0500 (Central Daylight Time),116437.40000003576,A,pup,I,p,237,3,1765.4000000357628,114672.0,8014,WL,B,5.0
1,11.763000011444092,learn,48236.99998855591,Wed Sep 10 2025 15:38:46 GMT-0500 (Central Daylight Time),116620.80000001192,A,pupi,I,i,164,3,1948.800000011921,114672.0,8014,WL,B,5.0
1,11.976999998092651,learn,48023.00000190735,Wed Sep 10 2025 15:38:46 GMT-0500 (Central Daylight Time),116835.30000001192,A,pupil,I,l,200,3,2163.300000011921,114672.0,8014,WL,B,5.0
1,12.626999855041504,learn,47373.000144958496,Wed Sep 10 2025 15:38:46 GMT-0500 (Central Daylight Time),117485.40000003576,A,pupilenter,I,enter,634,3,2813.400000035763,114672.0,8014,WL,B,5.0
1,13.060999870300293,learn,46939.00012969971,Wed Sep 10 2025 15:38:46 GMT-0500 (Central Daylight Time),117918.80000001192,A,c,I,c,423,3,433.0999999642372,117485.70000004768,8014,WL,B,6.0
1,13.560999870300293,learn,46439.00012969971,Wed Sep 10 2025 15:38:46 GMT-0500 (Central Daylight Time),118418.80000001192,A,ca,I,a,489,3,933.0999999642372,117485.70000004768,8014,WL,B,6.0
1,13.91100001335144,learn,46088.99998664856,Wed Sep 10 2025 15:38:46 GMT-0500 (Central Daylight Time),118769.0,A,cab,I,b,325,3,1283.2999999523163,117485.70000004768,8014,WL,B,6.0
1,14.143999814987183,learn,45856.00018501282,Wed Sep 10 2025 15:38:46 GMT-0500 (Central Daylight Time),119001.70000004768,A,cabi,I,i,217,3,1516.0,117485.70000004768,8014,WL,B,6.0
1,14.478999853134155,learn,45521.000146865845,Wed Sep 10 2025 15:38:46 GMT-0500 (Central Daylight Time),119336.60000002384,A,cabin,I,n,319,3,1850.8999999761581,117485.70000004768,8014,WL,B,6.0
1,15.16100001335144,learn,44838.99998664856,Wed Sep 10 2025 15:38:46 GMT-0500 (Central Daylight Time),120019.0,A,cabinenter,I,enter,666,3,2533.2999999523163,117485.70000004768,8014,WL,B,6.0
1,15.562999963760376,learn,44437.000036239624,Wed Sep 10 2025 15:38:46 GMT-0500 (Central Daylight Time),120420.90000003576,A,w,I,w,385,3,401.60000002384186,120019.30000001192,8014,WL,B,7.0
1,15.796000003814697,learn,44203.9999961853,Wed Sep 10 2025 15:38:46 GMT-0500 (Central Daylight Time),120654.60000002384,A,wo,I,o,225,3,635.3000000119209,120019.30000001192,8014,WL,B,7.0
1,16.09599995613098,learn,43904.00004386902,Wed Sep 10 2025 15:38:46 GMT-0500 (Central Daylight Time),120953.80000001192,A,won,I,n,284,3,934.5,120019.30000001192,8014,WL,B,7.0
1,16.52899980545044,learn,43471.00019454956,Wed Sep 10 2025 15:38:46 GMT-0500 (Central Daylight Time),121387.20000004768,A,wond,I,d,411,3,1367.9000000357628,120019.30000001192,8014,WL,B,7.0
1,16.77899980545044,learn,43221.00019454956,Wed Sep 10 2025 15:38:46 GMT-0500 (Central Daylight Time),121637.30000001192,A,wondo,I,o,232,3,1618.0,120019.30000001192,8014,WL,B,7.0
1,17.211999893188477,learn,42788.00010681152,Wed Sep 10 2025 15:38:46 GMT-0500 (Central Daylight Time),122069.80000001192,A,wondow,I,w,424,3,2050.5,120019.30000001192,8014,WL,B,7.0
1,17.661999940872192,learn,42338.00005912781,Wed Sep 10 2025 15:38:46 GMT-0500 (Central Daylight Time),122520.5,A,wondowenter,I,enter,430,3,2501.199999988079,120019.30000001192,8014,WL,B,7.0
1,18.244999885559082,learn,41755.00011444092,Wed Sep 10 2025 15:38:46 GMT-0500 (Central Daylight Time),123103.5,A,s,I,s,573,3,582.6999999880791,122520.80000001192,8014,WL,B,8.0
1,18.71299982070923,learn,41287.00017929077,Wed Sep 10 2025 15:38:46 GMT-0500 (Central Daylight Time),123571.0,A,st,I,t,463,3,1050.199999988079,122520.80000001192,8014,WL,B,8.0
1,19.227999925613403,learn,40772.0000743866,Wed Sep 10 2025 15:38:46 GMT-0500 (Central Daylight Time),124086.30000001192,A,sta,I,a,497,3,1565.5,122520.80000001192,8014,WL,B,8.0
1,19.66100001335144,learn,40338.99998664856,Wed Sep 10 2025 15:38:46 GMT-0500 (Central Daylight Time),124518.90000003576,A,star,I,r,422,3,1998.1000000238419,122520.80000001192,8014,WL,B,8.0
1,20.3439998626709,learn,39656.0001373291,Wed Sep 10 2025 15:38:46 GMT-0500 (Central Daylight Time),125201.90000003576,A,starenter,I,enter,668,3,2681.100000023842,122520.80000001192,8014,WL,B,8.0
1,30.54099988937378,learn,29459.00011062622,Wed Sep 10 2025 15:38:46 GMT-0500 (Central Daylight Time),135398.90000003576,A,l,I,l,10180,3,10196.699999988079,125202.20000004768,8014,WL,B,9.0
1,30.756999969482422,learn,29243.000030517578,Wed Sep 10 2025 15:38:46 GMT-0500 (Central Daylight Time),135615.10000002384,A,la,I,a,195,3,10412.899999976158,125202.20000004768,8014,WL,B,9.0
1,30.924000024795532,learn,29075.999975204468,Wed Sep 10 2025 15:38:46 GMT-0500 (Central Daylight Time),135782.10000002384,A,lak,I,k,156,3,10579.899999976158,125202.20000004768,8014,WL,B,9.0
1,31.107999801635742,learn,28892.000198364258,Wed Sep 10 2025 15:38:46 GMT-0500 (Central Daylight Time),135966.40000003576,A,lake,I,e,166,3,10764.199999988079,125202.20000004768,8014,WL,B,9.0
1,31.656999826431274,learn,28343.000173568726,Wed Sep 10 2025 15:38:46 GMT-0500 (Central Daylight Time),136515.30000001192,A,lakeenter,I,enter,541,3,11313.099999964237,125202.20000004768,8014,WL,B,9.0
1,35.056999921798706,learn,24943.000078201294,Wed Sep 10 2025 15:38:46 GMT-0500 (Central Daylight Time),139915.40000003576,A,f,I,f,3395,3,3399.900000035763,136515.5,8014,WL,B,10.0
1,35.18899989128113,learn,24811.000108718872,Wed Sep 10 2025 15:38:46 GMT-0500 (Central Daylight Time),140047.5,A,fi,I,i,121,3,3532.0,136515.5,8014,WL,B,10.0
1,35.37299990653992,learn,24627.000093460083,Wed Sep 10 2025 15:38:46 GMT-0500 (Central Daylight Time),140231.60000002384,A,fir,I,r,164,3,3716.100000023842,136515.5,8014,WL,B,10.0
1,35.62299990653992,learn,24377.000093460083,Wed Sep 10 2025 15:38:46 GMT-0500 (Central Daylight Time),140481.30000001192,A,fire,I,e,227,3,3965.800000011921,136515.5,8014,WL,B,10.0
1,37.78699994087219,learn,22213.000059127808,Wed Sep 10 2025 15:38:46 GMT-0500 (Central Daylight Time),142645.10000002384,A,fireenter,I,enter,2155,3,6129.600000023842,136515.5,8014,WL,B,10.0
1,57.36500000953674,learn,2634.999990463257,Wed Sep 10 2025 15:38:46 GMT-0500 (Central Daylight Time),162223.0,A,w,I,w,19559,3,19577.599999964237,142645.40000003576,8014,WL,B,11.0
1,57.633999824523926,learn,2366.000175476074,Wed Sep 10 2025 15:38:46 GMT-0500 (Central Daylight Time),162491.60000002384,A,wi,I,i,252,3,19846.19999998808,142645.40000003576,8014,WL,B,11.0
1,57.847999811172485,learn,2152.0001888275146,Wed Sep 10 2025 15:38:46 GMT-0500 (Central Daylight Time),162706.10000002384,A,wif,I,f,201,3,20060.69999998808,142645.40000003576,8014,WL,B,11.0
1,58.098999977111816,learn,1901.0000228881836,Wed Sep 10 2025 15:38:46 GMT-0500 (Central Daylight Time),162957.10000002384,A,wife,I,e,229,3,20311.69999998808,142645.40000003576,8014,WL,B,11.0
1,58.681999921798706,learn,1318.000078201294,Wed Sep 10 2025 15:38:46 GMT-0500 (Central Daylight Time),163539.70000004768,A,wifeenter,I,enter,575,3,20894.30000001192,142645.40000003576,8014,WL,B,11.0
1,60.01600003242493,learn,-16.000032424926758,Wed Sep 10 2025 15:38:46 GMT-0500 (Central Daylight Time),164873.70000004768,A,None,I,None,1328,3,1333.7000000476837,163540.0,8014,WL,B,12.0
2,0.9490001201629639,learn,59050.999879837036,Wed Sep 10 2025 15:38:46 GMT-0500 (Central Daylight Time),240249.5,A,p,I,p,937,3,949.0,239300.5,8014,WL,B,1.0
2,1.1990001201629639,learn,58800.999879837036,Wed Sep 10 2025 15:38:46 GMT-0500 (Central Daylight Time),240499.5,A,pi,I,i,242,3,1199.0,239300.5,8014,WL,B,1.0
2,1.448000192642212,learn,58551.99980735779,Wed Sep 10 2025 15:38:46 GMT-0500 (Central Daylight Time),240748.5,A,pip,I,p,233,3,1448.0,239300.5,8014,WL,B,1.0
2,1.8000001907348633,learn,58199.99980926514,Wed Sep 10 2025 15:38:46 GMT-0500 (Central Daylight Time),241100.30000001192,A,pipe,I,e,328,3,1799.800000011921,239300.5,8014,WL,B,1.0
2,2.1650002002716064,learn,57834.99979972839,Wed Sep 10 2025 15:38:46 GMT-0500 (Central Daylight Time),241465.0,A,pipeenter,I,enter,351,3,2164.5,239300.5,8014,WL,B,1.0
2,2.7990000247955322,learn,57200.99997520447,Wed Sep 10 2025 15:38:46 GMT-0500 (Central Daylight Time),242099.30000001192,A,c,I,c,629,3,634.0999999642372,241465.20000004768,8014,WL,B,2.0
2,3.2310001850128174,learn,56768.99981498718,Wed Sep 10 2025 15:38:46 GMT-0500 (Central Daylight Time),242531.60000002384,A,ci,I,i,417,3,1066.3999999761581,241465.20000004768,8014,WL,B,2.0
2,3.3990001678466797,learn,56600.99983215332,Wed Sep 10 2025 15:38:46 GMT-0500 (Central Daylight Time),242699.0,A,cit,I,t,144,3,1233.7999999523163,241465.20000004768,8014,WL,B,2.0
2,3.615000009536743,learn,56384.99999046326,Wed Sep 10 2025 15:38:46 GMT-0500 (Central Daylight Time),242915.70000004768,A,city,I,y,200,3,1450.5,241465.20000004768,8014,WL,B,2.0
2,4.015000104904175,learn,55984.999895095825,Wed Sep 10 2025 15:38:46 GMT-0500 (Central Daylight Time),243315.30000001192,A,cityenter,I,enter,386,3,1850.0999999642372,241465.20000004768,8014,WL,B,2.0
2,4.364000082015991,learn,55635.99991798401,Wed Sep 10 2025 15:38:46 GMT-0500 (Central Daylight Time),243664.60000002384,A,s,I,s,338,3,349.0,243315.60000002384,8014,WL,B,3.0
2,4.732000112533569,learn,55267.99988746643,Wed Sep 10 2025 15:38:46 GMT-0500 (Central Daylight Time),244032.0,A,sk,I,k,358,3,716.3999999761581,243315.60000002384,8014,WL,B,3.0
2,4.914000034332275,learn,55085.999965667725,Wed Sep 10 2025 15:38:46 GMT-0500 (Central Daylight Time),244214.5,A,ski,I,i,166,3,898.8999999761581,243315.60000002384,8014,WL,B,3.0
2,5.231000185012817,learn,54768.99981498718,Wed Sep 10 2025 15:38:46 GMT-0500 (Central Daylight Time),244531.70000004768,A,skin,I,n,304,3,1216.1000000238419,243315.60000002384,8014,WL,B,3.0
2,5.879000186920166,learn,54120.999813079834,Wed Sep 10 2025 15:38:46 GMT-0500 (Central Daylight Time),245179.70000004768,A,skinenter,I,enter,632,3,1864.1000000238419,243315.60000002384,8014,WL,B,3.0
2,6.398000001907349,learn,53601.99999809265,Wed Sep 10 2025 15:38:46 GMT-0500 (Central Daylight Time),245698.20000004768,A,c,I,c,495,3,517.4000000357628,245180.80000001192,8014,WL,B,4.0
2,6.748000144958496,learn,53251.999855041504,Wed Sep 10 2025 15:38:46 GMT-0500 (Central Daylight Time),246048.30000001192,A,ca,I,a,330,3,867.5,245180.80000001192,8014,WL,B,4.0
2,6.913000106811523,learn,53086.99989318848,Wed Sep 10 2025 15:38:46 GMT-0500 (Central Daylight Time),246213.40000003576,A,cab,I,b,146,3,1032.6000000238419,245180.80000001192,8014,WL,B,4.0
2,7.264000177383423,learn,52735.99982261658,Wed Sep 10 2025 15:38:46 GMT-0500 (Central Daylight Time),246564.30000001192,A,cabi,I,i,334,3,1383.5,245180.80000001192,8014,WL,B,4.0
2,8.415000200271606,learn,51584.99979972839,Wed Sep 10 2025 15:38:46 GMT-0500 (Central Daylight Time),247715.0,A,cab,I,backspace,1144,3,2534.199999988079,245180.80000001192,8014,WL,B,4.0
2,9.296000003814697,learn,50703.9999961853,Wed Sep 10 2025 15:38:46 GMT-0500 (Central Daylight Time),248596.10000002384,A,cabi,I,i,866,3,3415.300000011921,245180.80000001192,8014,WL,B,4.0
2,9.51200008392334,learn,50487.99991607666,Wed Sep 10 2025 15:38:46 GMT-0500 (Central Daylight Time),248812.80000001192,A,cabin,I,n,206,3,3632.0,245180.80000001192,8014,WL,B,4.0
2,10.129000186920166,learn,49870.999813079834,Wed Sep 10 2025 15:38:46 GMT-0500 (Central Daylight Time),249429.20000004768,A,cabinenter,I,enter,598,3,4248.400000035763,245180.80000001192,8014,WL,B,4.0
2,10.546000003814697,learn,49453.9999961853,Wed Sep 10 2025 15:38:46 GMT-0500 (Central Daylight Time),249846.20000004768,A,l,I,l,408,3,416.7000000476837,249429.5,8014,WL,B,5.0
2,10.930999994277954,learn,49069.000005722046,Wed Sep 10 2025 15:38:46 GMT-0500 (Central Daylight Time),250231.5,A,la,I,a,376,3,802.0,249429.5,8014,WL,B,5.0
2,11.11300015449524,learn,48886.99984550476,Wed Sep 10 2025 15:38:46 GMT-0500 (Central Daylight Time),250413.10000002384,A,lak,I,k,167,3,983.6000000238419,249429.5,8014,WL,B,5.0
2,11.295000076293945,learn,48704.999923706055,Wed Sep 10 2025 15:38:46 GMT-0500 (Central Daylight Time),250595.80000001192,A,lake,I,e,166,3,1166.300000011921,249429.5,8014,WL,B,5.0
2,11.678000211715698,learn,48321.9997882843,Wed Sep 10 2025 15:38:46 GMT-0500 (Central Daylight Time),250978.70000004768,A,lakeenter,I,enter,377,3,1549.2000000476837,249429.5,8014,WL,B,5.0
2,12.078999996185303,learn,47921.0000038147,Wed Sep 10 2025 15:38:46 GMT-0500 (Central Daylight Time),251379.30000001192,A,f,I,f,378,3,400.19999998807907,250979.10000002384,8014,WL,B,6.0
2,12.297000169754028,learn,47702.99983024597,Wed Sep 10 2025 15:38:46 GMT-0500 (Central Daylight Time),251597.30000001192,A,fi,I,i,211,3,618.1999999880791,250979.10000002384,8014,WL,B,6.0
2,12.513000011444092,learn,47486.99998855591,Wed Sep 10 2025 15:38:46 GMT-0500 (Central Daylight Time),251813.0,A,fir,I,r,200,3,833.8999999761581,250979.10000002384,8014,WL,B,6.0
2,12.726999998092651,learn,47273.00000190735,Wed Sep 10 2025 15:38:46 GMT-0500 (Central Daylight Time),252027.70000004768,A,fire,I,e,199,3,1048.6000000238419,250979.10000002384,8014,WL,B,6.0
2,12.99400019645691,learn,47005.99980354309,Wed Sep 10 2025 15:38:46 GMT-0500 (Central Daylight Time),252294.5,A,fireenter,I,enter,255,3,1315.3999999761581,250979.10000002384,8014,WL,B,6.0
2,13.263000011444092,learn,46736.99998855591,Wed Sep 10 2025 15:38:46 GMT-0500 (Central Daylight Time),252562.90000003576,A,a,I,a,247,3,268.19999998807907,252294.70000004768,8014,WL,B,7.0
2,13.57800006866455,learn,46421.99993133545,Wed Sep 10 2025 15:38:46 GMT-0500 (Central Daylight Time),252878.70000004768,A,ar,I,r,307,3,584.0,252294.70000004768,8014,WL,B,7.0
2,14.24400019645691,learn,45755.99980354309,Wed Sep 10 2025 15:38:46 GMT-0500 (Central Daylight Time),253544.20000004768,A,arm,I,m,645,3,1249.5,252294.70000004768,8014,WL,B,7.0
2,14.877000093460083,learn,45122.99990653992,Wed Sep 10 2025 15:38:46 GMT-0500 (Central Daylight Time),254177.5,A,armenter,I,enter,618,3,1882.7999999523163,252294.70000004768,8014,WL,B,7.0
2,15.644000053405762,learn,44355.99994659424,Wed Sep 10 2025 15:38:46 GMT-0500 (Central Daylight Time),254944.60000002384,A,p,I,p,748,3,766.8999999761581,254177.70000004768,8014,WL,B,8.0
2,15.960000038146973,learn,44039.99996185303,Wed Sep 10 2025 15:38:46 GMT-0500 (Central Daylight Time),255260.70000004768,A,pu,I,u,294,3,1083.0,254177.70000004768,8014,WL,B,8.0
2,16.194000005722046,learn,43805.999994277954,Wed Sep 10 2025 15:38:46 GMT-0500 (Central Daylight Time),255494.30000001192,A,pup,I,p,220,3,1316.5999999642372,254177.70000004768,8014,WL,B,8.0
2,16.544000148773193,learn,43455.99985122681,Wed Sep 10 2025 15:38:46 GMT-0500 (Central Daylight Time),255844.10000002384,A,pupi,I,i,335,3,1666.3999999761581,254177.70000004768,8014,WL,B,8.0
2,16.777000188827515,learn,43222.999811172485,Wed Sep 10 2025 15:38:46 GMT-0500 (Central Daylight Time),256077.70000004768,A,pupil,I,l,216,3,1900.0,254177.70000004768,8014,WL,B,8.0
2,17.3270001411438,learn,42672.9998588562,Wed Sep 10 2025 15:38:46 GMT-0500 (Central Daylight Time),256627.5,A,pupilenter,I,enter,535,3,2449.7999999523163,254177.70000004768,8014,WL,B,8.0
2,17.676000118255615,learn,42323.999881744385,Wed Sep 10 2025 15:38:46 GMT-0500 (Central Daylight Time),256976.80000001192,A,w,I,w,330,3,349.0999999642372,256627.70000004768,8014,WL,B,9.0
2,17.91000008583069,learn,42089.99991416931,Wed Sep 10 2025 15:38:46 GMT-0500 (Central Daylight Time),257210.20000004768,A,wo,I,o,218,3,582.5,256627.70000004768,8014,WL,B,9.0
2,18.811000108718872,learn,41188.99989128113,Wed Sep 10 2025 15:38:46 GMT-0500 (Central Daylight Time),258110.90000003576,A,w,I,backspace,892,3,1483.199999988079,256627.70000004768,8014,WL,B,9.0
2,19.210000038146973,learn,40789.99996185303,Wed Sep 10 2025 15:38:46 GMT-0500 (Central Daylight Time),258510.20000004768,A,wi,I,i,391,3,1882.5,256627.70000004768,8014,WL,B,9.0
2,19.442000150680542,learn,40557.99984931946,Wed Sep 10 2025 15:38:46 GMT-0500 (Central Daylight Time),258742.90000003576,A,win,I,n,222,3,2115.199999988079,256627.70000004768,8014,WL,B,9.0
2,19.711000204086304,learn,40288.999795913696,Wed Sep 10 2025 15:38:46 GMT-0500 (Central Daylight Time),259011.0,A,wind,I,d,263,3,2383.2999999523163,256627.70000004768,8014,WL,B,9.0
2,20.159000158309937,learn,39840.99984169006,Wed Sep 10 2025 15:38:46 GMT-0500 (Central Daylight Time),259459.5,A,windo,I,o,435,3,2831.7999999523163,256627.70000004768,8014,WL,B,9.0
2,20.294000148773193,learn,39705.99985122681,Wed Sep 10 2025 15:38:46 GMT-0500 (Central Daylight Time),259593.90000003576,A,window,I,w,113,3,2966.199999988079,256627.70000004768,8014,WL,B,9.0
2,20.72699999809265,learn,39273.00000190735,Wed Sep 10 2025 15:38:46 GMT-0500 (Central Daylight Time),260027.0,A,windowenter,I,enter,428,3,3399.2999999523163,256627.70000004768,8014,WL,B,9.0
2,22.60800004005432,learn,37391.99995994568,Wed Sep 10 2025 15:38:46 GMT-0500 (Central Daylight Time),261908.60000002384,A,s,I,s,1866,3,1881.300000011921,260027.30000001192,8014,WL,B,10.0
2,22.79200005531311,learn,37207.99994468689,Wed Sep 10 2025 15:38:46 GMT-0500 (Central Daylight Time),262092.80000001192,A,st,I,t,180,3,2065.5,260027.30000001192,8014,WL,B,10.0
2,22.993000030517578,learn,37006.99996948242,Wed Sep 10 2025 15:38:46 GMT-0500 (Central Daylight Time),262292.90000003576,A,str,I,r,193,3,2265.600000023842,260027.30000001192,8014,WL,B,10.0
2,23.19099998474121,learn,36809.00001525879,Wed Sep 10 2025 15:38:46 GMT-0500 (Central Daylight Time),262491.5,A,stre,I,e,192,3,2464.199999988079,260027.30000001192,8014,WL,B,10.0
2,23.375,learn,36625.0,Wed Sep 10 2025 15:38:46 GMT-0500 (Central Daylight Time),262675.40000003576,A,stree,I,e,166,3,2648.100000023842,260027.30000001192,8014,WL,B,10.0
2,23.508000135421753,learn,36491.99986457825,Wed Sep 10 2025 15:38:46 GMT-0500 (Central Daylight Time),262808.7000000477,A,street,I,t,120,3,2781.400000035763,260027.30000001192,8014,WL,B,10.0
2,24.257000207901,learn,35742.999792099,Wed Sep 10 2025 15:38:46 GMT-0500 (Central Daylight Time),263557.60000002384,A,streetenter,I,enter,730,3,3530.300000011921,260027.30000001192,8014,WL,B,10.0
2,25.176000118255615,learn,34823.999881744385,Wed Sep 10 2025 15:38:46 GMT-0500 (Central Daylight Time),264476.10000002384,A,g,I,g,913,3,918.1999999880791,263557.90000003576,8014,WL,B,11.0
2,25.424000024795532,learn,34575.99997520447,Wed Sep 10 2025 15:38:46 GMT-0500 (Central Daylight Time),264724.5,A,gr,I,r,228,3,1166.5999999642372,263557.90000003576,8014,WL,B,11.0
2,25.808000087738037,learn,34191.99991226196,Wed Sep 10 2025 15:38:46 GMT-0500 (Central Daylight Time),265108.0,A,gra,I,a,369,3,1550.0999999642372,263557.90000003576,8014,WL,B,11.0
2,26.02400016784668,learn,33975.99983215332,Wed Sep 10 2025 15:38:46 GMT-0500 (Central Daylight Time),265324.5,A,gras,I,s,210,3,1766.5999999642372,263557.90000003576,8014,WL,B,11.0
2,26.207000017166138,learn,33792.99998283386,Wed Sep 10 2025 15:38:46 GMT-0500 (Central Daylight Time),265507.40000003576,A,grass,I,s,167,3,1949.5,263557.90000003576,8014,WL,B,11.0
2,26.407999992370605,learn,33592.000007629395,Wed Sep 10 2025 15:38:46 GMT-0500 (Central Daylight Time),265708.10000002384,A,grassenter,I,enter,195,3,2150.199999988079,263557.90000003576,8014,WL,B,11.0
2,26.606000185012817,learn,33393.99981498718,Wed Sep 10 2025 15:38:46 GMT-0500 (Central Daylight Time),265906.0,A,a,I,a,186,3,197.79999995231628,265708.2000000477,8014,WL,B,12.0
2,26.9060001373291,learn,33093.9998626709,Wed Sep 10 2025 15:38:46 GMT-0500 (Central Daylight Time),266206.0,A,ar,I,r,283,3,497.7999999523163,265708.2000000477,8014,WL,B,12.0
2,27.091000080108643,learn,32908.99991989136,Wed Sep 10 2025 15:38:46 GMT-0500 (Central Daylight Time),266391.10000002384,A,arn,I,n,177,3,682.8999999761581,265708.2000000477,8014,WL,B,12.0
2,27.707000017166138,learn,32292.999982833862,Wed Sep 10 2025 15:38:46 GMT-0500 (Central Daylight Time),267007.3000000119,A,ar,I,backspace,605,3,1299.0999999642372,265708.2000000477,8014,WL,B,12.0
2,28.073000192642212,learn,31926.999807357788,Wed Sep 10 2025 15:38:46 GMT-0500 (Central Daylight Time),267373.60000002384,A,arm,I,m,348,3,1665.3999999761581,265708.2000000477,8014,WL,B,12.0
2,28.67300009727478,learn,31326.99990272522,Wed Sep 10 2025 15:38:46 GMT-0500 (Central Daylight Time),267973.2000000477,A,armenter,I,enter,592,3,2265.0,265708.2000000477,8014,WL,B,12.0
2,29.17300009727478,learn,30826.99990272522,Wed Sep 10 2025 15:38:46 GMT-0500 (Central Daylight Time),268473.60000002384,A,w,I,w,480,3,500.10000002384186,267973.5,8014,WL,B,13.0
2,29.391000032424927,learn,30608.999967575073,Wed Sep 10 2025 15:38:46 GMT-0500 (Central Daylight Time),268691.3000000119,A,wi,I,i,206,3,717.8000000119209,267973.5,8014,WL,B,13.0
2,29.606000185012817,learn,30393.999814987183,Wed Sep 10 2025 15:38:46 GMT-0500 (Central Daylight Time),268906.7000000477,A,win,I,n,204,3,933.2000000476837,267973.5,8014,WL,B,13.0
2,29.939000129699707,learn,30060.999870300293,Wed Sep 10 2025 15:38:46 GMT-0500 (Central Daylight Time),269239.3000000119,A,wind,I,d,320,3,1265.800000011921,267973.5,8014,WL,B,13.0
2,30.555999994277954,learn,29444.000005722046,Wed Sep 10 2025 15:38:46 GMT-0500 (Central Daylight Time),269856.8000000119,A,windo,I,o,597,3,1883.300000011921,267973.5,8014,WL,B,13.0
2,30.689000129699707,learn,29310.999870300293,Wed Sep 10 2025 15:38:46 GMT-0500 (Central Daylight Time),269989.7000000477,A,window,I,w,123,3,2016.2000000476837,267973.5,8014,WL,B,13.0
2,31.1560001373291,learn,28843.9998626709,Wed Sep 10 2025 15:38:46 GMT-0500 (Central Daylight Time),270456.10000002384,A,windowenter,I,enter,445,3,2482.600000023842,267973.5,8014,WL,B,13.0
2,31.83899998664856,learn,28161.00001335144,Wed Sep 10 2025 15:38:46 GMT-0500 (Central Daylight Time),271139.3000000119,A,w,I,w,670,3,683.0,270456.3000000119,8014,WL,B,14.0
2,32.040000200271606,learn,27959.999799728394,Wed Sep 10 2025 15:38:46 GMT-0500 (Central Daylight Time),271339.8000000119,A,wi,I,i,195,3,883.5,270456.3000000119,8014,WL,B,14.0
2,32.3050000667572,learn,27694.999933242798,Wed Sep 10 2025 15:38:46 GMT-0500 (Central Daylight Time),271605.7000000477,A,wif,I,f,257,3,1149.4000000357628,270456.3000000119,8014,WL,B,14.0
2,32.83899998664856,learn,27161.00001335144,Wed Sep 10 2025 15:38:46 GMT-0500 (Central Daylight Time),272139.7000000477,A,wife,I,e,527,3,1683.4000000357628,270456.3000000119,8014,WL,B,14.0
2,33.42200016975403,learn,26577.99983024597,Wed Sep 10 2025 15:38:46 GMT-0500 (Central Daylight Time),272722.60000002384,A,wifeenter,I,enter,568,3,2266.300000011921,270456.3000000119,8014,WL,B,14.0
2,34.82100009918213,learn,25178.99990081787,Wed Sep 10 2025 15:38:46 GMT-0500 (Central Daylight Time),274121.5,A,s,I,s,1387,3,1398.5999999642372,272722.90000003576,8014,WL,B,15.0
2,35.13800001144409,learn,24861.99998855591,Wed Sep 10 2025 15:38:46 GMT-0500 (Central Daylight Time),274438.5,A,st,I,t,300,3,1715.5999999642372,272722.90000003576,8014,WL,B,15.0
2,35.28800010681152,learn,24711.999893188477,Wed Sep 10 2025 15:38:46 GMT-0500 (Central Daylight Time),274588.0,A,sta,I,a,135,3,1865.0999999642372,272722.90000003576,8014,WL,B,15.0
2,35.67200016975403,learn,24327.99983024597,Wed Sep 10 2025 15:38:46 GMT-0500 (Central Daylight Time),274971.8000000119,A,star,I,r,368,3,2248.899999976158,272722.90000003576,8014,WL,B,15.0
2,36.25500011444092,learn,23744.999885559082,Wed Sep 10 2025 15:38:46 GMT-0500 (Central Daylight Time),275555.3000000119,A,starenter,I,enter,578,3,2832.399999976158,272722.90000003576,8014,WL,B,15.0
3,0.9169998168945312,learn,59083.00018310547,Wed Sep 10 2025 15:38:46 GMT-0500 (Central Daylight Time),343416.90000003576,A,d,I,d,892,3,916.6000000238419,342500.3000000119,8014,WL,B,1.0
3,1.0999999046325684,learn,58900.00009536743,Wed Sep 10 2025 15:38:46 GMT-0500 (Central Daylight Time),343599.5,A,do,I,o,162,3,1099.199999988079,342500.3000000119,8014,WL,B,1.0
3,1.2329998016357422,learn,58767.00019836426,Wed Sep 10 2025 15:38:46 GMT-0500 (Central Daylight Time),343732.40000003576,A,doo,I,o,127,3,1232.1000000238419,342500.3000000119,8014,WL,B,1.0
3,1.432999849319458,learn,58567.00015068054,Wed Sep 10 2025 15:38:46 GMT-0500 (Central Daylight Time),343932.7000000477,A,door,I,r,177,3,1432.4000000357628,342500.3000000119,8014,WL,B,1.0
3,1.7990000247955322,learn,58200.99997520447,Wed Sep 10 2025 15:38:46 GMT-0500 (Central Daylight Time),344298.7000000477,A,doorenter,I,enter,357,3,1798.4000000357628,342500.3000000119,8014,WL,B,1.0
3,2.1499998569488525,learn,57850.00014305115,Wed Sep 10 2025 15:38:46 GMT-0500 (Central Daylight Time),344649.60000002384,A,c,I,c,333,3,350.60000002384186,344299.0,8014,WL,B,2.0
3,2.3519999980926514,learn,57648.00000190735,Wed Sep 10 2025 15:38:46 GMT-0500 (Central Daylight Time),344851.3000000119,A,cl,I,l,178,3,552.3000000119209,344299.0,8014,WL,B,2.0
3,2.5149998664855957,learn,57485.000133514404,Wed Sep 10 2025 15:38:46 GMT-0500 (Central Daylight Time),345015.10000002384,A,clo,I,o,144,3,716.1000000238419,344299.0,8014,WL,B,2.0
3,2.7659997940063477,learn,57234.00020599365,Wed Sep 10 2025 15:38:46 GMT-0500 (Central Daylight Time),345265.60000002384,A,cloc,I,c,235,3,966.6000000238419,344299.0,8014,WL,B,2.0
3,2.9489998817443848,learn,57051.000118255615,Wed Sep 10 2025 15:38:46 GMT-0500 (Central Daylight Time),345448.10000002384,A,clock,I,k,160,3,1149.1000000238419,344299.0,8014,WL,B,2.0
3,3.565999984741211,learn,56434.00001525879,Wed Sep 10 2025 15:38:46 GMT-0500 (Central Daylight Time),346065.3000000119,A,clockenter,I,enter,603,3,1766.300000011921,344299.0,8014,WL,B,2.0
3,3.8980000019073486,learn,56101.99999809265,Wed Sep 10 2025 15:38:46 GMT-0500 (Central Daylight Time),346397.60000002384,A,w,I,w,316,3,332.10000002384186,346065.5,8014,WL,B,3.0
3,4.181999921798706,learn,55818.000078201294,Wed Sep 10 2025 15:38:46 GMT-0500 (Central Daylight Time),346681.2000000477,A,wi,I,i,258,3,615.7000000476837,346065.5,8014,WL,B,3.0
3,4.414999961853027,learn,55585.00003814697,Wed Sep 10 2025 15:38:46 GMT-0500 (Central Daylight Time),346914.7000000477,A,wif,I,f,216,3,849.2000000476837,346065.5,8014,WL,B,3.0
3,4.631999969482422,learn,55368.00003051758,Wed Sep 10 2025 15:38:46 GMT-0500 (Central Daylight Time),347131.10000002384,A,wife,I,e,199,3,1065.6000000238419,346065.5,8014,WL,B,3.0
3,4.880999803543091,learn,55119.00019645691,Wed Sep 10 2025 15:38:46 GMT-0500 (Central Daylight Time),347380.8000000119,A,wifeenter,I,enter,239,3,1315.300000011921,346065.5,8014,WL,B,3.0
3,6.115999937057495,learn,53884.000062942505,Wed Sep 10 2025 15:38:46 GMT-0500 (Central Daylight Time),348615.10000002384,A,g,I,g,1216,3,1234.1000000238419,347381.0,8014,WL,B,4.0
3,6.730999946594238,learn,53269.00005340576,Wed Sep 10 2025 15:38:46 GMT-0500 (Central Daylight Time),349230.3000000119,A,,I,backspace,596,3,1849.300000011921,347381.0,8014,WL,B,4.0
3,6.931999921798706,learn,53068.000078201294,Wed Sep 10 2025 15:38:46 GMT-0500 (Central Daylight Time),349431.10000002384,A,f,I,f,182,3,2050.100000023842,347381.0,8014,WL,B,4.0
3,7.247999906539917,learn,52752.00009346008,Wed Sep 10 2025 15:38:46 GMT-0500 (Central Daylight Time),349747.60000002384,A,fi,I,i,302,3,2366.600000023842,347381.0,8014,WL,B,4.0
3,7.497999906539917,learn,52502.00009346008,Wed Sep 10 2025 15:38:46 GMT-0500 (Central Daylight Time),349997.40000003576,A,fir,I,r,241,3,2616.400000035763,347381.0,8014,WL,B,4.0
3,7.697999954223633,learn,52302.00004577637,Wed Sep 10 2025 15:38:46 GMT-0500 (Central Daylight Time),350197.8000000119,A,fire,I,e,192,3,2816.800000011921,347381.0,8014,WL,B,4.0
3,7.947000026702881,learn,52052.99997329712,Wed Sep 10 2025 15:38:46 GMT-0500 (Central Daylight Time),350446.7000000477,A,fireenter,I,enter,238,3,3065.7000000476837,347381.0,8014,WL,B,4.0
3,8.46399998664856,learn,51536.00001335144,Wed Sep 10 2025 15:38:46 GMT-0500 (Central Daylight Time),350964.0,A,l,I,l,503,3,517.0999999642372,350446.90000003576,8014,WL,B,5.0
3,8.598999977111816,learn,51401.00002288818,Wed Sep 10 2025 15:38:46 GMT-0500 (Central Daylight Time),351098.10000002384,A,la,I,a,127,3,651.1999999880791,350446.90000003576,8014,WL,B,5.0
3,9.163999795913696,learn,50836.000204086304,Wed Sep 10 2025 15:38:46 GMT-0500 (Central Daylight Time),351663.90000003576,A,lak,I,k,545,3,1217.0,350446.90000003576,8014,WL,B,5.0
3,9.363999843597412,learn,50636.00015640259,Wed Sep 10 2025 15:38:46 GMT-0500 (Central Daylight Time),351863.40000003576,A,lake,I,e,179,3,1416.5,350446.90000003576,8014,WL,B,5.0
3,9.732999801635742,learn,50267.00019836426,Wed Sep 10 2025 15:38:46 GMT-0500 (Central Daylight Time),352232.8000000119,A,lakeenter,I,enter,348,3,1785.8999999761581,350446.90000003576,8014,WL,B,5.0
3,10.096999883651733,learn,49903.00011634827,Wed Sep 10 2025 15:38:46 GMT-0500 (Central Daylight Time),352597.0,A,c,I,c,349,3,363.89999997615814,352233.10000002384,8014,WL,B,6.0
3,10.462999820709229,learn,49537.00017929077,Wed Sep 10 2025 15:38:46 GMT-0500 (Central Daylight Time),352962.5,A,ca,I,a,358,3,729.3999999761581,352233.10000002384,8014,WL,B,6.0
3,10.77899980545044,learn,49221.00019454956,Wed Sep 10 2025 15:38:46 GMT-0500 (Central Daylight Time),353278.3000000119,A,cab,I,b,299,3,1045.199999988079,352233.10000002384,8014,WL,B,6.0
3,10.944999933242798,learn,49055.0000667572,Wed Sep 10 2025 15:38:46 GMT-0500 (Central Daylight Time),353444.3000000119,A,cabi,I,i,150,3,1211.199999988079,352233.10000002384,8014,WL,B,6.0
3,11.128999948501587,learn,48871.00005149841,Wed Sep 10 2025 15:38:46 GMT-0500 (Central Daylight Time),353628.0,A,cabin,I,n,169,3,1394.8999999761581,352233.10000002384,8014,WL,B,6.0
3,11.69700002670288,learn,48302.99997329712,Wed Sep 10 2025 15:38:46 GMT-0500 (Central Daylight Time),354196.60000002384,A,cabinenter,I,enter,555,3,1963.5,352233.10000002384,8014,WL,B,6.0
3,12.19599986076355,learn,47804.00013923645,Wed Sep 10 2025 15:38:46 GMT-0500 (Central Daylight Time),354695.90000003576,A,w,I,w,490,3,499.10000002384186,354196.8000000119,8014,WL,B,7.0
3,12.411999940872192,learn,47588.00005912781,Wed Sep 10 2025 15:38:46 GMT-0500 (Central Daylight Time),354912.0,A,wi,I,i,195,3,715.1999999880791,354196.8000000119,8014,WL,B,7.0
3,12.613999843597412,learn,47386.00015640259,Wed Sep 10 2025 15:38:46 GMT-0500 (Central Daylight Time),355113.2000000477,A,win,I,n,179,3,916.4000000357628,354196.8000000119,8014,WL,B,7.0
3,12.812999963760376,learn,47187.000036239624,Wed Sep 10 2025 15:38:46 GMT-0500 (Central Daylight Time),355312.2000000477,A,wind,I,d,185,3,1115.4000000357628,354196.8000000119,8014,WL,B,7.0
3,13.030999898910522,learn,46969.00010108948,Wed Sep 10 2025 15:38:46 GMT-0500 (Central Daylight Time),355530.60000002384,A,windo,I,o,210,3,1333.800000011921,354196.8000000119,8014,WL,B,7.0
3,13.513000011444092,learn,46486.99998855591,Wed Sep 10 2025 15:38:46 GMT-0500 (Central Daylight Time),356012.10000002384,A,window,I,w,465,3,1815.300000011921,354196.8000000119,8014,WL,B,7.0
3,13.811999797821045,learn,46188.000202178955,Wed Sep 10 2025 15:38:46 GMT-0500 (Central Daylight Time),356311.3000000119,A,windowenter,I,enter,278,3,2114.5,354196.8000000119,8014,WL,B,7.0
3,14.311999797821045,learn,45688.000202178955,Wed Sep 10 2025 15:38:46 GMT-0500 (Central Daylight Time),356812.40000003576,A,c,I,c,496,3,500.80000001192093,356311.60000002384,8014,WL,B,8.0
3,14.510999917984009,learn,45489.00008201599,Wed Sep 10 2025 15:38:46 GMT-0500 (Central Daylight Time),357011.3000000119,A,ci,I,i,192,3,699.6999999880791,356311.60000002384,8014,WL,B,8.0
3,14.793999910354614,learn,45206.000089645386,Wed Sep 10 2025 15:38:46 GMT-0500 (Central Daylight Time),357294.5,A,cit,I,t,267,3,982.8999999761581,356311.60000002384,8014,WL,B,8.0
3,15.010999917984009,learn,44989.00008201599,Wed Sep 10 2025 15:38:46 GMT-0500 (Central Daylight Time),357511.2000000477,A,city,I,y,198,3,1199.6000000238419,356311.60000002384,8014,WL,B,8.0
3,15.593999862670898,learn,44406.0001373291,Wed Sep 10 2025 15:38:46 GMT-0500 (Central Daylight Time),358094.3000000119,A,cityenter,I,enter,562,3,1782.699999988079,356311.60000002384,8014,WL,B,8.0
3,15.97599983215332,learn,44024.00016784668,Wed Sep 10 2025 15:38:46 GMT-0500 (Central Daylight Time),358476.90000003576,A,p,I,p,365,3,382.30000001192093,358094.60000002384,8014,WL,B,9.0
3,16.26099991798401,learn,43739.00008201599,Wed Sep 10 2025 15:38:46 GMT-0500 (Central Daylight Time),358761.3000000119,A,pi,I,i,267,3,666.6999999880791,358094.60000002384,8014,WL,B,9.0
3,16.51099991798401,learn,43489.00008201599,Wed Sep 10 2025 15:38:46 GMT-0500 (Central Daylight Time),359011.40000003576,A,pip,I,p,235,3,916.8000000119209,358094.60000002384,8014,WL,B,9.0
3,16.774999856948853,learn,43225.00014305115,Wed Sep 10 2025 15:38:46 GMT-0500 (Central Daylight Time),359275.7000000477,A,pipi,I,i,256,3,1181.1000000238419,358094.60000002384,8014,WL,B,9.0
3,16.97599983215332,learn,43024.00016784668,Wed Sep 10 2025 15:38:46 GMT-0500 (Central Daylight Time),359477.10000002384,A,pipil,I,l,195,3,1382.5,358094.60000002384,8014,WL,B,9.0
3,17.575999975204468,learn,42424.00002479553,Wed Sep 10 2025 15:38:46 GMT-0500 (Central Daylight Time),360076.8000000119,A,pipilenter,I,enter,581,3,1982.199999988079,358094.60000002384,8014,WL,B,9.0
3,18.810999870300293,learn,41189.00012969971,Wed Sep 10 2025 15:38:46 GMT-0500 (Central Daylight Time),361311.40000003576,A,s,I,s,1224,3,1234.199999988079,360077.2000000477,8014,WL,B,10.0
3,18.97699999809265,learn,41023.00000190735,Wed Sep 10 2025 15:38:46 GMT-0500 (Central Daylight Time),361477.2000000477,A,st,I,t,149,3,1400.0,360077.2000000477,8014,WL,B,10.0
3,19.143999814987183,learn,40856.00018501282,Wed Sep 10 2025 15:38:46 GMT-0500 (Central Daylight Time),361644.40000003576,A,str,I,r,149,3,1567.199999988079,360077.2000000477,8014,WL,B,10.0
3,19.375999927520752,learn,40624.00007247925,Wed Sep 10 2025 15:38:46 GMT-0500 (Central Daylight Time),361877.2000000477,A,stre,I,e,209,3,1800.0,360077.2000000477,8014,WL,B,10.0
3,19.51099991798401,learn,40489.00008201599,Wed Sep 10 2025 15:38:46 GMT-0500 (Central Daylight Time),362011.90000003576,A,stree,I,e,128,3,1934.699999988079,360077.2000000477,8014,WL,B,10.0
3,19.694000005722046,learn,40305.999994277954,Wed Sep 10 2025 15:38:46 GMT-0500 (Central Daylight Time),362195.0,A,street,I,t,177,3,2117.7999999523163,360077.2000000477,8014,WL,B,10.0
3,20.311999797821045,learn,39688.000202178955,Wed Sep 10 2025 15:38:46 GMT-0500 (Central Daylight Time),362812.3000000119,A,streetenter,I,enter,609,3,2735.099999964237,360077.2000000477,8014,WL,B,10.0
3,21.174999952316284,learn,38825.000047683716,Wed Sep 10 2025 15:38:46 GMT-0500 (Central Daylight Time),363675.8000000119,A,g,I,g,850,3,862.8000000119209,362813.0,8014,WL,B,11.0
3,21.324999809265137,learn,38675.00019073486,Wed Sep 10 2025 15:38:46 GMT-0500 (Central Daylight Time),363825.7000000477,A,gr,I,r,135,3,1012.7000000476837,362813.0,8014,WL,B,11.0
3,21.64299988746643,learn,38357.00011253357,Wed Sep 10 2025 15:38:46 GMT-0500 (Central Daylight Time),364143.40000003576,A,gra,I,a,307,3,1330.4000000357628,362813.0,8014,WL,B,11.0
3,22.126999855041504,learn,37873.000144958496,Wed Sep 10 2025 15:38:46 GMT-0500 (Central Daylight Time),364628.10000002384,A,gras,I,s,460,3,1815.1000000238419,362813.0,8014,WL,B,11.0
3,22.274999856948853,learn,37725.00014305115,Wed Sep 10 2025 15:38:46 GMT-0500 (Central Daylight Time),364775.10000002384,A,grass,I,s,135,3,1962.1000000238419,362813.0,8014,WL,B,11.0
3,22.491999864578247,learn,37508.00013542175,Wed Sep 10 2025 15:38:46 GMT-0500 (Central Daylight Time),364992.60000002384,A,grassenter,I,enter,193,3,2179.600000023842,362813.0,8014,WL,B,11.0
3,22.758999824523926,learn,37241.000175476074,Wed Sep 10 2025 15:38:46 GMT-0500 (Central Daylight Time),365259.90000003576,A,d,I,d,263,3,267.10000002384186,364992.8000000119,8014,WL,B,12.0
3,23.074999809265137,learn,36925.00019073486,Wed Sep 10 2025 15:38:46 GMT-0500 (Central Daylight Time),365575.5,A,do,I,o,295,3,582.6999999880791,364992.8000000119,8014,WL,B,12.0
3,23.20799994468689,learn,36792.00005531311,Wed Sep 10 2025 15:38:46 GMT-0500 (Central Daylight Time),365709.10000002384,A,doo,I,o,124,3,716.3000000119209,364992.8000000119,8014,WL,B,12.0
3,23.441999912261963,learn,36558.00008773804,Wed Sep 10 2025 15:38:46 GMT-0500 (Central Daylight Time),365942.60000002384,A,door,I,r,222,3,949.8000000119209,364992.8000000119,8014,WL,B,12.0
3,23.757999897003174,learn,36242.000102996826,Wed Sep 10 2025 15:38:46 GMT-0500 (Central Daylight Time),366258.7000000477,A,doorenter,I,enter,310,3,1265.9000000357628,364992.8000000119,8014,WL,B,12.0
3,24.04099988937378,learn,35959.00011062622,Wed Sep 10 2025 15:38:46 GMT-0500 (Central Daylight Time),366541.60000002384,A,a,I,a,274,3,282.5,366259.10000002384,8014,WL,B,13.0
3,24.406999826431274,learn,35593.000173568726,Wed Sep 10 2025 15:38:46 GMT-0500 (Central Daylight Time),366908.10000002384,A,ar,I,r,359,3,649.0,366259.10000002384,8014,WL,B,13.0
3,24.990999937057495,learn,35009.000062942505,Wed Sep 10 2025 15:38:46 GMT-0500 (Central Daylight Time),367491.5,A,arm,I,m,565,3,1232.3999999761581,366259.10000002384,8014,WL,B,13.0
3,25.722999811172485,learn,34277.000188827515,Wed Sep 10 2025 15:38:46 GMT-0500 (Central Daylight Time),368223.2000000477,A,armenter,I,enter,718,3,1964.1000000238419,366259.10000002384,8014,WL,B,13.0
3,26.889999866485596,learn,33110.000133514404,Wed Sep 10 2025 15:38:46 GMT-0500 (Central Daylight Time),369391.0,A,p,I,p,1160,3,1167.5999999642372,368223.40000003576,8014,WL,B,14.0
3,27.138999938964844,learn,32861.000061035156,Wed Sep 10 2025 15:38:46 GMT-0500 (Central Daylight Time),369639.3000000119,A,pu,I,u,236,3,1415.8999999761581,368223.40000003576,8014,WL,B,14.0
3,27.472999811172485,learn,32527.000188827515,Wed Sep 10 2025 15:38:46 GMT-0500 (Central Daylight Time),369973.8000000119,A,pup,I,p,327,3,1750.3999999761581,368223.40000003576,8014,WL,B,14.0
3,27.805999994277954,learn,32194.000005722046,Wed Sep 10 2025 15:38:46 GMT-0500 (Central Daylight Time),370306.8000000119,A,pupi,I,i,319,3,2083.399999976158,368223.40000003576,8014,WL,B,14.0
3,28.073999881744385,learn,31926.000118255615,Wed Sep 10 2025 15:38:46 GMT-0500 (Central Daylight Time),370574.8000000119,A,pupil,I,l,258,3,2351.399999976158,368223.40000003576,8014,WL,B,14.0
3,28.622999906539917,learn,31377.000093460083,Wed Sep 10 2025 15:38:46 GMT-0500 (Central Daylight Time),371123.5,A,pupilenter,I,enter,534,3,2900.099999964237,368223.40000003576,8014,WL,B,14.0
3,31.503999948501587,learn,28496.000051498413,Wed Sep 10 2025 15:38:46 GMT-0500 (Central Daylight Time),374004.5,A,f,I,f,2873,3,2880.599999964237,371123.90000003576,8014,WL,B,15.0
3,31.65399980545044,learn,28346.00019454956,Wed Sep 10 2025 15:38:46 GMT-0500 (Central Daylight Time),374155.0,A,fi,I,i,131,3,3031.099999964237,371123.90000003576,8014,WL,B,15.0
3,31.83799982070923,learn,28162.00017929077,Wed Sep 10 2025 15:38:46 GMT-0500 (Central Daylight Time),374338.40000003576,A,fir,I,r,169,3,3214.5,371123.90000003576,8014,WL,B,15.0
3,32.05399990081787,learn,27946.00009918213,Wed Sep 10 2025 15:38:46 GMT-0500 (Central Daylight Time),374554.2000000477,A,fire,I,e,203,3,3430.300000011921,371123.90000003576,8014,WL,B,15.0
3,32.45599985122681,learn,27544.000148773193,Wed Sep 10 2025 15:38:46 GMT-0500 (Central Daylight Time),374956.40000003576,A,fireenter,I,enter,388,3,3832.5,371123.90000003576,8014,WL,B,15.0
4,0.3659999370574951,learn,59634.000062942505,Wed Sep 10 2025 15:38:46 GMT-0500 (Central Daylight Time),440801.2000000477,A,s,I,s,344,3,365.2000000476837,440436.0,8014,WL,B,1.0
4,0.6659998893737793,learn,59334.00011062622,Wed Sep 10 2025 15:38:46 GMT-0500 (Central Daylight Time),441101.60000002384,A,sk,I,k,282,3,665.6000000238419,440436.0,8014,WL,B,1.0
4,0.8319997787475586,learn,59168.00022125244,Wed Sep 10 2025 15:38:46 GMT-0500 (Central Daylight Time),441267.90000003576,A,ski,I,i,150,3,831.9000000357628,440436.0,8014,WL,B,1.0
4,1.0979998111724854,learn,58902.000188827515,Wed Sep 10 2025 15:38:46 GMT-0500 (Central Daylight Time),441534.0,A,skin,I,n,254,3,1098.0,440436.0,8014,WL,B,1.0
4,1.7819998264312744,learn,58218.000173568726,Wed Sep 10 2025 15:38:46 GMT-0500 (Central Daylight Time),442217.40000003576,A,skinenter,I,enter,659,3,1781.4000000357628,440436.0,8014,WL,B,1.0
4,2.2829999923706055,learn,57717.000007629395,Wed Sep 10 2025 15:38:46 GMT-0500 (Central Daylight Time),442718.2000000477,A,c,I,c,485,3,500.5,442217.7000000477,8014,WL,B,2.0
4,2.4819998741149902,learn,57518.00012588501,Wed Sep 10 2025 15:38:46 GMT-0500 (Central Daylight Time),442917.8000000119,A,co,I,o,191,3,700.0999999642372,442217.7000000477,8014,WL,B,2.0
4,2.6659998893737793,learn,57334.00011062622,Wed Sep 10 2025 15:38:46 GMT-0500 (Central Daylight Time),443102.0,A,col,I,l,165,3,884.2999999523163,442217.7000000477,8014,WL,B,2.0
4,2.8479998111724854,learn,57152.000188827515,Wed Sep 10 2025 15:38:46 GMT-0500 (Central Daylight Time),443283.40000003576,A,colo,I,o,165,3,1065.699999988079,442217.7000000477,8014,WL,B,2.0
4,3.0149998664855957,learn,56985.000133514404,Wed Sep 10 2025 15:38:46 GMT-0500 (Central Daylight Time),443451.0,A,coloc,I,c,140,3,1233.2999999523163,442217.7000000477,8014,WL,B,2.0
4,3.180999994277954,learn,56819.000005722046,Wed Sep 10 2025 15:38:46 GMT-0500 (Central Daylight Time),443617.10000002384,A,colock,I,k,143,3,1399.3999999761581,442217.7000000477,8014,WL,B,2.0
4,3.7309999465942383,learn,56269.00005340576,Wed Sep 10 2025 15:38:46 GMT-0500 (Central Daylight Time),444166.7000000477,A,colockenter,I,enter,534,3,1949.0,442217.7000000477,8014,WL,B,2.0
4,4.014999866485596,learn,55985.000133514404,Wed Sep 10 2025 15:38:46 GMT-0500 (Central Daylight Time),444451.0,A,s,I,s,270,3,284.0,444167.0,8014,WL,B,3.0
4,4.346999883651733,learn,55653.00011634827,Wed Sep 10 2025 15:38:46 GMT-0500 (Central Daylight Time),444782.90000003576,A,st,I,t,319,3,615.9000000357628,444167.0,8014,WL,B,3.0
4,4.513999938964844,learn,55486.000061035156,Wed Sep 10 2025 15:38:46 GMT-0500 (Central Daylight Time),444949.5,A,sta,I,a,153,3,782.5,444167.0,8014,WL,B,3.0
4,4.613999843597412,learn,55386.00015640259,Wed Sep 10 2025 15:38:46 GMT-0500 (Central Daylight Time),445049.7000000477,A,star,I,r,85,3,882.7000000476837,444167.0,8014,WL,B,3.0
4,5.395999908447266,learn,54604.000091552734,Wed Sep 10 2025 15:38:46 GMT-0500 (Central Daylight Time),445831.7000000477,A,starenter,I,enter,768,3,1664.7000000476837,444167.0,8014,WL,B,3.0
4,5.763999938964844,learn,54236.000061035156,Wed Sep 10 2025 15:38:46 GMT-0500 (Central Daylight Time),446199.10000002384,A,f,I,f,349,3,367.10000002384186,445832.0,8014,WL,B,4.0
4,6.046999931335449,learn,53953.00006866455,Wed Sep 10 2025 15:38:46 GMT-0500 (Central Daylight Time),446482.90000003576,A,fi,I,i,280,3,650.9000000357628,445832.0,8014,WL,B,4.0
4,6.2149999141693115,learn,53785.00008583069,Wed Sep 10 2025 15:38:46 GMT-0500 (Central Daylight Time),446650.3000000119,A,fir,I,r,160,3,818.3000000119209,445832.0,8014,WL,B,4.0
4,6.414999961853027,learn,53585.00003814697,Wed Sep 10 2025 15:38:46 GMT-0500 (Central Daylight Time),446850.7000000477,A,fire,I,e,192,3,1018.7000000476837,445832.0,8014,WL,B,4.0
4,6.729999780654907,learn,53270.00021934509,Wed Sep 10 2025 15:38:46 GMT-0500 (Central Daylight Time),447165.90000003576,A,fireenter,I,enter,294,3,1333.9000000357628,445832.0,8014,WL,B,4.0
4,7.080999851226807,learn,52919.00014877319,Wed Sep 10 2025 15:38:46 GMT-0500 (Central Daylight Time),447516.7000000477,A,l,I,l,343,3,350.60000002384186,447166.10000002384,8014,WL,B,5.0
4,7.246999979019165,learn,52753.000020980835,Wed Sep 10 2025 15:38:46 GMT-0500 (Central Daylight Time),447682.7000000477,A,la,I,a,157,3,516.6000000238419,447166.10000002384,8014,WL,B,5.0
4,7.431999921798706,learn,52568.000078201294,Wed Sep 10 2025 15:38:46 GMT-0500 (Central Daylight Time),447867.3000000119,A,lak,I,k,164,3,701.1999999880791,447166.10000002384,8014,WL,B,5.0
4,7.645999908447266,learn,52354.000091552734,Wed Sep 10 2025 15:38:46 GMT-0500 (Central Daylight Time),448082.0,A,lake,I,e,200,3,915.8999999761581,447166.10000002384,8014,WL,B,5.0
4,7.980999946594238,learn,52019.00005340576,Wed Sep 10 2025 15:38:46 GMT-0500 (Central Daylight Time),448416.40000003576,A,lakeenter,I,enter,313,3,1250.300000011921,447166.10000002384,8014,WL,B,5.0
4,8.330999851226807,learn,51669.00014877319,Wed Sep 10 2025 15:38:46 GMT-0500 (Central Daylight Time),448766.90000003576,A,c,I,c,333,3,350.30000001192093,448416.60000002384,8014,WL,B,6.0
4,8.61299991607666,learn,51387.00008392334,Wed Sep 10 2025 15:38:46 GMT-0500 (Central Daylight Time),449049.0,A,ca,I,a,268,3,632.3999999761581,448416.60000002384,8014,WL,B,6.0
4,8.813999891281128,learn,51186.00010871887,Wed Sep 10 2025 15:38:46 GMT-0500 (Central Daylight Time),449249.3000000119,A,cab,I,b,178,3,832.6999999880791,448416.60000002384,8014,WL,B,6.0
4,9.013999938964844,learn,50986.000061035156,Wed Sep 10 2025 15:38:46 GMT-0500 (Central Daylight Time),449449.10000002384,A,cabi,I,i,183,3,1032.5,448416.60000002384,8014,WL,B,6.0
4,9.263000011444092,learn,50736.99998855591,Wed Sep 10 2025 15:38:46 GMT-0500 (Central Daylight Time),449698.7000000477,A,cabin,I,n,240,3,1282.1000000238419,448416.60000002384,8014,WL,B,6.0
4,9.878999948501587,learn,50121.00005149841,Wed Sep 10 2025 15:38:46 GMT-0500 (Central Daylight Time),450314.90000003576,A,cabinenter,I,enter,599,3,1898.300000011921,448416.60000002384,8014,WL,B,6.0
4,10.395999908447266,learn,49604.000091552734,Wed Sep 10 2025 15:38:46 GMT-0500 (Central Daylight Time),450831.2000000477,A,w,I,w,506,3,516.0,450315.2000000477,8014,WL,B,7.0
4,10.645999908447266,learn,49354.000091552734,Wed Sep 10 2025 15:38:46 GMT-0500 (Central Daylight Time),451081.40000003576,A,wi,I,i,228,3,766.1999999880791,450315.2000000477,8014,WL,B,7.0
4,10.828999996185303,learn,49171.0000038147,Wed Sep 10 2025 15:38:46 GMT-0500 (Central Daylight Time),451264.5,A,win,I,n,163,3,949.2999999523163,450315.2000000477,8014,WL,B,7.0
4,11.194999933242798,learn,48805.0000667572,Wed Sep 10 2025 15:38:46 GMT-0500 (Central Daylight Time),451630.90000003576,A,wind,I,d,344,3,1315.699999988079,450315.2000000477,8014,WL,B,7.0
4,11.446999788284302,learn,48553.0002117157,Wed Sep 10 2025 15:38:46 GMT-0500 (Central Daylight Time),451882.40000003576,A,windo,I,o,236,3,1567.199999988079,450315.2000000477,8014,WL,B,7.0
4,11.678999900817871,learn,48321.00009918213,Wed Sep 10 2025 15:38:46 GMT-0500 (Central Daylight Time),452115.10000002384,A,window,I,w,224,3,1799.8999999761581,450315.2000000477,8014,WL,B,7.0
4,13.42799997329712,learn,46572.00002670288,Wed Sep 10 2025 15:38:46 GMT-0500 (Central Daylight Time),453863.7000000477,A,windowenter,I,enter,1728,3,3548.5,450315.2000000477,8014,WL,B,7.0
4,14.82699990272522,learn,45173.00009727478,Wed Sep 10 2025 15:38:46 GMT-0500 (Central Daylight Time),455262.8000000119,A,w,I,w,1389,3,1398.8999999761581,453863.90000003576,8014,WL,B,8.0
4,14.977999925613403,learn,45022.0000743866,Wed Sep 10 2025 15:38:46 GMT-0500 (Central Daylight Time),455413.10000002384,A,wi,I,i,131,3,1549.199999988079,453863.90000003576,8014,WL,B,8.0
4,15.194000005722046,learn,44805.999994277954,Wed Sep 10 2025 15:38:46 GMT-0500 (Central Daylight Time),455629.3000000119,A,wif,I,f,201,3,1765.3999999761581,453863.90000003576,8014,WL,B,8.0
4,15.426999807357788,learn,44573.00019264221,Wed Sep 10 2025 15:38:46 GMT-0500 (Central Daylight Time),455862.5,A,wife,I,e,214,3,1998.5999999642372,453863.90000003576,8014,WL,B,8.0
4,15.660999774932861,learn,44339.00022506714,Wed Sep 10 2025 15:38:46 GMT-0500 (Central Daylight Time),456096.5,A,wifeenter,I,enter,208,3,2232.599999964237,453863.90000003576,8014,WL,B,8.0
4,15.926999807357788,learn,44073.00019264221,Wed Sep 10 2025 15:38:46 GMT-0500 (Central Daylight Time),456362.60000002384,A,a,I,a,261,3,265.89999997615814,456096.7000000477,8014,WL,B,9.0
4,16.259999990463257,learn,43740.00000953674,Wed Sep 10 2025 15:38:46 GMT-0500 (Central Daylight Time),456695.8000000119,A,ar,I,r,320,3,599.0999999642372,456096.7000000477,8014,WL,B,9.0
4,16.47599983215332,learn,43524.00016784668,Wed Sep 10 2025 15:38:46 GMT-0500 (Central Daylight Time),456911.40000003576,A,arm,I,m,200,3,814.6999999880791,456096.7000000477,8014,WL,B,9.0
4,17.01099991798401,learn,42989.00008201599,Wed Sep 10 2025 15:38:46 GMT-0500 (Central Daylight Time),457446.3000000119,A,armenter,I,enter,527,3,1349.5999999642372,456096.7000000477,8014,WL,B,9.0
4,17.875999927520752,learn,42124.00007247925,Wed Sep 10 2025 15:38:46 GMT-0500 (Central Daylight Time),458311.90000003576,A,g,I,g,855,3,865.3000000119209,457446.60000002384,8014,WL,B,10.0
4,18.09499979019165,learn,41905.00020980835,Wed Sep 10 2025 15:38:46 GMT-0500 (Central Daylight Time),458530.10000002384,A,gr,I,r,208,3,1083.5,457446.60000002384,8014,WL,B,10.0
4,18.459999799728394,learn,41540.00020027161,Wed Sep 10 2025 15:38:46 GMT-0500 (Central Daylight Time),458895.10000002384,A,gra,I,a,347,3,1448.5,457446.60000002384,8014,WL,B,10.0
4,18.694000005722046,learn,41305.999994277954,Wed Sep 10 2025 15:38:46 GMT-0500 (Central Daylight Time),459129.3000000119,A,gras,I,s,219,3,1682.699999988079,457446.60000002384,8014,WL,B,10.0
4,18.842999935150146,learn,41157.00006484985,Wed Sep 10 2025 15:38:46 GMT-0500 (Central Daylight Time),459278.7000000477,A,grass,I,s,136,3,1832.1000000238419,457446.60000002384,8014,WL,B,10.0
4,19.075999975204468,learn,40924.00002479553,Wed Sep 10 2025 15:38:46 GMT-0500 (Central Daylight Time),459511.2000000477,A,grassenter,I,enter,215,3,2064.600000023842,457446.60000002384,8014,WL,B,10.0
4,20.04199981689453,learn,39958.00018310547,Wed Sep 10 2025 15:38:46 GMT-0500 (Central Daylight Time),460478.10000002384,A,s,I,s,952,3,966.8000000119209,459511.3000000119,8014,WL,B,11.0
4,20.242999792099,learn,39757.000207901,Wed Sep 10 2025 15:38:46 GMT-0500 (Central Daylight Time),460678.7000000477,A,st,I,t,180,3,1167.4000000357628,459511.3000000119,8014,WL,B,11.0
4,20.426999807357788,learn,39573.00019264221,Wed Sep 10 2025 15:38:46 GMT-0500 (Central Daylight Time),460862.10000002384,A,ste,I,e,161,3,1350.800000011921,459511.3000000119,8014,WL,B,11.0
4,21.491999864578247,learn,38508.00013542175,Wed Sep 10 2025 15:38:46 GMT-0500 (Central Daylight Time),461927.90000003576,A,st,I,backspace,1052,3,2416.600000023842,459511.3000000119,8014,WL,B,11.0
4,21.97499990463257,learn,38025.00009536743,Wed Sep 10 2025 15:38:46 GMT-0500 (Central Daylight Time),462410.60000002384,A,str,I,r,470,3,2899.300000011921,459511.3000000119,8014,WL,B,11.0
4,22.22499990463257,learn,37775.00009536743,Wed Sep 10 2025 15:38:46 GMT-0500 (Central Daylight Time),462660.60000002384,A,stre,I,e,232,3,3149.300000011921,459511.3000000119,8014,WL,B,11.0
4,22.375999927520752,learn,37624.00007247925,Wed Sep 10 2025 15:38:46 GMT-0500 (Central Daylight Time),462811.8000000119,A,stree,I,e,140,3,3300.5,459511.3000000119,8014,WL,B,11.0
4,22.657999992370605,learn,37342.000007629395,Wed Sep 10 2025 15:38:46 GMT-0500 (Central Daylight Time),463093.90000003576,A,street,I,t,270,3,3582.600000023842,459511.3000000119,8014,WL,B,11.0
4,22.95799994468689,learn,37042.00005531311,Wed Sep 10 2025 15:38:46 GMT-0500 (Central Daylight Time),463393.8000000119,A,streetenter,I,enter,285,3,3882.5,459511.3000000119,8014,WL,B,11.0
4,23.390999794006348,learn,36609.00020599365,Wed Sep 10 2025 15:38:46 GMT-0500 (Central Daylight Time),463826.90000003576,A,c,I,c,420,3,432.9000000357628,463394.0,8014,WL,B,12.0
4,23.691999912261963,learn,36308.00008773804,Wed Sep 10 2025 15:38:46 GMT-0500 (Central Daylight Time),464127.40000003576,A,ci,I,i,281,3,733.4000000357628,463394.0,8014,WL,B,12.0
4,23.890999794006348,learn,36109.00020599365,Wed Sep 10 2025 15:38:46 GMT-0500 (Central Daylight Time),464326.7000000477,A,cit,I,t,189,3,932.7000000476837,463394.0,8014,WL,B,12.0
4,24.090999841690063,learn,35909.00015830994,Wed Sep 10 2025 15:38:46 GMT-0500 (Central Daylight Time),464526.7000000477,A,city,I,y,183,3,1132.7000000476837,463394.0,8014,WL,B,12.0
4,24.740999937057495,learn,35259.000062942505,Wed Sep 10 2025 15:38:46 GMT-0500 (Central Daylight Time),465176.60000002384,A,cityenter,I,enter,639,3,1782.6000000238419,463394.0,8014,WL,B,12.0
4,25.173999786376953,learn,34826.00021362305,Wed Sep 10 2025 15:38:46 GMT-0500 (Central Daylight Time),465610.0,A,p,I,p,414,3,433.0999999642372,465176.90000003576,8014,WL,B,13.0
4,25.45699977874756,learn,34543.00022125244,Wed Sep 10 2025 15:38:46 GMT-0500 (Central Daylight Time),465892.5,A,pu,I,u,271,3,715.5999999642372,465176.90000003576,8014,WL,B,13.0
4,25.95799994468689,learn,34042.00005531311,Wed Sep 10 2025 15:38:46 GMT-0500 (Central Daylight Time),466393.8000000119,A,pup,I,p,479,3,1216.8999999761581,465176.90000003576,8014,WL,B,13.0
4,26.20699977874756,learn,33793.00022125244,Wed Sep 10 2025 15:38:46 GMT-0500 (Central Daylight Time),466643.10000002384,A,pupi,I,i,235,3,1466.199999988079,465176.90000003576,8014,WL,B,13.0
4,26.45899987220764,learn,33541.00012779236,Wed Sep 10 2025 15:38:46 GMT-0500 (Central Daylight Time),466894.3000000119,A,pupil,I,l,232,3,1717.3999999761581,465176.90000003576,8014,WL,B,13.0
4,27.29199981689453,learn,32708.00018310547,Wed Sep 10 2025 15:38:46 GMT-0500 (Central Daylight Time),467727.7000000477,A,pupilenter,I,enter,821,3,2550.800000011921,465176.90000003576,8014,WL,B,13.0
4,30.122999906539917,learn,29877.000093460083,Wed Sep 10 2025 15:38:46 GMT-0500 (Central Daylight Time),470559.10000002384,A,d,I,d,2813,3,2831.100000023842,467728.0,8014,WL,B,14.0
4,30.27300000190735,learn,29726.99999809265,Wed Sep 10 2025 15:38:46 GMT-0500 (Central Daylight Time),470709.0,A,do,I,o,142,3,2981.0,467728.0,8014,WL,B,14.0
4,30.423999786376953,learn,29576.000213623047,Wed Sep 10 2025 15:38:46 GMT-0500 (Central Daylight Time),470859.7000000477,A,doo,I,o,143,3,3131.7000000476837,467728.0,8014,WL,B,14.0
4,30.638999938964844,learn,29361.000061035156,Wed Sep 10 2025 15:38:46 GMT-0500 (Central Daylight Time),471074.90000003576,A,door,I,r,199,3,3346.900000035763,467728.0,8014,WL,B,14.0
4,31.20699977874756,learn,28793.00022125244,Wed Sep 10 2025 15:38:46 GMT-0500 (Central Daylight Time),471643.0,A,doorenter,I,enter,561,3,3915.0,467728.0,8014,WL,B,14.0
4,33.48899984359741,learn,26511.000156402588,Wed Sep 10 2025 15:38:46 GMT-0500 (Central Daylight Time),473924.40000003576,A,c,I,c,2275,3,2281.199999988079,471643.2000000477,8014,WL,B,15.0
4,33.68899989128113,learn,26311.000108718872,Wed Sep 10 2025 15:38:46 GMT-0500 (Central Daylight Time),474124.40000003576,A,cl,I,l,183,3,2481.199999988079,471643.2000000477,8014,WL,B,15.0
4,33.85499978065491,learn,26145.000219345093,Wed Sep 10 2025 15:38:46 GMT-0500 (Central Daylight Time),474290.10000002384,A,clo,I,o,151,3,2646.899999976158,471643.2000000477,8014,WL,B,15.0
4,34.038999795913696,learn,25961.000204086304,Wed Sep 10 2025 15:38:46 GMT-0500 (Central Daylight Time),474474.40000003576,A,cloc,I,c,170,3,2831.199999988079,471643.2000000477,8014,WL,B,15.0
4,34.23799991607666,learn,25762.00008392334,Wed Sep 10 2025 15:38:46 GMT-0500 (Central Daylight Time),474673.8000000119,A,clock,I,k,178,3,3030.599999964237,471643.2000000477,8014,WL,B,15.0
4,34.85499978065491,learn,25145.000219345093,Wed Sep 10 2025 15:38:46 GMT-0500 (Central Daylight Time),475290.60000002384,A,clockenter,I,enter,600,3,3647.399999976158,471643.2000000477,8014,WL,B,15.0
5,0.75,learn,60000.0,Wed Sep 10 2025 15:38:46 GMT-0500 (Central Daylight Time),541854.1000000238,A,p,I,p,728,3,749.1999999880791,541104.9000000358,8014,WL,B,1.0
5,0.9659998416900635,learn,60000.0,Wed Sep 10 2025 15:38:46 GMT-0500 (Central Daylight Time),542070.1000000238,A,pi,I,i,207,3,965.1999999880791,541104.9000000358,8014,WL,B,1.0
5,1.2309999465942383,learn,60000.0,Wed Sep 10 2025 15:38:46 GMT-0500 (Central Daylight Time),542335.8000000119,A,pip,I,p,254,3,1230.8999999761581,541104.9000000358,8014,WL,B,1.0
5,1.4659998416900635,learn,60000.0,Wed Sep 10 2025 15:38:46 GMT-0500 (Central Daylight Time),542571.0,A,pipe,I,e,220,3,1466.0999999642372,541104.9000000358,8014,WL,B,1.0
5,1.8469998836517334,learn,60000.0,Wed Sep 10 2025 15:38:46 GMT-0500 (Central Daylight Time),542951.7000000477,A,pipeenter,I,enter,369,3,1846.800000011921,541104.9000000358,8014,WL,B,1.0
5,2.1480000019073486,learn,60000.0,Wed Sep 10 2025 15:38:46 GMT-0500 (Central Daylight Time),543252.0,A,s,I,s,285,3,300.0999999642372,542951.9000000358,8014,WL,B,2.0
5,2.5149998664855957,learn,60000.0,Wed Sep 10 2025 15:38:46 GMT-0500 (Central Daylight Time),543619.8000000119,A,sk,I,k,361,3,667.8999999761581,542951.9000000358,8014,WL,B,2.0
5,2.697999954223633,learn,60000.0,Wed Sep 10 2025 15:38:46 GMT-0500 (Central Daylight Time),543802.0,A,ski,I,i,167,3,850.0999999642372,542951.9000000358,8014,WL,B,2.0
5,2.9159998893737793,learn,60000.0,Wed Sep 10 2025 15:38:46 GMT-0500 (Central Daylight Time),544020.7000000477,A,skin,I,n,213,3,1068.800000011921,542951.9000000358,8014,WL,B,2.0
5,3.428999900817871,learn,60000.0,Wed Sep 10 2025 15:38:46 GMT-0500 (Central Daylight Time),544533.7000000477,A,skinenter,I,enter,501,3,1581.800000011921,542951.9000000358,8014,WL,B,2.0
5,3.8459999561309814,learn,60000.0,Wed Sep 10 2025 15:38:46 GMT-0500 (Central Daylight Time),544951.0,A,f,I,f,400,3,417.0999999642372,544533.9000000358,8014,WL,B,3.0
5,4.130999803543091,learn,60000.0,Wed Sep 10 2025 15:38:46 GMT-0500 (Central Daylight Time),545235.4000000358,A,fi,I,i,271,3,701.5,544533.9000000358,8014,WL,B,3.0
5,4.281999826431274,learn,60000.0,Wed Sep 10 2025 15:38:46 GMT-0500 (Central Daylight Time),545386.6000000238,A,fir,I,r,137,3,852.6999999880791,544533.9000000358,8014,WL,B,3.0
5,4.497999906539917,learn,60000.0,Wed Sep 10 2025 15:38:46 GMT-0500 (Central Daylight Time),545602.1000000238,A,fire,I,e,209,3,1068.199999988079,544533.9000000358,8014,WL,B,3.0
5,4.763999938964844,learn,60000.0,Wed Sep 10 2025 15:38:46 GMT-0500 (Central Daylight Time),545868.2000000477,A,fireenter,I,enter,250,3,1334.300000011921,544533.9000000358,8014,WL,B,3.0
5,5.197000026702881,learn,60000.0,Wed Sep 10 2025 15:38:46 GMT-0500 (Central Daylight Time),546301.2000000477,A,w,I,w,427,3,432.7000000476837,545868.5,8014,WL,B,4.0
5,5.44599986076355,learn,60000.0,Wed Sep 10 2025 15:38:46 GMT-0500 (Central Daylight Time),546550.7000000477,A,wi,I,i,240,3,682.2000000476837,545868.5,8014,WL,B,4.0
5,5.763999938964844,learn,60000.0,Wed Sep 10 2025 15:38:46 GMT-0500 (Central Daylight Time),546868.5,A,wif,I,f,301,3,1000.0,545868.5,8014,WL,B,4.0
5,6.0309998989105225,learn,60000.0,Wed Sep 10 2025 15:38:46 GMT-0500 (Central Daylight Time),547135.0,A,wife,I,e,251,3,1266.5,545868.5,8014,WL,B,4.0
5,6.245999813079834,learn,60000.0,Wed Sep 10 2025 15:38:46 GMT-0500 (Central Daylight Time),547350.4000000358,A,wifeenter,I,enter,206,3,1481.9000000357628,545868.5,8014,WL,B,4.0
5,6.5299999713897705,learn,60000.0,Wed Sep 10 2025 15:38:46 GMT-0500 (Central Daylight Time),547634.6000000238,A,s,I,s,272,3,283.89999997615814,547350.7000000477,8014,WL,B,5.0
5,6.812999963760376,learn,60000.0,Wed Sep 10 2025 15:38:46 GMT-0500 (Central Daylight Time),547917.3000000119,A,st,I,t,265,3,566.5999999642372,547350.7000000477,8014,WL,B,5.0
5,7.014999866485596,learn,60000.0,Wed Sep 10 2025 15:38:46 GMT-0500 (Central Daylight Time),548119.4000000358,A,str,I,r,183,3,768.6999999880791,547350.7000000477,8014,WL,B,5.0
5,7.2129998207092285,learn,60000.0,Wed Sep 10 2025 15:38:46 GMT-0500 (Central Daylight Time),548317.6000000238,A,stre,I,e,181,3,966.8999999761581,547350.7000000477,8014,WL,B,5.0
5,7.395999908447266,learn,60000.0,Wed Sep 10 2025 15:38:46 GMT-0500 (Central Daylight Time),548500.7000000477,A,stree,I,e,167,3,1150.0,547350.7000000477,8014,WL,B,5.0
5,7.496999979019165,learn,60000.0,Wed Sep 10 2025 15:38:46 GMT-0500 (Central Daylight Time),548601.2000000477,A,street,I,t,88,3,1250.5,547350.7000000477,8014,WL,B,5.0
5,8.079999923706055,learn,60000.0,Wed Sep 10 2025 15:38:46 GMT-0500 (Central Daylight Time),549184.4000000358,A,streetenter,I,enter,570,3,1833.699999988079,547350.7000000477,8014,WL,B,5.0
5,8.73199987411499,learn,60000.0,Wed Sep 10 2025 15:38:46 GMT-0500 (Central Daylight Time),549836.3000000119,A,g,I,g,630,3,651.5999999642372,549184.7000000477,8014,WL,B,6.0
5,8.878999948501587,learn,60000.0,Wed Sep 10 2025 15:38:46 GMT-0500 (Central Daylight Time),549983.5,A,gr,I,r,128,3,798.7999999523163,549184.7000000477,8014,WL,B,6.0
5,9.179999828338623,learn,60000.0,Wed Sep 10 2025 15:38:46 GMT-0500 (Central Daylight Time),550284.8000000119,A,gra,I,a,294,3,1100.0999999642372,549184.7000000477,8014,WL,B,6.0
5,9.444999933242798,learn,60000.0,Wed Sep 10 2025 15:38:46 GMT-0500 (Central Daylight Time),550549.6000000238,A,gras,I,s,256,3,1364.8999999761581,549184.7000000477,8014,WL,B,6.0
5,9.628999948501587,learn,60000.0,Wed Sep 10 2025 15:38:46 GMT-0500 (Central Daylight Time),550733.0,A,grass,I,s,160,3,1548.2999999523163,549184.7000000477,8014,WL,B,6.0
5,9.745999813079834,learn,60000.0,Wed Sep 10 2025 15:38:46 GMT-0500 (Central Daylight Time),550850.4000000358,A,grassenter,I,enter,111,3,1665.699999988079,549184.7000000477,8014,WL,B,6.0
5,9.948999881744385,learn,60000.0,Wed Sep 10 2025 15:38:46 GMT-0500 (Central Daylight Time),551053.5,A,a,I,a,186,3,202.79999995231628,550850.7000000477,8014,WL,B,7.0
5,10.245999813079834,learn,60000.0,Wed Sep 10 2025 15:38:46 GMT-0500 (Central Daylight Time),551350.9000000358,A,ar,I,r,279,3,500.19999998807907,550850.7000000477,8014,WL,B,7.0
5,10.378999948501587,learn,60000.0,Wed Sep 10 2025 15:38:46 GMT-0500 (Central Daylight Time),551483.3000000119,A,arm,I,m,128,3,632.5999999642372,550850.7000000477,8014,WL,B,7.0
5,10.944999933242798,learn,60000.0,Wed Sep 10 2025 15:38:46 GMT-0500 (Central Daylight Time),552049.3000000119,A,armenter,I,enter,546,3,1198.5999999642372,550850.7000000477,8014,WL,B,7.0
5,11.94599986076355,learn,60000.0,Wed Sep 10 2025 15:38:46 GMT-0500 (Central Daylight Time),553050.4000000358,A,w,I,w,980,3,1000.9000000357628,552049.5,8014,WL,B,8.0
5,12.060999870300293,learn,60000.0,Wed Sep 10 2025 15:38:46 GMT-0500 (Central Daylight Time),553165.7000000477,A,wi,I,i,106,3,1116.2000000476837,552049.5,8014,WL,B,8.0
5,12.260999917984009,learn,60000.0,Wed Sep 10 2025 15:38:46 GMT-0500 (Central Daylight Time),553365.8000000119,A,win,I,n,182,3,1316.300000011921,552049.5,8014,WL,B,8.0
5,12.444999933242798,learn,60000.0,Wed Sep 10 2025 15:38:46 GMT-0500 (Central Daylight Time),553549.0,A,wind,I,d,177,3,1499.5,552049.5,8014,WL,B,8.0
5,12.79699993133545,learn,60000.0,Wed Sep 10 2025 15:38:46 GMT-0500 (Central Daylight Time),553900.9000000358,A,windo,I,o,335,3,1851.4000000357628,552049.5,8014,WL,B,8.0
5,13.044999837875366,learn,60000.0,Wed Sep 10 2025 15:38:46 GMT-0500 (Central Daylight Time),554149.0,A,window,I,w,232,3,2099.5,552049.5,8014,WL,B,8.0
5,13.42799997329712,learn,60000.0,Wed Sep 10 2025 15:38:46 GMT-0500 (Central Daylight Time),554532.4000000358,A,windowenter,I,enter,377,3,2482.900000035763,552049.5,8014,WL,B,8.0
5,13.745999813079834,learn,60000.0,Wed Sep 10 2025 15:38:46 GMT-0500 (Central Daylight Time),554850.5,A,s,I,s,313,3,317.89999997615814,554532.6000000238,8014,WL,B,9.0
5,14.060999870300293,learn,60000.0,Wed Sep 10 2025 15:38:46 GMT-0500 (Central Daylight Time),555165.3000000119,A,st,I,t,306,3,632.6999999880791,554532.6000000238,8014,WL,B,9.0
5,14.49399995803833,learn,60000.0,Wed Sep 10 2025 15:38:46 GMT-0500 (Central Daylight Time),555598.7000000477,A,sta,I,a,423,3,1066.1000000238419,554532.6000000238,8014,WL,B,9.0
5,14.860999822616577,learn,60000.0,Wed Sep 10 2025 15:38:46 GMT-0500 (Central Daylight Time),555965.7000000477,A,star,I,r,342,3,1433.1000000238419,554532.6000000238,8014,WL,B,9.0
5,15.176999807357788,learn,60000.0,Wed Sep 10 2025 15:38:46 GMT-0500 (Central Daylight Time),556281.4000000358,A,starenter,I,enter,303,3,1748.800000011921,554532.6000000238,8014,WL,B,9.0
5,15.97599983215332,learn,60000.0,Wed Sep 10 2025 15:38:46 GMT-0500 (Central Daylight Time),557080.8000000119,A,g,I,g,779,3,799.0999999642372,556281.7000000477,8014,WL,B,10.0
5,16.191999912261963,learn,60000.0,Wed Sep 10 2025 15:38:46 GMT-0500 (Central Daylight Time),557296.1000000238,A,gr,I,r,197,3,1014.3999999761581,556281.7000000477,8014,WL,B,10.0
5,16.54199981689453,learn,60000.0,Wed Sep 10 2025 15:38:46 GMT-0500 (Central Daylight Time),557646.1000000238,A,gra,I,a,334,3,1364.3999999761581,556281.7000000477,8014,WL,B,10.0
5,16.79099988937378,learn,60000.0,Wed Sep 10 2025 15:38:46 GMT-0500 (Central Daylight Time),557895.7000000477,A,gras,I,s,232,3,1614.0,556281.7000000477,8014,WL,B,10.0
5,16.95899987220764,learn,60000.0,Wed Sep 10 2025 15:38:46 GMT-0500 (Central Daylight Time),558063.7000000477,A,grass,I,s,158,3,1782.0,556281.7000000477,8014,WL,B,10.0
5,17.174999952316284,learn,60000.0,Wed Sep 10 2025 15:38:46 GMT-0500 (Central Daylight Time),558279.0,A,grassenter,I,enter,198,3,1997.2999999523163,556281.7000000477,8014,WL,B,10.0
5,17.508999824523926,learn,60000.0,Wed Sep 10 2025 15:38:46 GMT-0500 (Central Daylight Time),558613.0,A,p,I,p,319,3,333.7999999523163,558279.2000000477,8014,WL,B,11.0
5,17.95799994468689,learn,60000.0,Wed Sep 10 2025 15:38:46 GMT-0500 (Central Daylight Time),559062.0,A,pu,I,u,441,3,782.7999999523163,558279.2000000477,8014,WL,B,11.0
5,18.307999849319458,learn,60000.0,Wed Sep 10 2025 15:38:46 GMT-0500 (Central Daylight Time),559412.0,A,pup,I,p,336,3,1132.7999999523163,558279.2000000477,8014,WL,B,11.0
5,18.5239999294281,learn,60000.0,Wed Sep 10 2025 15:38:46 GMT-0500 (Central Daylight Time),559628.8000000119,A,pupi,I,i,210,3,1349.5999999642372,558279.2000000477,8014,WL,B,11.0
5,18.740999937057495,learn,60000.0,Wed Sep 10 2025 15:38:46 GMT-0500 (Central Daylight Time),559845.6000000238,A,pupil,I,l,210,3,1566.3999999761581,558279.2000000477,8014,WL,B,11.0
5,19.30900001525879,learn,60000.0,Wed Sep 10 2025 15:38:46 GMT-0500 (Central Daylight Time),560413.2000000477,A,pupilenter,I,enter,553,3,2134.0,558279.2000000477,8014,WL,B,11.0
5,19.757999897003174,learn,60000.0,Wed Sep 10 2025 15:38:46 GMT-0500 (Central Daylight Time),560862.9000000358,A,c,I,c,432,3,449.5,560413.4000000358,8014,WL,B,12.0
5,19.941999912261963,learn,60000.0,Wed Sep 10 2025 15:38:46 GMT-0500 (Central Daylight Time),561046.8000000119,A,cl,I,l,172,3,633.3999999761581,560413.4000000358,8014,WL,B,12.0
5,20.125,learn,60000.0,Wed Sep 10 2025 15:38:46 GMT-0500 (Central Daylight Time),561229.2000000477,A,clo,I,o,171,3,815.8000000119209,560413.4000000358,8014,WL,B,12.0
5,20.375,learn,60000.0,Wed Sep 10 2025 15:38:46 GMT-0500 (Central Daylight Time),561479.4000000358,A,cloc,I,c,232,3,1066.0,560413.4000000358,8014,WL,B,12.0
5,20.69099998474121,learn,60000.0,Wed Sep 10 2025 15:38:46 GMT-0500 (Central Daylight Time),561795.4000000358,A,clock,I,k,300,3,1382.0,560413.4000000358,8014,WL,B,12.0
5,21.307999849319458,learn,60000.0,Wed Sep 10 2025 15:38:46 GMT-0500 (Central Daylight Time),562412.9000000358,A,clockenter,I,enter,599,3,1999.5,560413.4000000358,8014,WL,B,12.0
5,23.68999981880188,learn,60000.0,Wed Sep 10 2025 15:38:46 GMT-0500 (Central Daylight Time),564794.9000000358,A,f,I,f,2376,3,2381.800000011921,562413.1000000238,8014,WL,B,13.0
5,23.875,learn,60000.0,Wed Sep 10 2025 15:38:46 GMT-0500 (Central Daylight Time),564979.1000000238,A,fi,I,i,167,3,2566.0,562413.1000000238,8014,WL,B,13.0
5,24.10699987411499,learn,60000.0,Wed Sep 10 2025 15:38:46 GMT-0500 (Central Daylight Time),565211.5,A,fir,I,r,225,3,2798.399999976158,562413.1000000238,8014,WL,B,13.0
5,24.35699987411499,learn,60000.0,Wed Sep 10 2025 15:38:46 GMT-0500 (Central Daylight Time),565461.4000000358,A,fire,I,e,230,3,3048.300000011921,562413.1000000238,8014,WL,B,13.0
5,24.7739999294281,learn,60000.0,Wed Sep 10 2025 15:38:46 GMT-0500 (Central Daylight Time),565878.0,A,fireenter,I,enter,397,3,3464.899999976158,562413.1000000238,8014,WL,B,13.0
5,25.805999994277954,learn,60000.0,Wed Sep 10 2025 15:38:46 GMT-0500 (Central Daylight Time),566910.7000000477,A,c,I,c,1024,3,1032.5,565878.2000000477,8014,WL,B,14.0
5,25.955999851226807,learn,60000.0,Wed Sep 10 2025 15:38:46 GMT-0500 (Central Daylight Time),567060.9000000358,A,ca,I,a,143,3,1182.699999988079,565878.2000000477,8014,WL,B,14.0
5,26.10699987411499,learn,60000.0,Wed Sep 10 2025 15:38:46 GMT-0500 (Central Daylight Time),567211.9000000358,A,cab,I,b,135,3,1333.699999988079,565878.2000000477,8014,WL,B,14.0
5,26.555999994277954,learn,60000.0,Wed Sep 10 2025 15:38:46 GMT-0500 (Central Daylight Time),567660.8000000119,A,cabi,I,i,425,3,1782.5999999642372,565878.2000000477,8014,WL,B,14.0
5,26.83899998664856,learn,60000.0,Wed Sep 10 2025 15:38:46 GMT-0500 (Central Daylight Time),567943.7000000477,A,cabin,I,n,269,3,2065.5,565878.2000000477,8014,WL,B,14.0
5,27.43999981880188,learn,60000.0,Wed Sep 10 2025 15:38:46 GMT-0500 (Central Daylight Time),568544.7000000477,A,cabinenter,I,enter,580,3,2666.5,565878.2000000477,8014,WL,B,14.0
5,27.954999923706055,learn,60000.0,Wed Sep 10 2025 15:38:46 GMT-0500 (Central Daylight Time),569059.8000000119,A,l,I,l,508,3,514.8000000119209,568545.0,8014,WL,B,15.0
5,28.155999898910522,learn,60000.0,Wed Sep 10 2025 15:38:46 GMT-0500 (Central Daylight Time),569260.1000000238,A,la,I,a,186,3,715.1000000238419,568545.0,8014,WL,B,15.0
5,28.4229998588562,learn,60000.0,Wed Sep 10 2025 15:38:46 GMT-0500 (Central Daylight Time),569527.9000000358,A,lak,I,k,246,3,982.9000000357628,568545.0,8014,WL,B,15.0
5,28.638999938964844,learn,60000.0,Wed Sep 10 2025 15:38:46 GMT-0500 (Central Daylight Time),569743.1000000238,A,lake,I,e,204,3,1198.1000000238419,568545.0,8014,WL,B,15.0
5,29.155999898910522,learn,60000.0,Wed Sep 10 2025 15:38:46 GMT-0500 (Central Daylight Time),570260.6000000238,A,lakeenter,I,enter,501,3,1715.6000000238419,568545.0,8014,WL,B,15.0
6,1.0829999446868896,distr,58917.00005531311,Wed Sep 10 2025 15:38:46 GMT-0500 (Central Daylight Time),647152.8000000119,B,r,I,r,1060,3,1082.3999999761581,646070.4000000358,8014,WL,B,1.0
6,1.2320001125335693,distr,58767.99988746643,Wed Sep 10 2025 15:38:46 GMT-0500 (Central Daylight Time),647302.3000000119,B,ro,I,o,137,3,1231.8999999761581,646070.4000000358,8014,WL,B,1.0
6,1.431999921798706,distr,58568.000078201294,Wed Sep 10 2025 15:38:46 GMT-0500 (Central Daylight Time),647502.5,B,roc,I,c,190,3,1432.0999999642372,646070.4000000358,8014,WL,B,1.0
6,1.6489999294281006,distr,58351.0000705719,Wed Sep 10 2025 15:38:46 GMT-0500 (Central Daylight Time),647719.0,B,rock,I,k,192,3,1648.5999999642372,646070.4000000358,8014,WL,B,1.0
6,2.2990000247955322,distr,57700.99997520447,Wed Sep 10 2025 15:38:46 GMT-0500 (Central Daylight Time),648368.5,B,rockenter,I,enter,637,3,2298.099999964237,646070.4000000358,8014,WL,B,1.0
6,2.799999952316284,distr,57200.000047683716,Wed Sep 10 2025 15:38:46 GMT-0500 (Central Daylight Time),648869.9000000358,B,b,I,b,493,3,501.19999998807907,648368.7000000477,8014,WL,B,2.0
6,2.931999921798706,distr,57068.000078201294,Wed Sep 10 2025 15:38:46 GMT-0500 (Central Daylight Time),649001.9000000358,B,ba,I,a,115,3,633.1999999880791,648368.7000000477,8014,WL,B,2.0
6,3.0820000171661377,distr,56917.99998283386,Wed Sep 10 2025 15:38:46 GMT-0500 (Central Daylight Time),649152.1000000238,B,bab,I,b,129,3,783.3999999761581,648368.7000000477,8014,WL,B,2.0
6,3.4820001125335693,distr,56517.99988746643,Wed Sep 10 2025 15:38:46 GMT-0500 (Central Daylight Time),649551.7000000477,B,baby,I,y,379,3,1183.0,648368.7000000477,8014,WL,B,2.0
6,3.7809998989105225,distr,56219.00010108948,Wed Sep 10 2025 15:38:46 GMT-0500 (Central Daylight Time),649851.4000000358,B,babyenter,I,enter,292,3,1482.699999988079,648368.7000000477,8014,WL,B,2.0
6,4.299000024795532,distr,55700.99997520447,Wed Sep 10 2025 15:38:46 GMT-0500 (Central Daylight Time),650368.9000000358,B,b,I,b,507,3,517.1999999880791,649851.7000000477,8014,WL,B,3.0
6,4.497999906539917,distr,55502.00009346008,Wed Sep 10 2025 15:38:46 GMT-0500 (Central Daylight Time),650568.2000000477,B,bi,I,i,187,3,716.5,649851.7000000477,8014,WL,B,3.0
6,5.2149999141693115,distr,54785.00008583069,Wed Sep 10 2025 15:38:46 GMT-0500 (Central Daylight Time),651285.0,B,b,I,backspace,701,3,1433.2999999523163,649851.7000000477,8014,WL,B,3.0
6,5.5320000648498535,distr,54467.99993515015,Wed Sep 10 2025 15:38:46 GMT-0500 (Central Daylight Time),651601.7000000477,B,bu,I,u,304,3,1750.0,649851.7000000477,8014,WL,B,3.0
6,5.730000019073486,distr,54269.999980926514,Wed Sep 10 2025 15:38:46 GMT-0500 (Central Daylight Time),651800.5,B,bui,I,i,179,3,1948.7999999523163,649851.7000000477,8014,WL,B,3.0
6,5.947999954223633,distr,54052.00004577637,Wed Sep 10 2025 15:38:46 GMT-0500 (Central Daylight Time),652017.8000000119,B,buil,I,l,192,3,2166.099999964237,649851.7000000477,8014,WL,B,3.0
6,7.296999931335449,distr,52703.00006866455,Wed Sep 10 2025 15:38:46 GMT-0500 (Central Daylight Time),653367.2000000477,B,build,I,d,1330,3,3515.5,649851.7000000477,8014,WL,B,3.0
6,7.414000034332275,distr,52585.999965667725,Wed Sep 10 2025 15:38:46 GMT-0500 (Central Daylight Time),653483.6000000238,B,buildi,I,i,101,3,3631.899999976158,649851.7000000477,8014,WL,B,3.0
6,7.598999977111816,distr,52401.00002288818,Wed Sep 10 2025 15:38:46 GMT-0500 (Central Daylight Time),653668.9000000358,B,buildin,I,n,175,3,3817.199999988079,649851.7000000477,8014,WL,B,3.0
6,7.7809998989105225,distr,52219.00010108948,Wed Sep 10 2025 15:38:46 GMT-0500 (Central Daylight Time),653850.7000000477,B,building,I,g,168,3,3999.0,649851.7000000477,8014,WL,B,3.0
6,8.831000089645386,distr,51168.999910354614,Wed Sep 10 2025 15:38:46 GMT-0500 (Central Daylight Time),654900.6000000238,B,buildingenter,I,enter,1032,3,5048.899999976158,649851.7000000477,8014,WL,B,3.0
6,26.325000047683716,distr,33674.999952316284,Wed Sep 10 2025 15:38:46 GMT-0500 (Central Daylight Time),672395.5,B,enter,I,enter,17482,3,17494.599999964237,654900.9000000358,8014,WL,B,4.0
6,56.01600003242493,distr,3983.9999675750732,Wed Sep 10 2025 15:38:46 GMT-0500 (Central Daylight Time),702086.1000000238,B,enter,I,enter,29684,3,29690.19999998808,672395.9000000358,8014,WL,B,5.0
6,56.414000034332275,distr,3585.9999656677246,Wed Sep 10 2025 15:38:46 GMT-0500 (Central Daylight Time),702485.0,B,enter,I,enter,391,3,398.5,702086.5,8014,WL,B,6.0
6,56.88100004196167,distr,3118.99995803833,Wed Sep 10 2025 15:38:46 GMT-0500 (Central Daylight Time),702951.7000000477,B,enter,I,enter,456,3,466.4000000357628,702485.3000000119,8014,WL,B,7.0
6,57.23099994659424,distr,2769.0000534057617,Wed Sep 10 2025 15:38:46 GMT-0500 (Central Daylight Time),703301.3000000119,B,enter,I,enter,333,3,349.30000001192093,702952.0,8014,WL,B,8.0
6,57.664000034332275,distr,2335.9999656677246,Wed Sep 10 2025 15:38:46 GMT-0500 (Central Daylight Time),703734.0,B,enter,I,enter,424,3,432.39999997615814,703301.6000000238,8014,WL,B,9.0
6,58.013999938964844,distr,1986.0000610351562,Wed Sep 10 2025 15:38:46 GMT-0500 (Central Daylight Time),704084.1000000238,B,enter,I,enter,335,3,349.80000001192093,703734.3000000119,8014,WL,B,10.0
6,58.265000104904175,distr,1734.9998950958252,Wed Sep 10 2025 15:38:46 GMT-0500 (Central Daylight Time),704335.8000000119,B,enter,I,enter,241,3,251.39999997615814,704084.4000000358,8014,WL,B,11.0
6,58.6800000667572,distr,1319.9999332427979,Wed Sep 10 2025 15:38:46 GMT-0500 (Central Daylight Time),704750.7000000477,B,enter,I,enter,406,3,414.60000002384186,704336.1000000238,8014,WL,B,12.0
6,59.0789999961853,distr,921.0000038146973,Wed Sep 10 2025 15:38:46 GMT-0500 (Central Daylight Time),705149.3000000119,B,enter,I,enter,391,3,398.30000001192093,704751.0,8014,WL,B,13.0
6,59.312999963760376,distr,687.000036239624,Wed Sep 10 2025 15:38:46 GMT-0500 (Central Daylight Time),705383.6000000238,B,enter,I,enter,215,3,234.0,705149.6000000238,8014,WL,B,14.0
6,59.71300005912781,distr,286.9999408721924,Wed Sep 10 2025 15:38:46 GMT-0500 (Central Daylight Time),705783.3000000119,B,enter,I,enter,381,3,399.5,705383.8000000119,8014,WL,B,15.0
7,1.63100004196167,immed,58368.99995803833,Wed Sep 10 2025 15:38:46 GMT-0500 (Central Daylight Time),718129.2000000477,A,s,I,s,1609,3,1631.1000000238419,716498.1000000238,8014,WL,B,1.0
7,1.7809998989105225,immed,58219.00010108948,Wed Sep 10 2025 15:38:46 GMT-0500 (Central Daylight Time),718279.0,A,st,I,t,137,3,1780.8999999761581,716498.1000000238,8014,WL,B,1.0
7,1.9830000400543213,immed,58016.99995994568,Wed Sep 10 2025 15:38:46 GMT-0500 (Central Daylight Time),718480.6000000238,A,str,I,r,181,3,1982.5,716498.1000000238,8014,WL,B,1.0
7,2.197999954223633,immed,57802.00004577637,Wed Sep 10 2025 15:38:46 GMT-0500 (Central Daylight Time),718695.7000000477,A,stre,I,e,195,3,2197.600000023842,716498.1000000238,8014,WL,B,1.0
7,2.365000009536743,immed,57634.99999046326,Wed Sep 10 2025 15:38:46 GMT-0500 (Central Daylight Time),718863.0,A,stree,I,e,156,3,2364.899999976158,716498.1000000238,8014,WL,B,1.0
7,2.7149999141693115,immed,57285.00008583069,Wed Sep 10 2025 15:38:46 GMT-0500 (Central Daylight Time),719213.2000000477,A,street,I,t,333,3,2715.100000023842,716498.1000000238,8014,WL,B,1.0
7,3.1480000019073486,immed,56851.99999809265,Wed Sep 10 2025 15:38:46 GMT-0500 (Central Daylight Time),719646.3000000119,A,streetenter,I,enter,423,3,3148.199999988079,716498.1000000238,8014,WL,B,1.0
7,3.682999849319458,immed,56317.00015068054,Wed Sep 10 2025 15:38:46 GMT-0500 (Central Daylight Time),720180.5,A,g,I,g,529,3,534.0999999642372,719646.4000000358,8014,WL,B,2.0
7,3.9149999618530273,immed,56085.00003814697,Wed Sep 10 2025 15:38:46 GMT-0500 (Central Daylight Time),720412.7000000477,A,gr,I,r,218,3,766.3000000119209,719646.4000000358,8014,WL,B,2.0
7,4.312999963760376,immed,55687.000036239624,Wed Sep 10 2025 15:38:46 GMT-0500 (Central Daylight Time),720810.7000000477,A,gra,I,a,375,3,1164.300000011921,719646.4000000358,8014,WL,B,2.0
7,4.562999963760376,immed,55437.000036239624,Wed Sep 10 2025 15:38:46 GMT-0500 (Central Daylight Time),721060.5,A,gras,I,s,235,3,1414.0999999642372,719646.4000000358,8014,WL,B,2.0
7,4.71399998664856,immed,55286.00001335144,Wed Sep 10 2025 15:38:46 GMT-0500 (Central Daylight Time),721211.8000000119,A,grass,I,s,138,3,1565.3999999761581,719646.4000000358,8014,WL,B,2.0
7,5.197999954223633,immed,54802.00004577637,Wed Sep 10 2025 15:38:46 GMT-0500 (Central Daylight Time),721696.2000000477,A,grassenter,I,enter,465,3,2049.800000011921,719646.4000000358,8014,WL,B,2.0
7,6.3480000495910645,immed,53651.999950408936,Wed Sep 10 2025 15:38:46 GMT-0500 (Central Daylight Time),722845.5,A,d,I,d,1129,3,1149.0999999642372,721696.4000000358,8014,WL,B,3.0
7,6.5980000495910645,immed,53401.999950408936,Wed Sep 10 2025 15:38:46 GMT-0500 (Central Daylight Time),723095.5,A,do,I,o,231,3,1399.0999999642372,721696.4000000358,8014,WL,B,3.0
7,6.746000051498413,immed,53253.99994850159,Wed Sep 10 2025 15:38:46 GMT-0500 (Central Daylight Time),723244.3000000119,A,doo,I,o,142,3,1547.8999999761581,721696.4000000358,8014,WL,B,3.0
7,6.914000034332275,immed,53085.999965667725,Wed Sep 10 2025 15:38:46 GMT-0500 (Central Daylight Time),723411.6000000238,A,door,I,r,153,3,1715.199999988079,721696.4000000358,8014,WL,B,3.0
7,7.296999931335449,immed,52703.00006866455,Wed Sep 10 2025 15:38:46 GMT-0500 (Central Daylight Time),723795.3000000119,A,doorenter,I,enter,359,3,2098.899999976158,721696.4000000358,8014,WL,B,3.0
7,7.579999923706055,immed,52420.000076293945,Wed Sep 10 2025 15:38:46 GMT-0500 (Central Daylight Time),724078.1000000238,A,a,I,a,274,3,282.60000002384186,723795.5,8014,WL,B,4.0
7,7.947000026702881,immed,52052.99997329712,Wed Sep 10 2025 15:38:46 GMT-0500 (Central Daylight Time),724445.4000000358,A,ar,I,r,359,3,649.9000000357628,723795.5,8014,WL,B,4.0
7,8.246999979019165,immed,51753.000020980835,Wed Sep 10 2025 15:38:46 GMT-0500 (Central Daylight Time),724744.6000000238,A,arn,I,n,287,3,949.1000000238419,723795.5,8014,WL,B,4.0
7,8.896999835968018,immed,51103.00016403198,Wed Sep 10 2025 15:38:46 GMT-0500 (Central Daylight Time),725395.3000000119,A,ar,I,backspace,637,3,1599.800000011921,723795.5,8014,WL,B,4.0
7,9.264999866485596,immed,50735.000133514404,Wed Sep 10 2025 15:38:46 GMT-0500 (Central Daylight Time),725762.9000000358,A,arm,I,m,362,3,1967.4000000357628,723795.5,8014,WL,B,4.0
7,10.062000036239624,immed,49937.999963760376,Wed Sep 10 2025 15:38:46 GMT-0500 (Central Daylight Time),726560.2000000477,A,armenter,I,enter,777,3,2764.7000000476837,723795.5,8014,WL,B,4.0
7,10.713000059127808,immed,49286.99994087219,Wed Sep 10 2025 15:38:46 GMT-0500 (Central Daylight Time),727210.5,A,w,I,w,645,3,650.0,726560.5,8014,WL,B,5.0
7,11.079999923706055,immed,48920.000076293945,Wed Sep 10 2025 15:38:46 GMT-0500 (Central Daylight Time),727578.3000000119,A,wi,I,i,345,3,1017.8000000119209,726560.5,8014,WL,B,5.0
7,11.329999923706055,immed,48670.000076293945,Wed Sep 10 2025 15:38:46 GMT-0500 (Central Daylight Time),727827.7000000477,A,wif,I,f,240,3,1267.2000000476837,726560.5,8014,WL,B,5.0
7,11.644999980926514,immed,48355.000019073486,Wed Sep 10 2025 15:38:46 GMT-0500 (Central Daylight Time),728143.1000000238,A,wife,I,e,294,3,1582.6000000238419,726560.5,8014,WL,B,5.0
7,12.027999877929688,immed,47972.00012207031,Wed Sep 10 2025 15:38:46 GMT-0500 (Central Daylight Time),728525.9000000358,A,wifeenter,I,enter,373,3,1965.4000000357628,726560.5,8014,WL,B,5.0
7,12.36299991607666,immed,47637.00008392334,Wed Sep 10 2025 15:38:46 GMT-0500 (Central Daylight Time),728860.9000000358,A,w,I,w,327,3,334.69999998807907,728526.2000000477,8014,WL,B,6.0
7,12.82800006866455,immed,47171.99993133545,Wed Sep 10 2025 15:38:46 GMT-0500 (Central Daylight Time),729326.1000000238,A,wi,I,i,446,3,799.8999999761581,728526.2000000477,8014,WL,B,6.0
7,13.029000043869019,immed,46970.99995613098,Wed Sep 10 2025 15:38:46 GMT-0500 (Central Daylight Time),729526.5,A,win,I,n,182,3,1000.2999999523163,728526.2000000477,8014,WL,B,6.0
7,13.26199984550476,immed,46738.00015449524,Wed Sep 10 2025 15:38:46 GMT-0500 (Central Daylight Time),729759.9000000358,A,wind,I,d,222,3,1233.699999988079,728526.2000000477,8014,WL,B,6.0
7,13.529000043869019,immed,46470.99995613098,Wed Sep 10 2025 15:38:46 GMT-0500 (Central Daylight Time),730027.2000000477,A,windo,I,o,253,3,1501.0,728526.2000000477,8014,WL,B,6.0
7,13.746000051498413,immed,46253.99994850159,Wed Sep 10 2025 15:38:46 GMT-0500 (Central Daylight Time),730243.5,A,window,I,w,200,3,1717.2999999523163,728526.2000000477,8014,WL,B,6.0
7,14.395999908447266,immed,45604.000091552734,Wed Sep 10 2025 15:38:46 GMT-0500 (Central Daylight Time),730894.0,A,windowenter,I,enter,629,3,2367.7999999523163,728526.2000000477,8014,WL,B,6.0
7,14.894999980926514,immed,45105.000019073486,Wed Sep 10 2025 15:38:46 GMT-0500 (Central Daylight Time),731392.8000000119,A,p,I,p,488,3,498.5999999642372,730894.2000000477,8014,WL,B,7.0
7,15.293999910354614,immed,44706.000089645386,Wed Sep 10 2025 15:38:46 GMT-0500 (Central Daylight Time),731791.8000000119,A,pi,I,i,378,3,897.5999999642372,730894.2000000477,8014,WL,B,7.0
7,15.509999990463257,immed,44490.00000953674,Wed Sep 10 2025 15:38:46 GMT-0500 (Central Daylight Time),732008.3000000119,A,pip,I,p,193,3,1114.0999999642372,730894.2000000477,8014,WL,B,7.0
7,16.26099991798401,immed,43739.00008201599,Wed Sep 10 2025 15:38:46 GMT-0500 (Central Daylight Time),732759.2000000477,A,pipe,I,e,729,3,1865.0,730894.2000000477,8014,WL,B,7.0
7,16.52900004386902,immed,43470.99995613098,Wed Sep 10 2025 15:38:46 GMT-0500 (Central Daylight Time),733027.1000000238,A,pipeenter,I,enter,261,3,2132.899999976158,730894.2000000477,8014,WL,B,7.0
7,17.128999948501587,immed,42871.00005149841,Wed Sep 10 2025 15:38:46 GMT-0500 (Central Daylight Time),733626.7000000477,A,p,I,p,579,3,599.3000000119209,733027.4000000358,8014,WL,B,8.0
7,17.39299988746643,immed,42607.00011253357,Wed Sep 10 2025 15:38:46 GMT-0500 (Central Daylight Time),733891.1000000238,A,pu,I,u,257,3,863.6999999880791,733027.4000000358,8014,WL,B,8.0
7,17.8439998626709,immed,42156.0001373291,Wed Sep 10 2025 15:38:46 GMT-0500 (Central Daylight Time),734341.6000000238,A,pup,I,p,437,3,1314.199999988079,733027.4000000358,8014,WL,B,8.0
7,18.14400005340576,immed,41855.99994659424,Wed Sep 10 2025 15:38:46 GMT-0500 (Central Daylight Time),734642.0,A,pupi,I,i,278,3,1614.5999999642372,733027.4000000358,8014,WL,B,8.0
7,18.361000061035156,immed,41638.999938964844,Wed Sep 10 2025 15:38:46 GMT-0500 (Central Daylight Time),734858.8000000119,A,pupil,I,l,209,3,1831.3999999761581,733027.4000000358,8014,WL,B,8.0
7,19.009999990463257,immed,40990.00000953674,Wed Sep 10 2025 15:38:46 GMT-0500 (Central Daylight Time),735508.1000000238,A,pupilenter,I,enter,642,3,2480.699999988079,733027.4000000358,8014,WL,B,8.0
7,19.394999980926514,immed,40605.000019073486,Wed Sep 10 2025 15:38:46 GMT-0500 (Central Daylight Time),735892.9000000358,A,c,I,c,369,3,384.5,735508.4000000358,8014,WL,B,9.0
7,19.76099991798401,immed,40239.00008201599,Wed Sep 10 2025 15:38:46 GMT-0500 (Central Daylight Time),736258.8000000119,A,ca,I,a,344,3,750.3999999761581,735508.4000000358,8014,WL,B,9.0
7,19.99399995803833,immed,40006.00004196167,Wed Sep 10 2025 15:38:46 GMT-0500 (Central Daylight Time),736491.6000000238,A,cab,I,b,217,3,983.1999999880791,735508.4000000358,8014,WL,B,9.0
7,20.22499990463257,immed,39775.00009536743,Wed Sep 10 2025 15:38:46 GMT-0500 (Central Daylight Time),736722.6000000238,A,cabi,I,i,225,3,1214.199999988079,735508.4000000358,8014,WL,B,9.0
7,20.45899987220764,immed,39541.00012779236,Wed Sep 10 2025 15:38:46 GMT-0500 (Central Daylight Time),736957.2000000477,A,cabin,I,n,227,3,1448.800000011921,735508.4000000358,8014,WL,B,9.0
7,21.057999849319458,immed,38942.00015068054,Wed Sep 10 2025 15:38:46 GMT-0500 (Central Daylight Time),737555.5,A,cabinenter,I,enter,584,3,2047.0999999642372,735508.4000000358,8014,WL,B,9.0
7,21.491999864578247,immed,38508.00013542175,Wed Sep 10 2025 15:38:46 GMT-0500 (Central Daylight Time),737989.9000000358,A,l,I,l,426,3,434.19999998807907,737555.7000000477,8014,WL,B,10.0
7,21.72499990463257,immed,38275.00009536743,Wed Sep 10 2025 15:38:46 GMT-0500 (Central Daylight Time),738223.1000000238,A,la,I,a,225,3,667.3999999761581,737555.7000000477,8014,WL,B,10.0
7,21.911999940872192,immed,38088.00005912781,Wed Sep 10 2025 15:38:46 GMT-0500 (Central Daylight Time),738410.3000000119,A,lak,I,k,166,3,854.5999999642372,737555.7000000477,8014,WL,B,10.0
7,22.075000047683716,immed,37924.999952316284,Wed Sep 10 2025 15:38:46 GMT-0500 (Central Daylight Time),738573.3000000119,A,lake,I,e,155,3,1017.5999999642372,737555.7000000477,8014,WL,B,10.0
7,22.64199995994568,immed,37358.00004005432,Wed Sep 10 2025 15:38:46 GMT-0500 (Central Daylight Time),739140.4000000358,A,lakeenter,I,enter,561,3,1584.699999988079,737555.7000000477,8014,WL,B,10.0
7,23.227999925613403,immed,36772.0000743866,Wed Sep 10 2025 15:38:46 GMT-0500 (Central Daylight Time),739726.0,A,f,I,f,569,3,585.3999999761581,739140.6000000238,8014,WL,B,11.0
7,23.40999984741211,immed,36590.00015258789,Wed Sep 10 2025 15:38:46 GMT-0500 (Central Daylight Time),739907.7000000477,A,fi,I,i,177,3,767.1000000238419,739140.6000000238,8014,WL,B,11.0
7,23.609999895095825,immed,36390.000104904175,Wed Sep 10 2025 15:38:46 GMT-0500 (Central Daylight Time),740108.0,A,fir,I,r,195,3,967.3999999761581,739140.6000000238,8014,WL,B,11.0
7,23.80999994277954,immed,36190.00005722046,Wed Sep 10 2025 15:38:46 GMT-0500 (Central Daylight Time),740308.2000000477,A,fire,I,e,193,3,1167.6000000238419,739140.6000000238,8014,WL,B,11.0
7,24.174999952316284,immed,35825.000047683716,Wed Sep 10 2025 15:38:46 GMT-0500 (Central Daylight Time),740672.4000000358,A,fireenter,I,enter,344,3,1531.800000011921,739140.6000000238,8014,WL,B,11.0
7,24.79200005531311,immed,35207.99994468689,Wed Sep 10 2025 15:38:46 GMT-0500 (Central Daylight Time),741290.1000000238,A,s,I,s,599,3,617.5,740672.6000000238,8014,WL,B,12.0
7,24.944000005722046,immed,35055.999994277954,Wed Sep 10 2025 15:38:46 GMT-0500 (Central Daylight Time),741441.6000000238,A,sk,I,k,139,3,769.0,740672.6000000238,8014,WL,B,12.0
7,25.092999935150146,immed,34907.00006484985,Wed Sep 10 2025 15:38:46 GMT-0500 (Central Daylight Time),741591.1000000238,A,ski,I,i,139,3,918.5,740672.6000000238,8014,WL,B,12.0
7,25.307999849319458,immed,34692.00015068054,Wed Sep 10 2025 15:38:46 GMT-0500 (Central Daylight Time),741805.6000000238,A,skin,I,n,197,3,1133.0,740672.6000000238,8014,WL,B,12.0
7,26.69099998474121,immed,33309.00001525879,Wed Sep 10 2025 15:38:46 GMT-0500 (Central Daylight Time),743188.9000000358,A,skinenter,I,enter,1367,3,2516.300000011921,740672.6000000238,8014,WL,B,12.0
7,30.121999979019165,immed,29878.000020980835,Wed Sep 10 2025 15:38:46 GMT-0500 (Central Daylight Time),746620.3000000119,A,s,I,s,3424,3,3431.199999988079,743189.1000000238,8014,WL,B,13.0
7,30.371999979019165,immed,29628.000020980835,Wed Sep 10 2025 15:38:46 GMT-0500 (Central Daylight Time),746870.3000000119,A,st,I,t,243,3,3681.199999988079,743189.1000000238,8014,WL,B,13.0
7,30.556999921798706,immed,29443.000078201294,Wed Sep 10 2025 15:38:46 GMT-0500 (Central Daylight Time),747055.3000000119,A,sta,I,a,167,3,3866.199999988079,743189.1000000238,8014,WL,B,13.0
7,30.69000005722046,immed,29309.99994277954,Wed Sep 10 2025 15:38:46 GMT-0500 (Central Daylight Time),747188.3000000119,A,star,I,r,120,3,3999.199999988079,743189.1000000238,8014,WL,B,13.0
7,32.20700001716614,immed,27792.999982833862,Wed Sep 10 2025 15:38:46 GMT-0500 (Central Daylight Time),748704.5,A,starenter,I,enter,1497,3,5515.399999976158,743189.1000000238,8014,WL,B,13.0
7,38.03699994087219,immed,21963.000059127808,Wed Sep 10 2025 15:38:46 GMT-0500 (Central Daylight Time),754535.2000000477,A,c,I,c,5821,3,5830.5,748704.7000000477,8014,WL,B,14.0
7,38.355000019073486,immed,21644.999980926514,Wed Sep 10 2025 15:38:46 GMT-0500 (Central Daylight Time),754852.7000000477,A,cl,I,l,312,3,6148.0,748704.7000000477,8014,WL,B,14.0
7,38.507999897003174,immed,21492.000102996826,Wed Sep 10 2025 15:38:46 GMT-0500 (Central Daylight Time),755006.3000000119,A,clo,I,o,148,3,6301.599999964237,748704.7000000477,8014,WL,B,14.0
7,38.75600004196167,immed,21243.99995803833,Wed Sep 10 2025 15:38:46 GMT-0500 (Central Daylight Time),755253.4000000358,A,cloc,I,c,232,3,6548.699999988079,748704.7000000477,8014,WL,B,14.0
7,38.90499997138977,immed,21095.00002861023,Wed Sep 10 2025 15:38:46 GMT-0500 (Central Daylight Time),755403.3000000119,A,clock,I,k,128,3,6698.599999964237,748704.7000000477,8014,WL,B,14.0
7,39.73899984359741,immed,20261.000156402588,Wed Sep 10 2025 15:38:46 GMT-0500 (Central Daylight Time),756236.6000000238,A,clockenter,I,enter,816,3,7531.899999976158,748704.7000000477,8014,WL,B,14.0
7,48.96799993515015,immed,11032.000064849854,Wed Sep 10 2025 15:38:46 GMT-0500 (Central Daylight Time),765465.4000000358,A,s,I,s,9209,3,9228.600000023842,756236.8000000119,8014,WL,B,15.0
7,49.16700005531311,immed,10832.99994468689,Wed Sep 10 2025 15:38:46 GMT-0500 (Central Daylight Time),765664.9000000358,A,sk,I,k,186,3,9428.100000023842,756236.8000000119,8014,WL,B,15.0
7,49.35099983215332,immed,10649.00016784668,Wed Sep 10 2025 15:38:46 GMT-0500 (Central Daylight Time),765848.4000000358,A,ski,I,i,171,3,9611.600000023842,756236.8000000119,8014,WL,B,15.0
7,49.53399991989136,immed,10466.000080108643,Wed Sep 10 2025 15:38:46 GMT-0500 (Central Daylight Time),766031.6000000238,A,skin,I,n,173,3,9794.800000011921,756236.8000000119,8014,WL,B,15.0
7,50.28399991989136,immed,9716.000080108643,Wed Sep 10 2025 15:38:46 GMT-0500 (Central Daylight Time),766782.1000000238,A,skinenter,I,enter,729,3,10545.300000011921,756236.8000000119,8014,WL,B,15.0
