acc_sum,block,block_c,condition,correct,correct_response,datetime,endtime,flanker,jitter,project,response,response_test_buffer_response,response_test_target_response,response_time,response_time_test_buffer_response,response_time_test_target_response,row_sel,session_number,start_end,starttime,subject_id,target,task,task_vers,time_test_buffer,time_test_buffer_response,time_test_constants,time_test_flanker,time_test_jitter,time_test_logger,time_test_target,time_test_target_response,time_test_variables,trial
1,prac,1,inc,1,z,Fri Apr 24 2026 15:01:07 GMT-0400 (Eastern Daylight Time),107051.90000000002,film,900,I,z,,,1083,,,14,3,3296.5,103755.40000000002,9031,hate,AF,C,,,,,,,,,,1
2,prac,1,inc,1,m,Fri Apr 24 2026 15:01:07 GMT-0400 (Eastern Daylight Time),110118.30000000005,brutal,1100,I,m,,,656,,,8,3,3056.0,107062.30000000005,9031,window,AF,C,,,,,,,,,,2
3,prac,1,con,1,m,Fri Apr 24 2026 15:01:07 GMT-0400 (Eastern Daylight Time),112851.6000000001,jacket,800,I,m,,,625,,,5,3,2725.100000000093,110126.5,9031,jacket,AF,C,,,,,,,,,,3
4,prac,1,inc,1,z,Fri Apr 24 2026 15:01:07 GMT-0400 (Eastern Daylight Time),115918.20000000007,napkin,1100,I,z,,,664,,,12,3,3056.70000000007,112861.5,9031,friend,AF,C,,,,,,,,,,4
4,prac,1,con,0,z,Fri Apr 24 2026 15:01:07 GMT-0400 (Eastern Daylight Time),118651.5,brutal,800,I,m,,,617,,,13,3,2724.29999999993,115927.20000000007,9031,brutal,AF,C,,,,,,,,,,5
5,prac,1,con,1,z,Fri Apr 24 2026 15:01:07 GMT-0400 (Eastern Daylight Time),121501.5,love,1000,I,z,,,549,,,11,3,2841.5999999999767,118659.90000000002,9031,love,AF,C,,,,,,,,,,6
6,prac,1,inc,1,m,Fri Apr 24 2026 15:01:07 GMT-0400 (Eastern Daylight Time),124568.20000000007,hate,1100,I,m,,,654,,,4,3,3058.0,121510.20000000007,9031,film,AF,C,,,,,,,,,,7
7,prac,1,inc,1,m,Fri Apr 24 2026 15:01:07 GMT-0400 (Eastern Daylight Time),127518.30000000005,elated,900,I,m,,,747,,,6,3,2941.3000000000466,124577.0,9031,napkin,AF,C,,,,,,,,,,8
8,prac,1,inc,1,z,Fri Apr 24 2026 15:01:07 GMT-0400 (Eastern Daylight Time),130584.5,window,1100,I,z,,,653,,,16,3,3055.5999999999767,127528.90000000002,9031,temper,AF,C,,,,,,,,,,9
9,prac,1,con,1,m,Fri Apr 24 2026 15:01:07 GMT-0400 (Eastern Daylight Time),133418.1000000001,step,800,I,m,,,718,,,1,3,2826.100000000093,130592.0,9031,step,AF,C,,,,,,,,,,10
10,prac,1,inc,1,m,Fri Apr 24 2026 15:01:07 GMT-0400 (Eastern Daylight Time),136218.30000000005,kind,900,I,m,,,585,,,2,3,2790.8000000000466,133427.5,9031,rock,AF,C,,,,,,,,,,11
11,prac,1,inc,1,z,Fri Apr 24 2026 15:01:07 GMT-0400 (Eastern Daylight Time),139101.5,rock,900,I,z,,,666,,,10,3,2874.1999999999534,136227.30000000005,9031,kind,AF,C,,,,,,,,,,12
12,prac,1,con,1,z,Fri Apr 24 2026 15:01:07 GMT-0400 (Eastern Daylight Time),141818.30000000005,elated,800,I,z,,,602,,,9,3,2708.8000000000466,139109.5,9031,elated,AF,C,,,,,,,,,,13
13,prac,1,con,1,m,Fri Apr 24 2026 15:01:07 GMT-0400 (Eastern Daylight Time),144668.20000000007,bell,1000,I,m,,,533,,,3,3,2841.5,141826.70000000007,9031,bell,AF,C,,,,,,,,,,14
14,prac,1,con,1,z,Fri Apr 24 2026 15:01:07 GMT-0400 (Eastern Daylight Time),147584.90000000002,rage,1000,I,z,,,611,,,15,3,2907.1999999999534,144677.70000000007,9031,rage,AF,C,,,,,,,,,,15
15,prac,1,con,1,m,Fri Apr 24 2026 15:01:07 GMT-0400 (Eastern Daylight Time),150484.80000000005,remote,1000,I,m,,,590,,,7,3,2891.1999999999534,147593.6000000001,9031,remote,AF,C,,,,,,,,,,16
1,test,1,inc,1,z,Fri Apr 24 2026 15:01:07 GMT-0400 (Eastern Daylight Time),165418.30000000005,step,800,I,z,z,None,703,504.0,199.0,53,3,2042.5999999999767,163375.70000000007,9031,rage,AF,C,163079,163079,161553,162362,161553,163595,162879,162879,163595,1
2,test,1,inc,1,m,Fri Apr 24 2026 15:01:07 GMT-0400 (Eastern Daylight Time),167534.90000000002,love,1000,I,m,m,None,581,382.0,199.0,95,3,2104.5999999999767,165430.30000000005,9031,film,AF,C,165329,165329,163607,164612,163608,165712,165129,165129,165712,2
3,test,1,inc,1,m,Fri Apr 24 2026 15:01:07 GMT-0400 (Eastern Daylight Time),169501.5,kind,900,I,m,m,None,516,317.0,199.0,70,3,1956.7999999999302,167544.70000000007,9031,step,AF,C,167346,167346,165722,166629,165722,167679,167146,167146,167679,3
4,test,1,inc,1,m,Fri Apr 24 2026 15:01:07 GMT-0400 (Eastern Daylight Time),171768.20000000007,friend,1100,I,m,m,None,623,423.0,200.0,128,3,2257.70000000007,169510.5,9031,window,AF,C,169512,169512,167688,168796,167688,169945,169312,169312,169945,4
5,test,1,inc,1,m,Fri Apr 24 2026 15:01:07 GMT-0400 (Eastern Daylight Time),173801.5,brutal,900,I,m,m,None,587,388.0,199.0,126,3,2020.0999999999767,171781.40000000002,9031,window,AF,C,171579,171579,169958,170862,169959,171979,171379,171379,171978,5
6,test,1,inc,1,z,Fri Apr 24 2026 15:01:07 GMT-0400 (Eastern Daylight Time),175734.80000000005,jacket,800,I,z,z,None,590,390.0,200.0,61,3,1924.5999999999767,173810.20000000007,9031,temper,AF,C,173513,173513,171987,172796,171988,173912,173312,173312,173912,6
7,test,1,inc,1,z,Fri Apr 24 2026 15:01:07 GMT-0400 (Eastern Daylight Time),177934.70000000007,bell,1000,I,z,z,None,649,450.0,199.0,55,3,2188.20000000007,175746.5,9031,rage,AF,C,175646,175646,173924,174929,173924,176112,175446,175446,176112,7
8,test,1,inc,1,m,Fri Apr 24 2026 15:01:07 GMT-0400 (Eastern Daylight Time),179884.80000000005,elated,800,I,m,m,None,600,401.0,199.0,117,3,1940.6999999999534,177944.1000000001,9031,remote,AF,C,177646,177646,176121,176929,176121,178062,177446,177446,178062,8
9,test,1,inc,1,z,Fri Apr 24 2026 15:01:07 GMT-0400 (Eastern Daylight Time),181984.6000000001,rock,900,I,z,z,None,662,463.0,199.0,22,3,2091.600000000093,179893.0,9031,love,AF,C,179696,179696,178070,178979,178070,180162,179496,179496,180162,9
10,test,1,inc,1,m,Fri Apr 24 2026 15:01:07 GMT-0400 (Eastern Daylight Time),184101.5,temper,1000,I,m,m,None,574,375.0,199.0,127,3,2106.79999999993,181994.70000000007,9031,window,AF,C,181896,181896,180172,181179,180172,182279,181696,181696,182279,10
11,test,1,con,1,m,Fri Apr 24 2026 15:01:07 GMT-0400 (Eastern Daylight Time),186318.1000000001,napkin,1100,I,m,m,None,567,367.0,200.0,108,3,2207.600000000093,184110.5,9031,napkin,AF,C,184112,184112,182288,183396,182288,184495,183912,183912,184495,11
12,test,1,inc,1,m,Fri Apr 24 2026 15:01:07 GMT-0400 (Eastern Daylight Time),188418.1000000001,temper,1000,I,m,m,None,561,362.0,199.0,111,3,2089.70000000007,186328.40000000002,9031,napkin,AF,C,186229,186229,184505,185512,184506,186595,186029,186029,186595,12
13,test,1,inc,1,m,Fri Apr 24 2026 15:01:07 GMT-0400 (Eastern Daylight Time),190668.1000000001,friend,1100,I,m,m,None,601,402.0,199.0,120,3,2238.70000000007,188429.40000000002,9031,remote,AF,C,188429,188429,186606,187712,186607,188845,188229,188229,188845,13
14,test,1,inc,1,z,Fri Apr 24 2026 15:01:07 GMT-0400 (Eastern Daylight Time),192752.20000000007,bell,1000,I,z,z,None,547,348.0,199.0,23,3,2074.4000000000233,190677.80000000005,9031,love,AF,C,190579,190579,188855,189862,188855,190929,190379,190379,190929,14
14,test,1,inc,0,z,Fri Apr 24 2026 15:01:07 GMT-0400 (Eastern Daylight Time),194784.6000000001,remote,1000,I,m,m,None,496,296.0,200.0,39,3,2023.7000000000698,192760.90000000002,9031,brutal,AF,C,192662,192663,190938,191946,190938,192962,192462,192462,192962,15
15,test,1,inc,1,m,Fri Apr 24 2026 15:01:07 GMT-0400 (Eastern Daylight Time),196884.80000000005,love,1000,I,m,m,None,558,359.0,199.0,79,3,2091.4000000000233,194793.40000000002,9031,rock,AF,C,194696,194696,192970,193979,192971,195062,194496,194496,195062,16
16,test,1,con,1,z,Fri Apr 24 2026 15:01:07 GMT-0400 (Eastern Daylight Time),199051.5,brutal,1000,I,z,z,None,618,419.0,199.0,35,3,2157.79999999993,196893.70000000007,9031,brutal,AF,C,196796,196796,195071,196079,195071,197229,196596,196596,197229,17
17,test,1,con,1,m,Fri Apr 24 2026 15:01:07 GMT-0400 (Eastern Daylight Time),201117.80000000005,window,1100,I,m,m,None,433,234.0,199.0,124,3,2056.9000000000233,199060.90000000002,9031,window,AF,C,199061,199061,197238,198345,197238,199295,198862,198862,199295,18
18,test,1,con,1,z,Fri Apr 24 2026 15:01:07 GMT-0400 (Eastern Daylight Time),203068.20000000007,love,900,I,z,z,None,501,302.0,199.0,18,3,1945.0999999999767,201123.1000000001,9031,love,AF,C,200929,200929,199300,200212,199300,201245,200729,200729,201245,19
19,test,1,con,1,z,Fri Apr 24 2026 15:01:07 GMT-0400 (Eastern Daylight Time),204901.40000000002,kind,800,I,z,z,None,491,276.0,215.0,9,3,1821.4000000000233,203080.0,9031,kind,AF,C,202796,202796,201257,202062,201257,203079,202579,202580,203078,20
20,test,1,inc,1,z,Fri Apr 24 2026 15:01:07 GMT-0400 (Eastern Daylight Time),206918.20000000007,napkin,900,I,z,z,None,575,375.0,200.0,30,3,2006.3000000000466,204911.90000000002,9031,friend,AF,C,204712,204712,203089,203996,203089,205095,204512,204512,205095,21
20,test,1,con,0,z,Fri Apr 24 2026 15:01:07 GMT-0400 (Eastern Daylight Time),209318.1000000001,temper,800,I,m,m,None,1057,858.0,199.0,57,3,2391.100000000093,206927.0,9031,temper,AF,C,206629,206629,205104,205912,205104,207495,206429,206429,207495,22
21,test,1,inc,1,z,Fri Apr 24 2026 15:01:07 GMT-0400 (Eastern Daylight Time),211567.90000000002,film,1100,I,z,z,None,613,414.0,199.0,16,3,2239.1999999999534,209328.70000000007,9031,kind,AF,C,209329,209329,207506,208612,207506,209745,209129,209129,209745,23
22,test,1,con,1,m,Fri Apr 24 2026 15:01:07 GMT-0400 (Eastern Daylight Time),213334.80000000005,napkin,800,I,m,m,None,423,224.0,199.0,105,3,1756.0,211578.80000000005,9031,napkin,AF,C,211279,211279,209756,210562,209756,211512,211079,211079,211512,24
23,test,1,con,1,m,Fri Apr 24 2026 15:01:07 GMT-0400 (Eastern Daylight Time),215284.90000000002,step,1000,I,m,m,None,410,210.0,200.0,67,3,1941.1999999999534,213343.70000000007,9031,step,AF,C,213246,213246,211521,212529,211521,213462,213045,213045,213462,25
24,test,1,inc,1,z,Fri Apr 24 2026 15:01:07 GMT-0400 (Eastern Daylight Time),217468.1000000001,window,1100,I,z,z,None,534,335.0,199.0,40,3,2174.20000000007,215293.90000000002,9031,brutal,AF,C,215296,215296,213471,214579,213471,215645,215096,215096,215645,26
25,test,1,inc,1,m,Fri Apr 24 2026 15:01:07 GMT-0400 (Eastern Daylight Time),219584.6000000001,kind,900,I,m,m,None,679,480.0,199.0,94,3,2107.8000000000466,217476.80000000005,9031,film,AF,C,217279,217279,215654,216562,215654,217762,217079,217079,217762,27
26,test,1,inc,1,m,Fri Apr 24 2026 15:01:07 GMT-0400 (Eastern Daylight Time),221851.30000000005,hate,1100,I,m,m,None,618,419.0,199.0,96,3,2257.1999999999534,219594.1000000001,9031,film,AF,C,219596,219596,217771,218879,217771,220028,219396,219396,220028,28
27,test,1,con,1,z,Fri Apr 24 2026 15:01:07 GMT-0400 (Eastern Daylight Time),223935.1000000001,rage,800,I,z,z,None,748,548.0,200.0,49,3,2075.100000000093,221860.0,9031,rage,AF,C,221562,221563,220037,220846,220037,222112,221362,221362,222112,29
28,test,1,con,1,z,Fri Apr 24 2026 15:01:07 GMT-0400 (Eastern Daylight Time),225967.90000000002,elated,1000,I,z,z,None,498,299.0,199.0,3,3,2023.9000000000233,223944.0,9031,elated,AF,C,223845,223845,222121,223129,222121,224145,223646,223646,224145,30
29,test,1,con,1,m,Fri Apr 24 2026 15:01:07 GMT-0400 (Eastern Daylight Time),227952.30000000005,remote,1000,I,m,m,None,447,248.0,199.0,115,3,1975.3000000000466,225977.0,9031,remote,AF,C,225879,225879,224154,225162,224154,226129,225679,225679,226129,31
30,test,1,con,1,m,Fri Apr 24 2026 15:01:07 GMT-0400 (Eastern Daylight Time),230134.80000000005,film,1100,I,m,m,None,541,341.0,200.0,92,3,2171.5,227963.30000000005,9031,film,AF,C,227962,227962,226140,227246,226141,228312,227762,227762,228312,32
31,test,1,inc,1,m,Fri Apr 24 2026 15:01:07 GMT-0400 (Eastern Daylight Time),232151.30000000005,kind,900,I,m,m,None,572,373.0,199.0,86,3,2007.5999999999767,230143.70000000007,9031,bell,AF,C,229946,229946,228321,229229,228321,230328,229746,229746,230328,33
32,test,1,con,1,z,Fri Apr 24 2026 15:01:07 GMT-0400 (Eastern Daylight Time),234218.1000000001,elated,1100,I,z,z,None,419,220.0,199.0,4,3,2056.8000000000466,232161.30000000005,9031,elated,AF,C,232163,232163,230338,231446,230339,232395,231962,231963,232395,34
33,test,1,con,1,m,Fri Apr 24 2026 15:01:07 GMT-0400 (Eastern Daylight Time),236218.20000000007,bell,1000,I,m,m,None,453,254.0,199.0,83,3,1991.4000000000233,234226.80000000005,9031,bell,AF,C,234129,234129,232404,233412,232404,234395,233929,233929,234395,35
34,test,1,con,1,z,Fri Apr 24 2026 15:01:07 GMT-0400 (Eastern Daylight Time),238318.5,temper,900,I,z,z,None,665,466.0,199.0,58,3,2091.5,236227.0,9031,temper,AF,C,236029,236029,234404,235312,234404,236496,235829,235829,236495,36
35,test,1,con,1,m,Fri Apr 24 2026 15:01:07 GMT-0400 (Eastern Daylight Time),240601.40000000002,remote,1100,I,m,m,None,637,438.0,199.0,116,3,2272.5999999999767,238328.80000000005,9031,remote,AF,C,238329,238329,236506,237612,236506,238778,238129,238129,238778,37
36,test,1,con,1,z,Fri Apr 24 2026 15:01:07 GMT-0400 (Eastern Daylight Time),242668.20000000007,hate,900,I,z,z,None,619,419.0,200.0,42,3,2055.0999999999767,240613.1000000001,9031,hate,AF,C,240412,240412,238790,239696,238790,240845,240212,240212,240845,38
37,test,1,con,1,m,Fri Apr 24 2026 15:01:07 GMT-0400 (Eastern Daylight Time),244568.20000000007,window,900,I,m,m,None,456,256.0,200.0,122,3,1891.4000000000233,242676.80000000005,9031,window,AF,C,242479,242479,240854,241762,240854,242745,242279,242279,242745,39
38,test,1,con,1,z,Fri Apr 24 2026 15:01:07 GMT-0400 (Eastern Daylight Time),246534.80000000005,kind,1000,I,z,z,None,425,225.0,200.0,11,3,1958.0,244576.80000000005,9031,kind,AF,C,244479,244479,242754,243762,242754,244712,244279,244279,244712,40
39,test,1,inc,1,m,Fri Apr 24 2026 15:01:07 GMT-0400 (Eastern Daylight Time),248484.70000000007,elated,800,I,m,m,None,608,409.0,199.0,109,3,1940.2000000000698,246544.5,9031,napkin,AF,C,246246,246246,244722,245529,244722,246662,246046,246046,246662,41
40,test,1,inc,1,z,Fri Apr 24 2026 15:01:07 GMT-0400 (Eastern Daylight Time),250752.30000000005,film,1100,I,z,z,None,630,431.0,199.0,56,3,2258.4000000000233,248493.90000000002,9031,rage,AF,C,248496,248496,246671,247779,246671,248929,248296,248296,248929,42
41,test,1,con,1,m,Fri Apr 24 2026 15:01:07 GMT-0400 (Eastern Daylight Time),252734.90000000002,window,800,I,m,m,None,648,448.0,200.0,121,3,1973.7999999999302,250761.1000000001,9031,window,AF,C,250462,250463,248938,249746,248939,250912,250262,250262,250912,43
42,test,1,con,1,z,Fri Apr 24 2026 15:01:07 GMT-0400 (Eastern Daylight Time),254534.90000000002,friend,800,I,z,z,None,456,257.0,199.0,25,3,1791.5999999999767,252743.30000000005,9031,friend,AF,C,252446,252446,250920,251729,250921,252712,252246,252246,252712,44
43,test,1,inc,1,z,Fri Apr 24 2026 15:01:07 GMT-0400 (Eastern Daylight Time),256468.20000000007,step,800,I,z,z,None,592,393.0,199.0,45,3,1924.5999999999767,254543.6000000001,9031,hate,AF,C,254246,254246,252721,253529,252721,254645,254046,254046,254645,45
44,test,1,con,1,z,Fri Apr 24 2026 15:01:07 GMT-0400 (Eastern Daylight Time),258701.5,friend,1100,I,z,z,None,583,384.0,199.0,28,3,2218.6999999999534,256482.80000000005,9031,friend,AF,C,256479,256479,254660,255762,254661,256879,256279,256279,256879,46
45,test,1,con,1,z,Fri Apr 24 2026 15:01:07 GMT-0400 (Eastern Daylight Time),260551.5,elated,900,I,z,z,None,406,206.0,200.0,2,3,1841.3999999999069,258710.1000000001,9031,elated,AF,C,258512,258513,256887,257796,256887,258729,258312,258312,258729,47
46,test,1,con,1,z,Fri Apr 24 2026 15:01:07 GMT-0400 (Eastern Daylight Time),262501.5,rage,1000,I,z,z,None,409,209.0,200.0,51,3,1940.2999999999302,260561.20000000007,9031,rage,AF,C,260462,260462,258738,259746,258738,260679,260262,260262,260679,48
47,test,1,inc,1,m,Fri Apr 24 2026 15:01:07 GMT-0400 (Eastern Daylight Time),264568.1000000001,temper,1000,I,m,m,None,523,323.0,200.0,103,3,2055.70000000007,262512.4,9031,jacket,AF,C,262412,262412,260689,261696,260690,262745,262212,262212,262745,49
48,test,1,inc,1,z,Fri Apr 24 2026 15:01:07 GMT-0400 (Eastern Daylight Time),266401.5,jacket,800,I,z,z,None,496,296.0,200.0,5,3,1818.6999999999534,264582.80000000005,9031,elated,AF,C,264279,264279,262760,263562,262760,264579,264079,264079,264578,50
49,test,1,con,1,z,Fri Apr 24 2026 15:01:07 GMT-0400 (Eastern Daylight Time),268384.6000000001,friend,900,I,z,z,None,547,347.0,200.0,26,3,1973.4000000000233,266411.20000000007,9031,friend,AF,C,266212,266212,264588,265496,264589,266562,266012,266012,266562,51
50,test,1,con,1,m,Fri Apr 24 2026 15:01:07 GMT-0400 (Eastern Daylight Time),270418.1000000001,film,1000,I,m,m,None,495,296.0,199.0,91,3,2023.0,268395.1000000001,9031,film,AF,C,268296,268296,266572,267579,266572,268595,268096,268096,268595,52
51,test,1,con,1,z,Fri Apr 24 2026 15:01:07 GMT-0400 (Eastern Daylight Time),272718.70000000007,brutal,1100,I,z,z,None,665,466.0,199.0,36,3,2292.4000000000233,270426.30000000005,9031,brutal,AF,C,270429,270429,268603,269712,268604,270896,270229,270229,270896,53
52,test,1,con,1,z,Fri Apr 24 2026 15:01:07 GMT-0400 (Eastern Daylight Time),274518.1000000001,elated,800,I,z,z,None,457,258.0,199.0,1,3,1790.5,272727.6000000001,9031,elated,AF,C,272429,272429,270905,271712,270905,272695,272229,272229,272695,54
53,test,1,con,1,z,Fri Apr 24 2026 15:01:07 GMT-0400 (Eastern Daylight Time),276484.80000000005,hate,1000,I,z,z,None,425,226.0,199.0,43,3,1957.0,274527.80000000005,9031,hate,AF,C,274429,274429,272705,273712,272705,274662,274229,274229,274662,55
54,test,1,con,1,z,Fri Apr 24 2026 15:01:07 GMT-0400 (Eastern Daylight Time),278301.5,hate,800,I,z,z,None,467,267.0,200.0,41,3,1807.3999999999069,276494.1000000001,9031,hate,AF,C,276196,276196,274671,275479,274671,276479,275995,275995,276479,56
55,test,1,inc,1,m,Fri Apr 24 2026 15:01:07 GMT-0400 (Eastern Daylight Time),280551.5,friend,1100,I,m,m,None,608,408.0,200.0,112,3,2241.0999999999767,278310.4,9031,napkin,AF,C,278312,278312,276487,277596,276488,278729,278112,278112,278728,57
56,test,1,inc,1,m,Fri Apr 24 2026 15:01:07 GMT-0400 (Eastern Daylight Time),282753.5,hate,1100,I,m,m,None,564,364.0,200.0,88,3,2191.5999999999767,280561.9,9031,bell,AF,C,280562,280563,278739,279846,278739,280931,280362,280362,280930,58
57,test,1,inc,1,m,Fri Apr 24 2026 15:01:07 GMT-0400 (Eastern Daylight Time),284801.4,brutal,900,I,m,m,None,595,396.0,199.0,102,3,2032.7999999999302,282768.6000000001,9031,jacket,AF,C,282579,282579,280946,281862,280946,282979,282379,282379,282978,59
58,test,1,con,1,z,Fri Apr 24 2026 15:01:07 GMT-0400 (Eastern Daylight Time),286801.5,love,1100,I,z,z,None,363,163.0,200.0,20,3,1990.6999999999534,284810.80000000005,9031,love,AF,C,284812,284812,282988,284096,282988,284979,284612,284612,284979,60
59,test,1,inc,1,m,Fri Apr 24 2026 15:01:07 GMT-0400 (Eastern Daylight Time),288968.20000000007,hate,1100,I,m,m,None,523,323.0,200.0,80,3,2157.4000000000233,286810.80000000005,9031,rock,AF,C,286812,286812,284988,286096,284988,287145,286612,286612,287145,61
60,test,1,con,1,z,Fri Apr 24 2026 15:01:07 GMT-0400 (Eastern Daylight Time),291251.6000000001,kind,1100,I,z,z,None,644,445.0,199.0,12,3,2273.9000000000233,288977.70000000007,9031,kind,AF,C,288979,288979,287155,288262,287155,289429,288779,288779,289429,62
61,test,1,inc,1,z,Fri Apr 24 2026 15:01:07 GMT-0400 (Eastern Daylight Time),293184.70000000007,jacket,800,I,z,z,None,597,397.0,200.0,29,3,1923.3000000000466,291261.4,9031,friend,AF,C,290962,290962,289438,290246,289439,291362,290762,290762,291362,63
62,test,1,con,1,z,Fri Apr 24 2026 15:01:07 GMT-0400 (Eastern Daylight Time),295234.80000000005,friend,1000,I,z,z,None,510,311.0,199.0,27,3,2039.0,293195.80000000005,9031,friend,AF,C,293096,293096,291373,292379,291373,293412,292896,292896,293412,64
63,test,1,con,1,z,Fri Apr 24 2026 15:01:07 GMT-0400 (Eastern Daylight Time),297318.20000000007,rage,900,I,z,z,None,640,441.0,199.0,50,3,2074.5,295243.70000000007,9031,rage,AF,C,295046,295046,293421,294329,293421,295495,294846,294846,295495,65
64,test,1,con,1,m,Fri Apr 24 2026 15:01:07 GMT-0400 (Eastern Daylight Time),299168.0,napkin,900,I,m,m,None,414,214.0,200.0,106,3,1841.0999999999767,297326.9,9031,napkin,AF,C,297129,297129,295504,296412,295504,297345,296929,296929,297345,66
65,test,1,con,1,m,Fri Apr 24 2026 15:01:07 GMT-0400 (Eastern Daylight Time),301135.0,jacket,1000,I,m,m,None,431,232.0,199.0,99,3,1960.0,299175.0,9031,jacket,AF,C,299079,299079,297352,298362,297352,299312,298879,298879,299312,67
66,test,1,inc,1,z,Fri Apr 24 2026 15:01:07 GMT-0400 (Eastern Daylight Time),303101.5,jacket,800,I,z,z,None,616,417.0,199.0,37,3,1959.0,301142.5,9031,brutal,AF,C,300846,300846,299320,300129,299320,301279,300646,300646,301279,68
67,test,1,inc,1,z,Fri Apr 24 2026 15:01:07 GMT-0400 (Eastern Daylight Time),305251.6000000001,remote,1000,I,z,z,None,611,411.0,200.0,31,3,2140.8000000000466,303110.80000000005,9031,friend,AF,C,303012,303012,301288,302296,301288,303429,302812,302812,303429,69
68,test,1,inc,1,z,Fri Apr 24 2026 15:01:07 GMT-0400 (Eastern Daylight Time),307484.9,window,1100,I,z,z,None,585,385.0,200.0,8,3,2225.1999999999534,305259.70000000007,9031,elated,AF,C,305262,305262,303437,304546,303437,305662,305062,305062,305662,70
69,test,1,con,1,m,Fri Apr 24 2026 15:01:07 GMT-0400 (Eastern Daylight Time),309418.30000000005,remote,900,I,m,m,None,486,287.0,199.0,114,3,1924.0,307494.30000000005,9031,remote,AF,C,307296,307296,305671,306579,305672,307595,307096,307096,307595,71
70,test,1,inc,1,z,Fri Apr 24 2026 15:01:07 GMT-0400 (Eastern Daylight Time),311684.80000000005,window,1100,I,z,z,None,625,426.0,199.0,64,3,2258.4000000000233,309426.4,9031,temper,AF,C,309429,309429,307603,308712,307604,309862,309229,309229,309862,72
71,test,1,con,1,m,Fri Apr 24 2026 15:01:07 GMT-0400 (Eastern Daylight Time),313584.6000000001,bell,900,I,m,m,None,463,264.0,199.0,82,3,1889.4000000000233,311695.20000000007,9031,bell,AF,C,311496,311496,309872,310779,309873,311762,311296,311296,311762,73
72,test,1,inc,1,m,Fri Apr 24 2026 15:01:07 GMT-0400 (Eastern Daylight Time),315518.30000000005,rage,800,I,m,m,None,582,383.0,199.0,69,3,1923.5,313594.80000000005,9031,step,AF,C,313296,313296,311772,312579,311772,313695,313096,313096,313695,74
73,test,1,con,1,m,Fri Apr 24 2026 15:01:07 GMT-0400 (Eastern Daylight Time),317618.20000000007,rock,1100,I,m,m,None,461,262.0,199.0,76,3,2091.20000000007,315527.0,9031,rock,AF,C,315529,315529,313704,314812,313704,315795,315329,315329,315795,75
74,test,1,con,1,m,Fri Apr 24 2026 15:01:07 GMT-0400 (Eastern Daylight Time),319634.9,film,800,I,m,m,None,677,478.0,199.0,89,3,2006.5,317628.4,9031,film,AF,C,317329,317329,315805,316612,315806,317812,317129,317129,317812,76
75,test,1,con,1,m,Fri Apr 24 2026 15:01:07 GMT-0400 (Eastern Daylight Time),321501.5,rock,900,I,m,m,None,416,217.0,199.0,74,3,1858.6999999999534,319642.80000000005,9031,rock,AF,C,319446,319446,317820,318729,317820,319679,319246,319246,319679,77
76,test,1,con,1,z,Fri Apr 24 2026 15:01:07 GMT-0400 (Eastern Daylight Time),323751.5,hate,1100,I,z,z,None,607,407.0,200.0,44,3,2240.899999999907,321510.6000000001,9031,hate,AF,C,321513,321513,319688,320796,319688,321929,321312,321312,321929,78
77,test,1,con,1,m,Fri Apr 24 2026 15:01:07 GMT-0400 (Eastern Daylight Time),325834.6000000001,jacket,1100,I,m,m,None,437,237.0,200.0,100,3,2073.8000000000466,323760.80000000005,9031,jacket,AF,C,323762,323762,321938,323046,321938,324012,323562,323562,324012,79
78,test,1,inc,1,z,Fri Apr 24 2026 15:01:07 GMT-0400 (Eastern Daylight Time),327935.1000000001,bell,1000,I,z,z,None,564,365.0,199.0,15,3,2095.0,325840.1000000001,9031,kind,AF,C,325746,325746,324017,325029,324017,326112,325546,325546,326112,80
79,test,1,inc,1,z,Fri Apr 24 2026 15:01:07 GMT-0400 (Eastern Daylight Time),329951.30000000005,napkin,900,I,z,z,None,580,381.0,199.0,6,3,2008.8000000000466,327942.5,9031,elated,AF,C,327746,327746,326120,327029,326120,328128,327546,327546,328128,81
80,test,1,con,1,m,Fri Apr 24 2026 15:01:07 GMT-0400 (Eastern Daylight Time),332351.30000000005,bell,1100,I,m,m,None,764,564.0,200.0,84,3,2390.9000000000233,329960.4,9031,bell,AF,C,329962,329963,328137,329246,328138,330528,329762,329762,330528,82
81,test,1,con,1,m,Fri Apr 24 2026 15:01:07 GMT-0400 (Eastern Daylight Time),334351.30000000005,step,800,I,m,m,None,665,465.0,200.0,65,3,1991.0,332360.30000000005,9031,step,AF,C,332063,332063,330537,331346,330538,332528,331862,331862,332528,83
82,test,1,inc,1,m,Fri Apr 24 2026 15:01:07 GMT-0400 (Eastern Daylight Time),336767.9,rage,800,I,m,m,None,1081,881.0,200.0,85,3,2408.0,334359.9,9031,bell,AF,C,334062,334062,332537,333346,332537,334945,333862,333862,334945,84
83,test,1,con,1,z,Fri Apr 24 2026 15:01:07 GMT-0400 (Eastern Daylight Time),338684.90000000014,brutal,800,I,z,z,None,568,368.0,200.0,33,3,1908.5000000001164,336776.4,9031,brutal,AF,C,336479,336479,334953,335762,334954,336862,336279,336279,336862,85
84,test,1,con,1,m,Fri Apr 24 2026 15:01:07 GMT-0400 (Eastern Daylight Time),340401.5,remote,800,I,m,m,None,378,179.0,199.0,113,3,1708.0999999998603,338693.40000000014,9031,remote,AF,C,338396,338396,336870,337679,336871,338579,338196,338196,338579,86
84,test,1,con,0,z,Fri Apr 24 2026 15:01:07 GMT-0400 (Eastern Daylight Time),342468.19999999995,brutal,900,I,m,m,None,627,427.0,200.0,34,3,2058.399999999907,340409.80000000005,9031,brutal,AF,C,340212,340212,338587,339496,338587,340645,340012,340012,340645,87
85,test,1,con,1,m,Fri Apr 24 2026 15:01:07 GMT-0400 (Eastern Daylight Time),344335.1000000001,jacket,900,I,m,m,None,433,233.0,200.0,98,3,1858.0,342477.1000000001,9031,jacket,AF,C,342279,342279,340654,341562,340654,342512,342079,342079,342512,88
86,test,1,inc,1,m,Fri Apr 24 2026 15:01:07 GMT-0400 (Eastern Daylight Time),346518.30000000005,love,1000,I,m,m,None,641,442.0,199.0,87,3,2176.100000000093,344342.19999999995,9031,bell,AF,C,344246,344246,342519,343529,342519,344695,344046,344046,344695,89
87,test,1,con,1,m,Fri Apr 24 2026 15:01:07 GMT-0400 (Eastern Daylight Time),348518.30000000005,rock,1000,I,m,m,None,458,258.0,200.0,75,3,1989.8000000000466,346528.5,9031,rock,AF,C,346429,346429,344706,345712,344706,346695,346229,346229,346695,90
88,test,1,con,1,m,Fri Apr 24 2026 15:01:07 GMT-0400 (Eastern Daylight Time),350352.40000000014,bell,800,I,m,m,None,498,298.0,200.0,81,3,1826.0,348526.40000000014,9031,bell,AF,C,348229,348229,346703,347512,346704,348530,348029,348029,348529,91
89,test,1,con,1,z,Fri Apr 24 2026 15:01:07 GMT-0400 (Eastern Daylight Time),352301.6000000001,kind,900,I,z,z,None,501,301.0,200.0,10,3,1940.6999999999534,350360.90000000014,9031,kind,AF,C,350162,350162,348538,349446,348538,350479,349962,349962,350479,92
90,test,1,con,1,m,Fri Apr 24 2026 15:01:07 GMT-0400 (Eastern Daylight Time),354551.69999999995,film,900,I,m,m,None,806,606.0,200.0,90,3,2241.899999999907,352309.80000000005,9031,film,AF,C,352112,352113,350487,351396,350487,352729,351912,351912,352729,93
91,test,1,con,1,z,Fri Apr 24 2026 15:01:07 GMT-0400 (Eastern Daylight Time),357018.30000000005,temper,1100,I,z,z,None,821,621.0,200.0,60,3,2454.8000000000466,354563.5,9031,temper,AF,C,354562,354563,352741,353846,352741,355195,354362,354362,355195,94
92,test,1,inc,1,z,Fri Apr 24 2026 15:01:07 GMT-0400 (Eastern Daylight Time),359319.90000000014,film,1100,I,z,z,None,658,458.0,200.0,24,3,2292.5,357027.40000000014,9031,love,AF,C,357029,357029,355204,356312,355205,357497,356829,356829,357497,95
93,test,1,inc,1,z,Fri Apr 24 2026 15:01:07 GMT-0400 (Eastern Daylight Time),361535.1000000001,window,1100,I,z,z,None,582,383.0,199.0,32,3,2209.9000000001397,359325.19999999995,9031,friend,AF,C,359329,359329,357502,358612,357502,359712,359129,359129,359712,96
94,test,1,inc,1,z,Fri Apr 24 2026 15:01:07 GMT-0400 (Eastern Daylight Time),363701.6000000001,remote,1000,I,z,z,None,624,425.0,199.0,7,3,2159.6999999999534,361541.90000000014,9031,elated,AF,C,361446,361446,359719,360729,359719,361879,361246,361246,361879,97
95,test,1,inc,1,m,Fri Apr 24 2026 15:01:07 GMT-0400 (Eastern Daylight Time),365618.19999999995,elated,800,I,m,m,None,578,378.0,200.0,125,3,1908.0,363710.19999999995,9031,window,AF,C,363413,363413,361887,362696,361888,363795,363212,363212,363795,98
96,test,1,inc,1,z,Fri Apr 24 2026 15:01:07 GMT-0400 (Eastern Daylight Time),367701.6000000001,rock,900,I,z,z,None,643,443.0,200.0,46,3,2074.8000000000466,365626.80000000005,9031,hate,AF,C,365429,365429,363804,364712,363804,365879,365229,365229,365879,99
97,test,1,con,1,z,Fri Apr 24 2026 15:01:07 GMT-0400 (Eastern Daylight Time),370084.90000000014,rage,1100,I,z,z,None,742,542.0,200.0,52,3,2373.3000000000466,367711.6000000001,9031,rage,AF,C,367712,367713,365889,366995,365889,368262,367512,367512,368262,100
98,test,1,inc,1,m,Fri Apr 24 2026 15:01:07 GMT-0400 (Eastern Daylight Time),371952.30000000005,elated,800,I,m,m,None,530,331.0,199.0,101,3,1857.8999999999069,370094.40000000014,9031,jacket,AF,C,369796,369796,368271,369079,368272,370129,369596,369596,370129,101
99,test,1,con,1,z,Fri Apr 24 2026 15:01:07 GMT-0400 (Eastern Daylight Time),374285.0,temper,1000,I,z,z,None,784,584.0,200.0,59,3,2324.5,371960.5,9031,temper,AF,C,371863,371863,370138,371146,370138,372462,371662,371662,372462,102
100,test,1,inc,1,z,Fri Apr 24 2026 15:01:07 GMT-0400 (Eastern Daylight Time),376451.6000000001,bell,1000,I,z,z,None,626,427.0,199.0,47,3,2157.600000000093,374294.0,9031,hate,AF,C,374196,374196,372471,373479,372471,374629,373996,373996,374629,103
101,test,1,inc,1,z,Fri Apr 24 2026 15:01:07 GMT-0400 (Eastern Daylight Time),378434.90000000014,rock,900,I,z,z,None,545,346.0,199.0,14,3,1971.9000000001397,376463.0,9031,kind,AF,C,376262,376262,374640,375546,374640,376612,376063,376063,376612,104
102,test,1,con,1,z,Fri Apr 24 2026 15:01:07 GMT-0400 (Eastern Daylight Time),380384.69999999995,love,1000,I,z,z,None,412,213.0,199.0,19,3,1937.5,378447.19999999995,9031,love,AF,C,378346,378346,376624,377629,376624,378562,378146,378146,378562,105
103,test,1,con,1,m,Fri Apr 24 2026 15:01:07 GMT-0400 (Eastern Daylight Time),382134.90000000014,jacket,800,I,m,m,None,406,207.0,199.0,97,3,1740.6000000000931,380394.30000000005,9031,jacket,AF,C,380096,380096,378571,379379,378572,380312,379896,379896,380312,106
104,test,1,inc,1,z,Fri Apr 24 2026 15:01:07 GMT-0400 (Eastern Daylight Time),384118.30000000005,napkin,900,I,z,z,None,541,341.0,200.0,62,3,1974.8999999999069,382143.40000000014,9031,temper,AF,C,381946,381946,380320,381229,380321,382295,381746,381746,382295,107
105,test,1,inc,1,m,Fri Apr 24 2026 15:01:07 GMT-0400 (Eastern Daylight Time),386335.0,hate,1100,I,m,m,None,583,383.0,200.0,72,3,2205.5999999998603,384129.40000000014,9031,step,AF,C,384129,384129,382306,383412,382307,384512,383929,383929,384512,108
106,test,1,inc,1,m,Fri Apr 24 2026 15:01:07 GMT-0400 (Eastern Daylight Time),388335.0,rage,800,I,m,m,None,649,450.0,199.0,77,3,1988.3999999999069,386346.6000000001,9031,rock,AF,C,386046,386046,384524,385329,384524,386512,385846,385846,386512,109
107,test,1,inc,1,z,Fri Apr 24 2026 15:01:07 GMT-0400 (Eastern Daylight Time),390268.40000000014,step,800,I,z,z,None,585,386.0,199.0,21,3,1924.5,388343.90000000014,9031,love,AF,C,388046,388046,386521,387329,386521,388445,387846,387846,388445,110
108,test,1,inc,1,z,Fri Apr 24 2026 15:01:07 GMT-0400 (Eastern Daylight Time),392434.90000000014,remote,1000,I,z,z,None,628,428.0,200.0,63,3,2158.0,390276.90000000014,9031,temper,AF,C,390179,390179,388454,389462,388454,390612,389979,389979,390612,111
109,test,1,inc,1,m,Fri Apr 24 2026 15:01:07 GMT-0400 (Eastern Daylight Time),394434.90000000014,kind,900,I,m,m,None,560,361.0,199.0,78,3,1991.2000000001863,392443.69999999995,9031,rock,AF,C,392246,392246,390621,391529,390621,392612,392046,392046,392612,112
110,test,1,inc,1,m,Fri Apr 24 2026 15:01:07 GMT-0400 (Eastern Daylight Time),396634.90000000014,friend,1100,I,m,m,None,552,353.0,199.0,104,3,2191.0,394443.90000000014,9031,jacket,AF,C,394446,394446,392621,393729,392621,394812,394246,394246,394812,113
111,test,1,inc,1,m,Fri Apr 24 2026 15:01:07 GMT-0400 (Eastern Daylight Time),398718.40000000014,brutal,900,I,m,m,None,632,433.0,199.0,118,3,2072.2000000001863,396646.19999999995,9031,remote,AF,C,396446,396446,394823,395729,394824,396895,396246,396246,396895,114
112,test,1,inc,1,m,Fri Apr 24 2026 15:01:07 GMT-0400 (Eastern Daylight Time),400801.5,brutal,900,I,m,m,None,647,447.0,200.0,110,3,2075.5,398726.0,9031,napkin,AF,C,398529,398529,396903,397812,396903,398979,398329,398329,398979,115
113,test,1,inc,1,z,Fri Apr 24 2026 15:01:07 GMT-0400 (Eastern Daylight Time),402784.69999999995,rock,900,I,z,z,None,547,347.0,200.0,54,3,1974.5,400810.19999999995,9031,rage,AF,C,400612,400612,398987,399896,398988,400962,400412,400412,400962,116
114,test,1,con,1,m,Fri Apr 24 2026 15:01:07 GMT-0400 (Eastern Daylight Time),404835.0,rock,800,I,m,m,None,710,511.0,199.0,73,3,2038.5999999998603,402796.40000000014,9031,rock,AF,C,402496,402496,400973,401779,400974,403012,402296,402296,403012,117
115,test,1,inc,1,z,Fri Apr 24 2026 15:01:07 GMT-0400 (Eastern Daylight Time),406751.30000000005,step,800,I,z,z,None,580,381.0,199.0,13,3,1907.0,404844.30000000005,9031,kind,AF,C,404546,404546,403021,403829,403022,404928,404346,404346,404928,118
116,test,1,con,1,z,Fri Apr 24 2026 15:01:07 GMT-0400 (Eastern Daylight Time),408501.69999999995,love,800,I,z,z,None,409,209.0,200.0,17,3,1738.5,406763.19999999995,9031,love,AF,C,406462,406462,404940,405746,404941,406679,406262,406262,406679,119
117,test,1,con,1,m,Fri Apr 24 2026 15:01:07 GMT-0400 (Eastern Daylight Time),410584.90000000014,step,1100,I,m,m,None,439,239.0,200.0,68,3,2072.600000000093,408512.30000000005,9031,step,AF,C,408512,408512,406689,407796,406690,408762,408312,408312,408762,120
118,test,1,inc,1,z,Fri Apr 24 2026 15:01:07 GMT-0400 (Eastern Daylight Time),412601.5,napkin,900,I,z,z,None,571,372.0,199.0,38,3,2008.3000000000466,410593.19999999995,9031,brutal,AF,C,410396,410396,408770,409680,408771,410779,410196,410196,410779,121
119,test,1,inc,1,m,Fri Apr 24 2026 15:01:07 GMT-0400 (Eastern Daylight Time),414668.19999999995,love,1000,I,m,m,None,519,319.0,200.0,71,3,2055.0999999998603,412613.1000000001,9031,step,AF,C,412512,412512,410790,411796,410790,412845,412312,412312,412845,122
120,test,1,inc,1,m,Fri Apr 24 2026 15:01:07 GMT-0400 (Eastern Daylight Time),416884.90000000014,temper,1000,I,m,m,None,676,476.0,200.0,119,3,2205.8000000000466,414679.1000000001,9031,remote,AF,C,414579,414579,412856,413862,412856,415062,414379,414379,415062,123
121,test,1,con,1,m,Fri Apr 24 2026 15:01:07 GMT-0400 (Eastern Daylight Time),418851.5,napkin,1000,I,m,m,None,426,227.0,199.0,107,3,1958.6999999999534,416892.80000000005,9031,napkin,AF,C,416796,416796,415070,416079,415070,417029,416596,416596,417029,124
122,test,1,con,1,m,Fri Apr 24 2026 15:01:07 GMT-0400 (Eastern Daylight Time),420718.30000000005,step,900,I,m,m,None,416,216.0,200.0,66,3,1855.8000000000466,418862.5,9031,step,AF,C,418662,418663,417040,417946,417040,418895,418462,418462,418895,125
123,test,1,con,1,m,Fri Apr 24 2026 15:01:07 GMT-0400 (Eastern Daylight Time),422718.30000000005,window,1000,I,m,m,None,451,251.0,200.0,123,3,1991.5,420726.80000000005,9031,window,AF,C,420629,420629,418904,419912,418904,420895,420429,420429,420895,126
124,test,1,inc,1,m,Fri Apr 24 2026 15:01:07 GMT-0400 (Eastern Daylight Time),424668.30000000005,rage,800,I,m,m,None,602,402.0,200.0,93,3,1941.1999999999534,422727.1000000001,9031,film,AF,C,422429,422429,420904,421712,420904,422845,422229,422229,422845,127
125,test,1,inc,1,z,Fri Apr 24 2026 15:01:07 GMT-0400 (Eastern Daylight Time),426884.69999999995,film,1100,I,z,z,None,576,376.0,200.0,48,3,2208.5999999998603,424676.1000000001,9031,hate,AF,C,424679,424679,422853,423962,422853,425062,424479,424479,425062,128
