acc_sum,block,block_c,condition,correct,correct_response,datetime,endtime,flanker,jitter,project,response,response_test_buffer_response,response_test_target_response,response_time,response_time_test_buffer_response,response_time_test_target_response,row_sel,session_number,start_end,starttime,subject_id,target,task,task_vers,time_test_buffer,time_test_buffer_response,time_test_constants,time_test_flanker,time_test_jitter,time_test_logger,time_test_target,time_test_target_response,time_test_variables,trial
1,prac,1,inc,1,m,Fri Jan 09 2026 14:04:32 GMT-0500 (Eastern Standard Time),198000.4000005722,kind,900,I,m,,,608,,,2,2,2807.800000190735,195192.60000038147,9031,rock,AF,B,,,,,,,,,,1
2,prac,1,con,1,m,Fri Jan 09 2026 14:04:32 GMT-0500 (Eastern Standard Time),200616.5,jacket,800,I,m,,,499,,,5,2,2606.5,198010.0,9031,jacket,AF,B,,,,,,,,,,2
3,prac,1,inc,1,z,Fri Jan 09 2026 14:04:32 GMT-0500 (Eastern Standard Time),203666.80000019073,window,1100,I,z,,,638,,,16,2,3037.300000190735,200629.5,9031,temper,AF,B,,,,,,,,,,3
4,prac,1,inc,1,z,Fri Jan 09 2026 14:04:32 GMT-0500 (Eastern Standard Time),206500.10000038147,rock,900,I,z,,,621,,,10,2,2824.1000003814697,203676.0,9031,kind,AF,B,,,,,,,,,,4
5,prac,1,inc,1,z,Fri Jan 09 2026 14:04:32 GMT-0500 (Eastern Standard Time),209600.10000038147,napkin,1100,I,z,,,691,,,12,2,3090.8999996185303,206509.20000076294,9031,friend,AF,B,,,,,,,,,,5
6,prac,1,con,1,m,Fri Jan 09 2026 14:04:32 GMT-0500 (Eastern Standard Time),212650.0,bell,1000,I,m,,,747,,,3,2,3040.5999994277954,209609.4000005722,9031,bell,AF,B,,,,,,,,,,6
7,prac,1,inc,1,m,Fri Jan 09 2026 14:04:32 GMT-0500 (Eastern Standard Time),215533.4000005722,elated,900,I,m,,,676,,,6,2,2874.4000005722046,212659.0,9031,napkin,AF,B,,,,,,,,,,7
8,prac,1,con,1,z,Fri Jan 09 2026 14:04:32 GMT-0500 (Eastern Standard Time),218250.4000005722,elated,800,I,z,,,615,,,9,2,2707.9000005722046,215542.5,9031,elated,AF,B,,,,,,,,,,8
9,prac,1,con,1,z,Fri Jan 09 2026 14:04:32 GMT-0500 (Eastern Standard Time),221433.30000019073,rage,1000,I,z,,,881,,,15,2,3176.199999809265,218257.10000038147,9031,rage,AF,B,,,,,,,,,,9
10,prac,1,con,1,m,Fri Jan 09 2026 14:04:32 GMT-0500 (Eastern Standard Time),224233.30000019073,remote,1000,I,m,,,482,,,7,2,2790.5999994277954,221442.70000076294,9031,remote,AF,B,,,,,,,,,,10
11,prac,1,con,1,z,Fri Jan 09 2026 14:04:32 GMT-0500 (Eastern Standard Time),227083.4000005722,love,1000,I,z,,,546,,,11,2,2840.800000190735,224242.60000038147,9031,love,AF,B,,,,,,,,,,11
12,prac,1,inc,1,m,Fri Jan 09 2026 14:04:32 GMT-0500 (Eastern Standard Time),230200.10000038147,brutal,1100,I,m,,,700,,,8,2,3108.0,227092.10000038147,9031,window,AF,B,,,,,,,,,,12
13,prac,1,con,1,m,Fri Jan 09 2026 14:04:32 GMT-0500 (Eastern Standard Time),233166.60000038147,step,800,I,m,,,859,,,1,2,2957.0,230209.60000038147,9031,step,AF,B,,,,,,,,,,13
14,prac,1,inc,1,m,Fri Jan 09 2026 14:04:32 GMT-0500 (Eastern Standard Time),236500.0,hate,1100,I,m,,,921,,,4,2,3320.8999996185303,233179.10000038147,9031,film,AF,B,,,,,,,,,,14
15,prac,1,inc,1,z,Fri Jan 09 2026 14:04:32 GMT-0500 (Eastern Standard Time),239439.80000019073,film,900,I,z,,,747,,,14,2,2930.5999994277954,236509.20000076294,9031,hate,AF,B,,,,,,,,,,15
16,prac,1,con,1,z,Fri Jan 09 2026 14:04:32 GMT-0500 (Eastern Standard Time),242083.20000076294,brutal,800,I,z,,,538,,,13,2,2637.6000003814697,239445.60000038147,9031,brutal,AF,B,,,,,,,,,,16
1,test,1,con,1,m,Fri Jan 09 2026 14:04:32 GMT-0500 (Eastern Standard Time),267499.9000005722,bell,1000,I,m,m,None,513,314.0,199.0,83,2,2041.8000001907349,265458.10000038147,9031,bell,AF,B,260053,260053,258327,259336,258328,260369,259853,259853,260369,1
2,test,1,inc,1,z,Fri Jan 09 2026 14:04:32 GMT-0500 (Eastern Standard Time),269433.20000076294,step,800,I,z,z,None,583,384.0,199.0,53,2,1924.3000001907349,267508.9000005722,9031,rage,AF,B,261903,261903,260378,261186,260378,262302,261703,261703,262302,2
3,test,1,con,1,m,Fri Jan 09 2026 14:04:32 GMT-0500 (Eastern Standard Time),271166.60000038147,napkin,800,I,m,m,None,394,195.0,199.0,105,2,1721.8999996185303,269444.70000076294,9031,napkin,AF,B,263836,263836,262314,263119,262314,264036,263636,263636,264036,3
4,test,1,inc,1,z,Fri Jan 09 2026 14:04:32 GMT-0500 (Eastern Standard Time),273049.70000076294,jacket,800,I,z,z,None,533,333.0,200.0,61,2,1874.3000001907349,271175.4000005722,9031,temper,AF,B,265569,265570,264044,264853,264045,265919,265369,265369,265919,4
4,test,1,inc,0,z,Fri Jan 09 2026 14:04:32 GMT-0500 (Eastern Standard Time),275033.10000038147,napkin,900,I,m,m,None,534,319.0,215.0,62,2,1974.1999998092651,273058.9000005722,9031,temper,AF,B,267568,267568,265928,266836,265928,267902,267353,267353,267902,5
5,test,1,inc,1,z,Fri Jan 09 2026 14:04:32 GMT-0500 (Eastern Standard Time),277283.0,film,1100,I,z,z,None,606,407.0,199.0,24,2,2241.199999809265,275041.80000019073,9031,love,AF,B,269736,269736,267911,269019,267911,270152,269536,269536,270152,6
6,test,1,con,1,m,Fri Jan 09 2026 14:04:32 GMT-0500 (Eastern Standard Time),279049.80000019073,window,800,I,m,m,None,416,217.0,199.0,121,2,1758.1999998092651,277291.60000038147,9031,window,AF,B,271686,271686,270161,270969,270161,271919,271486,271486,271919,7
7,test,1,con,1,z,Fri Jan 09 2026 14:04:32 GMT-0500 (Eastern Standard Time),281149.80000019073,kind,1100,I,z,z,None,461,262.0,199.0,12,2,2090.0,279059.80000019073,9031,kind,AF,B,273753,273753,271929,273036,271929,274019,273553,273553,274019,8
8,test,1,inc,1,z,Fri Jan 09 2026 14:04:32 GMT-0500 (Eastern Standard Time),283266.4000005722,remote,1000,I,z,z,None,573,374.0,199.0,31,2,2108.5,281157.9000005722,9031,friend,AF,B,275753,275753,274027,275036,274027,276136,275553,275553,276135,9
9,test,1,con,1,m,Fri Jan 09 2026 14:04:32 GMT-0500 (Eastern Standard Time),285399.9000005722,jacket,1100,I,m,m,None,485,285.0,200.0,100,2,2124.6000003814697,283275.30000019073,9031,jacket,AF,B,277970,277970,276144,277253,276145,278269,277769,277769,278269,10
10,test,1,inc,1,m,Fri Jan 09 2026 14:04:32 GMT-0500 (Eastern Standard Time),287516.4000005722,brutal,900,I,m,m,None,679,480.0,199.0,118,2,2107.5,285408.9000005722,9031,remote,AF,B,279903,279903,278278,279186,278278,280386,279703,279703,280385,11
11,test,1,inc,1,m,Fri Jan 09 2026 14:04:32 GMT-0500 (Eastern Standard Time),289849.80000019073,hate,1100,I,m,m,None,684,484.0,200.0,96,2,2325.199999809265,287524.60000038147,9031,film,AF,B,282219,282219,280394,281503,280394,282719,282019,282019,282719,12
12,test,1,con,1,z,Fri Jan 09 2026 14:04:32 GMT-0500 (Eastern Standard Time),291866.60000038147,elated,900,I,z,z,None,581,382.0,199.0,2,2,2006.8999996185303,289859.70000076294,9031,elated,AF,B,284353,284353,282729,283636,282729,284736,284152,284153,284736,13
13,test,1,con,1,z,Fri Jan 09 2026 14:04:32 GMT-0500 (Eastern Standard Time),293949.70000076294,friend,1000,I,z,z,None,545,345.0,200.0,27,2,2074.9000005722046,291874.80000019073,9031,friend,AF,B,286469,286470,284744,285753,284744,286819,286269,286269,286819,14
14,test,1,con,1,z,Fri Jan 09 2026 14:04:32 GMT-0500 (Eastern Standard Time),296133.0,brutal,1000,I,z,z,None,637,438.0,199.0,35,2,2174.5999994277954,293958.4000005722,9031,brutal,AF,B,288553,288553,286827,287836,286828,289002,288353,288353,289002,15
15,test,1,con,1,z,Fri Jan 09 2026 14:04:32 GMT-0500 (Eastern Standard Time),298066.4000005722,kind,1000,I,z,z,None,390,191.0,199.0,11,2,1924.3000001907349,296142.10000038147,9031,kind,AF,B,290736,290736,289011,290019,289011,290935,290536,290536,290935,16
16,test,1,inc,1,z,Fri Jan 09 2026 14:04:32 GMT-0500 (Eastern Standard Time),300232.9000005722,bell,1000,I,z,z,None,618,418.0,200.0,15,2,2157.800000190735,298075.10000038147,9031,kind,AF,B,292669,292669,290944,291953,290945,293102,292469,292469,293102,17
17,test,1,con,1,z,Fri Jan 09 2026 14:04:32 GMT-0500 (Eastern Standard Time),302449.80000019073,brutal,1100,I,z,z,None,574,375.0,199.0,36,2,2208.0999994277954,300241.70000076294,9031,brutal,AF,B,294936,294936,293111,294219,293111,295319,294736,294736,295319,18
18,test,1,con,1,z,Fri Jan 09 2026 14:04:32 GMT-0500 (Eastern Standard Time),304433.10000038147,hate,1000,I,z,z,None,441,242.0,199.0,43,2,1974.5,302458.60000038147,9031,hate,AF,B,297053,297053,295328,296336,295328,297302,296853,296853,297302,19
19,test,1,con,1,z,Fri Jan 09 2026 14:04:32 GMT-0500 (Eastern Standard Time),306583.0,temper,1100,I,z,z,None,502,303.0,199.0,60,2,2140.2999992370605,304442.70000076294,9031,temper,AF,B,299136,299136,297312,298419,297312,299452,298936,298936,299452,20
20,test,1,con,1,m,Fri Jan 09 2026 14:04:32 GMT-0500 (Eastern Standard Time),308533.0,remote,900,I,m,m,None,487,288.0,199.0,114,2,1933.8999996185303,306599.10000038147,9031,remote,AF,B,301103,301103,299468,300386,299469,301402,300903,300903,301402,21
21,test,1,inc,1,m,Fri Jan 09 2026 14:04:32 GMT-0500 (Eastern Standard Time),310666.4000005722,temper,1000,I,m,m,None,582,383.0,199.0,103,2,2120.5,308545.9000005722,9031,jacket,AF,B,303136,303136,301415,302419,301416,303535,302936,302936,303535,22
22,test,1,inc,1,z,Fri Jan 09 2026 14:04:32 GMT-0500 (Eastern Standard Time),312682.70000076294,napkin,900,I,z,z,None,582,382.0,200.0,6,2,2007.3000001907349,310675.4000005722,9031,elated,AF,B,305169,305169,303544,304453,303545,305552,304969,304969,305552,23
23,test,1,inc,1,z,Fri Jan 09 2026 14:04:32 GMT-0500 (Eastern Standard Time),314666.60000038147,jacket,800,I,z,z,None,648,449.0,199.0,37,2,1974.5,312692.10000038147,9031,brutal,AF,B,307086,307086,305561,306369,305562,307536,306886,306886,307536,24
24,test,1,inc,1,m,Fri Jan 09 2026 14:04:32 GMT-0500 (Eastern Standard Time),316649.80000019073,rage,800,I,m,m,None,634,434.0,200.0,77,2,1976.1999998092651,314673.60000038147,9031,rock,AF,B,309069,309069,307543,308352,307543,309519,308869,308869,309519,25
25,test,1,inc,1,z,Fri Jan 09 2026 14:04:32 GMT-0500 (Eastern Standard Time),318849.70000076294,film,1100,I,z,z,None,558,358.0,200.0,16,2,2189.800000190735,316659.9000005722,9031,kind,AF,B,311353,311353,309529,310636,309529,311719,311152,311152,311719,26
26,test,1,con,1,z,Fri Jan 09 2026 14:04:32 GMT-0500 (Eastern Standard Time),320866.30000019073,rage,900,I,z,z,None,573,374.0,199.0,50,2,2008.5,318857.80000019073,9031,rage,AF,B,313353,313353,311727,312636,311727,313735,313153,313153,313735,27
27,test,1,con,1,z,Fri Jan 09 2026 14:04:32 GMT-0500 (Eastern Standard Time),322699.5,love,900,I,z,z,None,398,198.0,200.0,18,2,1824.1999998092651,320875.30000019073,9031,love,AF,B,315369,315369,313744,314652,313745,315569,315169,315169,315568,28
28,test,1,con,1,z,Fri Jan 09 2026 14:04:32 GMT-0500 (Eastern Standard Time),324699.5,love,1000,I,z,z,None,463,264.0,199.0,19,2,1992.0,322707.5,9031,love,AF,B,317303,317303,315577,316586,315577,317569,317103,317103,317568,29
29,test,1,con,1,z,Fri Jan 09 2026 14:04:32 GMT-0500 (Eastern Standard Time),326999.70000076294,hate,1100,I,z,z,None,651,452.0,199.0,44,2,2291.300000190735,324708.4000005722,9031,hate,AF,B,319403,319403,317577,318686,317578,319869,319203,319203,319869,30
30,test,1,con,1,z,Fri Jan 09 2026 14:04:32 GMT-0500 (Eastern Standard Time),329066.5,love,1100,I,z,z,None,433,233.0,200.0,20,2,2058.0999994277954,327008.4000005722,9031,love,AF,B,321702,321702,319877,320986,319878,321936,321502,321502,321936,31
31,test,1,inc,1,z,Fri Jan 09 2026 14:04:32 GMT-0500 (Eastern Standard Time),331116.10000038147,rock,900,I,z,z,None,614,414.0,200.0,22,2,2041.5,329074.60000038147,9031,love,AF,B,323569,323569,321944,322853,321944,323985,323369,323369,323985,32
32,test,1,inc,1,m,Fri Jan 09 2026 14:04:32 GMT-0500 (Eastern Standard Time),333266.20000076294,temper,1000,I,m,m,None,608,408.0,200.0,127,2,2141.4000005722046,331124.80000019073,9031,window,AF,B,325719,325719,323994,325003,323994,326135,325519,325519,326135,33
32,test,1,inc,0,m,Fri Jan 09 2026 14:04:32 GMT-0500 (Eastern Standard Time),335116.30000019073,kind,900,I,z,z,None,414,213.0,201.0,94,2,1839.1999998092651,333277.10000038147,9031,film,AF,B,327770,327770,326146,327053,326146,327985,327568,327568,327985,34
33,test,1,con,1,z,Fri Jan 09 2026 14:04:32 GMT-0500 (Eastern Standard Time),337082.70000076294,friend,900,I,z,z,None,532,332.0,200.0,26,2,1958.3000001907349,335124.4000005722,9031,friend,AF,B,329619,329619,327993,328903,327994,329952,329419,329419,329952,35
34,test,1,con,1,m,Fri Jan 09 2026 14:04:32 GMT-0500 (Eastern Standard Time),339016.30000019073,film,1000,I,m,m,None,384,185.0,199.0,91,2,1926.0999994277954,337090.20000076294,9031,film,AF,B,331686,331686,329959,330969,329960,331885,331486,331486,331885,36
35,test,1,inc,1,m,Fri Jan 09 2026 14:04:32 GMT-0500 (Eastern Standard Time),340966.30000019073,kind,900,I,m,m,None,504,304.0,200.0,70,2,1941.0999994277954,339025.20000076294,9031,step,AF,B,333519,333519,331894,332802,331895,333835,333319,333319,333835,37
36,test,1,inc,1,m,Fri Jan 09 2026 14:04:32 GMT-0500 (Eastern Standard Time),343132.9000005722,friend,1100,I,m,m,None,530,330.0,200.0,120,2,2158.699999809265,340974.20000076294,9031,remote,AF,B,335669,335669,333843,334952,333844,336002,335469,335469,336002,38
37,test,1,inc,1,m,Fri Jan 09 2026 14:04:32 GMT-0500 (Eastern Standard Time),345049.60000038147,brutal,900,I,m,m,None,466,267.0,199.0,110,2,1906.1000003814697,343143.5,9031,napkin,AF,B,337636,337636,336012,336919,336013,337919,337436,337436,337919,39
38,test,1,inc,1,z,Fri Jan 09 2026 14:04:32 GMT-0500 (Eastern Standard Time),347199.70000076294,bell,1000,I,z,z,None,609,410.0,199.0,23,2,2141.300000190735,345058.4000005722,9031,love,AF,B,339653,339653,337927,338936,337928,340069,339452,339453,340069,40
39,test,1,inc,1,m,Fri Jan 09 2026 14:04:32 GMT-0500 (Eastern Standard Time),349283.0,temper,1000,I,m,m,None,539,340.0,199.0,111,2,2075.0,347208.0,9031,napkin,AF,B,341803,341803,340077,341086,340077,342152,341602,341603,342152,41
40,test,1,con,1,z,Fri Jan 09 2026 14:04:32 GMT-0500 (Eastern Standard Time),351332.60000038147,brutal,800,I,z,z,None,704,505.0,199.0,33,2,2041.3000001907349,349291.30000019073,9031,brutal,AF,B,343686,343686,342160,342969,342161,344202,343486,343486,344202,42
41,test,1,con,1,m,Fri Jan 09 2026 14:04:32 GMT-0500 (Eastern Standard Time),353199.60000038147,napkin,900,I,m,m,None,426,227.0,199.0,106,2,1861.6999998092651,351337.9000005722,9031,napkin,AF,B,345836,345836,344207,345119,344207,346069,345636,345636,346069,43
42,test,1,inc,1,z,Fri Jan 09 2026 14:04:32 GMT-0500 (Eastern Standard Time),355316.20000076294,remote,1000,I,z,z,None,571,372.0,199.0,7,2,2108.2000007629395,353208.0,9031,elated,AF,B,347803,347803,346077,347086,346077,348185,347603,347603,348185,44
43,test,1,con,1,m,Fri Jan 09 2026 14:04:32 GMT-0500 (Eastern Standard Time),357116.20000076294,step,800,I,m,m,None,463,264.0,199.0,65,2,1790.7000007629395,355325.5,9031,step,AF,B,349719,349719,348194,349002,348195,349985,349519,349519,349985,45
44,test,1,inc,1,m,Fri Jan 09 2026 14:04:32 GMT-0500 (Eastern Standard Time),359132.9000005722,love,1000,I,m,m,None,479,280.0,199.0,95,2,2008.9000005722046,357124.0,9031,film,AF,B,351719,351719,349993,351002,349993,352002,351519,351519,352002,46
45,test,1,con,1,m,Fri Jan 09 2026 14:04:32 GMT-0500 (Eastern Standard Time),361549.60000038147,window,1100,I,m,m,None,778,579.0,199.0,124,2,2407.6000003814697,359142.0,9031,window,AF,B,353836,353836,352011,353119,352011,354419,353636,353636,354419,47
46,test,1,inc,1,z,Fri Jan 09 2026 14:04:32 GMT-0500 (Eastern Standard Time),363516.0,napkin,900,I,z,z,None,530,330.0,200.0,30,2,1958.7999992370605,361557.20000076294,9031,friend,AF,B,356053,356053,354426,355336,354427,356385,355852,355852,356385,48
47,test,1,con,1,z,Fri Jan 09 2026 14:04:32 GMT-0500 (Eastern Standard Time),365399.70000076294,friend,800,I,z,z,None,536,336.0,200.0,25,2,1875.2000007629395,363524.5,9031,friend,AF,B,357919,357919,356394,357202,356394,358269,357719,357719,358269,49
48,test,1,inc,1,m,Fri Jan 09 2026 14:04:32 GMT-0500 (Eastern Standard Time),367532.80000019073,friend,1100,I,m,m,None,496,296.0,200.0,128,2,2124.800000190735,365408.0,9031,window,AF,B,360103,360103,358277,359386,358277,360402,359902,359902,360402,50
49,test,1,inc,1,m,Fri Jan 09 2026 14:04:32 GMT-0500 (Eastern Standard Time),369699.70000076294,friend,1100,I,m,m,None,522,323.0,199.0,112,2,2158.2000007629395,367541.5,9031,napkin,AF,B,362236,362236,360411,361519,360411,362569,362036,362036,362569,51
50,test,1,con,1,z,Fri Jan 09 2026 14:04:32 GMT-0500 (Eastern Standard Time),371599.60000038147,elated,800,I,z,z,None,560,360.0,200.0,1,2,1891.3000001907349,369708.30000019073,9031,elated,AF,B,364103,364103,362577,363386,362578,364469,363902,363902,364469,52
51,test,1,inc,1,z,Fri Jan 09 2026 14:04:32 GMT-0500 (Eastern Standard Time),373816.30000019073,remote,1000,I,z,z,None,668,468.0,200.0,63,2,2207.800000190735,371608.5,9031,temper,AF,B,366203,366203,364478,365486,364478,366685,366002,366002,366685,53
52,test,1,inc,1,m,Fri Jan 09 2026 14:04:32 GMT-0500 (Eastern Standard Time),375966.20000076294,hate,1100,I,m,m,None,512,312.0,200.0,88,2,2141.300000190735,373824.9000005722,9031,bell,AF,B,368519,368519,366694,367802,366694,368835,368319,368319,368835,54
53,test,1,con,1,m,Fri Jan 09 2026 14:04:32 GMT-0500 (Eastern Standard Time),377832.9000005722,film,900,I,m,m,None,418,218.0,200.0,90,2,1859.0,375973.9000005722,9031,film,AF,B,370469,370469,368843,369752,368843,370702,370269,370269,370702,55
54,test,1,inc,1,m,Fri Jan 09 2026 14:04:32 GMT-0500 (Eastern Standard Time),379866.30000019073,love,1000,I,m,m,None,482,283.0,199.0,79,2,2024.8000001907349,377841.5,9031,rock,AF,B,372436,372436,370711,371719,370711,372735,372236,372236,372735,56
55,test,1,inc,1,m,Fri Jan 09 2026 14:04:32 GMT-0500 (Eastern Standard Time),381982.9000005722,friend,1100,I,m,m,None,477,278.0,199.0,104,2,2105.4000005722046,379877.5,9031,jacket,AF,B,374569,374569,372747,373852,372747,374852,374369,374369,374852,57
56,test,1,con,1,m,Fri Jan 09 2026 14:04:32 GMT-0500 (Eastern Standard Time),383866.30000019073,window,900,I,m,m,None,432,233.0,199.0,122,2,1875.0,381991.30000019073,9031,window,AF,B,376486,376486,374860,375769,374861,376735,376286,376286,376735,58
57,test,1,inc,1,z,Fri Jan 09 2026 14:04:32 GMT-0500 (Eastern Standard Time),386166.20000076294,rock,900,I,z,z,None,854,654.0,200.0,54,2,2292.2000007629395,383874.0,9031,rage,AF,B,378369,378369,376743,377652,376743,379035,378169,378169,379035,59
58,test,1,con,1,m,Fri Jan 09 2026 14:04:32 GMT-0500 (Eastern Standard Time),388732.80000019073,jacket,1000,I,m,m,None,1030,830.0,200.0,99,2,2558.300000190735,386174.5,9031,jacket,AF,B,380769,380769,379044,380052,379044,381602,380569,380569,381602,60
59,test,1,inc,1,z,Fri Jan 09 2026 14:04:32 GMT-0500 (Eastern Standard Time),390732.70000076294,napkin,900,I,z,z,None,562,363.0,199.0,38,2,1991.6000003814697,388741.10000038147,9031,brutal,AF,B,383236,383236,381610,382519,381611,383602,383036,383036,383602,61
60,test,1,inc,1,m,Fri Jan 09 2026 14:04:32 GMT-0500 (Eastern Standard Time),392932.9000005722,kind,900,I,m,m,None,754,555.0,199.0,86,2,2191.9000005722046,390741.0,9031,bell,AF,B,385236,385236,383610,384519,383610,385802,385036,385036,385802,62
61,test,1,con,1,m,Fri Jan 09 2026 14:04:32 GMT-0500 (Eastern Standard Time),395232.80000019073,film,1100,I,m,m,None,658,443.0,215.0,92,2,2291.3999996185303,392941.4000005722,9031,film,AF,B,387652,387652,385810,386919,385811,388102,387437,387437,388102,63
62,test,1,inc,1,z,Fri Jan 09 2026 14:04:32 GMT-0500 (Eastern Standard Time),397466.30000019073,film,1100,I,z,z,None,582,383.0,199.0,56,2,2225.0,395241.30000019073,9031,rage,AF,B,389936,389936,388110,389219,388111,390335,389736,389736,390335,64
63,test,1,inc,1,z,Fri Jan 09 2026 14:04:32 GMT-0500 (Eastern Standard Time),399366.30000019073,jacket,800,I,z,z,None,554,354.0,200.0,29,2,1889.3000001907349,397477.0,9031,friend,AF,B,391869,391869,390346,391152,390346,392235,391669,391669,392235,65
64,test,1,inc,1,m,Fri Jan 09 2026 14:04:32 GMT-0500 (Eastern Standard Time),401232.9000005722,elated,800,I,m,m,None,526,326.0,200.0,101,2,1858.6999998092651,399374.20000076294,9031,jacket,AF,B,393769,393769,392243,393052,392243,394102,393569,393569,394102,66
65,test,1,con,1,m,Fri Jan 09 2026 14:04:32 GMT-0500 (Eastern Standard Time),403332.9000005722,remote,1100,I,m,m,None,454,255.0,199.0,116,2,2091.5,401241.4000005722,9031,remote,AF,B,395936,395936,394110,395219,394111,396202,395736,395736,396202,67
66,test,1,con,1,z,Fri Jan 09 2026 14:04:32 GMT-0500 (Eastern Standard Time),405499.30000019073,temper,800,I,z,z,None,830,631.0,199.0,57,2,2158.5,403340.80000019073,9031,temper,AF,B,397736,397736,396210,397019,396210,398369,397536,397536,398368,68
67,test,1,con,1,z,Fri Jan 09 2026 14:04:32 GMT-0500 (Eastern Standard Time),407416.30000019073,hate,800,I,z,z,None,568,368.0,200.0,41,2,1908.5,405507.80000019073,9031,hate,AF,B,399903,399903,398377,399186,398377,400285,399702,399702,400285,69
68,test,1,con,1,m,Fri Jan 09 2026 14:04:32 GMT-0500 (Eastern Standard Time),409416.30000019073,step,1000,I,m,m,None,452,252.0,200.0,67,2,1990.5999994277954,407425.70000076294,9031,step,AF,B,402019,402019,400295,401302,400295,402285,401819,401819,402285,70
69,test,1,inc,1,z,Fri Jan 09 2026 14:04:32 GMT-0500 (Eastern Standard Time),411266.30000019073,step,800,I,z,z,None,508,308.0,200.0,21,2,1841.6999998092651,409424.60000038147,9031,love,AF,B,403819,403819,402294,403102,402294,404135,403619,403619,404135,71
70,test,1,con,1,m,Fri Jan 09 2026 14:04:32 GMT-0500 (Eastern Standard Time),413132.80000019073,bell,900,I,m,m,None,430,230.0,200.0,82,2,1857.5999994277954,411275.20000076294,9031,bell,AF,B,405769,405769,404144,405052,404144,406002,405569,405569,406002,72
71,test,1,con,1,m,Fri Jan 09 2026 14:04:32 GMT-0500 (Eastern Standard Time),414949.60000038147,bell,800,I,m,m,None,470,271.0,199.0,81,2,1808.3999996185303,413141.20000076294,9031,bell,AF,B,407536,407536,406010,406819,406011,407819,407336,407336,407819,73
72,test,1,con,1,m,Fri Jan 09 2026 14:04:32 GMT-0500 (Eastern Standard Time),417049.60000038147,step,1100,I,m,m,None,451,251.0,200.0,68,2,2091.6000003814697,414958.0,9031,step,AF,B,409652,409652,407827,408936,407827,409919,409452,409452,409919,74
73,test,1,con,1,m,Fri Jan 09 2026 14:04:32 GMT-0500 (Eastern Standard Time),419032.9000005722,window,1000,I,m,m,None,435,235.0,200.0,123,2,1974.6000003814697,417058.30000019073,9031,window,AF,B,411652,411652,409927,410936,409928,411902,411452,411452,411902,75
74,test,1,con,1,m,Fri Jan 09 2026 14:04:32 GMT-0500 (Eastern Standard Time),420799.5,film,800,I,m,m,None,426,227.0,199.0,89,2,1758.0,419041.5,9031,film,AF,B,413436,413436,411911,412719,411911,413669,413236,413236,413668,76
75,test,1,inc,1,z,Fri Jan 09 2026 14:04:32 GMT-0500 (Eastern Standard Time),422982.70000076294,window,1100,I,z,z,None,537,337.0,200.0,40,2,2175.0,420807.70000076294,9031,brutal,AF,B,415502,415502,413677,414786,413677,415852,415302,415302,415852,77
76,test,1,inc,1,m,Fri Jan 09 2026 14:04:32 GMT-0500 (Eastern Standard Time),425049.60000038147,rage,800,I,m,m,None,716,517.0,199.0,85,2,2057.8999996185303,422991.70000076294,9031,bell,AF,B,417386,417386,415861,416669,415861,417919,417186,417186,417919,78
77,test,1,inc,1,z,Fri Jan 09 2026 14:04:32 GMT-0500 (Eastern Standard Time),427166.20000076294,jacket,800,I,z,z,None,779,579.0,200.0,5,2,2104.9000005722046,425061.30000019073,9031,elated,AF,B,419452,419452,417930,418736,417931,420035,419252,419252,420035,79
78,test,1,con,1,z,Fri Jan 09 2026 14:04:32 GMT-0500 (Eastern Standard Time),429299.5,friend,1100,I,z,z,None,491,290.0,201.0,28,2,2125.5,427174.0,9031,friend,AF,B,421869,421869,420043,421152,420043,422169,421668,421668,422169,80
79,test,1,inc,1,m,Fri Jan 09 2026 14:04:32 GMT-0500 (Eastern Standard Time),431148.9000005722,elated,800,I,m,m,None,511,311.0,200.0,109,2,1841.1999998092651,429307.70000076294,9031,napkin,AF,B,423703,423703,422177,422986,422177,424018,423502,423502,424018,81
80,test,1,inc,1,m,Fri Jan 09 2026 14:04:32 GMT-0500 (Eastern Standard Time),433016.30000019073,rage,800,I,m,m,None,519,319.0,200.0,93,2,1862.0,431154.30000019073,9031,film,AF,B,425552,425552,424023,424837,424024,425885,425352,425352,425885,82
81,test,1,inc,1,m,Fri Jan 09 2026 14:04:32 GMT-0500 (Eastern Standard Time),435199.60000038147,temper,1000,I,m,m,None,644,444.0,200.0,119,2,2175.3999996185303,433024.20000076294,9031,remote,AF,B,427619,427619,425893,426902,425894,428069,427419,427419,428069,83
82,test,1,con,1,m,Fri Jan 09 2026 14:04:32 GMT-0500 (Eastern Standard Time),437399.60000038147,napkin,1000,I,m,m,None,652,452.0,200.0,107,2,2191.699999809265,435207.9000005722,9031,napkin,AF,B,429802,429803,428077,429086,428077,430269,429602,429602,430269,84
83,test,1,con,1,z,Fri Jan 09 2026 14:04:32 GMT-0500 (Eastern Standard Time),439482.5,brutal,900,I,z,z,None,648,448.0,200.0,34,2,2074.2999992370605,437408.20000076294,9031,brutal,AF,B,431902,431903,430277,431186,430278,432352,431702,431702,432352,85
83,test,1,inc,0,z,Fri Jan 09 2026 14:04:32 GMT-0500 (Eastern Standard Time),441566.20000076294,bell,1000,I,m,m,None,544,345.0,199.0,47,2,2075.800000190735,439490.4000005722,9031,hate,AF,B,434086,434086,432359,433369,432360,434435,433886,433886,434435,86
84,test,1,inc,1,z,Fri Jan 09 2026 14:04:32 GMT-0500 (Eastern Standard Time),443616.20000076294,step,800,I,z,z,None,710,510.0,200.0,45,2,2041.5,441574.70000076294,9031,hate,AF,B,435969,435969,434444,435252,434444,436485,435769,435769,436485,87
85,test,1,con,1,z,Fri Jan 09 2026 14:04:32 GMT-0500 (Eastern Standard Time),445632.80000019073,hate,900,I,z,z,None,575,376.0,199.0,42,2,2007.8000001907349,443625.0,9031,hate,AF,B,438119,438119,436494,437402,436494,438502,437919,437919,438502,88
86,test,1,con,1,m,Fri Jan 09 2026 14:04:32 GMT-0500 (Eastern Standard Time),447515.5,rock,900,I,m,m,None,447,247.0,200.0,74,2,1874.5,445641.0,9031,rock,AF,B,440135,440135,438510,439419,438510,440385,439935,439935,440385,89
87,test,1,con,1,z,Fri Jan 09 2026 14:04:32 GMT-0500 (Eastern Standard Time),449515.9000005722,rage,800,I,z,z,None,663,448.0,215.0,49,2,1995.1999998092651,447520.70000076294,9031,rage,AF,B,441935,441935,440390,441202,440390,442385,441720,441720,442385,90
88,test,1,con,1,m,Fri Jan 09 2026 14:04:32 GMT-0500 (Eastern Standard Time),451399.4000005722,jacket,900,I,m,m,None,435,236.0,199.0,98,2,1875.6999998092651,449523.70000076294,9031,jacket,AF,B,444019,444019,442393,443302,442393,444269,443819,443819,444268,91
89,test,1,con,1,m,Fri Jan 09 2026 14:04:32 GMT-0500 (Eastern Standard Time),453316.10000038147,step,900,I,m,m,None,473,273.0,200.0,66,2,1906.3999996185303,451409.70000076294,9031,step,AF,B,445902,445902,444279,445186,444279,446185,445702,445702,446185,92
89,test,1,inc,0,m,Fri Jan 09 2026 14:04:32 GMT-0500 (Eastern Standard Time),455182.9000005722,elated,800,I,z,z,None,528,328.0,200.0,125,2,1859.0,453323.9000005722,9031,window,AF,B,447719,447719,446193,447002,446193,448052,447518,447518,448052,93
90,test,1,inc,1,z,Fri Jan 09 2026 14:04:32 GMT-0500 (Eastern Standard Time),457449.30000019073,window,1100,I,z,z,None,616,417.0,199.0,64,2,2258.0,455191.30000019073,9031,temper,AF,B,449886,449886,448060,449169,448061,450319,449686,449686,450318,94
91,test,1,con,1,z,Fri Jan 09 2026 14:04:32 GMT-0500 (Eastern Standard Time),459549.20000076294,elated,1100,I,z,z,None,462,262.0,200.0,4,2,2091.6000003814697,457457.60000038147,9031,elated,AF,B,452152,452152,450327,451436,450327,452418,451952,451952,452418,95
92,test,1,con,1,m,Fri Jan 09 2026 14:04:32 GMT-0500 (Eastern Standard Time),461616.10000038147,bell,1100,I,m,m,None,427,227.0,200.0,84,2,2061.8999996185303,459554.20000076294,9031,bell,AF,B,454252,454252,452423,453536,452424,454485,454052,454052,454485,96
93,test,1,con,1,z,Fri Jan 09 2026 14:04:32 GMT-0500 (Eastern Standard Time),463816.20000076294,temper,1000,I,z,z,None,652,452.0,200.0,59,2,2192.9000005722046,461623.30000019073,9031,temper,AF,B,456219,456219,454492,455502,454493,456685,456019,456019,456685,97
94,test,1,con,1,z,Fri Jan 09 2026 14:04:32 GMT-0500 (Eastern Standard Time),465765.9000005722,kind,900,I,z,z,None,504,304.0,200.0,10,2,1941.6999998092651,463824.20000076294,9031,kind,AF,B,458319,458319,456693,457602,456694,458635,458119,458119,458635,98
95,test,1,con,1,m,Fri Jan 09 2026 14:04:32 GMT-0500 (Eastern Standard Time),467849.4000005722,rock,1100,I,m,m,None,434,234.0,200.0,76,2,2074.800000190735,465774.60000038147,9031,rock,AF,B,460469,460469,458644,459753,458644,460719,460269,460269,460718,99
96,test,1,inc,1,m,Fri Jan 09 2026 14:04:32 GMT-0500 (Eastern Standard Time),469966.20000076294,kind,900,I,m,m,None,679,479.0,200.0,78,2,2102.800000190735,467863.4000005722,9031,rock,AF,B,462352,462352,460732,461636,460733,462835,462152,462152,462835,100
97,test,1,con,1,z,Fri Jan 09 2026 14:04:32 GMT-0500 (Eastern Standard Time),471916.0,temper,900,I,z,z,None,513,314.0,199.0,58,2,1941.0999994277954,469974.9000005722,9031,temper,AF,B,464469,464469,462844,463752,462844,464785,464269,464269,464785,101
98,test,1,con,1,m,Fri Jan 09 2026 14:04:32 GMT-0500 (Eastern Standard Time),473716.10000038147,remote,800,I,m,m,None,456,256.0,200.0,113,2,1792.3000001907349,471923.80000019073,9031,remote,AF,B,466319,466319,464793,465602,464793,466585,466119,466119,466585,102
99,test,1,con,1,m,Fri Jan 09 2026 14:04:32 GMT-0500 (Eastern Standard Time),475766.20000076294,napkin,1100,I,m,m,None,403,204.0,199.0,108,2,2039.1000003814697,473727.10000038147,9031,napkin,AF,B,468419,468419,466596,467702,466596,468635,468219,468219,468635,103
100,test,1,con,1,m,Fri Jan 09 2026 14:04:32 GMT-0500 (Eastern Standard Time),477532.80000019073,rock,800,I,m,m,None,429,230.0,199.0,73,2,1758.3000001907349,475774.5,9031,rock,AF,B,470169,470169,468644,469452,468644,470402,469969,469969,470402,104
101,test,1,inc,1,z,Fri Jan 09 2026 14:04:32 GMT-0500 (Eastern Standard Time),479732.9000005722,film,1100,I,z,z,None,554,355.0,199.0,48,2,2192.199999809265,477540.70000076294,9031,hate,AF,B,472236,472236,470410,471519,470410,472602,472036,472036,472602,105
102,test,1,inc,1,m,Fri Jan 09 2026 14:04:32 GMT-0500 (Eastern Standard Time),481649.60000038147,rage,800,I,m,m,None,574,375.0,199.0,69,2,1907.8000001907349,479741.80000019073,9031,step,AF,B,474136,474136,472611,473419,472611,474519,473936,473936,474519,106
103,test,1,inc,1,z,Fri Jan 09 2026 14:04:32 GMT-0500 (Eastern Standard Time),483782.80000019073,remote,1000,I,z,z,None,587,387.0,200.0,39,2,2124.800000190735,481658.0,9031,brutal,AF,B,476252,476252,474527,475536,474527,476652,476052,476052,476652,107
104,test,1,inc,1,m,Fri Jan 09 2026 14:04:32 GMT-0500 (Eastern Standard Time),486049.20000076294,hate,1100,I,m,m,None,624,425.0,199.0,72,2,2258.0,483791.20000076294,9031,step,AF,B,478486,478486,476660,477769,476661,478918,478285,478286,478918,108
105,test,1,inc,1,z,Fri Jan 09 2026 14:04:32 GMT-0500 (Eastern Standard Time),488315.9000005722,bell,1000,I,z,z,None,731,531.0,200.0,55,2,2258.1000003814697,486057.80000019073,9031,rage,AF,B,480652,480652,478927,479936,478927,481185,480452,480452,481185,109
106,test,1,inc,1,m,Fri Jan 09 2026 14:04:32 GMT-0500 (Eastern Standard Time),490282.70000076294,brutal,900,I,m,m,None,531,332.0,199.0,102,2,1958.3000001907349,488324.4000005722,9031,jacket,AF,B,482819,482819,481193,482102,481194,483152,482619,482619,483152,110
107,test,1,con,1,z,Fri Jan 09 2026 14:04:32 GMT-0500 (Eastern Standard Time),492049.5,kind,800,I,z,z,None,423,224.0,199.0,9,2,1759.0999994277954,490290.4000005722,9031,kind,AF,B,484686,484686,483159,483969,483160,484919,484485,484486,484918,111
108,test,1,con,1,m,Fri Jan 09 2026 14:04:32 GMT-0500 (Eastern Standard Time),493999.5,rock,1000,I,m,m,None,411,211.0,200.0,75,2,1937.8999996185303,492061.60000038147,9031,rock,AF,B,486652,486652,484931,485936,484931,486869,486452,486452,486869,112
109,test,1,inc,1,m,Fri Jan 09 2026 14:04:32 GMT-0500 (Eastern Standard Time),496199.5,hate,1100,I,m,m,None,553,353.0,200.0,80,2,2191.0,494008.5,9031,rock,AF,B,488702,488702,486878,487986,486878,489069,488502,488502,489068,113
110,test,1,inc,1,m,Fri Jan 09 2026 14:04:32 GMT-0500 (Eastern Standard Time),498116.10000038147,elated,800,I,m,m,None,573,373.0,200.0,117,2,1908.6000003814697,496207.5,9031,remote,AF,B,490602,490602,489077,489885,489077,490985,490402,490402,490985,114
111,test,1,inc,1,m,Fri Jan 09 2026 14:04:32 GMT-0500 (Eastern Standard Time),500249.4000005722,love,1000,I,m,m,None,583,384.0,199.0,71,2,2118.5,498130.9000005722,9031,step,AF,B,492719,492719,491000,492002,491001,493118,492519,492519,493118,115
112,test,1,inc,1,z,Fri Jan 09 2026 14:04:32 GMT-0500 (Eastern Standard Time),502216.10000038147,rock,900,I,z,z,None,519,319.0,200.0,46,2,1958.8000001907349,500257.30000019073,9031,hate,AF,B,494752,494752,493126,494035,493127,495085,494552,494552,495085,116
113,test,1,con,1,m,Fri Jan 09 2026 14:04:32 GMT-0500 (Eastern Standard Time),504166.20000076294,remote,1000,I,m,m,None,403,204.0,199.0,115,2,1939.8000001907349,502226.4000005722,9031,remote,AF,B,496819,496819,495095,496102,495096,497035,496619,496619,497035,117
114,test,1,con,1,m,Fri Jan 09 2026 14:04:32 GMT-0500 (Eastern Standard Time),506049.5,jacket,800,I,m,m,None,541,342.0,199.0,97,2,1874.5999994277954,504174.9000005722,9031,jacket,AF,B,498569,498569,497044,497852,497044,498919,498369,498369,498918,118
115,test,1,con,1,z,Fri Jan 09 2026 14:04:32 GMT-0500 (Eastern Standard Time),507866.10000038147,love,800,I,z,z,None,467,267.0,200.0,17,2,1808.6999998092651,506057.4000005722,9031,love,AF,B,500452,500452,498926,499736,498927,500735,500252,500252,500735,119
116,test,1,inc,1,z,Fri Jan 09 2026 14:04:32 GMT-0500 (Eastern Standard Time),510132.80000019073,window,1100,I,z,z,None,621,422.0,199.0,8,2,2258.699999809265,507874.10000038147,9031,elated,AF,B,502569,502569,500743,501852,500743,503002,502369,502369,503002,120
117,test,1,con,1,z,Fri Jan 09 2026 14:04:32 GMT-0500 (Eastern Standard Time),512266.0,rage,1100,I,z,z,None,482,283.0,199.0,52,2,2124.8999996185303,510141.10000038147,9031,rage,AF,B,504836,504836,503010,504119,503010,505135,504636,504636,505135,121
118,test,1,inc,1,z,Fri Jan 09 2026 14:04:32 GMT-0500 (Eastern Standard Time),514182.70000076294,step,800,I,z,z,None,569,370.0,199.0,13,2,1905.2000007629395,512277.5,9031,kind,AF,B,506669,506669,505147,505952,505147,507052,506469,506469,507052,122
119,test,1,con,1,z,Fri Jan 09 2026 14:04:32 GMT-0500 (Eastern Standard Time),516482.80000019073,rage,1000,I,z,z,None,757,557.0,200.0,51,2,2291.800000190735,514191.0,9031,rage,AF,B,508786,508786,507060,508069,507060,509352,508585,508585,509352,123
120,test,1,inc,1,m,Fri Jan 09 2026 14:04:32 GMT-0500 (Eastern Standard Time),518532.80000019073,love,1000,I,m,m,None,505,306.0,199.0,87,2,2042.0,516490.80000019073,9031,bell,AF,B,511085,511085,509360,510369,509360,511402,510886,510886,511402,124
121,test,1,inc,1,m,Fri Jan 09 2026 14:04:32 GMT-0500 (Eastern Standard Time),520482.80000019073,brutal,900,I,m,m,None,506,307.0,199.0,126,2,1938.5,518544.30000019073,9031,window,AF,B,513035,513036,511413,512319,511414,513352,512836,512836,513352,125
122,test,1,con,1,z,Fri Jan 09 2026 14:04:32 GMT-0500 (Eastern Standard Time),522649.30000019073,elated,1000,I,z,z,None,617,418.0,199.0,3,2,2158.300000190735,520491.0,9031,elated,AF,B,515085,515085,513360,514369,513360,515518,514885,514886,515518,126
123,test,1,inc,1,z,Fri Jan 09 2026 14:04:32 GMT-0500 (Eastern Standard Time),524849.5,window,1100,I,z,z,None,559,359.0,200.0,32,2,2190.7999992370605,522658.70000076294,9031,friend,AF,B,517352,517352,515528,516635,515528,517719,517152,517152,517718,127
124,test,1,inc,1,z,Fri Jan 09 2026 14:04:32 GMT-0500 (Eastern Standard Time),526932.8000001907,rock,900,I,z,z,None,639,439.0,200.0,14,2,2075.300000190735,524857.5,9031,kind,AF,B,519352,519352,517727,518635,517727,519802,519152,519152,519802,128
