Q,Q1,Q2,Q3,Q4,acc_sum,block,block_c,correct,correct_response,datetime,endtime,project,response,response_time,row_sel,session_number,squiggle1,squiggle1x,squiggle1y,squiggle2,squiggle2x,squiggle2y,squiggle3,squiggle3x,squiggle3y,squiggle4,squiggle4x,squiggle4y,start_end,starttime,subject_id,target_congruent,task,task_vers,testsquiggle,testsquigglex,testsquiggley,time_practice_delay,time_practice_fixation,time_practice_stimuli,time_practice_study,time_test_delay,time_test_fixation,time_test_stimuli,time_test_study,trial
1,1,0,0,0,1,prac,1,1,z,Wed Jan 21 2026 17:03:54 GMT-0500 (Eastern Standard Time),109314.0999994278,I,z,1436,1,3,116.bmp,-120,-120,117.bmp,120,-120,118.bmp,-120,120,119.bmp,120,120,10260.79999923706,99053.30000019073,9010,yes,SM,A,116.bmp,-120,-120,102456,96430,104474,98440,,,,,1
3,0,0,1,0,1,prac,1,0,m,Wed Jan 21 2026 17:03:54 GMT-0500 (Eastern Standard Time),119563.69999980927,I,z,1426,2,3,120.bmp,-120,-120,121.bmp,120,-120,122.bmp,-120,120,123.bmp,120,120,10241.5,109322.19999980927,9010,no,SM,A,123.bmp,-120,120,112723,106698,114740,108707,,,,,2
4,0,0,0,1,2,prac,1,1,m,Wed Jan 21 2026 17:03:54 GMT-0500 (Eastern Standard Time),129430.5,I,m,1048,3,3,124.bmp,-120,-120,125.bmp,120,-120,126.bmp,-120,120,127.bmp,120,120,9858.0,119572.5,9010,no,SM,A,124.bmp,120,120,122973,116949,124990,118957,,,,,3
2,0,1,0,0,2,prac,1,0,z,Wed Jan 21 2026 17:03:54 GMT-0500 (Eastern Standard Time),140263.5999994278,I,None,2016,4,3,128.bmp,-120,-120,129.bmp,120,-120,130.bmp,-120,120,131.bmp,120,120,10826.099999427795,129437.5,9010,yes,SM,A,129.bmp,120,-120,132840,126814,134857,128823,,,,,4
3,0,0,1,0,3,prac,1,1,z,Wed Jan 21 2026 17:03:54 GMT-0500 (Eastern Standard Time),150297.0999994278,I,z,1212,5,3,132.bmp,-120,-120,133.bmp,120,-120,134.bmp,-120,120,135.bmp,120,120,10024.89999961853,140272.19999980927,9010,yes,SM,A,134.bmp,-120,120,143673,137648,145690,139657,,,,,5
1,1,0,0,0,4,prac,1,1,m,Wed Jan 21 2026 17:03:54 GMT-0500 (Eastern Standard Time),160330.19999980927,I,m,1209,6,3,136.bmp,-120,-120,137.bmp,120,-120,138.bmp,-120,120,139.bmp,120,120,10023.300000190735,150306.89999961853,9010,no,SM,A,139.bmp,-120,-120,153707,147683,155724,149690,,,,,6
2,0,1,0,0,5,prac,1,1,m,Wed Jan 21 2026 17:03:54 GMT-0500 (Eastern Standard Time),170397.0,I,m,1241,7,3,140.bmp,-120,-120,141.bmp,120,-120,142.bmp,-120,120,143.bmp,120,120,10058.400000572205,160338.5999994278,9010,no,SM,A,140.bmp,120,-120,163740,157715,165757,159724,,,,,7
4,0,0,0,1,6,prac,1,1,z,Wed Jan 21 2026 17:03:54 GMT-0500 (Eastern Standard Time),180630.39999961853,I,z,1413,8,3,144.bmp,-120,-120,145.bmp,120,-120,146.bmp,-120,120,147.bmp,120,120,10223.099999427795,170407.30000019073,9010,yes,SM,A,147.bmp,120,120,173806,167784,175823,169790,,,,,8
4,0,0,0,1,1,test,1,1,m,Wed Jan 21 2026 17:03:54 GMT-0500 (Eastern Standard Time),198347.0999994278,I,m,1228,1,3,148.bmp,-120,-120,149.bmp,120,-120,150.bmp,-120,120,143.bmp,120,120,9279.39999961853,189067.69999980927,9010,no,SM,A,150.bmp,120,120,173806,167784,175823,169790,192473.0,186444.0,194490.0,188457.0,1
2,0,1,0,0,2,test,1,1,m,Wed Jan 21 2026 17:03:54 GMT-0500 (Eastern Standard Time),207430.19999980927,I,m,1017,2,3,101.bmp,-120,-120,102.bmp,120,-120,103.bmp,-120,120,104.bmp,120,120,9073.5,198356.69999980927,9010,no,SM,A,103.bmp,120,-120,173806,167784,175823,169790,201756.0,195733.0,203773.0,197739.0,2
1,1,0,0,0,3,test,1,1,z,Wed Jan 21 2026 17:03:54 GMT-0500 (Eastern Standard Time),217180.19999980927,I,z,1693,3,3,105.bmp,-120,-120,106.bmp,120,-120,107.bmp,-120,120,108.bmp,120,120,9742.300000190735,207437.89999961853,9010,yes,SM,A,105.bmp,-120,-120,173806,167784,175823,169790,210840.0,204814.0,212857.0,206823.0,3
3,0,0,1,0,3,test,1,0,m,Wed Jan 21 2026 17:03:54 GMT-0500 (Eastern Standard Time),226362.89999961853,I,z,1127,4,3,109.bmp,-120,-120,110.bmp,120,-120,111.bmp,-120,120,112.bmp,120,120,9175.300000190735,217187.5999994278,9010,no,SM,A,109.bmp,-120,120,173806,167784,175823,169790,220589.0,214564.0,222606.0,216572.0,4
2,0,1,0,0,4,test,1,1,z,Wed Jan 21 2026 17:03:54 GMT-0500 (Eastern Standard Time),235796.80000019073,I,z,1368,5,3,113.bmp,-120,-120,114.bmp,120,-120,115.bmp,-120,120,116.bmp,120,120,9429.800000190735,226367.0,9010,yes,SM,A,114.bmp,120,-120,173806,167784,175823,169790,229773.0,223743.0,231790.0,225757.0,5
3,0,0,1,0,5,test,1,1,z,Wed Jan 21 2026 17:03:54 GMT-0500 (Eastern Standard Time),244813.5,I,z,958,6,3,117.bmp,-120,-120,118.bmp,120,-120,119.bmp,-120,120,120.bmp,120,120,9007.199999809265,235806.30000019073,9010,yes,SM,A,119.bmp,-120,120,173806,167784,175823,169790,239206.0,233182.0,241223.0,235190.0,6
4,0,0,0,1,6,test,1,1,z,Wed Jan 21 2026 17:03:54 GMT-0500 (Eastern Standard Time),254196.69999980927,I,z,1318,7,3,121.bmp,-120,-120,122.bmp,120,-120,123.bmp,-120,120,124.bmp,120,120,9376.0,244820.69999980927,9010,yes,SM,A,124.bmp,120,120,173806,167784,175823,169790,248223.0,242197.0,250240.0,244207.0,7
2,0,1,0,0,7,test,1,1,m,Wed Jan 21 2026 17:03:54 GMT-0500 (Eastern Standard Time),263913.5,I,m,1663,8,3,125.bmp,-120,-120,126.bmp,120,-120,127.bmp,-120,120,128.bmp,120,120,9709.60000038147,254203.89999961853,9010,no,SM,A,125.bmp,120,-120,173806,167784,175823,169790,257606.0,251580.0,259623.0,253590.0,8
3,0,0,1,0,7,test,1,0,m,Wed Jan 21 2026 17:03:54 GMT-0500 (Eastern Standard Time),273980.30000019073,I,None,2016,9,3,129.bmp,-120,-120,130.bmp,120,-120,131.bmp,-120,120,132.bmp,120,120,10059.10000038147,263921.19999980927,9010,no,SM,A,130.bmp,-120,120,173806,167784,175823,169790,267323.0,261298.0,269340.0,263307.0,9
4,0,0,0,1,8,test,1,1,z,Wed Jan 21 2026 17:03:54 GMT-0500 (Eastern Standard Time),283213.0,I,z,1174,10,3,137.bmp,-120,-120,138.bmp,120,-120,139.bmp,-120,120,140.bmp,120,120,9226.199999809265,273986.80000019073,9010,yes,SM,A,140.bmp,120,120,173806,167784,175823,169790,277389.0,271363.0,279407.0,273373.0,10
3,0,0,1,0,9,test,1,1,z,Wed Jan 21 2026 17:03:54 GMT-0500 (Eastern Standard Time),292246.5,I,z,982,11,3,133.bmp,-120,-120,134.bmp,120,-120,135.bmp,-120,120,136.bmp,120,120,9029.0,283217.5,9010,yes,SM,A,135.bmp,-120,120,173806,167784,175823,169790,286623.0,280594.0,288640.0,282606.0,11
2,0,1,0,0,10,test,1,1,m,Wed Jan 21 2026 17:03:54 GMT-0500 (Eastern Standard Time),301380.0999994278,I,m,1068,12,3,141.bmp,-120,-120,142.bmp,120,-120,143.bmp,-120,120,144.bmp,120,120,9127.29999923706,292252.80000019073,9010,no,SM,A,141.bmp,120,-120,173806,167784,175823,169790,295656.0,289629.0,297673.0,291640.0,12
3,0,0,1,0,11,test,1,1,m,Wed Jan 21 2026 17:03:54 GMT-0500 (Eastern Standard Time),310629.89999961853,I,m,1183,13,3,145.bmp,-120,-120,146.bmp,120,-120,147.bmp,-120,120,148.bmp,120,120,9241.0,301388.89999961853,9010,no,SM,A,146.bmp,-120,120,173806,167784,175823,169790,304790.0,298765.0,306807.0,300773.0,13
1,1,0,0,0,12,test,1,1,z,Wed Jan 21 2026 17:03:54 GMT-0500 (Eastern Standard Time),320230.0999994278,I,z,1532,14,3,149.bmp,-120,-120,150.bmp,120,-120,104.bmp,-120,120,101.bmp,120,120,9592.599999427795,310637.5,9010,yes,SM,A,149.bmp,-120,-120,173806,167784,175823,169790,314040.0,308014.0,316057.0,310023.0,14
4,0,0,0,1,12,test,1,0,m,Wed Jan 21 2026 17:03:54 GMT-0500 (Eastern Standard Time),329680.0999994278,I,z,1389,15,3,110.bmp,-120,-120,111.bmp,120,-120,112.bmp,-120,120,113.bmp,120,120,9442.29999923706,320237.80000019073,9010,no,SM,A,111.bmp,120,120,173806,167784,175823,169790,323640.0,317614.0,325657.0,319623.0,15
1,1,0,0,0,13,test,1,1,m,Wed Jan 21 2026 17:03:54 GMT-0500 (Eastern Standard Time),338996.5999994278,I,m,1250,16,3,102.bmp,-120,-120,103.bmp,120,-120,104.bmp,-120,120,105.bmp,120,120,9308.89999961853,329687.69999980927,9010,no,SM,A,105.bmp,-120,-120,173806,167784,175823,169790,333090.0,327064.0,335107.0,329073.0,16
3,0,0,1,0,13,test,1,0,m,Wed Jan 21 2026 17:03:54 GMT-0500 (Eastern Standard Time),348696.5999994278,I,z,1647,17,3,122.bmp,-120,-120,123.bmp,120,-120,124.bmp,-120,120,125.bmp,120,120,9692.5,339004.0999994278,9010,no,SM,A,122.bmp,-120,120,173806,167784,175823,169790,342406.0,336380.0,344423.0,338390.0,17
1,1,0,0,0,14,test,1,1,z,Wed Jan 21 2026 17:03:54 GMT-0500 (Eastern Standard Time),357829.89999961853,I,z,1082,18,3,106.bmp,-120,-120,107.bmp,120,-120,108.bmp,-120,120,109.bmp,120,120,9124.0,348705.89999961853,9010,yes,SM,A,106.bmp,-120,-120,173806,167784,175823,169790,352106.0,346082.0,354123.0,348090.0,18
2,0,1,0,0,15,test,1,1,z,Wed Jan 21 2026 17:03:54 GMT-0500 (Eastern Standard Time),367346.69999980927,I,z,1453,19,3,126.bmp,-120,-120,127.bmp,120,-120,128.bmp,-120,120,129.bmp,120,120,9510.199999809265,357836.5,9010,yes,SM,A,127.bmp,120,-120,173806,167784,175823,169790,361240.0,355213.0,363257.0,357223.0,19
3,0,0,1,0,16,test,1,1,z,Wed Jan 21 2026 17:03:54 GMT-0500 (Eastern Standard Time),376496.69999980927,I,z,1089,20,3,130.bmp,-120,-120,131.bmp,120,-120,132.bmp,-120,120,133.bmp,120,120,9143.199999809265,367353.5,9010,yes,SM,A,132.bmp,-120,120,173806,167784,175823,169790,370756.0,364730.0,372773.0,366740.0,20
1,1,0,0,0,16,test,1,0,m,Wed Jan 21 2026 17:03:54 GMT-0500 (Eastern Standard Time),386563.30000019073,I,None,2016,21,3,114.bmp,-120,-120,115.bmp,120,-120,116.bmp,-120,120,117.bmp,120,120,10058.300000190735,376505.0,9010,no,SM,A,116.bmp,-120,-120,173806,167784,175823,169790,379906.0,373881.0,381923.0,375890.0,21
4,0,0,0,1,17,test,1,1,z,Wed Jan 21 2026 17:03:54 GMT-0500 (Eastern Standard Time),395929.89999961853,I,z,1311,22,3,118.bmp,-120,-120,119.bmp,120,-120,120.bmp,-120,120,121.bmp,120,120,9358.89999961853,386571.0,9010,yes,SM,A,121.bmp,120,120,173806,167784,175823,169790,389973.0,383947.0,391990.0,385957.0,22
1,1,0,0,0,18,test,1,1,m,Wed Jan 21 2026 17:03:54 GMT-0500 (Eastern Standard Time),405430.0,I,m,1449,23,3,134.bmp,-120,-120,135.bmp,120,-120,136.bmp,-120,120,137.bmp,120,120,9489.5,395940.5,9010,no,SM,A,137.bmp,-120,-120,173806,167784,175823,169790,399340.0,393317.0,401357.0,395323.0,23
2,0,1,0,0,19,test,1,1,z,Wed Jan 21 2026 17:03:54 GMT-0500 (Eastern Standard Time),414579.89999961853,I,z,1084,24,3,142.bmp,-120,-120,143.bmp,120,-120,144.bmp,-120,120,145.bmp,120,120,9143.599999427795,405436.30000019073,9010,yes,SM,A,143.bmp,120,-120,173806,167784,175823,169790,408839.0,402813.0,410857.0,404823.0,24
4,0,0,0,1,20,test,1,1,m,Wed Jan 21 2026 17:03:54 GMT-0500 (Eastern Standard Time),423863.0,I,m,1231,25,3,146.bmp,-120,-120,147.bmp,120,-120,148.bmp,-120,120,149.bmp,120,120,9276.699999809265,414586.30000019073,9010,no,SM,A,148.bmp,120,120,173806,167784,175823,169790,417990.0,411963.0,420007.0,413973.0,25
1,1,0,0,0,21,test,1,1,z,Wed Jan 21 2026 17:03:54 GMT-0500 (Eastern Standard Time),433379.89999961853,I,z,1451,26,3,138.bmp,-120,-120,139.bmp,120,-120,140.bmp,-120,120,141.bmp,120,120,9509.300000190735,423870.5999994278,9010,yes,SM,A,138.bmp,-120,-120,173806,167784,175823,169790,427273.0,421247.0,429290.0,423257.0,26
4,0,0,0,1,21,test,1,0,z,Wed Jan 21 2026 17:03:54 GMT-0500 (Eastern Standard Time),443030.0999994278,I,m,1599,27,3,150.bmp,-120,-120,111.bmp,120,-120,101.bmp,-120,120,102.bmp,120,120,9643.099999427795,433387.0,9010,yes,SM,A,102.bmp,120,120,173806,167784,175823,169790,436790.0,430763.0,438806.0,432773.0,27
3,0,0,1,0,21,test,1,0,m,Wed Jan 21 2026 17:03:54 GMT-0500 (Eastern Standard Time),453096.5999994278,I,None,2015,28,3,103.bmp,-120,-120,104.bmp,120,-120,105.bmp,-120,120,106.bmp,120,120,10059.89999961853,443036.69999980927,9010,no,SM,A,103.bmp,-120,120,173806,167784,175823,169790,446440.0,440413.0,448457.0,442423.0,28
2,0,1,0,0,22,test,1,1,z,Wed Jan 21 2026 17:03:54 GMT-0500 (Eastern Standard Time),462046.0999994278,I,z,889,29,3,107.bmp,-120,-120,108.bmp,120,-120,109.bmp,-120,120,110.bmp,120,120,8942.199999809265,453103.89999961853,9010,yes,SM,A,108.bmp,120,-120,173806,167784,175823,169790,456507.0,450480.0,458523.0,452490.0,29
3,0,0,1,0,23,test,1,1,z,Wed Jan 21 2026 17:03:54 GMT-0500 (Eastern Standard Time),471379.80000019073,I,z,1269,30,3,111.bmp,-120,-120,112.bmp,120,-120,113.bmp,-120,120,114.bmp,120,120,9330.300000190735,462049.5,9010,yes,SM,A,113.bmp,-120,120,173806,167784,175823,169790,465456.0,459426.0,467473.0,461439.0,30
1,1,0,0,0,24,test,1,1,z,Wed Jan 21 2026 17:03:54 GMT-0500 (Eastern Standard Time),481246.5,I,z,1823,31,3,115.bmp,-120,-120,116.bmp,120,-120,117.bmp,-120,120,118.bmp,120,120,9857.800000190735,471388.69999980927,9010,yes,SM,A,115.bmp,-120,-120,173806,167784,175823,169790,474774.0,468765.0,476790.0,470773.0,31
2,0,1,0,0,25,test,1,1,m,Wed Jan 21 2026 17:03:54 GMT-0500 (Eastern Standard Time),490196.5,I,m,885,32,3,119.bmp,-120,-120,120.bmp,120,-120,121.bmp,-120,120,122.bmp,120,120,8940.5,481256.0,9010,no,SM,A,119.bmp,120,-120,173806,167784,175823,169790,484656.0,478632.0,486673.0,480640.0,32
4,0,0,0,1,26,test,1,1,z,Wed Jan 21 2026 17:03:54 GMT-0500 (Eastern Standard Time),499263.19999980927,I,z,1006,33,3,131.bmp,-120,-120,132.bmp,120,-120,133.bmp,-120,120,134.bmp,120,120,9058.89999961853,490204.30000019073,9010,yes,SM,A,134.bmp,120,120,173806,167784,175823,169790,493606.0,487581.0,495623.0,489590.0,33
2,0,1,0,0,27,test,1,1,z,Wed Jan 21 2026 17:03:54 GMT-0500 (Eastern Standard Time),508963.0999994278,I,z,1636,34,3,123.bmp,-120,-120,124.bmp,120,-120,125.bmp,-120,120,126.bmp,120,120,9692.0,499271.0999994278,9010,yes,SM,A,124.bmp,120,-120,173806,167784,175823,169790,502673.0,496647.0,504690.0,498656.0,34
4,0,0,0,1,28,test,1,1,m,Wed Jan 21 2026 17:03:54 GMT-0500 (Eastern Standard Time),517929.69999980927,I,m,911,35,3,127.bmp,-120,-120,128.bmp,120,-120,129.bmp,-120,120,130.bmp,120,120,8959.5,508970.19999980927,9010,no,SM,A,129.bmp,120,120,173806,167784,175823,169790,512373.0,506346.0,514390.0,508356.0,35
3,0,0,1,0,28,test,1,0,m,Wed Jan 21 2026 17:03:54 GMT-0500 (Eastern Standard Time),527830.0999994278,I,z,1850,36,3,135.bmp,-120,-120,136.bmp,120,-120,137.bmp,-120,120,138.bmp,120,120,9891.199999809265,517938.89999961853,9010,no,SM,A,135.bmp,-120,120,173806,167784,175823,169790,521339.0,515315.0,523356.0,517323.0,36
1,1,0,0,0,28,test,1,0,m,Wed Jan 21 2026 17:03:54 GMT-0500 (Eastern Standard Time),537263.1999998093,I,z,1373,37,3,139.bmp,-120,-120,140.bmp,120,-120,141.bmp,-120,120,142.bmp,120,120,9424.300000190735,527838.8999996185,9010,no,SM,A,140.bmp,-120,-120,173806,167784,175823,169790,531239.0,525215.0,533256.0,527223.0,37
2,0,1,0,0,29,test,1,1,m,Wed Jan 21 2026 17:03:54 GMT-0500 (Eastern Standard Time),546696.5,I,m,1380,38,3,143.bmp,-120,-120,144.bmp,120,-120,145.bmp,-120,120,146.bmp,120,120,9425.199999809265,537271.3000001907,9010,no,SM,A,145.bmp,120,-120,173806,167784,175823,169790,540673.0,534648.0,542690.0,536656.0,38
4,0,0,0,1,30,test,1,1,z,Wed Jan 21 2026 17:03:54 GMT-0500 (Eastern Standard Time),556163.0999994278,I,z,1402,39,3,147.bmp,-120,-120,148.bmp,120,-120,149.bmp,-120,120,150.bmp,120,120,9460.0,546703.0999994278,9010,yes,SM,A,150.bmp,120,120,173806,167784,175823,169790,550106.0,544079.0,552123.0,546089.0,39
3,0,0,1,0,31,test,1,1,m,Wed Jan 21 2026 17:03:54 GMT-0500 (Eastern Standard Time),565346.0,I,m,1119,40,3,104.bmp,-120,-120,105.bmp,120,-120,106.bmp,-120,120,107.bmp,120,120,9175.900000572205,556170.0999994278,9010,no,SM,A,105.bmp,-120,120,173806,167784,175823,169790,559573.0,553547.0,561590.0,555556.0,40
1,1,0,0,0,32,test,1,1,z,Wed Jan 21 2026 17:03:54 GMT-0500 (Eastern Standard Time),574562.8000001907,I,z,1152,41,3,108.bmp,-120,-120,109.bmp,120,-120,110.bmp,-120,120,111.bmp,120,120,9213.10000038147,565349.6999998093,9010,yes,SM,A,108.bmp,-120,-120,173806,167784,175823,169790,568756.0,562726.0,570773.0,564740.0,41
4,0,0,0,1,32,test,1,0,z,Wed Jan 21 2026 17:03:54 GMT-0500 (Eastern Standard Time),584629.8000001907,I,None,2016,42,3,112.bmp,-120,-120,113.bmp,120,-120,114.bmp,-120,120,115.bmp,120,120,10059.800000190735,574570.0,9010,yes,SM,A,115.bmp,120,120,173806,167784,175823,169790,577973.0,571946.0,579990.0,573956.0,42
1,1,0,0,0,33,test,1,1,z,Wed Jan 21 2026 17:03:54 GMT-0500 (Eastern Standard Time),593629.6999998093,I,z,941,43,3,116.bmp,-120,-120,117.bmp,120,-120,118.bmp,-120,120,119.bmp,120,120,8993.10000038147,584636.5999994278,9010,yes,SM,A,116.bmp,-120,-120,173806,167784,175823,169790,588039.0,582013.0,590056.0,584023.0,43
4,0,0,0,1,34,test,1,1,m,Wed Jan 21 2026 17:03:54 GMT-0500 (Eastern Standard Time),602846.3999996185,I,m,1158,44,3,104.bmp,-120,-120,101.bmp,120,-120,102.bmp,-120,120,103.bmp,120,120,9210.0,593636.3999996185,9010,no,SM,A,104.bmp,120,120,173806,167784,175823,169790,597039.0,591013.0,599056.0,593023.0,44
1,1,0,0,0,35,test,1,1,m,Wed Jan 21 2026 17:03:54 GMT-0500 (Eastern Standard Time),611946.3000001907,I,m,1044,45,3,128.bmp,-120,-120,129.bmp,120,-120,130.bmp,-120,120,131.bmp,120,120,9093.20000076294,602853.0999994278,9010,no,SM,A,131.bmp,-120,-120,173806,167784,175823,169790,606256.0,600229.0,608273.0,602239.0,45
1,1,0,0,0,36,test,1,1,m,Wed Jan 21 2026 17:03:54 GMT-0500 (Eastern Standard Time),621046.3000001907,I,m,1049,46,3,120.bmp,-120,-120,121.bmp,120,-120,122.bmp,-120,120,123.bmp,120,120,9090.10000038147,611956.1999998093,9010,no,SM,A,121.bmp,-120,-120,173806,167784,175823,169790,615356.0,609333.0,617373.0,611340.0,46
3,0,0,1,0,37,test,1,1,z,Wed Jan 21 2026 17:03:54 GMT-0500 (Eastern Standard Time),630646.0999994278,I,z,1548,47,3,124.bmp,-120,-120,125.bmp,120,-120,126.bmp,-120,120,127.bmp,120,120,9593.599999427795,621052.5,9010,yes,SM,A,126.bmp,-120,120,173806,167784,175823,169790,624456.0,618429.0,626473.0,620439.0,47
3,0,0,1,0,37,test,1,0,z,Wed Jan 21 2026 17:03:54 GMT-0500 (Eastern Standard Time),640713.0,I,None,2016,48,3,140.bmp,-120,-120,141.bmp,120,-120,142.bmp,-120,120,143.bmp,120,120,10059.199999809265,630653.8000001907,9010,yes,SM,A,142.bmp,-120,120,173806,167784,175823,169790,634056.0,628030.0,636073.0,630039.0,48
2,0,1,0,0,38,test,1,1,z,Wed Jan 21 2026 17:03:54 GMT-0500 (Eastern Standard Time),650046.1999998093,I,z,1274,49,3,136.bmp,-120,-120,137.bmp,120,-120,138.bmp,-120,120,139.bmp,120,120,9326.10000038147,640720.0999994278,9010,yes,SM,A,137.bmp,120,-120,173806,167784,175823,169790,644123.0,638096.0,646139.0,640106.0,49
3,0,0,1,0,39,test,1,1,m,Wed Jan 21 2026 17:03:54 GMT-0500 (Eastern Standard Time),659646.3000001907,I,m,1540,50,3,132.bmp,-120,-120,133.bmp,120,-120,134.bmp,-120,120,135.bmp,120,120,9591.0,650055.3000001907,9010,no,SM,A,132.bmp,-120,120,173806,167784,175823,169790,653456.0,647432.0,655473.0,649439.0,50
2,0,1,0,0,40,test,1,1,z,Wed Jan 21 2026 17:03:54 GMT-0500 (Eastern Standard Time),669179.6999998093,I,z,1477,51,3,144.bmp,-120,-120,145.bmp,120,-120,146.bmp,-120,120,147.bmp,120,120,9526.0,659653.6999998093,9010,yes,SM,A,145.bmp,120,-120,173806,167784,175823,169790,663056.0,657030.0,665072.0,659039.0,51
4,0,0,0,1,41,test,1,1,m,Wed Jan 21 2026 17:03:54 GMT-0500 (Eastern Standard Time),678479.5,I,m,1239,52,3,148.bmp,-120,-120,149.bmp,120,-120,150.bmp,-120,120,131.bmp,120,120,9291.900000572205,669187.5999994278,9010,no,SM,A,148.bmp,120,120,173806,167784,175823,169790,672589.0,666564.0,674606.0,668573.0,52
3,0,0,1,0,42,test,1,1,z,Wed Jan 21 2026 17:03:54 GMT-0500 (Eastern Standard Time),687746.3000001907,I,z,1203,53,3,101.bmp,-120,-120,102.bmp,120,-120,103.bmp,-120,120,104.bmp,120,120,9260.300000190735,678486.0,9010,yes,SM,A,103.bmp,-120,120,173806,167784,175823,169790,681889.0,675862.0,683906.0,677873.0,53
1,1,0,0,0,42,test,1,0,m,Wed Jan 21 2026 17:03:54 GMT-0500 (Eastern Standard Time),697812.8000001907,I,None,2016,54,3,105.bmp,-120,-120,106.bmp,120,-120,107.bmp,-120,120,108.bmp,120,120,10055.70000076294,687757.0999994278,9010,no,SM,A,107.bmp,-120,-120,173806,167784,175823,169790,691156.0,685134.0,693173.0,687139.0,54
4,0,0,0,1,43,test,1,1,z,Wed Jan 21 2026 17:03:54 GMT-0500 (Eastern Standard Time),707179.6999998093,I,z,1309,55,3,109.bmp,-120,-120,110.bmp,120,-120,111.bmp,-120,120,112.bmp,120,120,9359.10000038147,697820.5999994278,9010,yes,SM,A,112.bmp,120,120,173806,167784,175823,169790,701223.0,695197.0,703239.0,697206.0,55
2,0,1,0,0,44,test,1,1,m,Wed Jan 21 2026 17:03:54 GMT-0500 (Eastern Standard Time),716279.5,I,m,1048,56,3,113.bmp,-120,-120,114.bmp,120,-120,115.bmp,-120,120,116.bmp,120,120,9092.800000190735,707186.6999998093,9010,no,SM,A,113.bmp,120,-120,173806,167784,175823,169790,710589.0,704563.0,712606.0,706573.0,56
4,0,0,0,1,45,test,1,1,m,Wed Jan 21 2026 17:03:54 GMT-0500 (Eastern Standard Time),725296.1999998093,I,m,955,57,3,117.bmp,-120,-120,118.bmp,120,-120,119.bmp,-120,120,120.bmp,120,120,9009.39999961853,716286.8000001907,9010,no,SM,A,118.bmp,120,120,173806,167784,175823,169790,719689.0,713663.0,721706.0,715673.0,57
3,0,0,1,0,46,test,1,1,z,Wed Jan 21 2026 17:03:54 GMT-0500 (Eastern Standard Time),735179.5999994278,I,z,1826,58,3,121.bmp,-120,-120,122.bmp,120,-120,123.bmp,-120,120,124.bmp,120,120,9877.099999427795,725302.5,9010,yes,SM,A,123.bmp,-120,120,173806,167784,175823,169790,728706.0,722679.0,730723.0,724689.0,58
2,0,1,0,0,47,test,1,1,m,Wed Jan 21 2026 17:03:54 GMT-0500 (Eastern Standard Time),744046.1999998093,I,m,807,59,3,125.bmp,-120,-120,126.bmp,120,-120,127.bmp,-120,120,128.bmp,120,120,8859.39999961853,735186.8000001907,9010,no,SM,A,128.bmp,120,-120,173806,167784,175823,169790,738589.0,732563.0,740606.0,734573.0,59
1,1,0,0,0,48,test,1,1,z,Wed Jan 21 2026 17:03:54 GMT-0500 (Eastern Standard Time),753146.1999998093,I,z,1044,60,3,129.bmp,-120,-120,130.bmp,120,-120,131.bmp,-120,120,132.bmp,120,120,9093.89999961853,744052.3000001907,9010,yes,SM,A,129.bmp,-120,-120,173806,167784,175823,169790,747456.0,741429.0,749473.0,743439.0,60
2,0,1,0,0,49,test,1,1,z,Wed Jan 21 2026 17:03:54 GMT-0500 (Eastern Standard Time),762463.0,I,z,1256,61,3,133.bmp,-120,-120,134.bmp,120,-120,135.bmp,-120,120,136.bmp,120,120,9306.300000190735,753156.6999998093,9010,yes,SM,A,134.bmp,120,-120,173806,167784,175823,169790,756556.0,750533.0,758573.0,752539.0,61
4,0,0,0,1,50,test,1,1,z,Wed Jan 21 2026 17:03:54 GMT-0500 (Eastern Standard Time),772012.5,I,z,1492,62,3,141.bmp,-120,-120,142.bmp,120,-120,143.bmp,-120,120,144.bmp,120,120,9540.5,762472.0,9010,yes,SM,A,144.bmp,120,120,173806,167784,175823,169790,765872.0,759848.0,767889.0,761855.0,62
1,1,0,0,0,50,test,1,0,m,Wed Jan 21 2026 17:03:54 GMT-0500 (Eastern Standard Time),781779.3999996185,I,z,1702,63,3,145.bmp,-120,-120,146.bmp,120,-120,147.bmp,-120,120,148.bmp,120,120,9763.5,772015.8999996185,9010,no,SM,A,145.bmp,-120,120,173806,167784,175823,169790,775422.0,769392.0,777439.0,771406.0,63
2,0,1,0,0,51,test,1,1,z,Wed Jan 21 2026 17:03:54 GMT-0500 (Eastern Standard Time),790746.1999998093,I,z,928,64,3,149.bmp,-120,-120,150.bmp,120,-120,112.bmp,-120,120,101.bmp,120,120,8958.199999809265,781788.0,9010,yes,SM,A,150.bmp,120,-120,173806,167784,175823,169790,785188.0,779164.0,787189.0,781173.0,64
4,0,0,0,1,52,test,1,1,m,Wed Jan 21 2026 17:03:54 GMT-0500 (Eastern Standard Time),799962.6999998093,I,m,1160,65,3,102.bmp,-120,-120,103.bmp,120,-120,104.bmp,-120,120,105.bmp,120,120,9209.5,790753.1999998093,9010,no,SM,A,104.bmp,120,120,173806,167784,175823,169790,794156.0,788129.0,796173.0,790139.0,65
3,0,0,1,0,53,test,1,1,m,Wed Jan 21 2026 17:03:54 GMT-0500 (Eastern Standard Time),809429.6999998093,I,m,1416,66,3,106.bmp,-120,-120,107.bmp,120,-120,108.bmp,-120,120,109.bmp,120,120,9459.39999961853,799970.3000001907,9010,no,SM,A,109.bmp,-120,120,173806,167784,175823,169790,803372.0,797347.0,805389.0,799356.0,66
2,0,1,0,0,54,test,1,1,m,Wed Jan 21 2026 17:03:54 GMT-0500 (Eastern Standard Time),818912.8000001907,I,m,1421,67,3,137.bmp,-120,-120,138.bmp,120,-120,139.bmp,-120,120,140.bmp,120,120,9474.60000038147,809438.1999998093,9010,no,SM,A,139.bmp,120,-120,173806,167784,175823,169790,812839.0,806814.0,814856.0,808823.0,67
3,0,0,1,0,55,test,1,1,z,Wed Jan 21 2026 17:03:54 GMT-0500 (Eastern Standard Time),828046.0999994278,I,z,1074,68,3,110.bmp,-120,-120,111.bmp,120,-120,112.bmp,-120,120,113.bmp,120,120,9125.29999923706,818920.8000001907,9010,yes,SM,A,112.bmp,-120,120,173806,167784,175823,169790,822322.0,816297.0,824339.0,818306.0,68
1,1,0,0,0,56,test,1,1,m,Wed Jan 21 2026 17:03:54 GMT-0500 (Eastern Standard Time),837045.8999996185,I,m,948,69,3,114.bmp,-120,-120,115.bmp,120,-120,116.bmp,-120,120,117.bmp,120,120,8993.300000190735,828052.5999994278,9010,no,SM,A,115.bmp,-120,-120,173806,167784,175823,169790,831456.0,825429.0,833473.0,827439.0,69
2,0,1,0,0,57,test,1,1,m,Wed Jan 21 2026 17:03:54 GMT-0500 (Eastern Standard Time),846179.3000001907,I,m,1068,70,3,118.bmp,-120,-120,119.bmp,120,-120,120.bmp,-120,120,121.bmp,120,120,9126.70000076294,837052.5999994278,9010,no,SM,A,120.bmp,120,-120,173806,167784,175823,169790,840456.0,834429.0,842473.0,836439.0,70
4,0,0,0,1,58,test,1,1,z,Wed Jan 21 2026 17:03:54 GMT-0500 (Eastern Standard Time),855762.6999998093,I,z,1519,71,3,122.bmp,-120,-120,123.bmp,120,-120,124.bmp,-120,120,125.bmp,120,120,9576.800000190735,846185.8999996185,9010,yes,SM,A,125.bmp,120,120,173806,167784,175823,169790,849589.0,843562.0,851606.0,845572.0,71
1,1,0,0,0,59,test,1,1,z,Wed Jan 21 2026 17:03:54 GMT-0500 (Eastern Standard Time),865562.8000001907,I,z,1744,72,3,126.bmp,-120,-120,127.bmp,120,-120,128.bmp,-120,120,129.bmp,120,120,9792.0,855770.8000001907,9010,yes,SM,A,126.bmp,-120,-120,173806,167784,175823,169790,859172.0,853147.0,861189.0,855156.0,72
2,0,1,0,0,60,test,1,1,z,Wed Jan 21 2026 17:03:54 GMT-0500 (Eastern Standard Time),875312.8000001907,I,z,1688,73,3,130.bmp,-120,-120,131.bmp,120,-120,132.bmp,-120,120,133.bmp,120,120,9743.20000076294,865569.5999994278,9010,yes,SM,A,131.bmp,120,-120,173806,167784,175823,169790,868972.0,862946.0,870989.0,864956.0,73
4,0,0,0,1,61,test,1,1,m,Wed Jan 21 2026 17:03:54 GMT-0500 (Eastern Standard Time),884212.6999998093,I,m,834,74,3,134.bmp,-120,-120,135.bmp,120,-120,136.bmp,-120,120,137.bmp,120,120,8892.699999809265,875320.0,9010,no,SM,A,136.bmp,120,120,173806,167784,175823,169790,878722.0,872696.0,880739.0,874706.0,74
2,0,1,0,0,62,test,1,1,m,Wed Jan 21 2026 17:03:54 GMT-0500 (Eastern Standard Time),893129.3000001907,I,m,862,75,3,138.bmp,-120,-120,139.bmp,120,-120,140.bmp,-120,120,141.bmp,120,120,8910.20000076294,884219.0999994278,9010,no,SM,A,141.bmp,120,-120,173806,167784,175823,169790,887622.0,881595.0,889639.0,883606.0,75
1,1,0,0,0,63,test,1,1,z,Wed Jan 21 2026 17:03:54 GMT-0500 (Eastern Standard Time),902079.3000001907,I,z,889,76,3,142.bmp,-120,-120,143.bmp,120,-120,144.bmp,-120,120,145.bmp,120,120,8941.5,893137.8000001907,9010,yes,SM,A,142.bmp,-120,-120,173806,167784,175823,169790,896539.0,890514.0,898556.0,892523.0,76
3,0,0,1,0,64,test,1,1,z,Wed Jan 21 2026 17:03:54 GMT-0500 (Eastern Standard Time),911512.5999994278,I,z,1379,77,3,150.bmp,-120,-120,111.bmp,120,-120,101.bmp,-120,120,102.bmp,120,120,9425.89999961853,902086.6999998093,9010,yes,SM,A,101.bmp,-120,120,173806,167784,175823,169790,905489.0,899463.0,907506.0,901472.0,77
1,1,0,0,0,65,test,1,1,m,Wed Jan 21 2026 17:03:54 GMT-0500 (Eastern Standard Time),920779.3000001907,I,m,1210,78,3,146.bmp,-120,-120,147.bmp,120,-120,148.bmp,-120,120,149.bmp,120,120,9260.10000038147,911519.1999998093,9010,no,SM,A,147.bmp,-120,-120,173806,167784,175823,169790,914922.0,908895.0,916939.0,910906.0,78
4,0,0,0,1,66,test,1,1,m,Wed Jan 21 2026 17:03:54 GMT-0500 (Eastern Standard Time),930029.3000001907,I,m,1191,79,3,107.bmp,-120,-120,108.bmp,120,-120,109.bmp,-120,120,110.bmp,120,120,9242.300000190735,920787.0,9010,no,SM,A,107.bmp,120,120,173806,167784,175823,169790,924189.0,918163.0,926206.0,920172.0,79
3,0,0,1,0,67,test,1,1,m,Wed Jan 21 2026 17:03:54 GMT-0500 (Eastern Standard Time),939512.5,I,m,1429,80,3,103.bmp,-120,-120,104.bmp,120,-120,105.bmp,-120,120,106.bmp,120,120,9474.0,930038.5,9010,no,SM,A,106.bmp,-120,120,173806,167784,175823,169790,933439.0,927415.0,935456.0,929422.0,80
