acc_sum,block,block_c,condition,correct,correct_response,datetime,endtime,flanker,jitter,project,response,response_test_buffer_response,response_test_target_response,response_time,response_time_test_buffer_response,response_time_test_target_response,row_sel,session_number,start_end,starttime,subject_id,target,task,task_vers,time_test_buffer,time_test_buffer_response,time_test_constants,time_test_flanker,time_test_jitter,time_test_logger,time_test_target,time_test_target_response,time_test_variables,trial
1,prac,1,inc,1,z,Wed Jun 24 2026 14:40:03 GMT-0400 (Eastern Daylight Time),113206.29999995232,film,900,I,z,,,940,,,14,1,3140.6999999284744,110065.60000002384,9090,hate,AF,B,,,,,,,,,,1
2,prac,1,inc,1,z,Wed Jun 24 2026 14:40:03 GMT-0400 (Eastern Daylight Time),115939.5,rock,900,I,z,,,527,,,10,1,2721.5,113218.0,9090,kind,AF,B,,,,,,,,,,2
3,prac,1,inc,1,z,Wed Jun 24 2026 14:40:03 GMT-0400 (Eastern Daylight Time),118822.69999992847,window,1100,I,z,,,475,,,16,1,2872.0999999046326,115950.60000002384,9090,temper,AF,B,,,,,,,,,,3
4,prac,1,con,1,m,Wed Jun 24 2026 14:40:03 GMT-0400 (Eastern Daylight Time),121939.39999997616,bell,1000,I,m,,,810,,,3,1,3104.100000023842,118835.29999995232,9090,bell,AF,B,,,,,,,,,,4
5,prac,1,con,1,z,Wed Jun 24 2026 14:40:03 GMT-0400 (Eastern Daylight Time),124506.10000002384,brutal,800,I,z,,,454,,,13,1,2556.2000000476837,121949.89999997616,9090,brutal,AF,B,,,,,,,,,,5
6,prac,1,con,1,z,Wed Jun 24 2026 14:40:03 GMT-0400 (Eastern Daylight Time),127439.39999997616,rage,1000,I,z,,,631,,,15,1,2923.0,124516.39999997616,9090,rage,AF,B,,,,,,,,,,6
7,prac,1,con,1,z,Wed Jun 24 2026 14:40:03 GMT-0400 (Eastern Daylight Time),129922.69999992847,elated,800,I,z,,,394,,,9,1,2473.2999999523163,127449.39999997616,9090,elated,AF,B,,,,,,,,,,7
8,prac,1,inc,1,m,Wed Jun 24 2026 14:40:03 GMT-0400 (Eastern Daylight Time),132689.29999995232,kind,900,I,m,,,562,,,2,1,2756.600000023842,129932.69999992847,9090,rock,AF,B,,,,,,,,,,8
9,prac,1,inc,1,m,Wed Jun 24 2026 14:40:03 GMT-0400 (Eastern Daylight Time),135522.5,elated,900,I,m,,,627,,,6,1,2822.7000000476837,132699.79999995232,9090,napkin,AF,B,,,,,,,,,,9
10,prac,1,con,1,m,Wed Jun 24 2026 14:40:03 GMT-0400 (Eastern Daylight Time),138239.39999997616,remote,1000,I,m,,,415,,,7,1,2704.7000000476837,135534.69999992847,9090,remote,AF,B,,,,,,,,,,10
11,prac,1,inc,1,z,Wed Jun 24 2026 14:40:03 GMT-0400 (Eastern Daylight Time),141306.10000002384,napkin,1100,I,z,,,654,,,12,1,3056.2000000476837,138249.89999997616,9090,friend,AF,B,,,,,,,,,,11
12,prac,1,inc,1,m,Wed Jun 24 2026 14:40:03 GMT-0400 (Eastern Daylight Time),144406.10000002384,hate,1100,I,m,,,691,,,4,1,3090.100000023842,141316.0,9090,film,AF,B,,,,,,,,,,12
13,prac,1,inc,1,m,Wed Jun 24 2026 14:40:03 GMT-0400 (Eastern Daylight Time),147422.69999992847,brutal,1100,I,m,,,615,,,8,1,3006.6999999284744,144416.0,9090,window,AF,B,,,,,,,,,,13
14,prac,1,con,1,z,Wed Jun 24 2026 14:40:03 GMT-0400 (Eastern Daylight Time),150139.39999997616,love,1000,I,z,,,403,,,11,1,2706.7000000476837,147432.69999992847,9090,love,AF,B,,,,,,,,,,14
15,prac,1,con,1,m,Wed Jun 24 2026 14:40:03 GMT-0400 (Eastern Daylight Time),152722.69999992847,step,800,I,m,,,479,,,1,1,2572.899999976158,150149.79999995232,9090,step,AF,B,,,,,,,,,,15
15,prac,1,con,0,m,Wed Jun 24 2026 14:40:03 GMT-0400 (Eastern Daylight Time),155289.39999997616,jacket,800,I,z,,,455,,,5,1,2557.2999999523163,152732.10000002384,9090,jacket,AF,B,,,,,,,,,,16
0,test,1,inc,0,z,Wed Jun 24 2026 14:40:03 GMT-0400 (Eastern Daylight Time),170772.89999997616,jacket,800,I,m,m,None,695,495.0,200.0,37,1,2025.1000000238419,168747.79999995232,9090,brutal,AF,B,164019,164019,162494,163303,162494,164519,163819,163819,164519,1
1,test,1,con,1,m,Wed Jun 24 2026 14:40:03 GMT-0400 (Eastern Daylight Time),172905.79999995232,bell,1000,I,m,m,None,587,388.0,199.0,83,1,2120.899999976158,170784.89999997616,9090,bell,AF,B,166252,166253,164531,165536,164531,166652,166053,166053,166652,2
2,test,1,con,1,m,Wed Jun 24 2026 14:40:03 GMT-0400 (Eastern Daylight Time),175005.89999997616,step,1100,I,m,m,None,451,252.0,199.0,68,1,2090.7999999523163,172915.10000002384,9090,step,AF,B,168486,168486,166661,167769,166662,168752,168286,168286,168752,3
3,test,1,con,1,m,Wed Jun 24 2026 14:40:03 GMT-0400 (Eastern Daylight Time),176789.0,window,800,I,m,m,None,443,244.0,199.0,121,1,1773.2000000476837,175015.79999995232,9090,window,AF,B,170286,170286,168762,169569,168762,170535,170086,170086,170535,4
4,test,1,inc,1,m,Wed Jun 24 2026 14:40:03 GMT-0400 (Eastern Daylight Time),178822.60000002384,elated,800,I,m,m,None,693,493.0,200.0,109,1,2024.0,176798.60000002384,9090,napkin,AF,B,172069,172069,170545,171353,170545,172569,171869,171869,172569,5
5,test,1,con,1,m,Wed Jun 24 2026 14:40:03 GMT-0400 (Eastern Daylight Time),180889.29999995232,rock,1100,I,m,m,None,422,223.0,199.0,76,1,2057.7999999523163,178831.5,9090,rock,AF,B,174403,174403,172578,173686,172578,174635,174203,174203,174635,6
6,test,1,inc,1,m,Wed Jun 24 2026 14:40:03 GMT-0400 (Eastern Daylight Time),183306.0,friend,1100,I,m,m,None,770,556.0,214.0,104,1,2404.8000000715256,180901.19999992847,9090,jacket,AF,B,176486,176486,174647,175752,174648,177052,176271,176271,177052,7
7,test,1,inc,1,m,Wed Jun 24 2026 14:40:03 GMT-0400 (Eastern Daylight Time),185405.89999997616,rage,800,I,m,m,None,751,552.0,199.0,85,1,2089.100000023842,183316.79999995232,9090,bell,AF,B,178586,178586,177063,177869,177063,179152,178386,178386,179152,8
8,test,1,con,1,m,Wed Jun 24 2026 14:40:03 GMT-0400 (Eastern Daylight Time),187606.0,rock,1000,I,m,m,None,659,460.0,199.0,75,1,2190.2000000476837,185415.79999995232,9090,rock,AF,B,180886,180886,179162,180169,179162,181352,180686,180686,181352,9
8,test,1,inc,0,m,Wed Jun 24 2026 14:40:03 GMT-0400 (Eastern Daylight Time),190305.69999992847,temper,1000,I,z,z,None,1163,964.0,199.0,119,1,2689.899999976158,187615.79999995232,9090,remote,AF,B,183086,183086,181362,182369,181362,184052,182886,182886,184052,10
9,test,1,inc,1,m,Wed Jun 24 2026 14:40:03 GMT-0400 (Eastern Daylight Time),192339.19999992847,elated,800,I,m,m,None,695,496.0,199.0,125,1,2022.3999999761581,190316.79999995232,9090,window,AF,B,185586,185586,184063,184869,184063,186085,185386,185386,186085,11
10,test,1,inc,1,m,Wed Jun 24 2026 14:40:03 GMT-0400 (Eastern Daylight Time),194539.10000002384,brutal,900,I,m,m,None,755,555.0,200.0,110,1,2187.8000000715256,192351.29999995232,9090,napkin,AF,B,187719,187719,186097,187002,186098,188285,187519,187519,188285,12
11,test,1,inc,1,m,Wed Jun 24 2026 14:40:03 GMT-0400 (Eastern Daylight Time),196855.89999997616,hate,1100,I,m,m,None,674,475.0,199.0,88,1,2307.7000000476837,194548.19999992847,9090,bell,AF,B,190119,190119,188294,189403,188295,190602,189920,189920,190602,13
12,test,1,con,1,m,Wed Jun 24 2026 14:40:03 GMT-0400 (Eastern Daylight Time),198772.60000002384,rock,800,I,m,m,None,577,378.0,199.0,73,1,1905.5,196867.10000002384,9090,rock,AF,B,192136,192136,190613,191419,190614,192519,191936,191936,192519,14
13,test,1,inc,1,z,Wed Jun 24 2026 14:40:03 GMT-0400 (Eastern Daylight Time),201072.69999992847,window,1100,I,z,z,None,664,465.0,199.0,64,1,2290.5999999046326,198782.10000002384,9090,temper,AF,B,194353,194353,192528,193636,192529,194819,194152,194153,194819,15
14,test,1,inc,1,z,Wed Jun 24 2026 14:40:03 GMT-0400 (Eastern Daylight Time),203189.19999992847,film,1100,I,z,z,None,476,277.0,199.0,48,1,2107.2999999523163,201081.89999997616,9090,hate,AF,B,196653,196653,194828,195936,194828,196935,196453,196453,196935,16
15,test,1,con,1,m,Wed Jun 24 2026 14:40:03 GMT-0400 (Eastern Daylight Time),205189.19999992847,window,900,I,m,m,None,560,361.0,199.0,122,1,1990.0999999046326,203199.10000002384,9090,window,AF,B,198569,198569,196945,197852,196946,198935,198369,198369,198935,17
16,test,1,con,1,m,Wed Jun 24 2026 14:40:03 GMT-0400 (Eastern Daylight Time),207089.10000002384,step,900,I,m,m,None,465,265.0,200.0,66,1,1890.4000000953674,205198.69999992847,9090,step,AF,B,200569,200569,198945,199852,198945,200835,200369,200369,200835,18
17,test,1,con,1,z,Wed Jun 24 2026 14:40:03 GMT-0400 (Eastern Daylight Time),208889.19999992847,elated,800,I,z,z,None,457,257.0,200.0,1,1,1789.1999999284744,207100.0,9090,elated,AF,B,202369,202369,200846,201653,200846,202635,202169,202169,202635,19
18,test,1,con,1,z,Wed Jun 24 2026 14:40:03 GMT-0400 (Eastern Daylight Time),211206.0,brutal,1100,I,z,z,None,677,477.0,200.0,36,1,2307.3000000715256,208898.69999992847,9090,brutal,AF,B,204469,204469,202645,203752,202645,204952,204269,204269,204952,20
19,test,1,con,1,m,Wed Jun 24 2026 14:40:03 GMT-0400 (Eastern Daylight Time),213555.89999997616,napkin,800,I,m,m,None,1011,812.0,199.0,105,1,2340.2999999523163,211215.60000002384,9090,napkin,AF,B,206486,206486,204962,205769,204962,207302,206286,206286,207302,21
20,test,1,con,1,z,Wed Jun 24 2026 14:40:03 GMT-0400 (Eastern Daylight Time),215456.10000002384,temper,900,I,z,z,None,465,266.0,199.0,58,1,1889.2000000476837,213566.89999997616,9090,temper,AF,B,208936,208936,207313,208219,207313,209202,208736,208736,209202,22
21,test,1,con,1,z,Wed Jun 24 2026 14:40:03 GMT-0400 (Eastern Daylight Time),217672.69999992847,elated,1000,I,z,z,None,673,474.0,199.0,3,1,2208.1999999284744,215464.5,9090,elated,AF,B,210936,210936,209211,210219,209211,211419,210736,210736,211419,23
22,test,1,inc,1,z,Wed Jun 24 2026 14:40:03 GMT-0400 (Eastern Daylight Time),219939.29999995232,remote,1000,I,z,z,None,729,529.0,200.0,7,1,2256.600000023842,217682.69999992847,9090,elated,AF,B,213153,213153,211429,212436,211429,213685,212952,212952,213685,24
23,test,1,con,1,m,Wed Jun 24 2026 14:40:03 GMT-0400 (Eastern Daylight Time),221739.39999997616,step,800,I,m,m,None,454,254.0,200.0,65,1,1790.8999999761581,219948.5,9090,step,AF,B,215220,215220,213695,214502,213695,215485,215019,215019,215485,25
24,test,1,inc,1,m,Wed Jun 24 2026 14:40:03 GMT-0400 (Eastern Daylight Time),224005.89999997616,temper,1000,I,m,m,None,727,527.0,200.0,103,1,2257.2000000476837,221748.69999992847,9090,jacket,AF,B,217219,217219,215495,216502,215495,217752,217019,217019,217752,26
25,test,1,con,1,z,Wed Jun 24 2026 14:40:03 GMT-0400 (Eastern Daylight Time),226139.39999997616,hate,1100,I,z,z,None,487,288.0,199.0,44,1,2122.399999976158,224017.0,9090,hate,AF,B,219586,219586,217763,218869,217763,219886,219386,219386,219885,27
26,test,1,inc,1,z,Wed Jun 24 2026 14:40:03 GMT-0400 (Eastern Daylight Time),228505.89999997616,film,1100,I,z,z,None,723,523.0,200.0,16,1,2356.899999976158,226149.0,9090,kind,AF,B,221719,221719,219895,221002,219895,222252,221519,221519,222252,28
27,test,1,con,1,z,Wed Jun 24 2026 14:40:03 GMT-0400 (Eastern Daylight Time),230622.60000002384,kind,900,I,z,z,None,667,468.0,199.0,10,1,2107.600000023842,228515.0,9090,kind,AF,B,223886,223886,222261,223169,222261,224369,223686,223686,224369,29
28,test,1,con,1,z,Wed Jun 24 2026 14:40:03 GMT-0400 (Eastern Daylight Time),232589.29999995232,kind,800,I,z,z,None,618,419.0,199.0,9,1,1954.3999999761581,230634.89999997616,9090,kind,AF,B,225902,225903,224381,225186,224381,226335,225703,225703,226335,30
29,test,1,inc,1,z,Wed Jun 24 2026 14:40:03 GMT-0400 (Eastern Daylight Time),234755.89999997616,jacket,800,I,z,z,None,829,629.0,200.0,29,1,2150.899999976158,232605.0,9090,friend,AF,B,227869,227869,226351,227152,226351,228502,227669,227669,228502,31
30,test,1,inc,1,m,Wed Jun 24 2026 14:40:03 GMT-0400 (Eastern Daylight Time),237122.29999995232,brutal,900,I,m,m,None,929,730.0,199.0,126,1,2354.5,234767.79999995232,9090,window,AF,B,230136,230136,228514,229419,228514,230868,229936,229936,230868,32
31,test,1,inc,1,z,Wed Jun 24 2026 14:40:03 GMT-0400 (Eastern Daylight Time),239539.19999992847,napkin,900,I,z,z,None,979,780.0,199.0,30,1,2407.5999999046326,237131.60000002384,9090,friend,AF,B,232502,232502,230878,231786,230878,233285,232303,232303,233285,33
32,test,1,con,1,z,Wed Jun 24 2026 14:40:03 GMT-0400 (Eastern Daylight Time),241905.69999992847,brutal,1000,I,z,z,None,831,631.0,200.0,35,1,2357.0,239548.69999992847,9090,brutal,AF,B,235019,235019,233295,234302,233295,235652,234819,234819,235652,34
33,test,1,inc,1,z,Wed Jun 24 2026 14:40:03 GMT-0400 (Eastern Daylight Time),244272.60000002384,rock,900,I,z,z,None,932,733.0,199.0,14,1,2357.5,241915.10000002384,9090,kind,AF,B,237269,237269,235661,236568,235662,238019,237070,237070,238019,35
34,test,1,con,1,z,Wed Jun 24 2026 14:40:03 GMT-0400 (Eastern Daylight Time),246905.89999997616,kind,1100,I,z,z,None,988,789.0,199.0,12,1,2623.899999976158,244282.0,9090,kind,AF,B,239852,239853,238028,239136,238028,240652,239653,239653,240652,36
34,test,1,con,0,m,Wed Jun 24 2026 14:40:03 GMT-0400 (Eastern Daylight Time),249072.69999992847,film,1100,I,z,z,None,531,332.0,199.0,92,1,2155.5999999046326,246917.10000002384,9090,film,AF,B,242486,242486,240663,241769,240663,242819,242286,242286,242819,37
35,test,1,con,1,z,Wed Jun 24 2026 14:40:03 GMT-0400 (Eastern Daylight Time),250972.69999992847,rage,900,I,z,z,None,453,253.0,200.0,50,1,1891.7999999523163,249080.89999997616,9090,rage,AF,B,244452,244453,242827,243736,242827,244719,244252,244252,244719,38
36,test,1,inc,1,m,Wed Jun 24 2026 14:40:03 GMT-0400 (Eastern Daylight Time),253555.79999995232,elated,800,I,m,m,None,1245,1045.0,200.0,117,1,2571.6999999284744,250984.10000002384,9090,remote,AF,B,246252,246253,244730,245536,244730,247302,246052,246052,247302,39
37,test,1,con,1,z,Wed Jun 24 2026 14:40:03 GMT-0400 (Eastern Daylight Time),255522.29999995232,friend,900,I,z,z,None,529,330.0,199.0,26,1,1956.7999999523163,253565.5,9090,friend,AF,B,248936,248936,247312,248219,247312,249268,248736,248736,249268,40
38,test,1,con,1,m,Wed Jun 24 2026 14:40:03 GMT-0400 (Eastern Daylight Time),257555.79999995232,film,800,I,m,m,None,695,495.0,200.0,89,1,2026.1000000238419,255529.69999992847,9090,film,AF,B,250803,250803,249276,250086,249276,251302,250602,250602,251302,41
39,test,1,con,1,m,Wed Jun 24 2026 14:40:03 GMT-0400 (Eastern Daylight Time),259472.5,jacket,900,I,m,m,None,481,282.0,199.0,98,1,1907.1000000238419,257565.39999997616,9090,jacket,AF,B,252936,252936,251311,252219,251312,253219,252736,252736,253219,42
40,test,1,con,1,m,Wed Jun 24 2026 14:40:03 GMT-0400 (Eastern Daylight Time),261572.69999992847,bell,1100,I,m,m,None,462,262.0,200.0,84,1,2090.1999999284744,259482.5,9090,bell,AF,B,255052,255052,253229,254336,253229,255319,254852,254852,255319,43
41,test,1,con,1,m,Wed Jun 24 2026 14:40:03 GMT-0400 (Eastern Daylight Time),263389.2999999523,jacket,800,I,m,m,None,468,269.0,199.0,97,1,1806.6999999284744,261582.60000002384,9090,jacket,AF,B,256852,256853,255329,256136,255329,257135,256652,256653,257135,44
42,test,1,inc,1,z,Wed Jun 24 2026 14:40:03 GMT-0400 (Eastern Daylight Time),265322.60000002384,step,800,I,z,z,None,589,389.0,200.0,45,1,1923.2000000476837,263399.39999997616,9090,hate,AF,B,258669,258669,257145,257952,257146,259069,258469,258469,259069,45
43,test,1,con,1,z,Wed Jun 24 2026 14:40:03 GMT-0400 (Eastern Daylight Time),267539.1999999285,elated,900,I,z,z,None,779,579.0,200.0,2,1,2205.2999999523163,265333.89999997616,9090,elated,AF,B,260703,260703,259080,259986,259080,261285,260502,260502,261285,46
44,test,1,con,1,m,Wed Jun 24 2026 14:40:03 GMT-0400 (Eastern Daylight Time),269639.2999999523,window,1100,I,m,m,None,459,259.0,200.0,124,1,2091.0,267548.2999999523,9090,window,AF,B,263119,263119,261294,262402,261295,263385,262919,262919,263385,47
45,test,1,inc,1,z,Wed Jun 24 2026 14:40:03 GMT-0400 (Eastern Daylight Time),271722.5,rock,900,I,z,z,None,639,439.0,200.0,22,1,2073.600000023842,269648.89999997616,9090,love,AF,B,265019,265019,263395,264302,263395,265469,264819,264819,265469,48
46,test,1,con,1,z,Wed Jun 24 2026 14:40:03 GMT-0400 (Eastern Daylight Time),273872.5,brutal,800,I,z,z,None,814,615.0,199.0,33,1,2140.3000000715256,271732.1999999285,9090,brutal,AF,B,267003,267003,265478,266286,265479,267619,266803,266803,267619,49
47,test,1,inc,1,z,Wed Jun 24 2026 14:40:03 GMT-0400 (Eastern Daylight Time),276056.0,step,800,I,z,z,None,840,641.0,199.0,13,1,2174.399999976158,273881.60000002384,9090,kind,AF,B,269153,269153,267628,268436,267628,269802,268952,268953,269802,50
48,test,1,con,1,z,Wed Jun 24 2026 14:40:03 GMT-0400 (Eastern Daylight Time),278406.0,temper,1100,I,z,z,None,709,510.0,199.0,60,1,2341.0,276065.0,9090,temper,AF,B,271636,271636,269811,270919,269811,272152,271436,271436,272152,51
49,test,1,con,1,m,Wed Jun 24 2026 14:40:03 GMT-0400 (Eastern Daylight Time),280372.60000002384,jacket,1000,I,m,m,None,427,228.0,199.0,99,1,1957.4000000953674,278415.1999999285,9090,jacket,AF,B,273886,273886,272161,273169,272162,274119,273686,273686,274119,52
50,test,1,con,1,z,Wed Jun 24 2026 14:40:03 GMT-0400 (Eastern Daylight Time),282189.2999999523,rage,800,I,z,z,None,468,269.0,199.0,49,1,1808.1000000238419,280381.1999999285,9090,rage,AF,B,275652,275653,274127,274936,274128,275935,275452,275453,275935,53
51,test,1,inc,1,m,Wed Jun 24 2026 14:40:03 GMT-0400 (Eastern Daylight Time),284155.89999997616,elated,800,I,m,m,None,621,421.0,200.0,101,1,1957.2000000476837,282198.6999999285,9090,jacket,AF,B,277469,277469,275945,276752,275945,277902,277269,277269,277902,54
51,test,1,inc,0,z,Wed Jun 24 2026 14:40:03 GMT-0400 (Eastern Daylight Time),286139.2999999523,step,800,I,m,m,None,637,438.0,199.0,21,1,1971.1999999284744,284168.10000002384,9090,love,AF,B,279436,279436,277914,278719,277914,279885,279236,279236,279885,55
52,test,1,con,1,m,Wed Jun 24 2026 14:40:03 GMT-0400 (Eastern Daylight Time),287922.2999999523,bell,800,I,m,m,None,447,247.0,200.0,81,1,1771.3999999761581,286150.89999997616,9090,bell,AF,B,281419,281419,279897,280703,279897,281668,281219,281219,281668,56
53,test,1,con,1,z,Wed Jun 24 2026 14:40:03 GMT-0400 (Eastern Daylight Time),290156.0,temper,1000,I,z,z,None,687,487.0,200.0,59,1,2223.3000000715256,287932.6999999285,9090,temper,AF,B,283402,283403,281679,282686,281679,283902,283202,283202,283902,57
54,test,1,inc,1,z,Wed Jun 24 2026 14:40:03 GMT-0400 (Eastern Daylight Time),292289.0,step,800,I,z,z,None,797,598.0,199.0,53,1,2122.100000023842,290166.89999997616,9090,rage,AF,B,285436,285436,283913,284719,283913,286035,285236,285236,286035,58
55,test,1,inc,1,m,Wed Jun 24 2026 14:40:03 GMT-0400 (Eastern Daylight Time),294522.60000002384,love,1000,I,m,m,None,689,489.0,200.0,71,1,2219.100000023842,292303.5,9090,step,AF,B,287769,287769,286050,287052,286050,288269,287569,287569,288269,59
56,test,1,con,1,z,Wed Jun 24 2026 14:40:03 GMT-0400 (Eastern Daylight Time),296672.6999999285,love,1100,I,z,z,None,515,315.0,200.0,20,1,2135.7999999523163,294536.89999997616,9090,love,AF,B,290102,290103,288283,289386,288283,290419,289902,289902,290419,60
57,test,1,con,1,z,Wed Jun 24 2026 14:40:03 GMT-0400 (Eastern Daylight Time),299155.89999997616,friend,1100,I,z,z,None,845,645.0,200.0,28,1,2474.5,296681.39999997616,9090,friend,AF,B,292253,292253,290427,291536,290428,292902,292052,292052,292902,61
58,test,1,con,1,m,Wed Jun 24 2026 14:40:03 GMT-0400 (Eastern Daylight Time),301406.0,film,900,I,m,m,None,801,602.0,199.0,90,1,2238.2000000476837,299167.7999999523,9090,film,AF,B,294536,294536,292914,293819,292914,295152,294336,294336,295152,62
59,test,1,inc,1,z,Wed Jun 24 2026 14:40:03 GMT-0400 (Eastern Daylight Time),303522.5,rock,900,I,z,z,None,679,480.0,199.0,54,1,2107.399999976158,301415.10000002384,9090,rage,AF,B,296786,296786,295161,296069,295161,297269,296586,296586,297268,63
60,test,1,con,1,z,Wed Jun 24 2026 14:40:03 GMT-0400 (Eastern Daylight Time),305322.60000002384,love,800,I,z,z,None,455,255.0,200.0,17,1,1790.8000000715256,303531.7999999523,9090,love,AF,B,298803,298803,297278,298086,297278,299069,298602,298602,299069,64
61,test,1,con,1,m,Wed Jun 24 2026 14:40:03 GMT-0400 (Eastern Daylight Time),307289.2999999523,film,1000,I,m,m,None,423,223.0,200.0,91,1,1956.1000000238419,305333.1999999285,9090,film,AF,B,300802,300803,299079,300086,299080,301035,300602,300602,301035,65
62,test,1,inc,1,z,Wed Jun 24 2026 14:40:03 GMT-0400 (Eastern Daylight Time),309306.0,jacket,800,I,z,z,None,672,473.0,199.0,61,1,2005.3999999761581,307300.60000002384,9090,temper,AF,B,302569,302569,301047,301852,301047,303052,302369,302369,303052,66
63,test,1,inc,1,m,Wed Jun 24 2026 14:40:03 GMT-0400 (Eastern Daylight Time),311572.60000002384,love,1000,I,m,m,None,727,528.0,199.0,87,1,2255.2000000476837,309317.39999997616,9090,bell,AF,B,304786,304786,303063,304069,303064,305319,304586,304586,305319,67
64,test,1,con,1,z,Wed Jun 24 2026 14:40:03 GMT-0400 (Eastern Daylight Time),313972.6999999285,rage,1000,I,z,z,None,860,661.0,199.0,51,1,2390.2999999523163,311582.39999997616,9090,rage,AF,B,307053,307053,305328,306336,305329,307719,306852,306853,307719,68
65,test,1,inc,1,m,Wed Jun 24 2026 14:40:03 GMT-0400 (Eastern Daylight Time),316372.6999999285,hate,1100,I,m,m,None,761,561.0,200.0,96,1,2388.6999999284744,313984.0,9090,film,AF,B,309552,309553,307730,308836,307730,310119,309352,309352,310119,69
66,test,1,inc,1,m,Wed Jun 24 2026 14:40:03 GMT-0400 (Eastern Daylight Time),318522.60000002384,kind,900,I,m,m,None,705,505.0,200.0,70,1,2136.2000000476837,316386.39999997616,9090,step,AF,B,311752,311753,310132,311036,310133,312269,311552,311552,312269,70
67,test,1,inc,1,m,Wed Jun 24 2026 14:40:03 GMT-0400 (Eastern Daylight Time),320656.2999999523,rage,800,I,m,m,None,798,599.0,199.0,77,1,2124.2999999523163,318532.0,9090,rock,AF,B,313802,313803,312278,313086,312278,314402,313602,313603,314402,71
68,test,1,con,1,m,Wed Jun 24 2026 14:40:03 GMT-0400 (Eastern Daylight Time),322672.6999999285,remote,900,I,m,m,None,581,382.0,199.0,114,1,2007.2999999523163,320665.39999997616,9090,remote,AF,B,316036,316036,314411,315319,314412,316419,315836,315836,316419,72
69,test,1,inc,1,z,Wed Jun 24 2026 14:40:03 GMT-0400 (Eastern Daylight Time),325022.6999999285,window,1100,I,z,z,None,701,501.0,200.0,40,1,2342.399999976158,322680.2999999523,9090,brutal,AF,B,318253,318253,316426,317536,316427,318769,318052,318052,318769,73
70,test,1,inc,1,z,Wed Jun 24 2026 14:40:03 GMT-0400 (Eastern Daylight Time),327322.6999999285,napkin,900,I,z,z,None,854,655.0,199.0,62,1,2288.6999999284744,325034.0,9090,temper,AF,B,320402,320403,318780,319686,318780,321069,320203,320203,321069,74
71,test,1,inc,1,z,Wed Jun 24 2026 14:40:03 GMT-0400 (Eastern Daylight Time),329606.0,remote,1000,I,z,z,None,743,543.0,200.0,63,1,2274.2000000476837,327331.7999999523,9090,temper,AF,B,322802,322803,321078,322086,321078,323352,322602,322602,323352,75
72,test,1,inc,1,m,Wed Jun 24 2026 14:40:03 GMT-0400 (Eastern Daylight Time),331889.10000002384,temper,1000,I,m,m,None,747,548.0,199.0,111,1,2272.0,329617.10000002384,9090,napkin,AF,B,325086,325086,323363,324369,323363,325635,324886,324886,325635,76
73,test,1,inc,1,m,Wed Jun 24 2026 14:40:03 GMT-0400 (Eastern Daylight Time),334105.89999997616,kind,900,I,m,m,None,773,573.0,200.0,94,1,2208.7999999523163,331897.10000002384,9090,film,AF,B,327269,327269,325643,326553,325643,327852,327069,327069,327852,77
74,test,1,con,1,z,Wed Jun 24 2026 14:40:03 GMT-0400 (Eastern Daylight Time),336172.60000002384,love,1000,I,z,z,None,519,320.0,199.0,19,1,2057.5,334115.10000002384,9090,love,AF,B,329586,329586,327861,328869,327861,329919,329386,329386,329919,78
75,test,1,con,1,z,Wed Jun 24 2026 14:40:03 GMT-0400 (Eastern Daylight Time),338222.6999999285,friend,1000,I,z,z,None,500,301.0,199.0,27,1,2039.0999999046326,336183.60000002384,9090,friend,AF,B,331653,331653,329930,330936,329930,331969,331453,331453,331969,79
76,test,1,inc,1,m,Wed Jun 24 2026 14:40:03 GMT-0400 (Eastern Daylight Time),340456.0,hate,1100,I,m,m,None,590,391.0,199.0,72,1,2222.899999976158,338233.10000002384,9090,step,AF,B,333802,333803,331979,333086,331979,334202,333602,333603,334202,80
77,test,1,con,1,m,Wed Jun 24 2026 14:40:03 GMT-0400 (Eastern Daylight Time),342522.60000002384,bell,900,I,m,m,None,621,422.0,199.0,82,1,2057.0,340465.60000002384,9090,bell,AF,B,335836,335836,334212,335119,334212,336269,335636,335636,336269,81
78,test,1,inc,1,m,Wed Jun 24 2026 14:40:03 GMT-0400 (Eastern Daylight Time),344605.89999997616,rage,800,I,m,m,None,734,535.0,199.0,93,1,2073.600000023842,342532.2999999523,9090,film,AF,B,337802,337803,336278,337086,336279,338352,337602,337603,338352,82
79,test,1,inc,1,m,Wed Jun 24 2026 14:40:03 GMT-0400 (Eastern Daylight Time),346872.6999999285,love,1000,I,m,m,None,723,524.0,199.0,79,1,2257.6999999284744,344615.0,9090,rock,AF,B,340086,340086,338361,339369,338361,340619,339886,339886,340619,83
80,test,1,inc,1,z,Wed Jun 24 2026 14:40:03 GMT-0400 (Eastern Daylight Time),349172.60000002384,window,1100,I,z,z,None,660,461.0,199.0,32,1,2289.600000023842,346883.0,9090,friend,AF,B,342452,342453,340629,341736,340629,342919,342253,342253,342919,84
81,test,1,inc,1,m,Wed Jun 24 2026 14:40:03 GMT-0400 (Eastern Daylight Time),351406.10000002384,temper,1000,I,m,m,None,669,469.0,200.0,127,1,2218.2000000476837,349187.89999997616,9090,window,AF,B,344669,344669,342934,343952,342935,345152,344469,344469,345152,85
82,test,1,con,1,z,Wed Jun 24 2026 14:40:03 GMT-0400 (Eastern Daylight Time),353222.60000002384,hate,800,I,z,z,None,475,276.0,199.0,41,1,1807.9000000953674,351414.6999999285,9090,hate,AF,B,346686,346686,345161,345969,345161,346969,346486,346486,346969,86
83,test,1,con,1,m,Wed Jun 24 2026 14:40:03 GMT-0400 (Eastern Daylight Time),355622.60000002384,window,1000,I,m,m,None,858,659.0,199.0,123,1,2389.4000000953674,353233.1999999285,9090,window,AF,B,348703,348703,346979,347986,346980,349369,348502,348503,349369,87
84,test,1,inc,1,m,Wed Jun 24 2026 14:40:03 GMT-0400 (Eastern Daylight Time),357939.1999999285,friend,1100,I,m,m,None,678,479.0,199.0,128,1,2307.7999999523163,355631.39999997616,9090,window,AF,B,351203,351203,349377,350486,349378,351685,351002,351003,351685,88
85,test,1,inc,1,m,Wed Jun 24 2026 14:40:03 GMT-0400 (Eastern Daylight Time),360056.0,brutal,900,I,m,m,None,675,475.0,200.0,102,1,2108.3000000715256,357947.6999999285,9090,jacket,AF,B,353319,353319,351694,352602,351694,353802,353119,353119,353802,89
86,test,1,inc,1,z,Wed Jun 24 2026 14:40:03 GMT-0400 (Eastern Daylight Time),362322.39999997616,window,1100,I,z,z,None,629,430.0,199.0,8,1,2255.600000023842,360066.7999999523,9090,elated,AF,B,355636,355636,353813,354919,353813,356068,355436,355436,356068,90
87,test,1,inc,1,z,Wed Jun 24 2026 14:40:03 GMT-0400 (Eastern Daylight Time),364556.0,bell,1000,I,z,z,None,686,487.0,199.0,55,1,2222.8000000715256,362333.1999999285,9090,rage,AF,B,357802,357803,356079,357086,356080,358302,357603,357603,358302,91
88,test,1,inc,1,z,Wed Jun 24 2026 14:40:03 GMT-0400 (Eastern Daylight Time),366839.2999999523,film,1100,I,z,z,None,641,442.0,199.0,56,1,2274.0,364565.2999999523,9090,rage,AF,B,360136,360136,358311,359419,358312,360585,359936,359936,360585,92
89,test,1,con,1,m,Wed Jun 24 2026 14:40:03 GMT-0400 (Eastern Daylight Time),369039.2999999523,remote,1000,I,m,m,None,651,451.0,200.0,115,1,2188.600000023842,366850.6999999285,9090,remote,AF,B,362319,362319,360597,361602,360597,362785,362119,362119,362785,93
90,test,1,inc,1,z,Wed Jun 24 2026 14:40:03 GMT-0400 (Eastern Daylight Time),371155.89999997616,remote,1000,I,z,z,None,579,379.0,200.0,39,1,2106.899999976158,369049.0,9090,brutal,AF,B,364519,364519,362795,363802,362795,364902,364319,364319,364902,94
91,test,1,inc,1,z,Wed Jun 24 2026 14:40:03 GMT-0400 (Eastern Daylight Time),373239.1999999285,napkin,900,I,z,z,None,641,442.0,199.0,38,1,2073.0999999046326,371166.10000002384,9090,brutal,AF,B,366536,366536,364912,365819,364912,366985,366336,366336,366985,95
92,test,1,inc,1,z,Wed Jun 24 2026 14:40:03 GMT-0400 (Eastern Daylight Time),375456.39999997616,bell,1000,I,z,z,None,683,483.0,200.0,15,1,2204.899999976158,373251.5,9090,kind,AF,B,368719,368719,366998,368002,366998,369203,368519,368519,369202,96
93,test,1,inc,1,z,Wed Jun 24 2026 14:40:03 GMT-0400 (Eastern Daylight Time),377722.7999999523,bell,1000,I,z,z,None,721,522.0,199.0,47,1,2258.2999999523163,375464.5,9090,hate,AF,B,370936,370936,369211,370219,369211,371469,370736,370736,371469,97
94,test,1,con,1,m,Wed Jun 24 2026 14:40:03 GMT-0400 (Eastern Daylight Time),379972.60000002384,rock,900,I,m,m,None,811,611.0,200.0,74,1,2241.2000000476837,377731.39999997616,9090,rock,AF,B,373102,373103,371477,372386,371478,373719,372902,372902,373719,98
95,test,1,con,1,z,Wed Jun 24 2026 14:40:03 GMT-0400 (Eastern Daylight Time),382122.60000002384,elated,1100,I,z,z,None,504,305.0,199.0,4,1,2139.3000000715256,379983.2999999523,9090,elated,AF,B,375553,375553,373729,374836,373730,375869,375353,375353,375869,99
96,test,1,inc,1,z,Wed Jun 24 2026 14:40:03 GMT-0400 (Eastern Daylight Time),384406.0,remote,1000,I,z,z,None,744,544.0,200.0,31,1,2272.100000023842,382133.89999997616,9090,friend,AF,B,377602,377602,375880,376886,375880,378152,377402,377402,378152,100
97,test,1,inc,1,z,Wed Jun 24 2026 14:40:03 GMT-0400 (Eastern Daylight Time),386656.39999997616,napkin,900,I,z,z,None,815,616.0,199.0,6,1,2241.100000023842,384415.2999999523,9090,elated,AF,B,379786,379786,378161,379069,378162,380403,379586,379586,380402,101
98,test,1,con,1,z,Wed Jun 24 2026 14:40:03 GMT-0400 (Eastern Daylight Time),388922.6999999285,rage,1100,I,z,z,None,621,422.0,199.0,52,1,2256.5999999046326,386666.10000002384,9090,rage,AF,B,382236,382236,380412,381519,380412,382669,382036,382036,382669,102
99,test,1,inc,1,m,Wed Jun 24 2026 14:40:03 GMT-0400 (Eastern Daylight Time),391022.7999999523,brutal,900,I,m,m,None,651,452.0,199.0,118,1,2088.7999999523163,388934.0,9090,remote,AF,B,384302,384302,382680,383586,382680,384769,384102,384103,384769,103
100,test,1,inc,1,z,Wed Jun 24 2026 14:40:03 GMT-0400 (Eastern Daylight Time),393239.2999999523,bell,1000,I,z,z,None,675,475.0,200.0,23,1,2206.7999999523163,391032.5,9090,love,AF,B,386502,386503,384779,385786,384779,386985,386302,386302,386985,104
101,test,1,con,1,z,Wed Jun 24 2026 14:40:03 GMT-0400 (Eastern Daylight Time),395505.7999999523,brutal,900,I,z,z,None,831,631.0,200.0,34,1,2255.1999999284744,393250.60000002384,9090,brutal,AF,B,388619,388619,386997,387902,386997,389252,388419,388419,389252,105
102,test,1,con,1,m,Wed Jun 24 2026 14:40:03 GMT-0400 (Eastern Daylight Time),397722.60000002384,step,1000,I,m,m,None,671,472.0,199.0,67,1,2207.9000000953674,395514.6999999285,9090,step,AF,B,390986,390986,389261,390269,389261,391469,390786,390786,391469,106
102,test,1,con,0,m,Wed Jun 24 2026 14:40:03 GMT-0400 (Eastern Daylight Time),399489.0,remote,800,I,z,z,None,431,232.0,199.0,113,1,1757.5,397731.5,9090,remote,AF,B,393002,393002,391478,392286,391478,393235,392803,392803,393235,107
103,test,1,con,1,m,Wed Jun 24 2026 14:40:03 GMT-0400 (Eastern Daylight Time),401655.89999997616,napkin,900,I,m,m,None,725,525.0,200.0,106,1,2158.399999976158,399497.5,9090,napkin,AF,B,394869,394869,393244,394152,393244,395402,394669,394669,395402,108
104,test,1,inc,1,m,Wed Jun 24 2026 14:40:03 GMT-0400 (Eastern Daylight Time),404006.0,kind,900,I,m,m,None,909,710.0,199.0,78,1,2341.3000000715256,401664.6999999285,9090,rock,AF,B,397036,397036,395411,396319,395411,397752,396836,396836,397752,109
105,test,1,con,1,z,Wed Jun 24 2026 14:40:03 GMT-0400 (Eastern Daylight Time),406005.89999997616,hate,1000,I,z,z,None,459,260.0,199.0,43,1,1990.1000000238419,404015.7999999523,9090,hate,AF,B,399486,399486,397762,398769,397762,399752,399286,399286,399752,110
106,test,1,con,1,z,Wed Jun 24 2026 14:40:03 GMT-0400 (Eastern Daylight Time),408022.60000002384,hate,900,I,z,z,None,575,376.0,199.0,42,1,2006.9000000953674,406015.6999999285,9090,hate,AF,B,401386,401386,399762,400669,399762,401769,401186,401186,401769,111
107,test,1,con,1,m,Wed Jun 24 2026 14:40:03 GMT-0400 (Eastern Daylight Time),410289.0,napkin,1100,I,m,m,None,632,432.0,200.0,108,1,2257.600000023842,408031.39999997616,9090,napkin,AF,B,403602,403602,401777,402886,401778,404035,403402,403402,404035,112
108,test,1,con,1,z,Wed Jun 24 2026 14:40:03 GMT-0400 (Eastern Daylight Time),412322.5,kind,1000,I,z,z,None,497,297.0,200.0,11,1,2023.6000000238419,410298.89999997616,9090,kind,AF,B,405769,405769,404045,405052,404045,406069,405569,405569,406068,113
109,test,1,con,1,m,Wed Jun 24 2026 14:40:03 GMT-0400 (Eastern Daylight Time),414606.0,remote,1100,I,m,m,None,636,436.0,200.0,116,1,2272.899999976158,412333.10000002384,9090,remote,AF,B,407902,407902,406079,407186,406079,408352,407702,407702,408352,114
110,test,1,inc,1,m,Wed Jun 24 2026 14:40:03 GMT-0400 (Eastern Daylight Time),416755.89999997616,rage,800,I,m,m,None,811,612.0,199.0,69,1,2140.399999976158,414615.5,9090,step,AF,B,409886,409886,408362,409169,408362,410502,409686,409686,410502,115
111,test,1,inc,1,m,Wed Jun 24 2026 14:40:03 GMT-0400 (Eastern Daylight Time),419105.7999999523,hate,1100,I,m,m,None,713,514.0,199.0,80,1,2337.7999999523163,416768.0,9090,rock,AF,B,412336,412336,410514,411619,410514,412852,412136,412136,412852,116
112,test,1,con,1,z,Wed Jun 24 2026 14:40:03 GMT-0400 (Eastern Daylight Time),421072.6999999285,friend,800,I,z,z,None,615,416.0,199.0,25,1,1957.0999999046326,419115.60000002384,9090,friend,AF,B,414386,414386,412862,413669,412862,414819,414186,414186,414819,117
113,test,1,inc,1,z,Wed Jun 24 2026 14:40:03 GMT-0400 (Eastern Daylight Time),423122.2999999523,jacket,800,I,z,z,None,713,513.0,200.0,5,1,2038.1000000238419,421084.1999999285,9090,elated,AF,B,416352,416353,414830,415636,414830,416868,416152,416152,416868,118
114,test,1,inc,1,z,Wed Jun 24 2026 14:40:03 GMT-0400 (Eastern Daylight Time),425589.2999999523,film,1100,I,z,z,None,828,628.0,200.0,24,1,2456.2999999523163,423133.0,9090,love,AF,B,418702,418702,416879,417986,416879,419335,418502,418502,419335,119
115,test,1,inc,1,m,Wed Jun 24 2026 14:40:03 GMT-0400 (Eastern Daylight Time),428056.0,friend,1100,I,m,m,None,825,625.0,200.0,120,1,2458.2000000476837,425597.7999999523,9090,remote,AF,B,421169,421169,419344,420452,419344,421802,420969,420969,421802,120
116,test,1,inc,1,m,Wed Jun 24 2026 14:40:03 GMT-0400 (Eastern Daylight Time),430222.6999999285,kind,900,I,m,m,None,717,518.0,199.0,86,1,2155.6999999284744,428067.0,9090,bell,AF,B,423436,423436,421813,422719,421813,423969,423236,423236,423969,121
117,test,1,con,1,m,Wed Jun 24 2026 14:40:03 GMT-0400 (Eastern Daylight Time),432673.0,jacket,1100,I,m,m,None,815,615.0,200.0,100,1,2440.7000000476837,430232.2999999523,9090,jacket,AF,B,425803,425803,423978,425086,423979,426419,425602,425602,426419,122
118,test,1,con,1,m,Wed Jun 24 2026 14:40:03 GMT-0400 (Eastern Daylight Time),434656.0,napkin,1000,I,m,m,None,433,233.0,200.0,107,1,1972.3999999761581,432683.60000002384,9090,napkin,AF,B,428152,428153,426430,427436,426430,428402,427952,427952,428402,123
119,test,1,inc,1,m,Wed Jun 24 2026 14:40:03 GMT-0400 (Eastern Daylight Time),436972.6999999285,love,1000,I,m,m,None,769,570.0,199.0,95,1,2306.0999999046326,434666.60000002384,9090,film,AF,B,430136,430136,428413,429419,428413,430719,429936,429936,430719,124
120,test,1,con,1,z,Wed Jun 24 2026 14:40:03 GMT-0400 (Eastern Daylight Time),439189.39999997616,temper,800,I,z,z,None,878,678.0,200.0,57,1,2207.5,436981.89999997616,9090,temper,AF,B,432252,432252,430728,431536,430728,432936,432052,432052,432935,125
121,test,1,inc,1,m,Wed Jun 24 2026 14:40:03 GMT-0400 (Eastern Daylight Time),441491.2999999523,friend,1100,I,m,m,None,665,465.0,200.0,112,1,2290.5,439200.7999999523,9090,napkin,AF,B,434769,434769,432947,434052,432947,435237,434569,434569,435237,126
122,test,1,inc,1,z,Wed Jun 24 2026 14:40:03 GMT-0400 (Eastern Daylight Time),443639.2999999523,rock,900,I,z,z,None,709,509.0,200.0,46,1,2136.600000023842,441502.6999999285,9090,hate,AF,B,436869,436869,435249,436152,435249,437385,436669,436669,437385,127
123,test,1,con,1,z,Wed Jun 24 2026 14:40:03 GMT-0400 (Eastern Daylight Time),445689.2999999523,love,900,I,z,z,None,607,407.0,200.0,18,1,2040.1000000238419,443649.1999999285,9090,love,AF,B,439019,439019,437395,438302,437396,439435,438819,438819,439435,128
