acc_sum,block,block_c,condition,correct,correct_response,datetime,endtime,flanker,jitter,project,response,response_test_buffer_response,response_test_target_response,response_time,response_time_test_buffer_response,response_time_test_target_response,row_sel,session_number,start_end,starttime,subject_id,target,task,task_vers,time_test_buffer,time_test_buffer_response,time_test_constants,time_test_flanker,time_test_jitter,time_test_logger,time_test_target,time_test_target_response,time_test_variables,trial
1,prac,1,con,1,z,Tue Sep 02 2025 09:48:49 GMT-0500 (Central Daylight Time),78406.0,elated,800,O,z,,,433,,,9,1,2540.0,75866.0,7207,elated,AF,B,,,,,,,,,,1
2,prac,1,con,1,m,Tue Sep 02 2025 09:48:49 GMT-0500 (Central Daylight Time),81006.20000004768,step,800,O,m,,,487,,,1,1,2590.5,78415.70000004768,7207,step,AF,B,,,,,,,,,,2
3,prac,1,inc,1,z,Tue Sep 02 2025 09:48:49 GMT-0500 (Central Daylight Time),83870.5,rock,900,O,z,,,649,,,10,1,2859.0999999046326,81011.40000009537,7207,kind,AF,B,,,,,,,,,,3
4,prac,1,inc,1,m,Tue Sep 02 2025 09:48:49 GMT-0500 (Central Daylight Time),86570.10000014305,elated,900,O,m,,,498,,,6,1,2693.5,83876.60000014305,7207,napkin,AF,B,,,,,,,,,,4
5,prac,1,con,1,m,Tue Sep 02 2025 09:48:49 GMT-0500 (Central Daylight Time),89436.10000014305,jacket,800,O,m,,,753,,,5,1,2858.7000000476837,86577.40000009537,7207,jacket,AF,B,,,,,,,,,,5
6,prac,1,con,1,m,Tue Sep 02 2025 09:48:49 GMT-0500 (Central Daylight Time),92301.70000004768,remote,1000,O,m,,,566,,,7,1,2861.4000000953674,89440.29999995232,7207,remote,AF,B,,,,,,,,,,6
7,prac,1,inc,1,m,Tue Sep 02 2025 09:48:49 GMT-0500 (Central Daylight Time),95465.70000004768,kind,900,O,m,,,953,,,2,1,3156.2999999523163,92309.40000009537,7207,rock,AF,B,,,,,,,,,,7
8,prac,1,con,1,z,Tue Sep 02 2025 09:48:49 GMT-0500 (Central Daylight Time),98433.60000014305,brutal,800,O,z,,,855,,,13,1,2959.7000000476837,95473.90000009537,7207,brutal,AF,B,,,,,,,,,,8
9,prac,1,inc,1,z,Tue Sep 02 2025 09:48:49 GMT-0500 (Central Daylight Time),101747.0,window,1100,O,z,,,912,,,16,1,3309.0,98438.0,7207,temper,AF,B,,,,,,,,,,9
10,prac,1,inc,1,z,Tue Sep 02 2025 09:48:49 GMT-0500 (Central Daylight Time),104717.20000004768,film,900,O,z,,,770,,,14,1,2961.0999999046326,101756.10000014305,7207,hate,AF,B,,,,,,,,,,10
11,prac,1,inc,1,m,Tue Sep 02 2025 09:48:49 GMT-0500 (Central Daylight Time),107977.60000014305,hate,1100,O,m,,,878,,,4,1,3253.600000143051,104724.0,7207,film,AF,B,,,,,,,,,,11
12,prac,1,con,1,m,Tue Sep 02 2025 09:48:49 GMT-0500 (Central Daylight Time),110829.29999995232,bell,1000,O,m,,,533,,,3,1,2847.899999856949,107981.40000009537,7207,bell,AF,B,,,,,,,,,,12
13,prac,1,con,1,z,Tue Sep 02 2025 09:48:49 GMT-0500 (Central Daylight Time),113942.10000014305,rage,1000,O,z,,,814,,,15,1,3104.100000143051,110838.0,7207,rage,AF,B,,,,,,,,,,13
13,prac,1,inc,0,z,Tue Sep 02 2025 09:48:49 GMT-0500 (Central Daylight Time),117176.40000009537,napkin,1100,O,m,,,862,,,12,1,3227.100000143051,113949.29999995232,7207,friend,AF,B,,,,,,,,,,14
14,prac,1,inc,1,m,Tue Sep 02 2025 09:48:49 GMT-0500 (Central Daylight Time),120476.40000009537,brutal,1100,O,m,,,893,,,8,1,3292.100000143051,117184.29999995232,7207,window,AF,B,,,,,,,,,,15
14,prac,1,con,0,z,Tue Sep 02 2025 09:48:49 GMT-0500 (Central Daylight Time),123292.10000014305,love,1000,O,m,,,510,,,11,1,2810.0,120482.10000014305,7207,love,AF,B,,,,,,,,,,16
1,test,1,inc,1,z,Tue Sep 02 2025 09:48:49 GMT-0500 (Central Daylight Time),169458.70000004768,film,1100,O,z,z,None,694,495.0,199.0,56,1,2322.7999999523163,167135.90000009537,7207,rage,AF,B,166811,166811,164986,166096,164986,167309,166612,166612,167309,1
2,test,1,con,1,m,Tue Sep 02 2025 09:48:49 GMT-0500 (Central Daylight Time),171525.79999995232,rock,1100,O,m,m,None,426,226.0,200.0,76,1,2061.0999999046326,169464.70000004768,7207,rock,AF,B,169145,169145,167315,168427,167315,169376,168944,168944,169376,2
3,test,1,con,1,z,Tue Sep 02 2025 09:48:49 GMT-0500 (Central Daylight Time),173709.20000004768,love,900,O,z,z,None,743,543.0,200.0,18,1,2178.2000000476837,171531.0,7207,love,AF,B,171012,171012,169381,170293,169381,171559,170811,170811,171559,3
4,test,1,con,1,z,Tue Sep 02 2025 09:48:49 GMT-0500 (Central Daylight Time),175790.5,hate,1100,O,z,z,None,442,242.0,200.0,44,1,2076.7000000476837,173713.79999995232,7207,hate,AF,B,173392,173392,171564,172676,171564,173641,173192,173192,173640,4
5,test,1,con,1,z,Tue Sep 02 2025 09:48:49 GMT-0500 (Central Daylight Time),177872.60000014305,love,1100,O,z,z,None,438,237.0,201.0,20,1,2077.2000000476837,175795.40000009537,7207,love,AF,B,175477,175477,173645,174759,173646,175723,175275,175275,175723,5
6,test,1,con,1,m,Tue Sep 02 2025 09:48:49 GMT-0500 (Central Daylight Time),179623.29999995232,jacket,800,O,m,m,None,400,200.0,200.0,97,1,1741.3999998569489,177881.90000009537,7207,jacket,AF,B,177258,177258,175732,176542,175732,177473,177057,177057,177473,6
7,test,1,inc,1,z,Tue Sep 02 2025 09:48:49 GMT-0500 (Central Daylight Time),182271.20000004768,remote,1000,O,z,z,None,1107,907.0,200.0,31,1,2641.0999999046326,179630.10000014305,7207,friend,AF,B,179207,179207,177480,178490,177480,180121,179006,179006,180121,7
8,test,1,inc,1,m,Tue Sep 02 2025 09:48:49 GMT-0500 (Central Daylight Time),184738.40000009537,hate,1100,O,m,m,None,816,600.0,216.0,72,1,2462.4000000953674,182276.0,7207,step,AF,B,181973,181973,180126,181240,180126,182589,181757,181757,182588,8
9,test,1,con,1,z,Tue Sep 02 2025 09:48:49 GMT-0500 (Central Daylight Time),186671.60000014305,kind,800,O,z,z,None,591,376.0,215.0,9,1,1928.3000001907349,184743.29999995232,7207,kind,AF,B,184138,184138,182593,183405,182594,184522,183923,183923,184522,9
10,test,1,con,1,m,Tue Sep 02 2025 09:48:49 GMT-0500 (Central Daylight Time),188820.0,window,1100,O,m,m,None,512,312.0,200.0,124,1,2141.899999856949,186678.10000014305,7207,window,AF,B,186355,186355,184528,185638,184528,186670,186155,186155,186670,10
11,test,1,con,1,z,Tue Sep 02 2025 09:48:49 GMT-0500 (Central Daylight Time),190737.10000014305,hate,1000,O,z,z,None,383,183.0,200.0,43,1,1910.1000001430511,188827.0,7207,hate,AF,B,188404,188404,186677,187688,186677,188587,188204,188204,188587,11
12,test,1,inc,1,z,Tue Sep 02 2025 09:48:49 GMT-0500 (Central Daylight Time),193152.90000009537,bell,1000,O,z,z,None,867,666.0,201.0,15,1,2410.4000000953674,190742.5,7207,kind,AF,B,190320,190320,188593,189603,188593,191003,190118,190118,191003,12
13,test,1,inc,1,m,Tue Sep 02 2025 09:48:49 GMT-0500 (Central Daylight Time),195218.70000004768,temper,1000,O,m,m,None,533,332.0,201.0,127,1,2060.2000000476837,193158.5,7207,window,AF,B,192736,192736,191009,192020,191009,193069,192535,192535,193069,13
14,test,1,inc,1,m,Tue Sep 02 2025 09:48:49 GMT-0500 (Central Daylight Time),197134.0,brutal,900,O,m,m,None,492,277.0,215.0,102,1,1907.2000000476837,195226.79999995232,7207,jacket,AF,B,194702,194702,193077,193985,193077,194984,194486,194486,194984,14
15,test,1,con,1,m,Tue Sep 02 2025 09:48:49 GMT-0500 (Central Daylight Time),199184.29999995232,step,1100,O,m,m,None,400,200.0,200.0,68,1,2043.6999998092651,197140.60000014305,7207,step,AF,B,196818,196818,194991,196102,194991,197034,196618,196618,197034,15
16,test,1,inc,1,m,Tue Sep 02 2025 09:48:49 GMT-0500 (Central Daylight Time),201284.40000009537,temper,1000,O,m,m,None,550,351.0,199.0,103,1,2094.4000000953674,199190.0,7207,jacket,AF,B,198767,198768,197040,198050,197041,199134,198568,198568,199134,16
17,test,1,inc,1,z,Tue Sep 02 2025 09:48:49 GMT-0500 (Central Daylight Time),203515.20000004768,film,1100,O,z,z,None,588,388.0,200.0,16,1,2224.5999999046326,201290.60000014305,7207,kind,AF,B,200967,200967,199141,200251,199141,201365,200767,200767,201365,17
18,test,1,con,1,m,Tue Sep 02 2025 09:48:49 GMT-0500 (Central Daylight Time),205464.60000014305,rock,900,O,m,m,None,501,302.0,199.0,74,1,1944.6000001430511,203520.0,7207,rock,AF,B,202999,202999,201370,202284,201370,203315,202799,202799,203315,18
19,test,1,inc,1,m,Tue Sep 02 2025 09:48:49 GMT-0500 (Central Daylight Time),207847.60000014305,temper,1000,O,m,m,None,843,643.0,200.0,111,1,2376.7000000476837,205470.90000009537,7207,napkin,AF,B,205049,205049,203321,204332,203321,205698,204848,204848,205698,19
20,test,1,con,1,z,Tue Sep 02 2025 09:48:49 GMT-0500 (Central Daylight Time),209829.79999995232,friend,1000,O,z,z,None,435,236.0,199.0,27,1,1976.8999998569489,207852.90000009537,7207,friend,AF,B,207430,207430,205703,206714,205703,207680,207230,207230,207680,20
21,test,1,con,1,z,Tue Sep 02 2025 09:48:49 GMT-0500 (Central Daylight Time),211912.79999995232,brutal,1100,O,z,z,None,434,235.0,199.0,36,1,2074.5,209838.29999995232,7207,brutal,AF,B,209513,209513,207688,208798,207689,209763,209313,209313,209763,21
22,test,1,con,1,z,Tue Sep 02 2025 09:48:49 GMT-0500 (Central Daylight Time),214161.29999995232,temper,1100,O,z,z,None,621,407.0,214.0,60,1,2240.5,211920.79999995232,7207,temper,AF,B,211596,211596,209771,210879,209771,212011,211381,211381,212011,22
23,test,1,con,1,m,Tue Sep 02 2025 09:48:49 GMT-0500 (Central Daylight Time),216393.5,bell,1100,O,m,m,None,591,391.0,200.0,84,1,2224.5999999046326,214168.90000009537,7207,bell,AF,B,213844,213844,212019,213128,212019,214244,213644,213644,214244,23
24,test,1,inc,1,m,Tue Sep 02 2025 09:48:49 GMT-0500 (Central Daylight Time),218561.20000004768,friend,1100,O,m,m,None,517,318.0,199.0,104,1,2159.4000000953674,216401.79999995232,7207,jacket,AF,B,216077,216077,214252,215361,214252,216411,215877,215877,216411,24
25,test,1,inc,1,m,Tue Sep 02 2025 09:48:49 GMT-0500 (Central Daylight Time),220459.90000009537,elated,800,O,m,m,None,556,357.0,199.0,109,1,1891.5,218568.40000009537,7207,napkin,AF,B,217943,217943,216418,217227,216419,218310,217744,217744,218310,25
26,test,1,inc,1,z,Tue Sep 02 2025 09:48:49 GMT-0500 (Central Daylight Time),222708.5,napkin,900,O,z,z,None,811,612.0,199.0,30,1,2240.5999999046326,220467.90000009537,7207,friend,AF,B,219942,219942,218318,219227,218318,220559,219742,219742,220558,26
27,test,1,inc,1,m,Tue Sep 02 2025 09:48:49 GMT-0500 (Central Daylight Time),225009.29999995232,rage,800,O,m,m,None,952,752.0,200.0,77,1,2293.5,222715.79999995232,7207,rock,AF,B,222092,222092,220566,221376,220566,222859,221891,221891,222859,27
28,test,1,con,1,m,Tue Sep 02 2025 09:48:49 GMT-0500 (Central Daylight Time),227524.40000009537,remote,900,O,m,m,None,1097,882.0,215.0,114,1,2509.7999999523163,225014.60000014305,7207,remote,AF,B,224491,224491,222865,223775,222865,225375,224276,224276,225374,28
29,test,1,inc,1,m,Tue Sep 02 2025 09:48:49 GMT-0500 (Central Daylight Time),229522.70000004768,brutal,900,O,m,m,None,564,364.0,200.0,118,1,1994.0,227528.70000004768,7207,remote,AF,B,227007,227007,225379,226292,225379,227373,226807,226807,227373,29
30,test,1,con,1,z,Tue Sep 02 2025 09:48:49 GMT-0500 (Central Daylight Time),231756.0,kind,1100,O,z,z,None,586,387.0,199.0,12,1,2224.5999999046326,229531.40000009537,7207,kind,AF,B,229207,229207,227381,228491,227382,229606,229006,229007,229606,30
31,test,1,con,1,m,Tue Sep 02 2025 09:48:49 GMT-0500 (Central Daylight Time),233688.90000009537,window,900,O,m,m,None,490,291.0,199.0,122,1,1926.6000001430511,231762.29999995232,7207,window,AF,B,231239,231239,229612,230524,229613,231539,231039,231039,231539,31
32,test,1,con,1,z,Tue Sep 02 2025 09:48:49 GMT-0500 (Central Daylight Time),235737.70000004768,elated,1000,O,z,z,None,499,300.0,199.0,3,1,2042.9000000953674,233694.79999995232,7207,elated,AF,B,233272,233272,231545,232556,231545,233588,233072,233072,233588,32
33,test,1,inc,1,m,Tue Sep 02 2025 09:48:49 GMT-0500 (Central Daylight Time),237937.60000014305,hate,1100,O,m,m,None,552,353.0,199.0,88,1,2187.800000190735,235749.79999995232,7207,bell,AF,B,235421,235421,233600,234704,233600,235788,235221,235221,235788,33
34,test,1,inc,1,z,Tue Sep 02 2025 09:48:49 GMT-0500 (Central Daylight Time),240321.5,film,1100,O,z,z,None,733,518.0,215.0,24,1,2375.5999999046326,237945.90000009537,7207,love,AF,B,237638,237638,235796,236905,235796,238172,237422,237422,238171,34
35,test,1,inc,1,z,Tue Sep 02 2025 09:48:49 GMT-0500 (Central Daylight Time),242519.29999995232,step,800,O,z,z,None,850,650.0,200.0,21,1,2191.399999856949,240327.90000009537,7207,love,AF,B,239705,239705,238178,238988,238178,240369,239505,239505,240369,35
35,test,1,inc,0,z,Tue Sep 02 2025 09:48:49 GMT-0500 (Central Daylight Time),244369.5,jacket,800,O,m,m,None,501,301.0,200.0,29,1,1844.8999998569489,242524.60000014305,7207,friend,AF,B,241904,241904,240375,241188,240375,242220,241704,241704,242220,36
36,test,1,inc,1,z,Tue Sep 02 2025 09:48:49 GMT-0500 (Central Daylight Time),246501.40000009537,jacket,800,O,z,z,None,784,585.0,199.0,37,1,2127.2000000476837,244374.20000004768,7207,brutal,AF,B,243753,243753,242224,243037,242224,244351,243553,243553,244351,37
37,test,1,inc,1,z,Tue Sep 02 2025 09:48:49 GMT-0500 (Central Daylight Time),248534.60000014305,rock,900,O,z,z,None,583,384.0,199.0,46,1,2028.9000000953674,246505.70000004768,7207,hate,AF,B,245986,245986,244356,245269,244356,246385,245786,245786,246385,38
38,test,1,con,1,z,Tue Sep 02 2025 09:48:49 GMT-0500 (Central Daylight Time),250317.20000004768,friend,800,O,z,z,None,445,246.0,199.0,25,1,1777.7000000476837,248539.5,7207,friend,AF,B,247918,247918,246390,247203,246390,248167,247718,247718,248167,39
39,test,1,con,1,m,Tue Sep 02 2025 09:48:49 GMT-0500 (Central Daylight Time),252283.20000004768,step,1000,O,m,m,None,423,224.0,199.0,67,1,1961.7999999523163,250321.40000009537,7207,step,AF,B,249900,249900,248171,249184,248172,250133,249701,249701,250133,40
40,test,1,inc,1,m,Tue Sep 02 2025 09:48:49 GMT-0500 (Central Daylight Time),254499.0,friend,1100,O,m,m,None,571,355.0,216.0,112,1,2209.2000000476837,252289.79999995232,7207,napkin,AF,B,251983,251983,250140,251252,250140,252349,251767,251767,252349,41
41,test,1,con,1,z,Tue Sep 02 2025 09:48:49 GMT-0500 (Central Daylight Time),256398.70000004768,hate,900,O,z,z,None,452,253.0,199.0,42,1,1893.9000000953674,254504.79999995232,7207,hate,AF,B,253981,253981,252355,253266,252355,254249,253782,253782,254249,42
42,test,1,inc,1,m,Tue Sep 02 2025 09:48:49 GMT-0500 (Central Daylight Time),258380.40000009537,brutal,900,O,m,m,None,533,320.0,213.0,126,1,1975.9000000953674,256404.5,7207,window,AF,B,255898,255898,254255,255166,254255,256230,255684,255684,256230,43
43,test,1,con,1,m,Tue Sep 02 2025 09:48:49 GMT-0500 (Central Daylight Time),260346.29999995232,bell,1000,O,m,m,None,415,215.0,200.0,83,1,1959.0,258387.29999995232,7207,bell,AF,B,257966,257966,256237,257249,256238,258196,257766,257766,258196,44
43,test,1,con,0,z,Tue Sep 02 2025 09:48:49 GMT-0500 (Central Daylight Time),262246.2999999523,kind,900,O,m,m,None,475,275.0,200.0,10,1,1892.1999998092651,260354.10000014305,7207,kind,AF,B,259815,259815,258204,259113,258205,260096,259614,259614,260096,45
44,test,1,inc,1,z,Tue Sep 02 2025 09:48:49 GMT-0500 (Central Daylight Time),264261.5,step,800,O,z,z,None,676,476.0,200.0,13,1,2010.3999998569489,262251.10000014305,7207,kind,AF,B,261630,261630,260101,260915,260101,262112,261430,261430,262111,46
45,test,1,con,1,z,Tue Sep 02 2025 09:48:49 GMT-0500 (Central Daylight Time),266111.90000009537,rage,900,O,z,z,None,406,206.0,200.0,50,1,1844.1000001430511,264267.7999999523,7207,rage,AF,B,263747,263747,262118,263030,262118,263962,263546,263546,263962,47
46,test,1,inc,1,m,Tue Sep 02 2025 09:48:49 GMT-0500 (Central Daylight Time),268061.40000009537,kind,900,O,m,m,None,517,318.0,199.0,86,1,1946.6000001430511,266114.7999999523,7207,bell,AF,B,265580,265580,263965,264878,263965,265911,265380,265380,265911,48
47,test,1,con,1,z,Tue Sep 02 2025 09:48:49 GMT-0500 (Central Daylight Time),269843.7000000477,love,800,O,z,z,None,462,263.0,199.0,17,1,1777.5999999046326,268066.10000014305,7207,love,AF,B,267429,267429,265916,266727,265916,267694,267229,267229,267694,49
48,test,1,con,1,m,Tue Sep 02 2025 09:48:49 GMT-0500 (Central Daylight Time),271762.2999999523,remote,800,O,m,m,None,599,400.0,199.0,113,1,1913.6999998092651,269848.60000014305,7207,remote,AF,B,269212,269212,267699,268511,267699,269612,269012,269012,269612,50
49,test,1,con,1,m,Tue Sep 02 2025 09:48:49 GMT-0500 (Central Daylight Time),273643.10000014305,step,900,O,m,m,None,438,238.0,200.0,66,1,1875.2000000476837,271767.90000009537,7207,step,AF,B,271244,271244,269618,270528,269618,271493,271043,271043,271493,51
50,test,1,con,1,m,Tue Sep 02 2025 09:48:49 GMT-0500 (Central Daylight Time),275625.60000014305,film,1000,O,m,m,None,455,256.0,199.0,91,1,1976.1000001430511,273649.5,7207,film,AF,B,273210,273210,271500,272509,271500,273476,273010,273010,273476,52
51,test,1,con,1,z,Tue Sep 02 2025 09:48:49 GMT-0500 (Central Daylight Time),277509.0,hate,800,O,z,z,None,546,347.0,199.0,41,1,1878.7999999523163,275630.2000000477,7207,hate,AF,B,275009,275009,273480,274293,273481,275359,274810,274810,275359,53
52,test,1,con,1,m,Tue Sep 02 2025 09:48:49 GMT-0500 (Central Daylight Time),279375.2999999523,film,800,O,m,m,None,534,335.0,199.0,89,1,1860.2999999523163,277515.0,7207,film,AF,B,276876,276876,275365,276175,275365,277225,276677,276677,277225,54
53,test,1,inc,1,m,Tue Sep 02 2025 09:48:49 GMT-0500 (Central Daylight Time),281207.40000009537,rage,800,O,m,m,None,492,293.0,199.0,85,1,1826.1000001430511,279381.2999999523,7207,bell,AF,B,278759,278759,277231,278042,277232,279057,278559,278559,279057,55
54,test,1,inc,1,z,Tue Sep 02 2025 09:48:49 GMT-0500 (Central Daylight Time),283223.10000014305,bell,1000,O,z,z,None,477,276.0,201.0,55,1,2011.2000000476837,281211.90000009537,7207,rage,AF,B,280792,280792,279062,280075,279062,281073,280591,280591,281073,56
55,test,1,con,1,m,Tue Sep 02 2025 09:48:49 GMT-0500 (Central Daylight Time),285306.40000009537,film,1100,O,m,m,None,448,248.0,200.0,92,1,2078.9000000953674,283227.5,7207,film,AF,B,282907,282908,281078,282190,281078,283157,282707,282707,283156,57
56,test,1,con,1,z,Tue Sep 02 2025 09:48:49 GMT-0500 (Central Daylight Time),287292.2000000477,brutal,1000,O,z,z,None,431,231.0,200.0,35,1,1980.2999999523163,285311.90000009537,7207,brutal,AF,B,284891,284891,283162,284174,283162,285142,284690,284690,285142,58
57,test,1,con,1,m,Tue Sep 02 2025 09:48:49 GMT-0500 (Central Daylight Time),289404.7999999523,bell,900,O,m,m,None,678,477.0,201.0,82,1,2107.5999999046326,287297.2000000477,7207,bell,AF,B,286773,286773,285147,286057,285147,287255,286571,286571,287255,59
58,test,1,con,1,z,Tue Sep 02 2025 09:48:49 GMT-0500 (Central Daylight Time),291837.40000009537,elated,1100,O,z,z,None,786,587.0,199.0,4,1,2428.2000000476837,289409.2000000477,7207,elated,AF,B,289088,289088,287259,288372,287260,289688,288889,288889,289687,60
59,test,1,inc,1,m,Tue Sep 02 2025 09:48:49 GMT-0500 (Central Daylight Time),293853.10000014305,temper,1000,O,m,m,None,476,276.0,200.0,119,1,2009.8000001907349,291843.2999999523,7207,remote,AF,B,291422,291422,289693,290704,289694,291703,291221,291221,291703,61
60,test,1,inc,1,m,Tue Sep 02 2025 09:48:49 GMT-0500 (Central Daylight Time),295819.60000014305,elated,800,O,m,m,None,619,420.0,199.0,117,1,1962.4000000953674,293857.2000000477,7207,remote,AF,B,293238,293238,291707,292520,291708,293670,293038,293038,293670,62
61,test,1,con,1,m,Tue Sep 02 2025 09:48:49 GMT-0500 (Central Daylight Time),297650.90000009537,napkin,800,O,m,m,None,508,297.0,211.0,105,1,1828.4000000953674,295822.5,7207,napkin,AF,B,295200,295200,293673,294486,293673,295501,294989,294989,295501,63
62,test,1,inc,1,z,Tue Sep 02 2025 09:48:49 GMT-0500 (Central Daylight Time),299484.7999999523,jacket,800,O,z,z,None,488,287.0,201.0,61,1,1831.0999999046326,297653.7000000477,7207,temper,AF,B,297036,297036,295504,296319,295504,297335,296835,296835,297335,64
63,test,1,con,1,z,Tue Sep 02 2025 09:48:49 GMT-0500 (Central Daylight Time),301252.2999999523,brutal,800,O,z,z,None,419,220.0,199.0,33,1,1762.0999999046326,299490.2000000477,7207,brutal,AF,B,298866,298866,297340,298152,297340,299102,298667,298667,299102,65
64,test,1,inc,1,m,Tue Sep 02 2025 09:48:49 GMT-0500 (Central Daylight Time),303167.7999999523,rage,800,O,m,m,None,576,375.0,201.0,93,1,1909.7999999523163,301258.0,7207,film,AF,B,300635,300635,299108,299919,299108,301018,300434,300434,301018,66
65,test,1,inc,1,z,Tue Sep 02 2025 09:48:49 GMT-0500 (Central Daylight Time),305133.40000009537,napkin,900,O,z,z,None,519,319.0,200.0,6,1,1959.6000001430511,303173.7999999523,7207,elated,AF,B,302651,302651,301024,301934,301024,302984,302450,302450,302983,67
66,test,1,inc,1,m,Tue Sep 02 2025 09:48:49 GMT-0500 (Central Daylight Time),307398.2000000477,hate,1100,O,m,m,None,625,426.0,199.0,96,1,2260.2000000476837,305138.0,7207,film,AF,B,304817,304817,302988,304101,302988,305248,304617,304617,305248,68
67,test,1,con,1,m,Tue Sep 02 2025 09:48:49 GMT-0500 (Central Daylight Time),309265.2999999523,rock,800,O,m,m,None,524,324.0,200.0,73,1,1862.8999998569489,307402.40000009537,7207,rock,AF,B,306783,306783,305252,306066,305253,307115,306583,306583,307115,69
68,test,1,inc,1,m,Tue Sep 02 2025 09:48:49 GMT-0500 (Central Daylight Time),311597.2000000477,friend,1100,O,m,m,None,702,503.0,199.0,128,1,2327.5999999046326,309269.60000014305,7207,window,AF,B,308931,308931,307120,308231,307120,309447,308732,308732,309447,70
69,test,1,con,1,z,Tue Sep 02 2025 09:48:49 GMT-0500 (Central Daylight Time),313580.2000000477,temper,900,O,z,z,None,537,336.0,201.0,58,1,1977.4000000953674,311602.7999999523,7207,temper,AF,B,311082,311082,309453,310364,309453,311430,310880,310880,311430,71
70,test,1,con,1,z,Tue Sep 02 2025 09:48:49 GMT-0500 (Central Daylight Time),315797.0,rage,1100,O,z,z,None,581,366.0,215.0,52,1,2210.2000000476837,313586.7999999523,7207,rage,AF,B,313281,313281,311437,312547,311437,313647,313065,313065,313647,72
71,test,1,inc,1,z,Tue Sep 02 2025 09:48:49 GMT-0500 (Central Daylight Time),318045.7000000477,remote,1000,O,z,z,None,710,510.0,200.0,63,1,2241.5999999046326,315804.10000014305,7207,temper,AF,B,315381,315381,313654,314663,313655,315896,315180,315180,315896,73
72,test,1,con,1,m,Tue Sep 02 2025 09:48:49 GMT-0500 (Central Daylight Time),320061.2999999523,jacket,1000,O,m,m,None,479,279.0,200.0,99,1,2009.8999998569489,318051.40000009537,7207,jacket,AF,B,317628,317628,315901,316913,315902,317911,317428,317428,317911,74
73,test,1,con,1,z,Tue Sep 02 2025 09:48:49 GMT-0500 (Central Daylight Time),322011.10000014305,elated,800,O,z,z,None,605,406.0,199.0,1,1,1945.0,320066.10000014305,7207,elated,AF,B,319445,319445,317916,318729,317916,319861,319245,319245,319861,75
74,test,1,con,1,m,Tue Sep 02 2025 09:48:49 GMT-0500 (Central Daylight Time),324027.90000009537,rock,1000,O,m,m,None,482,283.0,199.0,75,1,2011.5,322016.40000009537,7207,rock,AF,B,321595,321595,319866,320878,319867,321878,321395,321395,321878,76
75,test,1,con,1,z,Tue Sep 02 2025 09:48:49 GMT-0500 (Central Daylight Time),326142.2999999523,temper,1000,O,z,z,None,576,377.0,199.0,59,1,2109.899999856949,324032.40000009537,7207,temper,AF,B,323610,323610,321882,322894,321883,323992,323411,323411,323992,77
76,test,1,inc,1,z,Tue Sep 02 2025 09:48:49 GMT-0500 (Central Daylight Time),328158.60000014305,napkin,900,O,z,z,None,576,377.0,199.0,62,1,2011.6000001430511,326147.0,7207,temper,AF,B,325626,325626,323997,324910,323997,326009,325426,325426,326009,78
77,test,1,inc,1,m,Tue Sep 02 2025 09:48:49 GMT-0500 (Central Daylight Time),330374.2999999523,friend,1100,O,m,m,None,567,368.0,199.0,120,1,2209.2999999523163,328165.0,7207,remote,AF,B,327841,327842,326015,327125,326015,328224,327642,327642,328224,79
78,test,1,inc,1,m,Tue Sep 02 2025 09:48:49 GMT-0500 (Central Daylight Time),332457.2000000477,love,1000,O,m,m,None,550,335.0,215.0,95,1,2080.0,330377.2000000477,7207,film,AF,B,329957,329957,328227,329241,328227,330307,329742,329742,330307,80
79,test,1,con,1,z,Tue Sep 02 2025 09:48:49 GMT-0500 (Central Daylight Time),334206.5,temper,800,O,z,z,None,409,210.0,199.0,57,1,1742.7000000476837,332463.7999999523,7207,temper,AF,B,331840,331840,330314,331124,330314,332057,331641,331641,332057,81
80,test,1,inc,1,m,Tue Sep 02 2025 09:48:49 GMT-0500 (Central Daylight Time),336188.90000009537,love,1000,O,m,m,None,445,245.0,200.0,79,1,1975.0,334213.90000009537,7207,rock,AF,B,333790,333790,332064,333073,332064,334039,333589,333589,334039,82
81,test,1,inc,1,z,Tue Sep 02 2025 09:48:49 GMT-0500 (Central Daylight Time),338388.2000000477,window,1100,O,z,z,None,553,352.0,201.0,8,1,2190.9000000953674,336197.2999999523,7207,elated,AF,B,335874,335874,334047,335157,334048,336238,335672,335672,336238,83
82,test,1,con,1,z,Tue Sep 02 2025 09:48:49 GMT-0500 (Central Daylight Time),340687.5,kind,1000,O,z,z,None,750,551.0,199.0,11,1,2291.2000000476837,338396.2999999523,7207,kind,AF,B,337972,337972,336246,337255,336247,338538,337772,337772,338538,84
83,test,1,inc,1,m,Tue Sep 02 2025 09:48:49 GMT-0500 (Central Daylight Time),342520.5,elated,800,O,m,m,None,489,290.0,199.0,101,1,1825.2000000476837,340695.2999999523,7207,jacket,AF,B,340072,340072,338545,339354,338546,340371,339872,339872,340371,85
84,test,1,inc,1,z,Tue Sep 02 2025 09:48:49 GMT-0500 (Central Daylight Time),344504.0,napkin,900,O,z,z,None,542,343.0,199.0,38,1,1976.7000000476837,342527.2999999523,7207,brutal,AF,B,342004,342004,340377,341287,340378,342354,341804,341804,342354,86
85,test,1,inc,1,z,Tue Sep 02 2025 09:48:49 GMT-0500 (Central Daylight Time),346734.5,window,1100,O,z,z,None,584,382.0,202.0,40,1,2222.7999999523163,344511.7000000477,7207,brutal,AF,B,344187,344187,342362,343470,342362,344585,343985,343985,344585,87
85,test,1,inc,0,z,Tue Sep 02 2025 09:48:49 GMT-0500 (Central Daylight Time),348918.0,window,1100,O,m,m,None,559,360.0,199.0,32,1,2180.899999856949,346737.10000014305,7207,friend,AF,B,346402,346402,344587,345702,344587,346768,346203,346203,346768,88
86,test,1,inc,1,m,Tue Sep 02 2025 09:48:49 GMT-0500 (Central Daylight Time),351167.40000009537,love,1000,O,m,m,None,701,502.0,199.0,87,1,2244.0,348923.40000009537,7207,bell,AF,B,348501,348501,346773,347786,346774,349018,348302,348302,349017,89
87,test,1,con,1,m,Tue Sep 02 2025 09:48:49 GMT-0500 (Central Daylight Time),353683.2999999523,film,900,O,m,m,None,1071,871.0,200.0,90,1,2508.699999809265,351174.60000014305,7207,film,AF,B,350651,350651,349025,349934,349025,351533,350451,350451,351533,90
88,test,1,inc,1,m,Tue Sep 02 2025 09:48:49 GMT-0500 (Central Daylight Time),355699.40000009537,kind,900,O,m,m,None,579,380.0,199.0,70,1,2007.7000000476837,353691.7000000477,7207,step,AF,B,353166,353166,351542,352451,351542,353549,352967,352967,353549,91
89,test,1,inc,1,z,Tue Sep 02 2025 09:48:49 GMT-0500 (Central Daylight Time),357681.7999999523,bell,1000,O,z,z,None,440,240.0,200.0,47,1,1974.8999998569489,355706.90000009537,7207,hate,AF,B,355283,355283,353557,354567,353557,355532,355083,355083,355532,92
90,test,1,inc,1,z,Tue Sep 02 2025 09:48:49 GMT-0500 (Central Daylight Time),359849.0,window,1100,O,z,z,None,517,301.0,216.0,64,1,2158.7999999523163,357690.2000000477,7207,temper,AF,B,357383,357383,355540,356650,355540,357699,357167,357167,357699,93
91,test,1,con,1,m,Tue Sep 02 2025 09:48:49 GMT-0500 (Central Daylight Time),361900.5,window,1000,O,m,m,None,500,284.0,216.0,123,1,2045.5,359855.0,7207,window,AF,B,359449,359449,357705,358716,357705,359751,359233,359233,359751,94
92,test,1,con,1,m,Tue Sep 02 2025 09:48:49 GMT-0500 (Central Daylight Time),363747.0,step,800,O,m,m,None,504,303.0,201.0,65,1,1843.7000000476837,361903.2999999523,7207,step,AF,B,361283,361283,359753,360566,359754,361597,361081,361081,361597,95
93,test,1,con,1,m,Tue Sep 02 2025 09:48:49 GMT-0500 (Central Daylight Time),365580.2999999523,napkin,900,O,m,m,None,386,187.0,199.0,106,1,1829.0999999046326,363751.2000000477,7207,napkin,AF,B,363231,363231,361601,362515,361602,363430,363031,363031,363430,96
93,test,1,con,0,z,Tue Sep 02 2025 09:48:49 GMT-0500 (Central Daylight Time),367679.90000009537,friend,1100,O,m,m,None,460,258.0,202.0,28,1,2093.9000000953674,365586.0,7207,friend,AF,B,365265,365265,363436,364547,363436,365530,365062,365062,365530,97
93,test,1,con,0,m,Tue Sep 02 2025 09:48:49 GMT-0500 (Central Daylight Time),371027.60000014305,bell,800,O,None,None,None,1813,1813.0,200.0,81,1,3341.800000190735,367685.7999999523,7207,bell,AF,B,367064,367064,365536,366346,365536,368878,366863,366863,368878,98
94,test,1,inc,1,z,Tue Sep 02 2025 09:48:49 GMT-0500 (Central Daylight Time),373113.60000014305,remote,1000,O,z,z,None,533,333.0,200.0,39,1,2075.100000143051,371038.5,7207,brutal,AF,B,370613,370613,368889,369897,368889,370964,370412,370412,370964,99
95,test,1,inc,1,m,Tue Sep 02 2025 09:48:49 GMT-0500 (Central Daylight Time),375444.7000000477,hate,1100,O,m,m,None,697,497.0,200.0,80,1,2328.2999999523163,373116.40000009537,7207,rock,AF,B,372794,372794,370966,372078,370967,373295,372594,372594,373295,100
96,test,1,inc,1,z,Tue Sep 02 2025 09:48:49 GMT-0500 (Central Daylight Time),377443.0,step,800,O,z,z,None,657,457.0,200.0,45,1,1994.0,375449.0,7207,hate,AF,B,374827,374827,373299,374111,373299,375293,374627,374627,375293,101
97,test,1,inc,1,m,Tue Sep 02 2025 09:48:49 GMT-0500 (Central Daylight Time),379359.40000009537,elated,800,O,m,m,None,578,378.0,200.0,125,1,1910.6000001430511,377448.7999999523,7207,window,AF,B,376826,376826,375299,376111,375299,377209,376626,376626,377209,102
98,test,1,con,1,z,Tue Sep 02 2025 09:48:49 GMT-0500 (Central Daylight Time),381593.0,love,1000,O,z,z,None,699,500.0,199.0,19,1,2228.2999999523163,379364.7000000477,7207,love,AF,B,378927,378927,377215,378225,377215,379443,378727,378727,379443,103
99,test,1,inc,1,m,Tue Sep 02 2025 09:48:49 GMT-0500 (Central Daylight Time),383692.60000014305,love,1000,O,m,m,None,553,354.0,199.0,71,1,2094.100000143051,381598.5,7207,step,AF,B,381175,381175,379449,380459,379449,381543,380976,380976,381543,104
100,test,1,inc,1,z,Tue Sep 02 2025 09:48:49 GMT-0500 (Central Daylight Time),385941.2999999523,rock,900,O,z,z,None,812,613.0,199.0,14,1,2245.5,383695.7999999523,7207,kind,AF,B,383175,383175,381546,382459,381546,383791,382975,382975,383791,105
101,test,1,inc,1,m,Tue Sep 02 2025 09:48:49 GMT-0500 (Central Daylight Time),387824.2000000477,brutal,900,O,m,m,None,437,235.0,202.0,110,1,1877.7000000476837,385946.5,7207,napkin,AF,B,385424,385424,383797,384708,383797,385674,385222,385222,385674,106
102,test,1,inc,1,m,Tue Sep 02 2025 09:48:49 GMT-0500 (Central Daylight Time),389705.40000009537,rage,800,O,m,m,None,538,339.0,199.0,69,1,1876.4000000953674,387829.0,7207,step,AF,B,387207,387207,385679,386491,385679,387555,387008,387008,387555,107
103,test,1,inc,1,m,Tue Sep 02 2025 09:48:49 GMT-0500 (Central Daylight Time),391655.2000000477,kind,900,O,m,m,None,502,302.0,200.0,78,1,1942.9000000953674,389712.2999999523,7207,rock,AF,B,389189,389189,387562,388474,387563,389505,388989,388989,389505,108
104,test,1,con,1,m,Tue Sep 02 2025 09:48:49 GMT-0500 (Central Daylight Time),393455.0,window,800,O,m,m,None,476,277.0,199.0,121,1,1793.7999999523163,391661.2000000477,7207,window,AF,B,391022,391022,389511,390321,389511,391305,390823,390823,391305,109
105,test,1,inc,1,z,Tue Sep 02 2025 09:48:49 GMT-0500 (Central Daylight Time),395537.0,remote,1000,O,z,z,None,539,339.0,200.0,7,1,2077.2000000476837,393459.7999999523,7207,elated,AF,B,393039,393039,391310,392323,391310,393387,392838,392838,393387,110
106,test,1,inc,1,z,Tue Sep 02 2025 09:48:49 GMT-0500 (Central Daylight Time),397721.60000014305,rock,900,O,z,z,None,733,534.0,199.0,54,1,2180.100000143051,395541.5,7207,rage,AF,B,395021,395021,393392,394305,393392,395572,394821,394822,395572,111
107,test,1,con,1,z,Tue Sep 02 2025 09:48:49 GMT-0500 (Central Daylight Time),399903.2999999523,rage,1000,O,z,z,None,644,444.0,200.0,51,1,2175.5,397727.7999999523,7207,rage,AF,B,397304,397304,395578,396590,395578,397753,397103,397103,397753,112
108,test,1,con,1,m,Tue Sep 02 2025 09:48:49 GMT-0500 (Central Daylight Time),401885.7000000477,remote,1000,O,m,m,None,435,234.0,201.0,115,1,1974.5999999046326,399911.10000014305,7207,remote,AF,B,399488,399488,397761,398770,397762,399736,399287,399287,399736,113
109,test,1,con,1,m,Tue Sep 02 2025 09:48:49 GMT-0500 (Central Daylight Time),404151.10000014305,remote,1100,O,m,m,None,616,402.0,214.0,116,1,2260.7000000476837,401890.40000009537,7207,remote,AF,B,401584,401584,399740,400853,399741,402001,401370,401370,402001,114
110,test,1,con,1,m,Tue Sep 02 2025 09:48:49 GMT-0500 (Central Daylight Time),405968.7000000477,jacket,900,O,m,m,None,376,176.0,200.0,98,1,1812.7000000476837,404156.0,7207,jacket,AF,B,403635,403635,402006,402917,402006,403819,403435,403435,403819,115
111,test,1,inc,1,z,Tue Sep 02 2025 09:48:49 GMT-0500 (Central Daylight Time),407833.40000009537,step,800,O,z,z,None,542,341.0,201.0,53,1,1860.5,405972.90000009537,7207,rage,AF,B,405335,405335,403823,404633,403823,405683,405134,405134,405683,116
112,test,1,con,1,z,Tue Sep 02 2025 09:48:49 GMT-0500 (Central Daylight Time),409815.5,brutal,900,O,z,z,None,547,331.0,216.0,34,1,1975.7000000476837,407839.7999999523,7207,brutal,AF,B,407319,407319,405690,406600,405690,407666,407102,407103,407665,117
113,test,1,con,1,z,Tue Sep 02 2025 09:48:49 GMT-0500 (Central Daylight Time),411650.7999999523,elated,900,O,z,z,None,398,199.0,199.0,2,1,1830.8999998569489,409819.90000009537,7207,elated,AF,B,409300,409300,407670,408586,407670,409501,409101,409101,409501,118
114,test,1,inc,1,z,Tue Sep 02 2025 09:48:49 GMT-0500 (Central Daylight Time),413964.0,bell,1000,O,z,z,None,777,578.0,199.0,23,1,2308.0,411656.0,7207,love,AF,B,411232,411232,409506,410517,409506,411814,411033,411033,411814,119
115,test,1,inc,1,z,Tue Sep 02 2025 09:48:49 GMT-0500 (Central Daylight Time),416197.5,film,1100,O,z,z,None,593,378.0,215.0,48,1,2229.0,413968.5,7207,hate,AF,B,413664,413664,411819,412932,411819,414048,413449,413449,414048,120
116,test,1,con,1,m,Tue Sep 02 2025 09:48:49 GMT-0500 (Central Daylight Time),418447.2000000477,napkin,1000,O,m,m,None,708,494.0,214.0,107,1,2246.0,416201.2000000477,7207,napkin,AF,B,415796,415796,414051,415065,414051,416297,415582,415582,416297,121
117,test,1,inc,1,z,Tue Sep 02 2025 09:48:49 GMT-0500 (Central Daylight Time),420880.2999999523,rock,900,O,z,z,None,999,799.0,200.0,22,1,2428.7999999523163,418451.5,7207,love,AF,B,417915,417915,416302,417214,416302,418730,417715,417715,418730,122
118,test,1,con,1,z,Tue Sep 02 2025 09:48:49 GMT-0500 (Central Daylight Time),422962.7999999523,rage,800,O,z,z,None,734,533.0,201.0,49,1,2075.699999809265,420887.10000014305,7207,rage,AF,B,420264,420264,418737,419548,418737,420813,420063,420063,420813,123
119,test,1,inc,1,z,Tue Sep 02 2025 09:48:49 GMT-0500 (Central Daylight Time),424861.7999999523,jacket,800,O,z,z,None,553,353.0,200.0,5,1,1892.2999999523163,422969.5,7207,elated,AF,B,422346,422346,420820,421630,420820,422712,422146,422146,422712,124
120,test,1,inc,1,m,Tue Sep 02 2025 09:48:49 GMT-0500 (Central Daylight Time),426910.7000000477,kind,900,O,m,m,None,600,400.0,200.0,94,1,2043.5999999046326,424867.10000014305,7207,film,AF,B,424346,424346,422717,423630,422717,424761,424145,424145,424761,125
121,test,1,con,1,m,Tue Sep 02 2025 09:48:49 GMT-0500 (Central Daylight Time),429059.60000014305,jacket,1100,O,m,m,None,520,319.0,201.0,100,1,2144.2000000476837,426915.40000009537,7207,jacket,AF,B,426579,426579,424765,425877,424766,426910,426378,426378,426910,126
122,test,1,con,1,m,Tue Sep 02 2025 09:48:49 GMT-0500 (Central Daylight Time),431092.10000014305,napkin,1100,O,m,m,None,386,171.0,215.0,108,1,2028.0,429064.10000014305,7207,napkin,AF,B,428760,428760,426914,428028,426914,428942,428545,428545,428942,127
122,test,1,con,0,z,Tue Sep 02 2025 09:48:49 GMT-0500 (Central Daylight Time),432926.40000009537,friend,900,O,m,m,None,387,186.0,201.0,26,1,1830.0,431096.40000009537,7207,friend,AF,B,430576,430576,428946,429861,428947,430776,430375,430375,430776,128
