Number,acc_sum,block,block_c,block_cond,con_img,correct,correct_response,datetime,endtime,jitter,project,response,response_time,row_sel,session_number,start_end,starttime,subject_id,task,task_vers,trial
6,0,prac,1,A,circle.png,0,m,Mon May 12 2025 15:40:21 GMT-0500 (Central Daylight Time),61790.39999997616,1900,O,None,1512,5,1,4176.100000023842,57614.299999952316,7151,NTS,A,1
9,0,prac,1,A,circle.png,0,m,Mon May 12 2025 15:40:21 GMT-0500 (Central Daylight Time),65588.39999997616,1500,O,None,1514,8,1,3792.2000000476837,61796.199999928474,7151,NTS,A,2
3,0,prac,1,A,circle.png,0,z,Mon May 12 2025 15:40:21 GMT-0500 (Central Daylight Time),69086.79999995232,1200,O,None,1516,3,1,3491.899999976158,65594.89999997616,7151,NTS,A,3
7,0,prac,1,A,circle.png,0,m,Mon May 12 2025 15:40:21 GMT-0500 (Central Daylight Time),73052.69999992847,1700,O,z,1493,6,1,3959.600000023842,69093.09999990463,7151,NTS,A,4
1,1,prac,1,A,circle.png,1,z,Mon May 12 2025 15:40:21 GMT-0500 (Central Daylight Time),75951.89999997616,1000,O,z,1124,1,1,2892.3000000715256,73059.59999990463,7151,NTS,A,5
8,2,prac,1,A,circle.png,1,m,Mon May 12 2025 15:40:21 GMT-0500 (Central Daylight Time),79783.69999992847,1600,O,m,1442,7,1,3824.600000023842,75959.09999990463,7151,NTS,A,6
4,2,prac,1,A,circle.png,0,z,Mon May 12 2025 15:40:21 GMT-0500 (Central Daylight Time),83482.5,1400,O,None,1517,4,1,3692.4000000953674,79790.09999990463,7151,NTS,A,7
3,2,prac,1,A,circle.png,0,z,Mon May 12 2025 15:40:21 GMT-0500 (Central Daylight Time),86981.0,1200,O,None,1513,3,1,3492.600000023842,83488.39999997616,7151,NTS,A,8
7,3,prac,1,A,circle.png,1,m,Mon May 12 2025 15:40:21 GMT-0500 (Central Daylight Time),90280.29999995232,1700,O,m,800,6,1,3292.0,86988.29999995232,7151,NTS,A,9
2,4,prac,1,A,circle.png,1,z,Mon May 12 2025 15:40:21 GMT-0500 (Central Daylight Time),93794.79999995232,2000,O,z,731,2,1,3506.399999976158,90288.39999997616,7151,NTS,A,10
6,5,prac,1,A,circle.png,1,m,Mon May 12 2025 15:40:21 GMT-0500 (Central Daylight Time),97527.19999992847,1900,O,m,1043,5,1,3725.399999976158,93801.79999995232,7151,NTS,A,11
9,6,prac,1,A,circle.png,1,m,Mon May 12 2025 15:40:21 GMT-0500 (Central Daylight Time),100710.29999995232,1500,O,m,895,8,1,3176.100000023842,97534.19999992847,7151,NTS,A,12
6,1,prac,2,A,circle.png,1,m,Mon May 12 2025 15:40:21 GMT-0500 (Central Daylight Time),119134.69999992847,1900,O,m,1274,5,1,3955.899999976158,115178.79999995232,7151,NTS,A,1
9,2,prac,2,A,circle.png,1,m,Mon May 12 2025 15:40:21 GMT-0500 (Central Daylight Time),122120.59999990463,1500,O,m,710,8,1,2972.5999999046326,119148.0,7151,NTS,A,2
8,3,prac,2,A,circle.png,1,m,Mon May 12 2025 15:40:21 GMT-0500 (Central Daylight Time),125284.29999995232,1600,O,m,768,7,1,3157.2000000476837,122127.09999990463,7151,NTS,A,3
2,4,prac,2,A,circle.png,1,z,Mon May 12 2025 15:40:21 GMT-0500 (Central Daylight Time),128784.59999990463,2000,O,z,698,2,1,3490.0,125294.59999990463,7151,NTS,A,4
7,5,prac,2,A,circle.png,1,m,Mon May 12 2025 15:40:21 GMT-0500 (Central Daylight Time),131833.69999992847,1700,O,m,575,6,1,3040.0,128793.69999992847,7151,NTS,A,5
3,6,prac,2,A,circle.png,1,z,Mon May 12 2025 15:40:21 GMT-0500 (Central Daylight Time),134364.79999995232,1200,O,z,536,3,1,2522.5,131842.29999995232,7151,NTS,A,6
7,7,prac,2,A,circle.png,1,m,Mon May 12 2025 15:40:21 GMT-0500 (Central Daylight Time),137532.5,1700,O,m,683,6,1,3159.7000000476837,134372.79999995232,7151,NTS,A,7
6,8,prac,2,A,circle.png,1,m,Mon May 12 2025 15:40:21 GMT-0500 (Central Daylight Time),141145.59999990463,1900,O,m,922,5,1,3604.5999999046326,137541.0,7151,NTS,A,8
3,9,prac,2,A,circle.png,1,z,Mon May 12 2025 15:40:21 GMT-0500 (Central Daylight Time),143878.09999990463,1200,O,z,745,3,1,2724.6999999284744,141153.39999997616,7151,NTS,A,9
1,10,prac,2,A,circle.png,1,z,Mon May 12 2025 15:40:21 GMT-0500 (Central Daylight Time),146512.69999992847,1000,O,z,858,1,1,2621.600000023842,143891.09999990463,7151,NTS,A,10
4,11,prac,2,A,circle.png,1,z,Mon May 12 2025 15:40:21 GMT-0500 (Central Daylight Time),149677.19999992847,1400,O,z,970,4,1,3157.399999976158,146519.79999995232,7151,NTS,A,11
2,12,prac,2,A,circle.png,1,z,Mon May 12 2025 15:40:21 GMT-0500 (Central Daylight Time),153227.69999992847,2000,O,z,756,2,1,3543.600000023842,149684.09999990463,7151,NTS,A,12
4,1,prac,1,B,triangle.png,1,m,Mon May 12 2025 15:40:21 GMT-0500 (Central Daylight Time),182732.59999990463,1500,O,m,759,4,1,3041.5,179691.09999990463,7151,NTS,A,1
3,2,prac,1,B,triangle.png,1,z,Mon May 12 2025 15:40:21 GMT-0500 (Central Daylight Time),185765.5,1600,O,z,637,3,1,3024.4000000953674,182741.09999990463,7151,NTS,A,2
9,3,prac,1,B,triangle.png,1,z,Mon May 12 2025 15:40:21 GMT-0500 (Central Daylight Time),188867.09999990463,1400,O,z,924,8,1,3093.399999976158,185773.69999992847,7151,NTS,A,3
3,4,prac,1,B,triangle.png,1,z,Mon May 12 2025 15:40:21 GMT-0500 (Central Daylight Time),191915.39999997616,1600,O,z,667,3,1,3040.899999976158,188874.5,7151,NTS,A,4
1,5,prac,1,B,triangle.png,1,z,Mon May 12 2025 15:40:21 GMT-0500 (Central Daylight Time),195314.09999990463,1900,O,z,702,1,1,3393.0,191921.09999990463,7151,NTS,A,5
7,6,prac,1,B,triangle.png,1,z,Mon May 12 2025 15:40:21 GMT-0500 (Central Daylight Time),198878.79999995232,2000,O,z,770,6,1,3558.7999999523163,195320.0,7151,NTS,A,6
8,7,prac,1,B,triangle.png,1,m,Mon May 12 2025 15:40:21 GMT-0500 (Central Daylight Time),201512.0,1200,O,m,634,7,1,2627.100000023842,198884.89999997616,7151,NTS,A,7
9,8,prac,1,B,triangle.png,1,z,Mon May 12 2025 15:40:21 GMT-0500 (Central Daylight Time),204793.79999995232,1400,O,z,1099,8,1,3276.100000023842,201517.69999992847,7151,NTS,A,8
4,9,prac,1,B,triangle.png,1,m,Mon May 12 2025 15:40:21 GMT-0500 (Central Daylight Time),208026.39999997616,1500,O,m,942,4,1,3227.0,204799.39999997616,7151,NTS,A,9
6,10,prac,1,B,triangle.png,1,m,Mon May 12 2025 15:40:21 GMT-0500 (Central Daylight Time),210592.09999990463,1000,O,m,777,5,1,2560.6999999284744,208031.39999997616,7151,NTS,A,10
2,11,prac,1,B,triangle.png,1,m,Mon May 12 2025 15:40:21 GMT-0500 (Central Daylight Time),214056.89999997616,1700,O,m,985,2,1,3459.2000000476837,210597.69999992847,7151,NTS,A,11
6,12,prac,1,B,triangle.png,1,m,Mon May 12 2025 15:40:21 GMT-0500 (Central Daylight Time),216638.79999995232,1000,O,m,794,5,1,2575.7000000476837,214063.09999990463,7151,NTS,A,12
2,1,test,1,A,circle.png,1,z,Mon May 12 2025 15:40:21 GMT-0500 (Central Daylight Time),237149.39999997616,2000,O,z,670,2,1,2693.3000000715256,234456.09999990463,7151,NTS,A,1
3,2,test,1,A,circle.png,1,z,Mon May 12 2025 15:40:21 GMT-0500 (Central Daylight Time),239449.19999992847,1200,O,z,1078,3,1,2295.1999999284744,237154.0,7151,NTS,A,2
1,3,test,1,A,circle.png,1,z,Mon May 12 2025 15:40:21 GMT-0500 (Central Daylight Time),241415.0,1000,O,z,945,1,1,1960.2000000476837,239454.79999995232,7151,NTS,A,3
8,4,test,1,A,circle.png,1,m,Mon May 12 2025 15:40:21 GMT-0500 (Central Daylight Time),243748.69999992847,1600,O,m,714,7,1,2329.100000023842,241419.59999990463,7151,NTS,A,4
6,5,test,1,A,circle.png,1,m,Mon May 12 2025 15:40:21 GMT-0500 (Central Daylight Time),246611.89999997616,1900,O,m,932,5,1,2858.0,243753.89999997616,7151,NTS,A,5
1,6,test,1,A,circle.png,1,z,Mon May 12 2025 15:40:21 GMT-0500 (Central Daylight Time),248294.69999992847,1000,O,z,651,1,1,1677.5,246617.19999992847,7151,NTS,A,6
7,7,test,1,A,circle.png,1,m,Mon May 12 2025 15:40:21 GMT-0500 (Central Daylight Time),250711.19999992847,1700,O,m,694,6,1,2411.5,248299.69999992847,7151,NTS,A,7
6,8,test,1,A,circle.png,1,m,Mon May 12 2025 15:40:21 GMT-0500 (Central Daylight Time),253343.79999995232,1900,O,m,709,5,1,2628.600000023842,250715.19999992847,7151,NTS,A,8
4,9,test,1,A,circle.png,1,z,Mon May 12 2025 15:40:21 GMT-0500 (Central Daylight Time),255976.29999995232,1400,O,z,1200,4,1,2626.5,253349.79999995232,7151,NTS,A,9
9,10,test,1,A,circle.png,1,m,Mon May 12 2025 15:40:21 GMT-0500 (Central Daylight Time),258175.79999995232,1500,O,m,677,8,1,2196.2999999523163,255979.5,7151,NTS,A,10
4,11,test,1,A,circle.png,1,z,Mon May 12 2025 15:40:21 GMT-0500 (Central Daylight Time),260725.09999990463,1400,O,z,1121,4,1,2545.2999999523163,258179.79999995232,7151,NTS,A,11
9,12,test,1,A,circle.png,1,m,Mon May 12 2025 15:40:21 GMT-0500 (Central Daylight Time),262941.2999999523,1500,O,m,695,8,1,2211.7000000476837,260729.59999990463,7151,NTS,A,12
3,13,test,1,A,circle.png,1,z,Mon May 12 2025 15:40:21 GMT-0500 (Central Daylight Time),264924.1999999285,1200,O,z,755,3,1,1977.3999999761581,262946.7999999523,7151,NTS,A,13
1,14,test,1,A,circle.png,1,z,Mon May 12 2025 15:40:21 GMT-0500 (Central Daylight Time),266623.7999999523,1000,O,z,666,1,1,1695.8999999761581,264927.89999997616,7151,NTS,A,14
8,15,test,1,A,circle.png,1,m,Mon May 12 2025 15:40:21 GMT-0500 (Central Daylight Time),268739.2999999523,1600,O,m,488,7,1,2110.0,266629.2999999523,7151,NTS,A,15
2,16,test,1,A,circle.png,1,z,Mon May 12 2025 15:40:21 GMT-0500 (Central Daylight Time),271489.0,2000,O,z,717,2,1,2741.3000000715256,268747.6999999285,7151,NTS,A,16
7,17,test,1,A,circle.png,1,m,Mon May 12 2025 15:40:21 GMT-0500 (Central Daylight Time),274038.0,1700,O,m,828,6,1,2543.3000000715256,271494.6999999285,7151,NTS,A,17
7,18,test,1,A,circle.png,1,m,Mon May 12 2025 15:40:21 GMT-0500 (Central Daylight Time),276753.5,1700,O,m,981,6,1,2709.100000023842,274044.39999997616,7151,NTS,A,18
9,19,test,1,A,circle.png,1,m,Mon May 12 2025 15:40:21 GMT-0500 (Central Daylight Time),278836.5,1500,O,m,555,8,1,2077.8000000715256,276758.6999999285,7151,NTS,A,19
3,20,test,1,A,circle.png,1,z,Mon May 12 2025 15:40:21 GMT-0500 (Central Daylight Time),280769.5,1200,O,z,708,3,1,1924.0,278845.5,7151,NTS,A,20
2,21,test,1,A,circle.png,1,z,Mon May 12 2025 15:40:21 GMT-0500 (Central Daylight Time),283517.09999990463,2000,O,z,722,2,1,2739.899999976158,280777.1999999285,7151,NTS,A,21
2,22,test,1,A,circle.png,1,z,Mon May 12 2025 15:40:21 GMT-0500 (Central Daylight Time),286050.1999999285,2000,O,z,499,2,1,2529.1999999284744,283521.0,7151,NTS,A,22
6,23,test,1,A,circle.png,1,m,Mon May 12 2025 15:40:21 GMT-0500 (Central Daylight Time),288582.7999999523,1900,O,m,602,5,1,2528.2999999523163,286054.5,7151,NTS,A,23
4,24,test,1,A,circle.png,1,z,Mon May 12 2025 15:40:21 GMT-0500 (Central Daylight Time),290781.89999997616,1400,O,z,777,4,1,2194.7000000476837,288587.1999999285,7151,NTS,A,24
7,0,test,1,B,triangle.png,0,z,Mon May 12 2025 15:40:21 GMT-0500 (Central Daylight Time),307911.59999990463,2000,O,None,1515,6,1,3530.6999999284744,304380.89999997616,7151,NTS,A,1
2,1,test,1,B,triangle.png,1,m,Mon May 12 2025 15:40:21 GMT-0500 (Central Daylight Time),310393.09999990463,1700,O,m,751,2,1,2476.6999999284744,307916.39999997616,7151,NTS,A,2
2,1,test,1,B,triangle.png,0,m,Mon May 12 2025 15:40:21 GMT-0500 (Central Daylight Time),313624.2999999523,1700,O,None,1514,2,1,3226.399999976158,310397.89999997616,7151,NTS,A,3
4,2,test,1,B,triangle.png,1,m,Mon May 12 2025 15:40:21 GMT-0500 (Central Daylight Time),316008.89999997616,1500,O,m,861,4,1,2378.0,313630.89999997616,7151,NTS,A,4
1,3,test,1,B,triangle.png,1,z,Mon May 12 2025 15:40:21 GMT-0500 (Central Daylight Time),318540.39999997616,1900,O,z,607,1,1,2525.100000023842,316015.2999999523,7151,NTS,A,5
1,4,test,1,B,triangle.png,1,z,Mon May 12 2025 15:40:21 GMT-0500 (Central Daylight Time),321523.2999999523,1900,O,z,1050,1,1,2978.0,318545.2999999523,7151,NTS,A,6
3,5,test,1,B,triangle.png,1,z,Mon May 12 2025 15:40:21 GMT-0500 (Central Daylight Time),324470.2999999523,2000,O,z,918,11,1,2942.899999976158,321527.39999997616,7151,NTS,A,7
6,6,test,1,B,triangle.png,1,m,Mon May 12 2025 15:40:21 GMT-0500 (Central Daylight Time),326137.1999999285,1000,O,m,642,5,1,1662.1000000238419,324475.09999990463,7151,NTS,A,8
2,7,test,1,B,triangle.png,1,m,Mon May 12 2025 15:40:21 GMT-0500 (Central Daylight Time),328286.89999997616,1200,O,m,928,10,1,2145.2000000476837,326141.6999999285,7151,NTS,A,9
8,8,test,1,B,triangle.png,1,m,Mon May 12 2025 15:40:21 GMT-0500 (Central Daylight Time),330152.2999999523,1200,O,m,643,7,1,1860.2000000476837,328292.09999990463,7151,NTS,A,10
9,9,test,1,B,triangle.png,1,z,Mon May 12 2025 15:40:21 GMT-0500 (Central Daylight Time),332770.0,1900,O,z,685,16,1,2613.9000000953674,330156.09999990463,7151,NTS,A,11
8,10,test,1,B,triangle.png,1,m,Mon May 12 2025 15:40:21 GMT-0500 (Central Daylight Time),335219.5,1700,O,m,733,15,1,2444.8000000715256,332774.6999999285,7151,NTS,A,12
9,11,test,1,B,triangle.png,1,z,Mon May 12 2025 15:40:21 GMT-0500 (Central Daylight Time),337467.0,1400,O,z,823,8,1,2240.8000000715256,335226.1999999285,7151,NTS,A,13
1,12,test,1,B,triangle.png,1,z,Mon May 12 2025 15:40:21 GMT-0500 (Central Daylight Time),339516.2999999523,1400,O,z,622,9,1,2043.7999999523163,337472.5,7151,NTS,A,14
1,13,test,1,B,triangle.png,1,z,Mon May 12 2025 15:40:21 GMT-0500 (Central Daylight Time),341499.59999990463,1400,O,z,557,9,1,1979.0999999046326,339520.5,7151,NTS,A,15
3,14,test,1,B,triangle.png,1,z,Mon May 12 2025 15:40:21 GMT-0500 (Central Daylight Time),343798.0,1600,O,z,671,3,1,2295.600000023842,341502.39999997616,7151,NTS,A,16
9,15,test,1,B,triangle.png,1,z,Mon May 12 2025 15:40:21 GMT-0500 (Central Daylight Time),346479.59999990463,1900,O,z,757,16,1,2677.6999999284744,343801.89999997616,7151,NTS,A,17
4,16,test,1,B,triangle.png,1,m,Mon May 12 2025 15:40:21 GMT-0500 (Central Daylight Time),348429.59999990463,1000,O,m,928,12,1,1947.5,346482.09999990463,7151,NTS,A,18
6,17,test,1,B,triangle.png,1,m,Mon May 12 2025 15:40:21 GMT-0500 (Central Daylight Time),350695.89999997616,1500,O,m,742,13,1,2260.2000000476837,348435.6999999285,7151,NTS,A,19
7,18,test,1,B,triangle.png,1,z,Mon May 12 2025 15:40:21 GMT-0500 (Central Daylight Time),353111.5,1600,O,z,794,14,1,2410.9000000953674,350700.59999990463,7151,NTS,A,20
6,19,test,1,B,triangle.png,1,m,Mon May 12 2025 15:40:21 GMT-0500 (Central Daylight Time),355461.59999990463,1500,O,m,819,13,1,2346.1999999284744,353115.39999997616,7151,NTS,A,21
8,20,test,1,B,triangle.png,1,m,Mon May 12 2025 15:40:21 GMT-0500 (Central Daylight Time),357794.89999997616,1700,O,m,602,15,1,2329.100000023842,355465.7999999523,7151,NTS,A,22
7,21,test,1,B,triangle.png,1,z,Mon May 12 2025 15:40:21 GMT-0500 (Central Daylight Time),360492.59999990463,2000,O,z,680,6,1,2692.5,357800.09999990463,7151,NTS,A,23
4,22,test,1,B,triangle.png,1,m,Mon May 12 2025 15:40:21 GMT-0500 (Central Daylight Time),362341.89999997616,1000,O,m,821,12,1,1845.1000000238419,360496.7999999523,7151,NTS,A,24
3,1,prac,1,C,triangle.png,1,z,Mon May 12 2025 15:40:21 GMT-0500 (Central Daylight Time),399766.89999997616,1500,O,z,1433,3,1,3726.5,396040.39999997616,7151,NTS,A,1
8,2,prac,1,C,triangle.png,1,m,Mon May 12 2025 15:40:21 GMT-0500 (Central Daylight Time),403197.5,1400,O,m,1263,7,1,3422.8000000715256,399774.6999999285,7151,NTS,A,2
6,2,prac,1,C,circle.png,0,m,Mon May 12 2025 15:40:21 GMT-0500 (Central Daylight Time),407494.89999997616,2000,O,None,1516,5,1,4290.800000071526,403204.09999990463,7151,NTS,A,3
1,3,prac,1,C,circle.png,1,z,Mon May 12 2025 15:40:21 GMT-0500 (Central Daylight Time),410945.2999999523,1700,O,z,959,1,1,3444.5,407500.7999999523,7151,NTS,A,4
3,4,prac,1,C,triangle.png,1,z,Mon May 12 2025 15:40:21 GMT-0500 (Central Daylight Time),414010.0,1500,O,z,774,3,1,3058.7000000476837,410951.2999999523,7151,NTS,A,5
1,5,prac,1,C,circle.png,1,z,Mon May 12 2025 15:40:21 GMT-0500 (Central Daylight Time),417141.39999997616,1700,O,z,645,1,1,3125.5,414015.89999997616,7151,NTS,A,6
2,5,prac,1,C,triangle.png,0,m,Mon May 12 2025 15:40:21 GMT-0500 (Central Daylight Time),420825.5,1600,O,z,1302,2,1,3677.3000000715256,417148.1999999285,7151,NTS,A,7
9,5,prac,1,C,circle.png,0,m,Mon May 12 2025 15:40:21 GMT-0500 (Central Daylight Time),424890.09999990463,1900,O,z,1366,8,1,4058.5999999046326,420831.5,7151,NTS,A,8
4,5,prac,1,C,circle.png,0,z,Mon May 12 2025 15:40:21 GMT-0500 (Central Daylight Time),428022.0,1000,O,m,1344,4,1,3124.4000000953674,424897.59999990463,7151,NTS,A,9
6,6,prac,1,C,circle.png,1,m,Mon May 12 2025 15:40:21 GMT-0500 (Central Daylight Time),432153.7999999523,2000,O,m,1356,5,1,4125.799999952316,428028.0,7151,NTS,A,10
7,6,prac,1,C,triangle.png,0,z,Mon May 12 2025 15:40:21 GMT-0500 (Central Daylight Time),435220.39999997616,1200,O,m,1072,6,1,3060.3000000715256,432160.09999990463,7151,NTS,A,11
7,7,prac,1,C,triangle.png,1,z,Mon May 12 2025 15:40:21 GMT-0500 (Central Daylight Time),438019.59999990463,1200,O,z,815,6,1,2793.5,435226.09999990463,7151,NTS,A,12
4,0,prac,2,C,circle.png,0,z,Mon May 12 2025 15:40:21 GMT-0500 (Central Daylight Time),452663.7999999523,1000,O,None,1516,4,1,3291.2999999523163,449372.5,7151,NTS,A,1
3,1,prac,2,C,triangle.png,1,z,Mon May 12 2025 15:40:21 GMT-0500 (Central Daylight Time),456146.59999990463,1500,O,z,1189,3,1,3476.899999976158,452669.6999999285,7151,NTS,A,2
4,2,prac,2,C,circle.png,1,z,Mon May 12 2025 15:40:21 GMT-0500 (Central Daylight Time),459146.7999999523,1000,O,z,1209,4,1,2994.600000023842,456152.1999999285,7151,NTS,A,3
1,2,prac,2,C,circle.png,0,z,Mon May 12 2025 15:40:21 GMT-0500 (Central Daylight Time),463144.1999999285,1700,O,None,1517,1,1,3990.7999999523163,459153.39999997616,7151,NTS,A,4
2,2,prac,2,C,triangle.png,0,m,Mon May 12 2025 15:40:21 GMT-0500 (Central Daylight Time),466308.09999990463,1600,O,z,778,2,1,3154.7999999523163,463153.2999999523,7151,NTS,A,5
8,3,prac,2,C,triangle.png,1,m,Mon May 12 2025 15:40:21 GMT-0500 (Central Daylight Time),469809.89999997616,1400,O,m,1308,7,1,3498.399999976158,466311.5,7151,NTS,A,6
9,3,prac,2,C,circle.png,0,m,Mon May 12 2025 15:40:21 GMT-0500 (Central Daylight Time),473906.89999997616,1900,O,z,1416,8,1,4090.399999976158,469816.5,7151,NTS,A,7
1,4,prac,2,C,circle.png,1,z,Mon May 12 2025 15:40:21 GMT-0500 (Central Daylight Time),477189.1999999285,1700,O,z,794,1,1,3271.7999999523163,473917.39999997616,7151,NTS,A,8
6,4,prac,2,C,circle.png,0,m,Mon May 12 2025 15:40:21 GMT-0500 (Central Daylight Time),481321.6999999285,2000,O,z,1333,5,1,4126.199999928474,477195.5,7151,NTS,A,9
7,4,prac,2,C,triangle.png,0,z,Mon May 12 2025 15:40:21 GMT-0500 (Central Daylight Time),484621.5,1200,O,m,1302,6,1,3293.8000000715256,481327.6999999285,7151,NTS,A,10
3,5,prac,2,C,triangle.png,1,z,Mon May 12 2025 15:40:21 GMT-0500 (Central Daylight Time),487903.1999999285,1500,O,z,994,3,1,3274.6999999284744,484628.5,7151,NTS,A,11
8,6,prac,2,C,triangle.png,1,m,Mon May 12 2025 15:40:21 GMT-0500 (Central Daylight Time),490901.6999999285,1400,O,m,802,7,1,2990.6999999284744,487911.0,7151,NTS,A,12
7,0,prac,3,C,triangle.png,0,z,Mon May 12 2025 15:40:21 GMT-0500 (Central Daylight Time),495385.1999999285,1200,O,m,949,6,1,2944.600000023842,492440.59999990463,7151,NTS,A,1
1,1,prac,3,C,circle.png,1,z,Mon May 12 2025 15:40:21 GMT-0500 (Central Daylight Time),499000.0,1700,O,z,1125,1,1,3603.100000023842,495396.89999997616,7151,NTS,A,2
6,2,prac,3,C,circle.png,1,m,Mon May 12 2025 15:40:21 GMT-0500 (Central Daylight Time),502764.0,2000,O,m,970,5,1,3758.9000000953674,499005.09999990463,7151,NTS,A,3
8,2,prac,3,C,triangle.png,0,m,Mon May 12 2025 15:40:21 GMT-0500 (Central Daylight Time),506380.6999999285,1400,O,z,1436,7,1,3606.0,502774.6999999285,7151,NTS,A,4
3,2,prac,3,C,triangle.png,0,z,Mon May 12 2025 15:40:21 GMT-0500 (Central Daylight Time),510180.39999997616,1500,O,None,1518,3,1,3793.5,506386.89999997616,7151,NTS,A,5
3,3,prac,3,C,triangle.png,1,z,Mon May 12 2025 15:40:21 GMT-0500 (Central Daylight Time),513061.0,1500,O,z,596,3,1,2873.600000023842,510187.39999997616,7151,NTS,A,6
7,3,prac,3,C,triangle.png,0,z,Mon May 12 2025 15:40:21 GMT-0500 (Central Daylight Time),515978.7999999523,1200,O,m,933,6,1,2909.399999976158,513069.39999997616,7151,NTS,A,7
9,3,prac,3,C,circle.png,0,m,Mon May 12 2025 15:40:21 GMT-0500 (Central Daylight Time),519725.2999999523,1900,O,z,1061,8,1,3739.7000000476837,515985.59999990463,7151,NTS,A,8
1,4,prac,3,C,circle.png,1,z,Mon May 12 2025 15:40:21 GMT-0500 (Central Daylight Time),522824.5,1700,O,z,618,1,1,3090.7000000476837,519733.7999999523,7151,NTS,A,9
2,5,prac,3,C,triangle.png,1,m,Mon May 12 2025 15:40:21 GMT-0500 (Central Daylight Time),526024.8999999762,1600,O,m,826,2,1,3192.600000023842,522832.2999999523,7151,NTS,A,10
9,6,prac,3,C,circle.png,1,m,Mon May 12 2025 15:40:21 GMT-0500 (Central Daylight Time),529757.2999999523,1900,O,m,1037,8,1,3725.7999999523163,526031.5,7151,NTS,A,11
4,7,prac,3,C,circle.png,1,z,Mon May 12 2025 15:40:21 GMT-0500 (Central Daylight Time),532488.0,1000,O,z,934,4,1,2723.5,529764.5,7151,NTS,A,12
4,1,test,1,C,triangle.png,1,m,Mon May 12 2025 15:40:21 GMT-0500 (Central Daylight Time),553431.2999999523,1500,O,m,1052,20,1,2577.2000000476837,550854.0999999046,7151,NTS,A,1
7,2,test,1,C,triangle.png,1,z,Mon May 12 2025 15:40:21 GMT-0500 (Central Daylight Time),556364.1999999285,1700,O,z,1204,6,1,2928.2999999523163,553435.8999999762,7151,NTS,A,2
8,3,test,1,C,triangle.png,1,m,Mon May 12 2025 15:40:21 GMT-0500 (Central Daylight Time),558862.5,1600,O,m,866,23,1,2492.7000000476837,556369.7999999523,7151,NTS,A,3
6,4,test,1,C,circle.png,1,m,Mon May 12 2025 15:40:21 GMT-0500 (Central Daylight Time),561829.5999999046,1900,O,m,1039,5,1,2962.5,558867.0999999046,7151,NTS,A,4
1,5,test,1,C,triangle.png,1,z,Mon May 12 2025 15:40:21 GMT-0500 (Central Daylight Time),564727.2999999523,1900,O,z,977,9,1,2892.7000000476837,561834.5999999046,7151,NTS,A,5
3,6,test,1,C,circle.png,1,z,Mon May 12 2025 15:40:21 GMT-0500 (Central Daylight Time),567777.8999999762,1600,O,z,1424,11,1,3045.7000000476837,564732.1999999285,7151,NTS,A,6
1,7,test,1,C,triangle.png,1,z,Mon May 12 2025 15:40:21 GMT-0500 (Central Daylight Time),570878.0,1900,O,z,1184,17,1,3095.9000000953674,567782.0999999046,7151,NTS,A,7
2,8,test,1,C,circle.png,1,z,Mon May 12 2025 15:40:21 GMT-0500 (Central Daylight Time),573875.6999999285,1700,O,z,1267,18,1,2993.1999999284744,570882.5,7151,NTS,A,8
2,9,test,1,C,circle.png,1,z,Mon May 12 2025 15:40:21 GMT-0500 (Central Daylight Time),576440.3999999762,1700,O,z,842,10,1,2560.100000023842,573880.2999999523,7151,NTS,A,9
1,10,test,1,C,circle.png,1,z,Mon May 12 2025 15:40:21 GMT-0500 (Central Daylight Time),578639.5,1000,O,z,1177,1,1,2195.100000023842,576444.3999999762,7151,NTS,A,10
6,11,test,1,C,circle.png,1,m,Mon May 12 2025 15:40:21 GMT-0500 (Central Daylight Time),581523.7999999523,1900,O,m,965,21,1,2881.2000000476837,578642.5999999046,7151,NTS,A,11
3,12,test,1,C,triangle.png,1,z,Mon May 12 2025 15:40:21 GMT-0500 (Central Daylight Time),583939.6999999285,1200,O,z,1190,3,1,2412.899999976158,581526.7999999523,7151,NTS,A,12
4,13,test,1,C,circle.png,1,z,Mon May 12 2025 15:40:21 GMT-0500 (Central Daylight Time),586635.2999999523,1400,O,z,1269,4,1,2690.7999999523163,583944.5,7151,NTS,A,13
9,14,test,1,C,circle.png,1,m,Mon May 12 2025 15:40:21 GMT-0500 (Central Daylight Time),588854.5,1500,O,m,690,8,1,2216.3000000715256,586638.1999999285,7151,NTS,A,14
9,15,test,1,C,triangle.png,1,z,Mon May 12 2025 15:40:21 GMT-0500 (Central Daylight Time),591337.3999999762,1400,O,z,1060,16,1,2478.0,588859.3999999762,7151,NTS,A,15
7,16,test,1,C,circle.png,1,m,Mon May 12 2025 15:40:21 GMT-0500 (Central Daylight Time),594334.5,2000,O,m,978,14,1,2992.8000000715256,591341.6999999285,7151,NTS,A,16
2,16,test,1,C,triangle.png,0,m,Mon May 12 2025 15:40:21 GMT-0500 (Central Daylight Time),597416.7999999523,2000,O,z,1060,2,1,3079.7999999523163,594337.0,7151,NTS,A,17
8,16,test,1,C,circle.png,0,m,Mon May 12 2025 15:40:21 GMT-0500 (Central Daylight Time),600133.6999999285,1200,O,z,1488,15,1,2711.399999976158,597422.2999999523,7151,NTS,A,18
8,16,test,1,C,triangle.png,0,m,Mon May 12 2025 15:40:21 GMT-0500 (Central Daylight Time),602701.2999999523,1600,O,z,951,7,1,2563.2999999523163,600138.0,7151,NTS,A,19
7,16,test,1,C,triangle.png,0,z,Mon May 12 2025 15:40:21 GMT-0500 (Central Daylight Time),605100.6999999285,1700,O,m,673,22,1,2393.899999976158,602706.7999999523,7151,NTS,A,20
3,17,test,1,C,circle.png,1,z,Mon May 12 2025 15:40:21 GMT-0500 (Central Daylight Time),607897.7999999523,1600,O,z,1176,19,1,2793.0,605104.7999999523,7151,NTS,A,21
4,18,test,1,C,triangle.png,1,m,Mon May 12 2025 15:40:21 GMT-0500 (Central Daylight Time),610596.6999999285,1500,O,m,1172,12,1,2694.7999999523163,607901.8999999762,7151,NTS,A,22
6,19,test,1,C,triangle.png,1,m,Mon May 12 2025 15:40:21 GMT-0500 (Central Daylight Time),612396.6999999285,1000,O,m,773,13,1,1794.7999999523163,610601.8999999762,7151,NTS,A,23
9,19,test,1,C,circle.png,0,m,Mon May 12 2025 15:40:21 GMT-0500 (Central Daylight Time),614679.5,1500,O,z,761,24,1,2275.9000000953674,612403.5999999046,7151,NTS,A,24
8,1,test,2,C,circle.png,1,m,Mon May 12 2025 15:40:21 GMT-0500 (Central Daylight Time),626660.0999999046,1200,O,m,816,23,1,2029.0999999046326,624631.0,7151,NTS,A,1
6,1,test,2,C,triangle.png,0,m,Mon May 12 2025 15:40:21 GMT-0500 (Central Daylight Time),628593.8999999762,1000,O,z,916,21,1,1928.3000000715256,626665.5999999046,7151,NTS,A,2
7,1,test,2,C,triangle.png,0,z,Mon May 12 2025 15:40:21 GMT-0500 (Central Daylight Time),631825.0,1700,O,None,1515,6,1,3227.600000023842,628597.3999999762,7151,NTS,A,3
9,2,test,2,C,triangle.png,1,z,Mon May 12 2025 15:40:21 GMT-0500 (Central Daylight Time),634575.0999999046,1400,O,z,1335,24,1,2742.0,631833.0999999046,7151,NTS,A,4
2,3,test,2,C,circle.png,1,z,Mon May 12 2025 15:40:21 GMT-0500 (Central Daylight Time),637572.6999999285,1700,O,z,1272,10,1,2990.0,634582.6999999285,7151,NTS,A,5
8,4,test,2,C,circle.png,1,m,Mon May 12 2025 15:40:21 GMT-0500 (Central Daylight Time),639654.5999999046,1200,O,m,865,15,1,2075.2999999523163,637579.2999999523,7151,NTS,A,6
1,5,test,2,C,triangle.png,1,z,Mon May 12 2025 15:40:21 GMT-0500 (Central Daylight Time),642852.7999999523,1900,O,z,1281,9,1,3192.2000000476837,639660.5999999046,7151,NTS,A,7
4,6,test,2,C,triangle.png,1,m,Mon May 12 2025 15:40:21 GMT-0500 (Central Daylight Time),645219.6999999285,1500,O,m,848,20,1,2361.2999999523163,642858.3999999762,7151,NTS,A,8
3,7,test,2,C,triangle.png,1,z,Mon May 12 2025 15:40:21 GMT-0500 (Central Daylight Time),647269.3999999762,1200,O,z,834,3,1,2047.2000000476837,645222.1999999285,7151,NTS,A,9
4,8,test,2,C,triangle.png,1,m,Mon May 12 2025 15:40:21 GMT-0500 (Central Daylight Time),649500.5999999046,1500,O,m,715,12,1,2225.6999999284744,647274.8999999762,7151,NTS,A,10
2,9,test,2,C,circle.png,1,z,Mon May 12 2025 15:40:21 GMT-0500 (Central Daylight Time),651867.5,1700,O,z,640,18,1,2361.0,649506.5,7151,NTS,A,11
8,10,test,2,C,triangle.png,1,m,Mon May 12 2025 15:40:21 GMT-0500 (Central Daylight Time),654464.8999999762,1600,O,m,965,7,1,2592.2000000476837,651872.6999999285,7151,NTS,A,12
2,11,test,2,C,triangle.png,1,m,Mon May 12 2025 15:40:21 GMT-0500 (Central Daylight Time),657515.7999999523,2000,O,m,1024,2,1,3048.0,654467.7999999523,7151,NTS,A,13
6,12,test,2,C,triangle.png,1,m,Mon May 12 2025 15:40:21 GMT-0500 (Central Daylight Time),659480.2999999523,1000,O,m,935,13,1,1960.0,657520.2999999523,7151,NTS,A,14
1,13,test,2,C,triangle.png,1,z,Mon May 12 2025 15:40:21 GMT-0500 (Central Daylight Time),662079.5,1900,O,z,677,17,1,2592.7000000476837,659486.7999999523,7151,NTS,A,15
7,14,test,2,C,circle.png,1,m,Mon May 12 2025 15:40:21 GMT-0500 (Central Daylight Time),664646.6999999285,2000,O,m,546,14,1,2560.399999976158,662086.2999999523,7151,NTS,A,16
3,15,test,2,C,circle.png,1,z,Mon May 12 2025 15:40:21 GMT-0500 (Central Daylight Time),666879.0,1600,O,z,603,19,1,2226.0,664653.0,7151,NTS,A,17
9,16,test,2,C,triangle.png,1,z,Mon May 12 2025 15:40:21 GMT-0500 (Central Daylight Time),669444.0,1400,O,z,1140,16,1,2560.5,666883.5,7151,NTS,A,18
6,17,test,2,C,circle.png,1,m,Mon May 12 2025 15:40:21 GMT-0500 (Central Daylight Time),672211.1999999285,1900,O,m,842,5,1,2762.2999999523163,669448.8999999762,7151,NTS,A,19
9,18,test,2,C,circle.png,1,m,Mon May 12 2025 15:40:21 GMT-0500 (Central Daylight Time),674411.1999999285,1500,O,m,668,8,1,2195.1999999284744,672216.0,7151,NTS,A,20
3,19,test,2,C,circle.png,1,z,Mon May 12 2025 15:40:21 GMT-0500 (Central Daylight Time),676825.3999999762,1600,O,z,783,11,1,2409.600000023842,674415.7999999523,7151,NTS,A,21
4,20,test,2,C,circle.png,1,z,Mon May 12 2025 15:40:21 GMT-0500 (Central Daylight Time),679192.2999999523,1400,O,z,945,4,1,2361.100000023842,676831.1999999285,7151,NTS,A,22
1,21,test,2,C,circle.png,1,z,Mon May 12 2025 15:40:21 GMT-0500 (Central Daylight Time),680891.1999999285,1000,O,z,666,1,1,1694.0,679197.1999999285,7151,NTS,A,23
7,22,test,2,C,circle.png,1,m,Mon May 12 2025 15:40:21 GMT-0500 (Central Daylight Time),683790.0999999046,2000,O,m,880,22,1,2894.0,680896.0999999046,7151,NTS,A,24
7,1,test,3,C,circle.png,1,m,Mon May 12 2025 15:40:21 GMT-0500 (Central Daylight Time),688955.8999999762,2000,O,m,1041,14,1,3059.899999976158,685896.0,7151,NTS,A,1
4,1,test,3,C,triangle.png,0,m,Mon May 12 2025 15:40:21 GMT-0500 (Central Daylight Time),691554.3999999762,1500,O,z,1072,12,1,2594.100000023842,688960.2999999523,7151,NTS,A,2
2,1,test,3,C,circle.png,0,z,Mon May 12 2025 15:40:21 GMT-0500 (Central Daylight Time),694204.3999999762,1700,O,m,932,10,1,2645.600000023842,691558.7999999523,7151,NTS,A,3
4,1,test,3,C,circle.png,0,z,Mon May 12 2025 15:40:21 GMT-0500 (Central Daylight Time),696171.6999999285,1400,O,m,550,4,1,1961.1000000238419,694210.5999999046,7151,NTS,A,4
7,2,test,3,C,triangle.png,1,z,Mon May 12 2025 15:40:21 GMT-0500 (Central Daylight Time),699019.8999999762,1700,O,z,1123,22,1,2843.3000000715256,696176.5999999046,7151,NTS,A,5
8,3,test,3,C,triangle.png,1,m,Mon May 12 2025 15:40:21 GMT-0500 (Central Daylight Time),701434.5999999046,1600,O,m,791,7,1,2411.899999976158,699022.6999999285,7151,NTS,A,6
3,4,test,3,C,circle.png,1,z,Mon May 12 2025 15:40:21 GMT-0500 (Central Daylight Time),703684.5999999046,1600,O,z,633,11,1,2245.899999976158,701438.6999999285,7151,NTS,A,7
1,5,test,3,C,triangle.png,1,z,Mon May 12 2025 15:40:21 GMT-0500 (Central Daylight Time),706866.1999999285,1900,O,z,1250,9,1,3177.1999999284744,703689.0,7151,NTS,A,8
9,6,test,3,C,triangle.png,1,z,Mon May 12 2025 15:40:21 GMT-0500 (Central Daylight Time),709298.7999999523,1400,O,z,1005,16,1,2427.5,706871.2999999523,7151,NTS,A,9
3,7,test,3,C,triangle.png,1,z,Mon May 12 2025 15:40:21 GMT-0500 (Central Daylight Time),711064.8999999762,1200,O,z,541,19,1,1762.3000000715256,709302.5999999046,7151,NTS,A,10
6,8,test,3,C,circle.png,1,m,Mon May 12 2025 15:40:21 GMT-0500 (Central Daylight Time),713931.5999999046,1900,O,m,934,21,1,2861.7999999523163,711069.7999999523,7151,NTS,A,11
4,9,test,3,C,circle.png,1,z,Mon May 12 2025 15:40:21 GMT-0500 (Central Daylight Time),716397.7999999523,1400,O,z,1049,20,1,2461.2999999523163,713936.5,7151,NTS,A,12
1,10,test,3,C,circle.png,1,z,Mon May 12 2025 15:40:21 GMT-0500 (Central Daylight Time),718045.8999999762,1000,O,z,622,17,1,1643.2000000476837,716402.6999999285,7151,NTS,A,13
1,11,test,3,C,circle.png,1,z,Mon May 12 2025 15:40:21 GMT-0500 (Central Daylight Time),719629.8999999762,1000,O,z,567,1,1,1579.2000000476837,718050.6999999285,7151,NTS,A,14
6,12,test,3,C,circle.png,1,m,Mon May 12 2025 15:40:21 GMT-0500 (Central Daylight Time),722361.3999999762,1900,O,m,810,5,1,2726.2000000476837,719635.1999999285,7151,NTS,A,15
8,13,test,3,C,circle.png,1,m,Mon May 12 2025 15:40:21 GMT-0500 (Central Daylight Time),724210.2999999523,1200,O,m,624,15,1,1844.5,722365.7999999523,7151,NTS,A,16
2,14,test,3,C,triangle.png,1,m,Mon May 12 2025 15:40:21 GMT-0500 (Central Daylight Time),727260.7999999523,2000,O,m,1032,2,1,3046.600000023842,724214.1999999285,7151,NTS,A,17
8,15,test,3,C,triangle.png,1,m,Mon May 12 2025 15:40:21 GMT-0500 (Central Daylight Time),729526.8999999762,1600,O,m,650,23,1,2260.100000023842,727266.7999999523,7151,NTS,A,18
6,16,test,3,C,triangle.png,1,m,Mon May 12 2025 15:40:21 GMT-0500 (Central Daylight Time),731125.1999999285,1000,O,m,572,13,1,1594.1000000238419,729531.0999999046,7151,NTS,A,19
7,17,test,3,C,triangle.png,1,z,Mon May 12 2025 15:40:21 GMT-0500 (Central Daylight Time),733510.0,1700,O,z,668,6,1,2379.7000000476837,731130.2999999523,7151,NTS,A,20
3,18,test,3,C,triangle.png,1,z,Mon May 12 2025 15:40:21 GMT-0500 (Central Daylight Time),735859.6999999285,1200,O,z,1117,3,1,2343.100000023842,733516.5999999046,7151,NTS,A,21
9,19,test,3,C,circle.png,1,m,Mon May 12 2025 15:40:21 GMT-0500 (Central Daylight Time),738207.7999999523,1500,O,m,822,8,1,2343.100000023842,735864.6999999285,7151,NTS,A,22
2,19,test,3,C,triangle.png,0,m,Mon May 12 2025 15:40:21 GMT-0500 (Central Daylight Time),740923.1999999285,2000,O,z,683,18,1,2709.5,738213.6999999285,7151,NTS,A,23
9,20,test,3,C,circle.png,1,m,Mon May 12 2025 15:40:21 GMT-0500 (Central Daylight Time),743704.0,1500,O,m,1250,24,1,2775.100000023842,740928.8999999762,7151,NTS,A,24
1,1,test,4,C,circle.png,1,z,Mon May 12 2025 15:40:21 GMT-0500 (Central Daylight Time),746636.7999999523,1000,O,z,756,17,1,1775.8999999761581,744860.8999999762,7151,NTS,A,1
7,2,test,4,C,circle.png,1,m,Mon May 12 2025 15:40:21 GMT-0500 (Central Daylight Time),749502.8999999762,2000,O,m,845,14,1,2860.3000000715256,746642.5999999046,7151,NTS,A,2
6,3,test,4,C,triangle.png,1,m,Mon May 12 2025 15:40:21 GMT-0500 (Central Daylight Time),751934.7999999523,1000,O,m,1410,13,1,2426.600000023842,749508.1999999285,7151,NTS,A,3
3,4,test,4,C,circle.png,1,z,Mon May 12 2025 15:40:21 GMT-0500 (Central Daylight Time),754517.5,1600,O,z,952,11,1,2577.8000000715256,751939.6999999285,7151,NTS,A,4
4,5,test,4,C,triangle.png,1,m,Mon May 12 2025 15:40:21 GMT-0500 (Central Daylight Time),756884.0,1500,O,m,839,12,1,2361.5,754522.5,7151,NTS,A,5
6,6,test,4,C,circle.png,1,m,Mon May 12 2025 15:40:21 GMT-0500 (Central Daylight Time),759366.1999999285,1900,O,m,554,5,1,2477.6999999284744,756888.5,7151,NTS,A,6
9,7,test,4,C,circle.png,1,m,Mon May 12 2025 15:40:21 GMT-0500 (Central Daylight Time),761667.6999999285,1500,O,m,783,24,1,2294.600000023842,759373.0999999046,7151,NTS,A,7
9,8,test,4,C,triangle.png,1,z,Mon May 12 2025 15:40:21 GMT-0500 (Central Daylight Time),764166.0999999046,1400,O,z,1082,16,1,2491.899999976158,761674.1999999285,7151,NTS,A,8
8,9,test,4,C,circle.png,1,m,Mon May 12 2025 15:40:21 GMT-0500 (Central Daylight Time),766229.5999999046,1200,O,m,844,15,1,2058.899999976158,764170.6999999285,7151,NTS,A,9
7,10,test,4,C,triangle.png,1,z,Mon May 12 2025 15:40:21 GMT-0500 (Central Daylight Time),769197.3999999762,1700,O,z,1232,22,1,2965.3000000715256,766232.0999999046,7151,NTS,A,10
7,11,test,4,C,triangle.png,1,z,Mon May 12 2025 15:40:21 GMT-0500 (Central Daylight Time),771544.6999999285,1700,O,z,616,6,1,2341.399999976158,769203.2999999523,7151,NTS,A,11
8,12,test,4,C,triangle.png,1,m,Mon May 12 2025 15:40:21 GMT-0500 (Central Daylight Time),773828.2999999523,1600,O,m,656,23,1,2278.2000000476837,771550.0999999046,7151,NTS,A,12
3,13,test,4,C,triangle.png,1,z,Mon May 12 2025 15:40:21 GMT-0500 (Central Daylight Time),775877.7999999523,1200,O,z,819,3,1,2045.3999999761581,773832.3999999762,7151,NTS,A,13
1,14,test,4,C,triangle.png,1,z,Mon May 12 2025 15:40:21 GMT-0500 (Central Daylight Time),778525.8999999762,1900,O,z,719,9,1,2642.7000000476837,775883.1999999285,7151,NTS,A,14
4,14,test,4,C,circle.png,0,z,Mon May 12 2025 15:40:21 GMT-0500 (Central Daylight Time),780627.8999999762,1400,O,m,684,20,1,2096.600000023842,778531.2999999523,7151,NTS,A,15
9,15,test,4,C,circle.png,1,m,Mon May 12 2025 15:40:21 GMT-0500 (Central Daylight Time),783192.3999999762,1500,O,m,1045,8,1,2559.600000023842,780632.7999999523,7151,NTS,A,16
2,16,test,4,C,circle.png,1,z,Mon May 12 2025 15:40:21 GMT-0500 (Central Daylight Time),785558.5,1700,O,z,639,10,1,2362.8000000715256,783195.6999999285,7151,NTS,A,17
8,17,test,4,C,triangle.png,1,m,Mon May 12 2025 15:40:21 GMT-0500 (Central Daylight Time),788256.8999999762,1600,O,m,1074,7,1,2694.5,785562.3999999762,7151,NTS,A,18
4,18,test,4,C,circle.png,1,z,Mon May 12 2025 15:40:21 GMT-0500 (Central Daylight Time),790389.7999999523,1400,O,z,705,4,1,2130.100000023842,788259.6999999285,7151,NTS,A,19
2,18,test,4,C,triangle.png,0,m,Mon May 12 2025 15:40:21 GMT-0500 (Central Daylight Time),793039.5,2000,O,z,628,2,1,2644.8000000715256,790394.6999999285,7151,NTS,A,20
3,19,test,4,C,triangle.png,1,z,Mon May 12 2025 15:40:21 GMT-0500 (Central Daylight Time),795189.5999999046,1200,O,z,923,19,1,2145.1999999284744,793044.3999999762,7151,NTS,A,21
2,20,test,4,C,triangle.png,1,m,Mon May 12 2025 15:40:21 GMT-0500 (Central Daylight Time),798187.5,2000,O,m,967,18,1,2994.2000000476837,795193.2999999523,7151,NTS,A,22
6,20,test,4,C,circle.png,0,m,Mon May 12 2025 15:40:21 GMT-0500 (Central Daylight Time),801119.2999999523,1900,O,z,1011,21,1,2926.899999976158,798192.3999999762,7151,NTS,A,23
1,21,test,4,C,circle.png,1,z,Mon May 12 2025 15:40:21 GMT-0500 (Central Daylight Time),802786.5,1000,O,z,644,1,1,1662.8000000715256,801123.6999999285,7151,NTS,A,24
