block_c,block_dur,condition,countdown,datetime,endtime,list,multichar_response,project,response,response_time,session_number,start_end,starttime,subject_id,task,task_vers,trial
,,,,Wed May 27 2026 15:58:56 GMT-0500 (Central Daylight Time),,,,I,space,615,1,,,8101,WL,A,
prac,,0,,Wed May 27 2026 15:58:56 GMT-0500 (Central Daylight Time),,NA,b,I,b,13189,1,,,8101,WL,A,1.0
prac,,0,,Wed May 27 2026 15:58:56 GMT-0500 (Central Daylight Time),,NA,bo,I,o,822,1,,,8101,WL,A,1.0
prac,,0,,Wed May 27 2026 15:58:56 GMT-0500 (Central Daylight Time),,NA,boo,I,o,1719,1,,,8101,WL,A,1.0
prac,,0,,Wed May 27 2026 15:58:56 GMT-0500 (Central Daylight Time),,NA,boos,I,s,729,1,,,8101,WL,A,1.0
prac,,0,,Wed May 27 2026 15:58:56 GMT-0500 (Central Daylight Time),,NA,boost,I,t,99,1,,,8101,WL,A,1.0
prac,,0,,Wed May 27 2026 15:58:56 GMT-0500 (Central Daylight Time),,NA,boostenter,I,enter,943,1,,,8101,WL,A,1.0
1,3.2160000801086426,learn,56783.99991989136,Wed May 27 2026 15:58:56 GMT-0500 (Central Daylight Time),148145.89999999106,A,b,I,b,3194,1,3215.0,144930.89999999106,8101,WL,A,1.0
1,3.449000120162964,learn,56550.999879837036,Wed May 27 2026 15:58:56 GMT-0500 (Central Daylight Time),148379.29999999702,A,bo,I,o,210,1,3448.4000000059605,144930.89999999106,8101,WL,A,1.0
1,3.5989999771118164,learn,56401.00002288818,Wed May 27 2026 15:58:56 GMT-0500 (Central Daylight Time),148529.59999999404,A,boo,I,o,138,1,3598.7000000029802,144930.89999999106,8101,WL,A,1.0
1,3.931999921798706,learn,56068.000078201294,Wed May 27 2026 15:58:56 GMT-0500 (Central Daylight Time),148862.5,A,book,I,k,323,1,3931.6000000089407,144930.89999999106,8101,WL,A,1.0
1,4.799000024795532,learn,55200.99997520447,Wed May 27 2026 15:58:56 GMT-0500 (Central Daylight Time),149728.79999999702,A,bookenter,I,enter,845,1,4797.9000000059605,144930.89999999106,8101,WL,A,1.0
1,5.7149999141693115,learn,54285.00008583069,Wed May 27 2026 15:58:56 GMT-0500 (Central Daylight Time),150645.19999998808,A,h,I,h,898,1,915.8999999910593,149729.29999999702,8101,WL,A,2.0
1,5.914999961853027,learn,54085.00003814697,Wed May 27 2026 15:58:56 GMT-0500 (Central Daylight Time),150845.09999999404,A,ha,I,a,182,1,1115.7999999970198,149729.29999999702,8101,WL,A,2.0
1,6.065000057220459,learn,53934.99994277954,Wed May 27 2026 15:58:56 GMT-0500 (Central Daylight Time),150995.0,A,har,I,r,133,1,1265.7000000029802,149729.29999999702,8101,WL,A,2.0
1,6.648000001907349,learn,53351.99999809265,Wed May 27 2026 15:58:56 GMT-0500 (Central Daylight Time),151578.09999999404,A,harb,I,b,577,1,1848.7999999970198,149729.29999999702,8101,WL,A,2.0
1,7.015000104904175,learn,52984.999895095825,Wed May 27 2026 15:58:56 GMT-0500 (Central Daylight Time),151944.59999999404,A,harbo,I,o,347,1,2215.2999999970198,149729.29999999702,8101,WL,A,2.0
1,7.13100004196167,learn,52868.99995803833,Wed May 27 2026 15:58:56 GMT-0500 (Central Daylight Time),152061.39999999106,A,harbor,I,r,99,1,2332.0999999940395,149729.29999999702,8101,WL,A,2.0
1,7.5980000495910645,learn,52401.999950408936,Wed May 27 2026 15:58:56 GMT-0500 (Central Daylight Time),152527.89999999106,A,harborenter,I,enter,446,1,2798.5999999940395,149729.29999999702,8101,WL,A,2.0
1,8.164000034332275,learn,51835.999965667725,Wed May 27 2026 15:58:56 GMT-0500 (Central Daylight Time),153094.39999999106,A,t,I,t,557,1,566.0999999940395,152528.29999999702,8101,WL,A,3.0
1,8.414000034332275,learn,51585.999965667725,Wed May 27 2026 15:58:56 GMT-0500 (Central Daylight Time),153344.19999998808,A,tr,I,r,229,1,815.8999999910593,152528.29999999702,8101,WL,A,3.0
1,8.597000122070312,learn,51402.99987792969,Wed May 27 2026 15:58:56 GMT-0500 (Central Daylight Time),153527.5,A,tra,I,a,164,1,999.2000000029802,152528.29999999702,8101,WL,A,3.0
1,8.780999898910522,learn,51219.00010108948,Wed May 27 2026 15:58:56 GMT-0500 (Central Daylight Time),153710.79999999702,A,trai,I,i,165,1,1182.5,152528.29999999702,8101,WL,A,3.0
1,8.996999979019165,learn,51003.000020980835,Wed May 27 2026 15:58:56 GMT-0500 (Central Daylight Time),153927.5,A,train,I,n,197,1,1399.2000000029802,152528.29999999702,8101,WL,A,3.0
1,9.480000019073486,learn,50519.999980926514,Wed May 27 2026 15:58:56 GMT-0500 (Central Daylight Time),154410.59999999404,A,trainenter,I,enter,469,1,1882.2999999970198,152528.29999999702,8101,WL,A,3.0
1,10.19700002670288,learn,49802.99997329712,Wed May 27 2026 15:58:56 GMT-0500 (Central Daylight Time),155127.09999999404,A,m,I,m,698,1,716.2000000029802,154410.89999999106,8101,WL,A,4.0
1,10.29699993133545,learn,49703.00006866455,Wed May 27 2026 15:58:56 GMT-0500 (Central Daylight Time),155227.0,A,me,I,e,94,1,816.1000000089407,154410.89999999106,8101,WL,A,4.0
1,10.52999997138977,learn,49470.00002861023,Wed May 27 2026 15:58:56 GMT-0500 (Central Daylight Time),155460.29999999702,A,mea,I,a,217,1,1049.4000000059605,154410.89999999106,8101,WL,A,4.0
1,11.04699993133545,learn,48953.00006866455,Wed May 27 2026 15:58:56 GMT-0500 (Central Daylight Time),155976.79999999702,A,mead,I,d,496,1,1565.9000000059605,154410.89999999106,8101,WL,A,4.0
1,11.246000051498413,learn,48753.99994850159,Wed May 27 2026 15:58:56 GMT-0500 (Central Daylight Time),156176.59999999404,A,meado,I,o,188,1,1765.7000000029802,154410.89999999106,8101,WL,A,4.0
1,11.413000106811523,learn,48586.99989318848,Wed May 27 2026 15:58:56 GMT-0500 (Central Daylight Time),156343.19999998808,A,meadow,I,w,148,1,1932.2999999970198,154410.89999999106,8101,WL,A,4.0
1,11.809999942779541,learn,48190.00005722046,Wed May 27 2026 15:58:56 GMT-0500 (Central Daylight Time),156740.19999998808,A,meadowenter,I,enter,391,1,2329.2999999970198,154410.89999999106,8101,WL,A,4.0
1,13.496000051498413,learn,46503.99994850159,Wed May 27 2026 15:58:56 GMT-0500 (Central Daylight Time),158426.19999998808,A,h,I,h,1664,1,1685.5999999940395,156740.59999999404,8101,WL,A,5.0
1,15.428999900817871,learn,44571.00009918213,Wed May 27 2026 15:58:56 GMT-0500 (Central Daylight Time),160359.0,A,,I,backspace,1922,1,3618.4000000059605,156740.59999999404,8101,WL,A,5.0
1,16.144999980926514,learn,43855.000019073486,Wed May 27 2026 15:58:56 GMT-0500 (Central Daylight Time),161075.5,A,r,I,r,703,1,4334.9000000059605,156740.59999999404,8101,WL,A,5.0
1,16.34500002861023,learn,43654.99997138977,Wed May 27 2026 15:58:56 GMT-0500 (Central Daylight Time),161275.39999999106,A,ra,I,a,194,1,4534.79999999702,156740.59999999404,8101,WL,A,5.0
1,16.479000091552734,learn,43520.999908447266,Wed May 27 2026 15:58:56 GMT-0500 (Central Daylight Time),161408.69999998808,A,rat,I,t,121,1,4668.0999999940395,156740.59999999404,8101,WL,A,5.0
1,16.812000036239624,learn,43187.999963760376,Wed May 27 2026 15:58:56 GMT-0500 (Central Daylight Time),161741.89999999106,A,ratt,I,t,325,1,5001.29999999702,156740.59999999404,8101,WL,A,5.0
1,16.961999893188477,learn,43038.00010681152,Wed May 27 2026 15:58:56 GMT-0500 (Central Daylight Time),161891.69999998808,A,rattl,I,l,143,1,5151.0999999940395,156740.59999999404,8101,WL,A,5.0
1,17.194999933242798,learn,42805.0000667572,Wed May 27 2026 15:58:56 GMT-0500 (Central Daylight Time),162125.0,A,rattle,I,e,225,1,5384.4000000059605,156740.59999999404,8101,WL,A,5.0
1,17.57800006866455,learn,42421.99993133545,Wed May 27 2026 15:58:56 GMT-0500 (Central Daylight Time),162508.19999998808,A,rattleenter,I,enter,368,1,5767.5999999940395,156740.59999999404,8101,WL,A,5.0
1,18.09500002861023,learn,41904.99997138977,Wed May 27 2026 15:58:56 GMT-0500 (Central Daylight Time),163024.69999998808,A,l,I,l,495,1,516.0999999940395,162508.59999999404,8101,WL,A,6.0
1,18.727999925613403,learn,41272.0000743866,Wed May 27 2026 15:58:56 GMT-0500 (Central Daylight Time),163658.0,A,lo,I,o,612,1,1149.4000000059605,162508.59999999404,8101,WL,A,6.0
1,18.878000020980835,learn,41121.999979019165,Wed May 27 2026 15:58:56 GMT-0500 (Central Daylight Time),163807.89999999106,A,log,I,g,139,1,1299.2999999970198,162508.59999999404,8101,WL,A,6.0
1,19.194999933242798,learn,40805.0000667572,Wed May 27 2026 15:58:56 GMT-0500 (Central Daylight Time),164124.69999998808,A,logenter,I,enter,301,1,1616.0999999940395,162508.59999999404,8101,WL,A,6.0
1,23.14299988746643,learn,36857.00011253357,Wed May 27 2026 15:58:56 GMT-0500 (Central Daylight Time),168073.09999999404,A,f,I,f,3928,1,3948.0999999940395,164125.0,8101,WL,A,7.0
1,23.194000005722046,learn,36805.999994277954,Wed May 27 2026 15:58:56 GMT-0500 (Central Daylight Time),168123.69999998808,A,fl,I,l,44,1,3998.699999988079,164125.0,8101,WL,A,7.0
1,23.426000118255615,learn,36573.999881744385,Wed May 27 2026 15:58:56 GMT-0500 (Central Daylight Time),168356.5,A,flo,I,o,225,1,4231.5,164125.0,8101,WL,A,7.0
1,23.592999935150146,learn,36407.00006484985,Wed May 27 2026 15:58:56 GMT-0500 (Central Daylight Time),168523.09999999404,A,flow,I,w,152,1,4398.0999999940395,164125.0,8101,WL,A,7.0
1,24.026000022888184,learn,35973.99997711182,Wed May 27 2026 15:58:56 GMT-0500 (Central Daylight Time),168956.09999999404,A,flowe,I,e,418,1,4831.0999999940395,164125.0,8101,WL,A,7.0
1,24.14299988746643,learn,35857.00011253357,Wed May 27 2026 15:58:56 GMT-0500 (Central Daylight Time),169072.69999998808,A,flower,I,r,97,1,4947.699999988079,164125.0,8101,WL,A,7.0
1,24.493000030517578,learn,35506.99996948242,Wed May 27 2026 15:58:56 GMT-0500 (Central Daylight Time),169422.89999999106,A,flowerenter,I,enter,332,1,5297.899999991059,164125.0,8101,WL,A,7.0
1,60.015000104904175,learn,-15.000104904174805,Wed May 27 2026 15:58:56 GMT-0500 (Central Daylight Time),204946.09999999404,A,None,I,None,35517,1,35522.59999999404,169423.5,8101,WL,A,8.0
2,3.4820001125335693,learn,56517.99988746643,Wed May 27 2026 15:58:56 GMT-0500 (Central Daylight Time),282970.5,A,r,I,r,3462,1,3482.0,279488.5,8101,WL,A,1.0
2,3.615000009536743,learn,56384.99999046326,Wed May 27 2026 15:58:56 GMT-0500 (Central Daylight Time),283104.0,A,ru,I,u,112,1,3615.5,279488.5,8101,WL,A,1.0
2,5.082000017166138,learn,54917.99998283386,Wed May 27 2026 15:58:56 GMT-0500 (Central Daylight Time),284570.09999999404,A,rug,I,g,1461,1,5081.5999999940395,279488.5,8101,WL,A,1.0
2,6.114000082015991,learn,53885.99991798401,Wed May 27 2026 15:58:56 GMT-0500 (Central Daylight Time),285602.89999999106,A,rugenter,I,enter,1028,1,6114.399999991059,279488.5,8101,WL,A,1.0
2,7.7809998989105225,learn,52219.00010108948,Wed May 27 2026 15:58:56 GMT-0500 (Central Daylight Time),287269.299999997,A,c,I,c,1650,1,1666.0,285603.299999997,8101,WL,A,2.0
2,7.88100004196167,learn,52118.99995803833,Wed May 27 2026 15:58:56 GMT-0500 (Central Daylight Time),287369.5,A,ch,I,h,80,1,1766.2000000029802,285603.299999997,8101,WL,A,2.0
2,8.131999969482422,learn,51868.00003051758,Wed May 27 2026 15:58:56 GMT-0500 (Central Daylight Time),287620.1999999881,A,chi,I,i,236,1,2016.8999999910593,285603.299999997,8101,WL,A,2.0
2,8.38100004196167,learn,51618.99995803833,Wed May 27 2026 15:58:56 GMT-0500 (Central Daylight Time),287869.09999999404,A,chim,I,m,241,1,2265.7999999970198,285603.299999997,8101,WL,A,2.0
2,9.61299991607666,learn,50387.00008392334,Wed May 27 2026 15:58:56 GMT-0500 (Central Daylight Time),289101.89999999106,A,chimn,I,n,1223,1,3498.5999999940395,285603.299999997,8101,WL,A,2.0
2,10.180000066757202,learn,49819.9999332428,Wed May 27 2026 15:58:56 GMT-0500 (Central Daylight Time),289668.5,A,chimne,I,e,552,1,4065.2000000029802,285603.299999997,8101,WL,A,2.0
2,10.29699993133545,learn,49703.00006866455,Wed May 27 2026 15:58:56 GMT-0500 (Central Daylight Time),289785.1999999881,A,chimney,I,y,105,1,4181.899999991059,285603.299999997,8101,WL,A,2.0
2,10.746999979019165,learn,49253.000020980835,Wed May 27 2026 15:58:56 GMT-0500 (Central Daylight Time),290235.1999999881,A,chimneyenter,I,enter,436,1,4631.899999991059,285603.299999997,8101,WL,A,2.0
2,11.979000091552734,learn,48020.999908447266,Wed May 27 2026 15:58:56 GMT-0500 (Central Daylight Time),291467.799999997,A,g,I,g,1218,1,1232.2999999970198,290235.5,8101,WL,A,3.0
2,12.128999948501587,learn,47871.00005149841,Wed May 27 2026 15:58:56 GMT-0500 (Central Daylight Time),291617.59999999404,A,go,I,o,129,1,1382.0999999940395,290235.5,8101,WL,A,3.0
2,12.378999948501587,learn,47621.00005149841,Wed May 27 2026 15:58:56 GMT-0500 (Central Daylight Time),291867.89999999106,A,gol,I,l,236,1,1632.3999999910593,290235.5,8101,WL,A,3.0
2,13.078999996185303,learn,46921.0000038147,Wed May 27 2026 15:58:56 GMT-0500 (Central Daylight Time),292567.59999999404,A,gold,I,d,689,1,2332.0999999940395,290235.5,8101,WL,A,3.0
2,13.211999893188477,learn,46788.00010681152,Wed May 27 2026 15:58:56 GMT-0500 (Central Daylight Time),292700.6999999881,A,goldenter,I,enter,126,1,2465.199999988079,290235.5,8101,WL,A,3.0
2,15.57800006866455,learn,44421.99993133545,Wed May 27 2026 15:58:56 GMT-0500 (Central Daylight Time),295066.5,A,f,I,f,2360,1,2365.4000000059605,292701.09999999404,8101,WL,A,4.0
2,15.67799997329712,learn,44322.00002670288,Wed May 27 2026 15:58:56 GMT-0500 (Central Daylight Time),295166.5,A,fi,I,i,83,1,2465.4000000059605,292701.09999999404,8101,WL,A,4.0
2,15.911999940872192,learn,44088.00005912781,Wed May 27 2026 15:58:56 GMT-0500 (Central Daylight Time),295400.1999999881,A,fin,I,n,223,1,2699.0999999940395,292701.09999999404,8101,WL,A,4.0
2,16.045000076293945,learn,43954.999923706055,Wed May 27 2026 15:58:56 GMT-0500 (Central Daylight Time),295533.5,A,fing,I,g,116,1,2832.4000000059605,292701.09999999404,8101,WL,A,4.0
2,16.278000116348267,learn,43721.99988365173,Wed May 27 2026 15:58:56 GMT-0500 (Central Daylight Time),295766.59999999404,A,finge,I,e,225,1,3065.5,292701.09999999404,8101,WL,A,4.0
2,16.378000020980835,learn,43621.999979019165,Wed May 27 2026 15:58:56 GMT-0500 (Central Daylight Time),295866.299999997,A,finger,I,r,94,1,3165.2000000029802,292701.09999999404,8101,WL,A,4.0
2,16.66100001335144,learn,43338.99998664856,Wed May 27 2026 15:58:56 GMT-0500 (Central Daylight Time),296149.799999997,A,fingerenter,I,enter,267,1,3448.7000000029802,292701.09999999404,8101,WL,A,4.0
2,22.308000087738037,learn,37691.99991226196,Wed May 27 2026 15:58:56 GMT-0500 (Central Daylight Time),301798.09999999404,A,b,I,b,5632,1,5648.0,296150.09999999404,8101,WL,A,5.0
2,22.424999952316284,learn,37575.000047683716,Wed May 27 2026 15:58:56 GMT-0500 (Central Daylight Time),301914.59999999404,A,bu,I,u,111,1,5764.5,296150.09999999404,8101,WL,A,5.0
2,22.891000032424927,learn,37108.99996757507,Wed May 27 2026 15:58:56 GMT-0500 (Central Daylight Time),302381.1999999881,A,but,I,t,459,1,6231.0999999940395,296150.09999999404,8101,WL,A,5.0
2,23.490999937057495,learn,36509.000062942505,Wed May 27 2026 15:58:56 GMT-0500 (Central Daylight Time),302981.0,A,butt,I,t,584,1,6830.9000000059605,296150.09999999404,8101,WL,A,5.0
2,23.641000032424927,learn,36358.99996757507,Wed May 27 2026 15:58:56 GMT-0500 (Central Daylight Time),303130.89999999106,A,butto,I,o,128,1,6980.79999999702,296150.09999999404,8101,WL,A,5.0
2,23.908999919891357,learn,36091.00008010864,Wed May 27 2026 15:58:56 GMT-0500 (Central Daylight Time),303398.59999999404,A,button,I,n,259,1,7248.5,296150.09999999404,8101,WL,A,5.0
2,24.20799994468689,learn,35792.00005531311,Wed May 27 2026 15:58:56 GMT-0500 (Central Daylight Time),303697.5,A,buttonenter,I,enter,286,1,7547.4000000059605,296150.09999999404,8101,WL,A,5.0
2,34.15499997138977,learn,25845.00002861023,Wed May 27 2026 15:58:56 GMT-0500 (Central Daylight Time),313644.299999997,A,s,I,s,9940,1,9946.5,303697.799999997,8101,WL,A,6.0
2,34.388999938964844,learn,25611.000061035156,Wed May 27 2026 15:58:56 GMT-0500 (Central Daylight Time),313878.6999999881,A,sa,I,a,216,1,10180.89999999106,303697.799999997,8101,WL,A,6.0
2,34.55399990081787,learn,25446.00009918213,Wed May 27 2026 15:58:56 GMT-0500 (Central Daylight Time),314043.89999999106,A,sal,I,l,159,1,10346.09999999404,303697.799999997,8101,WL,A,6.0
2,34.82100009918213,learn,25178.99990081787,Wed May 27 2026 15:58:56 GMT-0500 (Central Daylight Time),314310.89999999106,A,salt,I,t,258,1,10613.09999999404,303697.799999997,8101,WL,A,6.0
2,35.1710000038147,learn,24828.999996185303,Wed May 27 2026 15:58:56 GMT-0500 (Central Daylight Time),314660.59999999404,A,saltenter,I,enter,336,1,10962.79999999702,303697.799999997,8101,WL,A,6.0
2,60.01300001144409,learn,-13.000011444091797,Wed May 27 2026 15:58:56 GMT-0500 (Central Daylight Time),339503.0,A,None,I,None,24838,1,24842.0,314661.0,8101,WL,A,7.0
3,2.315999984741211,learn,57684.00001525879,Wed May 27 2026 15:58:56 GMT-0500 (Central Daylight Time),413229.799999997,A,m,I,m,2309,1,2316.1000000089407,410913.6999999881,8101,WL,A,1.0
3,2.3989999294281006,learn,57601.0000705719,Wed May 27 2026 15:58:56 GMT-0500 (Central Daylight Time),413313.299999997,A,me,I,e,72,1,2399.6000000089407,410913.6999999881,8101,WL,A,1.0
3,2.615999937057495,learn,57384.000062942505,Wed May 27 2026 15:58:56 GMT-0500 (Central Daylight Time),413529.59999999404,A,mea,I,a,206,1,2615.9000000059605,410913.6999999881,8101,WL,A,1.0
3,3.131999969482422,learn,56868.00003051758,Wed May 27 2026 15:58:56 GMT-0500 (Central Daylight Time),414046.09999999404,A,mead,I,d,500,1,3132.4000000059605,410913.6999999881,8101,WL,A,1.0
3,3.3489999771118164,learn,56651.00002288818,Wed May 27 2026 15:58:56 GMT-0500 (Central Daylight Time),414262.59999999404,A,meado,I,o,207,1,3348.9000000059605,410913.6999999881,8101,WL,A,1.0
3,3.5149998664855957,learn,56485.000133514404,Wed May 27 2026 15:58:56 GMT-0500 (Central Daylight Time),414429.299999997,A,meadow,I,w,151,1,3515.6000000089407,410913.6999999881,8101,WL,A,1.0
3,4.381999969482422,learn,55618.00003051758,Wed May 27 2026 15:58:56 GMT-0500 (Central Daylight Time),415295.799999997,A,meadowenter,I,enter,849,1,4382.100000008941,410913.6999999881,8101,WL,A,1.0
3,7.281999826431274,learn,52718.000173568726,Wed May 27 2026 15:58:56 GMT-0500 (Central Daylight Time),418196.0,A,h,I,h,2893,1,2899.9000000059605,415296.09999999404,8101,WL,A,2.0
3,7.429999828338623,learn,52570.00017166138,Wed May 27 2026 15:58:56 GMT-0500 (Central Daylight Time),418344.799999997,A,ha,I,a,138,1,3048.7000000029802,415296.09999999404,8101,WL,A,2.0
3,7.5299999713897705,learn,52470.00002861023,Wed May 27 2026 15:58:56 GMT-0500 (Central Daylight Time),418444.799999997,A,har,I,r,93,1,3148.7000000029802,415296.09999999404,8101,WL,A,2.0
3,8.162999868392944,learn,51837.000131607056,Wed May 27 2026 15:58:56 GMT-0500 (Central Daylight Time),419077.799999997,A,harp,I,p,616,1,3781.7000000029802,415296.09999999404,8101,WL,A,2.0
3,8.546000003814697,learn,51453.9999961853,Wed May 27 2026 15:58:56 GMT-0500 (Central Daylight Time),419461.1999999881,A,harpenter,I,enter,376,1,4165.0999999940395,415296.09999999404,8101,WL,A,2.0
3,9.51199984550476,learn,50488.00015449524,Wed May 27 2026 15:58:56 GMT-0500 (Central Daylight Time),420427.09999999404,A,a,I,a,960,1,965.5,419461.59999999404,8101,WL,A,3.0
3,9.645999908447266,learn,50354.000091552734,Wed May 27 2026 15:58:56 GMT-0500 (Central Daylight Time),420560.799999997,A,ap,I,p,122,1,1099.2000000029802,419461.59999999404,8101,WL,A,3.0
3,9.828999996185303,learn,50171.0000038147,Wed May 27 2026 15:58:56 GMT-0500 (Central Daylight Time),420744.1999999881,A,app,I,p,164,1,1282.5999999940395,419461.59999999404,8101,WL,A,3.0
3,10.111999988555908,learn,49888.00001144409,Wed May 27 2026 15:58:56 GMT-0500 (Central Daylight Time),421027.0,A,appl,I,l,278,1,1565.4000000059605,419461.59999999404,8101,WL,A,3.0
3,10.34500002861023,learn,49654.99997138977,Wed May 27 2026 15:58:56 GMT-0500 (Central Daylight Time),421260.5,A,apple,I,e,226,1,1798.9000000059605,419461.59999999404,8101,WL,A,3.0
3,11.59500002861023,learn,48404.99997138977,Wed May 27 2026 15:58:56 GMT-0500 (Central Daylight Time),422510.299999997,A,appleenter,I,enter,1242,1,3048.7000000029802,419461.59999999404,8101,WL,A,3.0
3,12.59500002861023,learn,47404.99997138977,Wed May 27 2026 15:58:56 GMT-0500 (Central Daylight Time),423509.799999997,A,k,I,k,991,1,999.2000000029802,422510.59999999404,8101,WL,A,4.0
3,12.727999925613403,learn,47272.0000743866,Wed May 27 2026 15:58:56 GMT-0500 (Central Daylight Time),423643.09999999404,A,ke,I,e,120,1,1132.5,422510.59999999404,8101,WL,A,4.0
3,12.944000005722046,learn,47055.999994277954,Wed May 27 2026 15:58:56 GMT-0500 (Central Daylight Time),423859.39999999106,A,key,I,y,209,1,1348.7999999970198,422510.59999999404,8101,WL,A,4.0
3,13.510999917984009,learn,46489.00008201599,Wed May 27 2026 15:58:56 GMT-0500 (Central Daylight Time),424426.299999997,A,keyenter,I,enter,546,1,1915.7000000029802,422510.59999999404,8101,WL,A,4.0
3,60.01300001144409,learn,-13.000011444091797,Wed May 27 2026 15:58:56 GMT-0500 (Central Daylight Time),470928.5,A,None,I,None,46497,1,46501.90000000596,424426.59999999404,8101,WL,A,5.0
4,3.2160000801086426,learn,56783.99991989136,Wed May 27 2026 15:58:56 GMT-0500 (Central Daylight Time),560950.099999994,A,b,I,b,3197,1,3213.0999999940395,557737.0,8101,WL,A,1.0
4,3.3990001678466797,learn,56600.99983215332,Wed May 27 2026 15:58:56 GMT-0500 (Central Daylight Time),561133.3999999911,A,bo,I,o,174,1,3396.3999999910593,557737.0,8101,WL,A,1.0
4,3.5320000648498535,learn,56467.99993515015,Wed May 27 2026 15:58:56 GMT-0500 (Central Daylight Time),561266.3999999911,A,boo,I,o,128,1,3529.3999999910593,557737.0,8101,WL,A,1.0
4,3.9160001277923584,learn,56083.99987220764,Wed May 27 2026 15:58:56 GMT-0500 (Central Daylight Time),561649.599999994,A,book,I,k,363,1,3912.5999999940395,557737.0,8101,WL,A,1.0
4,5.398000001907349,learn,54601.99999809265,Wed May 27 2026 15:58:56 GMT-0500 (Central Daylight Time),563132.3999999911,A,bookenter,I,enter,1477,1,5395.399999991059,557737.0,8101,WL,A,1.0
4,8.164000034332275,learn,51835.999965667725,Wed May 27 2026 15:58:56 GMT-0500 (Central Daylight Time),565898.5,A,m,I,m,2752,1,2765.6000000089407,563132.8999999911,8101,WL,A,2.0
4,8.29800009727478,learn,51701.99990272522,Wed May 27 2026 15:58:56 GMT-0500 (Central Daylight Time),566031.8999999911,A,me,I,e,115,1,2899.0,563132.8999999911,8101,WL,A,2.0
4,8.531000137329102,learn,51468.9998626709,Wed May 27 2026 15:58:56 GMT-0500 (Central Daylight Time),566265.0,A,mea,I,a,213,1,3132.1000000089407,563132.8999999911,8101,WL,A,2.0
4,9.265000104904175,learn,50734.999895095825,Wed May 27 2026 15:58:56 GMT-0500 (Central Daylight Time),566999.1999999881,A,mead,I,d,725,1,3866.2999999970198,563132.8999999911,8101,WL,A,2.0
4,9.430000066757202,learn,50569.9999332428,Wed May 27 2026 15:58:56 GMT-0500 (Central Daylight Time),567164.5,A,meado,I,o,158,1,4031.6000000089407,563132.8999999911,8101,WL,A,2.0
4,9.614000082015991,learn,50385.99991798401,Wed May 27 2026 15:58:56 GMT-0500 (Central Daylight Time),567348.299999997,A,meadow,I,w,176,1,4215.4000000059605,563132.8999999911,8101,WL,A,2.0
4,9.847000122070312,learn,50152.99987792969,Wed May 27 2026 15:58:56 GMT-0500 (Central Daylight Time),567581.1999999881,A,meadowenter,I,enter,225,1,4448.29999999702,563132.8999999911,8101,WL,A,2.0
4,15.879000186920166,learn,44120.999813079834,Wed May 27 2026 15:58:56 GMT-0500 (Central Daylight Time),573612.8999999911,A,l,I,l,6016,1,6031.29999999702,567581.599999994,8101,WL,A,3.0
4,16.129000186920166,learn,43870.999813079834,Wed May 27 2026 15:58:56 GMT-0500 (Central Daylight Time),573862.599999994,A,lo,I,o,232,1,6281.0,567581.599999994,8101,WL,A,3.0
4,16.32800006866455,learn,43671.99993133545,Wed May 27 2026 15:58:56 GMT-0500 (Central Daylight Time),574062.5,A,log,I,g,190,1,6480.9000000059605,567581.599999994,8101,WL,A,3.0
4,16.861999988555908,learn,43138.00001144409,Wed May 27 2026 15:58:56 GMT-0500 (Central Daylight Time),574595.8999999911,A,logenter,I,enter,519,1,7014.29999999702,567581.599999994,8101,WL,A,3.0
4,18.045000076293945,learn,41954.999923706055,Wed May 27 2026 15:58:56 GMT-0500 (Central Daylight Time),575778.799999997,A,k,I,k,1162,1,1182.7000000029802,574596.099999994,8101,WL,A,4.0
4,18.17799997329712,learn,41822.00002670288,Wed May 27 2026 15:58:56 GMT-0500 (Central Daylight Time),575912.299999997,A,ke,I,e,122,1,1316.2000000029802,574596.099999994,8101,WL,A,4.0
4,18.445000171661377,learn,41554.99982833862,Wed May 27 2026 15:58:56 GMT-0500 (Central Daylight Time),576178.799999997,A,key,I,y,262,1,1582.7000000029802,574596.099999994,8101,WL,A,4.0
4,18.978000164031982,learn,41021.99983596802,Wed May 27 2026 15:58:56 GMT-0500 (Central Daylight Time),576712.0,A,keyenter,I,enter,523,1,2115.9000000059605,574596.099999994,8101,WL,A,4.0
4,19.562000036239624,learn,40437.999963760376,Wed May 27 2026 15:58:56 GMT-0500 (Central Daylight Time),577296.1999999881,A,g,I,g,565,1,583.8999999910593,576712.299999997,8101,WL,A,5.0
4,19.66100001335144,learn,40338.99998664856,Wed May 27 2026 15:58:56 GMT-0500 (Central Daylight Time),577394.6999999881,A,go,I,o,86,1,682.3999999910593,576712.299999997,8101,WL,A,5.0
4,19.944000005722046,learn,40055.999994277954,Wed May 27 2026 15:58:56 GMT-0500 (Central Daylight Time),577678.1999999881,A,gol,I,l,267,1,965.8999999910593,576712.299999997,8101,WL,A,5.0
4,20.16100001335144,learn,39838.99998664856,Wed May 27 2026 15:58:56 GMT-0500 (Central Daylight Time),577894.6999999881,A,gold,I,d,207,1,1182.3999999910593,576712.299999997,8101,WL,A,5.0
4,20.41100001335144,learn,39588.99998664856,Wed May 27 2026 15:58:56 GMT-0500 (Central Daylight Time),578144.6999999881,A,goldenter,I,enter,232,1,1432.3999999910593,576712.299999997,8101,WL,A,5.0
4,20.710000038146973,learn,39289.99996185303,Wed May 27 2026 15:58:56 GMT-0500 (Central Daylight Time),578444.5,A,a,I,a,293,1,299.40000000596046,578145.099999994,8101,WL,A,6.0
4,20.89400005340576,learn,39105.99994659424,Wed May 27 2026 15:58:56 GMT-0500 (Central Daylight Time),578627.6999999881,A,ap,I,p,170,1,482.59999999403954,578145.099999994,8101,WL,A,6.0
4,21.044000148773193,learn,38955.99985122681,Wed May 27 2026 15:58:56 GMT-0500 (Central Daylight Time),578777.6999999881,A,app,I,p,138,1,632.5999999940395,578145.099999994,8101,WL,A,6.0
4,21.277000188827515,learn,38722.999811172485,Wed May 27 2026 15:58:56 GMT-0500 (Central Daylight Time),579010.799999997,A,appl,I,l,227,1,865.7000000029802,578145.099999994,8101,WL,A,6.0
4,21.47699999809265,learn,38523.00000190735,Wed May 27 2026 15:58:56 GMT-0500 (Central Daylight Time),579211.099999994,A,apple,I,e,186,1,1066.0,578145.099999994,8101,WL,A,6.0
4,22.14300012588501,learn,37856.99987411499,Wed May 27 2026 15:58:56 GMT-0500 (Central Daylight Time),579877.3999999911,A,appleenter,I,enter,658,1,1732.2999999970198,578145.099999994,8101,WL,A,6.0
4,23.0770001411438,learn,36922.9998588562,Wed May 27 2026 15:58:56 GMT-0500 (Central Daylight Time),580810.799999997,A,b,I,b,929,1,933.1000000089407,579877.6999999881,8101,WL,A,7.0
4,23.2260000705719,learn,36773.9999294281,Wed May 27 2026 15:58:56 GMT-0500 (Central Daylight Time),580960.5,A,bu,I,u,130,1,1082.800000011921,579877.6999999881,8101,WL,A,7.0
4,23.52900004386902,learn,36470.99995613098,Wed May 27 2026 15:58:56 GMT-0500 (Central Daylight Time),581262.8999999911,A,but,I,t,298,1,1385.2000000029802,579877.6999999881,8101,WL,A,7.0
4,23.64300012588501,learn,36356.99987411499,Wed May 27 2026 15:58:56 GMT-0500 (Central Daylight Time),581376.799999997,A,butt,I,t,102,1,1499.1000000089407,579877.6999999881,8101,WL,A,7.0
4,23.91000008583069,learn,36089.99991416931,Wed May 27 2026 15:58:56 GMT-0500 (Central Daylight Time),581643.6999999881,A,butto,I,o,253,1,1766.0,579877.6999999881,8101,WL,A,7.0
4,24.16000008583069,learn,35839.99991416931,Wed May 27 2026 15:58:56 GMT-0500 (Central Daylight Time),581893.599999994,A,button,I,n,242,1,2015.9000000059605,579877.6999999881,8101,WL,A,7.0
4,24.542999982833862,learn,35457.00001716614,Wed May 27 2026 15:58:56 GMT-0500 (Central Daylight Time),582277.099999994,A,buttonenter,I,enter,369,1,2399.4000000059605,579877.6999999881,8101,WL,A,7.0
4,25.492000102996826,learn,34507.999897003174,Wed May 27 2026 15:58:56 GMT-0500 (Central Daylight Time),583226.5,A,f,I,f,928,1,949.0,582277.5,8101,WL,A,8.0
4,25.575000047683716,learn,34424.999952316284,Wed May 27 2026 15:58:56 GMT-0500 (Central Daylight Time),583309.5,A,fl,I,l,74,1,1032.0,582277.5,8101,WL,A,8.0
4,25.80900001525879,learn,34190.99998474121,Wed May 27 2026 15:58:56 GMT-0500 (Central Daylight Time),583543.099999994,A,flo,I,o,216,1,1265.5999999940395,582277.5,8101,WL,A,8.0
4,25.97699999809265,learn,34023.00000190735,Wed May 27 2026 15:58:56 GMT-0500 (Central Daylight Time),583710.599999994,A,flow,I,w,159,1,1433.0999999940395,582277.5,8101,WL,A,8.0
4,26.29200005531311,learn,33707.99994468689,Wed May 27 2026 15:58:56 GMT-0500 (Central Daylight Time),584026.3999999911,A,flowe,I,e,310,1,1748.8999999910593,582277.5,8101,WL,A,8.0
4,26.442000150680542,learn,33557.99984931946,Wed May 27 2026 15:58:56 GMT-0500 (Central Daylight Time),584176.299999997,A,flower,I,r,140,1,1898.7999999970198,582277.5,8101,WL,A,8.0
4,27.02500009536743,learn,32974.99990463257,Wed May 27 2026 15:58:56 GMT-0500 (Central Daylight Time),584759.1999999881,A,flowerenter,I,enter,573,1,2481.699999988079,582277.5,8101,WL,A,8.0
4,37.2720000743866,learn,22727.999925613403,Wed May 27 2026 15:58:56 GMT-0500 (Central Daylight Time),595006.299999997,A,r,I,r,10238,1,10246.79999999702,584759.5,8101,WL,A,9.0
4,37.455000162124634,learn,22544.999837875366,Wed May 27 2026 15:58:56 GMT-0500 (Central Daylight Time),595189.299999997,A,ra,I,a,175,1,10429.79999999702,584759.5,8101,WL,A,9.0
4,37.621999979019165,learn,22378.000020980835,Wed May 27 2026 15:58:56 GMT-0500 (Central Daylight Time),595356.099999994,A,rat,I,t,153,1,10596.59999999404,584759.5,8101,WL,A,9.0
4,37.871999979019165,learn,22128.000020980835,Wed May 27 2026 15:58:56 GMT-0500 (Central Daylight Time),595605.799999997,A,ratt,I,t,234,1,10846.29999999702,584759.5,8101,WL,A,9.0
4,38.03800010681152,learn,21961.999893188477,Wed May 27 2026 15:58:56 GMT-0500 (Central Daylight Time),595772.3999999911,A,rattl,I,l,159,1,11012.89999999106,584759.5,8101,WL,A,9.0
4,38.187999963760376,learn,21812.000036239624,Wed May 27 2026 15:58:56 GMT-0500 (Central Daylight Time),595922.3999999911,A,rattle,I,e,129,1,11162.89999999106,584759.5,8101,WL,A,9.0
4,38.40499997138977,learn,21595.00002861023,Wed May 27 2026 15:58:56 GMT-0500 (Central Daylight Time),596139.0,A,rattleenter,I,enter,212,1,11379.5,584759.5,8101,WL,A,9.0
4,41.420000076293945,learn,18579.999923706055,Wed May 27 2026 15:58:56 GMT-0500 (Central Daylight Time),599154.799999997,A,s,I,s,3002,1,3015.5,596139.299999997,8101,WL,A,10.0
4,41.62000012397766,learn,18379.99987602234,Wed May 27 2026 15:58:56 GMT-0500 (Central Daylight Time),599354.6999999881,A,sa,I,a,178,1,3215.3999999910593,596139.299999997,8101,WL,A,10.0
4,42.585999965667725,learn,17414.000034332275,Wed May 27 2026 15:58:56 GMT-0500 (Central Daylight Time),600321.099999994,A,sal,I,l,956,1,4181.79999999702,596139.299999997,8101,WL,A,10.0
4,42.753000020980835,learn,17246.999979019165,Wed May 27 2026 15:58:56 GMT-0500 (Central Daylight Time),600487.599999994,A,salt,I,t,148,1,4348.29999999702,596139.299999997,8101,WL,A,10.0
4,43.10300016403198,learn,16896.999835968018,Wed May 27 2026 15:58:56 GMT-0500 (Central Daylight Time),600837.1999999881,A,saltenter,I,enter,335,1,4697.899999991059,596139.299999997,8101,WL,A,10.0
4,43.90300011634827,learn,16096.999883651733,Wed May 27 2026 15:58:56 GMT-0500 (Central Daylight Time),601637.099999994,A,f,I,f,784,1,799.5999999940395,600837.5,8101,WL,A,11.0
4,43.986000061035156,learn,16013.999938964844,Wed May 27 2026 15:58:56 GMT-0500 (Central Daylight Time),601720.599999994,A,fi,I,i,73,1,883.0999999940395,600837.5,8101,WL,A,11.0
4,44.253000020980835,learn,15746.999979019165,Wed May 27 2026 15:58:56 GMT-0500 (Central Daylight Time),601987.1999999881,A,fin,I,n,253,1,1149.699999988079,600837.5,8101,WL,A,11.0
4,44.43600010871887,learn,15563.999891281128,Wed May 27 2026 15:58:56 GMT-0500 (Central Daylight Time),602170.599999994,A,fing,I,g,171,1,1333.0999999940395,600837.5,8101,WL,A,11.0
4,44.68600010871887,learn,15313.999891281128,Wed May 27 2026 15:58:56 GMT-0500 (Central Daylight Time),602420.299999997,A,finge,I,e,235,1,1582.7999999970198,600837.5,8101,WL,A,11.0
4,44.819000005722046,learn,15180.999994277954,Wed May 27 2026 15:58:56 GMT-0500 (Central Daylight Time),602553.799999997,A,finger,I,r,113,1,1716.2999999970198,600837.5,8101,WL,A,11.0
4,45.10199999809265,learn,14898.000001907349,Wed May 27 2026 15:58:56 GMT-0500 (Central Daylight Time),602836.8999999911,A,fingerenter,I,enter,268,1,1999.3999999910593,600837.5,8101,WL,A,11.0
4,48.3510000705719,learn,11648.9999294281,Wed May 27 2026 15:58:56 GMT-0500 (Central Daylight Time),606085.799999997,A,h,I,h,3241,1,3248.5,602837.299999997,8101,WL,A,12.0
4,48.485000133514404,learn,11514.999866485596,Wed May 27 2026 15:58:56 GMT-0500 (Central Daylight Time),606219.099999994,A,ha,I,a,128,1,3381.7999999970198,602837.299999997,8101,WL,A,12.0
4,48.651000022888184,learn,11348.999977111816,Wed May 27 2026 15:58:56 GMT-0500 (Central Daylight Time),606385.599999994,A,har,I,r,155,1,3548.2999999970198,602837.299999997,8101,WL,A,12.0
4,49.11800003051758,learn,10881.999969482422,Wed May 27 2026 15:58:56 GMT-0500 (Central Daylight Time),606852.3999999911,A,harp,I,p,460,1,4015.0999999940395,602837.299999997,8101,WL,A,12.0
4,49.63499999046326,learn,10365.000009536743,Wed May 27 2026 15:58:56 GMT-0500 (Central Daylight Time),607369.8999999911,A,harpenter,I,enter,505,1,4532.5999999940395,602837.299999997,8101,WL,A,12.0
4,60.01400017738342,learn,-14.000177383422852,Wed May 27 2026 15:58:56 GMT-0500 (Central Daylight Time),617749.0,A,None,I,None,10374,1,10378.800000011921,607370.1999999881,8101,WL,A,13.0
5,2.2330000400543213,learn,60000.0,Wed May 27 2026 15:58:56 GMT-0500 (Central Daylight Time),692009.1999999881,A,b,I,b,2214,1,2232.699999988079,689776.5,8101,WL,A,1.0
5,2.4659998416900635,learn,60000.0,Wed May 27 2026 15:58:56 GMT-0500 (Central Daylight Time),692242.299999997,A,bo,I,o,211,1,2465.7999999970198,689776.5,8101,WL,A,1.0
5,2.632999897003174,learn,60000.0,Wed May 27 2026 15:58:56 GMT-0500 (Central Daylight Time),692408.799999997,A,boo,I,o,147,1,2632.2999999970198,689776.5,8101,WL,A,1.0
5,3.632999897003174,learn,60000.0,Wed May 27 2026 15:58:56 GMT-0500 (Central Daylight Time),693408.6999999881,A,book,I,k,981,1,3632.199999988079,689776.5,8101,WL,A,1.0
5,3.998999834060669,learn,60000.0,Wed May 27 2026 15:58:56 GMT-0500 (Central Daylight Time),693775.099999994,A,bookenter,I,enter,358,1,3998.5999999940395,689776.5,8101,WL,A,1.0
5,4.98199987411499,learn,60000.0,Wed May 27 2026 15:58:56 GMT-0500 (Central Daylight Time),694758.1999999881,A,b,I,b,974,1,982.7999999970198,693775.3999999911,8101,WL,A,2.0
5,5.248999834060669,learn,60000.0,Wed May 27 2026 15:58:56 GMT-0500 (Central Daylight Time),695024.8999999911,A,be,I,e,247,1,1249.5,693775.3999999911,8101,WL,A,2.0
5,6.115000009536743,learn,60000.0,Wed May 27 2026 15:58:56 GMT-0500 (Central Daylight Time),695891.099999994,A,b,I,backspace,853,1,2115.7000000029802,693775.3999999911,8101,WL,A,2.0
5,6.365000009536743,learn,60000.0,Wed May 27 2026 15:58:56 GMT-0500 (Central Daylight Time),696141.0,A,,I,backspace,241,1,2365.6000000089407,693775.3999999911,8101,WL,A,2.0
5,8.214999914169312,learn,60000.0,Wed May 27 2026 15:58:56 GMT-0500 (Central Daylight Time),697990.599999994,A,m,I,m,1833,1,4215.20000000298,693775.3999999911,8101,WL,A,2.0
5,8.330999851226807,learn,60000.0,Wed May 27 2026 15:58:56 GMT-0500 (Central Daylight Time),698106.8999999911,A,me,I,e,110,1,4331.5,693775.3999999911,8101,WL,A,2.0
5,8.530999898910522,learn,60000.0,Wed May 27 2026 15:58:56 GMT-0500 (Central Daylight Time),698307.0,A,mea,I,a,196,1,4531.600000008941,693775.3999999911,8101,WL,A,2.0
5,9.34500002861023,learn,60000.0,Wed May 27 2026 15:58:56 GMT-0500 (Central Daylight Time),699120.6999999881,A,meao,I,o,808,1,5345.29999999702,693775.3999999911,8101,WL,A,2.0
5,9.54699993133545,learn,60000.0,Wed May 27 2026 15:58:56 GMT-0500 (Central Daylight Time),699323.0,A,meaow,I,w,195,1,5547.600000008941,693775.3999999911,8101,WL,A,2.0
5,10.27999997138977,learn,60000.0,Wed May 27 2026 15:58:56 GMT-0500 (Central Daylight Time),700056.3999999911,A,meao,I,backspace,722,1,6281.0,693775.3999999911,8101,WL,A,2.0
5,10.44700002670288,learn,60000.0,Wed May 27 2026 15:58:56 GMT-0500 (Central Daylight Time),700223.299999997,A,mea,I,backspace,150,1,6447.9000000059605,693775.3999999911,8101,WL,A,2.0
5,10.929999828338623,learn,60000.0,Wed May 27 2026 15:58:56 GMT-0500 (Central Daylight Time),700706.3999999911,A,mead,I,d,462,1,6931.0,693775.3999999911,8101,WL,A,2.0
5,11.179999828338623,learn,60000.0,Wed May 27 2026 15:58:56 GMT-0500 (Central Daylight Time),700956.1999999881,A,meado,I,o,235,1,7180.79999999702,693775.3999999911,8101,WL,A,2.0
5,11.679999828338623,learn,60000.0,Wed May 27 2026 15:58:56 GMT-0500 (Central Daylight Time),701456.0,A,meadow,I,w,490,1,7680.600000008941,693775.3999999911,8101,WL,A,2.0
5,11.86299991607666,learn,60000.0,Wed May 27 2026 15:58:56 GMT-0500 (Central Daylight Time),701639.099999994,A,meadowenter,I,enter,165,1,7863.70000000298,693775.3999999911,8101,WL,A,2.0
5,13.94599986076355,learn,60000.0,Wed May 27 2026 15:58:56 GMT-0500 (Central Daylight Time),703722.0,A,f,I,f,2062,1,2082.6000000089407,701639.3999999911,8101,WL,A,3.0
5,14.046000003814697,learn,60000.0,Wed May 27 2026 15:58:56 GMT-0500 (Central Daylight Time),703821.8999999911,A,fl,I,l,84,1,2182.5,701639.3999999911,8101,WL,A,3.0
5,14.263000011444092,learn,60000.0,Wed May 27 2026 15:58:56 GMT-0500 (Central Daylight Time),704038.6999999881,A,flo,I,o,209,1,2399.2999999970198,701639.3999999911,8101,WL,A,3.0
5,14.44599986076355,learn,60000.0,Wed May 27 2026 15:58:56 GMT-0500 (Central Daylight Time),704221.799999997,A,flow,I,w,175,1,2582.4000000059605,701639.3999999911,8101,WL,A,3.0
5,14.878999948501587,learn,60000.0,Wed May 27 2026 15:58:56 GMT-0500 (Central Daylight Time),704654.8999999911,A,flowe,I,e,425,1,3015.5,701639.3999999911,8101,WL,A,3.0
5,15.01199984550476,learn,60000.0,Wed May 27 2026 15:58:56 GMT-0500 (Central Daylight Time),704788.1999999881,A,flower,I,r,126,1,3148.7999999970198,701639.3999999911,8101,WL,A,3.0
5,15.461999893188477,learn,60000.0,Wed May 27 2026 15:58:56 GMT-0500 (Central Daylight Time),705238.1999999881,A,flowerenter,I,enter,434,1,3598.7999999970198,701639.3999999911,8101,WL,A,3.0
5,23.625999927520752,learn,60000.0,Wed May 27 2026 15:58:56 GMT-0500 (Central Daylight Time),713402.3999999911,A,r,I,r,8143,1,8163.899999991059,705238.5,8101,WL,A,4.0
5,23.776000022888184,learn,60000.0,Wed May 27 2026 15:58:56 GMT-0500 (Central Daylight Time),713552.3999999911,A,ru,I,u,139,1,8313.89999999106,705238.5,8101,WL,A,4.0
5,23.97599983215332,learn,60000.0,Wed May 27 2026 15:58:56 GMT-0500 (Central Daylight Time),713752.099999994,A,rug,I,g,188,1,8513.59999999404,705238.5,8101,WL,A,4.0
5,24.759000062942505,learn,60000.0,Wed May 27 2026 15:58:56 GMT-0500 (Central Daylight Time),714535.3999999911,A,rugenter,I,enter,766,1,9296.89999999106,705238.5,8101,WL,A,4.0
5,27.72499990463257,learn,60000.0,Wed May 27 2026 15:58:56 GMT-0500 (Central Daylight Time),717501.299999997,A,r,I,r,2951,1,2965.5,714535.799999997,8101,WL,A,5.0
5,27.89199995994568,learn,60000.0,Wed May 27 2026 15:58:56 GMT-0500 (Central Daylight Time),717667.599999994,A,ra,I,a,153,1,3131.7999999970198,714535.799999997,8101,WL,A,5.0
5,28.057999849319458,learn,60000.0,Wed May 27 2026 15:58:56 GMT-0500 (Central Daylight Time),717834.099999994,A,rat,I,t,146,1,3298.2999999970198,714535.799999997,8101,WL,A,5.0
5,28.307999849319458,learn,60000.0,Wed May 27 2026 15:58:56 GMT-0500 (Central Daylight Time),718084.1999999881,A,ratt,I,t,244,1,3548.3999999910593,714535.799999997,8101,WL,A,5.0
5,28.657999992370605,learn,60000.0,Wed May 27 2026 15:58:56 GMT-0500 (Central Daylight Time),718434.1999999881,A,rattl,I,l,338,1,3898.3999999910593,714535.799999997,8101,WL,A,5.0
5,28.806999921798706,learn,60000.0,Wed May 27 2026 15:58:56 GMT-0500 (Central Daylight Time),718584.0,A,rattle,I,e,131,1,4048.2000000029802,714535.799999997,8101,WL,A,5.0
5,29.907999992370605,learn,60000.0,Wed May 27 2026 15:58:56 GMT-0500 (Central Daylight Time),719684.799999997,A,rattleenter,I,enter,1093,1,5149.0,714535.799999997,8101,WL,A,5.0
5,30.674000024795532,learn,60000.0,Wed May 27 2026 15:58:56 GMT-0500 (Central Daylight Time),720450.1999999881,A,m,I,m,745,1,765.0999999940395,719685.099999994,8101,WL,A,6.0
5,30.9229998588562,learn,60000.0,Wed May 27 2026 15:58:56 GMT-0500 (Central Daylight Time),720699.8999999911,A,mu,I,u,243,1,1014.7999999970198,719685.099999994,8101,WL,A,6.0
5,31.08999991416931,learn,60000.0,Wed May 27 2026 15:58:56 GMT-0500 (Central Daylight Time),720866.5,A,mut,I,t,161,1,1181.4000000059605,719685.099999994,8101,WL,A,6.0
5,31.572999954223633,learn,60000.0,Wed May 27 2026 15:58:56 GMT-0500 (Central Daylight Time),721349.799999997,A,mu,I,backspace,467,1,1664.7000000029802,719685.099999994,8101,WL,A,6.0
5,31.723000049591064,learn,60000.0,Wed May 27 2026 15:58:56 GMT-0500 (Central Daylight Time),721499.799999997,A,m,I,backspace,137,1,1814.7000000029802,719685.099999994,8101,WL,A,6.0
5,31.907999992370605,learn,60000.0,Wed May 27 2026 15:58:56 GMT-0500 (Central Daylight Time),721684.099999994,A,,I,backspace,162,1,1999.0,719685.099999994,8101,WL,A,6.0
5,32.57299995422363,learn,60000.0,Wed May 27 2026 15:58:56 GMT-0500 (Central Daylight Time),722349.3999999911,A,b,I,b,657,1,2664.2999999970198,719685.099999994,8101,WL,A,6.0
5,32.770999908447266,learn,60000.0,Wed May 27 2026 15:58:56 GMT-0500 (Central Daylight Time),722547.1999999881,A,bu,I,u,193,1,2862.0999999940395,719685.099999994,8101,WL,A,6.0
5,32.93899989128113,learn,60000.0,Wed May 27 2026 15:58:56 GMT-0500 (Central Daylight Time),722715.6999999881,A,but,I,t,154,1,3030.5999999940395,719685.099999994,8101,WL,A,6.0
5,33.138999938964844,learn,60000.0,Wed May 27 2026 15:58:56 GMT-0500 (Central Daylight Time),722915.8999999911,A,butt,I,t,190,1,3230.7999999970198,719685.099999994,8101,WL,A,6.0
5,33.32299995422363,learn,60000.0,Wed May 27 2026 15:58:56 GMT-0500 (Central Daylight Time),723099.099999994,A,butto,I,o,162,1,3414.0,719685.099999994,8101,WL,A,6.0
5,33.555999994277954,learn,60000.0,Wed May 27 2026 15:58:56 GMT-0500 (Central Daylight Time),723332.5,A,button,I,n,226,1,3647.4000000059605,719685.099999994,8101,WL,A,6.0
5,33.805999994277954,learn,60000.0,Wed May 27 2026 15:58:56 GMT-0500 (Central Daylight Time),723582.8999999911,A,buttonenter,I,enter,234,1,3897.7999999970198,719685.099999994,8101,WL,A,6.0
5,35.13800001144409,learn,60000.0,Wed May 27 2026 15:58:56 GMT-0500 (Central Daylight Time),724915.0,A,g,I,g,1318,1,1331.800000011921,723583.1999999881,8101,WL,A,7.0
5,35.22199988365173,learn,60000.0,Wed May 27 2026 15:58:56 GMT-0500 (Central Daylight Time),724998.6999999881,A,go,I,o,75,1,1415.5,723583.1999999881,8101,WL,A,7.0
5,35.52199983596802,learn,60000.0,Wed May 27 2026 15:58:56 GMT-0500 (Central Daylight Time),725298.3999999911,A,gol,I,l,279,1,1715.2000000029802,723583.1999999881,8101,WL,A,7.0
5,35.72199988365173,learn,60000.0,Wed May 27 2026 15:58:56 GMT-0500 (Central Daylight Time),725498.5,A,gold,I,d,179,1,1915.300000011921,723583.1999999881,8101,WL,A,7.0
5,36.454999923706055,learn,60000.0,Wed May 27 2026 15:58:56 GMT-0500 (Central Daylight Time),726231.799999997,A,goldenter,I,enter,716,1,2648.6000000089407,723583.1999999881,8101,WL,A,7.0
5,37.13800001144409,learn,60000.0,Wed May 27 2026 15:58:56 GMT-0500 (Central Daylight Time),726914.5,A,l,I,l,663,1,682.4000000059605,726232.099999994,8101,WL,A,8.0
5,37.37100005149841,learn,60000.0,Wed May 27 2026 15:58:56 GMT-0500 (Central Daylight Time),727148.0,A,lo,I,o,220,1,915.9000000059605,726232.099999994,8101,WL,A,8.0
5,37.520999908447266,learn,60000.0,Wed May 27 2026 15:58:56 GMT-0500 (Central Daylight Time),727298.0,A,log,I,g,129,1,1065.9000000059605,726232.099999994,8101,WL,A,8.0
5,37.72099995613098,learn,60000.0,Wed May 27 2026 15:58:56 GMT-0500 (Central Daylight Time),727497.799999997,A,logenter,I,enter,187,1,1265.7000000029802,726232.099999994,8101,WL,A,8.0
5,38.270999908447266,learn,60000.0,Wed May 27 2026 15:58:56 GMT-0500 (Central Daylight Time),728047.6999999881,A,c,I,c,540,1,549.5,727498.1999999881,8101,WL,A,9.0
5,38.353999853134155,learn,60000.0,Wed May 27 2026 15:58:56 GMT-0500 (Central Daylight Time),728130.6999999881,A,ch,I,h,77,1,632.5,727498.1999999881,8101,WL,A,9.0
5,38.97099995613098,learn,60000.0,Wed May 27 2026 15:58:56 GMT-0500 (Central Daylight Time),728747.299999997,A,chi,I,i,611,1,1249.1000000089407,727498.1999999881,8101,WL,A,9.0
5,39.25399994850159,learn,60000.0,Wed May 27 2026 15:58:56 GMT-0500 (Central Daylight Time),729030.8999999911,A,chim,I,m,266,1,1532.7000000029802,727498.1999999881,8101,WL,A,9.0
5,39.520999908447266,learn,60000.0,Wed May 27 2026 15:58:56 GMT-0500 (Central Daylight Time),729297.099999994,A,chimn,I,n,255,1,1798.9000000059605,727498.1999999881,8101,WL,A,9.0
5,40.15400004386902,learn,60000.0,Wed May 27 2026 15:58:56 GMT-0500 (Central Daylight Time),729930.299999997,A,chimne,I,e,612,1,2432.1000000089407,727498.1999999881,8101,WL,A,9.0
5,40.269999980926514,learn,60000.0,Wed May 27 2026 15:58:56 GMT-0500 (Central Daylight Time),730047.0,A,chimney,I,y,99,1,2548.800000011921,727498.1999999881,8101,WL,A,9.0
5,40.7039999961853,learn,60000.0,Wed May 27 2026 15:58:56 GMT-0500 (Central Daylight Time),730480.1999999881,A,chimneyenter,I,enter,414,1,2982.0,727498.1999999881,8101,WL,A,9.0
5,41.90299987792969,learn,60000.0,Wed May 27 2026 15:58:56 GMT-0500 (Central Daylight Time),731679.6999999881,A,k,I,k,1189,1,1199.199999988079,730480.5,8101,WL,A,10.0
5,42.03600001335144,learn,60000.0,Wed May 27 2026 15:58:56 GMT-0500 (Central Daylight Time),731813.0,A,ke,I,e,126,1,1332.5,730480.5,8101,WL,A,10.0
5,42.22099995613098,learn,60000.0,Wed May 27 2026 15:58:56 GMT-0500 (Central Daylight Time),731997.3999999911,A,key,I,y,178,1,1516.8999999910593,730480.5,8101,WL,A,10.0
5,42.61999988555908,learn,60000.0,Wed May 27 2026 15:58:56 GMT-0500 (Central Daylight Time),732396.3999999911,A,keyenter,I,enter,391,1,1915.8999999910593,730480.5,8101,WL,A,10.0
5,64.67899990081787,learn,60000.0,Wed May 27 2026 15:58:56 GMT-0500 (Central Daylight Time),754456.0,A,r,I,r,22050,1,22059.20000000298,732396.799999997,8101,WL,A,11.0
6,1.183000087738037,distr,58816.99991226196,Wed May 27 2026 15:58:56 GMT-0500 (Central Daylight Time),829865.6999999881,B,b,I,b,1163,1,1182.8999999910593,828682.799999997,8101,WL,A,1.0
6,1.815999984741211,distr,58184.00001525879,Wed May 27 2026 15:58:56 GMT-0500 (Central Daylight Time),830498.5,B,bo,I,o,626,1,1815.7000000029802,828682.799999997,8101,WL,A,1.0
6,1.9490001201629639,distr,58050.999879837036,Wed May 27 2026 15:58:56 GMT-0500 (Central Daylight Time),830632.099999994,B,bow,I,w,123,1,1949.2999999970198,828682.799999997,8101,WL,A,1.0
6,3.0989999771118164,distr,56901.00002288818,Wed May 27 2026 15:58:56 GMT-0500 (Central Daylight Time),831781.799999997,B,bowl,I,l,1134,1,3099.0,828682.799999997,8101,WL,A,1.0
6,4.115999937057495,distr,55884.000062942505,Wed May 27 2026 15:58:56 GMT-0500 (Central Daylight Time),832798.5,B,bowlenter,I,enter,999,1,4115.70000000298,828682.799999997,8101,WL,A,1.0
6,4.732000112533569,distr,55267.99988746643,Wed May 27 2026 15:58:56 GMT-0500 (Central Daylight Time),833414.599999994,B,d,I,d,607,1,616.0,832798.599999994,8101,WL,A,2.0
6,4.965000152587891,distr,55034.99984741211,Wed May 27 2026 15:58:56 GMT-0500 (Central Daylight Time),833647.8999999911,B,da,I,a,223,1,849.2999999970198,832798.599999994,8101,WL,A,2.0
6,6.398000001907349,distr,53601.99999809265,Wed May 27 2026 15:58:56 GMT-0500 (Central Daylight Time),835080.6999999881,B,daw,I,w,1422,1,2282.0999999940395,832798.599999994,8101,WL,A,2.0
6,6.515000104904175,distr,53484.999895095825,Wed May 27 2026 15:58:56 GMT-0500 (Central Daylight Time),835197.3999999911,B,dawn,I,n,108,1,2398.7999999970198,832798.599999994,8101,WL,A,2.0
6,6.831000089645386,distr,53168.999910354614,Wed May 27 2026 15:58:56 GMT-0500 (Central Daylight Time),835513.8999999911,B,dawnenter,I,enter,296,1,2715.2999999970198,832798.599999994,8101,WL,A,2.0
6,9.730000019073486,distr,50269.999980926514,Wed May 27 2026 15:58:56 GMT-0500 (Central Daylight Time),838413.099999994,B,f,I,f,2891,1,2898.9000000059605,835514.1999999881,8101,WL,A,3.0
6,10.630000114440918,distr,49369.99988555908,Wed May 27 2026 15:58:56 GMT-0500 (Central Daylight Time),839312.799999997,B,,I,backspace,889,1,3798.6000000089407,835514.1999999881,8101,WL,A,3.0
6,12.597000122070312,distr,47402.99987792969,Wed May 27 2026 15:58:56 GMT-0500 (Central Daylight Time),841280.0,B,g,I,g,1958,1,5765.800000011921,835514.1999999881,8101,WL,A,3.0
6,12.896000146865845,distr,47103.999853134155,Wed May 27 2026 15:58:56 GMT-0500 (Central Daylight Time),841578.8999999911,B,gr,I,r,278,1,6064.70000000298,835514.1999999881,8101,WL,A,3.0
6,13.51200008392334,distr,46487.99991607666,Wed May 27 2026 15:58:56 GMT-0500 (Central Daylight Time),842195.299999997,B,gra,I,a,596,1,6681.100000008941,835514.1999999881,8101,WL,A,3.0
6,13.730000019073486,distr,46269.999980926514,Wed May 27 2026 15:58:56 GMT-0500 (Central Daylight Time),842412.799999997,B,grat,I,t,210,1,6898.600000008941,835514.1999999881,8101,WL,A,3.0
6,13.76200008392334,distr,46237.99991607666,Wed May 27 2026 15:58:56 GMT-0500 (Central Daylight Time),842445.0,B,gratn,I,n,17,1,6930.800000011921,835514.1999999881,8101,WL,A,3.0
6,14.144999980926514,distr,45855.000019073486,Wed May 27 2026 15:58:56 GMT-0500 (Central Daylight Time),842828.3999999911,B,gratnenter,I,enter,377,1,7314.20000000298,835514.1999999881,8101,WL,A,3.0
6,15.529000043869019,distr,44470.99995613098,Wed May 27 2026 15:58:56 GMT-0500 (Central Daylight Time),844212.1999999881,B,s,I,s,1377,1,1383.3999999910593,842828.799999997,8101,WL,A,4.0
6,15.960999965667725,distr,44039.000034332275,Wed May 27 2026 15:58:56 GMT-0500 (Central Daylight Time),844644.3999999911,B,se,I,e,426,1,1815.5999999940395,842828.799999997,8101,WL,A,4.0
6,16.212000131607056,distr,43787.999868392944,Wed May 27 2026 15:58:56 GMT-0500 (Central Daylight Time),844895.099999994,B,see,I,e,241,1,2066.2999999970198,842828.799999997,8101,WL,A,4.0
6,16.67799997329712,distr,43322.00002670288,Wed May 27 2026 15:58:56 GMT-0500 (Central Daylight Time),845360.8999999911,B,seed,I,d,453,1,2532.0999999940395,842828.799999997,8101,WL,A,4.0
6,16.91100001335144,distr,43088.99998664856,Wed May 27 2026 15:58:56 GMT-0500 (Central Daylight Time),845594.099999994,B,seedenter,I,enter,212,1,2765.2999999970198,842828.799999997,8101,WL,A,4.0
6,20.259999990463257,distr,39740.00000953674,Wed May 27 2026 15:58:56 GMT-0500 (Central Daylight Time),848943.099999994,B,p,I,p,3340,1,3348.7000000029802,845594.3999999911,8101,WL,A,5.0
6,20.542999982833862,distr,39457.00001716614,Wed May 27 2026 15:58:56 GMT-0500 (Central Daylight Time),849226.099999994,B,po,I,o,270,1,3631.7000000029802,845594.3999999911,8101,WL,A,5.0
6,20.693000078201294,distr,39306.999921798706,Wed May 27 2026 15:58:56 GMT-0500 (Central Daylight Time),849376.3999999911,B,poo,I,o,132,1,3782.0,845594.3999999911,8101,WL,A,5.0
6,20.943000078201294,distr,39056.999921798706,Wed May 27 2026 15:58:56 GMT-0500 (Central Daylight Time),849626.599999994,B,pool,I,l,229,1,4032.2000000029802,845594.3999999911,8101,WL,A,5.0
6,21.292999982833862,distr,38707.00001716614,Wed May 27 2026 15:58:56 GMT-0500 (Central Daylight Time),849976.099999994,B,poolenter,I,enter,331,1,4381.70000000298,845594.3999999911,8101,WL,A,5.0
6,45.10199999809265,distr,14898.000001907349,Wed May 27 2026 15:58:56 GMT-0500 (Central Daylight Time),873785.299999997,B,i,I,i,23798,1,23808.70000000298,849976.599999994,8101,WL,A,6.0
6,45.35300016403198,distr,14646.999835968018,Wed May 27 2026 15:58:56 GMT-0500 (Central Daylight Time),874035.8999999911,B,in,I,n,235,1,24059.29999999702,849976.599999994,8101,WL,A,6.0
6,45.50200009346008,distr,14497.999906539917,Wed May 27 2026 15:58:56 GMT-0500 (Central Daylight Time),874185.299999997,B,ins,I,s,137,1,24208.70000000298,849976.599999994,8101,WL,A,6.0
6,45.76900005340576,distr,14230.999946594238,Wed May 27 2026 15:58:56 GMT-0500 (Central Daylight Time),874451.6999999881,B,inse,I,e,260,1,24475.09999999404,849976.599999994,8101,WL,A,6.0
6,46.55200004577637,distr,13447.999954223633,Wed May 27 2026 15:58:56 GMT-0500 (Central Daylight Time),875234.599999994,B,insec,I,c,777,1,25258.0,849976.599999994,8101,WL,A,6.0
6,46.93499994277954,distr,13065.000057220459,Wed May 27 2026 15:58:56 GMT-0500 (Central Daylight Time),875617.799999997,B,insect,I,t,371,1,25641.20000000298,849976.599999994,8101,WL,A,6.0
6,47.16799998283386,distr,12832.000017166138,Wed May 27 2026 15:58:56 GMT-0500 (Central Daylight Time),875851.0,B,insectenter,I,enter,227,1,25874.40000000596,849976.599999994,8101,WL,A,6.0
6,60.013999938964844,distr,-13.99993896484375,Wed May 27 2026 15:58:56 GMT-0500 (Central Daylight Time),888697.299999997,B,None,I,None,12841,1,12846.0,875851.299999997,8101,WL,A,7.0
7,11.02999997138977,immed,48970.00002861023,Wed May 27 2026 15:58:56 GMT-0500 (Central Daylight Time),923752.8999999911,A,g,I,g,11011,1,11030.0,912722.8999999911,8101,WL,A,1.0
7,11.163000106811523,immed,48836.99989318848,Wed May 27 2026 15:58:56 GMT-0500 (Central Daylight Time),923886.1999999881,A,go,I,o,114,1,11163.29999999702,912722.8999999911,8101,WL,A,1.0
7,11.396000146865845,immed,48603.999853134155,Wed May 27 2026 15:58:56 GMT-0500 (Central Daylight Time),924119.3999999911,A,gol,I,l,215,1,11396.5,912722.8999999911,8101,WL,A,1.0
7,11.59600019454956,immed,48403.99980545044,Wed May 27 2026 15:58:56 GMT-0500 (Central Daylight Time),924319.599999994,A,gold,I,d,183,1,11596.70000000298,912722.8999999911,8101,WL,A,1.0
7,12.529000043869019,immed,47470.99995613098,Wed May 27 2026 15:58:56 GMT-0500 (Central Daylight Time),925252.3999999911,A,goldenter,I,enter,926,1,12529.5,912722.8999999911,8101,WL,A,1.0
7,13.34600019454956,immed,46653.99980545044,Wed May 27 2026 15:58:56 GMT-0500 (Central Daylight Time),926068.8999999911,A,c,I,c,808,1,816.2000000029802,925252.6999999881,8101,WL,A,2.0
7,13.529000043869019,immed,46470.99995613098,Wed May 27 2026 15:58:56 GMT-0500 (Central Daylight Time),926252.1999999881,A,ch,I,h,168,1,999.5,925252.6999999881,8101,WL,A,2.0
7,14.17900013923645,immed,45820.99986076355,Wed May 27 2026 15:58:56 GMT-0500 (Central Daylight Time),926902.099999994,A,chm,I,m,641,1,1649.4000000059605,925252.6999999881,8101,WL,A,2.0
7,16.228000164031982,immed,43771.99983596802,Wed May 27 2026 15:58:56 GMT-0500 (Central Daylight Time),928951.5,A,chmn,I,n,2031,1,3698.800000011921,925252.6999999881,8101,WL,A,2.0
7,16.462000131607056,immed,43537.999868392944,Wed May 27 2026 15:58:56 GMT-0500 (Central Daylight Time),929185.799999997,A,chmne,I,e,221,1,3933.1000000089407,925252.6999999881,8101,WL,A,2.0
7,16.778000116348267,immed,43221.99988365173,Wed May 27 2026 15:58:56 GMT-0500 (Central Daylight Time),929501.5,A,chmney,I,y,309,1,4248.800000011921,925252.6999999881,8101,WL,A,2.0
7,19.64400005340576,immed,40355.99994659424,Wed May 27 2026 15:58:56 GMT-0500 (Central Daylight Time),932367.099999994,A,chmne,I,backspace,2857,1,7114.4000000059605,925252.6999999881,8101,WL,A,2.0
7,19.844000101089478,immed,40155.99989891052,Wed May 27 2026 15:58:56 GMT-0500 (Central Daylight Time),932567.0,A,chmn,I,backspace,182,1,7314.300000011921,925252.6999999881,8101,WL,A,2.0
7,20.027000188827515,immed,39972.999811172485,Wed May 27 2026 15:58:56 GMT-0500 (Central Daylight Time),932750.1999999881,A,chm,I,backspace,175,1,7497.5,925252.6999999881,8101,WL,A,2.0
7,20.360000133514404,immed,39639.999866485596,Wed May 27 2026 15:58:56 GMT-0500 (Central Daylight Time),933083.1999999881,A,ch,I,backspace,327,1,7830.5,925252.6999999881,8101,WL,A,2.0
7,21.176000118255615,immed,38823.999881744385,Wed May 27 2026 15:58:56 GMT-0500 (Central Daylight Time),933899.799999997,A,chi,I,i,802,1,8647.10000000894,925252.6999999881,8101,WL,A,2.0
7,21.427000045776367,immed,38572.99995422363,Wed May 27 2026 15:58:56 GMT-0500 (Central Daylight Time),934149.8999999911,A,chim,I,m,242,1,8897.20000000298,925252.6999999881,8101,WL,A,2.0
7,21.743000030517578,immed,38256.99996948242,Wed May 27 2026 15:58:56 GMT-0500 (Central Daylight Time),934466.1999999881,A,chimn,I,n,304,1,9213.5,925252.6999999881,8101,WL,A,2.0
7,22.05900001525879,immed,37940.99998474121,Wed May 27 2026 15:58:56 GMT-0500 (Central Daylight Time),934782.1999999881,A,chimne,I,e,311,1,9529.5,925252.6999999881,8101,WL,A,2.0
7,22.164000034332275,immed,37835.999965667725,Wed May 27 2026 15:58:56 GMT-0500 (Central Daylight Time),934886.799999997,A,chimney,I,y,81,1,9634.10000000894,925252.6999999881,8101,WL,A,2.0
7,22.575999975204468,immed,37424.00002479553,Wed May 27 2026 15:58:56 GMT-0500 (Central Daylight Time),935299.099999994,A,chimneyenter,I,enter,406,1,10046.40000000596,925252.6999999881,8101,WL,A,2.0
7,23.093000173568726,immed,36906.999826431274,Wed May 27 2026 15:58:56 GMT-0500 (Central Daylight Time),935815.799999997,A,l,I,l,498,1,516.5,935299.299999997,8101,WL,A,3.0
7,23.29200005531311,immed,36707.99994468689,Wed May 27 2026 15:58:56 GMT-0500 (Central Daylight Time),936015.6999999881,A,lo,I,o,181,1,716.3999999910593,935299.299999997,8101,WL,A,3.0
7,23.492000102996826,immed,36507.999897003174,Wed May 27 2026 15:58:56 GMT-0500 (Central Daylight Time),936215.6999999881,A,log,I,g,190,1,916.3999999910593,935299.299999997,8101,WL,A,3.0
7,24.64300012588501,immed,35356.99987411499,Wed May 27 2026 15:58:56 GMT-0500 (Central Daylight Time),937366.599999994,A,logenter,I,enter,1134,1,2067.2999999970198,935299.299999997,8101,WL,A,3.0
7,26.27500009536743,immed,33724.99990463257,Wed May 27 2026 15:58:56 GMT-0500 (Central Daylight Time),938998.299999997,A,r,I,r,1623,1,1631.4000000059605,937366.8999999911,8101,WL,A,4.0
7,26.475000143051147,immed,33524.99985694885,Wed May 27 2026 15:58:56 GMT-0500 (Central Daylight Time),939198.1999999881,A,ra,I,a,192,1,1831.2999999970198,937366.8999999911,8101,WL,A,4.0
7,26.62600016593933,immed,33373.99983406067,Wed May 27 2026 15:58:56 GMT-0500 (Central Daylight Time),939349.0,A,rat,I,t,144,1,1982.1000000089407,937366.8999999911,8101,WL,A,4.0
7,26.892000198364258,immed,33107.99980163574,Wed May 27 2026 15:58:56 GMT-0500 (Central Daylight Time),939614.8999999911,A,ratt,I,t,248,1,2248.0,937366.8999999911,8101,WL,A,4.0
7,27.10800004005432,immed,32891.99995994568,Wed May 27 2026 15:58:56 GMT-0500 (Central Daylight Time),939831.1999999881,A,rattl,I,l,198,1,2464.2999999970198,937366.8999999911,8101,WL,A,4.0
7,27.225000143051147,immed,32774.99985694885,Wed May 27 2026 15:58:56 GMT-0500 (Central Daylight Time),939948.0,A,rattle,I,e,110,1,2581.1000000089407,937366.8999999911,8101,WL,A,4.0
7,27.575000047683716,immed,32424.999952316284,Wed May 27 2026 15:58:56 GMT-0500 (Central Daylight Time),940297.8999999911,A,rattleenter,I,enter,329,1,2931.0,937366.8999999911,8101,WL,A,4.0
7,29.374000072479248,immed,30625.999927520752,Wed May 27 2026 15:58:56 GMT-0500 (Central Daylight Time),942097.1999999881,A,b,I,b,1779,1,1798.8999999910593,940298.299999997,8101,WL,A,5.0
7,29.54100012779236,immed,30458.99987220764,Wed May 27 2026 15:58:56 GMT-0500 (Central Daylight Time),942263.8999999911,A,bo,I,o,157,1,1965.5999999940395,940298.299999997,8101,WL,A,5.0
7,29.723999977111816,immed,30276.000022888184,Wed May 27 2026 15:58:56 GMT-0500 (Central Daylight Time),942447.1999999881,A,boo,I,o,167,1,2148.8999999910593,940298.299999997,8101,WL,A,5.0
7,29.973999977111816,immed,30026.000022888184,Wed May 27 2026 15:58:56 GMT-0500 (Central Daylight Time),942697.0,A,book,I,k,238,1,2398.7000000029802,940298.299999997,8101,WL,A,5.0
7,30.341000080108643,immed,29658.999919891357,Wed May 27 2026 15:58:56 GMT-0500 (Central Daylight Time),943064.0,A,bookenter,I,enter,348,1,2765.7000000029802,940298.299999997,8101,WL,A,5.0
7,33.17300009727478,immed,26826.99990272522,Wed May 27 2026 15:58:56 GMT-0500 (Central Daylight Time),945896.1999999881,A,f,I,f,2814,1,2832.0,943064.1999999881,8101,WL,A,6.0
7,33.305999994277954,immed,26694.000005722046,Wed May 27 2026 15:58:56 GMT-0500 (Central Daylight Time),946029.3999999911,A,fl,I,l,124,1,2965.2000000029802,943064.1999999881,8101,WL,A,6.0
7,33.555999994277954,immed,26444.000005722046,Wed May 27 2026 15:58:56 GMT-0500 (Central Daylight Time),946279.299999997,A,flo,I,o,239,1,3215.1000000089407,943064.1999999881,8101,WL,A,6.0
7,33.706000089645386,immed,26293.999910354614,Wed May 27 2026 15:58:56 GMT-0500 (Central Daylight Time),946429.1999999881,A,flow,I,w,143,1,3365.0,943064.1999999881,8101,WL,A,6.0
7,34.206000089645386,immed,25793.999910354614,Wed May 27 2026 15:58:56 GMT-0500 (Central Daylight Time),946929.099999994,A,flowe,I,e,489,1,3864.9000000059605,943064.1999999881,8101,WL,A,6.0
7,34.33899998664856,immed,25661.00001335144,Wed May 27 2026 15:58:56 GMT-0500 (Central Daylight Time),947062.3999999911,A,flower,I,r,116,1,3998.2000000029802,943064.1999999881,8101,WL,A,6.0
7,34.73900008201599,immed,25260.99991798401,Wed May 27 2026 15:58:56 GMT-0500 (Central Daylight Time),947462.299999997,A,flowerenter,I,enter,392,1,4398.100000008941,943064.1999999881,8101,WL,A,6.0
7,35.289000034332275,immed,24710.999965667725,Wed May 27 2026 15:58:56 GMT-0500 (Central Daylight Time),948012.0,A,m,I,m,536,1,549.4000000059605,947462.599999994,8101,WL,A,7.0
7,35.42200016975403,immed,24577.99983024597,Wed May 27 2026 15:58:56 GMT-0500 (Central Daylight Time),948145.1999999881,A,me,I,e,113,1,682.5999999940395,947462.599999994,8101,WL,A,7.0
7,35.58899998664856,immed,24411.00001335144,Wed May 27 2026 15:58:56 GMT-0500 (Central Daylight Time),948312.099999994,A,mea,I,a,148,1,849.5,947462.599999994,8101,WL,A,7.0
7,35.88900017738342,immed,24110.999822616577,Wed May 27 2026 15:58:56 GMT-0500 (Central Daylight Time),948611.799999997,A,mead,I,d,293,1,1149.2000000029802,947462.599999994,8101,WL,A,7.0
7,36.105000019073486,immed,23894.999980926514,Wed May 27 2026 15:58:56 GMT-0500 (Central Daylight Time),948828.5,A,meado,I,o,201,1,1365.9000000059605,947462.599999994,8101,WL,A,7.0
7,36.2720000743866,immed,23727.999925613403,Wed May 27 2026 15:58:56 GMT-0500 (Central Daylight Time),948995.0,A,meadow,I,w,146,1,1532.4000000059605,947462.599999994,8101,WL,A,7.0
7,36.53800010681152,immed,23461.999893188477,Wed May 27 2026 15:58:56 GMT-0500 (Central Daylight Time),949261.799999997,A,meadowenter,I,enter,259,1,1799.2000000029802,947462.599999994,8101,WL,A,7.0
7,46.7020001411438,immed,13297.999858856201,Wed May 27 2026 15:58:56 GMT-0500 (Central Daylight Time),959425.3999999911,A,r,I,r,10153,1,10163.29999999702,949262.099999994,8101,WL,A,8.0
7,46.85199999809265,immed,13148.000001907349,Wed May 27 2026 15:58:56 GMT-0500 (Central Daylight Time),959575.1999999881,A,ru,I,u,140,1,10313.09999999404,949262.099999994,8101,WL,A,8.0
7,47.03500008583069,immed,12964.999914169312,Wed May 27 2026 15:58:56 GMT-0500 (Central Daylight Time),959758.3999999911,A,rug,I,g,174,1,10496.29999999702,949262.099999994,8101,WL,A,8.0
7,47.50100016593933,immed,12498.999834060669,Wed May 27 2026 15:58:56 GMT-0500 (Central Daylight Time),960225.099999994,A,rugenter,I,enter,447,1,10963.0,949262.099999994,8101,WL,A,8.0
7,48.78400015830994,immed,11215.999841690063,Wed May 27 2026 15:58:56 GMT-0500 (Central Daylight Time),961507.799999997,A,k,I,k,1268,1,1282.4000000059605,960225.3999999911,8101,WL,A,9.0
7,48.93500018119812,immed,11064.99981880188,Wed May 27 2026 15:58:56 GMT-0500 (Central Daylight Time),961658.099999994,A,ke,I,e,130,1,1432.7000000029802,960225.3999999911,8101,WL,A,9.0
7,49.26900005340576,immed,10730.999946594238,Wed May 27 2026 15:58:56 GMT-0500 (Central Daylight Time),961992.099999994,A,key,I,y,323,1,1766.7000000029802,960225.3999999911,8101,WL,A,9.0
7,49.76700019836426,immed,10232.999801635742,Wed May 27 2026 15:58:56 GMT-0500 (Central Daylight Time),962490.6999999881,A,keyenter,I,enter,493,1,2265.2999999970198,960225.3999999911,8101,WL,A,9.0
7,60.01400017738342,immed,-14.000177383422852,Wed May 27 2026 15:58:56 GMT-0500 (Central Daylight Time),972737.6999999881,A,None,I,None,10243,1,10246.699999988079,962491.0,8101,WL,A,10.0
