acc_sum,block,block_c,block_cond,con_img,correct,correct_response,datetime,endtime,face,jitter,line,project,response,response_time,row_sel,session_number,start_end,starttime,subject_id,task,task_vers,trial
1,prac,1,A,haborder.png,1,z,Thu May 15 2025 09:02:15 GMT-0500 (Central Daylight Time),50098.80000001192,CFD-WM-009-009-A.jpg,1900,solid,O,z,749,8,1,3481.899999976158,46616.90000003576,7157,ATS,B,1
2,prac,1,A,haborder.png,1,m,Thu May 15 2025 09:02:15 GMT-0500 (Central Daylight Time),54064.10000002384,CFD-BM-015-017-HC.jpg,1700,solid,O,m,1443,1,1,7447.199999988079,46616.90000003576,7157,ATS,B,2
3,prac,1,A,haborder.png,1,z,Thu May 15 2025 09:02:15 GMT-0500 (Central Daylight Time),57112.90000003576,CFD-BM-037-041-A.jpg,1600,solid,O,z,640,2,1,10496.0,46616.90000003576,7157,ATS,B,3
4,prac,1,A,haborder.png,1,m,Thu May 15 2025 09:02:15 GMT-0500 (Central Daylight Time),60644.200000047684,CFD-BF-035-007-HC.jpg,2000,solid,O,m,707,5,1,14027.300000011921,46616.90000003576,7157,ATS,B,4
5,prac,1,A,haborder.png,1,m,Thu May 15 2025 09:02:15 GMT-0500 (Central Daylight Time),63427.40000003576,CFD-BM-020-024-HC.jpg,1500,solid,O,m,497,3,1,16810.5,46616.90000003576,7157,ATS,B,5
6,prac,1,A,haborder.png,1,z,Thu May 15 2025 09:02:15 GMT-0500 (Central Daylight Time),66159.90000003576,CFD-BF-050-012-A.jpg,1200,solid,O,z,703,6,1,19543.0,46616.90000003576,7157,ATS,B,6
7,prac,1,A,haborder.png,1,z,Thu May 15 2025 09:02:15 GMT-0500 (Central Daylight Time),69209.0,CFD-WF-026-008-A.jpg,1600,solid,O,z,624,10,1,22592.099999964237,46616.90000003576,7157,ATS,B,7
8,prac,1,A,haborder.png,1,z,Thu May 15 2025 09:02:15 GMT-0500 (Central Daylight Time),72008.0,CFD-WF-013-015-A.jpg,1000,solid,O,z,979,12,1,25391.099999964237,46616.90000003576,7157,ATS,B,8
9,prac,1,A,haborder.png,1,m,Thu May 15 2025 09:02:15 GMT-0500 (Central Daylight Time),74940.30000001192,CFD-WF-011-006-HC.jpg,1500,solid,O,m,604,11,1,28323.399999976158,46616.90000003576,7157,ATS,B,9
10,prac,1,A,haborder.png,1,z,Thu May 15 2025 09:02:15 GMT-0500 (Central Daylight Time),77456.20000004768,CFD-BF-051-043-A.jpg,1000,solid,O,z,676,4,1,30839.30000001192,46616.90000003576,7157,ATS,B,10
11,prac,1,A,haborder.png,1,m,Thu May 15 2025 09:02:15 GMT-0500 (Central Daylight Time),80588.30000001192,CFD-WM-012-007-HC.jpg,1700,solid,O,m,606,9,1,33971.39999997616,46616.90000003576,7157,ATS,B,11
12,prac,1,A,haborder.png,1,m,Thu May 15 2025 09:02:15 GMT-0500 (Central Daylight Time),83587.40000003576,CFD-WM-011-006-HC.jpg,1400,solid,O,m,773,7,1,36970.5,46616.90000003576,7157,ATS,B,12
1,prac,1,B,mfborder.png,1,m,Thu May 15 2025 09:02:15 GMT-0500 (Central Daylight Time),111861.60000002384,CFD-WM-012-007-HC.jpg,1600,dash,O,m,1038,10,1,3433.100000023842,108428.5,7157,ATS,B,1
2,prac,1,B,mfborder.png,1,m,Thu May 15 2025 09:02:15 GMT-0500 (Central Daylight Time),115359.5,CFD-BM-037-041-A.jpg,2000,dash,O,m,669,5,1,6931.0,108428.5,7157,ATS,B,2
3,prac,1,B,mfborder.png,1,z,Thu May 15 2025 09:02:15 GMT-0500 (Central Daylight Time),119325.60000002384,CFD-WF-027-007-HC.jpg,1900,dash,O,z,1277,8,1,10897.100000023842,108428.5,7157,ATS,B,3
4,prac,1,B,mfborder.png,1,m,Thu May 15 2025 09:02:15 GMT-0500 (Central Daylight Time),122474.30000001192,CFD-WM-009-009-A.jpg,1700,dash,O,m,643,9,1,14045.800000011921,108428.5,7157,ATS,B,4
5,prac,1,B,mfborder.png,1,z,Thu May 15 2025 09:02:15 GMT-0500 (Central Daylight Time),125539.40000003576,CFD-BF-051-043-A.jpg,1000,dash,O,z,1240,4,1,17110.900000035763,108428.5,7157,ATS,B,5
6,prac,1,B,mfborder.png,1,m,Thu May 15 2025 09:02:15 GMT-0500 (Central Daylight Time),128839.5,CFD-WM-037-060-A.jpg,1200,dash,O,m,1311,6,1,20411.0,108428.5,7157,ATS,B,6
7,prac,1,B,mfborder.png,1,z,Thu May 15 2025 09:02:15 GMT-0500 (Central Daylight Time),131820.80000001192,CFD-WF-011-006-HC.jpg,1000,dash,O,z,1153,12,1,23392.30000001192,108428.5,7157,ATS,B,7
7,prac,1,B,mfborder.png,0,z,Thu May 15 2025 09:02:15 GMT-0500 (Central Daylight Time),135520.20000004768,CFD-BF-035-007-HC.jpg,1400,dash,O,None,1515,7,1,27091.700000047684,108428.5,7157,ATS,B,8
8,prac,1,B,mfborder.png,1,m,Thu May 15 2025 09:02:15 GMT-0500 (Central Daylight Time),138752.10000002384,CFD-BM-020-024-HC.jpg,1700,dash,O,m,710,1,1,30323.600000023842,108428.5,7157,ATS,B,9
9,prac,1,B,mfborder.png,1,z,Thu May 15 2025 09:02:15 GMT-0500 (Central Daylight Time),141617.70000004768,CFD-BF-027-013-HC.jpg,1500,dash,O,z,575,3,1,33189.200000047684,108428.5,7157,ATS,B,10
10,prac,1,B,mfborder.png,1,m,Thu May 15 2025 09:02:15 GMT-0500 (Central Daylight Time),144750.90000003576,CFD-BM-041-048-A.jpg,1600,dash,O,m,743,2,1,36322.40000003576,108428.5,7157,ATS,B,11
11,prac,1,B,mfborder.png,1,z,Thu May 15 2025 09:02:15 GMT-0500 (Central Daylight Time),147783.20000004768,CFD-WF-026-008-A.jpg,1500,dash,O,z,709,11,1,39354.700000047684,108428.5,7157,ATS,B,12
1,test,1,A,haborder.png,1,m,Thu May 15 2025 09:02:15 GMT-0500 (Central Daylight Time),166693.10000002384,CFD-BM-020-024-HC.jpg,1500,solid,O,m,746,3,1,2281.600000023842,164411.5,7157,ATS,B,1
2,test,1,A,haborder.png,1,z,Thu May 15 2025 09:02:15 GMT-0500 (Central Daylight Time),168459.80000001192,CFD-BF-050-012-A.jpg,1200,solid,O,z,517,6,1,4048.300000011921,164411.5,7157,ATS,B,2
3,test,1,A,haborder.png,1,z,Thu May 15 2025 09:02:15 GMT-0500 (Central Daylight Time),170558.0,CFD-BF-050-012-A.jpg,1200,solid,O,z,853,6,1,6146.5,164411.5,7157,ATS,B,3
4,test,1,A,haborder.png,1,z,Thu May 15 2025 09:02:15 GMT-0500 (Central Daylight Time),173174.60000002384,CFD-WM-009-009-A.jpg,1900,solid,O,z,687,8,1,8763.100000023842,164411.5,7157,ATS,B,4
5,test,1,A,haborder.png,1,m,Thu May 15 2025 09:02:15 GMT-0500 (Central Daylight Time),175340.80000001192,CFD-WM-011-006-HC.jpg,1400,solid,O,m,717,7,1,10929.300000011921,164411.5,7157,ATS,B,5
6,test,1,A,haborder.png,1,m,Thu May 15 2025 09:02:15 GMT-0500 (Central Daylight Time),178222.80000001192,CFD-BF-035-007-HC.jpg,2000,solid,O,m,845,5,1,13811.300000011921,164411.5,7157,ATS,B,6
6,test,1,A,haborder.png,0,m,Thu May 15 2025 09:02:15 GMT-0500 (Central Daylight Time),180488.20000004768,CFD-WF-011-006-HC.jpg,1500,solid,O,z,725,11,1,16076.700000047684,164411.5,7157,ATS,B,7
7,test,1,A,haborder.png,1,m,Thu May 15 2025 09:02:15 GMT-0500 (Central Daylight Time),183170.60000002384,CFD-WM-012-007-HC.jpg,1700,solid,O,m,956,9,1,18759.100000023842,164411.5,7157,ATS,B,8
8,test,1,A,haborder.png,1,m,Thu May 15 2025 09:02:15 GMT-0500 (Central Daylight Time),185270.5,CFD-WF-011-006-HC.jpg,1500,solid,O,m,579,11,1,20859.0,164411.5,7157,ATS,B,9
9,test,1,A,haborder.png,1,z,Thu May 15 2025 09:02:15 GMT-0500 (Central Daylight Time),187636.70000004768,CFD-WF-026-008-A.jpg,1600,solid,O,z,724,10,1,23225.200000047684,164411.5,7157,ATS,B,10
10,test,1,A,haborder.png,1,z,Thu May 15 2025 09:02:15 GMT-0500 (Central Daylight Time),189602.70000004768,CFD-WF-013-015-A.jpg,1000,solid,O,z,927,12,1,25191.200000047684,164411.5,7157,ATS,B,11
11,test,1,A,haborder.png,1,z,Thu May 15 2025 09:02:15 GMT-0500 (Central Daylight Time),191251.20000004768,CFD-WF-013-015-A.jpg,1000,solid,O,z,605,12,1,26839.700000047684,164411.5,7157,ATS,B,12
12,test,1,A,haborder.png,1,z,Thu May 15 2025 09:02:15 GMT-0500 (Central Daylight Time),192934.10000002384,CFD-BF-051-043-A.jpg,1000,solid,O,z,652,4,1,28522.600000023842,164411.5,7157,ATS,B,13
12,test,1,A,haborder.png,0,z,Thu May 15 2025 09:02:15 GMT-0500 (Central Daylight Time),196367.20000004768,CFD-WM-009-009-A.jpg,1900,solid,O,None,1515,8,1,31955.700000047684,164411.5,7157,ATS,B,14
13,test,1,A,haborder.png,1,m,Thu May 15 2025 09:02:15 GMT-0500 (Central Daylight Time),198683.30000001192,CFD-BM-020-024-HC.jpg,1500,solid,O,m,750,3,1,34271.80000001192,164411.5,7157,ATS,B,15
14,test,1,A,haborder.png,1,m,Thu May 15 2025 09:02:15 GMT-0500 (Central Daylight Time),201364.90000003576,CFD-BM-015-017-HC.jpg,1700,solid,O,m,948,1,1,36953.40000003576,164411.5,7157,ATS,B,16
15,test,1,A,haborder.png,1,m,Thu May 15 2025 09:02:15 GMT-0500 (Central Daylight Time),203813.80000001192,CFD-BM-015-017-HC.jpg,1700,solid,O,m,703,1,1,39402.30000001192,164411.5,7157,ATS,B,17
16,test,1,A,haborder.png,1,m,Thu May 15 2025 09:02:15 GMT-0500 (Central Daylight Time),206717.90000003576,CFD-BF-035-007-HC.jpg,2000,solid,O,m,875,5,1,42306.40000003576,164411.5,7157,ATS,B,18
17,test,1,A,haborder.png,1,z,Thu May 15 2025 09:02:15 GMT-0500 (Central Daylight Time),209095.70000004768,CFD-WF-026-008-A.jpg,1600,solid,O,z,754,10,1,44684.200000047684,164411.5,7157,ATS,B,19
18,test,1,A,haborder.png,1,z,Thu May 15 2025 09:02:15 GMT-0500 (Central Daylight Time),211711.90000003576,CFD-BM-037-041-A.jpg,1600,solid,O,z,988,2,1,47300.40000003576,164411.5,7157,ATS,B,20
19,test,1,A,haborder.png,1,z,Thu May 15 2025 09:02:15 GMT-0500 (Central Daylight Time),213477.30000001192,CFD-BF-051-043-A.jpg,1000,solid,O,z,720,4,1,49065.80000001192,164411.5,7157,ATS,B,21
20,test,1,A,haborder.png,1,z,Thu May 15 2025 09:02:15 GMT-0500 (Central Daylight Time),215760.70000004768,CFD-BM-037-041-A.jpg,1600,solid,O,z,652,2,1,51349.200000047684,164411.5,7157,ATS,B,22
21,test,1,A,haborder.png,1,m,Thu May 15 2025 09:02:15 GMT-0500 (Central Daylight Time),217760.10000002384,CFD-WM-011-006-HC.jpg,1400,solid,O,m,562,7,1,53348.60000002384,164411.5,7157,ATS,B,23
22,test,1,A,haborder.png,1,m,Thu May 15 2025 09:02:15 GMT-0500 (Central Daylight Time),220341.70000004768,CFD-WM-012-007-HC.jpg,1700,solid,O,m,844,9,1,55930.200000047684,164411.5,7157,ATS,B,24
1,test,1,B,mfborder.png,1,z,Thu May 15 2025 09:02:15 GMT-0500 (Central Daylight Time),236453.70000004768,CFD-WF-027-007-HC.jpg,1900,dash,O,z,931,8,1,2865.400000035763,233588.30000001192,7157,ATS,B,1
2,test,1,B,mfborder.png,1,z,Thu May 15 2025 09:02:15 GMT-0500 (Central Daylight Time),238669.70000004768,CFD-WF-026-008-A.jpg,1500,dash,O,z,669,11,1,5081.400000035763,233588.30000001192,7157,ATS,B,2
3,test,1,B,mfborder.png,1,m,Thu May 15 2025 09:02:15 GMT-0500 (Central Daylight Time),240918.40000003576,CFD-WM-012-007-HC.jpg,1600,dash,O,m,610,10,1,7330.100000023842,233588.30000001192,7157,ATS,B,3
4,test,1,B,mfborder.png,1,m,Thu May 15 2025 09:02:15 GMT-0500 (Central Daylight Time),243517.40000003576,CFD-BM-041-048-A.jpg,1600,dash,O,m,978,2,1,9929.100000023842,233588.30000001192,7157,ATS,B,4
5,test,1,B,mfborder.png,1,m,Thu May 15 2025 09:02:15 GMT-0500 (Central Daylight Time),245350.30000001192,CFD-WM-037-060-A.jpg,1200,dash,O,m,581,6,1,11762.0,233588.30000001192,7157,ATS,B,5
6,test,1,B,mfborder.png,1,m,Thu May 15 2025 09:02:15 GMT-0500 (Central Daylight Time),247467.0,CFD-WM-012-007-HC.jpg,1600,dash,O,m,483,10,1,13878.699999988079,233588.30000001192,7157,ATS,B,6
7,test,1,B,mfborder.png,1,m,Thu May 15 2025 09:02:15 GMT-0500 (Central Daylight Time),250215.90000003576,CFD-BM-037-041-A.jpg,2000,dash,O,m,711,5,1,16627.600000023842,233588.30000001192,7157,ATS,B,7
8,test,1,B,mfborder.png,1,z,Thu May 15 2025 09:02:15 GMT-0500 (Central Daylight Time),252498.60000002384,CFD-BF-027-013-HC.jpg,1500,dash,O,z,727,3,1,18910.30000001192,233588.30000001192,7157,ATS,B,8
9,test,1,B,mfborder.png,1,z,Thu May 15 2025 09:02:15 GMT-0500 (Central Daylight Time),255048.20000004768,CFD-BF-027-013-HC.jpg,1500,dash,O,z,1003,3,1,21459.900000035763,233588.30000001192,7157,ATS,B,9
10,test,1,B,mfborder.png,1,z,Thu May 15 2025 09:02:15 GMT-0500 (Central Daylight Time),257580.30000001192,CFD-WF-027-007-HC.jpg,1900,dash,O,z,597,8,1,23992.0,233588.30000001192,7157,ATS,B,10
10,test,1,B,mfborder.png,0,z,Thu May 15 2025 09:02:15 GMT-0500 (Central Daylight Time),260262.10000002384,CFD-BF-035-007-HC.jpg,1400,dash,O,m,1252,7,1,26673.80000001192,233588.30000001192,7157,ATS,B,11
11,test,1,B,mfborder.png,1,m,Thu May 15 2025 09:02:15 GMT-0500 (Central Daylight Time),262728.0,CFD-WM-009-009-A.jpg,1700,dash,O,m,742,9,1,29139.69999998808,233588.30000001192,7157,ATS,B,12
12,test,1,B,mfborder.png,1,m,Thu May 15 2025 09:02:15 GMT-0500 (Central Daylight Time),265177.90000003576,CFD-WM-009-009-A.jpg,1700,dash,O,m,717,9,1,31589.600000023842,233588.30000001192,7157,ATS,B,13
13,test,1,B,mfborder.png,1,m,Thu May 15 2025 09:02:15 GMT-0500 (Central Daylight Time),267593.8000000119,CFD-BM-020-024-HC.jpg,1700,dash,O,m,679,1,1,34005.5,233588.30000001192,7157,ATS,B,14
14,test,1,B,mfborder.png,1,m,Thu May 15 2025 09:02:15 GMT-0500 (Central Daylight Time),269942.60000002384,CFD-BM-041-048-A.jpg,1600,dash,O,m,694,2,1,36354.30000001192,233588.30000001192,7157,ATS,B,15
14,test,1,B,mfborder.png,0,z,Thu May 15 2025 09:02:15 GMT-0500 (Central Daylight Time),272876.0,CFD-BF-035-007-HC.jpg,1400,dash,O,None,1514,7,1,39287.69999998808,233588.30000001192,7157,ATS,B,16
15,test,1,B,mfborder.png,1,z,Thu May 15 2025 09:02:15 GMT-0500 (Central Daylight Time),275207.10000002384,CFD-WF-011-006-HC.jpg,1000,dash,O,z,1270,12,1,41618.80000001192,233588.30000001192,7157,ATS,B,17
16,test,1,B,mfborder.png,1,z,Thu May 15 2025 09:02:15 GMT-0500 (Central Daylight Time),277107.5,CFD-BF-051-043-A.jpg,1000,dash,O,z,866,4,1,43519.19999998808,233588.30000001192,7157,ATS,B,18
17,test,1,B,mfborder.png,1,z,Thu May 15 2025 09:02:15 GMT-0500 (Central Daylight Time),278789.8000000119,CFD-WF-011-006-HC.jpg,1000,dash,O,z,629,12,1,45201.5,233588.30000001192,7157,ATS,B,19
18,test,1,B,mfborder.png,1,z,Thu May 15 2025 09:02:15 GMT-0500 (Central Daylight Time),280439.60000002384,CFD-BF-051-043-A.jpg,1000,dash,O,z,612,4,1,46851.30000001192,233588.30000001192,7157,ATS,B,20
19,test,1,B,mfborder.png,1,m,Thu May 15 2025 09:02:15 GMT-0500 (Central Daylight Time),282955.60000002384,CFD-BM-020-024-HC.jpg,1700,dash,O,m,776,1,1,49367.30000001192,233588.30000001192,7157,ATS,B,21
20,test,1,B,mfborder.png,1,m,Thu May 15 2025 09:02:15 GMT-0500 (Central Daylight Time),284837.2000000477,CFD-WM-037-060-A.jpg,1200,dash,O,m,645,6,1,51248.90000003576,233588.30000001192,7157,ATS,B,22
21,test,1,B,mfborder.png,1,m,Thu May 15 2025 09:02:15 GMT-0500 (Central Daylight Time),287536.3000000119,CFD-BM-037-041-A.jpg,2000,dash,O,m,667,5,1,53948.0,233588.30000001192,7157,ATS,B,23
22,test,1,B,mfborder.png,1,z,Thu May 15 2025 09:02:15 GMT-0500 (Central Daylight Time),289769.8000000119,CFD-WF-026-008-A.jpg,1500,dash,O,z,712,11,1,56181.5,233588.30000001192,7157,ATS,B,24
1,12,1,C,haborder.png,1,m,Thu May 15 2025 09:02:15 GMT-0500 (Central Daylight Time),322209.40000003576,CFD-WM-011-006-HC.jpg,1400,solid,O,m,852,prac,1,3050.0,319159.40000003576,7157,ATS,B,1
2,4,1,C,mfborder.png,1,m,Thu May 15 2025 09:02:15 GMT-0500 (Central Daylight Time),326123.7000000477,CFD-BM-015-017-HC.jpg,2000,solid,O,m,1097,prac,1,6964.300000011921,319159.40000003576,7157,ATS,B,2
2,8,1,C,haborder.png,0,z,Thu May 15 2025 09:02:15 GMT-0500 (Central Daylight Time),330122.5,CFD-BF-050-012-A.jpg,1700,solid,O,None,1513,prac,1,10963.099999964237,319159.40000003576,7157,ATS,B,3
3,3,1,C,mfborder.png,1,z,Thu May 15 2025 09:02:15 GMT-0500 (Central Daylight Time),333054.8000000119,CFD-BF-035-007-HC.jpg,1000,dash,O,z,1143,prac,1,13895.399999976158,319159.40000003576,7157,ATS,B,4
3,1,1,C,mfborder.png,0,z,Thu May 15 2025 09:02:15 GMT-0500 (Central Daylight Time),336554.40000003576,CFD-WF-011-006-HC.jpg,1600,dash,O,m,1098,prac,1,17395.0,319159.40000003576,7157,ATS,B,5
3,10,1,C,haborder.png,0,m,Thu May 15 2025 09:02:15 GMT-0500 (Central Daylight Time),340369.90000003576,CFD-BM-020-024-HC.jpg,1500,solid,O,None,1514,prac,1,21210.5,319159.40000003576,7157,ATS,B,6
4,7,1,C,haborder.png,1,z,Thu May 15 2025 09:02:15 GMT-0500 (Central Daylight Time),343718.8000000119,CFD-BF-051-043-A.jpg,1900,dash,O,z,627,prac,1,24559.399999976158,319159.40000003576,7157,ATS,B,7
5,9,1,C,haborder.png,1,z,Thu May 15 2025 09:02:15 GMT-0500 (Central Daylight Time),347167.7000000477,CFD-WF-026-008-A.jpg,1600,dash,O,z,1020,prac,1,28008.30000001192,319159.40000003576,7157,ATS,B,8
6,6,1,C,mfborder.png,1,m,Thu May 15 2025 09:02:15 GMT-0500 (Central Daylight Time),350400.10000002384,CFD-WM-009-009-A.jpg,1700,solid,O,m,700,prac,1,31240.69999998808,319159.40000003576,7157,ATS,B,9
7,2,1,C,mfborder.png,1,z,Thu May 15 2025 09:02:15 GMT-0500 (Central Daylight Time),353832.3000000119,CFD-WF-013-015-A.jpg,1500,solid,O,z,1129,prac,1,34672.89999997616,319159.40000003576,7157,ATS,B,10
8,5,1,C,mfborder.png,1,m,Thu May 15 2025 09:02:15 GMT-0500 (Central Daylight Time),356781.10000002384,CFD-BM-037-041-A.jpg,1200,dash,O,m,924,prac,1,37621.69999998808,319159.40000003576,7157,ATS,B,11
9,11,1,C,haborder.png,1,m,Thu May 15 2025 09:02:15 GMT-0500 (Central Daylight Time),359296.3000000119,CFD-WM-011-006-HC.jpg,1000,dash,O,m,693,prac,1,40136.89999997616,319159.40000003576,7157,ATS,B,12
1,test,1,C,haborder.png,1,z,Thu May 15 2025 09:02:15 GMT-0500 (Central Daylight Time),374625.5,CFD-BM-041-048-A.jpg,1700,solid,O,z,1369,9,1,3099.899999976158,371525.60000002384,7157,ATS,B,1
2,test,1,C,mfborder.png,1,m,Thu May 15 2025 09:02:15 GMT-0500 (Central Daylight Time),377358.5,CFD-WM-037-060-A.jpg,2000,dash,O,m,698,5,1,5832.899999976158,371525.60000002384,7157,ATS,B,2
3,test,1,C,mfborder.png,1,z,Thu May 15 2025 09:02:15 GMT-0500 (Central Daylight Time),379722.90000003576,CFD-WF-026-008-A.jpg,1500,dash,O,z,823,3,1,8197.300000011921,371525.60000002384,7157,ATS,B,3
3,test,1,C,haborder.png,0,m,Thu May 15 2025 09:02:15 GMT-0500 (Central Daylight Time),382272.8000000119,CFD-BF-035-007-HC.jpg,1600,solid,O,z,925,10,1,10747.199999988079,371525.60000002384,7157,ATS,B,4
3,test,1,C,haborder.png,0,m,Thu May 15 2025 09:02:15 GMT-0500 (Central Daylight Time),384822.10000002384,CFD-WF-011-006-HC.jpg,1000,solid,O,None,1515,12,1,13296.5,371525.60000002384,7157,ATS,B,5
3,test,1,C,haborder.png,0,z,Thu May 15 2025 09:02:15 GMT-0500 (Central Daylight Time),388086.60000002384,CFD-BM-041-048-A.jpg,1700,solid,O,None,1516,9,1,16561.0,371525.60000002384,7157,ATS,B,6
3,test,1,C,haborder.png,0,z,Thu May 15 2025 09:02:15 GMT-0500 (Central Daylight Time),391019.0,CFD-WM-009-009-A.jpg,1400,solid,O,None,1516,7,1,19493.399999976158,371525.60000002384,7157,ATS,B,7
4,test,1,C,mfborder.png,1,z,Thu May 15 2025 09:02:15 GMT-0500 (Central Daylight Time),393252.60000002384,CFD-BF-051-043-A.jpg,1600,dash,O,z,607,2,1,21727.0,371525.60000002384,7157,ATS,B,8
4,test,1,C,mfborder.png,0,m,Thu May 15 2025 09:02:15 GMT-0500 (Central Daylight Time),395801.5,CFD-WM-012-007-HC.jpg,1000,dash,O,None,1514,4,1,24275.899999976158,371525.60000002384,7157,ATS,B,9
5,test,1,C,haborder.png,1,z,Thu May 15 2025 09:02:15 GMT-0500 (Central Daylight Time),398517.60000002384,CFD-BM-037-041-A.jpg,1900,solid,O,z,792,8,1,26992.0,371525.60000002384,7157,ATS,B,10
6,test,1,C,haborder.png,1,z,Thu May 15 2025 09:02:15 GMT-0500 (Central Daylight Time),401683.0,CFD-BM-037-041-A.jpg,1900,solid,O,z,1218,8,1,30157.399999976158,371525.60000002384,7157,ATS,B,11
7,test,1,C,mfborder.png,1,m,Thu May 15 2025 09:02:15 GMT-0500 (Central Daylight Time),403765.8000000119,CFD-WM-012-007-HC.jpg,1000,dash,O,m,1039,4,1,32240.19999998808,371525.60000002384,7157,ATS,B,12
8,test,1,C,mfborder.png,1,z,Thu May 15 2025 09:02:15 GMT-0500 (Central Daylight Time),406281.7000000477,CFD-BF-051-043-A.jpg,1600,dash,O,z,868,2,1,34756.10000002384,371525.60000002384,7157,ATS,B,13
8,test,1,C,mfborder.png,0,z,Thu May 15 2025 09:02:15 GMT-0500 (Central Daylight Time),409030.5,CFD-BF-027-013-HC.jpg,1700,dash,O,m,1013,1,1,37504.89999997616,371525.60000002384,7157,ATS,B,14
8,test,1,C,mfborder.png,0,z,Thu May 15 2025 09:02:15 GMT-0500 (Central Daylight Time),411646.7000000477,CFD-BF-027-013-HC.jpg,1700,dash,O,m,856,1,1,40121.10000002384,371525.60000002384,7157,ATS,B,15
8,test,1,C,haborder.png,0,m,Thu May 15 2025 09:02:15 GMT-0500 (Central Daylight Time),414495.40000003576,CFD-WF-027-007-HC.jpg,1500,solid,O,z,1313,11,1,42969.80000001192,371525.60000002384,7157,ATS,B,16
8,test,1,C,haborder.png,0,m,Thu May 15 2025 09:02:15 GMT-0500 (Central Daylight Time),416678.2000000477,CFD-WF-027-007-HC.jpg,1500,solid,O,z,649,11,1,45152.60000002384,371525.60000002384,7157,ATS,B,17
9,test,1,C,mfborder.png,1,m,Thu May 15 2025 09:02:15 GMT-0500 (Central Daylight Time),418827.3000000119,CFD-BM-020-024-HC.jpg,1200,dash,O,m,872,6,1,47301.69999998808,371525.60000002384,7157,ATS,B,18
9,test,1,C,mfborder.png,0,m,Thu May 15 2025 09:02:15 GMT-0500 (Central Daylight Time),422375.5,CFD-WM-037-060-A.jpg,2000,dash,O,None,1513,5,1,50849.89999997616,371525.60000002384,7157,ATS,B,19
10,test,1,C,haborder.png,1,z,Thu May 15 2025 09:02:15 GMT-0500 (Central Daylight Time),425157.90000003576,CFD-WM-009-009-A.jpg,1400,solid,O,z,1353,7,1,53632.30000001192,371525.60000002384,7157,ATS,B,20
10,test,1,C,mfborder.png,0,z,Thu May 15 2025 09:02:15 GMT-0500 (Central Daylight Time),428191.40000003576,CFD-WF-026-008-A.jpg,1500,dash,O,None,1516,3,1,56665.80000001192,371525.60000002384,7157,ATS,B,21
10,test,1,C,haborder.png,0,m,Thu May 15 2025 09:02:15 GMT-0500 (Central Daylight Time),430855.90000003576,CFD-BF-035-007-HC.jpg,1600,solid,O,z,1026,10,1,59330.30000001192,371525.60000002384,7157,ATS,B,22
11,test,1,C,mfborder.png,1,m,Thu May 15 2025 09:02:15 GMT-0500 (Central Daylight Time),432872.2000000477,CFD-BM-020-024-HC.jpg,1200,dash,O,m,795,6,1,61346.60000002384,371525.60000002384,7157,ATS,B,23
12,test,1,C,haborder.png,1,m,Thu May 15 2025 09:02:15 GMT-0500 (Central Daylight Time),435004.8000000119,CFD-WF-011-006-HC.jpg,1000,solid,O,m,1104,12,1,63479.19999998808,371525.60000002384,7157,ATS,B,24
1,test,2,C,haborder.png,1,z,Thu May 15 2025 09:02:15 GMT-0500 (Central Daylight Time),441935.60000002384,CFD-BF-051-043-A.jpg,1400,solid,O,z,832,7,1,2298.0,439637.60000002384,7157,ATS,B,1
2,test,2,C,mfborder.png,1,m,Thu May 15 2025 09:02:15 GMT-0500 (Central Daylight Time),444085.8000000119,CFD-BM-015-017-HC.jpg,1000,dash,O,m,1112,4,1,4448.199999988079,439637.60000002384,7157,ATS,B,2
3,test,2,C,mfborder.png,1,z,Thu May 15 2025 09:02:15 GMT-0500 (Central Daylight Time),446801.7000000477,CFD-WF-013-015-A.jpg,1600,dash,O,z,1078,2,1,7164.100000023842,439637.60000002384,7157,ATS,B,3
4,test,2,C,haborder.png,1,z,Thu May 15 2025 09:02:15 GMT-0500 (Central Daylight Time),449949.8000000119,CFD-BF-050-012-A.jpg,1900,solid,O,z,1206,8,1,10312.199999988079,439637.60000002384,7157,ATS,B,4
5,test,2,C,haborder.png,1,z,Thu May 15 2025 09:02:15 GMT-0500 (Central Daylight Time),452399.90000003576,CFD-BF-051-043-A.jpg,1400,solid,O,z,1023,7,1,12762.300000011921,439637.60000002384,7157,ATS,B,5
6,test,2,C,haborder.png,1,z,Thu May 15 2025 09:02:15 GMT-0500 (Central Daylight Time),455048.90000003576,CFD-BF-050-012-A.jpg,1900,solid,O,z,704,8,1,15411.300000011921,439637.60000002384,7157,ATS,B,6
7,test,2,C,haborder.png,1,z,Thu May 15 2025 09:02:15 GMT-0500 (Central Daylight Time),457564.90000003576,CFD-WF-026-008-A.jpg,1700,solid,O,z,768,9,1,17927.30000001192,439637.60000002384,7157,ATS,B,7
8,test,2,C,mfborder.png,1,m,Thu May 15 2025 09:02:15 GMT-0500 (Central Daylight Time),459496.60000002384,CFD-BM-015-017-HC.jpg,1000,dash,O,m,884,4,1,19859.0,439637.60000002384,7157,ATS,B,8
9,test,2,C,mfborder.png,1,z,Thu May 15 2025 09:02:15 GMT-0500 (Central Daylight Time),462545.7000000477,CFD-WF-011-006-HC.jpg,1700,dash,O,z,1324,1,1,22908.100000023842,439637.60000002384,7157,ATS,B,9
10,test,2,C,mfborder.png,1,z,Thu May 15 2025 09:02:15 GMT-0500 (Central Daylight Time),465629.60000002384,CFD-WF-013-015-A.jpg,1600,dash,O,z,1465,2,1,25992.0,439637.60000002384,7157,ATS,B,10
11,test,2,C,haborder.png,1,m,Thu May 15 2025 09:02:15 GMT-0500 (Central Daylight Time),467411.60000002384,CFD-WM-011-006-HC.jpg,1000,solid,O,m,725,12,1,27774.0,439637.60000002384,7157,ATS,B,11
12,test,2,C,mfborder.png,1,z,Thu May 15 2025 09:02:15 GMT-0500 (Central Daylight Time),469910.5,CFD-BF-035-007-HC.jpg,1500,dash,O,z,963,3,1,30272.899999976158,439637.60000002384,7157,ATS,B,12
12,test,2,C,mfborder.png,0,m,Thu May 15 2025 09:02:15 GMT-0500 (Central Daylight Time),472993.10000002384,CFD-BM-037-041-A.jpg,2000,dash,O,z,1038,5,1,33355.5,439637.60000002384,7157,ATS,B,13
13,test,2,C,haborder.png,1,m,Thu May 15 2025 09:02:15 GMT-0500 (Central Daylight Time),475758.90000003576,CFD-BM-020-024-HC.jpg,1600,solid,O,m,1107,10,1,36121.30000001192,439637.60000002384,7157,ATS,B,14
13,test,2,C,mfborder.png,0,z,Thu May 15 2025 09:02:15 GMT-0500 (Central Daylight Time),479007.8000000119,CFD-WF-011-006-HC.jpg,1700,dash,O,None,1516,1,1,39370.19999998808,439637.60000002384,7157,ATS,B,15
13,test,2,C,mfborder.png,0,m,Thu May 15 2025 09:02:15 GMT-0500 (Central Daylight Time),481439.40000003576,CFD-WM-009-009-A.jpg,1200,dash,O,z,1170,6,1,41801.80000001192,439637.60000002384,7157,ATS,B,16
14,test,2,C,mfborder.png,1,m,Thu May 15 2025 09:02:15 GMT-0500 (Central Daylight Time),483406.40000003576,CFD-WM-009-009-A.jpg,1200,dash,O,m,739,6,1,43768.80000001192,439637.60000002384,7157,ATS,B,17
15,test,2,C,haborder.png,1,m,Thu May 15 2025 09:02:15 GMT-0500 (Central Daylight Time),485322.3000000119,CFD-WM-011-006-HC.jpg,1000,solid,O,m,861,12,1,45684.69999998808,439637.60000002384,7157,ATS,B,18
16,test,2,C,haborder.png,1,z,Thu May 15 2025 09:02:15 GMT-0500 (Central Daylight Time),487888.40000003576,CFD-WF-026-008-A.jpg,1700,solid,O,z,814,9,1,48250.80000001192,439637.60000002384,7157,ATS,B,19
17,test,2,C,haborder.png,1,m,Thu May 15 2025 09:02:15 GMT-0500 (Central Daylight Time),490237.60000002384,CFD-WM-011-006-HC.jpg,1500,solid,O,m,815,11,1,50600.0,439637.60000002384,7157,ATS,B,20
18,test,2,C,mfborder.png,1,z,Thu May 15 2025 09:02:15 GMT-0500 (Central Daylight Time),493002.90000003576,CFD-BF-035-007-HC.jpg,1500,dash,O,z,1202,3,1,53365.30000001192,439637.60000002384,7157,ATS,B,21
18,test,2,C,haborder.png,0,m,Thu May 15 2025 09:02:15 GMT-0500 (Central Daylight Time),496052.3000000119,CFD-WM-011-006-HC.jpg,1500,solid,O,None,1515,11,1,56414.69999998808,439637.60000002384,7157,ATS,B,22
19,test,2,C,haborder.png,1,m,Thu May 15 2025 09:02:15 GMT-0500 (Central Daylight Time),498351.0,CFD-BM-020-024-HC.jpg,1600,solid,O,m,632,10,1,58713.39999997616,439637.60000002384,7157,ATS,B,23
19,test,2,C,mfborder.png,0,m,Thu May 15 2025 09:02:15 GMT-0500 (Central Daylight Time),501450.2000000477,CFD-BM-037-041-A.jpg,2000,dash,O,z,1034,5,1,61812.60000002384,439637.60000002384,7157,ATS,B,24
1,test,3,C,haborder.png,1,m,Thu May 15 2025 09:02:15 GMT-0500 (Central Daylight Time),509464.7000000477,CFD-WF-027-007-HC.jpg,1500,solid,O,m,877,11,1,2449.2000000476837,507015.5,7157,ATS,B,1
2,test,3,C,mfborder.png,1,z,Thu May 15 2025 09:02:15 GMT-0500 (Central Daylight Time),511762.8000000119,CFD-WF-026-008-A.jpg,1500,dash,O,z,719,3,1,4747.300000011921,507015.5,7157,ATS,B,2
2,test,3,C,mfborder.png,0,m,Thu May 15 2025 09:02:15 GMT-0500 (Central Daylight Time),514295.5,CFD-WM-012-007-HC.jpg,1000,dash,O,None,1515,4,1,7280.0,507015.5,7157,ATS,B,3
2,test,3,C,haborder.png,0,z,Thu May 15 2025 09:02:15 GMT-0500 (Central Daylight Time),516978.7000000477,CFD-BM-037-041-A.jpg,1900,solid,O,m,751,8,1,9963.200000047684,507015.5,7157,ATS,B,4
2,test,3,C,mfborder.png,0,z,Thu May 15 2025 09:02:15 GMT-0500 (Central Daylight Time),520227.60000002384,CFD-BF-027-013-HC.jpg,1700,dash,O,None,1516,1,1,13212.100000023842,507015.5,7157,ATS,B,5
3,test,3,C,haborder.png,1,z,Thu May 15 2025 09:02:15 GMT-0500 (Central Daylight Time),523059.40000003576,CFD-BM-041-048-A.jpg,1700,solid,O,z,1099,9,1,16043.900000035763,507015.5,7157,ATS,B,6
3,test,3,C,mfborder.png,0,m,Thu May 15 2025 09:02:15 GMT-0500 (Central Daylight Time),526242.1000000238,CFD-WM-037-060-A.jpg,2000,dash,O,z,1171,5,1,19226.600000023842,507015.5,7157,ATS,B,7
4,test,3,C,mfborder.png,1,m,Thu May 15 2025 09:02:15 GMT-0500 (Central Daylight Time),528924.7000000477,CFD-BM-020-024-HC.jpg,1200,dash,O,m,1442,6,1,21909.200000047684,507015.5,7157,ATS,B,8
5,test,3,C,mfborder.png,1,m,Thu May 15 2025 09:02:15 GMT-0500 (Central Daylight Time),532239.4000000358,CFD-WM-037-060-A.jpg,2000,dash,O,m,1278,5,1,25223.900000035763,507015.5,7157,ATS,B,9
6,test,3,C,mfborder.png,1,z,Thu May 15 2025 09:02:15 GMT-0500 (Central Daylight Time),534706.0,CFD-BF-051-043-A.jpg,1600,dash,O,z,845,2,1,27690.5,507015.5,7157,ATS,B,10
6,test,3,C,haborder.png,0,m,Thu May 15 2025 09:02:15 GMT-0500 (Central Daylight Time),537421.8000000119,CFD-BF-035-007-HC.jpg,1600,solid,O,z,1076,10,1,30406.30000001192,507015.5,7157,ATS,B,11
6,test,3,C,mfborder.png,0,m,Thu May 15 2025 09:02:15 GMT-0500 (Central Daylight Time),540171.0,CFD-BM-020-024-HC.jpg,1200,dash,O,None,1514,6,1,33155.5,507015.5,7157,ATS,B,12
7,test,3,C,mfborder.png,1,z,Thu May 15 2025 09:02:15 GMT-0500 (Central Daylight Time),542685.9000000358,CFD-BF-051-043-A.jpg,1600,dash,O,z,879,2,1,35670.40000003576,507015.5,7157,ATS,B,13
7,test,3,C,haborder.png,0,m,Thu May 15 2025 09:02:15 GMT-0500 (Central Daylight Time),545053.4000000358,CFD-BF-035-007-HC.jpg,1600,solid,O,z,748,10,1,38037.90000003576,507015.5,7157,ATS,B,14
7,test,3,C,mfborder.png,0,z,Thu May 15 2025 09:02:15 GMT-0500 (Central Daylight Time),548101.4000000358,CFD-WF-026-008-A.jpg,1500,dash,O,None,1514,3,1,41085.90000003576,507015.5,7157,ATS,B,15
8,test,3,C,haborder.png,1,z,Thu May 15 2025 09:02:15 GMT-0500 (Central Daylight Time),550717.5,CFD-WM-009-009-A.jpg,1400,solid,O,z,1172,7,1,43702.0,507015.5,7157,ATS,B,16
9,test,3,C,mfborder.png,1,m,Thu May 15 2025 09:02:15 GMT-0500 (Central Daylight Time),552650.2000000477,CFD-WM-012-007-HC.jpg,1000,dash,O,m,893,4,1,45634.700000047684,507015.5,7157,ATS,B,17
10,test,3,C,haborder.png,1,z,Thu May 15 2025 09:02:15 GMT-0500 (Central Daylight Time),555332.8000000119,CFD-BM-041-048-A.jpg,1700,solid,O,z,926,9,1,48317.30000001192,507015.5,7157,ATS,B,18
11,test,3,C,haborder.png,1,m,Thu May 15 2025 09:02:15 GMT-0500 (Central Daylight Time),557232.1000000238,CFD-WF-011-006-HC.jpg,1000,solid,O,m,862,12,1,50216.60000002384,507015.5,7157,ATS,B,19
11,test,3,C,haborder.png,0,z,Thu May 15 2025 09:02:15 GMT-0500 (Central Daylight Time),559448.2000000477,CFD-WM-009-009-A.jpg,1400,solid,O,m,754,7,1,52432.700000047684,507015.5,7157,ATS,B,20
12,test,3,C,haborder.png,1,m,Thu May 15 2025 09:02:15 GMT-0500 (Central Daylight Time),561830.5,CFD-WF-027-007-HC.jpg,1500,solid,O,m,841,11,1,54815.0,507015.5,7157,ATS,B,21
12,test,3,C,mfborder.png,0,z,Thu May 15 2025 09:02:15 GMT-0500 (Central Daylight Time),565095.5,CFD-BF-027-013-HC.jpg,1700,dash,O,None,1513,1,1,58080.0,507015.5,7157,ATS,B,22
13,test,3,C,haborder.png,1,m,Thu May 15 2025 09:02:15 GMT-0500 (Central Daylight Time),567045.5,CFD-WF-011-006-HC.jpg,1000,solid,O,m,923,12,1,60030.0,507015.5,7157,ATS,B,23
14,test,3,C,haborder.png,1,z,Thu May 15 2025 09:02:15 GMT-0500 (Central Daylight Time),569844.9000000358,CFD-BM-037-041-A.jpg,1900,solid,O,z,840,8,1,62829.40000003576,507015.5,7157,ATS,B,24
0,test,4,C,mfborder.png,0,m,Thu May 15 2025 09:02:15 GMT-0500 (Central Daylight Time),573960.1000000238,CFD-WM-009-009-A.jpg,1200,dash,O,z,1071,6,1,2332.600000023842,571627.5,7157,ATS,B,1
1,test,4,C,haborder.png,1,m,Thu May 15 2025 09:02:15 GMT-0500 (Central Daylight Time),576391.7000000477,CFD-BM-020-024-HC.jpg,1600,solid,O,m,773,10,1,4764.200000047684,571627.5,7157,ATS,B,2
2,test,4,C,haborder.png,1,z,Thu May 15 2025 09:02:15 GMT-0500 (Central Daylight Time),578775.3000000119,CFD-BF-051-043-A.jpg,1400,solid,O,z,957,7,1,7147.800000011921,571627.5,7157,ATS,B,3
3,test,4,C,mfborder.png,1,m,Thu May 15 2025 09:02:15 GMT-0500 (Central Daylight Time),580890.8000000119,CFD-BM-015-017-HC.jpg,1000,dash,O,m,1044,4,1,9263.300000011921,571627.5,7157,ATS,B,4
4,test,4,C,haborder.png,1,z,Thu May 15 2025 09:02:15 GMT-0500 (Central Daylight Time),583739.8000000119,CFD-BF-050-012-A.jpg,1900,solid,O,z,882,8,1,12112.300000011921,571627.5,7157,ATS,B,5
5,test,4,C,mfborder.png,1,z,Thu May 15 2025 09:02:15 GMT-0500 (Central Daylight Time),586539.2000000477,CFD-WF-011-006-HC.jpg,1700,dash,O,z,1050,1,1,14911.700000047684,571627.5,7157,ATS,B,6
6,test,4,C,haborder.png,1,z,Thu May 15 2025 09:02:15 GMT-0500 (Central Daylight Time),589321.6000000238,CFD-BF-050-012-A.jpg,1900,solid,O,z,837,8,1,17694.100000023842,571627.5,7157,ATS,B,7
6,test,4,C,mfborder.png,0,z,Thu May 15 2025 09:02:15 GMT-0500 (Central Daylight Time),592503.9000000358,CFD-WF-011-006-HC.jpg,1700,dash,O,m,1445,1,1,20876.400000035763,571627.5,7157,ATS,B,8
7,test,4,C,haborder.png,1,z,Thu May 15 2025 09:02:15 GMT-0500 (Central Daylight Time),594854.7000000477,CFD-BF-051-043-A.jpg,1400,solid,O,z,899,7,1,23227.200000047684,571627.5,7157,ATS,B,9
7,test,4,C,haborder.png,0,z,Thu May 15 2025 09:02:15 GMT-0500 (Central Daylight Time),598084.8000000119,CFD-WF-026-008-A.jpg,1700,solid,O,None,1515,9,1,26457.30000001192,571627.5,7157,ATS,B,10
7,test,4,C,mfborder.png,0,m,Thu May 15 2025 09:02:15 GMT-0500 (Central Daylight Time),601617.5,CFD-BM-037-041-A.jpg,2000,dash,O,None,1514,5,1,29990.0,571627.5,7157,ATS,B,11
8,test,4,C,mfborder.png,1,m,Thu May 15 2025 09:02:15 GMT-0500 (Central Daylight Time),603699.2000000477,CFD-WM-009-009-A.jpg,1200,dash,O,m,832,6,1,32071.700000047684,571627.5,7157,ATS,B,12
9,test,4,C,haborder.png,1,m,Thu May 15 2025 09:02:15 GMT-0500 (Central Daylight Time),605799.6000000238,CFD-WM-011-006-HC.jpg,1500,solid,O,m,573,11,1,34172.10000002384,571627.5,7157,ATS,B,13
10,test,4,C,mfborder.png,1,m,Thu May 15 2025 09:02:15 GMT-0500 (Central Daylight Time),607848.0,CFD-BM-015-017-HC.jpg,1000,dash,O,m,1009,4,1,36220.5,571627.5,7157,ATS,B,14
11,test,4,C,mfborder.png,1,z,Thu May 15 2025 09:02:15 GMT-0500 (Central Daylight Time),610730.5,CFD-WF-013-015-A.jpg,1600,dash,O,z,1250,2,1,39103.0,571627.5,7157,ATS,B,15
12,test,4,C,mfborder.png,1,z,Thu May 15 2025 09:02:15 GMT-0500 (Central Daylight Time),613080.6000000238,CFD-WF-013-015-A.jpg,1600,dash,O,z,730,2,1,41453.10000002384,571627.5,7157,ATS,B,16
13,test,4,C,haborder.png,1,m,Thu May 15 2025 09:02:15 GMT-0500 (Central Daylight Time),614879.1000000238,CFD-WM-011-006-HC.jpg,1000,solid,O,m,721,12,1,43251.60000002384,571627.5,7157,ATS,B,17
14,test,4,C,mfborder.png,1,z,Thu May 15 2025 09:02:15 GMT-0500 (Central Daylight Time),617411.5,CFD-BF-035-007-HC.jpg,1500,dash,O,z,997,3,1,45784.0,571627.5,7157,ATS,B,18
15,test,4,C,haborder.png,1,z,Thu May 15 2025 09:02:15 GMT-0500 (Central Daylight Time),620044.0,CFD-WF-026-008-A.jpg,1700,solid,O,z,905,9,1,48416.5,571627.5,7157,ATS,B,19
16,test,4,C,mfborder.png,1,m,Thu May 15 2025 09:02:15 GMT-0500 (Central Daylight Time),622909.6000000238,CFD-BM-037-041-A.jpg,2000,dash,O,m,820,5,1,51282.10000002384,571627.5,7157,ATS,B,20
17,test,4,C,mfborder.png,1,z,Thu May 15 2025 09:02:15 GMT-0500 (Central Daylight Time),625293.2000000477,CFD-BF-035-007-HC.jpg,1500,dash,O,z,851,3,1,53665.700000047684,571627.5,7157,ATS,B,21
18,test,4,C,haborder.png,1,m,Thu May 15 2025 09:02:15 GMT-0500 (Central Daylight Time),627475.7000000477,CFD-WM-011-006-HC.jpg,1500,solid,O,m,642,11,1,55848.200000047684,571627.5,7157,ATS,B,22
19,test,4,C,haborder.png,1,m,Thu May 15 2025 09:02:15 GMT-0500 (Central Daylight Time),629974.0,CFD-BM-020-024-HC.jpg,1600,solid,O,m,861,10,1,58346.5,571627.5,7157,ATS,B,23
20,test,4,C,haborder.png,1,m,Thu May 15 2025 09:02:15 GMT-0500 (Central Daylight Time),631724.4000000358,CFD-WM-011-006-HC.jpg,1000,solid,O,m,723,12,1,60096.90000003576,571627.5,7157,ATS,B,24
