acc_sum,block,block_c,condition,correct,correct_response,datetime,endtime,flanker,jitter,project,response,response_test_buffer_response,response_test_target_response,response_time,response_time_test_buffer_response,response_time_test_target_response,row_sel,session_number,start_end,starttime,subject_id,target,task,task_vers,time_test_buffer,time_test_buffer_response,time_test_constants,time_test_flanker,time_test_jitter,time_test_logger,time_test_target,time_test_target_response,time_test_variables,trial
1,prac,1,inc,1,m,Tue Jul 29 2025 17:21:50 GMT-0500 (Central Daylight Time),83409.79999995232,pear,900,I,m,,,1040,,,14,1,3240.5,80169.29999995232,7173,iron,NF,C,,,,,,,,,,1
2,prac,1,inc,1,m,Tue Jul 29 2025 17:21:50 GMT-0500 (Central Daylight Time),86325.29999995232,raisin,1100,I,m,,,495,,,12,1,2892.7999999523163,83432.5,7173,cobalt,NF,C,,,,,,,,,,2
3,prac,1,con,1,m,Tue Jul 29 2025 17:21:50 GMT-0500 (Central Daylight Time),88990.69999992847,gold,800,I,m,,,544,,,13,1,2642.2999999523163,86348.39999997616,7173,gold,NF,C,,,,,,,,,,3
4,prac,1,inc,1,m,Tue Jul 29 2025 17:21:50 GMT-0500 (Central Daylight Time),92056.69999992847,plum,1100,I,m,,,634,,,16,1,3047.5,89009.19999992847,7173,lead,NF,C,,,,,,,,,,4
5,prac,1,con,1,m,Tue Jul 29 2025 17:21:50 GMT-0500 (Central Daylight Time),94789.0,bronze,800,I,m,,,604,,,9,1,2707.9000000953674,92081.09999990463,7173,bronze,NF,C,,,,,,,,,,5
6,prac,1,con,1,z,Tue Jul 29 2025 17:21:50 GMT-0500 (Central Daylight Time),97704.79999995232,orange,1000,I,z,,,584,,,3,1,2892.0,94812.79999995232,7173,orange,NF,C,,,,,,,,,,6
6,prac,1,inc,0,z,Tue Jul 29 2025 17:21:50 GMT-0500 (Central Daylight Time),100487.09999990463,iron,900,I,m,,,560,,,6,1,2760.7999999523163,97726.29999995232,7173,pear,NF,C,,,,,,,,,,7
7,prac,1,con,1,m,Tue Jul 29 2025 17:21:50 GMT-0500 (Central Daylight Time),103486.19999992847,silver,1000,I,m,,,679,,,11,1,2976.5,100509.69999992847,7173,silver,NF,C,,,,,,,,,,8
8,prac,1,con,1,m,Tue Jul 29 2025 17:21:50 GMT-0500 (Central Daylight Time),106517.89999997616,zinc,1000,I,m,,,712,,,15,1,3009.2000000476837,103508.69999992847,7173,zinc,NF,C,,,,,,,,,,9
9,prac,1,con,1,z,Tue Jul 29 2025 17:21:50 GMT-0500 (Central Daylight Time),109467.59999990463,banana,800,I,z,,,839,,,1,1,2939.0,106528.59999990463,7173,banana,NF,C,,,,,,,,,,10
10,prac,1,inc,1,m,Tue Jul 29 2025 17:21:50 GMT-0500 (Central Daylight Time),112433.39999997616,cherry,900,I,m,,,733,,,10,1,2940.7000000476837,109492.69999992847,7173,copper,NF,C,,,,,,,,,,11
11,prac,1,con,1,z,Tue Jul 29 2025 17:21:50 GMT-0500 (Central Daylight Time),115582.39999997616,kiwi,1000,I,z,,,828,,,7,1,3126.2000000476837,112456.19999992847,7173,kiwi,NF,C,,,,,,,,,,12
12,prac,1,inc,1,z,Tue Jul 29 2025 17:21:50 GMT-0500 (Central Daylight Time),118697.89999997616,copper,900,I,z,,,883,,,2,1,3093.899999976158,115604.0,7173,cherry,NF,C,,,,,,,,,,13
13,prac,1,inc,1,z,Tue Jul 29 2025 17:21:50 GMT-0500 (Central Daylight Time),121813.59999990463,cobalt,1100,I,z,,,687,,,4,1,3094.6999999284744,118718.89999997616,7173,raisin,NF,C,,,,,,,,,,14
13,prac,1,inc,0,z,Tue Jul 29 2025 17:21:50 GMT-0500 (Central Daylight Time),124928.5,lead,1100,I,m,,,684,,,8,1,3093.8000000715256,121834.69999992847,7173,plum,NF,C,,,,,,,,,,15
14,prac,1,con,1,z,Tue Jul 29 2025 17:21:50 GMT-0500 (Central Daylight Time),127795.0,lime,800,I,z,,,749,,,5,1,2857.7000000476837,124937.29999995232,7173,lime,NF,C,,,,,,,,,,16
1,test,1,con,1,m,Tue Jul 29 2025 17:21:50 GMT-0500 (Central Daylight Time),144855.69999992847,lead,1100,I,m,m,None,621,421.0,200.0,124,1,2262.600000023842,142593.09999990463,7173,lead,NF,C,141530,141530,139700,140814,139701,141963,141330,141330,141963,1
2,test,1,con,1,m,Tue Jul 29 2025 17:21:50 GMT-0500 (Central Daylight Time),146871.69999992847,copper,1000,I,m,m,None,453,254.0,199.0,75,1,1992.3999999761581,144879.29999995232,7173,copper,NF,C,143713,143713,141986,142996,141988,143979,143513,143513,143979,2
3,test,1,inc,1,m,Tue Jul 29 2025 17:21:50 GMT-0500 (Central Daylight Time),149188.09999990463,plum,1100,I,m,m,None,657,458.0,199.0,104,1,2294.399999976158,146893.69999992847,7173,gold,NF,C,145829,145829,144001,145112,144002,146295,145629,145629,146295,3
4,test,1,inc,1,m,Tue Jul 29 2025 17:21:50 GMT-0500 (Central Daylight Time),151087.19999992847,lime,800,I,m,m,None,545,346.0,199.0,109,1,1877.5,149209.69999992847,7173,iron,NF,C,147845,147845,146317,147128,146318,148194,147645,147645,148194,4
5,test,1,inc,1,z,Tue Jul 29 2025 17:21:50 GMT-0500 (Central Daylight Time),153353.19999992847,zinc,1000,I,z,z,None,710,511.0,199.0,47,1,2245.899999976158,151107.29999995232,7173,pear,NF,C,149944,149944,148214,149228,148216,150460,149744,149744,150460,5
6,test,1,con,1,z,Tue Jul 29 2025 17:21:50 GMT-0500 (Central Daylight Time),155652.39999997616,lime,1000,I,z,z,None,732,533.0,199.0,35,1,2279.2000000476837,153373.19999992847,7173,lime,NF,C,152210,152210,150480,151494,150482,152760,152010,152010,152759,6
7,test,1,con,1,z,Tue Jul 29 2025 17:21:50 GMT-0500 (Central Daylight Time),157684.89999997616,pear,800,I,z,z,None,680,481.0,199.0,41,1,2012.3000000715256,155672.59999990463,7173,pear,NF,C,154310,154310,152780,153593,152781,154792,154110,154110,154792,7
8,test,1,con,1,z,Tue Jul 29 2025 17:21:50 GMT-0500 (Central Daylight Time),160100.69999992847,plum,1100,I,z,z,None,764,565.0,199.0,60,1,2395.6999999284744,157705.0,7173,plum,NF,C,156642,156642,154812,155926,154813,157208,156442,156442,157208,8
9,test,1,inc,1,m,Tue Jul 29 2025 17:21:50 GMT-0500 (Central Daylight Time),162383.29999995232,kiwi,1000,I,m,m,None,738,538.0,200.0,127,1,2260.899999976158,160122.39999997616,7173,lead,NF,C,158941,158941,157229,158240,157231,159491,158741,158741,159490,9
10,test,1,inc,1,z,Tue Jul 29 2025 17:21:50 GMT-0500 (Central Daylight Time),164533.29999995232,gold,800,I,z,z,None,798,599.0,199.0,45,1,2129.0,162404.29999995232,7173,pear,NF,C,161041,161041,159511,160324,159513,161640,160841,160841,161640,10
11,test,1,inc,1,m,Tue Jul 29 2025 17:21:50 GMT-0500 (Central Daylight Time),167081.79999995232,orange,1000,I,m,m,None,984,785.0,199.0,79,1,2525.600000023842,164556.19999992847,7173,copper,NF,C,163390,163390,161663,162673,161665,164189,163190,163190,164189,11
12,test,1,inc,1,m,Tue Jul 29 2025 17:21:50 GMT-0500 (Central Daylight Time),169381.5,pear,900,I,m,m,None,848,649.0,199.0,102,1,2277.8000000715256,167103.69999992847,7173,gold,NF,C,165839,165839,164211,165122,164212,166489,165639,165639,166488,12
13,test,1,con,1,z,Tue Jul 29 2025 17:21:50 GMT-0500 (Central Daylight Time),171480.5,cherry,800,I,z,z,None,743,528.0,215.0,9,1,2078.600000023842,169401.89999997616,7173,cherry,NF,C,168055,168055,166509,167323,166510,168588,167839,167839,168587,13
14,test,1,inc,1,m,Tue Jul 29 2025 17:21:50 GMT-0500 (Central Daylight Time),173713.09999990463,pear,900,I,m,m,None,776,577.0,199.0,110,1,2211.2999999523163,171501.79999995232,7173,iron,NF,C,170238,170238,168609,169521,168610,170820,170038,170038,170820,14
15,test,1,inc,1,m,Tue Jul 29 2025 17:21:50 GMT-0500 (Central Daylight Time),175979.09999990463,lime,800,I,m,m,None,908,708.0,200.0,125,1,2244.6999999284744,173734.39999997616,7173,lead,NF,C,172371,172371,170841,171654,170843,173086,172170,172170,173086,15
16,test,1,inc,1,z,Tue Jul 29 2025 17:21:50 GMT-0500 (Central Daylight Time),178045.0,bronze,800,I,z,z,None,706,507.0,199.0,5,1,2044.8000000715256,176000.19999992847,7173,banana,NF,C,174636,174636,173107,173920,173109,175152,174436,174436,175152,16
17,test,1,con,1,z,Tue Jul 29 2025 17:21:50 GMT-0500 (Central Daylight Time),180194.29999995232,raisin,900,I,z,z,None,684,484.0,200.0,26,1,2129.2000000476837,178065.09999990463,7173,raisin,NF,C,176802,176803,175172,176086,175173,177301,176602,176602,177301,17
17,test,1,inc,0,z,Tue Jul 29 2025 17:21:50 GMT-0500 (Central Daylight Time),182127.0,silver,1000,I,m,m,None,380,180.0,200.0,7,1,1915.5,180211.5,7173,banana,NF,C,179051,179051,177319,178335,177319,179234,178851,178851,179234,18
18,test,1,con,1,m,Tue Jul 29 2025 17:21:50 GMT-0500 (Central Daylight Time),184376.59999990463,copper,1100,I,m,m,None,586,387.0,199.0,76,1,2229.0999999046326,182147.5,7173,copper,NF,C,181084,181084,179255,180368,179256,181484,180884,180884,181484,19
19,test,1,con,1,m,Tue Jul 29 2025 17:21:50 GMT-0500 (Central Daylight Time),186709.39999997616,zinc,1000,I,m,m,None,782,583.0,199.0,115,1,2308.899999976158,184400.5,7173,zinc,NF,C,183233,183233,181508,182517,181509,183817,183034,183034,183816,20
20,test,1,con,1,z,Tue Jul 29 2025 17:21:50 GMT-0500 (Central Daylight Time),188991.39999997616,plum,1000,I,z,z,None,728,529.0,199.0,59,1,2262.0,186729.39999997616,7173,plum,NF,C,185566,185566,183836,184849,183838,186099,185366,185366,186098,21
21,test,1,inc,1,m,Tue Jul 29 2025 17:21:50 GMT-0500 (Central Daylight Time),191224.09999990463,orange,1000,I,m,m,None,677,478.0,199.0,87,1,2206.6999999284744,189017.39999997616,7173,silver,NF,C,187849,187849,186124,187132,186126,188331,187649,187649,188331,22
22,test,1,inc,1,m,Tue Jul 29 2025 17:21:50 GMT-0500 (Central Daylight Time),193539.89999997616,raisin,1100,I,m,m,None,649,450.0,199.0,72,1,2293.899999976158,191246.0,7173,bronze,NF,C,190181,190181,188353,189465,188354,190647,189981,189981,190647,23
23,test,1,con,1,z,Tue Jul 29 2025 17:21:50 GMT-0500 (Central Daylight Time),195788.29999995232,banana,1000,I,z,z,None,688,489.0,199.0,3,1,2229.2999999523163,193559.0,7173,banana,NF,C,192397,192397,190666,191681,190667,192895,192197,192197,192895,24
24,test,1,con,1,m,Tue Jul 29 2025 17:21:50 GMT-0500 (Central Daylight Time),198138.29999995232,silver,1000,I,m,m,None,800,601.0,199.0,83,1,2343.2999999523163,195795.0,7173,silver,NF,C,194629,194630,192902,193913,192902,195245,194430,194430,195245,25
25,test,1,con,1,m,Tue Jul 29 2025 17:21:50 GMT-0500 (Central Daylight Time),200221.0,cobalt,800,I,m,m,None,730,531.0,199.0,89,1,2062.600000023842,198158.39999997616,7173,cobalt,NF,C,196796,196796,195265,196079,195267,197328,196596,196596,197328,26
26,test,1,inc,1,z,Tue Jul 29 2025 17:21:50 GMT-0500 (Central Daylight Time),202553.59999990463,zinc,1000,I,z,z,None,768,569.0,199.0,55,1,2312.899999976158,200240.69999992847,7173,kiwi,NF,C,199078,199078,197348,198361,197349,199661,198878,198878,199661,27
27,test,1,inc,1,z,Tue Jul 29 2025 17:21:50 GMT-0500 (Central Daylight Time),204653.09999990463,bronze,800,I,z,z,None,747,548.0,199.0,21,1,2079.5,202573.59999990463,7173,orange,NF,C,201211,201211,199681,200494,199682,201760,201011,201011,201760,28
28,test,1,inc,1,m,Tue Jul 29 2025 17:21:50 GMT-0500 (Central Daylight Time),206819.0,orange,1000,I,m,m,None,608,408.0,200.0,71,1,2145.8000000715256,204673.19999992847,7173,bronze,NF,C,203510,203511,201780,202793,201781,203926,203310,203310,203926,29
29,test,1,inc,1,z,Tue Jul 29 2025 17:21:50 GMT-0500 (Central Daylight Time),208884.89999997616,zinc,1000,I,z,z,None,507,308.0,199.0,63,1,2045.8999999761581,206839.0,7173,plum,NF,C,205676,205676,203946,204960,203947,205992,205476,205476,205992,30
30,test,1,inc,1,z,Tue Jul 29 2025 17:21:50 GMT-0500 (Central Daylight Time),211701.5,cobalt,1100,I,z,z,None,1165,966.0,199.0,24,1,2796.2000000476837,208905.29999995232,7173,orange,NF,C,207842,207842,206012,207125,206013,208809,207642,207642,208809,31
31,test,1,con,1,m,Tue Jul 29 2025 17:21:50 GMT-0500 (Central Daylight Time),213932.69999992847,gold,1000,I,m,m,None,679,480.0,199.0,99,1,2211.399999976158,211721.29999995232,7173,gold,NF,C,210558,210558,208828,209841,208829,211040,210358,210358,211040,32
32,test,1,inc,1,z,Tue Jul 29 2025 17:21:50 GMT-0500 (Central Daylight Time),216615.69999992847,lead,1100,I,z,z,None,1036,837.0,199.0,64,1,2669.5,213946.19999992847,7173,plum,NF,C,212874,212874,211053,212157,211054,213723,212674,212674,213723,33
33,test,1,inc,1,z,Tue Jul 29 2025 17:21:50 GMT-0500 (Central Daylight Time),218548.19999992847,bronze,800,I,z,z,None,573,374.0,199.0,29,1,1911.8999999761581,216636.29999995232,7173,raisin,NF,C,215273,215273,213743,214556,213745,215655,215073,215073,215655,34
34,test,1,con,1,m,Tue Jul 29 2025 17:21:50 GMT-0500 (Central Daylight Time),220664.69999992847,gold,900,I,m,m,None,652,453.0,199.0,98,1,2097.0,218567.69999992847,7173,gold,NF,C,217306,217306,215675,216589,215676,217772,217106,217106,217772,35
35,test,1,inc,1,m,Tue Jul 29 2025 17:21:50 GMT-0500 (Central Daylight Time),223030.19999992847,raisin,1100,I,m,m,None,712,513.0,199.0,80,1,2345.6999999284744,220684.5,7173,copper,NF,C,219622,219622,217792,218905,217793,220137,219422,219422,220137,36
36,test,1,con,1,m,Tue Jul 29 2025 17:21:50 GMT-0500 (Central Daylight Time),225079.5,zinc,800,I,m,m,None,695,495.0,200.0,113,1,2031.3000000715256,223048.19999992847,7173,zinc,NF,C,221688,221688,220155,220971,220156,222187,221487,221487,222187,37
37,test,1,inc,1,z,Tue Jul 29 2025 17:21:50 GMT-0500 (Central Daylight Time),227312.09999990463,cobalt,1100,I,z,z,None,577,378.0,199.0,8,1,2212.5999999046326,225099.5,7173,banana,NF,C,224037,224037,222207,223320,222208,224419,223837,223837,224419,38
38,test,1,con,1,z,Tue Jul 29 2025 17:21:50 GMT-0500 (Central Daylight Time),229378.0,kiwi,1000,I,z,z,None,510,311.0,199.0,51,1,2046.6000000238419,227331.39999997616,7173,kiwi,NF,C,226168,226168,224438,225453,224439,226485,225969,225969,226485,39
39,test,1,con,1,z,Tue Jul 29 2025 17:21:50 GMT-0500 (Central Daylight Time),231427.59999990463,pear,900,I,z,z,None,584,384.0,200.0,42,1,2032.3999999761581,229395.19999992847,7173,pear,NF,C,228135,228135,226502,227419,226503,228535,227935,227935,228535,40
40,test,1,con,1,m,Tue Jul 29 2025 17:21:50 GMT-0500 (Central Daylight Time),233528.0,zinc,900,I,m,m,None,653,438.0,215.0,114,1,2081.3000000715256,231446.69999992847,7173,zinc,NF,C,230185,230185,228554,229468,228555,230635,229969,229969,230635,41
41,test,1,inc,1,m,Tue Jul 29 2025 17:21:50 GMT-0500 (Central Daylight Time),235759.29999995232,cherry,900,I,m,m,None,770,571.0,199.0,78,1,2211.899999976158,233547.39999997616,7173,copper,NF,C,232284,232284,230654,231568,230655,232866,232084,232084,232866,42
42,test,1,inc,1,m,Tue Jul 29 2025 17:21:50 GMT-0500 (Central Daylight Time),237925.39999997616,banana,800,I,m,m,None,815,615.0,200.0,93,1,2146.2000000476837,235779.19999992847,7173,cobalt,NF,C,234417,234417,232886,233700,232887,235032,234216,234216,235032,43
43,test,1,con,1,z,Tue Jul 29 2025 17:21:50 GMT-0500 (Central Daylight Time),239908.0,orange,900,I,z,z,None,523,324.0,199.0,18,1,1964.5,237943.5,7173,orange,NF,C,236683,236683,235051,235966,235051,237015,236483,236483,237015,44
44,test,1,inc,1,z,Tue Jul 29 2025 17:21:50 GMT-0500 (Central Daylight Time),241907.5,gold,800,I,z,z,None,642,443.0,199.0,37,1,1982.0,239925.5,7173,lime,NF,C,238565,238565,237033,237849,237033,239015,238365,238365,239014,45
45,test,1,con,1,m,Tue Jul 29 2025 17:21:50 GMT-0500 (Central Daylight Time),244239.89999997616,lead,900,I,m,m,None,878,678.0,200.0,122,1,2311.899999976158,241928.0,7173,lead,NF,C,240664,240665,239035,239948,239036,241347,240464,240464,241347,46
46,test,1,con,1,z,Tue Jul 29 2025 17:21:50 GMT-0500 (Central Daylight Time),246589.09999990463,pear,1000,I,z,z,None,789,590.0,199.0,43,1,2327.899999976158,244261.19999992847,7173,pear,NF,C,243097,243097,241368,242381,241369,243696,242897,242897,243696,47
47,test,1,inc,1,m,Tue Jul 29 2025 17:21:50 GMT-0500 (Central Daylight Time),248838.19999992847,cherry,900,I,m,m,None,797,597.0,200.0,86,1,2229.600000023842,246608.59999990463,7173,silver,NF,C,245346,245346,243716,244630,243717,245945,245146,245146,245945,48
48,test,1,con,1,m,Tue Jul 29 2025 17:21:50 GMT-0500 (Central Daylight Time),251170.29999995232,cobalt,1100,I,m,m,None,665,466.0,199.0,92,1,2311.7000000476837,248858.59999990463,7173,cobalt,NF,C,247796,247796,245966,247078,245967,248277,247596,247596,248277,49
48,test,1,con,0,z,Tue Jul 29 2025 17:21:50 GMT-0500 (Central Daylight Time),253303.79999995232,raisin,1100,I,m,m,None,488,288.0,200.0,28,1,2124.2999999523163,251179.5,7173,raisin,NF,C,250112,250112,248287,249395,248287,250411,249911,249911,250411,50
49,test,1,con,1,z,Tue Jul 29 2025 17:21:50 GMT-0500 (Central Daylight Time),255319.69999992847,cherry,1000,I,z,z,None,454,254.0,200.0,11,1,1996.1999999284744,253323.5,7173,cherry,NF,C,252161,252161,250431,251445,250432,252427,251960,251960,252427,51
50,test,1,inc,1,z,Tue Jul 29 2025 17:21:50 GMT-0500 (Central Daylight Time),257252.39999997616,bronze,800,I,z,z,None,582,383.0,199.0,13,1,1913.3000000715256,255339.09999990463,7173,cherry,NF,C,253960,253960,252446,253259,252447,254359,253760,253760,254359,52
51,test,1,con,1,z,Tue Jul 29 2025 17:21:50 GMT-0500 (Central Daylight Time),259351.69999992847,lime,800,I,z,z,None,744,545.0,199.0,33,1,2080.5,257271.19999992847,7173,lime,NF,C,255910,255910,254378,255193,254379,256459,255710,255710,256459,53
52,test,1,inc,1,z,Tue Jul 29 2025 17:21:50 GMT-0500 (Central Daylight Time),261301.0,iron,900,I,z,z,None,489,290.0,199.0,38,1,1930.2000000476837,259370.79999995232,7173,lime,NF,C,258109,258109,256478,257392,256479,258408,257909,257909,258408,54
53,test,1,inc,1,m,Tue Jul 29 2025 17:21:50 GMT-0500 (Central Daylight Time),263266.89999997616,lime,800,I,m,m,None,601,401.0,200.0,101,1,1946.8000000715256,261320.09999990463,7173,gold,NF,C,259958,259958,258427,259242,258428,260374,259758,259758,260374,55
54,test,1,inc,1,z,Tue Jul 29 2025 17:21:50 GMT-0500 (Central Daylight Time),265566.2999999523,cobalt,1100,I,z,z,None,639,440.0,199.0,32,1,2280.0,263286.2999999523,7173,raisin,NF,C,262224,262224,260393,261507,260394,262674,262024,262024,262673,56
55,test,1,con,1,m,Tue Jul 29 2025 17:21:50 GMT-0500 (Central Daylight Time),267615.2999999523,copper,800,I,m,m,None,696,496.0,200.0,73,1,2029.0,265586.2999999523,7173,copper,NF,C,264223,264223,262693,263507,262695,264722,264023,264023,264722,57
56,test,1,inc,1,z,Tue Jul 29 2025 17:21:50 GMT-0500 (Central Daylight Time),269698.2999999523,copper,900,I,z,z,None,634,435.0,199.0,14,1,2061.899999976158,267636.39999997616,7173,cherry,NF,C,266356,266356,264743,265655,264745,266805,266156,266156,266805,58
57,test,1,con,1,m,Tue Jul 29 2025 17:21:50 GMT-0500 (Central Daylight Time),272047.59999990463,zinc,1100,I,m,m,None,695,496.0,199.0,116,1,2328.5,269719.09999990463,7173,zinc,NF,C,268655,268655,266826,267939,266827,269155,268455,268455,269155,59
58,test,1,con,1,m,Tue Jul 29 2025 17:21:50 GMT-0500 (Central Daylight Time),274130.0,iron,900,I,m,m,None,634,435.0,199.0,106,1,2063.4000000953674,272066.59999990463,7173,iron,NF,C,270788,270788,269174,270087,269175,271237,270588,270588,271237,60
59,test,1,inc,1,m,Tue Jul 29 2025 17:21:50 GMT-0500 (Central Daylight Time),276596.09999990463,kiwi,1000,I,m,m,None,900,701.0,199.0,119,1,2446.5999999046326,274149.5,7173,zinc,NF,C,272987,272987,271257,272270,271258,273703,272787,272787,273703,61
60,test,1,con,1,m,Tue Jul 29 2025 17:21:50 GMT-0500 (Central Daylight Time),278978.39999997616,lead,1000,I,m,m,None,825,626.0,199.0,123,1,2364.5,276613.89999997616,7173,lead,NF,C,275453,275453,273721,274737,273722,276086,275253,275253,276085,62
61,test,1,inc,1,m,Tue Jul 29 2025 17:21:50 GMT-0500 (Central Daylight Time),281094.5,pear,900,I,m,m,None,663,464.0,199.0,118,1,2097.4000000953674,278997.09999990463,7173,zinc,NF,C,277735,277735,276104,277019,276105,278202,277536,277536,278202,63
62,test,1,inc,1,z,Tue Jul 29 2025 17:21:50 GMT-0500 (Central Daylight Time),283310.5,silver,1000,I,z,z,None,654,455.0,199.0,31,1,2197.600000023842,281112.89999997616,7173,raisin,NF,C,279951,279952,278220,279235,278220,280418,279752,279752,280418,64
63,test,1,con,1,m,Tue Jul 29 2025 17:21:50 GMT-0500 (Central Daylight Time),285409.89999997616,bronze,900,I,m,m,None,635,435.0,200.0,66,1,2080.5,283329.39999997616,7173,bronze,NF,C,282068,282068,280436,281351,280437,282517,281867,281867,282517,65
64,test,1,con,1,z,Tue Jul 29 2025 17:21:50 GMT-0500 (Central Daylight Time),287309.1999999285,kiwi,900,I,z,z,None,440,241.0,199.0,50,1,1879.5,285429.6999999285,7173,kiwi,NF,C,284167,284167,282537,283450,282538,284416,283967,283967,284416,66
65,test,1,con,1,m,Tue Jul 29 2025 17:21:50 GMT-0500 (Central Daylight Time),289575.09999990463,gold,1100,I,m,m,None,611,396.0,215.0,100,1,2246.899999976158,287328.1999999285,7173,gold,NF,C,286283,286283,284435,285550,284436,286682,286066,286067,286682,67
66,test,1,inc,1,z,Tue Jul 29 2025 17:21:50 GMT-0500 (Central Daylight Time),291891.1999999285,lead,1100,I,z,z,None,650,451.0,199.0,40,1,2297.2999999523163,289593.89999997616,7173,lime,NF,C,288532,288532,286701,287815,286702,288998,288332,288332,288998,68
67,test,1,con,1,m,Tue Jul 29 2025 17:21:50 GMT-0500 (Central Daylight Time),294073.6999999285,silver,900,I,m,m,None,726,527.0,199.0,82,1,2162.1999999284744,291911.5,7173,silver,NF,C,290648,290648,289019,289932,289020,291181,290448,290448,291181,69
68,test,1,con,1,z,Tue Jul 29 2025 17:21:50 GMT-0500 (Central Daylight Time),296339.5,raisin,800,I,z,z,None,899,700.0,199.0,25,1,2244.9000000953674,294094.59999990463,7173,raisin,NF,C,292731,292731,291202,292014,291203,293447,292531,292531,293446,70
69,test,1,con,1,z,Tue Jul 29 2025 17:21:50 GMT-0500 (Central Daylight Time),298789.59999990463,banana,1100,I,z,z,None,798,599.0,199.0,4,1,2430.7999999523163,296358.7999999523,7173,banana,NF,C,295297,295297,293466,294580,293467,295897,295097,295097,295897,71
70,test,1,con,1,z,Tue Jul 29 2025 17:21:50 GMT-0500 (Central Daylight Time),300821.2999999523,orange,1000,I,z,z,None,480,281.0,199.0,19,1,2012.2000000476837,298809.09999990463,7173,orange,NF,C,297646,297646,295916,296929,295917,297928,297446,297446,297928,72
71,test,1,con,1,m,Tue Jul 29 2025 17:21:50 GMT-0500 (Central Daylight Time),302770.59999990463,iron,800,I,m,m,None,592,393.0,199.0,105,1,1931.7999999523163,300838.7999999523,7173,iron,NF,C,299478,299478,297946,298762,297946,299878,299278,299279,299878,73
72,test,1,con,1,m,Tue Jul 29 2025 17:21:50 GMT-0500 (Central Daylight Time),304687.7999999523,cobalt,900,I,m,m,None,462,263.0,199.0,90,1,1898.7999999523163,302789.0,7173,cobalt,NF,C,301528,301528,299896,300811,299897,301795,301328,301328,301795,74
73,test,1,con,1,z,Tue Jul 29 2025 17:21:50 GMT-0500 (Central Daylight Time),306736.1999999285,orange,800,I,z,z,None,686,487.0,199.0,17,1,2029.6000000238419,304706.59999990463,7173,orange,NF,C,303344,303344,301814,302627,301815,303843,303144,303144,303843,75
74,test,1,con,1,m,Tue Jul 29 2025 17:21:50 GMT-0500 (Central Daylight Time),308785.5,bronze,800,I,m,m,None,693,493.0,200.0,65,1,2030.5,306755.0,7173,bronze,NF,C,305394,305394,303862,304677,303863,305893,305193,305193,305893,76
75,test,1,con,1,z,Tue Jul 29 2025 17:21:50 GMT-0500 (Central Daylight Time),311001.1999999285,banana,900,I,z,z,None,753,554.0,199.0,2,1,2196.7999999523163,308804.39999997616,7173,banana,NF,C,307542,307542,305911,306826,305913,308108,307343,307343,308108,77
76,test,1,con,1,z,Tue Jul 29 2025 17:21:50 GMT-0500 (Central Daylight Time),313150.6999999285,cherry,900,I,z,z,None,688,489.0,199.0,10,1,2130.399999976158,311020.2999999523,7173,cherry,NF,C,309758,309758,308127,309042,308128,310258,309559,309559,310258,78
77,test,1,con,1,m,Tue Jul 29 2025 17:21:50 GMT-0500 (Central Daylight Time),315149.6999999285,bronze,1000,I,m,m,None,446,247.0,199.0,67,1,1979.5,313170.1999999285,7173,bronze,NF,C,312008,312008,310277,311291,310279,312257,311808,311808,312257,79
78,test,1,inc,1,z,Tue Jul 29 2025 17:21:50 GMT-0500 (Central Daylight Time),317535.39999997616,cobalt,1100,I,z,z,None,725,525.0,200.0,16,1,2365.2000000476837,315170.1999999285,7173,cherry,NF,C,314107,314107,312277,313390,312278,314643,313907,313907,314642,80
79,test,1,inc,1,z,Tue Jul 29 2025 17:21:50 GMT-0500 (Central Daylight Time),319531.09999990463,gold,800,I,z,z,None,641,442.0,199.0,61,1,1978.1999999284744,317552.89999997616,7173,plum,NF,C,316188,316188,314660,315472,314660,316638,315989,315989,316638,81
80,test,1,inc,1,z,Tue Jul 29 2025 17:21:50 GMT-0500 (Central Daylight Time),321647.89999997616,copper,900,I,z,z,None,671,471.0,200.0,22,1,2110.5,319537.39999997616,7173,orange,NF,C,318273,318273,316644,317556,316645,318755,318072,318072,318755,82
81,test,1,inc,1,z,Tue Jul 29 2025 17:21:50 GMT-0500 (Central Daylight Time),323847.1999999285,lead,1100,I,z,z,None,537,338.0,199.0,48,1,2179.100000023842,321668.09999990463,7173,pear,NF,C,320605,320605,318775,319888,318776,320954,320405,320405,320954,83
82,test,1,inc,1,m,Tue Jul 29 2025 17:21:50 GMT-0500 (Central Daylight Time),325963.1999999285,plum,1100,I,m,m,None,457,242.0,215.0,128,1,2096.6999999284744,323866.5,7173,lead,NF,C,322821,322821,320974,322087,320975,323070,322605,322605,323070,84
83,test,1,inc,1,m,Tue Jul 29 2025 17:21:50 GMT-0500 (Central Daylight Time),328278.5,orange,1000,I,m,m,None,753,554.0,199.0,95,1,2297.8000000715256,325980.6999999285,7173,cobalt,NF,C,324820,324820,323088,324104,323088,325386,324620,324620,325386,85
84,test,1,con,1,m,Tue Jul 29 2025 17:21:50 GMT-0500 (Central Daylight Time),330211.6999999285,iron,1000,I,m,m,None,383,183.0,200.0,107,1,1928.2999999523163,328283.39999997616,7173,iron,NF,C,327120,327120,325390,326402,325391,327319,326918,326919,327319,86
85,test,1,con,1,m,Tue Jul 29 2025 17:21:50 GMT-0500 (Central Daylight Time),332227.89999997616,gold,800,I,m,m,None,658,459.0,199.0,97,1,1997.5,330230.39999997616,7173,gold,NF,C,328869,328869,327337,328153,327339,329335,328669,328669,329335,87
86,test,1,con,1,m,Tue Jul 29 2025 17:21:50 GMT-0500 (Central Daylight Time),334393.5,cobalt,1000,I,m,m,None,601,402.0,199.0,91,1,2146.8000000715256,332246.6999999285,7173,cobalt,NF,C,331085,331085,329354,330369,329355,331501,330885,330885,331501,88
87,test,1,inc,1,m,Tue Jul 29 2025 17:21:50 GMT-0500 (Central Daylight Time),336477.0,pear,900,I,m,m,None,631,432.0,199.0,126,1,2063.9000000953674,334413.09999990463,7173,lead,NF,C,333151,333151,331520,332434,331521,333584,332951,332951,333584,89
88,test,1,inc,1,z,Tue Jul 29 2025 17:21:50 GMT-0500 (Central Daylight Time),338541.5,copper,900,I,z,z,None,604,404.0,200.0,30,1,2044.5,336497.0,7173,raisin,NF,C,335234,335234,333604,334517,333605,335649,335033,335033,335648,90
88,test,1,inc,0,z,Tue Jul 29 2025 17:21:50 GMT-0500 (Central Daylight Time),340441.59999990463,iron,900,I,m,m,None,463,264.0,199.0,46,1,1894.3999999761581,338547.1999999285,7173,pear,NF,C,337283,337283,335654,336566,335655,337549,337083,337083,337549,91
89,test,1,inc,1,z,Tue Jul 29 2025 17:21:50 GMT-0500 (Central Daylight Time),342440.89999997616,copper,900,I,z,z,None,545,330.0,215.0,6,1,1979.6000000238419,340461.2999999523,7173,banana,NF,C,339214,339214,337568,338482,337569,339548,338999,338999,339548,92
90,test,1,inc,1,m,Tue Jul 29 2025 17:21:50 GMT-0500 (Central Daylight Time),345423.5,kiwi,1000,I,m,m,None,1429,1229.0,200.0,103,1,2962.2000000476837,342461.2999999523,7173,gold,NF,C,341298,341298,339568,340582,339569,342531,341098,341098,342531,93
91,test,1,inc,1,z,Tue Jul 29 2025 17:21:50 GMT-0500 (Central Daylight Time),347289.5,gold,800,I,z,z,None,502,303.0,199.0,53,1,1845.8000000715256,345443.6999999285,7173,kiwi,NF,C,344080,344080,342551,343364,342552,344397,343881,343881,344397,94
92,test,1,inc,1,m,Tue Jul 29 2025 17:21:50 GMT-0500 (Central Daylight Time),349489.0,raisin,1100,I,m,m,None,535,336.0,199.0,88,1,2180.9000000953674,347308.09999990463,7173,silver,NF,C,346247,346247,344415,345531,344416,346596,346047,346047,346596,95
93,test,1,inc,1,m,Tue Jul 29 2025 17:21:50 GMT-0500 (Central Daylight Time),351821.2999999523,plum,1100,I,m,m,None,672,473.0,199.0,112,1,2313.100000023842,349508.1999999285,7173,iron,NF,C,348446,348446,346615,347729,346616,348928,348246,348246,348928,96
94,test,1,con,1,m,Tue Jul 29 2025 17:21:50 GMT-0500 (Central Daylight Time),354753.7999999523,silver,800,I,m,m,None,1569,1370.0,199.0,81,1,2912.600000023842,351841.1999999285,7173,silver,NF,C,350478,350478,348948,349762,348949,351861,350278,350279,351861,97
95,test,1,inc,1,m,Tue Jul 29 2025 17:21:50 GMT-0500 (Central Daylight Time),356836.39999997616,cherry,900,I,m,m,None,615,416.0,199.0,94,1,2063.8000000715256,354772.59999990463,7173,cobalt,NF,C,353511,353511,351880,352794,351881,353944,353311,353311,353943,98
96,test,1,inc,1,z,Tue Jul 29 2025 17:21:50 GMT-0500 (Central Daylight Time),358885.7999999523,silver,1000,I,z,z,None,489,289.0,200.0,15,1,2029.7999999523163,356856.0,7173,cherry,NF,C,355694,355694,353963,354977,353964,355993,355493,355493,355993,99
97,test,1,inc,1,m,Tue Jul 29 2025 17:21:50 GMT-0500 (Central Daylight Time),360785.09999990463,banana,800,I,m,m,None,543,344.0,199.0,77,1,1880.5999999046326,358904.5,7173,copper,NF,C,357543,357543,356012,356826,356013,357892,357343,357343,357892,100
98,test,1,con,1,z,Tue Jul 29 2025 17:21:50 GMT-0500 (Central Daylight Time),363134.39999997616,raisin,1000,I,z,z,None,788,589.0,199.0,27,1,2329.0,360805.39999997616,7173,raisin,NF,C,359642,359642,357912,358925,357914,360241,359442,359442,360241,101
99,test,1,inc,1,z,Tue Jul 29 2025 17:21:50 GMT-0500 (Central Daylight Time),365183.6999999285,iron,900,I,z,z,None,596,396.0,200.0,62,1,2030.6000000238419,363153.09999990463,7173,plum,NF,C,361892,361892,360260,361175,360261,362291,361691,361691,362291,102
100,test,1,con,1,z,Tue Jul 29 2025 17:21:50 GMT-0500 (Central Daylight Time),367698.6999999285,pear,1100,I,z,z,None,857,658.0,199.0,44,1,2495.0,365203.6999999285,7173,pear,NF,C,364140,364141,362311,363424,362312,364806,363941,363941,364806,103
101,test,1,con,1,z,Tue Jul 29 2025 17:21:50 GMT-0500 (Central Daylight Time),369482.2999999523,plum,800,I,z,z,None,442,243.0,199.0,57,1,1774.1000000238419,367708.1999999285,7173,plum,NF,C,366340,366340,364815,365623,364816,366589,366140,366140,366589,104
102,test,1,inc,1,m,Tue Jul 29 2025 17:21:50 GMT-0500 (Central Daylight Time),371564.89999997616,cherry,900,I,m,m,None,624,424.0,200.0,70,1,2062.399999976158,369502.5,7173,bronze,NF,C,368239,368239,366610,367523,366611,368672,368039,368039,368672,105
103,test,1,con,1,z,Tue Jul 29 2025 17:21:50 GMT-0500 (Central Daylight Time),373914.5,kiwi,1100,I,z,z,None,692,493.0,199.0,52,1,2330.5,371584.0,7173,kiwi,NF,C,370522,370522,368691,369805,368692,371022,370322,370322,371022,106
104,test,1,inc,1,m,Tue Jul 29 2025 17:21:50 GMT-0500 (Central Daylight Time),376112.6999999285,kiwi,1000,I,m,m,None,634,435.0,199.0,111,1,2178.7999999523163,373933.89999997616,7173,iron,NF,C,372771,372771,371041,372054,371042,373220,372571,372571,373220,107
105,test,1,con,1,z,Tue Jul 29 2025 17:21:50 GMT-0500 (Central Daylight Time),378395.89999997616,orange,1100,I,z,z,None,632,433.0,199.0,20,1,2277.600000023842,376118.2999999523,7173,orange,NF,C,375054,375054,373225,374337,373226,375503,374854,374854,375503,108
106,test,1,con,1,z,Tue Jul 29 2025 17:21:50 GMT-0500 (Central Daylight Time),380411.89999997616,plum,900,I,z,z,None,557,358.0,199.0,58,1,1996.3000000715256,378415.59999990463,7173,plum,NF,C,377153,377153,375523,376437,375524,377519,376953,376953,377519,109
107,test,1,inc,1,m,Tue Jul 29 2025 17:21:50 GMT-0500 (Central Daylight Time),382561.2999999523,plum,1100,I,m,m,None,486,287.0,199.0,120,1,2129.2999999523163,380432.0,7173,zinc,NF,C,379369,379369,377539,378652,377540,379668,379169,379169,379668,110
108,test,1,con,1,z,Tue Jul 29 2025 17:21:50 GMT-0500 (Central Daylight Time),384644.2999999523,cherry,1100,I,z,z,None,415,200.0,215.0,12,1,2063.600000023842,382580.6999999285,7173,cherry,NF,C,381535,381535,379688,380802,379689,381751,381319,381319,381751,111
109,test,1,con,1,z,Tue Jul 29 2025 17:21:50 GMT-0500 (Central Daylight Time),386526.5,lime,900,I,z,z,None,431,231.0,200.0,34,1,1863.3000000715256,384663.1999999285,7173,lime,NF,C,383401,383401,381770,382684,381771,383634,383201,383201,383633,112
110,test,1,con,1,m,Tue Jul 29 2025 17:21:50 GMT-0500 (Central Daylight Time),388792.59999990463,iron,1100,I,m,m,None,603,403.0,200.0,108,1,2247.5,386545.09999990463,7173,iron,NF,C,385483,385484,383652,384767,383653,385900,385283,385283,385900,113
111,test,1,con,1,m,Tue Jul 29 2025 17:21:50 GMT-0500 (Central Daylight Time),391257.89999997616,silver,1100,I,m,m,None,808,609.0,199.0,84,1,2446.3000000715256,388811.59999990463,7173,silver,NF,C,387750,387750,385919,387033,385920,388365,387550,387550,388365,114
112,test,1,inc,1,z,Tue Jul 29 2025 17:21:50 GMT-0500 (Central Daylight Time),393424.5,silver,1000,I,z,z,None,620,420.0,200.0,23,1,2157.100000023842,391267.39999997616,7173,orange,NF,C,390099,390099,388374,389382,388375,390532,389899,389899,390532,115
113,test,1,inc,1,m,Tue Jul 29 2025 17:21:50 GMT-0500 (Central Daylight Time),395723.6999999285,lime,800,I,m,m,None,941,742.0,199.0,117,1,2279.600000023842,393444.09999990463,7173,zinc,NF,C,392081,392081,390551,391365,390552,392831,391882,391882,392831,116
114,test,1,con,1,z,Tue Jul 29 2025 17:21:50 GMT-0500 (Central Daylight Time),397806.5,kiwi,800,I,z,z,None,730,531.0,199.0,49,1,2063.4000000953674,395743.09999990463,7173,kiwi,NF,C,394380,394381,392850,393665,392851,394914,394181,394181,394914,117
115,test,1,con,1,m,Tue Jul 29 2025 17:21:50 GMT-0500 (Central Daylight Time),399939.09999990463,lead,800,I,m,m,None,767,567.0,200.0,121,1,2113.1999999284744,397825.89999997616,7173,lead,NF,C,396464,396464,394933,395747,394934,397046,396263,396263,397046,118
116,test,1,inc,1,z,Tue Jul 29 2025 17:21:50 GMT-0500 (Central Daylight Time),402221.5,iron,900,I,z,z,None,822,623.0,199.0,54,1,2263.8000000715256,399957.6999999285,7173,kiwi,NF,C,398696,398696,397065,397979,397066,399329,398496,398496,399329,119
117,test,1,inc,1,z,Tue Jul 29 2025 17:21:50 GMT-0500 (Central Daylight Time),404637.6999999285,lead,1100,I,z,z,None,757,557.0,200.0,56,1,2396.600000023842,402241.09999990463,7173,kiwi,NF,C,401178,401178,399348,400462,399349,401745,400978,400978,401745,120
118,test,1,con,1,m,Tue Jul 29 2025 17:21:50 GMT-0500 (Central Daylight Time),406953.2999999523,copper,900,I,m,m,None,860,660.0,200.0,74,1,2296.0,404657.2999999523,7173,copper,NF,C,403395,403395,401764,402678,401765,404060,403194,403194,404060,121
119,test,1,con,1,m,Tue Jul 29 2025 17:21:50 GMT-0500 (Central Daylight Time),409435.7999999523,bronze,1100,I,m,m,None,825,626.0,199.0,68,1,2463.899999976158,406971.89999997616,7173,bronze,NF,C,405910,405910,404079,405195,404080,406543,405711,405711,406543,122
120,test,1,con,1,z,Tue Jul 29 2025 17:21:50 GMT-0500 (Central Daylight Time),411901.5,lime,1100,I,z,z,None,814,615.0,199.0,36,1,2447.100000023842,409454.39999997616,7173,lime,NF,C,408393,408393,406561,407677,406562,409009,408193,408193,409009,123
121,test,1,inc,1,z,Tue Jul 29 2025 17:21:50 GMT-0500 (Central Daylight Time),414167.59999990463,zinc,1000,I,z,z,None,703,504.0,199.0,39,1,2246.899999976158,411920.6999999285,7173,lime,NF,C,410759,410759,409028,410042,409029,411275,410559,410559,411275,124
122,test,1,con,1,z,Tue Jul 29 2025 17:21:50 GMT-0500 (Central Daylight Time),415967.0,banana,800,I,z,z,None,445,246.0,199.0,1,1,1781.0,414186.0,7173,banana,NF,C,412825,412825,411293,412108,411294,413074,412625,412625,413074,125
123,test,1,inc,1,m,Tue Jul 29 2025 17:21:50 GMT-0500 (Central Daylight Time),417966.1999999285,banana,800,I,m,m,None,647,447.0,200.0,69,1,1979.6000000238419,415986.59999990463,7173,bronze,NF,C,414624,414624,413094,413907,413094,415073,414424,414424,415073,126
124,test,1,inc,1,m,Tue Jul 29 2025 17:21:50 GMT-0500 (Central Daylight Time),420282.2999999523,raisin,1100,I,m,m,None,653,453.0,200.0,96,1,2296.2999999523163,417986.0,7173,cobalt,NF,C,416923,416923,415093,416207,415094,417389,416723,416723,417389,127
125,test,1,inc,1,m,Tue Jul 29 2025 17:21:50 GMT-0500 (Central Daylight Time),422597.39999997616,banana,800,I,m,m,None,954,754.0,200.0,85,1,2294.8000000715256,420302.59999990463,7173,silver,NF,C,418939,418940,417410,418223,417411,419705,418739,418739,419704,128
