acc_sum,block,block_c,condition,correct,correct_response,datetime,endtime,flanker,jitter,project,response,response_test_buffer_response,response_test_target_response,response_time,response_time_test_buffer_response,response_time_test_target_response,row_sel,session_number,start_end,starttime,subject_id,target,task,task_vers,time_test_buffer,time_test_buffer_response,time_test_constants,time_test_flanker,time_test_jitter,time_test_logger,time_test_target,time_test_target_response,time_test_variables,trial
0,prac,1,inc,0,z,Fri May 09 2025 09:38:56 GMT-0500 (Central Daylight Time),150997.90000000596,napkin,1100,O,None,,,1799,,,12,1,5160.70000000298,145837.20000000298,7140,friend,AF,C,,,,,,,,,,1
1,prac,1,inc,1,m,Fri May 09 2025 09:38:56 GMT-0500 (Central Daylight Time),153897.20000000298,kind,900,O,m,,,684,,,2,1,2894.5,151002.70000000298,7140,rock,AF,C,,,,,,,,,,2
2,prac,1,inc,1,z,Fri May 09 2025 09:38:56 GMT-0500 (Central Daylight Time),156862.60000000894,film,900,O,z,,,760,,,14,1,2961.0,153901.60000000894,7140,hate,AF,C,,,,,,,,,,3
3,prac,1,con,1,z,Fri May 09 2025 09:38:56 GMT-0500 (Central Daylight Time),159745.10000000894,rage,1000,O,z,,,566,,,15,1,2878.0,156867.10000000894,7140,rage,AF,C,,,,,,,,,,4
4,prac,1,inc,1,z,Fri May 09 2025 09:38:56 GMT-0500 (Central Daylight Time),162844.20000000298,window,1100,O,z,,,688,,,16,1,3094.5,159749.70000000298,7140,temper,AF,C,,,,,,,,,,5
5,prac,1,inc,1,m,Fri May 09 2025 09:38:56 GMT-0500 (Central Daylight Time),165660.0,elated,900,O,m,,,612,,,6,1,2811.5,162848.5,7140,napkin,AF,C,,,,,,,,,,6
6,prac,1,inc,1,z,Fri May 09 2025 09:38:56 GMT-0500 (Central Daylight Time),168675.90000000596,rock,900,O,z,,,805,,,10,1,3011.2999999970198,165664.60000000894,7140,kind,AF,C,,,,,,,,,,7
7,prac,1,con,1,m,Fri May 09 2025 09:38:56 GMT-0500 (Central Daylight Time),171541.29999999702,bell,1000,O,m,,,561,,,3,1,2861.199999988079,168680.10000000894,7140,bell,AF,C,,,,,,,,,,8
7,prac,1,inc,0,m,Fri May 09 2025 09:38:56 GMT-0500 (Central Daylight Time),174540.40000000596,brutal,1100,O,z,,,587,,,8,1,2994.6000000089407,171545.79999999702,7140,window,AF,C,,,,,,,,,,9
8,prac,1,con,1,z,Fri May 09 2025 09:38:56 GMT-0500 (Central Daylight Time),177406.5,elated,800,O,z,,,759,,,9,1,2861.5999999940395,174544.90000000596,7140,elated,AF,C,,,,,,,,,,10
9,prac,1,inc,1,m,Fri May 09 2025 09:38:56 GMT-0500 (Central Daylight Time),180305.29999999702,hate,1100,O,m,,,500,,,4,1,2893.5999999940395,177411.70000000298,7140,film,AF,C,,,,,,,,,,11
10,prac,1,con,1,z,Fri May 09 2025 09:38:56 GMT-0500 (Central Daylight Time),183121.10000000894,love,1000,O,z,,,506,,,11,1,2811.0,180310.10000000894,7140,love,AF,C,,,,,,,,,,12
11,prac,1,con,1,z,Fri May 09 2025 09:38:56 GMT-0500 (Central Daylight Time),186636.60000000894,brutal,800,O,z,,,1403,,,13,1,3511.5,183125.10000000894,7140,brutal,AF,C,,,,,,,,,,13
12,prac,1,con,1,m,Fri May 09 2025 09:38:56 GMT-0500 (Central Daylight Time),189619.29999999702,step,800,O,m,,,872,,,1,1,2978.5,186640.79999999702,7140,step,AF,C,,,,,,,,,,14
13,prac,1,con,1,m,Fri May 09 2025 09:38:56 GMT-0500 (Central Daylight Time),193434.40000000596,remote,1000,O,m,,,1505,,,7,1,3810.9000000059605,189623.5,7140,remote,AF,C,,,,,,,,,,15
14,prac,1,con,1,m,Fri May 09 2025 09:38:56 GMT-0500 (Central Daylight Time),196383.5,jacket,800,O,m,,,834,,,5,1,2944.7999999970198,193438.70000000298,7140,jacket,AF,C,,,,,,,,,,16
1,test,1,inc,1,m,Fri May 09 2025 09:38:56 GMT-0500 (Central Daylight Time),222292.29999999702,brutal,900,O,m,m,None,672,473.0,199.0,102,1,2112.699999988079,220179.60000000894,7140,jacket,AF,C,212798,212798,211169,212082,211169,213281,212599,212599,213281,1
2,test,1,inc,1,z,Fri May 09 2025 09:38:56 GMT-0500 (Central Daylight Time),224308.29999999702,napkin,900,O,z,z,None,573,374.0,199.0,62,1,2011.5,222296.79999999702,7140,temper,AF,C,214914,214914,213286,214198,213286,215297,214715,214715,215297,2
3,test,1,con,1,z,Fri May 09 2025 09:38:56 GMT-0500 (Central Daylight Time),226090.79999999702,rage,800,O,z,z,None,433,233.0,200.0,49,1,1778.5,224312.29999999702,7140,rage,AF,C,216830,216831,215301,216114,215302,217080,216630,216630,217080,3
4,test,1,inc,1,z,Fri May 09 2025 09:38:56 GMT-0500 (Central Daylight Time),228406.70000000298,window,1100,O,z,z,None,671,471.0,200.0,8,1,2311.5,226095.20000000298,7140,elated,AF,C,218913,218913,217084,218197,217085,219396,218713,218713,219396,4
5,test,1,inc,1,m,Fri May 09 2025 09:38:56 GMT-0500 (Central Daylight Time),230306.29999999702,rage,800,O,m,m,None,566,366.0,200.0,77,1,1895.7999999970198,228410.5,7140,rock,AF,C,220929,220929,219400,220213,219400,221295,220729,220729,221295,5
5,test,1,inc,0,z,Fri May 09 2025 09:38:56 GMT-0500 (Central Daylight Time),232588.90000000596,napkin,900,O,m,m,None,846,647.0,199.0,30,1,2278.9000000059605,230310.0,7140,friend,AF,C,222928,222928,221299,222212,221299,223578,222729,222729,223578,6
6,test,1,con,1,z,Fri May 09 2025 09:38:56 GMT-0500 (Central Daylight Time),234604.90000000596,hate,800,O,z,z,None,680,480.0,200.0,41,1,2012.0,232592.90000000596,7140,hate,AF,C,225111,225111,223582,224395,223582,225594,224911,224911,225594,7
7,test,1,con,1,z,Fri May 09 2025 09:38:56 GMT-0500 (Central Daylight Time),236387.70000000298,elated,800,O,z,z,None,440,240.0,200.0,1,1,1778.7000000029802,234609.0,7140,elated,AF,C,227127,227127,225598,226411,225598,227377,226927,226927,227377,8
8,test,1,con,1,m,Fri May 09 2025 09:38:56 GMT-0500 (Central Daylight Time),238436.90000000596,jacket,900,O,m,m,None,614,414.0,200.0,98,1,2045.4000000059605,236391.5,7140,jacket,AF,C,229010,229010,227381,228294,227381,229426,228810,228810,229426,9
9,test,1,con,1,z,Fri May 09 2025 09:38:56 GMT-0500 (Central Daylight Time),240336.40000000596,rage,900,O,z,z,None,451,252.0,199.0,50,1,1895.2999999970198,238441.10000000894,7140,rage,AF,C,231059,231059,229430,230343,229430,231326,230860,230860,231325,10
10,test,1,inc,1,z,Fri May 09 2025 09:38:56 GMT-0500 (Central Daylight Time),243035.40000000596,remote,1000,O,z,z,None,1163,964.0,199.0,31,1,2694.5,240340.90000000596,7140,friend,AF,C,233059,233059,231330,232342,231330,234025,232859,232859,234024,11
11,test,1,con,1,z,Fri May 09 2025 09:38:56 GMT-0500 (Central Daylight Time),244985.10000000894,friend,1000,O,z,z,None,401,201.0,200.0,27,1,1945.7000000029802,243039.40000000596,7140,friend,AF,C,235758,235758,234028,235041,234029,235974,235558,235558,235974,12
12,test,1,inc,1,m,Fri May 09 2025 09:38:56 GMT-0500 (Central Daylight Time),247067.90000000596,kind,900,O,m,m,None,640,441.0,199.0,94,1,2079.1000000089407,244988.79999999702,7140,film,AF,C,237607,237607,235978,236891,235978,238057,237408,237408,238057,13
13,test,1,con,1,z,Fri May 09 2025 09:38:56 GMT-0500 (Central Daylight Time),249766.79999999702,temper,1100,O,z,z,None,1061,862.0,199.0,60,1,2694.8999999910593,247071.90000000596,7140,temper,AF,C,239890,239890,238061,239173,238061,240756,239690,239690,240756,14
14,test,1,con,1,z,Fri May 09 2025 09:38:56 GMT-0500 (Central Daylight Time),251966.20000000298,love,1100,O,z,z,None,555,355.0,200.0,20,1,2195.5999999940395,249770.60000000894,7140,love,AF,C,242589,242589,240760,241873,240760,242955,242389,242389,242955,15
15,test,1,inc,1,m,Fri May 09 2025 09:38:56 GMT-0500 (Central Daylight Time),254298.90000000596,friend,1100,O,m,m,None,684,484.0,200.0,112,1,2328.7999999970198,251970.10000000894,7140,napkin,AF,C,244788,244788,242959,244072,242959,245288,244588,244588,245288,16
16,test,1,con,1,z,Fri May 09 2025 09:38:56 GMT-0500 (Central Daylight Time),256515.0,kind,900,O,z,z,None,782,583.0,199.0,10,1,2211.7999999970198,254303.20000000298,7140,kind,AF,C,246921,246921,245292,246205,245293,247504,246721,246721,247504,17
17,test,1,con,1,z,Fri May 09 2025 09:38:56 GMT-0500 (Central Daylight Time),259014.0,rage,1100,O,z,z,None,862,662.0,200.0,52,1,2494.7999999970198,256519.20000000298,7140,rage,AF,C,249337,249337,247508,248621,247509,250003,249137,249137,250003,18
18,test,1,con,1,m,Fri May 09 2025 09:38:56 GMT-0500 (Central Daylight Time),260947.0,film,1000,O,m,m,None,384,184.0,200.0,91,1,1929.2999999970198,259017.70000000298,7140,film,AF,C,251736,251736,250007,251020,250007,251936,251536,251536,251936,19
19,test,1,con,1,z,Fri May 09 2025 09:38:56 GMT-0500 (Central Daylight Time),262912.700000003,brutal,1000,O,z,z,None,377,174.0,203.0,35,1,1962.0999999940395,260950.60000000894,7140,brutal,AF,C,253722,253722,251940,252952,251940,253902,253519,253519,253902,20
20,test,1,inc,1,m,Fri May 09 2025 09:38:56 GMT-0500 (Central Daylight Time),264878.799999997,rage,800,O,m,m,None,620,421.0,199.0,69,1,1961.699999988079,262917.10000000894,7140,step,AF,C,255435,255435,253906,254719,253907,255868,255235,255235,255868,21
21,test,1,inc,1,m,Fri May 09 2025 09:38:56 GMT-0500 (Central Daylight Time),267261.40000000596,brutal,900,O,m,m,None,946,747.0,199.0,118,1,2377.0,264884.40000000596,7140,remote,AF,C,257501,257501,255873,256784,255874,258251,257301,257301,258250,22
22,test,1,con,1,z,Fri May 09 2025 09:38:56 GMT-0500 (Central Daylight Time),269144.299999997,love,800,O,z,z,None,543,344.0,199.0,17,1,1879.0999999940395,267265.200000003,7140,love,AF,C,259784,259784,258254,259067,258255,260133,259584,259584,260133,23
23,test,1,con,1,m,Fri May 09 2025 09:38:56 GMT-0500 (Central Daylight Time),271393.5,step,1100,O,m,m,None,600,401.0,199.0,68,1,2245.0999999940395,269148.40000000596,7140,step,AF,C,261966,261966,260137,261250,260138,262383,261767,261767,262382,24
24,test,1,con,1,m,Fri May 09 2025 09:38:56 GMT-0500 (Central Daylight Time),273326.200000003,napkin,1000,O,m,m,None,395,196.0,199.0,107,1,1928.9000000059605,271397.299999997,7140,napkin,AF,C,264116,264116,262386,263399,262387,264315,263916,263916,264315,25
25,test,1,con,1,m,Fri May 09 2025 09:38:56 GMT-0500 (Central Daylight Time),275158.90000000596,window,900,O,m,m,None,395,195.0,200.0,122,1,1828.7999999970198,273330.10000000894,7140,window,AF,C,265948,265948,264319,265232,264320,266148,265748,265748,266148,26
26,test,1,inc,1,z,Fri May 09 2025 09:38:56 GMT-0500 (Central Daylight Time),277391.5,window,1100,O,z,z,None,586,386.0,200.0,40,1,2228.5,275163.0,7140,brutal,AF,C,267981,267981,266152,267265,266152,268381,267781,267781,268381,27
27,test,1,inc,1,m,Fri May 09 2025 09:38:56 GMT-0500 (Central Daylight Time),279490.799999997,temper,1000,O,m,m,None,549,350.0,199.0,103,1,2095.3999999910593,277395.40000000596,7140,jacket,AF,C,270114,270114,268384,269397,268385,270480,269914,269914,270480,28
28,test,1,inc,1,m,Fri May 09 2025 09:38:56 GMT-0500 (Central Daylight Time),281607.0,brutal,900,O,m,m,None,671,471.0,200.0,110,1,2112.3999999910593,279494.60000000894,7140,napkin,AF,C,272113,272113,270484,271398,270484,272596,271913,271913,272596,29
29,test,1,con,1,m,Fri May 09 2025 09:38:56 GMT-0500 (Central Daylight Time),283340.799999997,remote,800,O,m,m,None,399,199.0,200.0,113,1,1730.0999999940395,281610.700000003,7140,remote,AF,C,274129,274129,272600,273413,272600,274330,273929,273929,274330,30
30,test,1,con,1,z,Fri May 09 2025 09:38:56 GMT-0500 (Central Daylight Time),285538.90000000596,brutal,1100,O,z,z,None,564,365.0,199.0,36,1,2194.2000000029802,283344.700000003,7140,brutal,AF,C,276162,276162,274334,275446,274334,276528,275962,275962,276528,31
31,test,1,con,1,z,Fri May 09 2025 09:38:56 GMT-0500 (Central Daylight Time),287688.60000000894,friend,1100,O,z,z,None,502,302.0,200.0,28,1,2145.9000000059605,285542.700000003,7140,friend,AF,C,278361,278361,276532,277645,276532,278678,278161,278161,278678,32
32,test,1,con,1,z,Fri May 09 2025 09:38:56 GMT-0500 (Central Daylight Time),289454.10000000894,love,900,O,z,z,None,319,120.0,199.0,18,1,1761.5,287692.60000000894,7140,love,AF,C,280311,280311,278682,279594,278682,280443,280111,280111,280443,33
33,test,1,inc,1,z,Fri May 09 2025 09:38:56 GMT-0500 (Central Daylight Time),291437.299999997,napkin,900,O,z,z,None,554,355.0,199.0,38,1,1979.3999999910593,289457.90000000596,7140,brutal,AF,C,282060,282060,280447,281360,280447,282426,281861,281861,282426,34
34,test,1,inc,1,z,Fri May 09 2025 09:38:56 GMT-0500 (Central Daylight Time),293586.60000000894,rock,900,O,z,z,None,699,500.0,199.0,14,1,2145.6000000089407,291441.0,7140,kind,AF,C,284060,284060,282430,283343,282430,284576,283860,283860,284576,35
35,test,1,con,1,m,Fri May 09 2025 09:38:56 GMT-0500 (Central Daylight Time),295735.700000003,step,900,O,m,m,None,710,511.0,199.0,66,1,2145.0999999940395,293590.60000000894,7140,step,AF,C,286209,286209,284580,285492,284580,286725,286009,286009,286725,36
36,test,1,con,1,m,Fri May 09 2025 09:38:56 GMT-0500 (Central Daylight Time),297751.799999997,rock,1100,O,m,m,None,369,169.0,200.0,76,1,2012.199999988079,295739.60000000894,7140,rock,AF,C,288558,288558,286729,287842,286729,288741,288358,288358,288741,37
37,test,1,inc,1,z,Fri May 09 2025 09:38:56 GMT-0500 (Central Daylight Time),299867.90000000596,remote,1000,O,z,z,None,572,373.0,199.0,63,1,2112.2999999970198,297755.60000000894,7140,temper,AF,C,290474,290474,288745,289758,288745,290857,290274,290274,290857,38
38,test,1,inc,1,z,Fri May 09 2025 09:38:56 GMT-0500 (Central Daylight Time),302200.40000000596,rock,900,O,z,z,None,885,685.0,200.0,46,1,2328.6000000089407,299871.799999997,7140,hate,AF,C,292490,292490,290861,291773,290861,293189,292290,292290,293189,39
39,test,1,con,1,z,Fri May 09 2025 09:38:56 GMT-0500 (Central Daylight Time),304099.700000003,hate,900,O,z,z,None,464,265.0,199.0,42,1,1895.2000000029802,302204.5,7140,hate,AF,C,294823,294823,293194,294106,293194,295089,294623,294623,295089,40
40,test,1,con,1,z,Fri May 09 2025 09:38:56 GMT-0500 (Central Daylight Time),305816.0,kind,800,O,z,z,None,377,177.0,200.0,9,1,1712.5,304103.5,7140,kind,AF,C,296622,296622,295093,295906,295093,296805,296422,296422,296805,41
41,test,1,inc,1,z,Fri May 09 2025 09:38:56 GMT-0500 (Central Daylight Time),307981.700000003,window,1100,O,z,z,None,521,321.0,200.0,32,1,2161.9000000059605,305819.799999997,7140,friend,AF,C,298638,298638,296809,297922,296809,298971,298438,298438,298971,42
42,test,1,inc,1,z,Fri May 09 2025 09:38:56 GMT-0500 (Central Daylight Time),309931.0,rock,900,O,z,z,None,505,294.0,211.0,22,1,1945.0,307986.0,7140,love,AF,C,300617,300617,298975,299888,298975,300920,300406,300406,300920,43
43,test,1,inc,1,z,Fri May 09 2025 09:38:56 GMT-0500 (Central Daylight Time),311864.200000003,step,800,O,z,z,None,584,385.0,199.0,45,1,1929.0999999940395,309935.10000000894,7140,hate,AF,C,302454,302454,300924,301737,300924,302853,302254,302254,302853,44
44,test,1,inc,1,m,Fri May 09 2025 09:38:56 GMT-0500 (Central Daylight Time),313913.40000000596,love,1000,O,m,m,None,509,309.0,200.0,87,1,2045.5,311867.90000000596,7140,bell,AF,C,304586,304586,302857,303870,302857,304902,304386,304386,304902,45
45,test,1,con,1,m,Fri May 09 2025 09:38:56 GMT-0500 (Central Daylight Time),315712.799999997,film,800,O,m,m,None,451,252.0,199.0,89,1,1795.699999988079,313917.10000000894,7140,film,AF,C,306436,306436,304906,305719,304906,306702,306236,306236,306702,46
46,test,1,con,1,z,Fri May 09 2025 09:38:56 GMT-0500 (Central Daylight Time),317395.799999997,brutal,800,O,z,z,None,340,140.0,200.0,33,1,1678.3999999910593,315717.40000000596,7140,brutal,AF,C,308235,308235,306706,307519,306707,308385,308035,308035,308385,47
47,test,1,con,1,m,Fri May 09 2025 09:38:56 GMT-0500 (Central Daylight Time),319111.700000003,window,800,O,m,m,None,378,178.0,200.0,121,1,1712.2999999970198,317399.40000000596,7140,window,AF,C,309918,309918,308388,309202,308389,310101,309718,309718,310101,48
48,test,1,con,1,m,Fri May 09 2025 09:38:56 GMT-0500 (Central Daylight Time),321227.90000000596,window,1100,O,m,m,None,481,281.0,200.0,124,1,2112.5,319115.40000000596,7140,window,AF,C,311934,311934,310104,311218,310105,312217,311734,311734,312217,49
49,test,1,inc,1,m,Fri May 09 2025 09:38:56 GMT-0500 (Central Daylight Time),323443.60000000894,temper,1000,O,m,m,None,682,482.0,200.0,111,1,2212.0,321231.60000000894,7140,napkin,AF,C,313950,313950,312221,313233,312221,314433,313750,313750,314433,50
50,test,1,con,1,m,Fri May 09 2025 09:38:56 GMT-0500 (Central Daylight Time),325326.799999997,rock,900,O,m,m,None,436,237.0,199.0,74,1,1879.5,323447.299999997,7140,rock,AF,C,316066,316066,314436,315349,314437,316316,315867,315867,316316,51
51,test,1,con,1,m,Fri May 09 2025 09:38:56 GMT-0500 (Central Daylight Time),327542.5,remote,1100,O,m,m,None,570,371.0,199.0,116,1,2212.0,325330.5,7140,remote,AF,C,318148,318149,316320,317432,316320,318532,317949,317949,318532,52
52,test,1,con,1,m,Fri May 09 2025 09:38:56 GMT-0500 (Central Daylight Time),329575.40000000596,film,1100,O,m,m,None,403,204.0,199.0,92,1,2029.0,327546.40000000596,7140,film,AF,C,320348,320348,318535,319648,318536,320565,320149,320149,320564,53
52,test,1,con,0,z,Fri May 09 2025 09:38:56 GMT-0500 (Central Daylight Time),331691.299999997,kind,1100,O,m,m,None,474,275.0,199.0,12,1,2111.8999999910593,329579.40000000596,7140,kind,AF,C,322397,322397,320568,321681,320569,322680,322197,322198,322680,54
53,test,1,con,1,m,Fri May 09 2025 09:38:56 GMT-0500 (Central Daylight Time),333607.5,jacket,1000,O,m,m,None,372,170.0,202.0,99,1,1912.2999999970198,331695.200000003,7140,jacket,AF,C,324414,324414,322684,323697,322685,324597,324212,324212,324596,55
54,test,1,con,1,z,Fri May 09 2025 09:38:56 GMT-0500 (Central Daylight Time),335506.700000003,elated,1000,O,z,z,None,365,166.0,199.0,3,1,1895.5999999940395,333611.10000000894,7140,elated,AF,C,326329,326329,324600,325613,324600,326496,326130,326130,326496,56
54,test,1,inc,0,m,Fri May 09 2025 09:38:56 GMT-0500 (Central Daylight Time),337422.700000003,hate,1100,O,z,z,None,270,70.0,200.0,88,1,1912.2999999970198,335510.40000000596,7140,bell,AF,C,328329,328329,326499,327612,326500,328412,328129,328129,328412,57
55,test,1,inc,1,m,Fri May 09 2025 09:38:56 GMT-0500 (Central Daylight Time),339755.299999997,friend,1100,O,m,m,None,691,491.0,200.0,104,1,2328.699999988079,337426.60000000894,7140,jacket,AF,C,330245,330245,328416,329529,328416,330744,330045,330045,330744,58
56,test,1,inc,1,z,Fri May 09 2025 09:38:56 GMT-0500 (Central Daylight Time),341954.90000000596,film,1100,O,z,z,None,566,367.0,199.0,24,1,2195.7999999970198,339759.10000000894,7140,love,AF,C,332577,332577,330748,331861,330748,332944,332378,332378,332944,59
57,test,1,inc,1,m,Fri May 09 2025 09:38:56 GMT-0500 (Central Daylight Time),344287.5,hate,1100,O,m,m,None,693,494.0,199.0,96,1,2329.0999999940395,341958.40000000596,7140,film,AF,C,334777,334777,332947,334061,332948,335277,334577,334577,335277,60
58,test,1,con,1,z,Fri May 09 2025 09:38:56 GMT-0500 (Central Daylight Time),346469.700000003,rage,1000,O,z,z,None,645,446.0,199.0,51,1,2178.0999999940395,344291.60000000894,7140,rage,AF,C,337009,337009,335281,336294,335281,337459,336810,336810,337459,61
59,test,1,inc,1,m,Fri May 09 2025 09:38:56 GMT-0500 (Central Daylight Time),348436.90000000596,rage,800,O,m,m,None,631,431.0,200.0,93,1,1963.5,346473.40000000596,7140,film,AF,C,338992,338992,337462,338276,337463,339426,338792,338792,339426,62
60,test,1,con,1,z,Fri May 09 2025 09:38:56 GMT-0500 (Central Daylight Time),350568.90000000596,elated,1100,O,z,z,None,494,294.0,200.0,4,1,2128.2000000029802,348440.700000003,7140,elated,AF,C,341258,341258,339430,340542,339430,341558,341058,341058,341558,63
61,test,1,inc,1,z,Fri May 09 2025 09:38:56 GMT-0500 (Central Daylight Time),352484.60000000894,step,800,O,z,z,None,573,373.0,200.0,21,1,1911.7000000029802,350572.90000000596,7140,love,AF,C,343091,343091,341562,342375,341562,343474,342891,342891,343474,64
62,test,1,con,1,m,Fri May 09 2025 09:38:56 GMT-0500 (Central Daylight Time),354417.299999997,napkin,900,O,m,m,None,484,284.0,200.0,106,1,1929.0,352488.299999997,7140,napkin,AF,C,345107,345107,343477,344392,343478,345407,344907,344907,345406,65
63,test,1,inc,1,z,Fri May 09 2025 09:38:56 GMT-0500 (Central Daylight Time),356300.5,jacket,800,O,z,z,None,539,340.0,199.0,37,1,1879.3999999910593,354421.10000000894,7140,brutal,AF,C,346940,346940,345410,346223,345410,347290,346740,346740,347290,66
64,test,1,con,1,z,Fri May 09 2025 09:38:56 GMT-0500 (Central Daylight Time),358399.5,hate,1000,O,z,z,None,553,353.0,200.0,43,1,2095.3999999910593,356304.10000000894,7140,hate,AF,C,349022,349022,347293,348306,347293,349389,348822,348822,349389,67
65,test,1,con,1,m,Fri May 09 2025 09:38:56 GMT-0500 (Central Daylight Time),360515.700000003,rock,1000,O,m,m,None,572,373.0,199.0,75,1,2112.4000000059605,358403.299999997,7140,rock,AF,C,351122,351122,349392,350405,349393,351505,350922,350922,351505,68
66,test,1,inc,1,m,Fri May 09 2025 09:38:56 GMT-0500 (Central Daylight Time),362465.10000000894,rage,800,O,m,m,None,601,402.0,199.0,85,1,1945.800000011921,360519.299999997,7140,bell,AF,C,353038,353038,351508,352321,351509,353454,352838,352838,353454,69
67,test,1,con,1,m,Fri May 09 2025 09:38:56 GMT-0500 (Central Daylight Time),364431.200000003,step,800,O,m,m,None,629,429.0,200.0,65,1,1962.5,362468.700000003,7140,step,AF,C,354987,354987,353458,354271,353458,355420,354787,354787,355420,70
68,test,1,inc,1,z,Fri May 09 2025 09:38:56 GMT-0500 (Central Daylight Time),366530.299999997,bell,1000,O,z,z,None,550,350.0,200.0,55,1,2095.3999999910593,364434.90000000596,7140,rage,AF,C,357153,357153,355424,356438,355424,357519,356953,356953,357519,71
69,test,1,inc,1,m,Fri May 09 2025 09:38:56 GMT-0500 (Central Daylight Time),368463.200000003,elated,800,O,m,m,None,587,387.0,200.0,101,1,1929.2999999970198,366533.90000000596,7140,jacket,AF,C,359052,359052,357523,358336,357523,359452,358852,358852,359452,72
70,test,1,inc,1,m,Fri May 09 2025 09:38:56 GMT-0500 (Central Daylight Time),370545.799999997,kind,900,O,m,m,None,643,443.0,200.0,70,1,2079.0,368466.799999997,7140,step,AF,C,361085,361085,359456,360369,359456,361535,360885,360885,361535,73
71,test,1,inc,1,z,Fri May 09 2025 09:38:56 GMT-0500 (Central Daylight Time),372528.60000000894,jacket,800,O,z,z,None,635,436.0,199.0,29,1,1979.1000000089407,370549.5,7140,friend,AF,C,363068,363068,361539,362352,361539,363518,362869,362869,363518,74
72,test,1,con,1,m,Fri May 09 2025 09:38:56 GMT-0500 (Central Daylight Time),374861.10000000894,jacket,1100,O,m,m,None,696,497.0,199.0,100,1,2328.7000000029802,372532.40000000596,7140,jacket,AF,C,365351,365351,363521,364634,363522,365850,365151,365151,365850,75
73,test,1,inc,1,m,Fri May 09 2025 09:38:56 GMT-0500 (Central Daylight Time),377127.200000003,hate,1100,O,m,m,None,628,428.0,200.0,80,1,2262.2000000029802,374865.0,7140,rock,AF,C,367683,367683,365854,366967,365854,368116,367483,367483,368116,76
74,test,1,inc,1,z,Fri May 09 2025 09:38:56 GMT-0500 (Central Daylight Time),379259.700000003,remote,1000,O,z,z,None,598,398.0,200.0,39,1,2128.7000000029802,377131.0,7140,brutal,AF,C,369849,369849,368120,369133,368120,370249,369649,369649,370249,77
75,test,1,inc,1,m,Fri May 09 2025 09:38:56 GMT-0500 (Central Daylight Time),381192.40000000596,elated,800,O,m,m,None,582,368.0,214.0,125,1,1929.1000000089407,379263.299999997,7140,window,AF,C,371799,371799,370252,371066,370253,372181,371584,371584,372181,78
76,test,1,inc,1,z,Fri May 09 2025 09:38:56 GMT-0500 (Central Daylight Time),383141.799999997,step,800,O,z,z,None,603,404.0,199.0,53,1,1945.5,381196.299999997,7140,rage,AF,C,373715,373715,372185,372998,372186,374131,373515,373515,374131,79
77,test,1,inc,1,m,Fri May 09 2025 09:38:56 GMT-0500 (Central Daylight Time),385191.10000000894,brutal,900,O,m,m,None,612,412.0,200.0,126,1,2045.4000000059605,383145.700000003,7140,window,AF,C,375764,375764,374135,375048,374135,376180,375564,375564,376180,80
78,test,1,con,1,z,Fri May 09 2025 09:38:56 GMT-0500 (Central Daylight Time),387440.40000000596,friend,900,O,z,z,None,810,610.0,200.0,26,1,2245.4000000059605,385195.0,7140,friend,AF,C,377813,377813,376184,377097,376184,378430,377613,377613,378429,81
79,test,1,inc,1,z,Fri May 09 2025 09:38:56 GMT-0500 (Central Daylight Time),389389.700000003,jacket,800,O,z,z,None,604,405.0,199.0,61,1,1945.7000000029802,387444.0,7140,temper,AF,C,379963,379963,378433,379246,378433,380379,379763,379763,380379,82
80,test,1,inc,1,z,Fri May 09 2025 09:38:56 GMT-0500 (Central Daylight Time),391589.299999997,window,1100,O,z,z,None,555,355.0,200.0,64,1,2195.5999999940395,389393.700000003,7140,temper,AF,C,382212,382212,380383,381496,380383,382578,382012,382012,382578,83
81,test,1,inc,1,z,Fri May 09 2025 09:38:56 GMT-0500 (Central Daylight Time),393755.200000003,bell,1000,O,z,z,None,624,425.0,199.0,15,1,2162.2999999970198,391592.90000000596,7140,kind,AF,C,384311,384311,382582,383595,382582,384744,384112,384112,384744,84
82,test,1,inc,1,z,Fri May 09 2025 09:38:56 GMT-0500 (Central Daylight Time),395871.10000000894,film,1100,O,z,z,None,478,279.0,199.0,16,1,2112.1000000089407,393759.0,7140,kind,AF,C,386577,386577,384748,385861,384748,386860,386378,386378,386860,85
83,test,1,inc,1,m,Fri May 09 2025 09:38:56 GMT-0500 (Central Daylight Time),397770.5,elated,800,O,m,m,None,550,351.0,199.0,109,1,1895.5999999940395,395874.90000000596,7140,napkin,AF,C,388393,388393,386864,387677,386864,388760,388194,388194,388760,86
84,test,1,con,1,m,Fri May 09 2025 09:38:56 GMT-0500 (Central Daylight Time),399953.40000000596,remote,900,O,m,m,None,734,535.0,199.0,114,1,2179.1000000089407,397774.299999997,7140,remote,AF,C,390393,390393,388763,389676,388764,390942,390193,390193,390942,87
85,test,1,inc,1,z,Fri May 09 2025 09:38:56 GMT-0500 (Central Daylight Time),401869.299999997,jacket,800,O,z,z,None,572,372.0,200.0,5,1,1912.3999999910593,399956.90000000596,7140,elated,AF,C,392475,392475,390946,391759,390946,392858,392275,392275,392858,88
86,test,1,con,1,z,Fri May 09 2025 09:38:56 GMT-0500 (Central Daylight Time),404153.60000000894,friend,800,O,z,z,None,934,735.0,199.0,25,1,2280.7000000029802,401872.90000000596,7140,friend,AF,C,394392,394392,392862,393675,392862,395143,394192,394192,395143,89
87,test,1,inc,1,m,Fri May 09 2025 09:38:56 GMT-0500 (Central Daylight Time),406334.700000003,friend,1100,O,m,m,None,536,337.0,199.0,128,1,2176.7999999970198,404157.90000000596,7140,window,AF,C,396974,396974,395147,396258,395147,397324,396775,396775,397324,90
88,test,1,inc,1,m,Fri May 09 2025 09:38:56 GMT-0500 (Central Daylight Time),408534.10000000894,temper,1000,O,m,m,None,662,463.0,199.0,119,1,2195.7000000029802,406338.40000000596,7140,remote,AF,C,399057,399057,397327,398340,397328,399523,398857,398857,399523,91
89,test,1,con,1,m,Fri May 09 2025 09:38:56 GMT-0500 (Central Daylight Time),410650.10000000894,remote,1000,O,m,m,None,567,367.0,200.0,115,1,2112.4000000059605,408537.700000003,7140,remote,AF,C,401256,401256,399527,400540,399527,401639,401056,401056,401639,92
90,test,1,inc,1,z,Fri May 09 2025 09:38:56 GMT-0500 (Central Daylight Time),412516.0,step,800,O,z,z,None,523,323.0,200.0,13,1,1862.2999999970198,410653.700000003,7140,kind,AF,C,403172,403172,401643,402456,401643,403505,402972,402972,403505,93
91,test,1,con,1,m,Fri May 09 2025 09:38:56 GMT-0500 (Central Daylight Time),414515.40000000596,jacket,800,O,m,m,None,658,458.0,200.0,97,1,1995.6000000089407,412519.799999997,7140,jacket,AF,C,405038,405038,403509,404322,403509,405504,404838,404838,405504,94
92,test,1,inc,1,z,Fri May 09 2025 09:38:56 GMT-0500 (Central Daylight Time),416747.799999997,film,1100,O,z,z,None,598,399.0,199.0,48,1,2228.7999999970198,414519.0,7140,hate,AF,C,407337,407337,405508,406621,405509,407737,407138,407138,407737,95
93,test,1,inc,1,z,Fri May 09 2025 09:38:56 GMT-0500 (Central Daylight Time),418880.90000000596,bell,1000,O,z,z,None,594,394.0,200.0,47,1,2129.4000000059605,416751.5,7140,hate,AF,C,409470,409470,407741,408754,407741,409870,409270,409270,409870,96
94,test,1,inc,1,m,Fri May 09 2025 09:38:56 GMT-0500 (Central Daylight Time),421130.0,friend,1100,O,m,m,None,609,409.0,200.0,120,1,2245.2999999970198,418884.700000003,7140,remote,AF,C,411703,411703,409874,410986,409874,412119,411503,411503,412119,97
95,test,1,inc,1,m,Fri May 09 2025 09:38:56 GMT-0500 (Central Daylight Time),423395.700000003,love,1000,O,m,m,None,724,524.0,200.0,71,1,2261.7999999970198,421133.90000000596,7140,step,AF,C,413852,413852,412123,413136,412123,414385,413652,413652,414385,98
96,test,1,con,1,m,Fri May 09 2025 09:38:56 GMT-0500 (Central Daylight Time),425661.799999997,bell,1100,O,m,m,None,621,422.0,199.0,84,1,2262.3999999910593,423399.40000000596,7140,bell,AF,C,416218,416218,414388,415502,414389,416651,416018,416018,416651,99
97,test,1,inc,1,z,Fri May 09 2025 09:38:56 GMT-0500 (Central Daylight Time),427778.700000003,remote,1000,O,z,z,None,582,271.0,311.0,7,1,2113.0999999940395,425665.60000000894,7140,elated,AF,C,418496,418496,416655,417668,416655,418768,418184,418184,418768,100
98,test,1,inc,1,z,Fri May 09 2025 09:38:56 GMT-0500 (Central Daylight Time),429910.700000003,bell,1000,O,z,z,None,595,395.0,200.0,23,1,2128.0999999940395,427782.60000000894,7140,love,AF,C,420500,420500,418772,419784,418772,420900,420300,420300,420900,101
99,test,1,inc,1,z,Fri May 09 2025 09:38:56 GMT-0500 (Central Daylight Time),432159.90000000596,film,1100,O,z,z,None,609,410.0,199.0,56,1,2245.2999999970198,429914.60000000894,7140,rage,AF,C,422733,422733,420904,422016,420904,423149,422533,422533,423149,102
100,test,1,con,1,z,Fri May 09 2025 09:38:56 GMT-0500 (Central Daylight Time),434342.90000000596,hate,1100,O,z,z,None,537,337.0,200.0,44,1,2179.0,432163.90000000596,7140,hate,AF,C,424982,424982,423153,424266,423153,425332,424782,424782,425332,103
101,test,1,con,1,z,Fri May 09 2025 09:38:56 GMT-0500 (Central Daylight Time),436308.60000000894,temper,900,O,z,z,None,531,331.0,200.0,58,1,1962.1000000089407,434346.5,7140,temper,AF,C,426965,426965,425336,426248,425336,427298,426765,426765,427298,104
102,test,1,con,1,m,Fri May 09 2025 09:38:56 GMT-0500 (Central Daylight Time),438424.5,window,1000,O,m,m,None,575,376.0,199.0,123,1,2112.0,436312.5,7140,window,AF,C,429031,429031,427302,428314,427302,429414,428831,428831,429413,105
103,test,1,inc,1,m,Fri May 09 2025 09:38:56 GMT-0500 (Central Daylight Time),440407.40000000596,kind,900,O,m,m,None,537,337.0,200.0,78,1,1979.1000000089407,438428.299999997,7140,rock,AF,C,431047,431047,429417,430330,429418,431396,430847,430847,431396,106
104,test,1,con,1,z,Fri May 09 2025 09:38:56 GMT-0500 (Central Daylight Time),442440.10000000894,brutal,900,O,z,z,None,585,386.0,199.0,34,1,2029.0,440411.10000000894,7140,brutal,AF,C,433029,433030,431400,432313,431400,433429,432830,432830,433429,107
105,test,1,con,1,m,Fri May 09 2025 09:38:56 GMT-0500 (Central Daylight Time),444272.700000003,bell,800,O,m,m,None,486,286.0,200.0,81,1,1828.9000000059605,442443.799999997,7140,bell,AF,C,434962,434962,433433,434246,433433,435262,434762,434762,435262,108
106,test,1,con,1,z,Fri May 09 2025 09:38:56 GMT-0500 (Central Daylight Time),446155.200000003,temper,800,O,z,z,None,541,341.0,200.0,57,1,1878.5999999940395,444276.60000000894,7140,temper,AF,C,436795,436795,435266,436079,435266,437144,436595,436595,437144,109
107,test,1,inc,1,z,Fri May 09 2025 09:38:56 GMT-0500 (Central Daylight Time),448121.60000000894,rock,900,O,z,z,None,516,317.0,199.0,54,1,1962.6000000089407,446159.0,7140,rage,AF,C,438778,438778,437148,438061,437148,439111,438578,438578,439111,110
108,test,1,inc,1,m,Fri May 09 2025 09:38:56 GMT-0500 (Central Daylight Time),450204.200000003,love,1000,O,m,m,None,539,340.0,199.0,95,1,2078.7000000029802,448125.5,7140,film,AF,C,440844,440844,439115,440127,439115,441193,440644,440644,441193,111
109,test,1,con,1,m,Fri May 09 2025 09:38:56 GMT-0500 (Central Daylight Time),452220.299999997,napkin,800,O,m,m,None,657,457.0,200.0,105,1,2012.3999999910593,450207.90000000596,7140,napkin,AF,C,442743,442743,441197,442037,441197,443209,442543,442543,443209,112
110,test,1,inc,1,m,Fri May 09 2025 09:38:56 GMT-0500 (Central Daylight Time),454419.299999997,hate,1100,O,m,m,None,565,366.0,199.0,72,1,2195.2999999970198,452224.0,7140,step,AF,C,445042,445042,443213,444326,443213,445408,444843,444843,445408,113
111,test,1,con,1,z,Fri May 09 2025 09:38:56 GMT-0500 (Central Daylight Time),456602.5,temper,1000,O,z,z,None,633,434.0,199.0,59,1,2179.5999999940395,454422.90000000596,7140,temper,AF,C,447142,447142,445412,446425,445412,447592,446942,446942,447592,114
112,test,1,con,1,m,Fri May 09 2025 09:38:56 GMT-0500 (Central Daylight Time),458651.60000000894,film,900,O,m,m,None,607,408.0,199.0,90,1,2045.6000000089407,456606.0,7140,film,AF,C,449224,449224,447595,448508,447595,449641,449025,449025,449641,115
113,test,1,inc,1,m,Fri May 09 2025 09:38:56 GMT-0500 (Central Daylight Time),460735.200000003,temper,1000,O,m,m,None,545,346.0,199.0,127,1,2079.7999999970198,458655.40000000596,7140,window,AF,C,451374,451374,449644,450657,449645,451724,451174,451174,451724,116
114,test,1,con,1,m,Fri May 09 2025 09:38:56 GMT-0500 (Central Daylight Time),462683.60000000894,rock,800,O,m,m,None,613,414.0,199.0,73,1,1944.9000000059605,460738.700000003,7140,rock,AF,C,453257,453257,451728,452540,451728,453673,453057,453057,453673,117
115,test,1,con,1,z,Fri May 09 2025 09:38:56 GMT-0500 (Central Daylight Time),464732.90000000596,elated,900,O,z,z,None,613,413.0,200.0,2,1,2045.7000000029802,462687.200000003,7140,elated,AF,C,455306,455306,453676,454589,453677,455722,455106,455106,455722,118
116,test,1,con,1,m,Fri May 09 2025 09:38:56 GMT-0500 (Central Daylight Time),466815.60000000894,bell,1000,O,m,m,None,537,337.0,200.0,83,1,2078.800000011921,464736.799999997,7140,bell,AF,C,457455,457455,455726,456739,455726,457805,457255,457255,457805,119
117,test,1,con,1,m,Fri May 09 2025 09:38:56 GMT-0500 (Central Daylight Time),468615.10000000894,bell,900,O,m,m,None,361,162.0,199.0,82,1,1795.6000000089407,466819.5,7140,bell,AF,C,459438,459438,457809,458721,457809,459604,459238,459238,459604,120
118,test,1,inc,1,m,Fri May 09 2025 09:38:56 GMT-0500 (Central Daylight Time),470614.60000000894,love,1000,O,m,m,None,463,263.0,200.0,79,1,1995.800000011921,468618.799999997,7140,rock,AF,C,461337,461337,459608,460621,459608,461604,461137,461137,461604,121
119,test,1,con,1,m,Fri May 09 2025 09:38:56 GMT-0500 (Central Daylight Time),472713.799999997,napkin,1100,O,m,m,None,458,259.0,199.0,108,1,2095.5,470618.299999997,7140,napkin,AF,C,463437,463437,461607,462720,461608,463703,463237,463237,463703,122
120,test,1,inc,1,m,Fri May 09 2025 09:38:56 GMT-0500 (Central Daylight Time),474777.0,kind,900,O,m,m,None,484,283.0,201.0,86,1,2059.3999999910593,472717.60000000894,7140,bell,AF,C,465337,465337,463707,464619,463707,465766,465136,465136,465766,123
120,test,1,inc,0,z,Fri May 09 2025 09:38:56 GMT-0500 (Central Daylight Time),476630.10000000894,napkin,900,O,m,m,None,414,214.0,200.0,6,1,1849.0,474781.10000000894,7140,elated,AF,C,467402,467402,465770,466685,465770,467619,467202,467202,467619,124
121,test,1,inc,1,m,Fri May 09 2025 09:38:56 GMT-0500 (Central Daylight Time),478578.799999997,elated,800,O,m,m,None,616,416.0,200.0,117,1,1945.0,476633.799999997,7140,remote,AF,C,469151,469151,467623,468435,467623,469568,468951,468951,469568,125
122,test,1,con,1,z,Fri May 09 2025 09:38:56 GMT-0500 (Central Daylight Time),480694.700000003,love,1000,O,z,z,None,579,379.0,200.0,19,1,2112.2999999970198,478582.40000000596,7140,love,AF,C,471301,471301,469571,470584,469572,471684,471101,471101,471684,126
123,test,1,con,1,z,Fri May 09 2025 09:38:56 GMT-0500 (Central Daylight Time),482810.700000003,kind,1000,O,z,z,None,582,382.0,200.0,11,1,2112.5,480698.200000003,7140,kind,AF,C,473417,473417,471687,472700,471688,473800,473217,473217,473800,127
124,test,1,con,1,m,Fri May 09 2025 09:38:56 GMT-0500 (Central Daylight Time),484860.10000000894,step,1000,O,m,m,None,515,316.0,199.0,67,1,2045.9000000059605,482814.200000003,7140,step,AF,C,475532,475532,473803,474818,473803,475849,475333,475333,475849,128
