acc_sum,block,block_c,change,condition,correct,correct_response,datetime,endtime,face,project,response,response_time,row_sel,session_number,start_end,starttime,subject_id,task,task_vers,trial
0,prac,1,,1-Back,,,Tue Jan 20 2026 14:10:11 GMT-0600 (Central Standard Time),,097_m_f_n_a.png,O,space,22617,1,1,,,7730,NNB,B,0
1,prac,1,0.0,1-Back,1.0,m,Tue Jan 20 2026 14:10:11 GMT-0600 (Central Standard Time),232643.20000004768,152_y_f_n_a.png,O,m,1189,2,1,2007.8999998569489,230635.30000019073,7730,NNB,B,1
1,prac,1,1.0,1-Back,0.0,z,Tue Jan 20 2026 14:10:11 GMT-0600 (Central Standard Time),235425.20000004768,152_y_f_n_a.png,O,None,2007,3,1,2775.2000000476837,232650.0,7730,NNB,B,2
1,prac,1,0.0,1-Back,0.0,m,Tue Jan 20 2026 14:10:11 GMT-0600 (Central Standard Time),238290.40000009537,176_o_m_n_a.png,O,None,2013,4,1,2857.7999999523163,235432.60000014305,7730,NNB,B,3
2,prac,1,0.0,1-Back,1.0,m,Tue Jan 20 2026 14:10:11 GMT-0600 (Central Standard Time),240372.40000009537,126_m_m_n_a.png,O,m,1237,5,1,2076.0,238296.40000009537,7730,NNB,B,4
2,prac,1,1.0,1-Back,0.0,z,Tue Jan 20 2026 14:10:11 GMT-0600 (Central Standard Time),242289.10000014305,126_m_m_n_a.png,O,m,1141,6,1,1910.2000000476837,240378.90000009537,7730,NNB,B,5
2,prac,1,0.0,1-Back,0.0,m,Tue Jan 20 2026 14:10:11 GMT-0600 (Central Standard Time),245139.0,086_o_f_n_a.png,O,None,2001,7,1,2843.199999809265,242295.80000019073,7730,NNB,B,6
3,prac,1,0.0,1-Back,1.0,m,Tue Jan 20 2026 14:10:11 GMT-0600 (Central Standard Time),246954.70000004768,178_m_m_n_a.png,O,m,986,8,1,1808.2000000476837,245146.5,7730,NNB,B,7
4,prac,1,0.0,1-Back,1.0,m,Tue Jan 20 2026 14:10:11 GMT-0600 (Central Standard Time),249002.70000004768,097_m_f_n_a.png,O,m,1286,9,1,2041.0999999046326,246961.60000014305,7730,NNB,B,8
5,prac,1,1.0,1-Back,1.0,z,Tue Jan 20 2026 14:10:11 GMT-0600 (Central Standard Time),250751.80000019073,097_m_f_n_a.png,O,z,974,10,1,1742.2000000476837,249009.60000014305,7730,NNB,B,9
6,prac,1,0.0,1-Back,1.0,m,Tue Jan 20 2026 14:10:11 GMT-0600 (Central Standard Time),253084.80000019073,176_o_m_n_a.png,O,m,1546,11,1,2326.800000190735,250758.0,7730,NNB,B,10
6,prac,1,0.0,1-Back,0.0,m,Tue Jan 20 2026 14:10:11 GMT-0600 (Central Standard Time),255934.60000014305,173_y_f_n_a.png,O,None,2010,12,1,2841.2999999523163,253093.30000019073,7730,NNB,B,11
0,prac,2,0.0,1-Back,,,Tue Jan 20 2026 14:10:11 GMT-0600 (Central Standard Time),255934.60000014305,097_m_f_n_a.png,O,a,47078,1,1,2841.2999999523163,253093.30000019073,7730,NNB,B,0
1,prac,2,0.0,1-Back,1.0,m,Tue Jan 20 2026 14:10:11 GMT-0600 (Central Standard Time),307617.7000000477,152_y_f_n_a.png,O,m,715,2,1,1558.2999999523163,306059.40000009537,7730,NNB,B,1
2,prac,2,1.0,1-Back,1.0,z,Tue Jan 20 2026 14:10:11 GMT-0600 (Central Standard Time),310116.2000000477,152_y_f_n_a.png,O,z,1712,3,1,2492.2999999523163,307623.90000009537,7730,NNB,B,2
3,prac,2,0.0,1-Back,1.0,m,Tue Jan 20 2026 14:10:11 GMT-0600 (Central Standard Time),312716.7000000477,176_o_m_n_a.png,O,m,1767,4,1,2594.5,310122.2000000477,7730,NNB,B,3
4,prac,2,0.0,1-Back,1.0,m,Tue Jan 20 2026 14:10:11 GMT-0600 (Central Standard Time),315081.90000009537,126_m_m_n_a.png,O,m,1520,5,1,2357.5,312724.40000009537,7730,NNB,B,4
5,prac,2,1.0,1-Back,1.0,z,Tue Jan 20 2026 14:10:11 GMT-0600 (Central Standard Time),316848.0,126_m_m_n_a.png,O,z,991,6,1,1759.5,315088.5,7730,NNB,B,5
6,prac,2,0.0,1-Back,1.0,m,Tue Jan 20 2026 14:10:11 GMT-0600 (Central Standard Time),319480.90000009537,086_o_f_n_a.png,O,m,1767,7,1,2624.5,316856.40000009537,7730,NNB,B,6
7,prac,2,0.0,1-Back,1.0,m,Tue Jan 20 2026 14:10:11 GMT-0600 (Central Standard Time),321796.10000014305,178_m_m_n_a.png,O,m,1466,8,1,2308.600000143051,319487.5,7730,NNB,B,7
8,prac,2,0.0,1-Back,1.0,m,Tue Jan 20 2026 14:10:11 GMT-0600 (Central Standard Time),324164.0,097_m_f_n_a.png,O,m,1590,9,1,2362.0,321802.0,7730,NNB,B,8
9,prac,2,1.0,1-Back,1.0,z,Tue Jan 20 2026 14:10:11 GMT-0600 (Central Standard Time),325979.80000019073,097_m_f_n_a.png,O,z,1037,10,1,1809.7000000476837,324170.10000014305,7730,NNB,B,9
10,prac,2,0.0,1-Back,1.0,m,Tue Jan 20 2026 14:10:11 GMT-0600 (Central Standard Time),328544.90000009537,176_o_m_n_a.png,O,m,1788,11,1,2557.7999999523163,325987.10000014305,7730,NNB,B,10
11,prac,2,0.0,1-Back,1.0,m,Tue Jan 20 2026 14:10:11 GMT-0600 (Central Standard Time),331077.30000019073,173_y_f_n_a.png,O,m,1686,12,1,2525.800000190735,328551.5,7730,NNB,B,11
0,test,1,0.0,1-Back,,,Tue Jan 20 2026 14:10:11 GMT-0600 (Central Standard Time),331077.30000019073,152_y_f_n_a.png,O,space,4489,1,1,2525.800000190735,328551.5,7730,NNB,B,0
1,test,1,0.0,1-Back,1.0,m,Tue Jan 20 2026 14:10:11 GMT-0600 (Central Standard Time),349287.2000000477,029_m_f_n_a.png,O,m,1133,2,1,2160.899999856949,347126.30000019073,7730,NNB,B,1
2,test,1,0.0,1-Back,1.0,m,Tue Jan 20 2026 14:10:11 GMT-0600 (Central Standard Time),351920.0,173_y_f_n_a.png,O,m,1607,3,1,2630.199999809265,349289.80000019073,7730,NNB,B,2
3,test,1,1.0,1-Back,1.0,z,Tue Jan 20 2026 14:10:11 GMT-0600 (Central Standard Time),353836.10000014305,173_y_f_n_a.png,O,z,887,4,1,1913.2000000476837,351922.90000009537,7730,NNB,B,3
4,test,1,0.0,1-Back,1.0,m,Tue Jan 20 2026 14:10:11 GMT-0600 (Central Standard Time),356036.40000009537,029_m_f_n_a.png,O,m,1171,5,1,2197.2999999523163,353839.10000014305,7730,NNB,B,4
5,test,1,0.0,1-Back,1.0,m,Tue Jan 20 2026 14:10:11 GMT-0600 (Central Standard Time),358067.80000019073,176_o_m_n_a.png,O,m,1004,6,1,2028.1000001430511,356039.7000000477,7730,NNB,B,5
6,test,1,1.0,1-Back,1.0,z,Tue Jan 20 2026 14:10:11 GMT-0600 (Central Standard Time),360150.40000009537,176_o_m_n_a.png,O,z,1059,7,1,2080.0,358070.40000009537,7730,NNB,B,6
7,test,1,0.0,1-Back,1.0,m,Tue Jan 20 2026 14:10:11 GMT-0600 (Central Standard Time),362617.80000019073,126_m_m_n_a.png,O,m,1441,8,1,2464.0,360153.80000019073,7730,NNB,B,7
8,test,1,0.0,1-Back,1.0,m,Tue Jan 20 2026 14:10:11 GMT-0600 (Central Standard Time),364850.0,086_o_f_n_a.png,O,m,1206,9,1,2228.5999999046326,362621.40000009537,7730,NNB,B,8
8,test,1,0.0,1-Back,0.0,m,Tue Jan 20 2026 14:10:11 GMT-0600 (Central Standard Time),366948.2000000477,126_m_m_n_a.png,O,z,1069,10,1,2095.5,364852.7000000477,7730,NNB,B,9
9,test,1,0.0,1-Back,1.0,m,Tue Jan 20 2026 14:10:11 GMT-0600 (Central Standard Time),369280.90000009537,153_y_m_n_a.png,O,m,1316,11,1,2327.9000000953674,366953.0,7730,NNB,B,10
9,test,1,1.0,1-Back,0.0,z,Tue Jan 20 2026 14:10:11 GMT-0600 (Central Standard Time),371130.7000000477,153_y_m_n_a.png,O,m,831,12,1,1845.5,369285.2000000477,7730,NNB,B,11
10,test,1,0.0,1-Back,1.0,m,Tue Jan 20 2026 14:10:11 GMT-0600 (Central Standard Time),373881.40000009537,110_o_f_n_a.png,O,m,1716,13,1,2746.2999999523163,371135.10000014305,7730,NNB,B,12
11,test,1,1.0,1-Back,1.0,z,Tue Jan 20 2026 14:10:11 GMT-0600 (Central Standard Time),375779.40000009537,110_o_f_n_a.png,O,z,879,14,1,1892.7000000476837,373886.7000000477,7730,NNB,B,13
12,test,1,0.0,1-Back,1.0,m,Tue Jan 20 2026 14:10:11 GMT-0600 (Central Standard Time),377762.0,013_y_m_n_a.png,O,m,964,15,1,1979.5,375782.5,7730,NNB,B,14
12,test,1,0.0,1-Back,0.0,m,Tue Jan 20 2026 14:10:11 GMT-0600 (Central Standard Time),379844.5,097_m_f_n_a.png,O,z,1054,16,1,2079.2999999523163,377765.2000000477,7730,NNB,B,15
13,test,1,0.0,1-Back,1.0,m,Tue Jan 20 2026 14:10:11 GMT-0600 (Central Standard Time),382210.10000014305,065_o_m_n_a.png,O,m,1349,17,1,2362.0,379848.10000014305,7730,NNB,B,16
14,test,1,0.0,1-Back,1.0,m,Tue Jan 20 2026 14:10:11 GMT-0600 (Central Standard Time),384642.40000009537,097_m_f_n_a.png,O,m,1414,18,1,2429.4000000953674,382213.0,7730,NNB,B,17
0,test,2,0.0,1-Back,,,Tue Jan 20 2026 14:10:11 GMT-0600 (Central Standard Time),384642.40000009537,126_m_m_n_a.png,O,space,3062,1,1,2429.4000000953674,382213.0,7730,NNB,B,0
1,test,2,0.0,1-Back,1.0,m,Tue Jan 20 2026 14:10:11 GMT-0600 (Central Standard Time),391974.40000009537,029_m_f_n_a.png,O,m,1227,2,1,2245.7000000476837,389728.7000000477,7730,NNB,B,1
2,test,2,1.0,1-Back,1.0,z,Tue Jan 20 2026 14:10:11 GMT-0600 (Central Standard Time),394189.90000009537,029_m_f_n_a.png,O,z,1193,3,1,2209.7999999523163,391980.10000014305,7730,NNB,B,2
3,test,2,0.0,1-Back,1.0,m,Tue Jan 20 2026 14:10:11 GMT-0600 (Central Standard Time),396288.7000000477,126_m_m_n_a.png,O,m,1074,4,1,2094.899999856949,394193.80000019073,7730,NNB,B,3
3,test,2,0.0,1-Back,0.0,m,Tue Jan 20 2026 14:10:11 GMT-0600 (Central Standard Time),398155.2000000477,153_y_m_n_a.png,O,z,839,5,1,1861.0,396294.2000000477,7730,NNB,B,4
4,test,2,0.0,1-Back,1.0,m,Tue Jan 20 2026 14:10:11 GMT-0600 (Central Standard Time),400304.5,152_y_f_n_a.png,O,m,1130,6,1,2146.199999809265,398158.30000019073,7730,NNB,B,5
4,test,2,1.0,1-Back,0.0,z,Tue Jan 20 2026 14:10:11 GMT-0600 (Central Standard Time),402104.10000014305,152_y_f_n_a.png,O,m,782,7,1,1795.4000000953674,400308.7000000477,7730,NNB,B,6
4,test,2,0.0,1-Back,0.0,m,Tue Jan 20 2026 14:10:11 GMT-0600 (Central Standard Time),405102.30000019073,153_y_m_n_a.png,O,z,1975,8,1,2995.7000000476837,402106.60000014305,7730,NNB,B,7
5,test,2,0.0,1-Back,1.0,m,Tue Jan 20 2026 14:10:11 GMT-0600 (Central Standard Time),408018.10000014305,110_o_f_n_a.png,O,m,1897,9,1,2913.2000000476837,405104.90000009537,7730,NNB,B,8
6,test,2,0.0,1-Back,1.0,m,Tue Jan 20 2026 14:10:11 GMT-0600 (Central Standard Time),410185.2000000477,178_m_m_n_a.png,O,m,1148,10,1,2164.5,408020.7000000477,7730,NNB,B,9
7,test,2,1.0,1-Back,1.0,z,Tue Jan 20 2026 14:10:11 GMT-0600 (Central Standard Time),412084.80000019073,178_m_m_n_a.png,O,z,870,11,1,1896.0,410188.80000019073,7730,NNB,B,10
8,test,2,0.0,1-Back,1.0,m,Tue Jan 20 2026 14:10:11 GMT-0600 (Central Standard Time),414316.10000014305,110_o_f_n_a.png,O,m,1212,12,1,2227.4000000953674,412088.7000000477,7730,NNB,B,11
8,test,2,0.0,1-Back,0.0,m,Tue Jan 20 2026 14:10:11 GMT-0600 (Central Standard Time),416517.90000009537,086_o_f_n_a.png,O,z,1171,13,1,2198.0999999046326,414319.80000019073,7730,NNB,B,12
9,test,2,0.0,1-Back,1.0,m,Tue Jan 20 2026 14:10:11 GMT-0600 (Central Standard Time),418499.40000009537,176_o_m_n_a.png,O,m,963,14,1,1975.7999999523163,416523.60000014305,7730,NNB,B,13
9,test,2,0.0,1-Back,0.0,m,Tue Jan 20 2026 14:10:11 GMT-0600 (Central Standard Time),421516.60000014305,065_o_m_n_a.png,O,None,2001,15,1,3014.2999999523163,418502.30000019073,7730,NNB,B,14
10,test,2,1.0,1-Back,1.0,z,Tue Jan 20 2026 14:10:11 GMT-0600 (Central Standard Time),423580.40000009537,065_o_m_n_a.png,O,z,1035,16,1,2061.0,421519.40000009537,7730,NNB,B,15
10,test,2,0.0,1-Back,0.0,m,Tue Jan 20 2026 14:10:11 GMT-0600 (Central Standard Time),426614.90000009537,013_y_m_n_a.png,O,None,2018,17,1,3032.0,423582.90000009537,7730,NNB,B,16
11,test,2,1.0,1-Back,1.0,z,Tue Jan 20 2026 14:10:11 GMT-0600 (Central Standard Time),428412.40000009537,013_y_m_n_a.png,O,z,778,18,1,1792.5,426619.90000009537,7730,NNB,B,17
0,test,3,1.0,1-Back,,,Tue Jan 20 2026 14:10:11 GMT-0600 (Central Standard Time),428412.40000009537,173_y_f_n_a.png,O,space,4915,1,1,1792.5,426619.90000009537,7730,NNB,B,0
1,test,3,0.0,1-Back,1.0,m,Tue Jan 20 2026 14:10:11 GMT-0600 (Central Standard Time),437393.10000014305,065_o_m_n_a.png,O,m,950,1,1,1955.1000001430511,435438.0,7730,NNB,B,1
1,test,3,1.0,1-Back,0.0,z,Tue Jan 20 2026 14:10:11 GMT-0600 (Central Standard Time),440426.10000014305,065_o_m_n_a.png,O,None,2015,1,1,3028.2000000476837,437397.90000009537,7730,NNB,B,2
2,test,3,0.0,1-Back,1.0,m,Tue Jan 20 2026 14:10:11 GMT-0600 (Central Standard Time),442693.0,097_m_f_n_a.png,O,m,1246,1,1,2259.5,440433.5,7730,NNB,B,3
3,test,3,1.0,1-Back,1.0,z,Tue Jan 20 2026 14:10:11 GMT-0600 (Central Standard Time),444623.80000019073,097_m_f_n_a.png,O,z,906,1,1,1925.0,442698.80000019073,7730,NNB,B,4
4,test,3,0.0,1-Back,1.0,m,Tue Jan 20 2026 14:10:11 GMT-0600 (Central Standard Time),446723.30000019073,110_o_f_n_a.png,O,m,1078,1,1,2095.100000143051,444628.2000000477,7730,NNB,B,5
5,test,3,0.0,1-Back,1.0,m,Tue Jan 20 2026 14:10:11 GMT-0600 (Central Standard Time),448689.80000019073,153_y_m_n_a.png,O,m,950,1,1,1962.9000000953674,446726.90000009537,7730,NNB,B,6
6,test,3,0.0,1-Back,1.0,m,Tue Jan 20 2026 14:10:11 GMT-0600 (Central Standard Time),451326.90000009537,110_o_f_n_a.png,O,m,1606,1,1,2632.4000000953674,448694.5,7730,NNB,B,7
7,test,3,0.0,1-Back,1.0,m,Tue Jan 20 2026 14:10:11 GMT-0600 (Central Standard Time),454304.5,013_y_m_n_a.png,O,m,1957,1,1,2969.5999999046326,451334.90000009537,7730,NNB,B,8
8,test,3,1.0,1-Back,1.0,z,Tue Jan 20 2026 14:10:11 GMT-0600 (Central Standard Time),455856.30000019073,013_y_m_n_a.png,O,z,534,1,1,1547.0,454309.30000019073,7730,NNB,B,9
9,test,3,0.0,1-Back,1.0,m,Tue Jan 20 2026 14:10:11 GMT-0600 (Central Standard Time),457954.40000009537,029_m_f_n_a.png,O,m,1073,1,1,2093.2000000476837,455861.2000000477,7730,NNB,B,10
10,test,3,0.0,1-Back,1.0,m,Tue Jan 20 2026 14:10:11 GMT-0600 (Central Standard Time),460052.10000014305,152_y_f_n_a.png,O,m,1080,1,1,2091.9000000953674,457960.2000000477,7730,NNB,B,11
11,test,3,1.0,1-Back,1.0,z,Tue Jan 20 2026 14:10:11 GMT-0600 (Central Standard Time),462417.10000014305,152_y_f_n_a.png,O,z,1339,1,1,2357.0,460060.10000014305,7730,NNB,B,12
12,test,3,0.0,1-Back,1.0,m,Tue Jan 20 2026 14:10:11 GMT-0600 (Central Standard Time),464203.7000000477,029_m_f_n_a.png,O,m,758,1,1,1780.2000000476837,462423.5,7730,NNB,B,13
13,test,3,0.0,1-Back,1.0,m,Tue Jan 20 2026 14:10:11 GMT-0600 (Central Standard Time),466167.90000009537,126_m_m_n_a.png,O,m,936,1,1,1958.4000000953674,464209.5,7730,NNB,B,14
14,test,3,1.0,1-Back,1.0,z,Tue Jan 20 2026 14:10:11 GMT-0600 (Central Standard Time),468401.60000014305,126_m_m_n_a.png,O,z,1216,1,1,2227.2999999523163,466174.30000019073,7730,NNB,B,15
15,test,3,0.0,1-Back,1.0,m,Tue Jan 20 2026 14:10:11 GMT-0600 (Central Standard Time),470167.0,086_o_f_n_a.png,O,m,743,1,1,1758.3999998569489,468408.60000014305,7730,NNB,B,16
16,test,3,1.0,1-Back,1.0,z,Tue Jan 20 2026 14:10:11 GMT-0600 (Central Standard Time),472217.40000009537,086_o_f_n_a.png,O,z,1033,1,1,2043.4000000953674,470174.0,7730,NNB,B,17
0,test,4,1.0,1-Back,,,Tue Jan 20 2026 14:10:11 GMT-0600 (Central Standard Time),472217.40000009537,097_m_f_n_a.png,O,space,4312,1,1,2043.4000000953674,470174.0,7730,NNB,B,0
1,test,4,0.0,1-Back,1.0,m,Tue Jan 20 2026 14:10:11 GMT-0600 (Central Standard Time),480697.5,065_o_m_n_a.png,O,m,1052,2,1,2081.5,478616.0,7730,NNB,B,1
2,test,4,0.0,1-Back,1.0,m,Tue Jan 20 2026 14:10:11 GMT-0600 (Central Standard Time),483297.10000014305,097_m_f_n_a.png,O,m,1567,3,1,2592.4000000953674,480704.7000000477,7730,NNB,B,2
3,test,4,0.0,1-Back,1.0,m,Tue Jan 20 2026 14:10:11 GMT-0600 (Central Standard Time),485329.60000014305,110_o_f_n_a.png,O,m,1017,4,1,2026.7000000476837,483302.90000009537,7730,NNB,B,3
4,test,4,1.0,1-Back,1.0,z,Tue Jan 20 2026 14:10:11 GMT-0600 (Central Standard Time),487428.0,110_o_f_n_a.png,O,z,1082,5,1,2092.2999999523163,485335.7000000477,7730,NNB,B,4
5,test,4,0.0,1-Back,1.0,m,Tue Jan 20 2026 14:10:11 GMT-0600 (Central Standard Time),489377.10000014305,152_y_f_n_a.png,O,m,924,6,1,1941.9000000953674,487435.2000000477,7730,NNB,B,5
6,test,4,0.0,1-Back,1.0,m,Tue Jan 20 2026 14:10:11 GMT-0600 (Central Standard Time),491396.10000014305,153_y_m_n_a.png,O,m,981,7,1,2011.6000001430511,489384.5,7730,NNB,B,6
7,test,4,1.0,1-Back,1.0,z,Tue Jan 20 2026 14:10:11 GMT-0600 (Central Standard Time),492926.30000019073,153_y_m_n_a.png,O,z,502,8,1,1524.7000000476837,491401.60000014305,7730,NNB,B,7
8,test,4,0.0,1-Back,1.0,m,Tue Jan 20 2026 14:10:11 GMT-0600 (Central Standard Time),494725.60000014305,152_y_f_n_a.png,O,m,770,9,1,1786.9000000953674,492938.7000000477,7730,NNB,B,8
8,test,4,0.0,1-Back,0.0,m,Tue Jan 20 2026 14:10:11 GMT-0600 (Central Standard Time),496446.2000000477,178_m_m_n_a.png,O,z,681,10,1,1716.2000000476837,494730.0,7730,NNB,B,9
8,test,4,1.0,1-Back,0.0,z,Tue Jan 20 2026 14:10:11 GMT-0600 (Central Standard Time),498373.60000014305,178_m_m_n_a.png,O,m,901,11,1,1921.7999999523163,496451.80000019073,7730,NNB,B,10
9,test,4,0.0,1-Back,1.0,m,Tue Jan 20 2026 14:10:11 GMT-0600 (Central Standard Time),500724.2000000477,086_o_f_n_a.png,O,m,1320,12,1,2342.2999999523163,498381.90000009537,7730,NNB,B,11
10,test,4,0.0,1-Back,1.0,m,Tue Jan 20 2026 14:10:11 GMT-0600 (Central Standard Time),502672.2000000477,176_o_m_n_a.png,O,m,916,13,1,1938.8999998569489,500733.30000019073,7730,NNB,B,12
11,test,4,0.0,1-Back,1.0,m,Tue Jan 20 2026 14:10:11 GMT-0600 (Central Standard Time),504655.2000000477,086_o_f_n_a.png,O,m,960,14,1,1974.5,502680.7000000477,7730,NNB,B,13
12,test,4,0.0,1-Back,1.0,m,Tue Jan 20 2026 14:10:11 GMT-0600 (Central Standard Time),506555.10000014305,173_y_f_n_a.png,O,m,882,15,1,1892.1000001430511,504663.0,7730,NNB,B,14
13,test,4,1.0,1-Back,1.0,z,Tue Jan 20 2026 14:10:11 GMT-0600 (Central Standard Time),508404.40000009537,173_y_f_n_a.png,O,z,829,16,1,1843.2000000476837,506561.2000000477,7730,NNB,B,15
14,test,4,0.0,1-Back,1.0,m,Tue Jan 20 2026 14:10:11 GMT-0600 (Central Standard Time),510188.80000019073,029_m_f_n_a.png,O,m,769,17,1,1776.2000000476837,508412.60000014305,7730,NNB,B,16
15,test,4,1.0,1-Back,1.0,z,Tue Jan 20 2026 14:10:11 GMT-0600 (Central Standard Time),511970.0,029_m_f_n_a.png,O,z,765,18,1,1774.7999999523163,510195.2000000477,7730,NNB,B,17
0,test,5,1.0,1-Back,,,Tue Jan 20 2026 14:10:11 GMT-0600 (Central Standard Time),511970.0,176_o_m_n_a.png,O,space,3638,1,1,1774.7999999523163,510195.2000000477,7730,NNB,B,0
1,test,5,1.0,1-Back,1.0,z,Tue Jan 20 2026 14:10:11 GMT-0600 (Central Standard Time),519600.40000009537,176_o_m_n_a.png,O,z,965,2,1,1971.0999999046326,517629.30000019073,7730,NNB,B,1
2,test,5,0.0,1-Back,1.0,m,Tue Jan 20 2026 14:10:11 GMT-0600 (Central Standard Time),521532.0,152_y_f_n_a.png,O,m,902,3,1,1926.0999999046326,519605.90000009537,7730,NNB,B,2
3,test,5,0.0,1-Back,1.0,m,Tue Jan 20 2026 14:10:11 GMT-0600 (Central Standard Time),523384.0,153_y_m_n_a.png,O,m,816,4,1,1849.0999999046326,521534.90000009537,7730,NNB,B,3
4,test,5,0.0,1-Back,1.0,m,Tue Jan 20 2026 14:10:11 GMT-0600 (Central Standard Time),526264.7000000477,152_y_f_n_a.png,O,m,1856,5,1,2874.0999999046326,523390.60000014305,7730,NNB,B,4
5,test,5,0.0,1-Back,1.0,m,Tue Jan 20 2026 14:10:11 GMT-0600 (Central Standard Time),528547.4000000954,126_m_m_n_a.png,O,m,1265,6,1,2273.7000000476837,526273.7000000477,7730,NNB,B,5
6,test,5,1.0,1-Back,1.0,z,Tue Jan 20 2026 14:10:11 GMT-0600 (Central Standard Time),530297.2000000477,126_m_m_n_a.png,O,z,723,7,1,1743.7000000476837,528553.5,7730,NNB,B,6
7,test,5,0.0,1-Back,1.0,m,Tue Jan 20 2026 14:10:11 GMT-0600 (Central Standard Time),532497.4000000954,173_y_f_n_a.png,O,m,1174,8,1,2193.0999999046326,530304.3000001907,7730,NNB,B,7
8,test,5,0.0,1-Back,1.0,m,Tue Jan 20 2026 14:10:11 GMT-0600 (Central Standard Time),534515.5,013_y_m_n_a.png,O,m,983,9,1,2011.0,532504.5,7730,NNB,B,8
9,test,5,0.0,1-Back,1.0,m,Tue Jan 20 2026 14:10:11 GMT-0600 (Central Standard Time),537045.4000000954,173_y_f_n_a.png,O,m,1512,10,1,2524.9000000953674,534520.5,7730,NNB,B,9
10,test,5,0.0,1-Back,1.0,m,Tue Jan 20 2026 14:10:11 GMT-0600 (Central Standard Time),538911.2000000477,086_o_f_n_a.png,O,m,834,11,1,1859.7000000476837,537051.5,7730,NNB,B,10
11,test,5,1.0,1-Back,1.0,z,Tue Jan 20 2026 14:10:11 GMT-0600 (Central Standard Time),540926.2000000477,086_o_f_n_a.png,O,z,993,12,1,2008.7000000476837,538917.5,7730,NNB,B,11
12,test,5,0.0,1-Back,1.0,m,Tue Jan 20 2026 14:10:11 GMT-0600 (Central Standard Time),542675.8000001907,065_o_m_n_a.png,O,m,728,13,1,1744.7000000476837,540931.100000143,7730,NNB,B,12
13,test,5,0.0,1-Back,1.0,m,Tue Jan 20 2026 14:10:11 GMT-0600 (Central Standard Time),544693.4000000954,097_m_f_n_a.png,O,m,991,14,1,2009.9000000953674,542683.5,7730,NNB,B,13
14,test,5,1.0,1-Back,1.0,z,Tue Jan 20 2026 14:10:11 GMT-0600 (Central Standard Time),546792.4000000954,097_m_f_n_a.png,O,z,1068,15,1,2090.7999999523163,544701.600000143,7730,NNB,B,14
15,test,5,0.0,1-Back,1.0,m,Tue Jan 20 2026 14:10:11 GMT-0600 (Central Standard Time),548409.2000000477,065_o_m_n_a.png,O,m,584,16,1,1611.0,546798.2000000477,7730,NNB,B,15
16,test,5,0.0,1-Back,1.0,m,Tue Jan 20 2026 14:10:11 GMT-0600 (Central Standard Time),550391.5,029_m_f_n_a.png,O,m,951,17,1,1975.7999999523163,548415.7000000477,7730,NNB,B,16
17,test,5,0.0,1-Back,1.0,m,Tue Jan 20 2026 14:10:11 GMT-0600 (Central Standard Time),552191.0,178_m_m_n_a.png,O,m,769,18,1,1791.5,550399.5,7730,NNB,B,17
0,prac,1,0.0,2-Back,,,Tue Jan 20 2026 14:10:11 GMT-0600 (Central Standard Time),552191.0,013_y_m_n_a.png,O,space,9866,1,1,1791.5,550399.5,7730,NNB,B,0
0,prac,1,0.0,2-Back,,,Tue Jan 20 2026 14:10:11 GMT-0600 (Central Standard Time),552191.0,029_m_f_n_a.png,O,space,9866,2,1,1791.5,550399.5,7730,NNB,B,0
1,prac,1,1.0,2-Back,1.0,m,Tue Jan 20 2026 14:10:11 GMT-0600 (Central Standard Time),732555.9000000954,065_o_m_n_a.png,O,m,1459,3,1,2297.5999999046326,730258.3000001907,7730,NNB,B,1
1,prac,1,0.0,2-Back,0.0,m,Tue Jan 20 2026 14:10:11 GMT-0600 (Central Standard Time),735415.2000000477,086_o_f_n_a.png,O,None,2005,4,1,2854.2999999523163,732560.9000000954,7730,NNB,B,2
2,prac,1,0.0,2-Back,1.0,z,Tue Jan 20 2026 14:10:11 GMT-0600 (Central Standard Time),738014.100000143,065_o_m_n_a.png,O,z,1809,5,1,2590.600000143051,735423.5,7730,NNB,B,3
3,prac,1,1.0,2-Back,1.0,z,Tue Jan 20 2026 14:10:11 GMT-0600 (Central Standard Time),740318.5,086_o_f_n_a.png,O,z,1535,6,1,2293.899999856949,738024.600000143,7730,NNB,B,4
4,prac,1,0.0,2-Back,1.0,m,Tue Jan 20 2026 14:10:11 GMT-0600 (Central Standard Time),742514.0,178_m_m_n_a.png,O,m,1365,7,1,2185.5,740328.5,7730,NNB,B,5
5,prac,1,0.0,2-Back,1.0,m,Tue Jan 20 2026 14:10:11 GMT-0600 (Central Standard Time),744362.100000143,176_o_m_n_a.png,O,m,992,8,1,1838.1000001430511,742524.0,7730,NNB,B,6
6,prac,1,0.0,2-Back,1.0,m,Tue Jan 20 2026 14:10:11 GMT-0600 (Central Standard Time),746363.100000143,173_y_f_n_a.png,O,m,1170,9,1,1990.2999999523163,744372.8000001907,7730,NNB,B,7
7,prac,1,1.0,2-Back,1.0,z,Tue Jan 20 2026 14:10:11 GMT-0600 (Central Standard Time),748076.600000143,176_o_m_n_a.png,O,z,932,10,1,1704.1000001430511,746372.5,7730,NNB,B,8
8,prac,1,0.0,2-Back,1.0,m,Tue Jan 20 2026 14:10:11 GMT-0600 (Central Standard Time),750160.3000001907,152_y_f_n_a.png,O,m,1239,11,1,2072.300000190735,748088.0,7730,NNB,B,9
9,prac,1,0.0,2-Back,1.0,m,Tue Jan 20 2026 14:10:11 GMT-0600 (Central Standard Time),752045.8000001907,178_m_m_n_a.png,O,m,1099,12,1,1872.3000001907349,750173.5,7730,NNB,B,10
0,test,1,0.0,2-Back,,,Tue Jan 20 2026 14:10:11 GMT-0600 (Central Standard Time),752045.8000001907,153_y_m_n_a.png,O,space,3542,1,1,1872.3000001907349,750173.5,7730,NNB,B,0
0,test,1,0.0,2-Back,,,Tue Jan 20 2026 14:10:11 GMT-0600 (Central Standard Time),752045.8000001907,153_y_m_n_a.png,O,space,3542,2,1,1872.3000001907349,750173.5,7730,NNB,B,0
0,test,1,0.0,2-Back,0.0,m,Tue Jan 20 2026 14:10:11 GMT-0600 (Central Standard Time),825972.100000143,086_o_f_n_a.png,O,None,2018,3,1,3025.600000143051,822946.5,7730,NNB,B,1
1,test,1,0.0,2-Back,1.0,m,Tue Jan 20 2026 14:10:11 GMT-0600 (Central Standard Time),828918.600000143,126_m_m_n_a.png,O,m,1919,4,1,2941.7000000476837,825976.9000000954,7730,NNB,B,2
2,test,1,1.0,2-Back,1.0,z,Tue Jan 20 2026 14:10:11 GMT-0600 (Central Standard Time),830985.100000143,086_o_f_n_a.png,O,z,1048,5,1,2059.600000143051,828925.5,7730,NNB,B,3
3,test,1,0.0,2-Back,1.0,m,Tue Jan 20 2026 14:10:11 GMT-0600 (Central Standard Time),833219.600000143,152_y_f_n_a.png,O,m,1207,6,1,2226.100000143051,830993.5,7730,NNB,B,4
3,test,1,0.0,2-Back,0.0,m,Tue Jan 20 2026 14:10:11 GMT-0600 (Central Standard Time),835166.100000143,126_m_m_n_a.png,O,z,918,7,1,1938.1000001430511,833228.0,7730,NNB,B,5
4,test,1,1.0,2-Back,1.0,z,Tue Jan 20 2026 14:10:11 GMT-0600 (Central Standard Time),837465.600000143,152_y_f_n_a.png,O,z,1272,8,1,2293.9000000953674,835171.7000000477,7730,NNB,B,6
5,test,1,0.0,2-Back,1.0,m,Tue Jan 20 2026 14:10:11 GMT-0600 (Central Standard Time),839602.9000000954,013_y_m_n_a.png,O,m,1118,9,1,2133.9000000953674,837469.0,7730,NNB,B,7
6,test,1,0.0,2-Back,1.0,m,Tue Jan 20 2026 14:10:11 GMT-0600 (Central Standard Time),841547.8000001907,110_o_f_n_a.png,O,m,920,10,1,1937.2000000476837,839610.600000143,7730,NNB,B,8
7,test,1,1.0,2-Back,1.0,z,Tue Jan 20 2026 14:10:11 GMT-0600 (Central Standard Time),843298.0,013_y_m_n_a.png,O,z,732,11,1,1745.3999998569489,841552.600000143,7730,NNB,B,9
8,test,1,0.0,2-Back,1.0,m,Tue Jan 20 2026 14:10:11 GMT-0600 (Central Standard Time),845196.7000000477,029_m_f_n_a.png,O,m,879,12,1,1893.0999999046326,843303.600000143,7730,NNB,B,10
8,test,1,0.0,2-Back,0.0,m,Tue Jan 20 2026 14:10:11 GMT-0600 (Central Standard Time),847179.600000143,029_m_f_n_a.png,O,z,954,13,1,1976.6000001430511,845203.0,7730,NNB,B,11
9,test,1,0.0,2-Back,1.0,m,Tue Jan 20 2026 14:10:11 GMT-0600 (Central Standard Time),850064.600000143,065_o_m_n_a.png,O,m,1852,14,1,2882.5,847182.100000143,7730,NNB,B,12
9,test,1,0.0,2-Back,0.0,m,Tue Jan 20 2026 14:10:11 GMT-0600 (Central Standard Time),851945.7000000477,110_o_f_n_a.png,O,z,856,15,1,1869.8999998569489,850075.8000001907,7730,NNB,B,13
10,test,1,1.0,2-Back,1.0,z,Tue Jan 20 2026 14:10:11 GMT-0600 (Central Standard Time),854362.3000001907,065_o_m_n_a.png,O,z,1389,16,1,2410.7000000476837,851951.600000143,7730,NNB,B,14
11,test,1,0.0,2-Back,1.0,m,Tue Jan 20 2026 14:10:11 GMT-0600 (Central Standard Time),856409.2000000477,097_m_f_n_a.png,O,m,1032,17,1,2040.8999998569489,854368.3000001907,7730,NNB,B,15
12,test,1,0.0,2-Back,1.0,m,Tue Jan 20 2026 14:10:11 GMT-0600 (Central Standard Time),858593.9000000954,178_m_m_n_a.png,O,m,1150,18,1,2180.0999999046326,856413.8000001907,7730,NNB,B,16
0,test,2,0.0,2-Back,,,Tue Jan 20 2026 14:10:11 GMT-0600 (Central Standard Time),858593.9000000954,178_m_m_n_a.png,O,space,1854,1,1,2180.0999999046326,856413.8000001907,7730,NNB,B,0
0,test,2,0.0,2-Back,,,Tue Jan 20 2026 14:10:11 GMT-0600 (Central Standard Time),858593.9000000954,173_y_f_n_a.png,O,space,1854,2,1,2180.0999999046326,856413.8000001907,7730,NNB,B,0
1,test,2,1.0,2-Back,1.0,z,Tue Jan 20 2026 14:10:11 GMT-0600 (Central Standard Time),867508.8000001907,178_m_m_n_a.png,O,z,906,3,1,1927.8000001907349,865581.0,7730,NNB,B,1
2,test,2,0.0,2-Back,1.0,m,Tue Jan 20 2026 14:10:11 GMT-0600 (Central Standard Time),869488.8000001907,097_m_f_n_a.png,O,m,966,4,1,1974.2000000476837,867514.600000143,7730,NNB,B,2
2,test,2,0.0,2-Back,0.0,m,Tue Jan 20 2026 14:10:11 GMT-0600 (Central Standard Time),871671.7000000477,173_y_f_n_a.png,O,z,1151,5,1,2176.5999999046326,869495.100000143,7730,NNB,B,3
3,test,2,0.0,2-Back,1.0,m,Tue Jan 20 2026 14:10:11 GMT-0600 (Central Standard Time),873455.2000000477,065_o_m_n_a.png,O,m,760,6,1,1776.3999998569489,871678.8000001907,7730,NNB,B,4
4,test,2,0.0,2-Back,1.0,m,Tue Jan 20 2026 14:10:11 GMT-0600 (Central Standard Time),875474.3000001907,152_y_f_n_a.png,O,m,986,7,1,2010.8000001907349,873463.5,7730,NNB,B,5
5,test,2,1.0,2-Back,1.0,z,Tue Jan 20 2026 14:10:11 GMT-0600 (Central Standard Time),877436.2000000477,065_o_m_n_a.png,O,z,937,8,1,1957.5999999046326,875478.600000143,7730,NNB,B,6
6,test,2,0.0,2-Back,1.0,m,Tue Jan 20 2026 14:10:11 GMT-0600 (Central Standard Time),879185.8000001907,013_y_m_n_a.png,O,m,724,9,1,1743.4000000953674,877442.4000000954,7730,NNB,B,7
6,test,2,0.0,2-Back,0.0,m,Tue Jan 20 2026 14:10:11 GMT-0600 (Central Standard Time),881137.7000000477,013_y_m_n_a.png,O,z,918,10,1,1945.7999999523163,879191.9000000954,7730,NNB,B,8
7,test,2,0.0,2-Back,1.0,m,Tue Jan 20 2026 14:10:11 GMT-0600 (Central Standard Time),883019.3000001907,029_m_f_n_a.png,O,m,852,11,1,1876.0,881143.3000001907,7730,NNB,B,9
8,test,2,0.0,2-Back,1.0,m,Tue Jan 20 2026 14:10:11 GMT-0600 (Central Standard Time),885018.0,173_y_f_n_a.png,O,m,971,12,1,1992.5999999046326,883025.4000000954,7730,NNB,B,10
9,test,2,1.0,2-Back,1.0,z,Tue Jan 20 2026 14:10:11 GMT-0600 (Central Standard Time),886733.9000000954,029_m_f_n_a.png,O,z,686,13,1,1707.2000000476837,885026.7000000477,7730,NNB,B,11
10,test,2,0.0,2-Back,1.0,m,Tue Jan 20 2026 14:10:11 GMT-0600 (Central Standard Time),888349.4000000954,176_o_m_n_a.png,O,m,586,14,1,1608.2000000476837,886741.2000000477,7730,NNB,B,12
10,test,2,0.0,2-Back,0.0,m,Tue Jan 20 2026 14:10:11 GMT-0600 (Central Standard Time),890232.600000143,176_o_m_n_a.png,O,z,865,15,1,1879.2000000476837,888353.4000000954,7730,NNB,B,13
11,test,2,0.0,2-Back,1.0,m,Tue Jan 20 2026 14:10:11 GMT-0600 (Central Standard Time),892016.600000143,110_o_f_n_a.png,O,m,759,16,1,1777.4000000953674,890239.2000000477,7730,NNB,B,14
12,test,2,0.0,2-Back,1.0,m,Tue Jan 20 2026 14:10:11 GMT-0600 (Central Standard Time),894114.3000001907,126_m_m_n_a.png,O,m,1080,17,1,2090.0,892024.3000001907,7730,NNB,B,15
13,test,2,1.0,2-Back,1.0,z,Tue Jan 20 2026 14:10:11 GMT-0600 (Central Standard Time),895947.100000143,110_o_f_n_a.png,O,z,805,18,1,1826.2000000476837,894120.9000000954,7730,NNB,B,16
0,test,3,1.0,2-Back,,,Tue Jan 20 2026 14:10:11 GMT-0600 (Central Standard Time),895947.100000143,153_y_m_n_a.png,O,space,1220,1,1,1826.2000000476837,894120.9000000954,7730,NNB,B,0
0,test,3,1.0,2-Back,,,Tue Jan 20 2026 14:10:11 GMT-0600 (Central Standard Time),895947.100000143,153_y_m_n_a.png,O,space,1220,2,1,1826.2000000476837,894120.9000000954,7730,NNB,B,0
1,test,3,0.0,2-Back,1.0,m,Tue Jan 20 2026 14:10:11 GMT-0600 (Central Standard Time),905177.600000143,110_o_f_n_a.png,O,m,1865,3,1,2873.9000000953674,902303.7000000477,7730,NNB,B,1
2,test,3,0.0,2-Back,1.0,m,Tue Jan 20 2026 14:10:11 GMT-0600 (Central Standard Time),907043.0,178_m_m_n_a.png,O,m,845,4,1,1860.5999999046326,905182.4000000954,7730,NNB,B,2
3,test,3,1.0,2-Back,1.0,z,Tue Jan 20 2026 14:10:11 GMT-0600 (Central Standard Time),908909.9000000954,110_o_f_n_a.png,O,z,842,5,1,1860.0,907049.9000000954,7730,NNB,B,3
4,test,3,0.0,2-Back,1.0,m,Tue Jan 20 2026 14:10:11 GMT-0600 (Central Standard Time),910742.8000001907,013_y_m_n_a.png,O,m,811,6,1,1826.3000001907349,908916.5,7730,NNB,B,4
5,test,3,0.0,2-Back,1.0,m,Tue Jan 20 2026 14:10:11 GMT-0600 (Central Standard Time),912443.0,178_m_m_n_a.png,O,m,674,7,1,1694.5999999046326,910748.4000000954,7730,NNB,B,5
6,test,3,1.0,2-Back,1.0,z,Tue Jan 20 2026 14:10:11 GMT-0600 (Central Standard Time),914207.7000000477,013_y_m_n_a.png,O,z,741,8,1,1756.5999999046326,912451.100000143,7730,NNB,B,6
7,test,3,0.0,2-Back,1.0,m,Tue Jan 20 2026 14:10:11 GMT-0600 (Central Standard Time),915757.100000143,173_y_f_n_a.png,O,m,530,9,1,1540.0,914217.100000143,7730,NNB,B,7
7,test,3,0.0,2-Back,0.0,m,Tue Jan 20 2026 14:10:11 GMT-0600 (Central Standard Time),918174.100000143,126_m_m_n_a.png,O,z,1385,10,1,2414.100000143051,915760.0,7730,NNB,B,8
8,test,3,1.0,2-Back,1.0,z,Tue Jan 20 2026 14:10:11 GMT-0600 (Central Standard Time),920323.3000001907,173_y_f_n_a.png,O,z,1121,11,1,2141.300000190735,918182.0,7730,NNB,B,9
8,test,3,1.0,2-Back,0.0,z,Tue Jan 20 2026 14:10:11 GMT-0600 (Central Standard Time),922023.600000143,126_m_m_n_a.png,O,m,670,12,1,1694.0,920329.600000143,7730,NNB,B,10
8,test,3,0.0,2-Back,0.0,m,Tue Jan 20 2026 14:10:11 GMT-0600 (Central Standard Time),923956.3000001907,110_o_f_n_a.png,O,z,900,13,1,1924.8000001907349,922031.5,7730,NNB,B,11
9,test,3,0.0,2-Back,1.0,m,Tue Jan 20 2026 14:10:11 GMT-0600 (Central Standard Time),925820.600000143,097_m_f_n_a.png,O,m,836,14,1,1857.0,923963.600000143,7730,NNB,B,12
9,test,3,0.0,2-Back,0.0,m,Tue Jan 20 2026 14:10:11 GMT-0600 (Central Standard Time),927804.2000000477,065_o_m_n_a.png,O,z,962,15,1,1978.5,925825.7000000477,7730,NNB,B,13
10,test,3,1.0,2-Back,1.0,z,Tue Jan 20 2026 14:10:11 GMT-0600 (Central Standard Time),929554.3000001907,097_m_f_n_a.png,O,z,732,16,1,1745.5,927808.8000001907,7730,NNB,B,14
11,test,3,0.0,2-Back,1.0,m,Tue Jan 20 2026 14:10:11 GMT-0600 (Central Standard Time),931719.100000143,086_o_f_n_a.png,O,m,1142,17,1,2160.9000000953674,929558.2000000477,7730,NNB,B,15
11,test,3,0.0,2-Back,0.0,m,Tue Jan 20 2026 14:10:11 GMT-0600 (Central Standard Time),933668.7000000477,086_o_f_n_a.png,O,z,920,18,1,1942.3999998569489,931726.3000001907,7730,NNB,B,16
0,test,4,0.0,2-Back,,,Tue Jan 20 2026 14:10:11 GMT-0600 (Central Standard Time),933668.7000000477,176_o_m_n_a.png,O,space,934,1,1,1942.3999998569489,931726.3000001907,7730,NNB,B,0
0,test,4,0.0,2-Back,,,Tue Jan 20 2026 14:10:11 GMT-0600 (Central Standard Time),933668.7000000477,152_y_f_n_a.png,O,space,934,2,1,1942.3999998569489,931726.3000001907,7730,NNB,B,0
1,test,4,1.0,2-Back,1.0,z,Tue Jan 20 2026 14:10:11 GMT-0600 (Central Standard Time),941415.9000000954,176_o_m_n_a.png,O,z,624,3,1,1642.4000000953674,939773.5,7730,NNB,B,1
2,test,4,1.0,2-Back,1.0,z,Tue Jan 20 2026 14:10:11 GMT-0600 (Central Standard Time),944065.9000000954,152_y_f_n_a.png,O,z,1633,4,1,2647.2000000476837,941418.7000000477,7730,NNB,B,2
2,test,4,0.0,2-Back,0.0,m,Tue Jan 20 2026 14:10:11 GMT-0600 (Central Standard Time),947083.3000001907,110_o_f_n_a.png,O,None,2002,5,1,3013.5,944069.8000001907,7730,NNB,B,3
2,test,4,0.0,2-Back,0.0,m,Tue Jan 20 2026 14:10:11 GMT-0600 (Central Standard Time),948946.600000143,110_o_f_n_a.png,O,z,847,6,1,1856.4000000953674,947090.2000000477,7730,NNB,B,4
3,test,4,0.0,2-Back,1.0,m,Tue Jan 20 2026 14:10:11 GMT-0600 (Central Standard Time),950963.4000000954,029_m_f_n_a.png,O,m,1000,7,1,2011.2999999523163,948952.100000143,7730,NNB,B,5
4,test,4,0.0,2-Back,1.0,m,Tue Jan 20 2026 14:10:11 GMT-0600 (Central Standard Time),952880.4000000954,013_y_m_n_a.png,O,m,884,8,1,1909.9000000953674,950970.5,7730,NNB,B,6
5,test,4,1.0,2-Back,1.0,z,Tue Jan 20 2026 14:10:11 GMT-0600 (Central Standard Time),954578.4000000954,029_m_f_n_a.png,O,z,670,9,1,1689.5999999046326,952888.8000001907,7730,NNB,B,7
6,test,4,0.0,2-Back,1.0,m,Tue Jan 20 2026 14:10:11 GMT-0600 (Central Standard Time),956328.4000000954,126_m_m_n_a.png,O,m,717,10,1,1741.4000000953674,954587.0,7730,NNB,B,8
6,test,4,0.0,2-Back,0.0,m,Tue Jan 20 2026 14:10:11 GMT-0600 (Central Standard Time),958277.600000143,013_y_m_n_a.png,O,z,921,11,1,1944.2999999523163,956333.3000001907,7730,NNB,B,9
7,test,4,0.0,2-Back,1.0,m,Tue Jan 20 2026 14:10:11 GMT-0600 (Central Standard Time),959960.9000000954,086_o_f_n_a.png,O,m,651,12,1,1675.7000000476837,958285.2000000477,7730,NNB,B,10
7,test,4,0.0,2-Back,0.0,m,Tue Jan 20 2026 14:10:11 GMT-0600 (Central Standard Time),961559.600000143,153_y_m_n_a.png,O,z,574,13,1,1593.5,959966.100000143,7730,NNB,B,11
7,test,4,1.0,2-Back,0.0,z,Tue Jan 20 2026 14:10:11 GMT-0600 (Central Standard Time),963042.5,086_o_f_n_a.png,O,m,464,14,1,1477.3999998569489,961565.100000143,7730,NNB,B,12
8,test,4,1.0,2-Back,1.0,z,Tue Jan 20 2026 14:10:11 GMT-0600 (Central Standard Time),964641.5,153_y_m_n_a.png,O,z,572,15,1,1594.0,963047.5,7730,NNB,B,13
9,test,4,0.0,2-Back,1.0,m,Tue Jan 20 2026 14:10:11 GMT-0600 (Central Standard Time),966158.3000001907,178_m_m_n_a.png,O,m,493,16,1,1512.5,964645.8000001907,7730,NNB,B,14
9,test,4,0.0,2-Back,0.0,m,Tue Jan 20 2026 14:10:11 GMT-0600 (Central Standard Time),967790.3000001907,097_m_f_n_a.png,O,z,608,17,1,1625.0,966165.3000001907,7730,NNB,B,15
9,test,4,1.0,2-Back,0.0,z,Tue Jan 20 2026 14:10:11 GMT-0600 (Central Standard Time),969391.0,178_m_m_n_a.png,O,m,576,18,1,1594.3999998569489,967796.600000143,7730,NNB,B,16
0,test,5,1.0,2-Back,,,Tue Jan 20 2026 14:10:11 GMT-0600 (Central Standard Time),969391.0,153_y_m_n_a.png,O,space,800,1,1,1594.3999998569489,967796.600000143,7730,NNB,B,0
0,test,5,1.0,2-Back,,,Tue Jan 20 2026 14:10:11 GMT-0600 (Central Standard Time),969391.0,097_m_f_n_a.png,O,space,800,2,1,1594.3999998569489,967796.600000143,7730,NNB,B,0
1,test,5,1.0,2-Back,1.0,z,Tue Jan 20 2026 14:10:11 GMT-0600 (Central Standard Time),977370.5,153_y_m_n_a.png,O,z,1087,3,1,2106.5999999046326,975263.9000000954,7730,NNB,B,1
2,test,5,1.0,2-Back,1.0,z,Tue Jan 20 2026 14:10:11 GMT-0600 (Central Standard Time),979503.9000000954,097_m_f_n_a.png,O,z,1110,4,1,2129.2000000476837,977374.7000000477,7730,NNB,B,2
3,test,5,0.0,2-Back,1.0,m,Tue Jan 20 2026 14:10:11 GMT-0600 (Central Standard Time),981618.9000000954,086_o_f_n_a.png,O,m,1094,5,1,2107.2999999523163,979511.600000143,7730,NNB,B,3
4,test,5,0.0,2-Back,1.0,m,Tue Jan 20 2026 14:10:11 GMT-0600 (Central Standard Time),984106.3000001907,153_y_m_n_a.png,O,m,1460,6,1,2481.100000143051,981625.2000000477,7730,NNB,B,4
5,test,5,0.0,2-Back,1.0,m,Tue Jan 20 2026 14:10:11 GMT-0600 (Central Standard Time),985935.100000143,173_y_f_n_a.png,O,m,810,7,1,1822.0,984113.100000143,7730,NNB,B,5
6,test,5,0.0,2-Back,1.0,m,Tue Jan 20 2026 14:10:11 GMT-0600 (Central Standard Time),987734.2000000477,086_o_f_n_a.png,O,m,777,8,1,1794.0999999046326,985940.100000143,7730,NNB,B,6
7,test,5,1.0,2-Back,1.0,z,Tue Jan 20 2026 14:10:11 GMT-0600 (Central Standard Time),989516.600000143,173_y_f_n_a.png,O,z,754,9,1,1776.2000000476837,987740.4000000954,7730,NNB,B,7
8,test,5,0.0,2-Back,1.0,m,Tue Jan 20 2026 14:10:11 GMT-0600 (Central Standard Time),991334.7000000477,065_o_m_n_a.png,O,m,794,10,1,1814.2000000476837,989520.5,7730,NNB,B,8
9,test,5,0.0,2-Back,1.0,m,Tue Jan 20 2026 14:10:11 GMT-0600 (Central Standard Time),993466.0,029_m_f_n_a.png,O,m,1107,11,1,2128.5,991337.5,7730,NNB,B,9
9,test,5,0.0,2-Back,0.0,m,Tue Jan 20 2026 14:10:11 GMT-0600 (Central Standard Time),995231.3000001907,126_m_m_n_a.png,O,z,742,12,1,1761.8000001907349,993469.5,7730,NNB,B,10
10,test,5,0.0,2-Back,1.0,m,Tue Jan 20 2026 14:10:11 GMT-0600 (Central Standard Time),997233.7000000477,065_o_m_n_a.png,O,m,968,13,1,1999.8999998569489,995233.8000001907,7730,NNB,B,11
10,test,5,1.0,2-Back,0.0,z,Tue Jan 20 2026 14:10:11 GMT-0600 (Central Standard Time),999113.600000143,126_m_m_n_a.png,O,m,864,14,1,1872.9000000953674,997240.7000000477,7730,NNB,B,12
11,test,5,0.0,2-Back,1.0,m,Tue Jan 20 2026 14:10:11 GMT-0600 (Central Standard Time),1001132.0,152_y_f_n_a.png,O,m,1002,15,1,2015.6999998092651,999116.3000001907,7730,NNB,B,13
12,test,5,0.0,2-Back,1.0,m,Tue Jan 20 2026 14:10:11 GMT-0600 (Central Standard Time),1003228.600000143,176_o_m_n_a.png,O,m,1069,16,1,2093.7999999523163,1001134.8000001907,7730,NNB,B,14
13,test,5,0.0,2-Back,1.0,m,Tue Jan 20 2026 14:10:11 GMT-0600 (Central Standard Time),1005150.0,029_m_f_n_a.png,O,m,888,17,1,1915.5999999046326,1003234.4000000954,7730,NNB,B,15
14,test,5,1.0,2-Back,1.0,z,Tue Jan 20 2026 14:10:11 GMT-0600 (Central Standard Time),1006928.100000143,176_o_m_n_a.png,O,z,758,18,1,1770.9000000953674,1005157.2000000477,7730,NNB,B,16
