acc_sum,block,block_c,change,condition,correct,correct_response,datetime,endtime,face,project,response,response_time,row_sel,session_number,start_end,starttime,subject_id,task,task_vers,trial
0,prac,1,,1-Back,,,Thu Jan 22 2026 10:46:10 GMT-0600 (Central Standard Time),,012_o_f_d_a.png,O,space,2968,1,1,,,7728,VNB,C,0
1,prac,1,0.0,1-Back,1.0,m,Thu Jan 22 2026 10:46:10 GMT-0600 (Central Standard Time),190950.69999980927,022_y_f_n_a.png,O,m,1148,2,1,2008.0,188942.69999980927,7728,VNB,C,1
1,prac,1,0.0,1-Back,0.0,m,Thu Jan 22 2026 10:46:10 GMT-0600 (Central Standard Time),193798.39999961853,014_m_m_h_a.png,O,None,2001,3,1,2836.0,190962.39999961853,7728,VNB,C,2
2,prac,1,0.0,1-Back,1.0,m,Thu Jan 22 2026 10:46:10 GMT-0600 (Central Standard Time),195680.59999990463,025_y_m_d_a.png,O,m,1019,4,1,1870.8000001907349,193809.7999997139,7728,VNB,C,3
2,prac,1,0.0,1-Back,0.0,m,Thu Jan 22 2026 10:46:10 GMT-0600 (Central Standard Time),197764.2999997139,012_o_f_n_a.png,O,z,1215,5,1,2075.2999997138977,195689.0,7728,VNB,C,4
3,prac,1,1.0,1-Back,1.0,z,Thu Jan 22 2026 10:46:10 GMT-0600 (Central Standard Time),200196.09999990463,025_y_m_n_a.png,O,z,1584,6,1,2421.7000002861023,197774.39999961853,7728,VNB,C,5
4,prac,1,0.0,1-Back,1.0,m,Thu Jan 22 2026 10:46:10 GMT-0600 (Central Standard Time),202180.0,015_o_m_h_a.png,O,m,1137,7,1,1975.7000002861023,200204.2999997139,7728,VNB,C,6
5,prac,1,0.0,1-Back,1.0,m,Thu Jan 22 2026 10:46:10 GMT-0600 (Central Standard Time),204127.0,019_m_f_d_a.png,O,m,1069,8,1,1934.7000002861023,202192.2999997139,7728,VNB,C,7
6,prac,1,1.0,1-Back,1.0,z,Thu Jan 22 2026 10:46:10 GMT-0600 (Central Standard Time),205978.0,022_y_f_d_a.png,O,z,1008,9,1,1846.1000003814697,204131.89999961853,7728,VNB,C,8
7,prac,1,0.0,1-Back,1.0,m,Thu Jan 22 2026 10:46:10 GMT-0600 (Central Standard Time),207910.0,014_m_m_n_a.png,O,m,1085,10,1,1920.3000001907349,205989.69999980927,7728,VNB,C,9
8,prac,1,0.0,1-Back,1.0,m,Thu Jan 22 2026 10:46:10 GMT-0600 (Central Standard Time),209826.39999961853,012_o_f_h_a.png,O,m,1042,11,1,1905.5999999046326,207920.7999997139,7728,VNB,C,10
9,prac,1,0.0,1-Back,1.0,m,Thu Jan 22 2026 10:46:10 GMT-0600 (Central Standard Time),211610.89999961853,025_y_m_d_a.png,O,m,953,12,1,1774.0999999046326,209836.7999997139,7728,VNB,C,11
0,test,1,0.0,1-Back,,,Thu Jan 22 2026 10:46:10 GMT-0600 (Central Standard Time),211610.89999961853,022_y_f_d_a.png,O,space,7973,1,1,1774.0999999046326,209836.7999997139,7728,VNB,C,0
1,test,1,0.0,1-Back,1.0,m,Thu Jan 22 2026 10:46:10 GMT-0600 (Central Standard Time),232724.5,019_m_f_n_a.png,O,m,1051,2,1,2061.4000000953674,230663.09999990463,7728,VNB,C,1
2,test,1,0.0,1-Back,1.0,m,Thu Jan 22 2026 10:46:10 GMT-0600 (Central Standard Time),234867.59999990463,015_o_m_h_a.png,O,m,1128,3,1,2139.9000000953674,232727.69999980927,7728,VNB,C,2
3,test,1,1.0,1-Back,1.0,z,Thu Jan 22 2026 10:46:10 GMT-0600 (Central Standard Time),237718.0,014_m_m_h_a.png,O,z,1818,4,1,2843.300000190735,234874.69999980927,7728,VNB,C,3
4,test,1,0.0,1-Back,1.0,m,Thu Jan 22 2026 10:46:10 GMT-0600 (Central Standard Time),240167.2999997139,012_o_f_n_a.png,O,m,1421,5,1,2444.699999809265,237722.59999990463,7728,VNB,C,4
5,test,1,0.0,1-Back,1.0,m,Thu Jan 22 2026 10:46:10 GMT-0600 (Central Standard Time),242268.0,025_y_m_d_a.png,O,m,1070,6,1,2094.2000002861023,240173.7999997139,7728,VNB,C,5
6,test,1,1.0,1-Back,1.0,z,Thu Jan 22 2026 10:46:10 GMT-0600 (Central Standard Time),244415.89999961853,019_m_f_d_a.png,O,z,1129,7,1,2139.8999996185303,242276.0,7728,VNB,C,6
7,test,1,0.0,1-Back,1.0,m,Thu Jan 22 2026 10:46:10 GMT-0600 (Central Standard Time),246352.7999997139,022_y_f_h_a.png,O,m,918,8,1,1928.6999998092651,244424.09999990463,7728,VNB,C,7
8,test,1,0.0,1-Back,1.0,m,Thu Jan 22 2026 10:46:10 GMT-0600 (Central Standard Time),248349.19999980927,015_o_m_n_a.png,O,m,980,9,1,1990.0,246359.19999980927,7728,VNB,C,8
9,test,1,0.0,1-Back,1.0,m,Thu Jan 22 2026 10:46:10 GMT-0600 (Central Standard Time),250346.5,025_y_m_h_a.png,O,m,971,10,1,1987.5,248359.0,7728,VNB,C,9
10,test,1,0.0,1-Back,1.0,m,Thu Jan 22 2026 10:46:10 GMT-0600 (Central Standard Time),252262.2999997139,015_o_m_d_a.png,O,m,892,11,1,1907.5,250354.7999997139,7728,VNB,C,10
11,test,1,1.0,1-Back,1.0,z,Thu Jan 22 2026 10:46:10 GMT-0600 (Central Standard Time),254329.69999980927,012_o_f_d_a.png,O,z,1049,12,1,2064.4000000953674,252265.2999997139,7728,VNB,C,11
12,test,1,0.0,1-Back,1.0,m,Thu Jan 22 2026 10:46:10 GMT-0600 (Central Standard Time),256210.59999990463,014_m_m_n_a.png,O,m,862,13,1,1872.2000002861023,254338.39999961853,7728,VNB,C,12
13,test,1,1.0,1-Back,1.0,z,Thu Jan 22 2026 10:46:10 GMT-0600 (Central Standard Time),258294.89999961853,022_y_f_n_a.png,O,z,1061,14,1,2080.2999997138977,256214.59999990463,7728,VNB,C,13
14,test,1,0.0,1-Back,1.0,m,Thu Jan 22 2026 10:46:10 GMT-0600 (Central Standard Time),260392.5,019_m_f_h_a.png,O,m,1071,15,1,2091.0,258301.5,7728,VNB,C,14
15,test,1,0.0,1-Back,1.0,m,Thu Jan 22 2026 10:46:10 GMT-0600 (Central Standard Time),262927.7999997139,014_m_m_d_a.png,O,m,1518,16,1,2531.699999809265,260396.09999990463,7728,VNB,C,15
16,test,1,0.0,1-Back,1.0,m,Thu Jan 22 2026 10:46:10 GMT-0600 (Central Standard Time),264993.0,025_y_m_n_a.png,O,m,1040,17,1,2061.2000002861023,262931.7999997139,7728,VNB,C,16
17,test,1,0.0,1-Back,1.0,m,Thu Jan 22 2026 10:46:10 GMT-0600 (Central Standard Time),266976.19999980927,012_o_f_h_a.png,O,m,958,18,1,1974.9000000953674,265001.2999997139,7728,VNB,C,17
0,test,2,0.0,1-Back,,,Thu Jan 22 2026 10:46:10 GMT-0600 (Central Standard Time),266976.19999980927,025_y_m_n_a.png,O,space,2830,1,1,1974.9000000953674,265001.2999997139,7728,VNB,C,0
1,test,2,0.0,1-Back,1.0,m,Thu Jan 22 2026 10:46:10 GMT-0600 (Central Standard Time),273857.89999961853,022_y_f_h_a.png,O,m,1007,2,1,2023.7999997138977,271834.09999990463,7728,VNB,C,1
2,test,2,1.0,1-Back,1.0,m,Thu Jan 22 2026 10:46:10 GMT-0600 (Central Standard Time),275789.09999990463,015_o_m_n_a.png,O,m,901,3,1,1922.9000000953674,273866.19999980927,7728,VNB,C,2
3,test,2,0.0,1-Back,1.0,m,Thu Jan 22 2026 10:46:10 GMT-0600 (Central Standard Time),277737.59999990463,019_m_f_d_a.png,O,m,923,4,1,1940.9000000953674,275796.69999980927,7728,VNB,C,3
4,test,2,0.0,1-Back,1.0,z,Thu Jan 22 2026 10:46:10 GMT-0600 (Central Standard Time),279886.09999990463,014_m_m_d_a.png,O,z,1123,5,1,2139.800000190735,277746.2999997139,7728,VNB,C,4
5,test,2,0.0,1-Back,1.0,m,Thu Jan 22 2026 10:46:10 GMT-0600 (Central Standard Time),281820.39999961853,025_y_m_h_a.png,O,m,911,6,1,1925.3999996185303,279895.0,7728,VNB,C,5
6,test,2,1.0,1-Back,1.0,z,Thu Jan 22 2026 10:46:10 GMT-0600 (Central Standard Time),284502.89999961853,012_o_f_h_a.png,O,z,1660,7,1,2675.7999997138977,281827.09999990463,7728,VNB,C,6
7,test,2,0.0,1-Back,1.0,m,Thu Jan 22 2026 10:46:10 GMT-0600 (Central Standard Time),286452.09999990463,019_m_f_n_a.png,O,m,928,8,1,1942.3000001907349,284509.7999997139,7728,VNB,C,7
8,test,2,0.0,1-Back,1.0,m,Thu Jan 22 2026 10:46:10 GMT-0600 (Central Standard Time),289200.69999980927,022_y_f_d_a.png,O,m,1722,9,1,2737.300000190735,286463.39999961853,7728,VNB,C,8
8,test,2,0.0,1-Back,0.0,m,Thu Jan 22 2026 10:46:10 GMT-0600 (Central Standard Time),292233.19999980927,014_m_m_n_a.png,O,None,2016,10,1,3029.9000000953674,289203.2999997139,7728,VNB,C,9
9,test,2,1.0,1-Back,1.0,m,Thu Jan 22 2026 10:46:10 GMT-0600 (Central Standard Time),294099.89999961853,019_m_f_h_a.png,O,m,843,11,1,1857.3999996185303,292242.5,7728,VNB,C,10
10,test,2,0.0,1-Back,1.0,z,Thu Jan 22 2026 10:46:10 GMT-0600 (Central Standard Time),296166.7999997139,015_o_m_h_a.png,O,z,1044,12,1,2062.2999997138977,294104.5,7728,VNB,C,11
11,test,2,0.0,1-Back,1.0,m,Thu Jan 22 2026 10:46:10 GMT-0600 (Central Standard Time),298014.7999997139,025_y_m_d_a.png,O,m,825,13,1,1842.5999999046326,296172.19999980927,7728,VNB,C,12
12,test,2,0.0,1-Back,1.0,m,Thu Jan 22 2026 10:46:10 GMT-0600 (Central Standard Time),300580.19999980927,012_o_f_n_a.png,O,m,1546,14,1,2559.4000000953674,298020.7999997139,7728,VNB,C,13
13,test,2,0.0,1-Back,1.0,z,Thu Jan 22 2026 10:46:10 GMT-0600 (Central Standard Time),302598.69999980927,022_y_f_n_a.png,O,z,995,15,1,2012.0,300586.69999980927,7728,VNB,C,14
14,test,2,1.0,1-Back,1.0,m,Thu Jan 22 2026 10:46:10 GMT-0600 (Central Standard Time),304480.09999990463,014_m_m_h_a.png,O,m,860,16,1,1873.7000002861023,302606.39999961853,7728,VNB,C,15
15,test,2,0.0,1-Back,1.0,m,Thu Jan 22 2026 10:46:10 GMT-0600 (Central Standard Time),306628.19999980927,012_o_f_d_a.png,O,m,1128,17,1,2140.4000000953674,304487.7999997139,7728,VNB,C,16
15,test,2,1.0,1-Back,0.0,z,Thu Jan 22 2026 10:46:10 GMT-0600 (Central Standard Time),309646.59999990463,015_o_m_d_a.png,O,None,2001,18,1,3010.9000000953674,306635.69999980927,7728,VNB,C,17
0,test,3,1.0,1-Back,,,Thu Jan 22 2026 10:46:10 GMT-0600 (Central Standard Time),309646.59999990463,012_o_f_h_a.png,O,space,2489,1,1,3010.9000000953674,306635.69999980927,7728,VNB,C,0
1,test,3,0.0,1-Back,1.0,m,Thu Jan 22 2026 10:46:10 GMT-0600 (Central Standard Time),316108.19999980927,019_m_f_d_a.png,O,m,836,2,1,1857.8000001907349,314250.39999961853,7728,VNB,C,1
2,test,3,1.0,1-Back,1.0,m,Thu Jan 22 2026 10:46:10 GMT-0600 (Central Standard Time),318458.89999961853,014_m_m_n_a.png,O,m,1317,3,1,2345.2999997138977,316113.59999990463,7728,VNB,C,2
3,test,3,0.0,1-Back,1.0,z,Thu Jan 22 2026 10:46:10 GMT-0600 (Central Standard Time),320658.5,012_o_f_n_a.png,O,z,1173,4,1,2192.0,318466.5,7728,VNB,C,3
4,test,3,1.0,1-Back,1.0,m,Thu Jan 22 2026 10:46:10 GMT-0600 (Central Standard Time),322890.09999990463,015_o_m_d_a.png,O,m,1204,5,1,2226.9000000953674,320663.19999980927,7728,VNB,C,4
5,test,3,0.0,1-Back,1.0,m,Thu Jan 22 2026 10:46:10 GMT-0600 (Central Standard Time),325057.69999980927,022_y_f_h_a.png,O,m,1140,6,1,2160.5,322897.19999980927,7728,VNB,C,5
6,test,3,0.0,1-Back,1.0,z,Thu Jan 22 2026 10:46:10 GMT-0600 (Central Standard Time),327188.09999990463,025_y_m_h_a.png,O,z,1109,7,1,2123.300000190735,325064.7999997139,7728,VNB,C,6
7,test,3,0.0,1-Back,1.0,m,Thu Jan 22 2026 10:46:10 GMT-0600 (Central Standard Time),329206.7999997139,019_m_f_n_a.png,O,m,984,8,1,2011.2999997138977,327195.5,7728,VNB,C,7
8,test,3,0.0,1-Back,1.0,m,Thu Jan 22 2026 10:46:10 GMT-0600 (Central Standard Time),331171.2999997139,022_y_f_d_a.png,O,m,939,9,1,1957.7999997138977,329213.5,7728,VNB,C,8
9,test,3,1.0,1-Back,1.0,m,Thu Jan 22 2026 10:46:10 GMT-0600 (Central Standard Time),333237.7999997139,015_o_m_n_a.png,O,m,1036,10,1,2062.4000000953674,331175.39999961853,7728,VNB,C,9
10,test,3,0.0,1-Back,1.0,m,Thu Jan 22 2026 10:46:10 GMT-0600 (Central Standard Time),335269.5,014_m_m_h_a.png,O,m,1002,11,1,2024.1000003814697,333245.39999961853,7728,VNB,C,10
11,test,3,0.0,1-Back,1.0,z,Thu Jan 22 2026 10:46:10 GMT-0600 (Central Standard Time),337336.39999961853,019_m_f_h_a.png,O,z,1047,12,1,2061.199999809265,335275.19999980927,7728,VNB,C,11
12,test,3,1.0,1-Back,1.0,m,Thu Jan 22 2026 10:46:10 GMT-0600 (Central Standard Time),339153.89999961853,012_o_f_d_a.png,O,m,797,13,1,1807.7999997138977,337346.09999990463,7728,VNB,C,12
13,test,3,0.0,1-Back,1.0,z,Thu Jan 22 2026 10:46:10 GMT-0600 (Central Standard Time),341551.09999990463,014_m_m_d_a.png,O,z,1383,14,1,2387.0,339164.09999990463,7728,VNB,C,13
14,test,3,0.0,1-Back,1.0,m,Thu Jan 22 2026 10:46:10 GMT-0600 (Central Standard Time),343600.19999980927,025_y_m_n_a.png,O,m,1022,15,1,2043.0,341557.19999980927,7728,VNB,C,14
15,test,3,1.0,1-Back,1.0,m,Thu Jan 22 2026 10:46:10 GMT-0600 (Central Standard Time),345616.7999997139,015_o_m_h_a.png,O,m,989,16,1,2012.6999998092651,343604.09999990463,7728,VNB,C,15
16,test,3,0.0,1-Back,1.0,m,Thu Jan 22 2026 10:46:10 GMT-0600 (Central Standard Time),347682.69999980927,025_y_m_d_a.png,O,m,1046,17,1,2059.5999999046326,345623.09999990463,7728,VNB,C,16
16,test,3,1.0,1-Back,0.0,m,Thu Jan 22 2026 10:46:10 GMT-0600 (Central Standard Time),349947.59999990463,022_y_f_n_a.png,O,z,1236,18,1,2254.5,347693.09999990463,7728,VNB,C,17
0,test,4,1.0,1-Back,,,Thu Jan 22 2026 10:46:10 GMT-0600 (Central Standard Time),349947.59999990463,014_m_m_d_a.png,O,space,2155,1,1,2254.5,347693.09999990463,7728,VNB,C,0
1,test,4,0.0,1-Back,1.0,z,Thu Jan 22 2026 10:46:10 GMT-0600 (Central Standard Time),356679.39999961853,015_o_m_d_a.png,O,z,1517,2,1,2539.0,354140.39999961853,7728,VNB,C,1
2,test,4,0.0,1-Back,1.0,m,Thu Jan 22 2026 10:46:10 GMT-0600 (Central Standard Time),358778.7999997139,025_y_m_h_a.png,O,m,1080,3,1,2089.4000000953674,356689.39999961853,7728,VNB,C,2
2,test,4,0.0,1-Back,0.0,m,Thu Jan 22 2026 10:46:10 GMT-0600 (Central Standard Time),360995.19999980927,019_m_f_n_a.png,O,z,1195,4,1,2204.5999999046326,358790.59999990463,7728,VNB,C,3
2,test,4,1.0,1-Back,0.0,m,Thu Jan 22 2026 10:46:10 GMT-0600 (Central Standard Time),363744.59999990463,012_o_f_h_a.png,O,z,1714,5,1,2742.9000000953674,361001.69999980927,7728,VNB,C,4
3,test,4,0.0,1-Back,1.0,m,Thu Jan 22 2026 10:46:10 GMT-0600 (Central Standard Time),365876.2999997139,014_m_m_n_a.png,O,m,1111,6,1,2121.5,363754.7999997139,7728,VNB,C,5
4,test,4,0.0,1-Back,1.0,m,Thu Jan 22 2026 10:46:10 GMT-0600 (Central Standard Time),368075.39999961853,025_y_m_d_a.png,O,m,1178,7,1,2194.199999809265,365881.19999980927,7728,VNB,C,6
5,test,4,1.0,1-Back,1.0,z,Thu Jan 22 2026 10:46:10 GMT-0600 (Central Standard Time),370376.09999990463,022_y_f_d_a.png,O,z,1269,8,1,2297.5999999046326,368078.5,7728,VNB,C,7
6,test,4,0.0,1-Back,1.0,m,Thu Jan 22 2026 10:46:10 GMT-0600 (Central Standard Time),372358.09999990463,019_m_f_h_a.png,O,m,959,9,1,1974.0,370384.09999990463,7728,VNB,C,8
7,test,4,0.0,1-Back,1.0,z,Thu Jan 22 2026 10:46:10 GMT-0600 (Central Standard Time),374457.09999990463,015_o_m_h_a.png,O,z,1074,10,1,2091.300000190735,372365.7999997139,7728,VNB,C,9
8,test,4,1.0,1-Back,1.0,m,Thu Jan 22 2026 10:46:10 GMT-0600 (Central Standard Time),376373.19999980927,012_o_f_n_a.png,O,m,885,11,1,1905.8000001907349,374467.39999961853,7728,VNB,C,10
9,test,4,0.0,1-Back,1.0,m,Thu Jan 22 2026 10:46:10 GMT-0600 (Central Standard Time),378672.2999997139,019_m_f_d_a.png,O,m,1279,12,1,2291.7999997138977,376380.5,7728,VNB,C,11
10,test,4,0.0,1-Back,1.0,m,Thu Jan 22 2026 10:46:10 GMT-0600 (Central Standard Time),380738.2999997139,022_y_f_n_a.png,O,m,1045,13,1,2060.199999809265,378678.09999990463,7728,VNB,C,12
11,test,4,0.0,1-Back,1.0,m,Thu Jan 22 2026 10:46:10 GMT-0600 (Central Standard Time),382971.2999997139,012_o_f_d_a.png,O,m,1204,14,1,2224.2999997138977,380747.0,7728,VNB,C,13
12,test,4,0.0,1-Back,1.0,m,Thu Jan 22 2026 10:46:10 GMT-0600 (Central Standard Time),384937.09999990463,022_y_f_h_a.png,O,m,940,15,1,1955.5,382981.59999990463,7728,VNB,C,14
13,test,4,1.0,1-Back,1.0,z,Thu Jan 22 2026 10:46:10 GMT-0600 (Central Standard Time),387003.09999990463,014_m_m_h_a.png,O,z,1045,16,1,2058.5999999046326,384944.5,7728,VNB,C,15
14,test,4,0.0,1-Back,1.0,m,Thu Jan 22 2026 10:46:10 GMT-0600 (Central Standard Time),389051.7999997139,015_o_m_n_a.png,O,m,1027,17,1,2039.6999998092651,387012.09999990463,7728,VNB,C,16
15,test,4,1.0,1-Back,1.0,z,Thu Jan 22 2026 10:46:10 GMT-0600 (Central Standard Time),391435.09999990463,025_y_m_n_a.png,O,z,1360,18,1,2375.0,389060.09999990463,7728,VNB,C,17
0,test,5,1.0,1-Back,,,Thu Jan 22 2026 10:46:10 GMT-0600 (Central Standard Time),391435.09999990463,015_o_m_n_a.png,O,space,1843,1,1,2375.0,389060.09999990463,7728,VNB,C,0
1,test,5,1.0,1-Back,1.0,m,Thu Jan 22 2026 10:46:10 GMT-0600 (Central Standard Time),397250.09999990463,012_o_f_h_a.png,O,m,918,2,1,1939.3000001907349,395310.7999997139,7728,VNB,C,1
2,test,5,0.0,1-Back,1.0,m,Thu Jan 22 2026 10:46:10 GMT-0600 (Central Standard Time),399366.89999961853,025_y_m_d_a.png,O,m,1094,3,1,2109.3999996185303,397257.5,7728,VNB,C,2
3,test,5,0.0,1-Back,1.0,z,Thu Jan 22 2026 10:46:10 GMT-0600 (Central Standard Time),401517.39999961853,015_o_m_d_a.png,O,z,1128,4,1,2142.0,399375.39999961853,7728,VNB,C,3
4,test,5,0.0,1-Back,1.0,m,Thu Jan 22 2026 10:46:10 GMT-0600 (Central Standard Time),403533.69999980927,019_m_f_h_a.png,O,m,996,5,1,2009.3000001907349,401524.39999961853,7728,VNB,C,4
5,test,5,0.0,1-Back,1.0,m,Thu Jan 22 2026 10:46:10 GMT-0600 (Central Standard Time),406464.0,022_y_f_n_a.png,O,m,1915,6,1,2925.0,403539.0,7728,VNB,C,5
6,test,5,1.0,1-Back,1.0,z,Thu Jan 22 2026 10:46:10 GMT-0600 (Central Standard Time),408581.59999990463,012_o_f_n_a.png,O,z,1096,7,1,2112.800000190735,406468.7999997139,7728,VNB,C,6
7,test,5,0.0,1-Back,1.0,m,Thu Jan 22 2026 10:46:10 GMT-0600 (Central Standard Time),410579.09999990463,019_m_f_d_a.png,O,m,980,8,1,1988.4000000953674,408590.69999980927,7728,VNB,C,7
7,test,5,0.0,1-Back,0.0,m,Thu Jan 22 2026 10:46:10 GMT-0600 (Central Standard Time),412960.39999961853,025_y_m_h_a.png,O,z,1356,9,1,2372.0,410588.39999961853,7728,VNB,C,8
7,test,5,0.0,1-Back,0.0,m,Thu Jan 22 2026 10:46:10 GMT-0600 (Central Standard Time),415995.2999997139,022_y_f_d_a.png,O,None,2017,10,1,3032.0,412963.2999997139,7728,VNB,C,9
8,test,5,0.0,1-Back,1.0,m,Thu Jan 22 2026 10:46:10 GMT-0600 (Central Standard Time),417826.2999997139,014_m_m_n_a.png,O,m,805,11,1,1826.6999998092651,415999.59999990463,7728,VNB,C,10
9,test,5,1.0,1-Back,1.0,z,Thu Jan 22 2026 10:46:10 GMT-0600 (Central Standard Time),420092.59999990463,019_m_f_n_a.png,O,z,1244,12,1,2260.800000190735,417831.7999997139,7728,VNB,C,11
10,test,5,0.0,1-Back,1.0,m,Thu Jan 22 2026 10:46:10 GMT-0600 (Central Standard Time),422125.0,015_o_m_h_a.png,O,m,1007,13,1,2025.1000003814697,420099.89999961853,7728,VNB,C,12
11,test,5,0.0,1-Back,1.0,z,Thu Jan 22 2026 10:46:10 GMT-0600 (Central Standard Time),424291.89999961853,014_m_m_h_a.png,O,z,1136,14,1,2161.7999997138977,422130.09999990463,7728,VNB,C,13
12,test,5,1.0,1-Back,1.0,m,Thu Jan 22 2026 10:46:10 GMT-0600 (Central Standard Time),426306.7999997139,012_o_f_d_a.png,O,m,988,15,1,2008.6999998092651,424298.09999990463,7728,VNB,C,14
12,test,5,0.0,1-Back,0.0,m,Thu Jan 22 2026 10:46:10 GMT-0600 (Central Standard Time),428473.2999997139,025_y_m_n_a.png,O,z,1140,16,1,2159.9000000953674,426313.39999961853,7728,VNB,C,15
12,test,5,0.0,1-Back,0.0,m,Thu Jan 22 2026 10:46:10 GMT-0600 (Central Standard Time),431505.39999961853,022_y_f_h_a.png,O,None,2014,17,1,3023.199999809265,428482.19999980927,7728,VNB,C,16
13,test,5,0.0,1-Back,1.0,m,Thu Jan 22 2026 10:46:10 GMT-0600 (Central Standard Time),433754.39999961853,014_m_m_d_a.png,O,m,1228,18,1,2240.5,431513.89999961853,7728,VNB,C,17
0,prac,1,0.0,2-Back,,,Thu Jan 22 2026 10:46:10 GMT-0600 (Central Standard Time),433754.39999961853,019_m_f_n_a.png,O,space,6100,1,1,2240.5,431513.89999961853,7728,VNB,C,0
0,prac,1,0.0,2-Back,,,Thu Jan 22 2026 10:46:10 GMT-0600 (Central Standard Time),433754.39999961853,012_o_f_h_a.png,O,space,6100,2,1,2240.5,431513.89999961853,7728,VNB,C,0
0,prac,1,0.0,2-Back,0.0,m,Thu Jan 22 2026 10:46:10 GMT-0600 (Central Standard Time),545469.0,015_o_m_d_a.png,O,None,2005,3,1,2854.1000003814697,542614.8999996185,7728,VNB,C,1
0,prac,1,1.0,2-Back,0.0,z,Thu Jan 22 2026 10:46:10 GMT-0600 (Central Standard Time),548320.0999999046,014_m_m_h_a.png,O,None,2004,4,1,2842.7000002861023,545477.3999996185,7728,VNB,C,2
0,prac,1,0.0,2-Back,0.0,m,Thu Jan 22 2026 10:46:10 GMT-0600 (Central Standard Time),551185.5,022_y_f_n_a.png,O,None,2016,5,1,2851.800000190735,548333.6999998093,7728,VNB,C,3
0,prac,1,1.0,2-Back,0.0,z,Thu Jan 22 2026 10:46:10 GMT-0600 (Central Standard Time),554050.0,015_o_m_h_a.png,O,None,2003,6,1,2854.300000190735,551195.6999998093,7728,VNB,C,4
0,prac,1,1.0,2-Back,0.0,z,Thu Jan 22 2026 10:46:10 GMT-0600 (Central Standard Time),556915.0999999046,025_y_m_n_a.png,O,None,2017,7,1,2855.5999999046326,554059.5,7728,VNB,C,5
0,prac,1,0.0,2-Back,0.0,m,Thu Jan 22 2026 10:46:10 GMT-0600 (Central Standard Time),559782.1999998093,019_m_f_d_a.png,O,None,2009,8,1,2856.5,556925.6999998093,7728,VNB,C,6
0,prac,1,0.0,2-Back,0.0,m,Thu Jan 22 2026 10:46:10 GMT-0600 (Central Standard Time),562649.2999997139,012_o_f_d_a.png,O,None,2016,9,1,2857.0999999046326,559792.1999998093,7728,VNB,C,7
0,prac,1,0.0,2-Back,0.0,m,Thu Jan 22 2026 10:46:10 GMT-0600 (Central Standard Time),565430.3999996185,014_m_m_h_a.png,O,None,2006,10,1,2772.699999809265,562657.6999998093,7728,VNB,C,8
0,prac,1,1.0,2-Back,0.0,z,Thu Jan 22 2026 10:46:10 GMT-0600 (Central Standard Time),568295.5,022_y_f_d_a.png,O,None,2004,11,1,2858.6000003814697,565436.8999996185,7728,VNB,C,9
0,prac,1,0.0,2-Back,0.0,m,Thu Jan 22 2026 10:46:10 GMT-0600 (Central Standard Time),571163.7999997139,015_o_m_n_a.png,O,None,2010,12,1,2857.0999999046326,568306.6999998093,7728,VNB,C,10
0,prac,2,0.0,2-Back,,,Thu Jan 22 2026 10:46:10 GMT-0600 (Central Standard Time),571163.7999997139,019_m_f_n_a.png,O,a,8569,1,1,2857.0999999046326,568306.6999998093,7728,VNB,C,0
0,prac,2,0.0,2-Back,,,Thu Jan 22 2026 10:46:10 GMT-0600 (Central Standard Time),571163.7999997139,012_o_f_h_a.png,O,a,8569,2,1,2857.0999999046326,568306.6999998093,7728,VNB,C,0
1,prac,2,0.0,2-Back,1.0,m,Thu Jan 22 2026 10:46:10 GMT-0600 (Central Standard Time),587589.7999997139,015_o_m_d_a.png,O,m,1771,3,1,2638.2999997138977,584951.5,7728,VNB,C,1
2,prac,2,1.0,2-Back,1.0,z,Thu Jan 22 2026 10:46:10 GMT-0600 (Central Standard Time),590205.1999998093,014_m_m_h_a.png,O,z,1829,4,1,2604.199999809265,587601.0,7728,VNB,C,2
2,prac,2,0.0,2-Back,0.0,m,Thu Jan 22 2026 10:46:10 GMT-0600 (Central Standard Time),593072.0999999046,022_y_f_n_a.png,O,None,2012,5,1,2862.0,590210.0999999046,7728,VNB,C,3
2,prac,2,1.0,2-Back,0.0,z,Thu Jan 22 2026 10:46:10 GMT-0600 (Central Standard Time),595188.5999999046,015_o_m_h_a.png,O,m,1257,6,1,2107.2000002861023,593081.3999996185,7728,VNB,C,4
2,prac,2,1.0,2-Back,0.0,z,Thu Jan 22 2026 10:46:10 GMT-0600 (Central Standard Time),598036.0,025_y_m_n_a.png,O,None,2008,7,1,2840.800000190735,595195.1999998093,7728,VNB,C,5
2,prac,2,0.0,2-Back,0.0,m,Thu Jan 22 2026 10:46:10 GMT-0600 (Central Standard Time),600918.5999999046,019_m_f_d_a.png,O,None,2017,8,1,2872.4000000953674,598046.1999998093,7728,VNB,C,6
2,prac,2,0.0,2-Back,0.0,m,Thu Jan 22 2026 10:46:10 GMT-0600 (Central Standard Time),603769.1999998093,012_o_f_d_a.png,O,None,2009,9,1,2839.0,600930.1999998093,7728,VNB,C,7
2,prac,2,0.0,2-Back,0.0,m,Thu Jan 22 2026 10:46:10 GMT-0600 (Central Standard Time),606534.8999996185,014_m_m_h_a.png,O,None,2004,10,1,2755.0999999046326,603779.7999997139,7728,VNB,C,8
2,prac,2,1.0,2-Back,0.0,z,Thu Jan 22 2026 10:46:10 GMT-0600 (Central Standard Time),609415.8999996185,022_y_f_d_a.png,O,None,2013,11,1,2860.699999809265,606555.1999998093,7728,VNB,C,9
2,prac,2,0.0,2-Back,0.0,m,Thu Jan 22 2026 10:46:10 GMT-0600 (Central Standard Time),612281.6999998093,015_o_m_n_a.png,O,None,2007,12,1,2856.0999999046326,609425.5999999046,7728,VNB,C,10
0,test,1,0.0,2-Back,,,Thu Jan 22 2026 10:46:10 GMT-0600 (Central Standard Time),612281.6999998093,025_y_m_h_a.png,O,space,7208,1,1,2856.0999999046326,609425.5999999046,7728,VNB,C,0
0,test,1,0.0,2-Back,,,Thu Jan 22 2026 10:46:10 GMT-0600 (Central Standard Time),612281.6999998093,012_o_f_n_a.png,O,space,7208,2,1,2856.0999999046326,609425.5999999046,7728,VNB,C,0
1,test,1,0.0,2-Back,1.0,z,Thu Jan 22 2026 10:46:10 GMT-0600 (Central Standard Time),640158.8999996185,015_o_m_h_a.png,O,z,1401,3,1,2425.199999809265,637733.6999998093,7728,VNB,C,1
2,test,1,0.0,2-Back,1.0,m,Thu Jan 22 2026 10:46:10 GMT-0600 (Central Standard Time),642622.0,019_m_f_d_a.png,O,m,1442,4,1,2457.4000000953674,640164.5999999046,7728,VNB,C,2
3,test,1,1.0,2-Back,1.0,m,Thu Jan 22 2026 10:46:10 GMT-0600 (Central Standard Time),645623.0,025_y_m_n_a.png,O,m,1969,5,1,2994.0,642629.0,7728,VNB,C,3
3,test,1,0.0,2-Back,0.0,z,Thu Jan 22 2026 10:46:10 GMT-0600 (Central Standard Time),648020.1999998093,022_y_f_d_a.png,O,m,1377,6,1,2389.5999999046326,645630.5999999046,7728,VNB,C,4
3,test,1,0.0,2-Back,0.0,m,Thu Jan 22 2026 10:46:10 GMT-0600 (Central Standard Time),650286.2999997139,014_m_m_h_a.png,O,z,1232,7,1,2257.199999809265,648029.0999999046,7728,VNB,C,5
3,test,1,1.0,2-Back,0.0,m,Thu Jan 22 2026 10:46:10 GMT-0600 (Central Standard Time),653318.6999998093,022_y_f_n_a.png,O,None,2012,8,1,3023.5,650295.1999998093,7728,VNB,C,6
3,test,1,0.0,2-Back,0.0,z,Thu Jan 22 2026 10:46:10 GMT-0600 (Central Standard Time),656352.5,012_o_f_h_a.png,O,None,2017,9,1,3026.1000003814697,653326.3999996185,7728,VNB,C,7
4,test,1,0.0,2-Back,1.0,m,Thu Jan 22 2026 10:46:10 GMT-0600 (Central Standard Time),658400.5999999046,015_o_m_d_a.png,O,m,1015,10,1,2039.7000002861023,656360.8999996185,7728,VNB,C,8
5,test,1,1.0,2-Back,1.0,m,Thu Jan 22 2026 10:46:10 GMT-0600 (Central Standard Time),660333.0,014_m_m_d_a.png,O,m,903,11,1,1927.1000003814697,658405.8999996185,7728,VNB,C,9
5,test,1,0.0,2-Back,0.0,m,Thu Jan 22 2026 10:46:10 GMT-0600 (Central Standard Time),662782.0999999046,019_m_f_n_a.png,O,z,1425,12,1,2444.300000190735,660337.7999997139,7728,VNB,C,10
5,test,1,0.0,2-Back,0.0,m,Thu Jan 22 2026 10:46:10 GMT-0600 (Central Standard Time),665598.5,022_y_f_h_a.png,O,z,1792,13,1,2811.9000000953674,662786.5999999046,7728,VNB,C,11
6,test,1,0.0,2-Back,1.0,z,Thu Jan 22 2026 10:46:10 GMT-0600 (Central Standard Time),668297.3999996185,014_m_m_n_a.png,O,z,1674,14,1,2694.0999999046326,665603.2999997139,7728,VNB,C,12
7,test,1,0.0,2-Back,1.0,m,Thu Jan 22 2026 10:46:10 GMT-0600 (Central Standard Time),670595.8999996185,025_y_m_d_a.png,O,m,1268,15,1,2290.5999999046326,668305.2999997139,7728,VNB,C,13
8,test,1,1.0,2-Back,1.0,m,Thu Jan 22 2026 10:46:10 GMT-0600 (Central Standard Time),672796.5999999046,019_m_f_h_a.png,O,m,1180,16,1,2193.7000002861023,670602.8999996185,7728,VNB,C,14
8,test,1,0.0,2-Back,0.0,z,Thu Jan 22 2026 10:46:10 GMT-0600 (Central Standard Time),675829.6999998093,012_o_f_d_a.png,O,None,2019,17,1,3027.4000000953674,672802.2999997139,7728,VNB,C,15
8,test,1,0.0,2-Back,0.0,m,Thu Jan 22 2026 10:46:10 GMT-0600 (Central Standard Time),678427.7999997139,015_o_m_n_a.png,O,z,1577,18,1,2588.7999997138977,675839.0,7728,VNB,C,16
0,test,2,0.0,2-Back,,,Thu Jan 22 2026 10:46:10 GMT-0600 (Central Standard Time),678427.7999997139,014_m_m_h_a.png,O,space,1699,1,1,2588.7999997138977,675839.0,7728,VNB,C,0
0,test,2,0.0,2-Back,,,Thu Jan 22 2026 10:46:10 GMT-0600 (Central Standard Time),678427.7999997139,022_y_f_n_a.png,O,space,1699,2,1,2588.7999997138977,675839.0,7728,VNB,C,0
1,test,2,1.0,2-Back,1.0,z,Thu Jan 22 2026 10:46:10 GMT-0600 (Central Standard Time),687790.1999998093,012_o_f_h_a.png,O,z,1434,3,1,2456.199999809265,685334.0,7728,VNB,C,1
2,test,2,0.0,2-Back,1.0,m,Thu Jan 22 2026 10:46:10 GMT-0600 (Central Standard Time),690273.3999996185,015_o_m_d_a.png,O,m,1456,4,1,2475.699999809265,687797.6999998093,7728,VNB,C,2
3,test,2,0.0,2-Back,1.0,m,Thu Jan 22 2026 10:46:10 GMT-0600 (Central Standard Time),692539.2999997139,019_m_f_d_a.png,O,m,1236,5,1,2255.7999997138977,690283.5,7728,VNB,C,3
4,test,2,0.0,2-Back,1.0,m,Thu Jan 22 2026 10:46:10 GMT-0600 (Central Standard Time),695455.1999998093,025_y_m_h_a.png,O,m,1883,6,1,2908.5999999046326,692546.5999999046,7728,VNB,C,4
4,test,2,0.0,2-Back,0.0,m,Thu Jan 22 2026 10:46:10 GMT-0600 (Central Standard Time),698037.6999998093,012_o_f_n_a.png,O,z,1535,7,1,2566.0999999046326,695471.5999999046,7728,VNB,C,5
5,test,2,1.0,2-Back,1.0,z,Thu Jan 22 2026 10:46:10 GMT-0600 (Central Standard Time),700402.7999997139,015_o_m_h_a.png,O,z,1344,8,1,2362.5,698040.2999997139,7728,VNB,C,6
6,test,2,0.0,2-Back,1.0,m,Thu Jan 22 2026 10:46:10 GMT-0600 (Central Standard Time),702768.8999996185,022_y_f_d_a.png,O,m,1347,9,1,2358.8999996185303,700410.0,7728,VNB,C,7
6,test,2,0.0,2-Back,0.0,m,Thu Jan 22 2026 10:46:10 GMT-0600 (Central Standard Time),705601.2999997139,025_y_m_d_a.png,O,z,1806,10,1,2828.9000000953674,702772.3999996185,7728,VNB,C,8
6,test,2,0.0,2-Back,0.0,m,Thu Jan 22 2026 10:46:10 GMT-0600 (Central Standard Time),708500.6999998093,014_m_m_n_a.png,O,z,1868,11,1,2892.199999809265,705608.5,7728,VNB,C,9
7,test,2,0.0,2-Back,1.0,m,Thu Jan 22 2026 10:46:10 GMT-0600 (Central Standard Time),710483.8999996185,019_m_f_h_a.png,O,m,953,12,1,1976.1999998092651,708507.6999998093,7728,VNB,C,10
8,test,2,1.0,2-Back,1.0,z,Thu Jan 22 2026 10:46:10 GMT-0600 (Central Standard Time),712816.0,015_o_m_n_a.png,O,z,1308,13,1,2323.1000003814697,710492.8999996185,7728,VNB,C,11
9,test,2,0.0,2-Back,1.0,m,Thu Jan 22 2026 10:46:10 GMT-0600 (Central Standard Time),714800.5999999046,012_o_f_d_a.png,O,m,965,14,1,1978.0999999046326,712822.5,7728,VNB,C,12
9,test,2,0.0,2-Back,0.0,m,Thu Jan 22 2026 10:46:10 GMT-0600 (Central Standard Time),717199.0,022_y_f_h_a.png,O,z,1374,15,1,2391.5,714807.5,7728,VNB,C,13
9,test,2,0.0,2-Back,0.0,z,Thu Jan 22 2026 10:46:10 GMT-0600 (Central Standard Time),720231.0999999046,014_m_m_d_a.png,O,None,2015,16,1,3022.5,717208.5999999046,7728,VNB,C,14
9,test,2,0.0,2-Back,0.0,m,Thu Jan 22 2026 10:46:10 GMT-0600 (Central Standard Time),722649.8999996185,025_y_m_n_a.png,O,z,1402,17,1,2410.2999997138977,720239.5999999046,7728,VNB,C,15
9,test,2,1.0,2-Back,0.0,m,Thu Jan 22 2026 10:46:10 GMT-0600 (Central Standard Time),725529.1999998093,019_m_f_n_a.png,O,z,1856,18,1,2871.300000190735,722657.8999996185,7728,VNB,C,16
0,test,3,1.0,2-Back,,,Thu Jan 22 2026 10:46:10 GMT-0600 (Central Standard Time),725529.1999998093,015_o_m_n_a.png,O,space,1685,1,1,2871.300000190735,722657.8999996185,7728,VNB,C,0
0,test,3,1.0,2-Back,,,Thu Jan 22 2026 10:46:10 GMT-0600 (Central Standard Time),725529.1999998093,012_o_f_d_a.png,O,space,1685,2,1,2871.300000190735,722657.8999996185,7728,VNB,C,0
1,test,3,0.0,2-Back,1.0,m,Thu Jan 22 2026 10:46:10 GMT-0600 (Central Standard Time),734510.0,022_y_f_h_a.png,O,m,1202,3,1,2224.0,732286.0,7728,VNB,C,1
2,test,3,0.0,2-Back,1.0,z,Thu Jan 22 2026 10:46:10 GMT-0600 (Central Standard Time),737026.5999999046,019_m_f_d_a.png,O,z,1493,4,1,2508.5,734518.0999999046,7728,VNB,C,2
2,test,3,1.0,2-Back,0.0,m,Thu Jan 22 2026 10:46:10 GMT-0600 (Central Standard Time),739590.0999999046,025_y_m_n_a.png,O,z,1532,5,1,2556.2000002861023,737033.8999996185,7728,VNB,C,3
3,test,3,0.0,2-Back,1.0,m,Thu Jan 22 2026 10:46:10 GMT-0600 (Central Standard Time),742006.2999997139,015_o_m_h_a.png,O,m,1387,6,1,2407.2999997138977,739599.0,7728,VNB,C,4
4,test,3,0.0,2-Back,1.0,z,Thu Jan 22 2026 10:46:10 GMT-0600 (Central Standard Time),744774.0999999046,022_y_f_n_a.png,O,z,1736,7,1,2756.9000000953674,742017.1999998093,7728,VNB,C,5
4,test,3,1.0,2-Back,0.0,m,Thu Jan 22 2026 10:46:10 GMT-0600 (Central Standard Time),747188.7999997139,014_m_m_d_a.png,O,z,1393,8,1,2405.7999997138977,744783.0,7728,VNB,C,6
5,test,3,0.0,2-Back,1.0,m,Thu Jan 22 2026 10:46:10 GMT-0600 (Central Standard Time),749821.0,025_y_m_d_a.png,O,m,1601,9,1,2623.1000003814697,747197.8999996185,7728,VNB,C,7
6,test,3,0.0,2-Back,1.0,m,Thu Jan 22 2026 10:46:10 GMT-0600 (Central Standard Time),752386.5999999046,012_o_f_h_a.png,O,m,1537,10,1,2558.9000000953674,749827.6999998093,7728,VNB,C,8
7,test,3,1.0,2-Back,1.0,m,Thu Jan 22 2026 10:46:10 GMT-0600 (Central Standard Time),754919.2999997139,019_m_f_n_a.png,O,m,1514,11,1,2521.699999809265,752397.5999999046,7728,VNB,C,9
8,test,3,1.0,2-Back,1.0,z,Thu Jan 22 2026 10:46:10 GMT-0600 (Central Standard Time),757286.5999999046,014_m_m_h_a.png,O,z,1344,12,1,2363.0999999046326,754923.5,7728,VNB,C,10
8,test,3,0.0,2-Back,0.0,m,Thu Jan 22 2026 10:46:10 GMT-0600 (Central Standard Time),760035.0,022_y_f_d_a.png,O,z,1729,13,1,2742.6000003814697,757292.3999996185,7728,VNB,C,11
9,test,3,0.0,2-Back,1.0,m,Thu Jan 22 2026 10:46:10 GMT-0600 (Central Standard Time),762550.6999998093,012_o_f_n_a.png,O,m,1484,14,1,2507.9000000953674,760042.7999997139,7728,VNB,C,12
9,test,3,0.0,2-Back,0.0,z,Thu Jan 22 2026 10:46:10 GMT-0600 (Central Standard Time),765149.6999998093,015_o_m_d_a.png,O,m,1568,15,1,2591.5,762558.1999998093,7728,VNB,C,13
9,test,3,1.0,2-Back,0.0,m,Thu Jan 22 2026 10:46:10 GMT-0600 (Central Standard Time),768049.2999997139,019_m_f_h_a.png,O,z,1873,16,1,2891.9000000953674,765157.3999996185,7728,VNB,C,14
9,test,3,0.0,2-Back,0.0,m,Thu Jan 22 2026 10:46:10 GMT-0600 (Central Standard Time),770765.0,014_m_m_n_a.png,O,z,1686,17,1,2706.4000000953674,768058.5999999046,7728,VNB,C,15
10,test,3,0.0,2-Back,1.0,z,Thu Jan 22 2026 10:46:10 GMT-0600 (Central Standard Time),773514.6999998093,025_y_m_h_a.png,O,z,1721,18,1,2738.300000190735,770776.3999996185,7728,VNB,C,16
0,test,4,0.0,2-Back,,,Thu Jan 22 2026 10:46:10 GMT-0600 (Central Standard Time),773514.6999998093,019_m_f_n_a.png,O,space,1628,1,1,2738.300000190735,770776.3999996185,7728,VNB,C,0
0,test,4,0.0,2-Back,,,Thu Jan 22 2026 10:46:10 GMT-0600 (Central Standard Time),773514.6999998093,015_o_m_n_a.png,O,space,1628,2,1,2738.300000190735,770776.3999996185,7728,VNB,C,0
1,test,4,1.0,2-Back,1.0,m,Thu Jan 22 2026 10:46:10 GMT-0600 (Central Standard Time),782676.7999997139,025_y_m_h_a.png,O,m,1293,3,1,2308.0,780368.7999997139,7728,VNB,C,1
2,test,4,1.0,2-Back,1.0,m,Thu Jan 22 2026 10:46:10 GMT-0600 (Central Standard Time),785692.3999996185,012_o_f_d_a.png,O,m,1993,4,1,3009.2999997138977,782683.0999999046,7728,VNB,C,2
2,test,4,0.0,2-Back,0.0,z,Thu Jan 22 2026 10:46:10 GMT-0600 (Central Standard Time),788725.8999996185,015_o_m_h_a.png,O,None,2016,5,1,3025.7999997138977,785700.0999999046,7728,VNB,C,3
2,test,4,0.0,2-Back,0.0,m,Thu Jan 22 2026 10:46:10 GMT-0600 (Central Standard Time),791274.5999999046,014_m_m_n_a.png,O,z,1529,6,1,2538.800000190735,788735.7999997139,7728,VNB,C,4
3,test,4,0.0,2-Back,1.0,m,Thu Jan 22 2026 10:46:10 GMT-0600 (Central Standard Time),793558.0,019_m_f_d_a.png,O,m,1260,7,1,2274.7000002861023,791283.2999997139,7728,VNB,C,5
4,test,4,0.0,2-Back,1.0,z,Thu Jan 22 2026 10:46:10 GMT-0600 (Central Standard Time),796189.0999999046,022_y_f_n_a.png,O,z,1600,8,1,2626.4000000953674,793562.6999998093,7728,VNB,C,6
5,test,4,1.0,2-Back,1.0,m,Thu Jan 22 2026 10:46:10 GMT-0600 (Central Standard Time),798520.8999996185,012_o_f_h_a.png,O,m,1315,9,1,2327.5999999046326,796193.2999997139,7728,VNB,C,7
5,test,4,0.0,2-Back,0.0,m,Thu Jan 22 2026 10:46:10 GMT-0600 (Central Standard Time),801320.7999997139,014_m_m_h_a.png,O,z,1772,10,1,2797.0999999046326,798523.6999998093,7728,VNB,C,8
5,test,4,0.0,2-Back,0.0,m,Thu Jan 22 2026 10:46:10 GMT-0600 (Central Standard Time),803920.5999999046,022_y_f_d_a.png,O,z,1566,11,1,2589.2000002861023,801331.3999996185,7728,VNB,C,9
6,test,4,0.0,2-Back,1.0,m,Thu Jan 22 2026 10:46:10 GMT-0600 (Central Standard Time),806170.0999999046,025_y_m_n_a.png,O,m,1222,12,1,2243.0,803927.0999999046,7728,VNB,C,10
6,test,4,0.0,2-Back,0.0,z,Thu Jan 22 2026 10:46:10 GMT-0600 (Central Standard Time),808386.0999999046,015_o_m_d_a.png,O,m,1199,13,1,2209.800000190735,806176.2999997139,7728,VNB,C,11
6,test,4,1.0,2-Back,0.0,m,Thu Jan 22 2026 10:46:10 GMT-0600 (Central Standard Time),810718.3999996185,019_m_f_h_a.png,O,z,1308,14,1,2324.5,808393.8999996185,7728,VNB,C,12
7,test,4,1.0,2-Back,1.0,m,Thu Jan 22 2026 10:46:10 GMT-0600 (Central Standard Time),813018.1999998093,022_y_f_h_a.png,O,m,1270,15,1,2290.300000190735,810727.8999996185,7728,VNB,C,13
7,test,4,0.0,2-Back,0.0,m,Thu Jan 22 2026 10:46:10 GMT-0600 (Central Standard Time),815551.1999998093,012_o_f_n_a.png,O,z,1501,16,1,2524.9000000953674,813026.2999997139,7728,VNB,C,14
8,test,4,0.0,2-Back,1.0,m,Thu Jan 22 2026 10:46:10 GMT-0600 (Central Standard Time),817883.0,025_y_m_d_a.png,O,m,1312,17,1,2323.300000190735,815559.6999998093,7728,VNB,C,15
9,test,4,1.0,2-Back,1.0,m,Thu Jan 22 2026 10:46:10 GMT-0600 (Central Standard Time),820283.0,014_m_m_d_a.png,O,m,1372,18,1,2391.9000000953674,817891.0999999046,7728,VNB,C,16
0,test,5,1.0,2-Back,,,Thu Jan 22 2026 10:46:10 GMT-0600 (Central Standard Time),820283.0,022_y_f_d_a.png,O,space,1419,1,1,2391.9000000953674,817891.0999999046,7728,VNB,C,0
0,test,5,1.0,2-Back,,,Thu Jan 22 2026 10:46:10 GMT-0600 (Central Standard Time),820283.0,012_o_f_h_a.png,O,space,1419,2,1,2391.9000000953674,817891.0999999046,7728,VNB,C,0
1,test,5,1.0,2-Back,1.0,z,Thu Jan 22 2026 10:46:10 GMT-0600 (Central Standard Time),829396.1999998093,015_o_m_d_a.png,O,z,1437,3,1,2454.4000000953674,826941.7999997139,7728,VNB,C,1
2,test,5,1.0,2-Back,1.0,m,Thu Jan 22 2026 10:46:10 GMT-0600 (Central Standard Time),831780.3999996185,019_m_f_n_a.png,O,m,1360,4,1,2375.5999999046326,829404.7999997139,7728,VNB,C,2
3,test,5,0.0,2-Back,1.0,m,Thu Jan 22 2026 10:46:10 GMT-0600 (Central Standard Time),834494.2999997139,014_m_m_h_a.png,O,m,1684,5,1,2703.7999997138977,831790.5,7728,VNB,C,3
4,test,5,0.0,2-Back,1.0,z,Thu Jan 22 2026 10:46:10 GMT-0600 (Central Standard Time),837011.3999996185,022_y_f_n_a.png,O,z,1488,6,1,2506.8999996185303,834504.5,7728,VNB,C,4
5,test,5,0.0,2-Back,1.0,m,Thu Jan 22 2026 10:46:10 GMT-0600 (Central Standard Time),839525.5999999046,012_o_f_d_a.png,O,m,1486,7,1,2503.7000002861023,837021.8999996185,7728,VNB,C,5
5,test,5,0.0,2-Back,0.0,m,Thu Jan 22 2026 10:46:10 GMT-0600 (Central Standard Time),841958.5,015_o_m_h_a.png,O,z,1400,8,1,2424.0,839534.5,7728,VNB,C,6
6,test,5,1.0,2-Back,1.0,z,Thu Jan 22 2026 10:46:10 GMT-0600 (Central Standard Time),844474.1999998093,019_m_f_d_a.png,O,z,1495,9,1,2506.0,841968.1999998093,7728,VNB,C,7
6,test,5,0.0,2-Back,0.0,m,Thu Jan 22 2026 10:46:10 GMT-0600 (Central Standard Time),847208.0999999046,025_y_m_n_a.png,O,z,1701,10,1,2727.2000002861023,844480.8999996185,7728,VNB,C,8
7,test,5,0.0,2-Back,1.0,m,Thu Jan 22 2026 10:46:10 GMT-0600 (Central Standard Time),849806.0,014_m_m_n_a.png,O,m,1568,11,1,2586.7000002861023,847219.2999997139,7728,VNB,C,9
8,test,5,0.0,2-Back,1.0,m,Thu Jan 22 2026 10:46:10 GMT-0600 (Central Standard Time),851972.6999998093,022_y_f_h_a.png,O,m,1135,12,1,2156.0999999046326,849816.5999999046,7728,VNB,C,10
9,test,5,0.0,2-Back,1.0,m,Thu Jan 22 2026 10:46:10 GMT-0600 (Central Standard Time),854190.0999999046,025_y_m_d_a.png,O,m,1193,13,1,2208.300000190735,851981.7999997139,7728,VNB,C,11
10,test,5,1.0,2-Back,1.0,z,Thu Jan 22 2026 10:46:10 GMT-0600 (Central Standard Time),856503.2999997139,019_m_f_h_a.png,O,z,1289,14,1,2304.199999809265,854199.0999999046,7728,VNB,C,12
11,test,5,0.0,2-Back,1.0,m,Thu Jan 22 2026 10:46:10 GMT-0600 (Central Standard Time),858902.7999997139,015_o_m_n_a.png,O,m,1366,15,1,2395.5999999046326,856507.1999998093,7728,VNB,C,13
11,test,5,0.0,2-Back,0.0,m,Thu Jan 22 2026 10:46:10 GMT-0600 (Central Standard Time),861270.2999997139,014_m_m_d_a.png,O,z,1335,16,1,2357.199999809265,858913.0999999046,7728,VNB,C,14
12,test,5,0.0,2-Back,1.0,z,Thu Jan 22 2026 10:46:10 GMT-0600 (Central Standard Time),863669.1999998093,012_o_f_n_a.png,O,z,1367,17,1,2388.800000190735,861280.3999996185,7728,VNB,C,15
13,test,5,1.0,2-Back,1.0,m,Thu Jan 22 2026 10:46:10 GMT-0600 (Central Standard Time),866133.5999999046,025_y_m_h_a.png,O,m,1443,18,1,2454.7000002861023,863678.8999996185,7728,VNB,C,16
