acc_sum,block,block_c,condition,correct,correct_response,datetime,endtime,flanker,jitter,project,response,response_test_buffer_response,response_test_target_response,response_time,response_time_test_buffer_response,response_time_test_target_response,row_sel,session_number,start_end,starttime,subject_id,target,task,task_vers,time_test_buffer,time_test_buffer_response,time_test_constants,time_test_flanker,time_test_jitter,time_test_logger,time_test_target,time_test_target_response,time_test_variables,trial
1,prac,1,con,1,m,Wed Jul 09 2025 16:17:49 GMT-0400 (Eastern Daylight Time),163330.29999999702,bell,1000,I,m,,,869,,,3,1,3173.7999999970198,160156.5,9023,bell,AF,C,,,,,,,,,,1
1,prac,1,inc,0,z,Wed Jul 09 2025 16:17:49 GMT-0400 (Eastern Daylight Time),166180.0,film,900,I,m,,,632,,,14,1,2837.5,163342.5,9023,hate,AF,C,,,,,,,,,,2
2,prac,1,con,1,m,Wed Jul 09 2025 16:17:49 GMT-0400 (Eastern Daylight Time),168996.70000000298,jacket,800,I,m,,,699,,,5,1,2805.7000000029802,166191.0,9023,jacket,AF,C,,,,,,,,,,3
3,prac,1,inc,1,m,Wed Jul 09 2025 16:17:49 GMT-0400 (Eastern Daylight Time),172013.29999999702,elated,900,I,m,,,806,,,6,1,3006.699999988079,169006.60000000894,9023,napkin,AF,C,,,,,,,,,,4
4,prac,1,inc,1,m,Wed Jul 09 2025 16:17:49 GMT-0400 (Eastern Daylight Time),174780.0,kind,900,I,m,,,558,,,2,1,2757.3999999910593,172022.60000000894,9023,rock,AF,C,,,,,,,,,,5
4,prac,1,con,0,z,Wed Jul 09 2025 16:17:49 GMT-0400 (Eastern Daylight Time),177396.60000000894,brutal,800,I,m,,,499,,,13,1,2604.4000000059605,174792.20000000298,9023,brutal,AF,C,,,,,,,,,,6
5,prac,1,inc,1,m,Wed Jul 09 2025 16:17:49 GMT-0400 (Eastern Daylight Time),180413.29999999702,brutal,1100,I,m,,,606,,,8,1,3007.0,177406.29999999702,9023,window,AF,C,,,,,,,,,,7
6,prac,1,con,1,z,Wed Jul 09 2025 16:17:49 GMT-0400 (Eastern Daylight Time),183213.29999999702,rage,1000,I,z,,,490,,,15,1,2789.7999999970198,180423.5,9023,rage,AF,C,,,,,,,,,,8
7,prac,1,inc,1,m,Wed Jul 09 2025 16:17:49 GMT-0400 (Eastern Daylight Time),186213.40000000596,hate,1100,I,m,,,599,,,4,1,2991.7999999970198,183221.60000000894,9023,film,AF,C,,,,,,,,,,9
8,prac,1,inc,1,z,Wed Jul 09 2025 16:17:49 GMT-0400 (Eastern Daylight Time),189496.70000000298,napkin,1100,I,z,,,878,,,12,1,3271.0,186225.70000000298,9023,friend,AF,C,,,,,,,,,,10
9,prac,1,inc,1,z,Wed Jul 09 2025 16:17:49 GMT-0400 (Eastern Daylight Time),192563.29999999702,window,1100,I,z,,,650,,,16,1,3056.0,189507.29999999702,9023,temper,AF,C,,,,,,,,,,11
10,prac,1,con,1,m,Wed Jul 09 2025 16:17:49 GMT-0400 (Eastern Daylight Time),195496.70000000298,remote,1000,I,m,,,628,,,7,1,2924.0,192572.70000000298,9023,remote,AF,C,,,,,,,,,,12
11,prac,1,con,1,z,Wed Jul 09 2025 16:17:49 GMT-0400 (Eastern Daylight Time),198196.5,elated,800,I,z,,,597,,,9,1,2690.7999999970198,195505.70000000298,9023,elated,AF,C,,,,,,,,,,13
12,prac,1,inc,1,z,Wed Jul 09 2025 16:17:49 GMT-0400 (Eastern Daylight Time),201046.70000000298,rock,900,I,z,,,646,,,10,1,2841.7000000029802,198205.0,9023,kind,AF,C,,,,,,,,,,14
13,prac,1,con,1,z,Wed Jul 09 2025 16:17:49 GMT-0400 (Eastern Daylight Time),203946.70000000298,love,1000,I,z,,,593,,,11,1,2889.7000000029802,201057.0,9023,love,AF,C,,,,,,,,,,15
14,prac,1,con,1,m,Wed Jul 09 2025 16:17:49 GMT-0400 (Eastern Daylight Time),206646.60000000894,step,800,I,m,,,597,,,1,1,2690.0,203956.60000000894,9023,step,AF,C,,,,,,,,,,16
1,test,1,inc,1,z,Wed Jul 09 2025 16:17:49 GMT-0400 (Eastern Daylight Time),224396.70000000298,remote,1000,I,z,z,None,609,410.0,199.0,39,1,2141.4000000059605,222255.29999999702,9023,brutal,AF,C,210309,210309,208584,209593,208585,210726,210109,210110,210726,1
2,test,1,inc,1,z,Wed Jul 09 2025 16:17:49 GMT-0400 (Eastern Daylight Time),226646.60000000894,window,1100,I,z,z,None,598,399.0,199.0,64,1,2238.2000000029802,224408.40000000596,9023,temper,AF,C,212560,212560,210737,211843,210738,212976,212359,212360,212976,2
3,test,1,con,1,z,Wed Jul 09 2025 16:17:49 GMT-0400 (Eastern Daylight Time),228679.90000000596,hate,900,I,z,z,None,597,397.0,200.0,42,1,2022.6000000089407,226657.29999999702,9023,hate,AF,C,214610,214610,212986,213893,212987,215009,214409,214409,215009,3
4,test,1,con,1,z,Wed Jul 09 2025 16:17:49 GMT-0400 (Eastern Daylight Time),230913.29999999702,elated,1000,I,z,z,None,687,488.0,199.0,3,1,2222.0999999940395,228691.20000000298,9023,elated,AF,C,216743,216743,215020,216026,215021,217242,216543,216543,217242,4
5,test,1,con,1,z,Wed Jul 09 2025 16:17:49 GMT-0400 (Eastern Daylight Time),232996.70000000298,friend,800,I,z,z,None,717,518.0,199.0,25,1,2067.7000000029802,230929.0,9023,friend,AF,C,218793,218793,217258,218076,217259,219326,218593,218593,219326,5
6,test,1,con,1,m,Wed Jul 09 2025 16:17:49 GMT-0400 (Eastern Daylight Time),234913.20000000298,napkin,900,I,m,m,None,470,271.0,199.0,106,1,1907.4000000059605,233005.79999999702,9023,napkin,AF,C,220959,220960,219335,220243,219335,221242,220760,220760,221242,6
7,test,1,con,1,z,Wed Jul 09 2025 16:17:49 GMT-0400 (Eastern Daylight Time),237079.79999999702,rage,1000,I,z,z,None,630,431.0,199.0,51,1,2155.0,234924.79999999702,9023,rage,AF,C,222976,222976,221254,222259,221254,223409,222776,222776,223409,7
8,test,1,inc,1,z,Wed Jul 09 2025 16:17:49 GMT-0400 (Eastern Daylight Time),239029.90000000596,step,800,I,z,z,None,600,401.0,199.0,13,1,1940.7999999970198,237089.10000000894,9023,kind,AF,C,224942,224942,223418,224226,223418,225359,224743,224743,225359,8
9,test,1,con,1,m,Wed Jul 09 2025 16:17:49 GMT-0400 (Eastern Daylight Time),241312.60000000894,remote,1100,I,m,m,None,637,437.0,200.0,116,1,2273.0,239039.60000000894,9023,remote,AF,C,227193,227193,225369,226476,225369,227642,226992,226992,227642,9
10,test,1,inc,1,z,Wed Jul 09 2025 16:17:49 GMT-0400 (Eastern Daylight Time),243712.90000000596,film,1100,I,z,z,None,756,555.0,201.0,48,1,2394.9000000059605,241318.0,9023,hate,AF,C,229476,229476,227647,228759,227647,230042,229275,229275,230042,10
11,test,1,inc,1,m,Wed Jul 09 2025 16:17:49 GMT-0400 (Eastern Daylight Time),245879.79999999702,elated,800,I,m,m,None,831,631.0,200.0,117,1,2158.5,243721.29999999702,9023,remote,AF,C,231576,231576,230050,230859,230051,232209,231376,231376,232209,11
12,test,1,con,1,m,Wed Jul 09 2025 16:17:49 GMT-0400 (Eastern Daylight Time),248029.90000000596,bell,900,I,m,m,None,690,490.0,200.0,82,1,2133.5,245896.40000000596,9023,bell,AF,C,233860,233860,232225,233143,232226,234359,233659,233659,234359,12
13,test,1,inc,1,m,Wed Jul 09 2025 16:17:49 GMT-0400 (Eastern Daylight Time),250329.70000000298,friend,1100,I,m,m,None,661,462.0,199.0,128,1,2290.7000000029802,248039.0,9023,window,AF,C,236193,236193,234368,235476,234368,236659,235993,235993,236659,13
14,test,1,con,1,m,Wed Jul 09 2025 16:17:49 GMT-0400 (Eastern Daylight Time),252296.40000000596,film,800,I,m,m,None,629,430.0,199.0,89,1,1957.0,250339.40000000596,9023,film,AF,C,238193,238193,236668,237476,236669,238626,237993,237993,238625,14
14,test,1,inc,0,m,Wed Jul 09 2025 16:17:49 GMT-0400 (Eastern Daylight Time),254429.90000000596,temper,1000,I,z,z,None,591,392.0,199.0,103,1,2121.0,252308.90000000596,9023,jacket,AF,C,240359,240359,238638,239643,238638,240759,240160,240160,240759,15
15,test,1,inc,1,m,Wed Jul 09 2025 16:17:49 GMT-0400 (Eastern Daylight Time),256796.60000000894,brutal,900,I,m,m,None,926,727.0,199.0,118,1,2358.6000000089407,254438.0,9023,remote,AF,C,242392,242392,240767,241676,240768,243126,242193,242193,243126,16
16,test,1,inc,1,m,Wed Jul 09 2025 16:17:49 GMT-0400 (Eastern Daylight Time),259030.0,love,1000,I,m,m,None,682,483.0,199.0,71,1,2223.3999999910593,256806.60000000894,9023,step,AF,C,244860,244860,243136,244143,243136,245359,244660,244660,245359,17
17,test,1,inc,1,z,Wed Jul 09 2025 16:17:49 GMT-0400 (Eastern Daylight Time),261064.0,rock,900,I,z,z,None,597,398.0,199.0,54,1,2024.7999999970198,259039.20000000298,9023,rage,AF,C,246993,246993,245368,246276,245369,247393,246793,246793,247393,18
18,test,1,con,1,m,Wed Jul 09 2025 16:17:49 GMT-0400 (Eastern Daylight Time),263379.799999997,bell,1100,I,m,m,None,669,469.0,200.0,84,1,2307.699999988079,261072.10000000894,9023,bell,AF,C,249226,249226,247401,248509,247401,249709,249026,249026,249709,19
19,test,1,inc,1,m,Wed Jul 09 2025 16:17:49 GMT-0400 (Eastern Daylight Time),265646.60000000894,friend,1100,I,m,m,None,623,424.0,199.0,120,1,2257.9000000059605,263388.700000003,9023,remote,AF,C,251543,251543,249718,250826,249718,251976,251343,251343,251976,20
20,test,1,con,1,m,Wed Jul 09 2025 16:17:49 GMT-0400 (Eastern Daylight Time),268046.60000000894,rock,1100,I,m,m,None,756,557.0,199.0,76,1,2390.7000000029802,265655.90000000596,9023,rock,AF,C,253810,253810,251985,253093,251985,254376,253609,253610,254376,21
21,test,1,con,1,m,Wed Jul 09 2025 16:17:49 GMT-0400 (Eastern Daylight Time),270329.799999997,film,1000,I,m,m,None,745,545.0,200.0,91,1,2272.3999999910593,268057.40000000596,9023,film,AF,C,256110,256110,254386,255393,254387,256659,255909,255909,256659,22
22,test,1,inc,1,m,Wed Jul 09 2025 16:17:49 GMT-0400 (Eastern Daylight Time),272330.0,rage,800,I,m,m,None,661,462.0,199.0,85,1,1989.0999999940395,270340.90000000596,9023,bell,AF,C,258193,258193,256670,257476,256670,258659,257993,257993,258659,23
23,test,1,con,1,z,Wed Jul 09 2025 16:17:49 GMT-0400 (Eastern Daylight Time),274446.60000000894,brutal,800,I,z,z,None,757,557.0,200.0,33,1,2100.0,272346.60000000894,9023,brutal,AF,C,260210,260210,258676,259493,258677,260776,260009,260009,260776,24
24,test,1,inc,1,z,Wed Jul 09 2025 16:17:49 GMT-0400 (Eastern Daylight Time),276613.200000003,bell,1000,I,z,z,None,601,401.0,200.0,23,1,2150.7000000029802,274462.5,9023,love,AF,C,262526,262526,260792,261809,260792,262942,262326,262326,262942,25
24,test,1,con,0,z,Wed Jul 09 2025 16:17:49 GMT-0400 (Eastern Daylight Time),278796.60000000894,temper,800,I,m,m,None,843,643.0,200.0,57,1,2174.300000011921,276622.299999997,9023,temper,AF,C,264476,264476,262951,263759,262952,265126,264276,264276,265126,26
25,test,1,con,1,z,Wed Jul 09 2025 16:17:49 GMT-0400 (Eastern Daylight Time),280979.90000000596,kind,1000,I,z,z,None,635,435.0,200.0,11,1,2175.1000000089407,278804.799999997,9023,kind,AF,C,266859,266860,265134,266143,265134,267309,266659,266659,267309,27
26,test,1,inc,1,m,Wed Jul 09 2025 16:17:49 GMT-0400 (Eastern Daylight Time),283113.10000000894,temper,1000,I,m,m,None,595,396.0,199.0,127,1,2124.4000000059605,280988.700000003,9023,window,AF,C,269043,269043,267318,268326,267318,269442,268843,268843,269442,28
27,test,1,con,1,m,Wed Jul 09 2025 16:17:49 GMT-0400 (Eastern Daylight Time),285296.60000000894,napkin,1000,I,m,m,None,639,439.0,200.0,107,1,2174.2000000029802,283122.40000000596,9023,napkin,AF,C,271176,271176,269451,270459,269452,271626,270976,270976,271626,29
28,test,1,inc,1,m,Wed Jul 09 2025 16:17:49 GMT-0400 (Eastern Daylight Time),287230.0,rage,800,I,m,m,None,592,392.0,200.0,69,1,1923.8999999910593,285306.10000000894,9023,step,AF,C,273159,273159,271635,272443,271635,273559,272959,272959,273559,30
29,test,1,con,1,m,Wed Jul 09 2025 16:17:49 GMT-0400 (Eastern Daylight Time),289313.10000000894,window,900,I,m,m,None,637,438.0,199.0,122,1,2074.0,287239.10000000894,9023,window,AF,C,275193,275193,273568,274476,273568,275642,274993,274993,275642,31
29,test,1,con,0,z,Wed Jul 09 2025 16:17:49 GMT-0400 (Eastern Daylight Time),291263.299999997,elated,800,I,m,m,None,607,407.0,200.0,1,1,1939.5999999940395,289323.700000003,9023,elated,AF,C,277176,277176,275653,276459,275653,277592,276976,276976,277592,32
30,test,1,con,1,m,Wed Jul 09 2025 16:17:49 GMT-0400 (Eastern Daylight Time),293246.700000003,remote,800,I,m,m,None,641,441.0,200.0,113,1,1974.2999999970198,291272.40000000596,9023,remote,AF,C,279126,279126,277601,278409,277602,279576,278926,278926,279576,33
31,test,1,inc,1,m,Wed Jul 09 2025 16:17:49 GMT-0400 (Eastern Daylight Time),295396.60000000894,kind,900,I,m,m,None,701,501.0,200.0,86,1,2140.300000011921,293256.299999997,9023,bell,AF,C,281210,281210,279585,280493,279586,281726,281009,281009,281726,34
32,test,1,inc,1,z,Wed Jul 09 2025 16:17:49 GMT-0400 (Eastern Daylight Time),297646.5,bell,1000,I,z,z,None,706,507.0,199.0,55,1,2240.7000000029802,295405.799999997,9023,rage,AF,C,283460,283460,281735,282743,281735,283976,283260,283260,283975,35
33,test,1,con,1,m,Wed Jul 09 2025 16:17:49 GMT-0400 (Eastern Daylight Time),299863.10000000894,bell,1000,I,m,m,None,680,481.0,199.0,83,1,2206.9000000059605,297656.200000003,9023,bell,AF,C,285710,285710,283985,284993,283986,286192,285510,285510,286192,36
34,test,1,con,1,z,Wed Jul 09 2025 16:17:49 GMT-0400 (Eastern Daylight Time),302113.299999997,brutal,1000,I,z,z,None,704,505.0,199.0,35,1,2242.0999999940395,299871.200000003,9023,brutal,AF,C,287926,287926,286200,287209,286200,288442,287726,287726,288442,37
35,test,1,inc,1,z,Wed Jul 09 2025 16:17:49 GMT-0400 (Eastern Daylight Time),304596.700000003,remote,1000,I,z,z,None,934,735.0,199.0,31,1,2473.5999999940395,302123.10000000894,9023,friend,AF,C,290175,290176,288452,289459,288452,290926,289976,289976,290926,38
36,test,1,con,1,m,Wed Jul 09 2025 16:17:49 GMT-0400 (Eastern Daylight Time),306896.60000000894,jacket,1100,I,m,m,None,655,455.0,200.0,100,1,2290.5,304606.10000000894,9023,jacket,AF,C,292760,292760,290935,292043,290936,293226,292559,292559,293226,39
37,test,1,inc,1,m,Wed Jul 09 2025 16:17:49 GMT-0400 (Eastern Daylight Time),309079.700000003,love,1000,I,m,m,None,648,448.0,200.0,87,1,2174.7000000029802,306905.0,9023,bell,AF,C,294959,294959,293234,294243,293234,295409,294759,294759,295409,40
38,test,1,con,1,m,Wed Jul 09 2025 16:17:49 GMT-0400 (Eastern Daylight Time),311313.200000003,bell,800,I,m,m,None,887,688.0,199.0,81,1,2224.7999999970198,309088.40000000596,9023,bell,AF,C,296943,296943,295417,296226,295418,297642,296743,296743,297642,41
39,test,1,inc,1,z,Wed Jul 09 2025 16:17:49 GMT-0400 (Eastern Daylight Time),313463.10000000894,bell,1000,I,z,z,None,615,415.0,200.0,47,1,2140.9000000059605,311322.200000003,9023,hate,AF,C,299376,299376,297651,298659,297652,299792,299176,299176,299792,42
40,test,1,inc,1,z,Wed Jul 09 2025 16:17:49 GMT-0400 (Eastern Daylight Time),315479.700000003,rock,900,I,z,z,None,581,381.0,200.0,22,1,2006.4000000059605,313473.299999997,9023,love,AF,C,301426,301426,299802,300709,299803,301809,301226,301226,301809,43
41,test,1,inc,1,z,Wed Jul 09 2025 16:17:49 GMT-0400 (Eastern Daylight Time),317946.60000000894,bell,1000,I,z,z,None,927,728.0,199.0,15,1,2456.5,315490.10000000894,9023,kind,AF,C,303543,303543,301819,302826,301820,304276,303343,303343,304276,44
42,test,1,inc,1,m,Wed Jul 09 2025 16:17:49 GMT-0400 (Eastern Daylight Time),320246.60000000894,kind,900,I,m,m,None,850,650.0,200.0,78,1,2290.800000011921,317955.799999997,9023,rock,AF,C,305910,305910,304285,305193,304285,306576,305709,305709,306576,45
43,test,1,inc,1,m,Wed Jul 09 2025 16:17:49 GMT-0400 (Eastern Daylight Time),322313.200000003,rage,800,I,m,m,None,730,530.0,200.0,93,1,2058.2000000029802,320255.0,9023,film,AF,C,308109,308109,306584,307393,306585,308642,307909,307909,308642,46
44,test,1,inc,1,m,Wed Jul 09 2025 16:17:49 GMT-0400 (Eastern Daylight Time),324496.700000003,hate,1100,I,m,m,None,538,339.0,199.0,80,1,2174.0999999940395,322322.60000000894,9023,rock,AF,C,310476,310476,308652,309759,308652,310826,310276,310276,310826,47
45,test,1,inc,1,z,Wed Jul 09 2025 16:17:49 GMT-0400 (Eastern Daylight Time),326363.40000000596,jacket,800,I,z,z,None,527,327.0,200.0,5,1,1857.4000000059605,324506.0,9023,elated,AF,C,312360,312360,310835,311643,310835,312692,312159,312159,312692,48
46,test,1,inc,1,z,Wed Jul 09 2025 16:17:49 GMT-0400 (Eastern Daylight Time),328230.0,jacket,800,I,z,z,None,516,316.0,200.0,61,1,1857.3999999910593,326372.60000000894,9023,temper,AF,C,314227,314227,312702,313509,312702,314559,314026,314026,314559,49
47,test,1,con,1,m,Wed Jul 09 2025 16:17:49 GMT-0400 (Eastern Daylight Time),330363.299999997,film,1100,I,m,m,None,493,294.0,199.0,92,1,2123.699999988079,328239.60000000894,9023,film,AF,C,316393,316393,314569,315676,314569,316692,316193,316193,316692,50
48,test,1,con,1,m,Wed Jul 09 2025 16:17:49 GMT-0400 (Eastern Daylight Time),332346.60000000894,jacket,900,I,m,m,None,545,345.0,200.0,98,1,1974.2000000029802,330372.40000000596,9023,jacket,AF,C,318326,318326,316701,317609,316702,318676,318126,318126,318676,51
49,test,1,inc,1,z,Wed Jul 09 2025 16:17:49 GMT-0400 (Eastern Daylight Time),334513.299999997,film,1100,I,z,z,None,521,321.0,200.0,24,1,2157.8999999910593,332355.40000000596,9023,love,AF,C,320509,320510,318684,319793,318685,320842,320309,320309,320842,52
50,test,1,inc,1,m,Wed Jul 09 2025 16:17:49 GMT-0400 (Eastern Daylight Time),336513.299999997,brutal,900,I,m,m,None,555,355.0,200.0,102,1,1988.7999999970198,334524.5,9023,jacket,AF,C,322476,322476,320854,321759,320854,322842,322276,322276,322842,53
51,test,1,con,1,z,Wed Jul 09 2025 16:17:49 GMT-0400 (Eastern Daylight Time),338380.0,love,800,I,z,z,None,526,327.0,199.0,17,1,1857.5,336522.5,9023,love,AF,C,324376,324376,322852,323659,322852,324709,324176,324176,324709,54
51,test,1,con,0,z,Wed Jul 09 2025 16:17:49 GMT-0400 (Eastern Daylight Time),340446.60000000894,friend,1000,I,m,m,None,523,324.0,199.0,27,1,2055.7000000029802,338390.90000000596,9023,friend,AF,C,326443,326443,324720,325726,324720,326776,326243,326243,326776,55
52,test,1,con,1,z,Wed Jul 09 2025 16:17:49 GMT-0400 (Eastern Daylight Time),342663.0,kind,1100,I,z,z,None,581,381.0,200.0,12,1,2206.0,340457.0,9023,kind,AF,C,328610,328610,326786,327893,326786,328992,328409,328409,328992,56
53,test,1,inc,1,z,Wed Jul 09 2025 16:17:49 GMT-0400 (Eastern Daylight Time),344479.90000000596,jacket,800,I,z,z,None,473,273.0,200.0,29,1,1805.0,342674.90000000596,9023,friend,AF,C,330526,330526,329004,329809,329004,330809,330326,330326,330809,57
54,test,1,inc,1,m,Wed Jul 09 2025 16:17:49 GMT-0400 (Eastern Daylight Time),346396.700000003,brutal,900,I,m,m,None,476,277.0,199.0,126,1,1908.4000000059605,344488.299999997,9023,window,AF,C,332442,332442,330817,331726,330818,332726,332243,332243,332726,58
55,test,1,con,1,z,Wed Jul 09 2025 16:17:49 GMT-0400 (Eastern Daylight Time),348580.0,hate,1100,I,z,z,None,535,335.0,200.0,44,1,2173.8999999910593,346406.10000000894,9023,hate,AF,C,334559,334560,332735,333843,332735,334909,334359,334359,334909,59
56,test,1,con,1,z,Wed Jul 09 2025 16:17:49 GMT-0400 (Eastern Daylight Time),350647.10000000894,elated,900,I,z,z,None,632,433.0,199.0,2,1,2057.300000011921,348589.799999997,9023,elated,AF,C,336543,336543,334919,335826,334919,336976,336343,336343,336976,60
57,test,1,con,1,m,Wed Jul 09 2025 16:17:49 GMT-0400 (Eastern Daylight Time),352646.90000000596,step,900,I,m,m,None,564,365.0,199.0,66,1,1986.7999999970198,350660.10000000894,9023,step,AF,C,338610,338610,336989,337893,336989,338976,338409,338410,338976,61
58,test,1,con,1,m,Wed Jul 09 2025 16:17:49 GMT-0400 (Eastern Daylight Time),354796.700000003,step,1000,I,m,m,None,609,409.0,200.0,67,1,2139.5999999940395,352657.10000000894,9023,step,AF,C,340710,340710,338986,339993,338986,341126,340509,340509,341126,62
59,test,1,inc,1,m,Wed Jul 09 2025 16:17:49 GMT-0400 (Eastern Daylight Time),357013.299999997,temper,1000,I,m,m,None,666,467.0,199.0,111,1,2206.3999999910593,354806.90000000596,9023,napkin,AF,C,342859,342860,341136,342143,341136,343342,342660,342660,343342,63
60,test,1,inc,1,z,Wed Jul 09 2025 16:17:49 GMT-0400 (Eastern Daylight Time),359129.90000000596,remote,1000,I,z,z,None,578,379.0,199.0,7,1,2107.5,357022.40000000596,9023,elated,AF,C,345076,345076,343351,344359,343352,345459,344876,344876,345459,64
61,test,1,con,1,m,Wed Jul 09 2025 16:17:49 GMT-0400 (Eastern Daylight Time),361162.90000000596,rock,800,I,m,m,None,692,493.0,199.0,73,1,2022.5,359140.40000000596,9023,rock,AF,C,346993,346993,345469,346276,345470,347492,346793,346793,347492,65
62,test,1,con,1,z,Wed Jul 09 2025 16:17:49 GMT-0400 (Eastern Daylight Time),363213.299999997,rage,900,I,z,z,None,609,409.0,200.0,50,1,2045.3999999910593,361167.90000000596,9023,rage,AF,C,349126,349126,347497,348409,347497,349542,348926,348926,349542,66
63,test,1,con,1,z,Wed Jul 09 2025 16:17:49 GMT-0400 (Eastern Daylight Time),365413.200000003,love,1100,I,z,z,None,551,351.0,200.0,20,1,2189.4000000059605,363223.799999997,9023,love,AF,C,351376,351376,349553,350659,349553,351742,351176,351176,351742,67
63,test,1,inc,0,z,Wed Jul 09 2025 16:17:49 GMT-0400 (Eastern Daylight Time),367396.700000003,rock,900,I,m,m,None,535,335.0,200.0,46,1,1975.0999999940395,365421.60000000894,9023,hate,AF,C,353376,353376,351751,352659,351751,353726,353176,353176,353726,68
64,test,1,con,1,m,Wed Jul 09 2025 16:17:49 GMT-0400 (Eastern Daylight Time),369546.60000000894,rock,1000,I,m,m,None,611,411.0,200.0,75,1,2139.6000000089407,367407.0,9023,rock,AF,C,355460,355460,353736,354743,353736,355876,355259,355259,355876,69
65,test,1,inc,1,z,Wed Jul 09 2025 16:17:49 GMT-0400 (Eastern Daylight Time),371696.60000000894,remote,1000,I,z,z,None,606,406.0,200.0,63,1,2142.1000000089407,369554.5,9023,temper,AF,C,357609,357609,355884,356893,355884,358026,357409,357409,358026,70
66,test,1,inc,1,z,Wed Jul 09 2025 16:17:49 GMT-0400 (Eastern Daylight Time),373546.700000003,step,800,I,z,z,None,510,311.0,199.0,21,1,1840.7999999970198,371705.90000000596,9023,love,AF,C,359559,359560,358035,358843,358035,359876,359359,359360,359876,71
67,test,1,inc,1,m,Wed Jul 09 2025 16:17:49 GMT-0400 (Eastern Daylight Time),375580.0,kind,900,I,m,m,None,592,393.0,199.0,70,1,2024.8999999910593,373555.10000000894,9023,step,AF,C,361510,361510,359884,360793,359884,361909,361310,361310,361909,72
68,test,1,con,1,z,Wed Jul 09 2025 16:17:49 GMT-0400 (Eastern Daylight Time),377613.200000003,friend,900,I,z,z,None,591,392.0,199.0,26,1,2018.2000000029802,375595.0,9023,friend,AF,C,363543,363543,361924,362826,361925,363942,363343,363343,363942,73
69,test,1,inc,1,m,Wed Jul 09 2025 16:17:49 GMT-0400 (Eastern Daylight Time),379830.0,friend,1100,I,m,m,None,567,367.0,200.0,112,1,2207.2000000029802,377622.799999997,9023,napkin,AF,C,365776,365776,363952,365059,363952,366159,365576,365576,366159,74
70,test,1,inc,1,m,Wed Jul 09 2025 16:17:49 GMT-0400 (Eastern Daylight Time),382030.0,friend,1100,I,m,m,None,557,358.0,199.0,104,1,2191.2999999970198,379838.700000003,9023,jacket,AF,C,367993,367993,366168,367276,366168,368359,367793,367793,368359,75
71,test,1,con,1,m,Wed Jul 09 2025 16:17:49 GMT-0400 (Eastern Daylight Time),384146.799999997,rock,900,I,m,m,None,669,470.0,199.0,74,1,2106.0999999940395,382040.700000003,9023,rock,AF,C,369993,369993,368370,369276,368370,370476,369793,369793,370476,76
72,test,1,inc,1,m,Wed Jul 09 2025 16:17:49 GMT-0400 (Eastern Daylight Time),386096.60000000894,elated,800,I,m,m,None,605,405.0,200.0,101,1,1941.4000000059605,384155.200000003,9023,jacket,AF,C,372010,372010,370484,371293,370485,372426,371809,371809,372426,77
73,test,1,con,1,m,Wed Jul 09 2025 16:17:49 GMT-0400 (Eastern Daylight Time),387913.299999997,jacket,800,I,m,m,None,479,279.0,200.0,97,1,1805.699999988079,386107.60000000894,9023,jacket,AF,C,373960,373960,372437,373243,372437,374242,373759,373759,374242,78
74,test,1,inc,1,m,Wed Jul 09 2025 16:17:49 GMT-0400 (Eastern Daylight Time),389864.10000000894,brutal,900,I,m,m,None,515,315.0,200.0,110,1,1940.4000000059605,387923.700000003,9023,napkin,AF,C,375876,375876,374253,375159,374253,376193,375676,375676,376193,79
75,test,1,con,1,m,Wed Jul 09 2025 16:17:49 GMT-0400 (Eastern Daylight Time),392013.299999997,window,1000,I,m,m,None,608,409.0,199.0,123,1,2138.2999999970198,389875.0,9023,window,AF,C,377926,377926,376204,377210,376204,378342,377726,377726,378342,80
76,test,1,inc,1,z,Wed Jul 09 2025 16:17:49 GMT-0400 (Eastern Daylight Time),393963.299999997,napkin,900,I,z,z,None,511,312.0,199.0,62,1,1940.199999988079,392023.10000000894,9023,temper,AF,C,379975,379975,378352,379259,378352,380292,379776,379776,380292,81
77,test,1,con,1,m,Wed Jul 09 2025 16:17:49 GMT-0400 (Eastern Daylight Time),395879.700000003,step,800,I,m,m,None,581,381.0,200.0,65,1,1907.0,393972.700000003,9023,step,AF,C,381826,381826,380302,381109,380302,382209,381626,381626,382209,82
78,test,1,con,1,z,Wed Jul 09 2025 16:17:49 GMT-0400 (Eastern Daylight Time),397830.700000003,rage,800,I,z,z,None,598,399.0,199.0,49,1,1935.2999999970198,395895.40000000596,9023,rage,AF,C,383760,383760,382224,383042,382225,384160,383559,383560,384160,83
79,test,1,inc,1,z,Wed Jul 09 2025 16:17:49 GMT-0400 (Eastern Daylight Time),400113.40000000596,napkin,900,I,z,z,None,837,638.0,199.0,6,1,2274.7000000029802,397838.700000003,9023,elated,AF,C,385793,385793,384168,385076,384168,386442,385593,385593,386442,84
80,test,1,inc,1,z,Wed Jul 09 2025 16:17:49 GMT-0400 (Eastern Daylight Time),402313.299999997,film,1100,I,z,z,None,562,363.0,199.0,56,1,2191.0999999940395,400122.200000003,9023,rage,AF,C,388276,388276,386451,387560,386452,388642,388076,388076,388642,85
81,test,1,inc,1,z,Wed Jul 09 2025 16:17:49 GMT-0400 (Eastern Daylight Time),404096.700000003,step,800,I,z,z,None,439,239.0,200.0,53,1,1772.7000000029802,402324.0,9023,rage,AF,C,390176,390176,388653,389459,388653,390426,389976,389976,390426,86
82,test,1,con,1,z,Wed Jul 09 2025 16:17:49 GMT-0400 (Eastern Daylight Time),406163.40000000596,brutal,900,I,z,z,None,618,419.0,199.0,34,1,2057.7000000029802,404105.700000003,9023,brutal,AF,C,392059,392060,390435,391343,390435,392492,391859,391860,392492,87
83,test,1,inc,1,m,Wed Jul 09 2025 16:17:49 GMT-0400 (Eastern Daylight Time),408013.299999997,elated,800,I,m,m,None,509,309.0,200.0,109,1,1841.5,406171.799999997,9023,napkin,AF,C,394026,394026,392501,393309,392501,394342,393826,393826,394342,88
84,test,1,con,1,m,Wed Jul 09 2025 16:17:49 GMT-0400 (Eastern Daylight Time),410113.200000003,jacket,1000,I,m,m,None,555,355.0,200.0,99,1,2089.7000000029802,408023.5,9023,jacket,AF,C,396076,396076,394353,395360,394353,396442,395876,395876,396442,89
85,test,1,inc,1,z,Wed Jul 09 2025 16:17:49 GMT-0400 (Eastern Daylight Time),412063.299999997,step,800,I,z,z,None,607,407.0,200.0,45,1,1941.0999999940395,410122.200000003,9023,hate,AF,C,397976,397976,396451,397259,396452,398392,397776,397776,398392,90
86,test,1,con,1,m,Wed Jul 09 2025 16:17:49 GMT-0400 (Eastern Daylight Time),414279.700000003,napkin,1100,I,m,m,None,581,381.0,200.0,108,1,2207.0999999940395,412072.60000000894,9023,napkin,AF,C,400226,400226,398402,399509,398402,400609,400026,400026,400609,91
87,test,1,inc,1,z,Wed Jul 09 2025 16:17:49 GMT-0400 (Eastern Daylight Time),416213.40000000596,napkin,900,I,z,z,None,484,285.0,199.0,38,1,1924.2999999970198,414289.10000000894,9023,brutal,AF,C,402242,402242,400618,401526,400618,402543,402043,402043,402542,92
88,test,1,con,1,z,Wed Jul 09 2025 16:17:49 GMT-0400 (Eastern Daylight Time),418480.0,temper,1100,I,z,z,None,623,423.0,200.0,60,1,2257.0999999940395,416222.90000000596,9023,temper,AF,C,404376,404376,402552,403659,402552,404809,404176,404176,404809,93
89,test,1,inc,1,z,Wed Jul 09 2025 16:17:49 GMT-0400 (Eastern Daylight Time),420613.40000000596,window,1100,I,z,z,None,483,284.0,199.0,40,1,2122.2999999970198,418491.10000000894,9023,brutal,AF,C,406643,406643,404820,405926,404820,406943,406443,406443,406942,94
90,test,1,con,1,m,Wed Jul 09 2025 16:17:49 GMT-0400 (Eastern Daylight Time),422563.40000000596,napkin,800,I,m,m,None,603,403.0,200.0,105,1,1939.2000000029802,420624.200000003,9023,napkin,AF,C,408476,408476,406953,407759,406954,408893,408276,408276,408892,95
91,test,1,con,1,z,Wed Jul 09 2025 16:17:49 GMT-0400 (Eastern Daylight Time),424630.0,hate,1000,I,z,z,None,518,317.0,201.0,43,1,2058.7000000029802,422571.299999997,9023,hate,AF,C,410626,410626,408900,409910,408901,410959,410425,410425,410959,96
92,test,1,con,1,m,Wed Jul 09 2025 16:17:49 GMT-0400 (Eastern Daylight Time),426463.40000000596,window,800,I,m,m,None,489,290.0,199.0,121,1,1822.4000000059605,424641.0,9023,window,AF,C,412493,412493,410970,411776,410970,412793,412293,412293,412792,97
92,test,1,con,0,z,Wed Jul 09 2025 16:17:49 GMT-0400 (Eastern Daylight Time),428696.60000000894,brutal,1100,I,m,m,None,597,397.0,200.0,36,1,2223.5,426473.10000000894,9023,brutal,AF,C,414626,414626,412802,413909,412802,415026,414426,414426,415026,98
93,test,1,inc,1,m,Wed Jul 09 2025 16:17:49 GMT-0400 (Eastern Daylight Time),430880.0,hate,1100,I,m,m,None,538,339.0,199.0,88,1,2174.5,428705.5,9023,bell,AF,C,416860,416860,415035,416143,415035,417209,416660,416660,417209,99
94,test,1,inc,1,m,Wed Jul 09 2025 16:17:49 GMT-0400 (Eastern Daylight Time),433046.60000000894,love,1000,I,m,m,None,615,416.0,199.0,79,1,2157.2000000029802,430889.40000000596,9023,rock,AF,C,418943,418943,417218,418226,417219,419376,418743,418743,419376,100
95,test,1,inc,1,z,Wed Jul 09 2025 16:17:49 GMT-0400 (Eastern Daylight Time),435096.299999997,window,1100,I,z,z,None,411,212.0,199.0,32,1,2040.699999988079,433055.60000000894,9023,friend,AF,C,421209,421210,419385,420493,419385,421425,421009,421010,421425,101
96,test,1,inc,1,m,Wed Jul 09 2025 16:17:49 GMT-0400 (Eastern Daylight Time),437180.0,love,1000,I,m,m,None,542,343.0,199.0,95,1,2078.5,435101.5,9023,film,AF,C,423160,423160,421431,422442,421431,423509,422960,422960,423509,102
97,test,1,con,1,m,Wed Jul 09 2025 16:17:49 GMT-0400 (Eastern Daylight Time),439563.40000000596,remote,1000,I,m,m,None,843,644.0,199.0,115,1,2372.4000000059605,437191.0,9023,remote,AF,C,425243,425243,423520,424526,423520,425893,425043,425043,425892,103
98,test,1,con,1,z,Wed Jul 09 2025 16:17:49 GMT-0400 (Eastern Daylight Time),441563.40000000596,temper,900,I,z,z,None,560,361.0,199.0,58,1,1991.7999999970198,439571.60000000894,9023,temper,AF,C,427526,427526,425901,426809,425901,427892,427326,427326,427892,104
99,test,1,inc,1,z,Wed Jul 09 2025 16:17:49 GMT-0400 (Eastern Daylight Time),443896.40000000596,window,1100,I,z,z,None,697,497.0,200.0,8,1,2324.0,441572.40000000596,9023,elated,AF,C,429726,429726,427901,429009,427902,430226,429526,429526,430225,105
100,test,1,con,1,m,Wed Jul 09 2025 16:17:49 GMT-0400 (Eastern Daylight Time),445881.0,film,900,I,m,m,None,547,347.0,200.0,90,1,1974.2999999970198,443906.700000003,9023,film,AF,C,431859,431860,430236,431143,430236,432210,431659,431659,432210,106
101,test,1,con,1,z,Wed Jul 09 2025 16:17:49 GMT-0400 (Eastern Daylight Time),448163.40000000596,love,900,I,z,z,None,835,636.0,199.0,18,1,2271.4000000059605,445892.0,9023,love,AF,C,433843,433843,432221,433126,432221,434493,433643,433643,434492,107
102,test,1,con,1,z,Wed Jul 09 2025 16:17:49 GMT-0400 (Eastern Daylight Time),450413.40000000596,friend,1100,I,z,z,None,609,409.0,200.0,28,1,2241.9000000059605,448171.5,9023,friend,AF,C,436326,436326,434501,435609,434501,436743,436126,436126,436742,108
103,test,1,inc,1,m,Wed Jul 09 2025 16:17:49 GMT-0400 (Eastern Daylight Time),452679.799999997,hate,1100,I,m,m,None,631,431.0,200.0,72,1,2257.0,450422.799999997,9023,step,AF,C,438576,438576,436752,437860,436752,439009,438376,438376,439009,109
104,test,1,inc,1,m,Wed Jul 09 2025 16:17:49 GMT-0400 (Eastern Daylight Time),454980.0,kind,900,I,m,m,None,852,653.0,199.0,94,1,2289.8999999910593,452690.10000000894,9023,film,AF,C,440642,440642,439019,439926,439019,441309,440443,440443,441309,110
105,test,1,con,1,z,Wed Jul 09 2025 16:17:49 GMT-0400 (Eastern Daylight Time),457230.10000000894,rage,1100,I,z,z,None,608,409.0,199.0,52,1,2235.2000000029802,454994.90000000596,9023,rage,AF,C,443143,443143,441324,442426,441325,443559,442943,442943,443559,111
106,test,1,con,1,z,Wed Jul 09 2025 16:17:49 GMT-0400 (Eastern Daylight Time),459363.0,love,1000,I,z,z,None,585,386.0,199.0,19,1,2123.7999999970198,457239.200000003,9023,love,AF,C,445293,445293,443568,444576,443569,445692,445093,445093,445692,112
107,test,1,con,1,z,Wed Jul 09 2025 16:17:49 GMT-0400 (Eastern Daylight Time),461346.700000003,temper,1000,I,z,z,None,437,237.0,200.0,59,1,1978.9000000059605,459367.799999997,9023,temper,AF,C,447426,447426,445697,446709,445697,447676,447226,447226,447676,113
108,test,1,con,1,m,Wed Jul 09 2025 16:17:49 GMT-0400 (Eastern Daylight Time),463429.799999997,step,1100,I,m,m,None,447,248.0,199.0,68,1,2071.7999999970198,461358.0,9023,step,AF,C,449509,449510,447687,448793,447687,449759,449310,449310,449759,114
109,test,1,inc,1,z,Wed Jul 09 2025 16:17:49 GMT-0400 (Eastern Daylight Time),465479.799999997,rock,900,I,z,z,None,613,414.0,199.0,14,1,2043.5999999940395,463436.200000003,9023,kind,AF,C,451393,451393,449765,450676,449765,451809,451193,451193,451809,115
110,test,1,inc,1,m,Wed Jul 09 2025 16:17:49 GMT-0400 (Eastern Daylight Time),467562.90000000596,temper,1000,I,m,m,None,542,343.0,199.0,119,1,2069.9000000059605,465493.0,9023,remote,AF,C,453543,453543,451822,452826,451822,453892,453343,453343,453892,116
111,test,1,inc,1,z,Wed Jul 09 2025 16:17:49 GMT-0400 (Eastern Daylight Time),469596.700000003,jacket,800,I,z,z,None,693,493.0,200.0,37,1,2028.9000000059605,467567.799999997,9023,brutal,AF,C,455426,455426,453897,454709,453897,455926,455226,455226,455926,117
112,test,1,con,1,m,Wed Jul 09 2025 16:17:49 GMT-0400 (Eastern Daylight Time),471646.700000003,remote,900,I,m,m,None,606,407.0,199.0,114,1,2042.0999999940395,469604.60000000894,9023,remote,AF,C,457560,457560,455934,456842,455934,457976,457359,457360,457976,118
113,test,1,con,1,z,Wed Jul 09 2025 16:17:49 GMT-0400 (Eastern Daylight Time),473830.90000000596,elated,1100,I,z,z,None,549,349.0,200.0,4,1,2175.5,471655.40000000596,9023,elated,AF,C,459809,459810,457984,459093,457985,460160,459609,459609,460160,119
113,test,1,con,0,z,Wed Jul 09 2025 16:17:49 GMT-0400 (Eastern Daylight Time),475963.40000000596,kind,800,I,m,m,None,793,594.0,199.0,9,1,2125.1000000089407,473838.299999997,9023,kind,AF,C,461693,461693,460167,460976,460168,462292,461493,461493,462292,120
114,test,1,con,1,z,Wed Jul 09 2025 16:17:49 GMT-0400 (Eastern Daylight Time),477813.40000000596,kind,900,I,z,z,None,400,201.0,199.0,10,1,1841.6000000089407,475971.799999997,9023,kind,AF,C,463926,463926,462301,463209,462301,464143,463726,463726,464142,121
115,test,1,inc,1,z,Wed Jul 09 2025 16:17:49 GMT-0400 (Eastern Daylight Time),479930.10000000894,napkin,900,I,z,z,None,679,479.0,200.0,30,1,2109.0,477821.10000000894,9023,friend,AF,C,465776,465776,464150,465060,464150,466259,465576,465576,466259,122
116,test,1,con,1,z,Wed Jul 09 2025 16:17:49 GMT-0400 (Eastern Daylight Time),481830.90000000596,hate,800,I,z,z,None,565,366.0,199.0,41,1,1892.1000000089407,479938.799999997,9023,hate,AF,C,467793,467793,466268,467076,466268,468160,467593,467593,468160,123
117,test,1,con,1,m,Wed Jul 09 2025 16:17:49 GMT-0400 (Eastern Daylight Time),483996.799999997,window,1100,I,m,m,None,525,326.0,199.0,124,1,2158.7999999970198,481838.0,9023,window,AF,C,469993,469993,468167,469276,468167,470326,469793,469793,470326,124
117,test,1,inc,0,m,Wed Jul 09 2025 16:17:49 GMT-0400 (Eastern Daylight Time),485896.60000000894,rage,800,I,z,z,None,562,363.0,199.0,77,1,1890.5,484006.10000000894,9023,rock,AF,C,471860,471860,470335,471143,470335,472226,471660,471660,472226,125
118,test,1,inc,1,m,Wed Jul 09 2025 16:17:49 GMT-0400 (Eastern Daylight Time),488096.60000000894,hate,1100,I,m,m,None,554,355.0,199.0,96,1,2190.5,485906.10000000894,9023,film,AF,C,474060,474060,472235,473343,472235,474426,473860,473860,474426,126
119,test,1,inc,1,m,Wed Jul 09 2025 16:17:49 GMT-0400 (Eastern Daylight Time),490130.0,elated,800,I,m,m,None,686,487.0,199.0,125,1,2025.2999999970198,488104.700000003,9023,window,AF,C,475960,475960,474434,475243,474434,476459,475760,475760,476459,127
120,test,1,inc,1,z,Wed Jul 09 2025 16:17:49 GMT-0400 (Eastern Daylight Time),492296.5,film,1100,I,z,z,None,530,330.0,200.0,16,1,2157.7999999970198,490138.700000003,9023,kind,AF,C,478293,478293,476468,477576,476468,478626,478092,478092,478626,128
