Q,Q1,Q2,Q3,Q4,acc_sum,block,block_c,correct,correct_response,datetime,endtime,project,response,response_time,row_sel,session_number,squiggle1,squiggle1x,squiggle1y,squiggle2,squiggle2x,squiggle2y,squiggle3,squiggle3x,squiggle3y,squiggle4,squiggle4x,squiggle4y,start_end,starttime,subject_id,target_congruent,task,task_vers,testsquiggle,testsquigglex,testsquiggley,time_practice_delay,time_practice_fixation,time_practice_stimuli,time_practice_study,time_test_delay,time_test_fixation,time_test_stimuli,time_test_study,trial
1,1,0,0,0,1,prac,1,1,z,Tue Apr 21 2026 18:18:18 GMT-0500 (Central Daylight Time),159920.59999999404,I,z,1158,1,3,116.bmp,-120,-120,117.bmp,120,-120,118.bmp,-120,120,119.bmp,120,120,9977.300000011921,149943.29999998212,8076,yes,SM,A,116.bmp,-120,-120,153168,147140,155184,149153,,,,,1
3,0,0,1,0,2,prac,1,1,m,Tue Apr 21 2026 18:18:18 GMT-0500 (Central Daylight Time),170150.59999999404,I,m,1409,2,3,120.bmp,-120,-120,121.bmp,120,-120,122.bmp,-120,120,123.bmp,120,120,10226.5,159924.09999999404,8076,no,SM,A,123.bmp,-120,120,163148,157120,165165,159132,,,,,2
4,0,0,0,1,3,prac,1,1,m,Tue Apr 21 2026 18:18:18 GMT-0500 (Central Daylight Time),180564.19999998808,I,m,1588,3,3,124.bmp,-120,-120,125.bmp,120,-120,126.bmp,-120,120,127.bmp,120,120,10410.40000000596,170153.79999998212,8076,no,SM,A,124.bmp,120,120,173378,167350,175394,169363,,,,,3
2,0,1,0,0,3,prac,1,0,z,Tue Apr 21 2026 18:18:18 GMT-0500 (Central Daylight Time),191394.09999999404,I,None,2016,4,3,128.bmp,-120,-120,129.bmp,120,-120,130.bmp,-120,120,131.bmp,120,120,10825.5,180568.59999999404,8076,yes,SM,A,129.bmp,120,-120,183791,177765,185808,179776,,,,,4
3,0,0,1,0,4,prac,1,1,z,Tue Apr 21 2026 18:18:18 GMT-0500 (Central Daylight Time),201440.89999997616,I,z,1223,5,3,132.bmp,-120,-120,133.bmp,120,-120,134.bmp,-120,120,135.bmp,120,120,10043.0,191397.89999997616,8076,yes,SM,A,134.bmp,-120,120,194621,188594,196638,190606,,,,,5
1,1,0,0,0,5,prac,1,1,m,Tue Apr 21 2026 18:18:18 GMT-0500 (Central Daylight Time),211271.19999998808,I,m,1009,6,3,136.bmp,-120,-120,137.bmp,120,-120,138.bmp,-120,120,139.bmp,120,120,9826.59999999404,201444.59999999404,8076,no,SM,A,139.bmp,-120,-120,204668,198641,206685,200653,,,,,6
2,0,1,0,0,6,prac,1,1,m,Tue Apr 21 2026 18:18:18 GMT-0500 (Central Daylight Time),221301.5,I,m,1203,7,3,140.bmp,-120,-120,141.bmp,120,-120,142.bmp,-120,120,143.bmp,120,120,10027.0,211274.5,8076,no,SM,A,140.bmp,120,-120,214499,208471,216515,210484,,,,,7
4,0,0,0,1,7,prac,1,1,z,Tue Apr 21 2026 18:18:18 GMT-0500 (Central Daylight Time),231731.89999997616,I,z,1605,8,3,144.bmp,-120,-120,145.bmp,120,-120,146.bmp,-120,120,147.bmp,120,120,10426.699999988079,221305.19999998808,8076,yes,SM,A,147.bmp,120,120,224529,218501,226545,220514,,,,,8
4,0,0,0,1,1,test,1,1,m,Tue Apr 21 2026 18:18:18 GMT-0500 (Central Daylight Time),256473.79999998212,I,m,1100,1,3,148.bmp,-120,-120,149.bmp,120,-120,150.bmp,-120,120,143.bmp,120,120,9161.299999982119,247312.5,8076,no,SM,A,150.bmp,120,120,224529,218501,226545,220514,250538.0,244509.0,252554.0,246522.0,1
2,0,1,0,0,2,test,1,1,m,Tue Apr 21 2026 18:18:18 GMT-0500 (Central Daylight Time),265504.0,I,m,968,2,3,101.bmp,-120,-120,102.bmp,120,-120,103.bmp,-120,120,104.bmp,120,120,9026.700000017881,256477.29999998212,8076,no,SM,A,103.bmp,120,-120,224529,218501,226545,220514,259701.0,253674.0,261718.0,255687.0,2
1,1,0,0,0,3,test,1,1,z,Tue Apr 21 2026 18:18:18 GMT-0500 (Central Daylight Time),274551.1999999881,I,z,986,3,3,105.bmp,-120,-120,106.bmp,120,-120,107.bmp,-120,120,108.bmp,120,120,9044.0,265507.1999999881,8076,yes,SM,A,105.bmp,-120,-120,224529,218501,226545,220514,268731.0,262703.0,270748.0,264716.0,3
3,0,0,1,0,4,test,1,1,m,Tue Apr 21 2026 18:18:18 GMT-0500 (Central Daylight Time),284514.6999999881,I,m,1907,4,3,109.bmp,-120,-120,110.bmp,120,-120,111.bmp,-120,120,112.bmp,120,120,9959.199999988079,274555.5,8076,no,SM,A,109.bmp,-120,120,224529,218501,226545,220514,277779.0,271752.0,279795.0,273764.0,4
2,0,1,0,0,5,test,1,1,z,Tue Apr 21 2026 18:18:18 GMT-0500 (Central Daylight Time),294095.1999999881,I,z,1526,5,3,113.bmp,-120,-120,114.bmp,120,-120,115.bmp,-120,120,116.bmp,120,120,9576.699999988079,284518.5,8076,yes,SM,A,114.bmp,120,-120,224529,218501,226545,220514,287743.0,281715.0,289760.0,283728.0,5
3,0,0,1,0,6,test,1,1,z,Tue Apr 21 2026 18:18:18 GMT-0500 (Central Daylight Time),303208.89999997616,I,z,1051,6,3,117.bmp,-120,-120,118.bmp,120,-120,119.bmp,-120,120,120.bmp,120,120,9110.299999982119,294098.59999999404,8076,yes,SM,A,119.bmp,-120,120,224529,218501,226545,220514,297323.0,291295.0,299339.0,293307.0,6
4,0,0,0,1,7,test,1,1,z,Tue Apr 21 2026 18:18:18 GMT-0500 (Central Daylight Time),312781.59999999404,I,z,1524,7,3,121.bmp,-120,-120,122.bmp,120,-120,123.bmp,-120,120,124.bmp,120,120,9569.59999999404,303212.0,8076,yes,SM,A,124.bmp,120,120,224529,218501,226545,220514,306438.0,300408.0,308453.0,302421.0,7
2,0,1,0,0,8,test,1,1,m,Tue Apr 21 2026 18:18:18 GMT-0500 (Central Daylight Time),322019.7999999821,I,m,1189,8,3,125.bmp,-120,-120,126.bmp,120,-120,127.bmp,-120,120,128.bmp,120,120,9235.0,312784.7999999821,8076,no,SM,A,125.bmp,120,-120,224529,218501,226545,220514,316000.0,309981.0,318017.0,311985.0,8
3,0,0,1,0,9,test,1,1,m,Tue Apr 21 2026 18:18:18 GMT-0500 (Central Daylight Time),331250.09999999404,I,m,1182,9,3,129.bmp,-120,-120,130.bmp,120,-120,131.bmp,-120,120,132.bmp,120,120,9227.300000011921,322022.7999999821,8076,no,SM,A,130.bmp,-120,120,224529,218501,226545,220514,325247.0,319219.0,327264.0,321232.0,9
4,0,0,0,1,10,test,1,1,z,Tue Apr 21 2026 18:18:18 GMT-0500 (Central Daylight Time),340847.39999997616,I,z,1536,10,3,137.bmp,-120,-120,138.bmp,120,-120,139.bmp,-120,120,140.bmp,120,120,9593.59999999404,331253.7999999821,8076,yes,SM,A,140.bmp,120,120,224529,218501,226545,220514,334478.0,328450.0,336494.0,330463.0,10
3,0,0,1,0,11,test,1,1,z,Tue Apr 21 2026 18:18:18 GMT-0500 (Central Daylight Time),349944.5,I,z,1043,11,3,133.bmp,-120,-120,134.bmp,120,-120,135.bmp,-120,120,136.bmp,120,120,9093.0,340851.5,8076,yes,SM,A,135.bmp,-120,120,224529,218501,226545,220514,344075.0,338048.0,346091.0,340060.0,11
2,0,1,0,0,12,test,1,1,m,Tue Apr 21 2026 18:18:18 GMT-0500 (Central Daylight Time),359024.6999999881,I,m,1026,12,3,141.bmp,-120,-120,142.bmp,120,-120,143.bmp,-120,120,144.bmp,120,120,9076.699999988079,349948.0,8076,no,SM,A,141.bmp,120,-120,224529,218501,226545,220514,353172.0,347144.0,355188.0,349157.0,12
3,0,0,1,0,13,test,1,1,m,Tue Apr 21 2026 18:18:18 GMT-0500 (Central Daylight Time),368188.39999997616,I,m,1113,13,3,145.bmp,-120,-120,146.bmp,120,-120,147.bmp,-120,120,148.bmp,120,120,9160.5,359027.89999997616,8076,no,SM,A,146.bmp,-120,120,224529,218501,226545,220514,362252.0,356224.0,364269.0,358237.0,13
1,1,0,0,0,14,test,1,1,z,Tue Apr 21 2026 18:18:18 GMT-0500 (Central Daylight Time),377619.0,I,z,1374,14,3,149.bmp,-120,-120,150.bmp,120,-120,104.bmp,-120,120,101.bmp,120,120,9426.300000011921,368192.6999999881,8076,yes,SM,A,149.bmp,-120,-120,224529,218501,226545,220514,371416.0,365389.0,373432.0,367401.0,14
4,0,0,0,1,14,test,1,0,m,Tue Apr 21 2026 18:18:18 GMT-0500 (Central Daylight Time),387066.2999999821,I,z,1392,15,3,110.bmp,-120,-120,111.bmp,120,-120,112.bmp,-120,120,113.bmp,120,120,9443.199999988079,377623.09999999404,8076,no,SM,A,111.bmp,120,120,224529,218501,226545,220514,380858.0,374819.0,382863.0,376831.0,15
1,1,0,0,0,15,test,1,1,m,Tue Apr 21 2026 18:18:18 GMT-0500 (Central Daylight Time),396712.7999999821,I,m,1592,16,3,102.bmp,-120,-120,103.bmp,120,-120,104.bmp,-120,120,105.bmp,120,120,9642.90000000596,387069.89999997616,8076,no,SM,A,105.bmp,-120,-120,224529,218501,226545,220514,390293.0,384266.0,392310.0,386278.0,16
3,0,0,1,0,15,test,1,0,m,Tue Apr 21 2026 18:18:18 GMT-0500 (Central Daylight Time),406759.7999999821,I,None,2015,17,3,122.bmp,-120,-120,123.bmp,120,-120,124.bmp,-120,120,125.bmp,120,120,10043.40000000596,396716.39999997616,8076,no,SM,A,122.bmp,-120,120,224529,218501,226545,220514,399940.0,393913.0,401941.0,395925.0,17
1,1,0,0,0,16,test,1,1,z,Tue Apr 21 2026 18:18:18 GMT-0500 (Central Daylight Time),416606.7999999821,I,z,1794,18,3,106.bmp,-120,-120,107.bmp,120,-120,108.bmp,-120,120,109.bmp,120,120,9843.90000000596,406762.89999997616,8076,yes,SM,A,106.bmp,-120,-120,224529,218501,226545,220514,409989.0,403959.0,412003.0,405972.0,18
2,0,1,0,0,16,test,1,0,z,Tue Apr 21 2026 18:18:18 GMT-0500 (Central Daylight Time),425754.09999999404,I,m,1092,19,3,126.bmp,-120,-120,127.bmp,120,-120,128.bmp,-120,120,129.bmp,120,120,9144.09999999404,416610.0,8076,yes,SM,A,127.bmp,120,-120,224529,218501,226545,220514,419835.0,413806.0,421850.0,415819.0,19
3,0,0,1,0,17,test,1,1,z,Tue Apr 21 2026 18:18:18 GMT-0500 (Central Daylight Time),434934.59999999404,I,z,1120,20,3,130.bmp,-120,-120,131.bmp,120,-120,132.bmp,-120,120,133.bmp,120,120,9176.800000011921,425757.7999999821,8076,yes,SM,A,132.bmp,-120,120,224529,218501,226545,220514,428983.0,422954.0,430998.0,424966.0,20
1,1,0,0,0,18,test,1,1,m,Tue Apr 21 2026 18:18:18 GMT-0500 (Central Daylight Time),444514.6999999881,I,m,1516,21,3,114.bmp,-120,-120,115.bmp,120,-120,116.bmp,-120,120,117.bmp,120,120,9576.90000000596,434937.7999999821,8076,no,SM,A,116.bmp,-120,-120,224529,218501,226545,220514,438162.0,432134.0,440178.0,434147.0,21
4,0,0,0,1,18,test,1,0,z,Tue Apr 21 2026 18:18:18 GMT-0500 (Central Daylight Time),454405.6999999881,I,m,1843,22,3,118.bmp,-120,-120,119.bmp,120,-120,120.bmp,-120,120,121.bmp,120,120,9887.699999988079,444518.0,8076,yes,SM,A,121.bmp,120,120,224529,218501,226545,220514,447742.0,441714.0,449743.0,443727.0,22
1,1,0,0,0,19,test,1,1,m,Tue Apr 21 2026 18:18:18 GMT-0500 (Central Daylight Time),463542.0,I,m,1087,23,3,134.bmp,-120,-120,135.bmp,120,-120,136.bmp,-120,120,137.bmp,120,120,9133.300000011921,454408.6999999881,8076,no,SM,A,137.bmp,-120,-120,224529,218501,226545,220514,457623.0,451605.0,459639.0,453607.0,23
2,0,1,0,0,20,test,1,1,z,Tue Apr 21 2026 18:18:18 GMT-0500 (Central Daylight Time),472906.0,I,z,1308,24,3,142.bmp,-120,-120,143.bmp,120,-120,144.bmp,-120,120,145.bmp,120,120,9360.5,463545.5,8076,yes,SM,A,143.bmp,120,-120,224529,218501,226545,220514,466770.0,460742.0,468786.0,462755.0,24
4,0,0,0,1,21,test,1,1,m,Tue Apr 21 2026 18:18:18 GMT-0500 (Central Daylight Time),482886.09999999404,I,m,1921,25,3,146.bmp,-120,-120,147.bmp,120,-120,148.bmp,-120,120,149.bmp,120,120,9976.700000017881,472909.39999997616,8076,no,SM,A,148.bmp,120,120,224529,218501,226545,220514,476133.0,470106.0,478149.0,472118.0,25
1,1,0,0,0,21,test,1,0,z,Tue Apr 21 2026 18:18:18 GMT-0500 (Central Daylight Time),492949.5,I,None,2014,26,3,138.bmp,-120,-120,139.bmp,120,-120,140.bmp,-120,120,141.bmp,120,120,10060.600000023842,482888.89999997616,8076,yes,SM,A,138.bmp,-120,-120,224529,218501,226545,220514,486114.0,480085.0,488131.0,482098.0,26
4,0,0,0,1,22,test,1,1,z,Tue Apr 21 2026 18:18:18 GMT-0500 (Central Daylight Time),502846.2999999821,I,z,1845,27,3,150.bmp,-120,-120,111.bmp,120,-120,101.bmp,-120,120,102.bmp,120,120,9893.199999988079,492953.09999999404,8076,yes,SM,A,102.bmp,120,120,224529,218501,226545,220514,496177.0,490149.0,498193.0,492162.0,27
3,0,0,1,0,23,test,1,1,m,Tue Apr 21 2026 18:18:18 GMT-0500 (Central Daylight Time),512243.1999999881,I,m,1340,28,3,103.bmp,-120,-120,104.bmp,120,-120,105.bmp,-120,120,106.bmp,120,120,9393.699999988079,502849.5,8076,no,SM,A,103.bmp,-120,120,224529,218501,226545,220514,506074.0,500046.0,508090.0,502059.0,28
2,0,1,0,0,24,test,1,1,z,Tue Apr 21 2026 18:18:18 GMT-0500 (Central Daylight Time),521740.6999999881,I,z,1439,29,3,107.bmp,-120,-120,108.bmp,120,-120,109.bmp,-120,120,110.bmp,120,120,9494.199999988079,512246.5,8076,yes,SM,A,108.bmp,120,-120,224529,218501,226545,220514,515471.0,509443.0,517487.0,511456.0,29
3,0,0,1,0,25,test,1,1,z,Tue Apr 21 2026 18:18:18 GMT-0500 (Central Daylight Time),530670.7999999821,I,z,870,30,3,111.bmp,-120,-120,112.bmp,120,-120,113.bmp,-120,120,114.bmp,120,120,8926.199999988079,521744.59999999404,8076,yes,SM,A,113.bmp,-120,120,224529,218501,226545,220514,524969.0,518941.0,526984.0,520953.0,30
1,1,0,0,0,26,test,1,1,z,Tue Apr 21 2026 18:18:18 GMT-0500 (Central Daylight Time),539618.0,I,z,899,31,3,115.bmp,-120,-120,116.bmp,120,-120,117.bmp,-120,120,118.bmp,120,120,8943.40000000596,530674.599999994,8076,yes,SM,A,115.bmp,-120,-120,224529,218501,226545,220514,533899.0,527871.0,535915.0,529883.0,31
2,0,1,0,0,27,test,1,1,m,Tue Apr 21 2026 18:18:18 GMT-0500 (Central Daylight Time),549031.7999999821,I,m,1352,32,3,119.bmp,-120,-120,120.bmp,120,-120,121.bmp,-120,120,122.bmp,120,120,9410.59999999404,539621.1999999881,8076,no,SM,A,119.bmp,120,-120,224529,218501,226545,220514,542846.0,536817.0,544862.0,538831.0,32
4,0,0,0,1,27,test,1,0,z,Tue Apr 21 2026 18:18:18 GMT-0500 (Central Daylight Time),558529.099999994,I,m,1434,33,3,131.bmp,-120,-120,132.bmp,120,-120,133.bmp,-120,120,134.bmp,120,120,9493.800000011921,549035.2999999821,8076,yes,SM,A,134.bmp,120,120,224529,218501,226545,220514,552260.0,546232.0,554276.0,548244.0,33
2,0,1,0,0,28,test,1,1,z,Tue Apr 21 2026 18:18:18 GMT-0500 (Central Daylight Time),567959.3999999762,I,z,1370,34,3,123.bmp,-120,-120,124.bmp,120,-120,125.bmp,-120,120,126.bmp,120,120,9427.09999999404,558532.2999999821,8076,yes,SM,A,124.bmp,120,-120,224529,218501,226545,220514,561757.0,555728.0,563773.0,557741.0,34
4,0,0,0,1,29,test,1,1,m,Tue Apr 21 2026 18:18:18 GMT-0500 (Central Daylight Time),577706.099999994,I,m,1691,35,3,127.bmp,-120,-120,128.bmp,120,-120,129.bmp,-120,120,130.bmp,120,120,9742.800000011921,567963.2999999821,8076,no,SM,A,129.bmp,120,120,224529,218501,226545,220514,571187.0,565160.0,573203.0,567172.0,35
3,0,0,1,0,30,test,1,1,m,Tue Apr 21 2026 18:18:18 GMT-0500 (Central Daylight Time),587270.0,I,m,1504,36,3,135.bmp,-120,-120,136.bmp,120,-120,137.bmp,-120,120,138.bmp,120,120,9561.0,577709.0,8076,no,SM,A,135.bmp,-120,120,224529,218501,226545,220514,580934.0,574905.0,582950.0,576919.0,36
1,1,0,0,0,31,test,1,1,m,Tue Apr 21 2026 18:18:18 GMT-0500 (Central Daylight Time),597050.1999999881,I,m,1716,37,3,139.bmp,-120,-120,140.bmp,120,-120,141.bmp,-120,120,142.bmp,120,120,9777.09999999404,587273.099999994,8076,no,SM,A,140.bmp,-120,-120,224529,218501,226545,220514,590498.0,584469.0,592514.0,586482.0,37
2,0,1,0,0,32,test,1,1,m,Tue Apr 21 2026 18:18:18 GMT-0500 (Central Daylight Time),606297.2999999821,I,m,1192,38,3,143.bmp,-120,-120,144.bmp,120,-120,145.bmp,-120,120,146.bmp,120,120,9244.59999999404,597052.6999999881,8076,no,SM,A,145.bmp,120,-120,224529,218501,226545,220514,600278.0,594249.0,602294.0,596263.0,38
4,0,0,0,1,33,test,1,1,z,Tue Apr 21 2026 18:18:18 GMT-0500 (Central Daylight Time),615361.099999994,I,z,1000,39,3,147.bmp,-120,-120,148.bmp,120,-120,149.bmp,-120,120,150.bmp,120,120,9060.700000017881,606300.3999999762,8076,yes,SM,A,150.bmp,120,120,224529,218501,226545,220514,609525.0,603497.0,611541.0,605510.0,39
3,0,0,1,0,34,test,1,1,m,Tue Apr 21 2026 18:18:18 GMT-0500 (Central Daylight Time),624291.5,I,m,873,40,3,104.bmp,-120,-120,105.bmp,120,-120,106.bmp,-120,120,107.bmp,120,120,8926.5,615365.0,8076,no,SM,A,105.bmp,-120,120,224529,218501,226545,220514,618589.0,612561.0,620605.0,614574.0,40
1,1,0,0,0,35,test,1,1,z,Tue Apr 21 2026 18:18:18 GMT-0500 (Central Daylight Time),633205.5,I,z,855,41,3,108.bmp,-120,-120,109.bmp,120,-120,110.bmp,-120,120,111.bmp,120,120,8910.300000011921,624295.1999999881,8076,yes,SM,A,108.bmp,-120,-120,224529,218501,226545,220514,627519.0,621492.0,629535.0,623505.0,41
4,0,0,0,1,35,test,1,0,z,Tue Apr 21 2026 18:18:18 GMT-0500 (Central Daylight Time),643268.8999999762,I,None,2015,42,3,112.bmp,-120,-120,113.bmp,120,-120,114.bmp,-120,120,115.bmp,120,120,10060.299999982119,633208.599999994,8076,yes,SM,A,115.bmp,120,120,224529,218501,226545,220514,636433.0,630405.0,638450.0,632418.0,42
1,1,0,0,0,36,test,1,1,z,Tue Apr 21 2026 18:18:18 GMT-0500 (Central Daylight Time),652533.0,I,z,1213,43,3,116.bmp,-120,-120,117.bmp,120,-120,118.bmp,-120,120,119.bmp,120,120,9260.600000023842,643272.3999999762,8076,yes,SM,A,116.bmp,-120,-120,224529,218501,226545,220514,646497.0,640469.0,648513.0,642481.0,43
4,0,0,0,1,37,test,1,1,m,Tue Apr 21 2026 18:18:18 GMT-0500 (Central Daylight Time),662063.099999994,I,m,1468,44,3,104.bmp,-120,-120,101.bmp,120,-120,102.bmp,-120,120,103.bmp,120,120,9526.800000011921,652536.2999999821,8076,no,SM,A,104.bmp,120,120,224529,218501,226545,220514,655760.0,649733.0,657778.0,651746.0,44
1,1,0,0,0,38,test,1,1,m,Tue Apr 21 2026 18:18:18 GMT-0500 (Central Daylight Time),671077.0,I,m,955,45,3,128.bmp,-120,-120,129.bmp,120,-120,130.bmp,-120,120,131.bmp,120,120,9010.600000023842,662066.3999999762,8076,no,SM,A,131.bmp,-120,-120,224529,218501,226545,220514,665291.0,659263.0,667307.0,661276.0,45
1,1,0,0,0,39,test,1,1,m,Tue Apr 21 2026 18:18:18 GMT-0500 (Central Daylight Time),680124.1999999881,I,m,997,46,3,120.bmp,-120,-120,121.bmp,120,-120,122.bmp,-120,120,123.bmp,120,120,9044.09999999404,671080.099999994,8076,no,SM,A,121.bmp,-120,-120,224529,218501,226545,220514,674304.0,668276.0,676321.0,670290.0,46
3,0,0,1,0,39,test,1,0,z,Tue Apr 21 2026 18:18:18 GMT-0500 (Central Daylight Time),690190.599999994,I,None,2018,47,3,124.bmp,-120,-120,125.bmp,120,-120,126.bmp,-120,120,127.bmp,120,120,10063.59999999404,680127.0,8076,yes,SM,A,126.bmp,-120,120,224529,218501,226545,220514,683352.0,677323.0,685369.0,679336.0,47
3,0,0,1,0,40,test,1,1,z,Tue Apr 21 2026 18:18:18 GMT-0500 (Central Daylight Time),699468.099999994,I,z,1231,48,3,140.bmp,-120,-120,141.bmp,120,-120,142.bmp,-120,120,143.bmp,120,120,9274.40000000596,690193.6999999881,8076,yes,SM,A,142.bmp,-120,120,224529,218501,226545,220514,693415.0,687390.0,695431.0,689400.0,48
2,0,1,0,0,41,test,1,1,z,Tue Apr 21 2026 18:18:18 GMT-0500 (Central Daylight Time),709165.0,I,z,1646,49,3,136.bmp,-120,-120,137.bmp,120,-120,138.bmp,-120,120,139.bmp,120,120,9693.40000000596,699471.599999994,8076,yes,SM,A,137.bmp,120,-120,224529,218501,226545,220514,702696.0,696668.0,704712.0,698680.0,49
3,0,0,1,0,42,test,1,1,m,Tue Apr 21 2026 18:18:18 GMT-0500 (Central Daylight Time),718579.599999994,I,m,1365,50,3,132.bmp,-120,-120,133.bmp,120,-120,134.bmp,-120,120,135.bmp,120,120,9411.09999999404,709168.5,8076,no,SM,A,132.bmp,-120,120,224529,218501,226545,220514,712393.0,706365.0,714409.0,708377.0,50
2,0,1,0,0,43,test,1,1,z,Tue Apr 21 2026 18:18:18 GMT-0500 (Central Daylight Time),728042.5,I,z,1407,51,3,144.bmp,-120,-120,145.bmp,120,-120,146.bmp,-120,120,147.bmp,120,120,9459.600000023842,718582.8999999762,8076,yes,SM,A,145.bmp,120,-120,224529,218501,226545,220514,721807.0,715779.0,723823.0,717791.0,51
4,0,0,0,1,44,test,1,1,m,Tue Apr 21 2026 18:18:18 GMT-0500 (Central Daylight Time),737556.099999994,I,m,1456,52,3,148.bmp,-120,-120,149.bmp,120,-120,150.bmp,-120,120,131.bmp,120,120,9510.800000011921,728045.2999999821,8076,no,SM,A,148.bmp,120,120,224529,218501,226545,220514,731270.0,725242.0,733286.0,727255.0,52
3,0,0,1,0,45,test,1,1,z,Tue Apr 21 2026 18:18:18 GMT-0500 (Central Daylight Time),746453.3999999762,I,z,838,53,3,101.bmp,-120,-120,102.bmp,120,-120,103.bmp,-120,120,104.bmp,120,120,8893.699999988079,737559.6999999881,8076,yes,SM,A,103.bmp,-120,120,224529,218501,226545,220514,740784.0,734756.0,742800.0,736769.0,53
1,1,0,0,0,46,test,1,1,m,Tue Apr 21 2026 18:18:18 GMT-0500 (Central Daylight Time),756366.8999999762,I,m,1853,54,3,105.bmp,-120,-120,106.bmp,120,-120,107.bmp,-120,120,108.bmp,120,120,9910.399999976158,746456.5,8076,no,SM,A,107.bmp,-120,-120,224529,218501,226545,220514,749681.0,743653.0,751697.0,745666.0,54
4,0,0,0,1,47,test,1,1,z,Tue Apr 21 2026 18:18:18 GMT-0500 (Central Daylight Time),765880.5,I,z,1460,55,3,109.bmp,-120,-120,110.bmp,120,-120,111.bmp,-120,120,112.bmp,120,120,9510.300000011921,756370.1999999881,8076,yes,SM,A,112.bmp,120,120,224529,218501,226545,220514,759595.0,753566.0,761611.0,755579.0,55
2,0,1,0,0,48,test,1,1,m,Tue Apr 21 2026 18:18:18 GMT-0500 (Central Daylight Time),775377.6999999881,I,m,1433,56,3,113.bmp,-120,-120,114.bmp,120,-120,115.bmp,-120,120,116.bmp,120,120,9494.09999999404,765883.599999994,8076,no,SM,A,113.bmp,120,-120,224529,218501,226545,220514,769108.0,763080.0,771125.0,765093.0,56
4,0,0,0,1,49,test,1,1,m,Tue Apr 21 2026 18:18:18 GMT-0500 (Central Daylight Time),784526.6999999881,I,m,1097,57,3,117.bmp,-120,-120,118.bmp,120,-120,119.bmp,-120,120,120.bmp,120,120,9145.90000000596,775380.7999999821,8076,no,SM,A,118.bmp,120,120,224529,218501,226545,220514,778605.0,772577.0,780621.0,774590.0,57
3,0,0,1,0,49,test,1,0,z,Tue Apr 21 2026 18:18:18 GMT-0500 (Central Daylight Time),794589.2999999821,I,None,2016,58,3,121.bmp,-120,-120,122.bmp,120,-120,123.bmp,-120,120,124.bmp,120,120,10059.09999999404,784530.1999999881,8076,yes,SM,A,123.bmp,-120,120,224529,218501,226545,220514,787753.0,781727.0,789769.0,783737.0,58
2,0,1,0,0,50,test,1,1,m,Tue Apr 21 2026 18:18:18 GMT-0500 (Central Daylight Time),803902.099999994,I,m,1262,59,3,125.bmp,-120,-120,126.bmp,120,-120,127.bmp,-120,120,128.bmp,120,120,9308.700000017881,794593.3999999762,8076,no,SM,A,128.bmp,120,-120,224529,218501,226545,220514,797817.0,791790.0,799832.0,793800.0,59
1,1,0,0,0,51,test,1,1,z,Tue Apr 21 2026 18:18:18 GMT-0500 (Central Daylight Time),813165.7999999821,I,z,1212,60,3,129.bmp,-120,-120,130.bmp,120,-120,131.bmp,-120,120,132.bmp,120,120,9260.299999982119,803905.5,8076,yes,SM,A,129.bmp,-120,-120,224529,218501,226545,220514,807130.0,801102.0,809146.0,803115.0,60
2,0,1,0,0,52,test,1,1,z,Tue Apr 21 2026 18:18:18 GMT-0500 (Central Daylight Time),822796.099999994,I,z,1573,61,3,133.bmp,-120,-120,134.bmp,120,-120,135.bmp,-120,120,136.bmp,120,120,9626.90000000596,813169.1999999881,8076,yes,SM,A,134.bmp,120,-120,224529,218501,226545,220514,816394.0,810365.0,818409.0,812378.0,61
4,0,0,0,1,53,test,1,1,z,Tue Apr 21 2026 18:18:18 GMT-0500 (Central Daylight Time),832276.3999999762,I,z,1430,62,3,141.bmp,-120,-120,142.bmp,120,-120,143.bmp,-120,120,144.bmp,120,120,9476.899999976158,822799.5,8076,yes,SM,A,144.bmp,120,120,224529,218501,226545,220514,826024.0,819996.0,828040.0,822008.0,62
1,1,0,0,0,54,test,1,1,m,Tue Apr 21 2026 18:18:18 GMT-0500 (Central Daylight Time),842290.0,I,m,1950,63,3,145.bmp,-120,-120,146.bmp,120,-120,147.bmp,-120,120,148.bmp,120,120,10010.700000017881,832279.2999999821,8076,no,SM,A,145.bmp,-120,120,224529,218501,226545,220514,835504.0,829476.0,837520.0,831489.0,63
2,0,1,0,0,55,test,1,1,z,Tue Apr 21 2026 18:18:18 GMT-0500 (Central Daylight Time),851203.7999999821,I,z,856,64,3,149.bmp,-120,-120,150.bmp,120,-120,112.bmp,-120,120,101.bmp,120,120,8911.09999999404,842292.6999999881,8076,yes,SM,A,150.bmp,120,-120,224529,218501,226545,220514,845518.0,839489.0,847534.0,841502.0,64
4,0,0,0,1,56,test,1,1,m,Tue Apr 21 2026 18:18:18 GMT-0500 (Central Daylight Time),860917.3999999762,I,m,1662,65,3,102.bmp,-120,-120,103.bmp,120,-120,104.bmp,-120,120,105.bmp,120,120,9710.899999976158,851206.5,8076,no,SM,A,104.bmp,120,120,224529,218501,226545,220514,854431.0,848403.0,856448.0,850416.0,65
3,0,0,1,0,57,test,1,1,m,Tue Apr 21 2026 18:18:18 GMT-0500 (Central Daylight Time),870214.7999999821,I,m,1238,66,3,106.bmp,-120,-120,107.bmp,120,-120,108.bmp,-120,120,109.bmp,120,120,9294.5,860920.2999999821,8076,no,SM,A,109.bmp,-120,120,224529,218501,226545,220514,864145.0,858117.0,866161.0,860130.0,66
2,0,1,0,0,58,test,1,1,m,Tue Apr 21 2026 18:18:18 GMT-0500 (Central Daylight Time),879694.8999999762,I,m,1435,67,3,137.bmp,-120,-120,138.bmp,120,-120,139.bmp,-120,120,140.bmp,120,120,9477.299999982119,870217.599999994,8076,no,SM,A,139.bmp,120,-120,224529,218501,226545,220514,873442.0,867414.0,875443.0,869427.0,67
3,0,0,1,0,59,test,1,1,z,Tue Apr 21 2026 18:18:18 GMT-0500 (Central Daylight Time),889591.8999999762,I,z,1834,68,3,110.bmp,-120,-120,111.bmp,120,-120,112.bmp,-120,120,113.bmp,120,120,9893.799999982119,879698.099999994,8076,yes,SM,A,112.bmp,-120,120,224529,218501,226545,220514,882922.0,876894.0,884940.0,878907.0,68
1,1,0,0,0,60,test,1,1,m,Tue Apr 21 2026 18:18:18 GMT-0500 (Central Daylight Time),898622.099999994,I,m,971,69,3,114.bmp,-120,-120,115.bmp,120,-120,116.bmp,-120,120,117.bmp,120,120,9027.0,889595.099999994,8076,no,SM,A,115.bmp,-120,-120,224529,218501,226545,220514,892819.0,886791.0,894835.0,888804.0,69
2,0,1,0,0,61,test,1,1,m,Tue Apr 21 2026 18:18:18 GMT-0500 (Central Daylight Time),907553.0,I,m,876,70,3,118.bmp,-120,-120,119.bmp,120,-120,120.bmp,-120,120,121.bmp,120,120,8927.200000017881,898625.7999999821,8076,no,SM,A,120.bmp,120,-120,224529,218501,226545,220514,901850.0,895822.0,903866.0,897834.0,70
4,0,0,0,1,61,test,1,0,z,Tue Apr 21 2026 18:18:18 GMT-0500 (Central Daylight Time),917049.7999999821,I,m,1449,71,3,122.bmp,-120,-120,123.bmp,120,-120,124.bmp,-120,120,125.bmp,120,120,9493.90000000596,907555.8999999762,8076,yes,SM,A,125.bmp,120,120,224529,218501,226545,220514,910780.0,904752.0,912797.0,906765.0,71
1,1,0,0,0,62,test,1,1,z,Tue Apr 21 2026 18:18:18 GMT-0500 (Central Daylight Time),926080.099999994,I,z,967,72,3,126.bmp,-120,-120,127.bmp,120,-120,128.bmp,-120,120,129.bmp,120,120,9027.0,917053.099999994,8076,yes,SM,A,126.bmp,-120,-120,224529,218501,226545,220514,920278.0,914249.0,922294.0,916262.0,72
2,0,1,0,0,63,test,1,1,z,Tue Apr 21 2026 18:18:18 GMT-0500 (Central Daylight Time),935795.099999994,I,z,1650,73,3,130.bmp,-120,-120,131.bmp,120,-120,132.bmp,-120,120,133.bmp,120,120,9712.09999999404,926083.0,8076,yes,SM,A,131.bmp,120,-120,224529,218501,226545,220514,929308.0,923279.0,931324.0,925292.0,73
4,0,0,0,1,64,test,1,1,m,Tue Apr 21 2026 18:18:18 GMT-0500 (Central Daylight Time),944991.1999999881,I,m,1136,74,3,134.bmp,-120,-120,135.bmp,120,-120,136.bmp,-120,120,137.bmp,120,120,9192.699999988079,935798.5,8076,no,SM,A,136.bmp,120,120,224529,218501,226545,220514,939022.0,932995.0,941038.0,935007.0,74
2,0,1,0,0,65,test,1,1,m,Tue Apr 21 2026 18:18:18 GMT-0500 (Central Daylight Time),954938.0,I,m,1891,75,3,138.bmp,-120,-120,139.bmp,120,-120,140.bmp,-120,120,141.bmp,120,120,9943.40000000596,944994.599999994,8076,no,SM,A,141.bmp,120,-120,224529,218501,226545,220514,948219.0,942191.0,950235.0,944203.0,75
1,1,0,0,0,66,test,1,1,z,Tue Apr 21 2026 18:18:18 GMT-0500 (Central Daylight Time),963751.8999999762,I,z,760,76,3,142.bmp,-120,-120,143.bmp,120,-120,144.bmp,-120,120,145.bmp,120,120,8810.899999976158,954941.0,8076,yes,SM,A,142.bmp,-120,-120,224529,218501,226545,220514,958166.0,952137.0,960182.0,954150.0,76
3,0,0,1,0,67,test,1,1,z,Tue Apr 21 2026 18:18:18 GMT-0500 (Central Daylight Time),972935.1999999881,I,z,1135,77,3,150.bmp,-120,-120,111.bmp,120,-120,101.bmp,-120,120,102.bmp,120,120,9180.300000011921,963754.8999999762,8076,yes,SM,A,101.bmp,-120,120,224529,218501,226545,220514,966980.0,960951.0,968996.0,962964.0,77
1,1,0,0,0,68,test,1,1,m,Tue Apr 21 2026 18:18:18 GMT-0500 (Central Daylight Time),982029.5,I,m,1038,78,3,146.bmp,-120,-120,147.bmp,120,-120,148.bmp,-120,120,149.bmp,120,120,9090.300000011921,972939.1999999881,8076,no,SM,A,147.bmp,-120,-120,224529,218501,226545,220514,976160.0,970135.0,978176.0,972145.0,78
4,0,0,0,1,69,test,1,1,m,Tue Apr 21 2026 18:18:18 GMT-0500 (Central Daylight Time),991193.3999999762,I,m,1109,79,3,107.bmp,-120,-120,108.bmp,120,-120,109.bmp,-120,120,110.bmp,120,120,9159.5,982033.8999999762,8076,no,SM,A,107.bmp,120,120,224529,218501,226545,220514,985257.0,979230.0,987273.0,981242.0,79
3,0,0,1,0,70,test,1,1,m,Tue Apr 21 2026 18:18:18 GMT-0500 (Central Daylight Time),1000523.7999999821,I,m,1273,80,3,103.bmp,-120,-120,104.bmp,120,-120,105.bmp,-120,120,106.bmp,120,120,9327.199999988079,991196.599999994,8076,no,SM,A,106.bmp,-120,120,224529,218501,226545,220514,994422.0,988393.0,996437.0,990406.0,80
