Q,Q1,Q2,Q3,Q4,acc_sum,block,block_c,correct,correct_response,datetime,endtime,project,response,response_time,row_sel,session_number,squiggle1,squiggle1x,squiggle1y,squiggle2,squiggle2x,squiggle2y,squiggle3,squiggle3x,squiggle3y,squiggle4,squiggle4x,squiggle4y,start_end,starttime,subject_id,target_congruent,task,task_vers,testsquiggle,testsquigglex,testsquiggley,time_practice_delay,time_practice_fixation,time_practice_stimuli,time_practice_study,time_test_delay,time_test_fixation,time_test_stimuli,time_test_study,trial
1,1,0,0,0,1,prac,1,1,z,Thu Mar 05 2026 13:30:21 GMT-0600 (Central Standard Time),159547.69999998808,O,z,1216,1,1,116.bmp,-120,-120,117.bmp,120,-120,118.bmp,-120,120,119.bmp,120,120,10043.299999982119,149504.40000000596,7753,yes,SM,A,116.bmp,-120,-120,151885,145860,153902,147871,,,,,1
3,0,0,1,0,1,prac,1,0,m,Thu Mar 05 2026 13:30:21 GMT-0600 (Central Standard Time),169909.5,O,z,1537,2,1,120.bmp,-120,-120,121.bmp,120,-120,122.bmp,-120,120,123.bmp,120,120,10359.0,159550.5,7753,no,SM,A,123.bmp,-120,120,161933,155906,163949,157917,,,,,2
4,0,0,0,1,2,prac,1,1,m,Thu Mar 05 2026 13:30:21 GMT-0600 (Central Standard Time),180139.30000001192,O,m,1414,3,1,124.bmp,-120,-120,125.bmp,120,-120,126.bmp,-120,120,127.bmp,120,120,10227.100000023842,169912.19999998808,7753,no,SM,A,124.bmp,120,120,172296,166267,174312,168281,,,,,3
2,0,1,0,0,3,prac,1,1,z,Thu Mar 05 2026 13:30:21 GMT-0600 (Central Standard Time),190403.80000001192,O,z,1449,4,1,128.bmp,-120,-120,129.bmp,120,-120,130.bmp,-120,120,131.bmp,120,120,10261.800000011921,180142.0,7753,yes,SM,A,129.bmp,120,-120,182526,176497,184542,178510,,,,,4
3,0,0,1,0,4,prac,1,1,z,Thu Mar 05 2026 13:30:21 GMT-0600 (Central Standard Time),201065.80000001192,O,z,1849,5,1,132.bmp,-120,-120,133.bmp,120,-120,134.bmp,-120,120,135.bmp,120,120,10658.800000011921,190407.0,7753,yes,SM,A,134.bmp,-120,120,192789,186762,194806,188774,,,,,5
1,1,0,0,0,5,prac,1,1,m,Thu Mar 05 2026 13:30:21 GMT-0600 (Central Standard Time),211203.80000001192,O,m,1320,6,1,136.bmp,-120,-120,137.bmp,120,-120,138.bmp,-120,120,139.bmp,120,120,10135.800000011921,201068.0,7753,no,SM,A,139.bmp,-120,-120,203452,197423,205470,199438,,,,,6
2,0,1,0,0,5,prac,1,0,m,Thu Mar 05 2026 13:30:21 GMT-0600 (Central Standard Time),221394.0,O,z,1375,7,1,140.bmp,-120,-120,141.bmp,120,-120,142.bmp,-120,120,143.bmp,120,120,10187.300000011921,211206.69999998808,7753,no,SM,A,140.bmp,120,-120,213583,207562,215599,209567,,,,,7
4,0,0,0,1,6,prac,1,1,z,Thu Mar 05 2026 13:30:21 GMT-0600 (Central Standard Time),231572.90000000596,O,z,1355,8,1,144.bmp,-120,-120,145.bmp,120,-120,146.bmp,-120,120,147.bmp,120,120,10176.800000011921,221396.09999999404,7753,yes,SM,A,147.bmp,120,120,223779,217751,225796,219764,,,,,8
4,0,0,0,1,0,test,1,0,m,Thu Mar 05 2026 13:30:21 GMT-0600 (Central Standard Time),249316.90000000596,O,z,1497,1,1,148.bmp,-120,-120,149.bmp,120,-120,150.bmp,-120,120,143.bmp,120,120,9545.5,239771.40000000596,7753,no,SM,A,150.bmp,120,120,223779,217751,225796,219764,242157.0,236127.0,244173.0,238140.0,1
2,0,1,0,0,0,test,1,0,m,Thu Mar 05 2026 13:30:21 GMT-0600 (Central Standard Time),259365.09999999404,O,None,2015,2,1,101.bmp,-120,-120,102.bmp,120,-120,103.bmp,-120,120,104.bmp,120,120,10046.09999999404,249319.0,7753,no,SM,A,103.bmp,120,-120,223779,217751,225796,219764,251704.0,245674.0,253705.0,247689.0,2
1,1,0,0,0,1,test,1,1,z,Thu Mar 05 2026 13:30:21 GMT-0600 (Central Standard Time),268394.6999999881,O,z,967,3,1,105.bmp,-120,-120,106.bmp,120,-120,107.bmp,-120,120,108.bmp,120,120,9024.399999976158,259370.30000001192,7753,yes,SM,A,105.bmp,-120,-120,223779,217751,225796,219764,261750.0,255725.0,263767.0,257736.0,3
3,0,0,1,0,1,test,1,0,m,Thu Mar 05 2026 13:30:21 GMT-0600 (Central Standard Time),277591.90000000596,O,z,1136,4,1,109.bmp,-120,-120,110.bmp,120,-120,111.bmp,-120,120,112.bmp,120,120,9194.0,268397.90000000596,7753,no,SM,A,109.bmp,-120,120,223779,217751,225796,219764,270781.0,264753.0,272798.0,266766.0,4
2,0,1,0,0,2,test,1,1,z,Thu Mar 05 2026 13:30:21 GMT-0600 (Central Standard Time),287422.59999999404,O,z,1770,5,1,113.bmp,-120,-120,114.bmp,120,-120,115.bmp,-120,120,116.bmp,120,120,9828.299999982119,277594.3000000119,7753,yes,SM,A,114.bmp,120,-120,223779,217751,225796,219764,279979.0,273950.0,281996.0,275963.0,5
3,0,0,1,0,3,test,1,1,z,Thu Mar 05 2026 13:30:21 GMT-0600 (Central Standard Time),296585.59999999404,O,z,1102,6,1,117.bmp,-120,-120,118.bmp,120,-120,119.bmp,-120,120,120.bmp,120,120,9160.59999999404,287425.0,7753,yes,SM,A,119.bmp,-120,120,223779,217751,225796,219764,289809.0,283780.0,291824.0,285793.0,6
4,0,0,0,1,4,test,1,1,z,Thu Mar 05 2026 13:30:21 GMT-0600 (Central Standard Time),305639.3000000119,O,z,986,7,1,121.bmp,-120,-120,122.bmp,120,-120,123.bmp,-120,120,124.bmp,120,120,9051.5,296587.8000000119,7753,yes,SM,A,124.bmp,120,120,223779,217751,225796,219764,298973.0,292943.0,300988.0,294957.0,7
2,0,1,0,0,5,test,1,1,m,Thu Mar 05 2026 13:30:21 GMT-0600 (Central Standard Time),314979.8000000119,O,m,1299,8,1,125.bmp,-120,-120,126.bmp,120,-120,127.bmp,-120,120,128.bmp,120,120,9338.300000011921,305641.5,7753,no,SM,A,125.bmp,120,-120,223779,217751,225796,219764,308020.0,301997.0,310035.0,304004.0,8
3,0,0,1,0,5,test,1,0,m,Thu Mar 05 2026 13:30:21 GMT-0600 (Central Standard Time),324627.3000000119,O,z,1592,9,1,129.bmp,-120,-120,130.bmp,120,-120,131.bmp,-120,120,132.bmp,120,120,9645.40000000596,314981.90000000596,7753,no,SM,A,130.bmp,-120,120,223779,217751,225796,219764,317367.0,311337.0,319383.0,313351.0,9
4,0,0,0,1,5,test,1,0,z,Thu Mar 05 2026 13:30:21 GMT-0600 (Central Standard Time),334689.90000000596,O,None,2016,10,1,137.bmp,-120,-120,138.bmp,120,-120,139.bmp,-120,120,140.bmp,120,120,10060.5,324629.40000000596,7753,yes,SM,A,140.bmp,120,120,223779,217751,225796,219764,327014.0,320985.0,329029.0,322998.0,10
3,0,0,1,0,6,test,1,1,z,Thu Mar 05 2026 13:30:21 GMT-0600 (Central Standard Time),343704.59999999404,O,z,954,11,1,133.bmp,-120,-120,134.bmp,120,-120,135.bmp,-120,120,136.bmp,120,120,9012.199999988079,334692.40000000596,7753,yes,SM,A,135.bmp,-120,120,223779,217751,225796,219764,337077.0,331048.0,339093.0,333061.0,11
2,0,1,0,0,6,test,1,0,m,Thu Mar 05 2026 13:30:21 GMT-0600 (Central Standard Time),353865.59999999404,O,None,2115,12,1,141.bmp,-120,-120,142.bmp,120,-120,143.bmp,-120,120,144.bmp,120,120,10158.5,343707.09999999404,7753,no,SM,A,141.bmp,120,-120,223779,217751,225796,219764,346090.0,340062.0,348106.0,342076.0,12
3,0,0,1,0,7,test,1,1,m,Thu Mar 05 2026 13:30:21 GMT-0600 (Central Standard Time),363846.59999999404,O,m,1920,13,1,145.bmp,-120,-120,146.bmp,120,-120,147.bmp,-120,120,148.bmp,120,120,9978.699999988079,353867.90000000596,7753,no,SM,A,146.bmp,-120,120,223779,217751,225796,219764,356254.0,350223.0,358270.0,352239.0,13
1,1,0,0,0,8,test,1,1,z,Thu Mar 05 2026 13:30:21 GMT-0600 (Central Standard Time),373294.5,O,z,1388,14,1,149.bmp,-120,-120,150.bmp,120,-120,104.bmp,-120,120,101.bmp,120,120,9445.699999988079,363848.8000000119,7753,yes,SM,A,149.bmp,-120,-120,223779,217751,225796,219764,366234.0,360204.0,368250.0,362219.0,14
4,0,0,0,1,9,test,1,1,m,Thu Mar 05 2026 13:30:21 GMT-0600 (Central Standard Time),383157.3000000119,O,m,1806,15,1,110.bmp,-120,-120,111.bmp,120,-120,112.bmp,-120,120,113.bmp,120,120,9860.700000017881,373296.59999999404,7753,no,SM,A,111.bmp,120,120,223779,217751,225796,219764,375682.0,369652.0,377696.0,371666.0,15
1,1,0,0,0,10,test,1,1,m,Thu Mar 05 2026 13:30:21 GMT-0600 (Central Standard Time),392621.6999999881,O,m,1405,16,1,102.bmp,-120,-120,103.bmp,120,-120,104.bmp,-120,120,105.bmp,120,120,9462.299999982119,383159.40000000596,7753,no,SM,A,105.bmp,-120,-120,223779,217751,225796,219764,385545.0,379515.0,387561.0,381528.0,16
3,0,0,1,0,11,test,1,1,m,Thu Mar 05 2026 13:30:21 GMT-0600 (Central Standard Time),402185.09999999404,O,m,1502,17,1,122.bmp,-120,-120,123.bmp,120,-120,124.bmp,-120,120,125.bmp,120,120,9561.40000000596,392623.6999999881,7753,no,SM,A,122.bmp,-120,120,223779,217751,225796,219764,395009.0,388979.0,397025.0,390993.0,17
1,1,0,0,0,11,test,1,0,z,Thu Mar 05 2026 13:30:21 GMT-0600 (Central Standard Time),412015.0,O,m,1778,18,1,106.bmp,-120,-120,107.bmp,120,-120,108.bmp,-120,120,109.bmp,120,120,9827.90000000596,402187.09999999404,7753,yes,SM,A,106.bmp,-120,-120,223779,217751,225796,219764,404572.0,398542.0,406588.0,400556.0,18
2,0,1,0,0,12,test,1,1,z,Thu Mar 05 2026 13:30:21 GMT-0600 (Central Standard Time),421712.0,O,z,1660,19,1,126.bmp,-120,-120,127.bmp,120,-120,128.bmp,-120,120,129.bmp,120,120,9694.59999999404,412017.40000000596,7753,yes,SM,A,127.bmp,120,-120,223779,217751,225796,219764,414387.0,408373.0,416402.0,410386.0,19
3,0,0,1,0,13,test,1,1,z,Thu Mar 05 2026 13:30:21 GMT-0600 (Central Standard Time),431193.0,O,z,1426,20,1,130.bmp,-120,-120,131.bmp,120,-120,132.bmp,-120,120,133.bmp,120,120,9478.800000011921,421714.1999999881,7753,yes,SM,A,132.bmp,-120,120,223779,217751,225796,219764,424098.0,418069.0,426116.0,420084.0,20
1,1,0,0,0,14,test,1,1,m,Thu Mar 05 2026 13:30:21 GMT-0600 (Central Standard Time),440489.3000000119,O,m,1243,21,1,114.bmp,-120,-120,115.bmp,120,-120,116.bmp,-120,120,117.bmp,120,120,9294.5,431194.8000000119,7753,no,SM,A,116.bmp,-120,-120,223779,217751,225796,219764,433579.0,427550.0,435595.0,429564.0,21
4,0,0,0,1,15,test,1,1,z,Thu Mar 05 2026 13:30:21 GMT-0600 (Central Standard Time),449670.59999999404,O,z,1130,22,1,118.bmp,-120,-120,119.bmp,120,-120,120.bmp,-120,120,121.bmp,120,120,9179.299999982119,440491.3000000119,7753,yes,SM,A,121.bmp,120,120,223779,217751,225796,219764,442877.0,436847.0,444892.0,438861.0,22
1,1,0,0,0,16,test,1,1,m,Thu Mar 05 2026 13:30:21 GMT-0600 (Central Standard Time),459350.6999999881,O,m,1622,23,1,134.bmp,-120,-120,135.bmp,120,-120,136.bmp,-120,120,137.bmp,120,120,9678.09999999404,449672.59999999404,7753,no,SM,A,137.bmp,-120,-120,223779,217751,225796,219764,452057.0,446028.0,454073.0,448042.0,23
2,0,1,0,0,17,test,1,1,z,Thu Mar 05 2026 13:30:21 GMT-0600 (Central Standard Time),468897.3000000119,O,z,1492,24,1,142.bmp,-120,-120,143.bmp,120,-120,144.bmp,-120,120,145.bmp,120,120,9544.40000000596,459352.90000000596,7753,yes,SM,A,143.bmp,120,-120,223779,217751,225796,219764,461737.0,455708.0,463755.0,457722.0,24
4,0,0,0,1,18,test,1,1,m,Thu Mar 05 2026 13:30:21 GMT-0600 (Central Standard Time),478194.40000000596,O,m,1242,25,1,146.bmp,-120,-120,147.bmp,120,-120,148.bmp,-120,120,149.bmp,120,120,9294.59999999404,468899.8000000119,7753,no,SM,A,148.bmp,120,120,223779,217751,225796,219764,471284.0,465255.0,473300.0,467270.0,25
1,1,0,0,0,19,test,1,1,z,Thu Mar 05 2026 13:30:21 GMT-0600 (Central Standard Time),487441.1999999881,O,z,1194,26,1,138.bmp,-120,-120,139.bmp,120,-120,140.bmp,-120,120,141.bmp,120,120,9244.5,478196.6999999881,7753,yes,SM,A,138.bmp,-120,-120,223779,217751,225796,219764,480581.0,474552.0,482597.0,476566.0,26
4,0,0,0,1,20,test,1,1,z,Thu Mar 05 2026 13:30:21 GMT-0600 (Central Standard Time),497072.40000000596,O,z,1579,27,1,150.bmp,-120,-120,111.bmp,120,-120,101.bmp,-120,120,102.bmp,120,120,9629.09999999404,487443.3000000119,7753,yes,SM,A,102.bmp,120,120,223779,217751,225796,219764,489829.0,483799.0,491844.0,485813.0,27
3,0,0,1,0,21,test,1,1,m,Thu Mar 05 2026 13:30:21 GMT-0600 (Central Standard Time),506385.59999999404,O,m,1260,28,1,103.bmp,-120,-120,104.bmp,120,-120,105.bmp,-120,120,106.bmp,120,120,9310.59999999404,497075.0,7753,no,SM,A,103.bmp,-120,120,223779,217751,225796,219764,499458.0,493430.0,501474.0,495445.0,28
2,0,1,0,0,22,test,1,1,z,Thu Mar 05 2026 13:30:21 GMT-0600 (Central Standard Time),516232.3000000119,O,z,1795,29,1,107.bmp,-120,-120,108.bmp,120,-120,109.bmp,-120,120,110.bmp,120,120,9844.100000023842,506388.1999999881,7753,yes,SM,A,108.bmp,120,-120,223779,217751,225796,219764,508772.0,502743.0,510788.0,504758.0,29
3,0,0,1,0,23,test,1,1,z,Thu Mar 05 2026 13:30:21 GMT-0600 (Central Standard Time),525729.3000000119,O,z,1443,30,1,111.bmp,-120,-120,112.bmp,120,-120,113.bmp,-120,120,114.bmp,120,120,9494.40000000596,516234.90000000596,7753,yes,SM,A,113.bmp,-120,120,223779,217751,225796,219764,518618.0,512590.0,520635.0,514604.0,30
1,1,0,0,0,24,test,1,1,z,Thu Mar 05 2026 13:30:21 GMT-0600 (Central Standard Time),535692.8000000119,O,z,1906,31,1,115.bmp,-120,-120,116.bmp,120,-120,117.bmp,-120,120,118.bmp,120,120,9961.200000017881,525731.599999994,7753,yes,SM,A,115.bmp,-120,-120,223779,217751,225796,219764,528116.0,522087.0,530133.0,524101.0,31
2,0,1,0,0,25,test,1,1,m,Thu Mar 05 2026 13:30:21 GMT-0600 (Central Standard Time),544873.0,O,m,1127,32,1,119.bmp,-120,-120,120.bmp,120,-120,121.bmp,-120,120,122.bmp,120,120,9178.199999988079,535694.8000000119,7753,no,SM,A,119.bmp,120,-120,223779,217751,225796,219764,538079.0,532050.0,540096.0,534063.0,32
4,0,0,0,1,26,test,1,1,z,Thu Mar 05 2026 13:30:21 GMT-0600 (Central Standard Time),554903.8000000119,O,z,1970,33,1,131.bmp,-120,-120,132.bmp,120,-120,133.bmp,-120,120,134.bmp,120,120,10028.700000017881,544875.099999994,7753,yes,SM,A,134.bmp,120,120,223779,217751,225796,219764,547259.0,541230.0,549276.0,543245.0,33
2,0,1,0,0,27,test,1,1,z,Thu Mar 05 2026 13:30:21 GMT-0600 (Central Standard Time),564116.0,O,z,1156,34,1,123.bmp,-120,-120,124.bmp,120,-120,125.bmp,-120,120,126.bmp,120,120,9210.199999988079,554905.8000000119,7753,yes,SM,A,124.bmp,120,-120,223779,217751,225796,219764,557291.0,551261.0,559306.0,553274.0,34
4,0,0,0,1,28,test,1,1,m,Thu Mar 05 2026 13:30:21 GMT-0600 (Central Standard Time),573863.6999999881,O,m,1686,35,1,127.bmp,-120,-120,128.bmp,120,-120,129.bmp,-120,120,130.bmp,120,120,9745.5,564118.1999999881,7753,no,SM,A,129.bmp,120,120,223779,217751,225796,219764,566503.0,560473.0,568520.0,562488.0,35
3,0,0,1,0,28,test,1,0,m,Thu Mar 05 2026 13:30:21 GMT-0600 (Central Standard Time),583546.3000000119,O,z,1620,36,1,135.bmp,-120,-120,136.bmp,120,-120,137.bmp,-120,120,138.bmp,120,120,9680.0,573866.3000000119,7753,no,SM,A,135.bmp,-120,120,223779,217751,225796,219764,576251.0,570221.0,578266.0,572236.0,36
1,1,0,0,0,29,test,1,1,m,Thu Mar 05 2026 13:30:21 GMT-0600 (Central Standard Time),593591.1999999881,O,m,1996,37,1,139.bmp,-120,-120,140.bmp,120,-120,141.bmp,-120,120,142.bmp,120,120,10042.299999982119,583548.900000006,7753,no,SM,A,140.bmp,-120,-120,223779,217751,225796,219764,585931.0,579904.0,587946.0,581916.0,37
2,0,1,0,0,30,test,1,1,m,Thu Mar 05 2026 13:30:21 GMT-0600 (Central Standard Time),603054.400000006,O,m,1412,38,1,143.bmp,-120,-120,144.bmp,120,-120,145.bmp,-120,120,146.bmp,120,120,9461.09999999404,593593.3000000119,7753,no,SM,A,145.bmp,120,-120,223779,217751,225796,219764,595977.0,589948.0,597994.0,591961.0,38
4,0,0,0,1,31,test,1,1,z,Thu Mar 05 2026 13:30:21 GMT-0600 (Central Standard Time),612801.5,O,z,1693,39,1,147.bmp,-120,-120,148.bmp,120,-120,149.bmp,-120,120,150.bmp,120,120,9744.59999999404,603056.900000006,7753,yes,SM,A,150.bmp,120,120,223779,217751,225796,219764,605442.0,599412.0,607457.0,601426.0,39
3,0,0,1,0,32,test,1,1,m,Thu Mar 05 2026 13:30:21 GMT-0600 (Central Standard Time),622699.0,O,m,1843,40,1,104.bmp,-120,-120,105.bmp,120,-120,106.bmp,-120,120,107.bmp,120,120,9895.300000011921,612803.6999999881,7753,no,SM,A,105.bmp,-120,120,223779,217751,225796,219764,615188.0,609159.0,617204.0,611173.0,40
1,1,0,0,0,33,test,1,1,z,Thu Mar 05 2026 13:30:21 GMT-0600 (Central Standard Time),632179.400000006,O,z,1426,41,1,108.bmp,-120,-120,109.bmp,120,-120,110.bmp,-120,120,111.bmp,120,120,9477.59999999404,622701.8000000119,7753,yes,SM,A,108.bmp,-120,-120,223779,217751,225796,219764,625085.0,619057.0,627101.0,621069.0,41
4,0,0,0,1,34,test,1,1,z,Thu Mar 05 2026 13:30:21 GMT-0600 (Central Standard Time),641909.5,O,z,1666,42,1,112.bmp,-120,-120,113.bmp,120,-120,114.bmp,-120,120,115.bmp,120,120,9728.09999999404,632181.400000006,7753,yes,SM,A,115.bmp,120,120,223779,217751,225796,219764,634565.0,628537.0,636582.0,630550.0,42
1,1,0,0,0,35,test,1,1,z,Thu Mar 05 2026 13:30:21 GMT-0600 (Central Standard Time),651589.8000000119,O,z,1623,43,1,116.bmp,-120,-120,117.bmp,120,-120,118.bmp,-120,120,119.bmp,120,120,9678.0,641911.8000000119,7753,yes,SM,A,116.bmp,-120,-120,223779,217751,225796,219764,644295.0,638267.0,646311.0,640280.0,43
4,0,0,0,1,35,test,1,0,m,Thu Mar 05 2026 13:30:21 GMT-0600 (Central Standard Time),661635.8000000119,O,None,2009,44,1,104.bmp,-120,-120,101.bmp,120,-120,102.bmp,-120,120,103.bmp,120,120,10043.800000011921,651592.0,7753,no,SM,A,104.bmp,120,120,223779,217751,225796,219764,653975.0,647947.0,655982.0,649960.0,44
1,1,0,0,0,36,test,1,1,m,Thu Mar 05 2026 13:30:21 GMT-0600 (Central Standard Time),670883.599999994,O,m,1192,45,1,128.bmp,-120,-120,129.bmp,120,-120,130.bmp,-120,120,131.bmp,120,120,9245.699999988079,661637.900000006,7753,no,SM,A,131.bmp,-120,-120,223779,217751,225796,219764,664023.0,657993.0,666038.0,660008.0,45
1,1,0,0,0,36,test,1,0,m,Thu Mar 05 2026 13:30:21 GMT-0600 (Central Standard Time),680812.8000000119,O,z,1874,46,1,120.bmp,-120,-120,121.bmp,120,-120,122.bmp,-120,120,123.bmp,120,120,9927.200000017881,670885.599999994,7753,no,SM,A,121.bmp,-120,-120,223779,217751,225796,219764,673270.0,667241.0,675285.0,669256.0,46
3,0,0,1,0,37,test,1,1,z,Thu Mar 05 2026 13:30:21 GMT-0600 (Central Standard Time),690026.599999994,O,z,1158,47,1,124.bmp,-120,-120,125.bmp,120,-120,126.bmp,-120,120,127.bmp,120,120,9211.799999982119,680814.8000000119,7753,yes,SM,A,126.bmp,-120,120,223779,217751,225796,219764,683201.0,677170.0,685216.0,679184.0,47
3,0,0,1,0,37,test,1,0,z,Thu Mar 05 2026 13:30:21 GMT-0600 (Central Standard Time),700090.5,O,None,2016,48,1,140.bmp,-120,-120,141.bmp,120,-120,142.bmp,-120,120,143.bmp,120,120,10061.800000011921,690028.6999999881,7753,yes,SM,A,142.bmp,-120,120,223779,217751,225796,219764,692413.0,686384.0,694429.0,688398.0,48
2,0,1,0,0,38,test,1,1,z,Thu Mar 05 2026 13:30:21 GMT-0600 (Central Standard Time),709603.5,O,z,1465,49,1,136.bmp,-120,-120,137.bmp,120,-120,138.bmp,-120,120,139.bmp,120,120,9509.90000000596,700093.599999994,7753,yes,SM,A,137.bmp,120,-120,223779,217751,225796,219764,702478.0,696449.0,704493.0,698463.0,49
3,0,0,1,0,38,test,1,0,m,Thu Mar 05 2026 13:30:21 GMT-0600 (Central Standard Time),719000.6999999881,O,z,1336,50,1,132.bmp,-120,-120,133.bmp,120,-120,134.bmp,-120,120,135.bmp,120,120,9395.399999976158,709605.3000000119,7753,no,SM,A,132.bmp,-120,120,223779,217751,225796,219764,711990.0,705961.0,714006.0,707975.0,50
2,0,1,0,0,38,test,1,0,z,Thu Mar 05 2026 13:30:21 GMT-0600 (Central Standard Time),729065.400000006,O,None,2017,51,1,144.bmp,-120,-120,145.bmp,120,-120,146.bmp,-120,120,147.bmp,120,120,10062.200000017881,719003.1999999881,7753,yes,SM,A,145.bmp,120,-120,223779,217751,225796,219764,721388.0,715358.0,723403.0,717372.0,51
4,0,0,0,1,38,test,1,0,m,Thu Mar 05 2026 13:30:21 GMT-0600 (Central Standard Time),739127.599999994,O,None,2015,52,1,148.bmp,-120,-120,149.bmp,120,-120,150.bmp,-120,120,131.bmp,120,120,10059.299999982119,729068.3000000119,7753,no,SM,A,148.bmp,120,120,223779,217751,225796,219764,731451.0,725423.0,733468.0,727436.0,52
3,0,0,1,0,39,test,1,1,z,Thu Mar 05 2026 13:30:21 GMT-0600 (Central Standard Time),748841.5,O,z,1651,53,1,101.bmp,-120,-120,102.bmp,120,-120,103.bmp,-120,120,104.bmp,120,120,9711.90000000596,739129.599999994,7753,yes,SM,A,103.bmp,-120,120,223779,217751,225796,219764,741515.0,735485.0,743531.0,737500.0,53
1,1,0,0,0,39,test,1,0,m,Thu Mar 05 2026 13:30:21 GMT-0600 (Central Standard Time),758855.5,O,z,1953,54,1,105.bmp,-120,-120,106.bmp,120,-120,107.bmp,-120,120,108.bmp,120,120,10011.199999988079,748844.3000000119,7753,no,SM,A,107.bmp,-120,-120,223779,217751,225796,219764,751229.0,745199.0,753245.0,747213.0,54
4,0,0,0,1,40,test,1,1,z,Thu Mar 05 2026 13:30:21 GMT-0600 (Central Standard Time),768334.900000006,O,z,1427,55,1,109.bmp,-120,-120,110.bmp,120,-120,111.bmp,-120,120,112.bmp,120,120,9477.300000011921,758857.599999994,7753,yes,SM,A,112.bmp,120,120,223779,217751,225796,219764,761241.0,755213.0,763259.0,757227.0,55
2,0,1,0,0,40,test,1,0,m,Thu Mar 05 2026 13:30:21 GMT-0600 (Central Standard Time),777949.599999994,O,z,1564,56,1,113.bmp,-120,-120,114.bmp,120,-120,115.bmp,-120,120,116.bmp,120,120,9612.699999988079,768336.900000006,7753,no,SM,A,113.bmp,120,-120,223779,217751,225796,219764,770722.0,764692.0,772739.0,766706.0,56
4,0,0,0,1,41,test,1,1,m,Thu Mar 05 2026 13:30:21 GMT-0600 (Central Standard Time),787112.6999999881,O,m,1112,57,1,117.bmp,-120,-120,118.bmp,120,-120,119.bmp,-120,120,120.bmp,120,120,9158.199999988079,777954.5,7753,no,SM,A,118.bmp,120,120,223779,217751,225796,219764,780335.0,774310.0,782351.0,776321.0,57
3,0,0,1,0,42,test,1,1,z,Thu Mar 05 2026 13:30:21 GMT-0600 (Central Standard Time),796809.1999999881,O,z,1643,58,1,121.bmp,-120,-120,122.bmp,120,-120,123.bmp,-120,120,124.bmp,120,120,9694.5,787114.6999999881,7753,yes,SM,A,123.bmp,-120,120,223779,217751,225796,219764,789500.0,783470.0,791516.0,785484.0,58
2,0,1,0,0,42,test,1,0,m,Thu Mar 05 2026 13:30:21 GMT-0600 (Central Standard Time),806855.400000006,O,None,2015,59,1,125.bmp,-120,-120,126.bmp,120,-120,127.bmp,-120,120,128.bmp,120,120,10044.09999999404,796811.3000000119,7753,no,SM,A,128.bmp,120,-120,223779,217751,225796,219764,799182.0,793166.0,801195.0,795180.0,59
1,1,0,0,0,43,test,1,1,z,Thu Mar 05 2026 13:30:21 GMT-0600 (Central Standard Time),816337.400000006,O,z,1419,60,1,129.bmp,-120,-120,130.bmp,120,-120,131.bmp,-120,120,132.bmp,120,120,9480.0,806857.400000006,7753,yes,SM,A,129.bmp,-120,-120,223779,217751,225796,219764,809244.0,803213.0,811260.0,805230.0,60
2,0,1,0,0,44,test,1,1,z,Thu Mar 05 2026 13:30:21 GMT-0600 (Central Standard Time),826035.400000006,O,z,1634,61,1,133.bmp,-120,-120,134.bmp,120,-120,135.bmp,-120,120,136.bmp,120,120,9694.90000000596,816340.5,7753,yes,SM,A,134.bmp,120,-120,223779,217751,225796,219764,818724.0,812696.0,820741.0,814709.0,61
4,0,0,0,1,44,test,1,0,z,Thu Mar 05 2026 13:30:21 GMT-0600 (Central Standard Time),835181.6999999881,O,m,1097,62,1,141.bmp,-120,-120,142.bmp,120,-120,143.bmp,-120,120,144.bmp,120,120,9142.799999982119,826038.900000006,7753,yes,SM,A,144.bmp,120,120,223779,217751,225796,219764,828421.0,822394.0,830438.0,824407.0,62
1,1,0,0,0,45,test,1,1,m,Thu Mar 05 2026 13:30:21 GMT-0600 (Central Standard Time),844261.0,O,m,1029,63,1,145.bmp,-120,-120,146.bmp,120,-120,147.bmp,-120,120,148.bmp,120,120,9075.199999988079,835185.8000000119,7753,no,SM,A,145.bmp,-120,120,223779,217751,225796,219764,837569.0,831541.0,839585.0,833554.0,63
2,0,1,0,0,46,test,1,1,z,Thu Mar 05 2026 13:30:21 GMT-0600 (Central Standard Time),853442.400000006,O,z,1124,64,1,149.bmp,-120,-120,150.bmp,120,-120,112.bmp,-120,120,101.bmp,120,120,9179.40000000596,844263.0,7753,yes,SM,A,150.bmp,120,-120,223779,217751,225796,219764,846649.0,840618.0,848666.0,842633.0,64
4,0,0,0,1,47,test,1,1,m,Thu Mar 05 2026 13:30:21 GMT-0600 (Central Standard Time),862922.900000006,O,m,1418,65,1,102.bmp,-120,-120,103.bmp,120,-120,104.bmp,-120,120,105.bmp,120,120,9476.59999999404,853446.3000000119,7753,no,SM,A,104.bmp,120,120,223779,217751,225796,219764,855830.0,849802.0,857845.0,851813.0,65
3,0,0,1,0,47,test,1,0,m,Thu Mar 05 2026 13:30:21 GMT-0600 (Central Standard Time),872986.599999994,O,None,2016,66,1,106.bmp,-120,-120,107.bmp,120,-120,108.bmp,-120,120,109.bmp,120,120,10061.299999982119,862925.3000000119,7753,no,SM,A,109.bmp,-120,120,223779,217751,225796,219764,865309.0,859281.0,867326.0,861295.0,66
2,0,1,0,0,47,test,1,0,m,Thu Mar 05 2026 13:30:21 GMT-0600 (Central Standard Time),883032.6999999881,O,None,2015,67,1,137.bmp,-120,-120,138.bmp,120,-120,139.bmp,-120,120,140.bmp,120,120,10042.59999999404,872990.099999994,7753,no,SM,A,139.bmp,120,-120,223779,217751,225796,219764,875372.0,869345.0,877373.0,871357.0,67
3,0,0,1,0,48,test,1,1,z,Thu Mar 05 2026 13:30:21 GMT-0600 (Central Standard Time),892397.8000000119,O,z,1315,68,1,110.bmp,-120,-120,111.bmp,120,-120,112.bmp,-120,120,113.bmp,120,120,9361.40000000596,883036.400000006,7753,yes,SM,A,112.bmp,-120,120,223779,217751,225796,219764,885421.0,879392.0,887436.0,881405.0,68
1,1,0,0,0,48,test,1,0,m,Thu Mar 05 2026 13:30:21 GMT-0600 (Central Standard Time),901593.1999999881,O,z,1144,69,1,114.bmp,-120,-120,115.bmp,120,-120,116.bmp,-120,120,117.bmp,120,120,9191.299999982119,892401.900000006,7753,no,SM,A,115.bmp,-120,-120,223779,217751,225796,219764,894785.0,888757.0,896799.0,890769.0,69
2,0,1,0,0,49,test,1,1,m,Thu Mar 05 2026 13:30:21 GMT-0600 (Central Standard Time),910808.1999999881,O,m,1162,70,1,118.bmp,-120,-120,119.bmp,120,-120,120.bmp,-120,120,121.bmp,120,120,9211.0,901597.1999999881,7753,no,SM,A,120.bmp,120,-120,223779,217751,225796,219764,903980.0,897952.0,905997.0,899967.0,70
4,0,0,0,1,50,test,1,1,z,Thu Mar 05 2026 13:30:21 GMT-0600 (Central Standard Time),920336.6999999881,O,z,1464,71,1,122.bmp,-120,-120,123.bmp,120,-120,124.bmp,-120,120,125.bmp,120,120,9524.59999999404,910812.099999994,7753,yes,SM,A,125.bmp,120,120,223779,217751,225796,219764,913194.0,907167.0,915214.0,909179.0,71
1,1,0,0,0,51,test,1,1,z,Thu Mar 05 2026 13:30:21 GMT-0600 (Central Standard Time),929417.5,O,z,1016,72,1,126.bmp,-120,-120,127.bmp,120,-120,128.bmp,-120,120,129.bmp,120,120,9078.5,920339.0,7753,yes,SM,A,126.bmp,-120,-120,223779,217751,225796,219764,922725.0,916694.0,924743.0,918711.0,72
2,0,1,0,0,52,test,1,1,z,Thu Mar 05 2026 13:30:21 GMT-0600 (Central Standard Time),938700.599999994,O,z,1218,73,1,130.bmp,-120,-120,131.bmp,120,-120,132.bmp,-120,120,133.bmp,120,120,9279.5,929421.099999994,7753,yes,SM,A,131.bmp,120,-120,223779,217751,225796,219764,931807.0,925776.0,933821.0,927789.0,73
4,0,0,0,1,52,test,1,0,m,Thu Mar 05 2026 13:30:21 GMT-0600 (Central Standard Time),948745.400000006,O,None,2014,74,1,134.bmp,-120,-120,135.bmp,120,-120,136.bmp,-120,120,137.bmp,120,120,10041.40000000596,938704.0,7753,no,SM,A,136.bmp,120,120,223779,217751,225796,219764,941085.0,935059.0,943086.0,937070.0,74
2,0,1,0,0,53,test,1,1,m,Thu Mar 05 2026 13:30:21 GMT-0600 (Central Standard Time),957975.1999999881,O,m,1179,75,1,138.bmp,-120,-120,139.bmp,120,-120,140.bmp,-120,120,141.bmp,120,120,9225.299999982119,948749.900000006,7753,no,SM,A,141.bmp,120,-120,223779,217751,225796,219764,951131.0,945105.0,953148.0,947118.0,75
1,1,0,0,0,54,test,1,1,z,Thu Mar 05 2026 13:30:21 GMT-0600 (Central Standard Time),967574.5,O,z,1546,76,1,142.bmp,-120,-120,143.bmp,120,-120,144.bmp,-120,120,145.bmp,120,120,9596.699999988079,957977.8000000119,7753,yes,SM,A,142.bmp,-120,-120,223779,217751,225796,219764,960366.0,954333.0,962382.0,956347.0,76
3,0,0,1,0,54,test,1,0,z,Thu Mar 05 2026 13:30:21 GMT-0600 (Central Standard Time),977637.400000006,O,None,2017,77,1,150.bmp,-120,-120,111.bmp,120,-120,101.bmp,-120,120,102.bmp,120,120,10059.700000017881,967577.6999999881,7753,yes,SM,A,101.bmp,-120,120,223779,217751,225796,219764,969961.0,963933.0,971975.0,965944.0,77
1,1,0,0,0,55,test,1,1,m,Thu Mar 05 2026 13:30:21 GMT-0600 (Central Standard Time),987299.8000000119,O,m,1631,78,1,146.bmp,-120,-120,147.bmp,120,-120,148.bmp,-120,120,149.bmp,120,120,9658.800000011921,977641.0,7753,no,SM,A,147.bmp,-120,-120,223779,217751,225796,219764,980008.0,973996.0,982024.0,976007.0,78
4,0,0,0,1,56,test,1,1,m,Thu Mar 05 2026 13:30:21 GMT-0600 (Central Standard Time),997014.099999994,O,m,1656,79,1,107.bmp,-120,-120,108.bmp,120,-120,109.bmp,-120,120,110.bmp,120,120,9711.199999988079,987302.900000006,7753,no,SM,A,107.bmp,120,120,223779,217751,225796,219764,989688.0,983658.0,991703.0,985672.0,79
3,0,0,1,0,56,test,1,0,m,Thu Mar 05 2026 13:30:21 GMT-0600 (Central Standard Time),1007059.599999994,O,None,2001,80,1,103.bmp,-120,-120,104.bmp,120,-120,105.bmp,-120,120,106.bmp,120,120,10041.90000000596,997017.6999999881,7753,no,SM,A,106.bmp,-120,120,223779,217751,225796,219764,999398.0,993373.0,1001414.0,995385.0,80
