block_c,block_dur,condition,countdown,datetime,endtime,list,multichar_response,project,response,response_time,session_number,start_end,starttime,subject_id,task,task_vers,trial
,,,,Mon Mar 02 2026 11:00:36 GMT-0600 (Central Standard Time),,,,O,space,2099,1,,,7757,WL,B,
prac,,0,,Mon Mar 02 2026 11:00:36 GMT-0600 (Central Standard Time),,NA,b,O,b,1761,1,,,7757,WL,B,1.0
prac,,0,,Mon Mar 02 2026 11:00:36 GMT-0600 (Central Standard Time),,NA,bo,O,o,277,1,,,7757,WL,B,1.0
prac,,0,,Mon Mar 02 2026 11:00:36 GMT-0600 (Central Standard Time),,NA,boo,O,o,266,1,,,7757,WL,B,1.0
prac,,0,,Mon Mar 02 2026 11:00:36 GMT-0600 (Central Standard Time),,NA,boos,O,s,330,1,,,7757,WL,B,1.0
prac,,0,,Mon Mar 02 2026 11:00:36 GMT-0600 (Central Standard Time),,NA,boost,O,t,201,1,,,7757,WL,B,1.0
prac,,0,,Mon Mar 02 2026 11:00:36 GMT-0600 (Central Standard Time),,NA,boostenter,O,enter,2599,1,,,7757,WL,B,1.0
1,3.065000057220459,learn,56934.99994277954,Mon Mar 02 2026 11:00:36 GMT-0600 (Central Standard Time),177944.69999998808,A,s,O,s,3043,1,3064.5,174880.19999998808,7757,WL,B,1.0
1,3.433000087738037,learn,56566.99991226196,Mon Mar 02 2026 11:00:36 GMT-0600 (Central Standard Time),178312.0,A,st,O,t,352,1,3431.800000011921,174880.19999998808,7757,WL,B,1.0
1,3.749000072479248,learn,56250.99992752075,Mon Mar 02 2026 11:00:36 GMT-0600 (Central Standard Time),178627.90000000596,A,str,O,r,296,1,3747.7000000178814,174880.19999998808,7757,WL,B,1.0
1,3.7810001373291016,learn,56218.9998626709,Mon Mar 02 2026 11:00:36 GMT-0600 (Central Standard Time),178659.80000001192,A,stre,O,e,10,1,3779.600000023842,174880.19999998808,7757,WL,B,1.0
1,3.932000160217285,learn,56067.999839782715,Mon Mar 02 2026 11:00:36 GMT-0600 (Central Standard Time),178811.19999998808,A,stree,O,e,143,1,3931.0,174880.19999998808,7757,WL,B,1.0
1,4.281000137329102,learn,55718.9998626709,Mon Mar 02 2026 11:00:36 GMT-0600 (Central Standard Time),179160.19999998808,A,street,O,t,326,1,4280.0,174880.19999998808,7757,WL,B,1.0
1,9.713000059127808,learn,50286.99994087219,Mon Mar 02 2026 11:00:36 GMT-0600 (Central Standard Time),184592.90000000596,A,streetenter,O,enter,5427,1,9712.700000017881,174880.19999998808,7757,WL,B,1.0
1,10.980000019073486,learn,49019.999980926514,Mon Mar 02 2026 11:00:36 GMT-0600 (Central Standard Time),185859.59999999404,A,g,O,g,1248,1,1266.2999999821186,184593.30000001192,7757,WL,B,2.0
1,11.263000011444092,learn,48736.99998855591,Mon Mar 02 2026 11:00:36 GMT-0600 (Central Standard Time),186142.40000000596,A,gr,O,r,263,1,1549.0999999940395,184593.30000001192,7757,WL,B,2.0
1,11.345999956130981,learn,48654.00004386902,Mon Mar 02 2026 11:00:36 GMT-0600 (Central Standard Time),186225.09999999404,A,gra,O,a,64,1,1631.7999999821186,184593.30000001192,7757,WL,B,2.0
1,11.546000003814697,learn,48453.9999961853,Mon Mar 02 2026 11:00:36 GMT-0600 (Central Standard Time),186425.19999998808,A,gras,O,s,182,1,1831.8999999761581,184593.30000001192,7757,WL,B,2.0
1,11.713000059127808,learn,48286.99994087219,Mon Mar 02 2026 11:00:36 GMT-0600 (Central Standard Time),186592.09999999404,A,grass,O,s,145,1,1998.7999999821186,184593.30000001192,7757,WL,B,2.0
1,13.045000076293945,learn,46954.999923706055,Mon Mar 02 2026 11:00:36 GMT-0600 (Central Standard Time),187924.90000000596,A,grassenter,O,enter,1322,1,3331.5999999940395,184593.30000001192,7757,WL,B,2.0
1,14.245000123977661,learn,45754.99987602234,Mon Mar 02 2026 11:00:36 GMT-0600 (Central Standard Time),189124.69999998808,A,w,O,w,1180,1,1199.5,187925.19999998808,7757,WL,B,3.0
1,14.462000131607056,learn,45537.999868392944,Mon Mar 02 2026 11:00:36 GMT-0600 (Central Standard Time),189341.90000000596,A,wi,O,i,203,1,1416.7000000178814,187925.19999998808,7757,WL,B,3.0
1,14.712000131607056,learn,45287.999868392944,Mon Mar 02 2026 11:00:36 GMT-0600 (Central Standard Time),189591.30000001192,A,wif,O,f,226,1,1666.1000000238419,187925.19999998808,7757,WL,B,3.0
1,14.795000076293945,learn,45204.999923706055,Mon Mar 02 2026 11:00:36 GMT-0600 (Central Standard Time),189674.30000001192,A,wife,O,e,64,1,1749.1000000238419,187925.19999998808,7757,WL,B,3.0
1,15.726999998092651,learn,44273.00000190735,Mon Mar 02 2026 11:00:36 GMT-0600 (Central Standard Time),190606.40000000596,A,wifeenter,O,enter,911,1,2681.2000000178814,187925.19999998808,7757,WL,B,3.0
1,17.22699999809265,learn,42773.00000190735,Mon Mar 02 2026 11:00:36 GMT-0600 (Central Standard Time),192106.5,A,a,O,a,1483,1,1499.800000011921,190606.69999998808,7757,WL,B,4.0
1,17.477999925613403,learn,42522.0000743866,Mon Mar 02 2026 11:00:36 GMT-0600 (Central Standard Time),192358.0,A,ar,O,r,228,1,1751.300000011921,190606.69999998808,7757,WL,B,4.0
1,17.677000045776367,learn,42322.99995422363,Mon Mar 02 2026 11:00:36 GMT-0600 (Central Standard Time),192556.69999998808,A,arm,O,m,186,1,1950.0,190606.69999998808,7757,WL,B,4.0
1,18.544000148773193,learn,41455.99985122681,Mon Mar 02 2026 11:00:36 GMT-0600 (Central Standard Time),193423.5,A,armenter,O,enter,845,1,2816.800000011921,190606.69999998808,7757,WL,B,4.0
1,23.192000150680542,learn,36807.99984931946,Mon Mar 02 2026 11:00:36 GMT-0600 (Central Standard Time),198071.90000000596,A,w,O,w,4628,1,4648.0,193423.90000000596,7757,WL,B,5.0
1,23.375,learn,36625.0,Mon Mar 02 2026 11:00:36 GMT-0600 (Central Standard Time),198255.0,A,wi,O,i,163,1,4831.0999999940395,193423.90000000596,7757,WL,B,5.0
1,23.526000022888184,learn,36473.99997711182,Mon Mar 02 2026 11:00:36 GMT-0600 (Central Standard Time),198405.59999999404,A,win,O,n,137,1,4981.699999988079,193423.90000000596,7757,WL,B,5.0
1,23.64199995994568,learn,36358.00004005432,Mon Mar 02 2026 11:00:36 GMT-0600 (Central Standard Time),198521.5,A,wind,O,d,100,1,5097.5999999940395,193423.90000000596,7757,WL,B,5.0
1,23.79200005531311,learn,36207.99994468689,Mon Mar 02 2026 11:00:36 GMT-0600 (Central Standard Time),198671.90000000596,A,windo,O,o,134,1,5248.0,193423.90000000596,7757,WL,B,5.0
1,23.95799994468689,learn,36042.00005531311,Mon Mar 02 2026 11:00:36 GMT-0600 (Central Standard Time),198837.90000000596,A,window,O,w,151,1,5414.0,193423.90000000596,7757,WL,B,5.0
1,24.842000007629395,learn,35157.999992370605,Mon Mar 02 2026 11:00:36 GMT-0600 (Central Standard Time),199721.5,A,windowenter,O,enter,863,1,6297.5999999940395,193423.90000000596,7757,WL,B,5.0
1,29.157000064849854,learn,30842.999935150146,Mon Mar 02 2026 11:00:36 GMT-0600 (Central Standard Time),204036.59999999404,A,f,O,f,4304,1,4314.699999988079,199721.90000000596,7757,WL,B,6.0
1,29.258000135421753,learn,30741.999864578247,Mon Mar 02 2026 11:00:36 GMT-0600 (Central Standard Time),204137.40000000596,A,fi,O,i,83,1,4415.5,199721.90000000596,7757,WL,B,6.0
1,29.475000143051147,learn,30524.999856948853,Mon Mar 02 2026 11:00:36 GMT-0600 (Central Standard Time),204354.30000001192,A,fir,O,r,195,1,4632.4000000059605,199721.90000000596,7757,WL,B,6.0
1,29.572999954223633,learn,30427.000045776367,Mon Mar 02 2026 11:00:36 GMT-0600 (Central Standard Time),204452.90000000596,A,fire,O,e,86,1,4731.0,199721.90000000596,7757,WL,B,6.0
1,30.59000015258789,learn,29409.99984741211,Mon Mar 02 2026 11:00:36 GMT-0600 (Central Standard Time),205469.40000000596,A,fireenter,O,enter,1004,1,5747.5,199721.90000000596,7757,WL,B,6.0
1,36.57100009918213,learn,23428.99990081787,Mon Mar 02 2026 11:00:36 GMT-0600 (Central Standard Time),211450.5,A,w,O,w,5964,1,5980.800000011921,205469.69999998808,7757,WL,B,7.0
1,36.704999923706055,learn,23295.000076293945,Mon Mar 02 2026 11:00:36 GMT-0600 (Central Standard Time),211584.59999999404,A,wi,O,i,118,1,6114.9000000059605,205469.69999998808,7757,WL,B,7.0
1,36.937000036239624,learn,23062.999963760376,Mon Mar 02 2026 11:00:36 GMT-0600 (Central Standard Time),211816.90000000596,A,wif,O,f,216,1,6347.200000017881,205469.69999998808,7757,WL,B,7.0
1,37.00399994850159,learn,22996.000051498413,Mon Mar 02 2026 11:00:36 GMT-0600 (Central Standard Time),211883.30000001192,A,wife,O,e,54,1,6413.600000023842,205469.69999998808,7757,WL,B,7.0
1,37.854000091552734,learn,22145.999908447266,Mon Mar 02 2026 11:00:36 GMT-0600 (Central Standard Time),212733.69999998808,A,wifeenter,O,enter,831,1,7264.0,205469.69999998808,7757,WL,B,7.0
1,47.18499994277954,learn,12815.000057220459,Mon Mar 02 2026 11:00:36 GMT-0600 (Central Standard Time),222065.09999999404,A,c,O,c,9317,1,9331.09999999404,212734.0,7757,WL,B,8.0
1,47.41799998283386,learn,12582.000017166138,Mon Mar 02 2026 11:00:36 GMT-0600 (Central Standard Time),222297.69999998808,A,ca,O,a,211,1,9563.699999988079,212734.0,7757,WL,B,8.0
1,47.71799993515015,learn,12282.000064849854,Mon Mar 02 2026 11:00:36 GMT-0600 (Central Standard Time),222598.0,A,cab,O,b,281,1,9864.0,212734.0,7757,WL,B,8.0
1,47.96799993515015,learn,12032.000064849854,Mon Mar 02 2026 11:00:36 GMT-0600 (Central Standard Time),222847.90000000596,A,cabi,O,i,236,1,10113.90000000596,212734.0,7757,WL,B,8.0
1,48.068000078201294,learn,11931.999921798706,Mon Mar 02 2026 11:00:36 GMT-0600 (Central Standard Time),222947.19999998808,A,cabim,O,m,88,1,10213.199999988079,212734.0,7757,WL,B,8.0
1,50.03500008583069,learn,9964.999914169312,Mon Mar 02 2026 11:00:36 GMT-0600 (Central Standard Time),224914.5,A,cabi,O,backspace,1944,1,12180.5,212734.0,7757,WL,B,8.0
1,50.93300008773804,learn,9066.999912261963,Mon Mar 02 2026 11:00:36 GMT-0600 (Central Standard Time),225813.09999999404,A,cabin,O,n,878,1,13079.09999999404,212734.0,7757,WL,B,8.0
1,51.43300008773804,learn,8566.999912261963,Mon Mar 02 2026 11:00:36 GMT-0600 (Central Standard Time),226312.19999998808,A,cabinenter,O,enter,477,1,13578.199999988079,212734.0,7757,WL,B,8.0
1,54.098999977111816,learn,5901.000022888184,Mon Mar 02 2026 11:00:36 GMT-0600 (Central Standard Time),228978.69999998808,A,l,O,l,2650,1,2666.199999988079,226312.5,7757,WL,B,9.0
1,54.182000160217285,learn,5817.999839782715,Mon Mar 02 2026 11:00:36 GMT-0600 (Central Standard Time),229061.5,A,la,O,a,69,1,2749.0,226312.5,7757,WL,B,9.0
1,54.28200006484985,learn,5717.9999351501465,Mon Mar 02 2026 11:00:36 GMT-0600 (Central Standard Time),229162.0,A,lak,O,k,90,1,2849.5,226312.5,7757,WL,B,9.0
1,54.40000009536743,learn,5599.999904632568,Mon Mar 02 2026 11:00:36 GMT-0600 (Central Standard Time),229279.80000001192,A,lake,O,e,104,1,2967.300000011921,226312.5,7757,WL,B,9.0
1,55.16600012779236,learn,4833.999872207642,Mon Mar 02 2026 11:00:36 GMT-0600 (Central Standard Time),230045.09999999404,A,lakeenter,O,enter,751,1,3732.5999999940395,226312.5,7757,WL,B,9.0
1,60.015000104904175,learn,-15.000104904174805,Mon Mar 02 2026 11:00:36 GMT-0600 (Central Standard Time),234894.19999998808,A,None,O,None,4845,1,4848.799999982119,230045.40000000596,7757,WL,B,10.0
2,1.2170000076293945,learn,58782.999992370605,Mon Mar 02 2026 11:00:36 GMT-0600 (Central Standard Time),310954.8000000119,A,c,O,c,1198,1,1216.5,309738.3000000119,7757,WL,B,1.0
2,1.2969999313354492,learn,58703.00006866455,Mon Mar 02 2026 11:00:36 GMT-0600 (Central Standard Time),311034.8000000119,A,cl,O,l,62,1,1296.5,309738.3000000119,7757,WL,B,1.0
2,1.4809999465942383,learn,58519.00005340576,Mon Mar 02 2026 11:00:36 GMT-0600 (Central Standard Time),311219.1999999881,A,clo,O,o,174,1,1480.8999999761581,309738.3000000119,7757,WL,B,1.0
2,1.7650001049041748,learn,58234.999895095825,Mon Mar 02 2026 11:00:36 GMT-0600 (Central Standard Time),311502.90000000596,A,cloc,O,c,261,1,1764.5999999940395,309738.3000000119,7757,WL,B,1.0
2,1.8480000495910645,learn,58151.999950408936,Mon Mar 02 2026 11:00:36 GMT-0600 (Central Standard Time),311585.59999999404,A,clock,O,k,63,1,1847.2999999821186,309738.3000000119,7757,WL,B,1.0
2,2.447000026702881,learn,57552.99997329712,Mon Mar 02 2026 11:00:36 GMT-0600 (Central Standard Time),312184.90000000596,A,clockenter,O,enter,591,1,2446.5999999940395,309738.3000000119,7757,WL,B,1.0
2,4.348999977111816,learn,55651.00002288818,Mon Mar 02 2026 11:00:36 GMT-0600 (Central Standard Time),314087.5,A,a,O,a,1881,1,1902.300000011921,312185.1999999881,7757,WL,B,2.0
2,4.5980000495910645,learn,55401.999950408936,Mon Mar 02 2026 11:00:36 GMT-0600 (Central Standard Time),314335.6999999881,A,ar,O,r,226,1,2150.5,312185.1999999881,7757,WL,B,2.0
2,4.746000051498413,learn,55253.99994850159,Mon Mar 02 2026 11:00:36 GMT-0600 (Central Standard Time),314483.90000000596,A,arm,O,m,138,1,2298.7000000178814,312185.1999999881,7757,WL,B,2.0
2,5.447000026702881,learn,54552.99997329712,Mon Mar 02 2026 11:00:36 GMT-0600 (Central Standard Time),315185.3000000119,A,armenter,O,enter,698,1,3000.100000023842,312185.1999999881,7757,WL,B,2.0
2,6.213000059127808,learn,53786.99994087219,Mon Mar 02 2026 11:00:36 GMT-0600 (Central Standard Time),315950.8000000119,A,s,O,s,753,1,765.2000000178814,315185.59999999404,7757,WL,B,3.0
2,6.76200008392334,learn,53237.99991607666,Mon Mar 02 2026 11:00:36 GMT-0600 (Central Standard Time),316500.59999999404,A,st,O,t,525,1,1315.0,315185.59999999404,7757,WL,B,3.0
2,7.079999923706055,learn,52920.000076293945,Mon Mar 02 2026 11:00:36 GMT-0600 (Central Standard Time),316818.1999999881,A,str,O,r,299,1,1632.5999999940395,315185.59999999404,7757,WL,B,3.0
2,7.180999994277954,learn,52819.000005722046,Mon Mar 02 2026 11:00:36 GMT-0600 (Central Standard Time),316918.6999999881,A,stre,O,e,86,1,1733.0999999940395,315185.59999999404,7757,WL,B,3.0
2,7.430000066757202,learn,52569.9999332428,Mon Mar 02 2026 11:00:36 GMT-0600 (Central Standard Time),317167.90000000596,A,stree,O,e,230,1,1982.300000011921,315185.59999999404,7757,WL,B,3.0
2,7.812000036239624,learn,52187.999963760376,Mon Mar 02 2026 11:00:36 GMT-0600 (Central Standard Time),317550.5,A,street,O,t,361,1,2364.9000000059605,315185.59999999404,7757,WL,B,3.0
2,8.460999965667725,learn,51539.000034332275,Mon Mar 02 2026 11:00:36 GMT-0600 (Central Standard Time),318199.5,A,streetenter,O,enter,632,1,3013.9000000059605,315185.59999999404,7757,WL,B,3.0
2,10.578999996185303,learn,49421.0000038147,Mon Mar 02 2026 11:00:36 GMT-0600 (Central Standard Time),320317.0,A,g,O,g,2099,1,2117.199999988079,318199.8000000119,7757,WL,B,4.0
2,10.828999996185303,learn,49171.0000038147,Mon Mar 02 2026 11:00:36 GMT-0600 (Central Standard Time),320566.8000000119,A,gr,O,r,236,1,2367.0,318199.8000000119,7757,WL,B,4.0
2,10.977999925613403,learn,49022.0000743866,Mon Mar 02 2026 11:00:36 GMT-0600 (Central Standard Time),320716.3000000119,A,grq,O,q,132,1,2516.5,318199.8000000119,7757,WL,B,4.0
2,10.992000102996826,learn,49007.999897003174,Mon Mar 02 2026 11:00:36 GMT-0600 (Central Standard Time),320730.5,A,grqa,O,a,4,1,2530.699999988079,318199.8000000119,7757,WL,B,4.0
2,11.279000043869019,learn,48720.99995613098,Mon Mar 02 2026 11:00:36 GMT-0600 (Central Standard Time),321017.5,A,grqas,O,s,273,1,2817.699999988079,318199.8000000119,7757,WL,B,4.0
2,12.293999910354614,learn,47706.000089645386,Mon Mar 02 2026 11:00:36 GMT-0600 (Central Standard Time),322032.5,A,grqa,O,backspace,996,1,3832.699999988079,318199.8000000119,7757,WL,B,4.0
2,12.444000005722046,learn,47555.999994277954,Mon Mar 02 2026 11:00:36 GMT-0600 (Central Standard Time),322181.90000000596,A,grq,O,backspace,126,1,3982.0999999940395,318199.8000000119,7757,WL,B,4.0
2,12.59500002861023,learn,47404.99997138977,Mon Mar 02 2026 11:00:36 GMT-0600 (Central Standard Time),322332.90000000596,A,gr,O,backspace,131,1,4133.0999999940395,318199.8000000119,7757,WL,B,4.0
2,12.74399995803833,learn,47256.00004196167,Mon Mar 02 2026 11:00:36 GMT-0600 (Central Standard Time),322482.40000000596,A,g,O,backspace,142,1,4282.5999999940395,318199.8000000119,7757,WL,B,4.0
2,12.861000061035156,learn,47138.999938964844,Mon Mar 02 2026 11:00:36 GMT-0600 (Central Standard Time),322599.5,A,ga,O,a,103,1,4399.699999988079,318199.8000000119,7757,WL,B,4.0
2,12.927000045776367,learn,47072.99995422363,Mon Mar 02 2026 11:00:36 GMT-0600 (Central Standard Time),322665.40000000596,A,gas,O,s,42,1,4465.5999999940395,318199.8000000119,7757,WL,B,4.0
2,13.226999998092651,learn,46773.00000190735,Mon Mar 02 2026 11:00:36 GMT-0600 (Central Standard Time),322965.3000000119,A,gass,O,s,279,1,4765.5,318199.8000000119,7757,WL,B,4.0
2,13.677000045776367,learn,46322.99995422363,Mon Mar 02 2026 11:00:36 GMT-0600 (Central Standard Time),323415.3000000119,A,gas,O,backspace,426,1,5215.5,318199.8000000119,7757,WL,B,4.0
2,13.793999910354614,learn,46206.000089645386,Mon Mar 02 2026 11:00:36 GMT-0600 (Central Standard Time),323532.0,A,ga,O,backspace,101,1,5332.199999988079,318199.8000000119,7757,WL,B,4.0
2,13.92799997329712,learn,46072.00002670288,Mon Mar 02 2026 11:00:36 GMT-0600 (Central Standard Time),323665.90000000596,A,g,O,backspace,128,1,5466.0999999940395,318199.8000000119,7757,WL,B,4.0
2,14.194000005722046,learn,45805.999994277954,Mon Mar 02 2026 11:00:36 GMT-0600 (Central Standard Time),323932.5,A,gr,O,r,247,1,5732.699999988079,318199.8000000119,7757,WL,B,4.0
2,14.460999965667725,learn,45539.000034332275,Mon Mar 02 2026 11:00:36 GMT-0600 (Central Standard Time),324198.90000000596,A,gra,O,a,246,1,5999.0999999940395,318199.8000000119,7757,WL,B,4.0
2,14.726999998092651,learn,45273.00000190735,Mon Mar 02 2026 11:00:36 GMT-0600 (Central Standard Time),324465.5,A,gras,O,s,256,1,6265.699999988079,318199.8000000119,7757,WL,B,4.0
2,14.875999927520752,learn,45124.00007247925,Mon Mar 02 2026 11:00:36 GMT-0600 (Central Standard Time),324614.5,A,grass,O,s,137,1,6414.699999988079,318199.8000000119,7757,WL,B,4.0
2,15.276000022888184,learn,44723.99997711182,Mon Mar 02 2026 11:00:36 GMT-0600 (Central Standard Time),325014.40000000596,A,grassenter,O,enter,389,1,6814.5999999940395,318199.8000000119,7757,WL,B,4.0
2,16.108999967575073,learn,43891.00003242493,Mon Mar 02 2026 11:00:36 GMT-0600 (Central Standard Time),325847.0,A,p,O,p,810,1,832.3000000119209,325014.6999999881,7757,WL,B,5.0
2,16.141000032424927,learn,43858.99996757507,Mon Mar 02 2026 11:00:36 GMT-0600 (Central Standard Time),325879.6999999881,A,pu,O,u,15,1,865.0,325014.6999999881,7757,WL,B,5.0
2,16.42799997329712,learn,43572.00002670288,Mon Mar 02 2026 11:00:36 GMT-0600 (Central Standard Time),326165.59999999404,A,pup,O,p,268,1,1150.9000000059605,325014.6999999881,7757,WL,B,5.0
2,16.44099998474121,learn,43559.00001525879,Mon Mar 02 2026 11:00:36 GMT-0600 (Central Standard Time),326179.1999999881,A,pupo,O,o,4,1,1164.5,325014.6999999881,7757,WL,B,5.0
2,16.657999992370605,learn,43342.000007629395,Mon Mar 02 2026 11:00:36 GMT-0600 (Central Standard Time),326396.3000000119,A,pupoi,O,i,208,1,1381.6000000238419,325014.6999999881,7757,WL,B,5.0
2,17.592999935150146,learn,42407.00006484985,Mon Mar 02 2026 11:00:36 GMT-0600 (Central Standard Time),327331.40000000596,A,pupo,O,backspace,919,1,2316.7000000178814,325014.6999999881,7757,WL,B,5.0
2,17.992000102996826,learn,42007.999897003174,Mon Mar 02 2026 11:00:36 GMT-0600 (Central Standard Time),327730.6999999881,A,pup,O,backspace,382,1,2716.0,325014.6999999881,7757,WL,B,5.0
2,18.95900011062622,learn,41040.99988937378,Mon Mar 02 2026 11:00:36 GMT-0600 (Central Standard Time),328696.8000000119,A,pupi,O,i,946,1,3682.100000023842,325014.6999999881,7757,WL,B,5.0
2,19.007999897003174,learn,40992.000102996826,Mon Mar 02 2026 11:00:36 GMT-0600 (Central Standard Time),328745.8000000119,A,pupil,O,l,26,1,3731.100000023842,325014.6999999881,7757,WL,B,5.0
2,19.408999919891357,learn,40591.00008010864,Mon Mar 02 2026 11:00:36 GMT-0600 (Central Standard Time),329147.6999999881,A,pupilenter,O,enter,384,1,4133.0,325014.6999999881,7757,WL,B,5.0
2,20.325000047683716,learn,39674.999952316284,Mon Mar 02 2026 11:00:36 GMT-0600 (Central Standard Time),330062.8000000119,A,f,O,f,903,1,914.9000000059605,329147.90000000596,7757,WL,B,6.0
2,20.391000032424927,learn,39608.99996757507,Mon Mar 02 2026 11:00:36 GMT-0600 (Central Standard Time),330128.8000000119,A,fi,O,i,48,1,980.9000000059605,329147.90000000596,7757,WL,B,6.0
2,20.575999975204468,learn,39424.00002479553,Mon Mar 02 2026 11:00:36 GMT-0600 (Central Standard Time),330314.3000000119,A,fir,O,r,176,1,1166.4000000059605,329147.90000000596,7757,WL,B,6.0
2,20.64199995994568,learn,39358.00004005432,Mon Mar 02 2026 11:00:36 GMT-0600 (Central Standard Time),330379.6999999881,A,fire,O,e,45,1,1231.7999999821186,329147.90000000596,7757,WL,B,6.0
2,21.075000047683716,learn,38924.999952316284,Mon Mar 02 2026 11:00:36 GMT-0600 (Central Standard Time),330813.0,A,fireenter,O,enter,412,1,1665.0999999940395,329147.90000000596,7757,WL,B,6.0
2,23.242000102996826,learn,36757.999897003174,Mon Mar 02 2026 11:00:36 GMT-0600 (Central Standard Time),332980.1999999881,A,w,O,w,2158,1,2167.0,330813.1999999881,7757,WL,B,7.0
2,23.342000007629395,learn,36657.999992370605,Mon Mar 02 2026 11:00:36 GMT-0600 (Central Standard Time),333079.90000000596,A,wi,O,i,76,1,2266.7000000178814,330813.1999999881,7757,WL,B,7.0
2,23.424000024795532,learn,36575.99997520447,Mon Mar 02 2026 11:00:36 GMT-0600 (Central Standard Time),333162.3000000119,A,win,O,n,72,1,2349.100000023842,330813.1999999881,7757,WL,B,7.0
2,23.575999975204468,learn,36424.00002479553,Mon Mar 02 2026 11:00:36 GMT-0600 (Central Standard Time),333313.8000000119,A,wind,O,d,130,1,2500.600000023842,330813.1999999881,7757,WL,B,7.0
2,23.742000102996826,learn,36257.999897003174,Mon Mar 02 2026 11:00:36 GMT-0600 (Central Standard Time),333479.6999999881,A,windo,O,o,150,1,2666.5,330813.1999999881,7757,WL,B,7.0
2,23.874000072479248,learn,36125.99992752075,Mon Mar 02 2026 11:00:36 GMT-0600 (Central Standard Time),333612.09999999404,A,window,O,w,114,1,2798.9000000059605,330813.1999999881,7757,WL,B,7.0
2,24.308000087738037,learn,35691.99991226196,Mon Mar 02 2026 11:00:36 GMT-0600 (Central Standard Time),334046.09999999404,A,windowenter,O,enter,428,1,3232.9000000059605,330813.1999999881,7757,WL,B,7.0
2,24.674000024795532,learn,35325.99997520447,Mon Mar 02 2026 11:00:36 GMT-0600 (Central Standard Time),334412.5,A,s,O,s,350,1,366.19999998807907,334046.3000000119,7757,WL,B,8.0
2,24.990999937057495,learn,35009.000062942505,Mon Mar 02 2026 11:00:36 GMT-0600 (Central Standard Time),334729.59999999404,A,st,O,t,300,1,683.2999999821186,334046.3000000119,7757,WL,B,8.0
2,25.055999994277954,learn,34944.000005722046,Mon Mar 02 2026 11:00:36 GMT-0600 (Central Standard Time),334794.5,A,sta,O,a,46,1,748.1999999880791,334046.3000000119,7757,WL,B,8.0
2,25.308000087738037,learn,34691.99991226196,Mon Mar 02 2026 11:00:36 GMT-0600 (Central Standard Time),335046.09999999404,A,star,O,r,239,1,999.7999999821186,334046.3000000119,7757,WL,B,8.0
2,25.756999969482422,learn,34243.00003051758,Mon Mar 02 2026 11:00:36 GMT-0600 (Central Standard Time),335495.3000000119,A,starenter,O,enter,437,1,1449.0,334046.3000000119,7757,WL,B,8.0
2,34.65400004386902,learn,25345.99995613098,Mon Mar 02 2026 11:00:36 GMT-0600 (Central Standard Time),344392.59999999404,A,d,O,d,8878,1,8897.09999999404,335495.5,7757,WL,B,9.0
2,34.75399994850159,learn,25246.000051498413,Mon Mar 02 2026 11:00:36 GMT-0600 (Central Standard Time),344492.40000000596,A,do,O,o,80,1,8996.90000000596,335495.5,7757,WL,B,9.0
2,34.87100005149841,learn,25128.999948501587,Mon Mar 02 2026 11:00:36 GMT-0600 (Central Standard Time),344609.59999999404,A,doo,O,o,96,1,9114.09999999404,335495.5,7757,WL,B,9.0
2,35.08699989318848,learn,24913.000106811523,Mon Mar 02 2026 11:00:36 GMT-0600 (Central Standard Time),344825.40000000596,A,door,O,r,200,1,9329.90000000596,335495.5,7757,WL,B,9.0
2,35.55399990081787,learn,24446.00009918213,Mon Mar 02 2026 11:00:36 GMT-0600 (Central Standard Time),345292.5,A,doorenter,O,enter,448,1,9797.0,335495.5,7757,WL,B,9.0
2,37.90400004386902,learn,22095.99995613098,Mon Mar 02 2026 11:00:36 GMT-0600 (Central Standard Time),347642.1999999881,A,g,O,g,2329,1,2349.5,345292.6999999881,7757,WL,B,10.0
2,38.18499994277954,learn,21815.00005722046,Mon Mar 02 2026 11:00:36 GMT-0600 (Central Standard Time),347923.0,A,gr,O,r,262,1,2630.300000011921,345292.6999999881,7757,WL,B,10.0
2,38.38599991798401,learn,21614.00008201599,Mon Mar 02 2026 11:00:36 GMT-0600 (Central Standard Time),348124.1999999881,A,gra,O,a,184,1,2831.5,345292.6999999881,7757,WL,B,10.0
2,39.085999965667725,learn,20914.000034332275,Mon Mar 02 2026 11:00:36 GMT-0600 (Central Standard Time),348824.0,A,gras,O,s,685,1,3531.300000011921,345292.6999999881,7757,WL,B,10.0
2,39.28600001335144,learn,20713.99998664856,Mon Mar 02 2026 11:00:36 GMT-0600 (Central Standard Time),349023.90000000596,A,grass,O,s,187,1,3731.2000000178814,345292.6999999881,7757,WL,B,10.0
2,39.72000002861023,learn,20279.99997138977,Mon Mar 02 2026 11:00:36 GMT-0600 (Central Standard Time),349458.1999999881,A,grassenter,O,enter,414,1,4165.5,345292.6999999881,7757,WL,B,10.0
2,46.681999921798706,learn,13318.000078201294,Mon Mar 02 2026 11:00:36 GMT-0600 (Central Standard Time),356420.40000000596,A,f,O,f,6951,1,6962.0,349458.40000000596,7757,WL,B,11.0
2,46.71600008010864,learn,13283.999919891357,Mon Mar 02 2026 11:00:36 GMT-0600 (Central Standard Time),356454.09999999404,A,fi,O,i,30,1,6995.699999988079,349458.40000000596,7757,WL,B,11.0
2,46.967000007629395,learn,13032.999992370605,Mon Mar 02 2026 11:00:36 GMT-0600 (Central Standard Time),356705.40000000596,A,fir,O,r,232,1,7247.0,349458.40000000596,7757,WL,B,11.0
2,46.99900007247925,learn,13000.999927520752,Mon Mar 02 2026 11:00:36 GMT-0600 (Central Standard Time),356737.09999999404,A,fire,O,e,23,1,7278.699999988079,349458.40000000596,7757,WL,B,11.0
2,47.450000047683716,learn,12549.999952316284,Mon Mar 02 2026 11:00:36 GMT-0600 (Central Standard Time),357188.09999999404,A,fireenter,O,enter,443,1,7729.699999988079,349458.40000000596,7757,WL,B,11.0
2,49.24900007247925,learn,10750.999927520752,Mon Mar 02 2026 11:00:36 GMT-0600 (Central Standard Time),358987.0,A,d,O,d,1791,1,1798.699999988079,357188.3000000119,7757,WL,B,12.0
2,49.551000118255615,learn,10448.999881744385,Mon Mar 02 2026 11:00:36 GMT-0600 (Central Standard Time),359288.6999999881,A,de,O,e,281,1,2100.399999976158,357188.3000000119,7757,WL,B,12.0
2,49.78200006484985,learn,10217.999935150146,Mon Mar 02 2026 11:00:36 GMT-0600 (Central Standard Time),359520.09999999404,A,des,O,s,217,1,2331.7999999821186,357188.3000000119,7757,WL,B,12.0
2,49.98300004005432,learn,10016.999959945679,Mon Mar 02 2026 11:00:36 GMT-0600 (Central Standard Time),359720.8000000119,A,desk,O,k,185,1,2532.5,357188.3000000119,7757,WL,B,12.0
2,50.54900002479553,learn,9450.999975204468,Mon Mar 02 2026 11:00:36 GMT-0600 (Central Standard Time),360287.3000000119,A,deskenter,O,enter,553,1,3099.0,357188.3000000119,7757,WL,B,12.0
2,60.013999938964844,learn,-13.99993896484375,Mon Mar 02 2026 11:00:36 GMT-0600 (Central Standard Time),369752.6999999881,A,None,O,None,9460,1,9465.09999999404,360287.59999999404,7757,WL,B,13.0
3,1.0169999599456787,learn,58983.00004005432,Mon Mar 02 2026 11:00:36 GMT-0600 (Central Standard Time),436030.09999999404,A,p,O,p,1003,1,1016.5,435013.59999999404,7757,WL,B,1.0
3,1.1160001754760742,learn,58883.999824523926,Mon Mar 02 2026 11:00:36 GMT-0600 (Central Standard Time),436129.0,A,pi,O,i,92,1,1115.4000000059605,435013.59999999404,7757,WL,B,1.0
3,1.8330001831054688,learn,58166.99981689453,Mon Mar 02 2026 11:00:36 GMT-0600 (Central Standard Time),436845.6999999881,A,pip,O,p,698,1,1832.0999999940395,435013.59999999404,7757,WL,B,1.0
3,1.9320001602172852,learn,58067.999839782715,Mon Mar 02 2026 11:00:36 GMT-0600 (Central Standard Time),436945.1999999881,A,pipe,O,e,83,1,1931.5999999940395,435013.59999999404,7757,WL,B,1.0
3,2.8500001430511475,learn,57149.99985694885,Mon Mar 02 2026 11:00:36 GMT-0600 (Central Standard Time),437862.3000000119,A,pipeenter,O,enter,897,1,2848.7000000178814,435013.59999999404,7757,WL,B,1.0
3,3.617000102996826,learn,56382.999897003174,Mon Mar 02 2026 11:00:36 GMT-0600 (Central Standard Time),438629.40000000596,A,p,O,p,748,1,766.8000000119209,437862.59999999404,7757,WL,B,2.0
3,3.6649999618530273,learn,56335.00003814697,Mon Mar 02 2026 11:00:36 GMT-0600 (Central Standard Time),438678.09999999404,A,pu,O,u,44,1,815.5,437862.59999999404,7757,WL,B,2.0
3,3.881999969482422,learn,56118.00003051758,Mon Mar 02 2026 11:00:36 GMT-0600 (Central Standard Time),438894.3000000119,A,puo,O,o,205,1,1031.7000000178814,437862.59999999404,7757,WL,B,2.0
3,4.266000032424927,learn,55733.99996757507,Mon Mar 02 2026 11:00:36 GMT-0600 (Central Standard Time),439278.8000000119,A,pu,O,backspace,372,1,1416.2000000178814,437862.59999999404,7757,WL,B,2.0
3,4.765000104904175,learn,55234.999895095825,Mon Mar 02 2026 11:00:36 GMT-0600 (Central Standard Time),439778.09999999404,A,pup,O,p,483,1,1915.5,437862.59999999404,7757,WL,B,2.0
3,5.049000024795532,learn,54950.99997520447,Mon Mar 02 2026 11:00:36 GMT-0600 (Central Standard Time),440061.59999999404,A,pupi,O,i,263,1,2199.0,437862.59999999404,7757,WL,B,2.0
3,5.232000112533569,learn,54767.99988746643,Mon Mar 02 2026 11:00:36 GMT-0600 (Central Standard Time),440244.90000000596,A,pupil,O,l,172,1,2382.300000011921,437862.59999999404,7757,WL,B,2.0
3,5.932000160217285,learn,54067.999839782715,Mon Mar 02 2026 11:00:36 GMT-0600 (Central Standard Time),440944.90000000596,A,pupilenter,O,enter,680,1,3082.300000011921,437862.59999999404,7757,WL,B,2.0
3,6.831000089645386,learn,53168.999910354614,Mon Mar 02 2026 11:00:36 GMT-0600 (Central Standard Time),441844.0,A,s,O,s,881,1,898.8000000119209,440945.1999999881,7757,WL,B,3.0
3,6.880000114440918,learn,53119.99988555908,Mon Mar 02 2026 11:00:36 GMT-0600 (Central Standard Time),441893.1999999881,A,sk,O,k,26,1,948.0,440945.1999999881,7757,WL,B,3.0
3,7.131999969482422,learn,52868.00003051758,Mon Mar 02 2026 11:00:36 GMT-0600 (Central Standard Time),442144.1999999881,A,ski,O,i,230,1,1199.0,440945.1999999881,7757,WL,B,3.0
3,7.197000026702881,learn,52802.99997329712,Mon Mar 02 2026 11:00:36 GMT-0600 (Central Standard Time),442209.6999999881,A,skin,O,n,56,1,1264.5,440945.1999999881,7757,WL,B,3.0
3,7.699000120162964,learn,52300.999879837036,Mon Mar 02 2026 11:00:36 GMT-0600 (Central Standard Time),442712.09999999404,A,skinenter,O,enter,486,1,1766.9000000059605,440945.1999999881,7757,WL,B,3.0
3,8.21500015258789,learn,51784.99984741211,Mon Mar 02 2026 11:00:36 GMT-0600 (Central Standard Time),443228.0,A,s,O,s,503,1,515.6999999880791,442712.3000000119,7757,WL,B,4.0
3,8.46399998664856,learn,51536.00001335144,Mon Mar 02 2026 11:00:36 GMT-0600 (Central Standard Time),443476.8000000119,A,sa,O,a,239,1,764.5,442712.3000000119,7757,WL,B,4.0
3,8.88100004196167,learn,51118.99995803833,Mon Mar 02 2026 11:00:36 GMT-0600 (Central Standard Time),443894.1999999881,A,s,O,backspace,396,1,1181.8999999761581,442712.3000000119,7757,WL,B,4.0
3,8.998000144958496,learn,51001.999855041504,Mon Mar 02 2026 11:00:36 GMT-0600 (Central Standard Time),444010.40000000596,A,st,O,t,98,1,1298.0999999940395,442712.3000000119,7757,WL,B,4.0
3,9.148000001907349,learn,50851.99999809265,Mon Mar 02 2026 11:00:36 GMT-0600 (Central Standard Time),444160.6999999881,A,sta,O,a,130,1,1448.3999999761581,442712.3000000119,7757,WL,B,4.0
3,9.430999994277954,learn,50569.000005722046,Mon Mar 02 2026 11:00:36 GMT-0600 (Central Standard Time),444443.8000000119,A,star,O,r,273,1,1731.5,442712.3000000119,7757,WL,B,4.0
3,10.065000057220459,learn,49934.99994277954,Mon Mar 02 2026 11:00:36 GMT-0600 (Central Standard Time),445077.59999999404,A,starenter,O,enter,615,1,2365.2999999821186,442712.3000000119,7757,WL,B,4.0
3,12.597000122070312,learn,47402.99987792969,Mon Mar 02 2026 11:00:36 GMT-0600 (Central Standard Time),447609.6999999881,A,w,O,w,2512,1,2531.7999999821186,445077.90000000596,7757,WL,B,5.0
3,12.729000091552734,learn,47270.999908447266,Mon Mar 02 2026 11:00:36 GMT-0600 (Central Standard Time),447742.0,A,wi,O,i,110,1,2664.0999999940395,445077.90000000596,7757,WL,B,5.0
3,12.828999996185303,learn,47171.0000038147,Mon Mar 02 2026 11:00:36 GMT-0600 (Central Standard Time),447842.0,A,win,O,n,85,1,2764.0999999940395,445077.90000000596,7757,WL,B,5.0
3,12.981000185012817,learn,47018.99981498718,Mon Mar 02 2026 11:00:36 GMT-0600 (Central Standard Time),447993.59999999404,A,wind,O,d,129,1,2915.699999988079,445077.90000000596,7757,WL,B,5.0
3,13.11300015449524,learn,46886.99984550476,Mon Mar 02 2026 11:00:36 GMT-0600 (Central Standard Time),448126.0,A,windo,O,o,120,1,3048.0999999940395,445077.90000000596,7757,WL,B,5.0
3,13.330000162124634,learn,46669.999837875366,Mon Mar 02 2026 11:00:36 GMT-0600 (Central Standard Time),448342.6999999881,A,window,O,w,196,1,3264.7999999821186,445077.90000000596,7757,WL,B,5.0
3,13.779000043869019,learn,46220.99995613098,Mon Mar 02 2026 11:00:36 GMT-0600 (Central Standard Time),448791.8000000119,A,windowenter,O,enter,430,1,3713.9000000059605,445077.90000000596,7757,WL,B,5.0
3,15.729000091552734,learn,44270.999908447266,Mon Mar 02 2026 11:00:36 GMT-0600 (Central Standard Time),450741.59999999404,A,s,O,s,1931,1,1949.5,448792.09999999404,7757,WL,B,6.0
3,16.011000156402588,learn,43988.99984359741,Mon Mar 02 2026 11:00:36 GMT-0600 (Central Standard Time),451023.8000000119,A,st,O,t,262,1,2231.7000000178814,448792.09999999404,7757,WL,B,6.0
3,16.295000076293945,learn,43704.999923706055,Mon Mar 02 2026 11:00:36 GMT-0600 (Central Standard Time),451308.09999999404,A,str,O,r,275,1,2516.0,448792.09999999404,7757,WL,B,6.0
3,16.42900013923645,learn,43570.99986076355,Mon Mar 02 2026 11:00:36 GMT-0600 (Central Standard Time),451441.6999999881,A,stre,O,e,117,1,2649.5999999940395,448792.09999999404,7757,WL,B,6.0
3,16.91100001335144,learn,43088.99998664856,Mon Mar 02 2026 11:00:36 GMT-0600 (Central Standard Time),451923.40000000596,A,stret,O,t,471,1,3131.300000011921,448792.09999999404,7757,WL,B,6.0
3,17.378000020980835,learn,42621.999979019165,Mon Mar 02 2026 11:00:36 GMT-0600 (Central Standard Time),452390.6999999881,A,stretenter,O,enter,456,1,3598.5999999940395,448792.09999999404,7757,WL,B,6.0
3,18.67799997329712,learn,41322.00002670288,Mon Mar 02 2026 11:00:36 GMT-0600 (Central Standard Time),453690.3000000119,A,g,O,g,1294,1,1299.4000000059605,452390.90000000596,7757,WL,B,7.0
3,18.92900013923645,learn,41070.99986076355,Mon Mar 02 2026 11:00:36 GMT-0600 (Central Standard Time),453941.3000000119,A,gr,O,r,229,1,1550.4000000059605,452390.90000000596,7757,WL,B,7.0
3,19.02900004386902,learn,40970.99995613098,Mon Mar 02 2026 11:00:36 GMT-0600 (Central Standard Time),454041.5,A,gra,O,a,78,1,1650.5999999940395,452390.90000000596,7757,WL,B,7.0
3,19.094000101089478,learn,40905.99989891052,Mon Mar 02 2026 11:00:36 GMT-0600 (Central Standard Time),454106.40000000596,A,gras,O,s,45,1,1715.5,452390.90000000596,7757,WL,B,7.0
3,19.34500002861023,learn,40654.99997138977,Mon Mar 02 2026 11:00:36 GMT-0600 (Central Standard Time),454357.90000000596,A,grass,O,s,230,1,1967.0,452390.90000000596,7757,WL,B,7.0
3,20.044000148773193,learn,39955.99985122681,Mon Mar 02 2026 11:00:36 GMT-0600 (Central Standard Time),455056.40000000596,A,grassenter,O,enter,683,1,2665.5,452390.90000000596,7757,WL,B,7.0
3,21.527000188827515,learn,38472.999811172485,Mon Mar 02 2026 11:00:36 GMT-0600 (Central Standard Time),456539.8000000119,A,w,O,w,1466,1,1483.1000000238419,455056.6999999881,7757,WL,B,8.0
3,21.575999975204468,learn,38424.00002479553,Mon Mar 02 2026 11:00:36 GMT-0600 (Central Standard Time),456588.59999999404,A,wi,O,i,38,1,1531.9000000059605,455056.6999999881,7757,WL,B,8.0
3,21.844000101089478,learn,38155.99989891052,Mon Mar 02 2026 11:00:36 GMT-0600 (Central Standard Time),456856.90000000596,A,wif,O,f,248,1,1800.2000000178814,455056.6999999881,7757,WL,B,8.0
3,21.875,learn,38125.0,Mon Mar 02 2026 11:00:36 GMT-0600 (Central Standard Time),456887.6999999881,A,wife,O,e,24,1,1831.0,455056.6999999881,7757,WL,B,8.0
3,22.259999990463257,learn,37740.00000953674,Mon Mar 02 2026 11:00:36 GMT-0600 (Central Standard Time),457272.90000000596,A,wifeenter,O,enter,367,1,2216.2000000178814,455056.6999999881,7757,WL,B,8.0
3,24.375,learn,35625.0,Mon Mar 02 2026 11:00:36 GMT-0600 (Central Standard Time),459388.1999999881,A,a,O,a,2097,1,2115.0999999940395,457273.09999999404,7757,WL,B,9.0
3,24.608999967575073,learn,35391.00003242493,Mon Mar 02 2026 11:00:36 GMT-0600 (Central Standard Time),459622.09999999404,A,ar,O,r,213,1,2349.0,457273.09999999404,7757,WL,B,9.0
3,24.692000150680542,learn,35307.99984931946,Mon Mar 02 2026 11:00:36 GMT-0600 (Central Standard Time),459704.90000000596,A,arm,O,m,67,1,2431.800000011921,457273.09999999404,7757,WL,B,9.0
3,25.125,learn,34875.0,Mon Mar 02 2026 11:00:36 GMT-0600 (Central Standard Time),460137.5,A,armenter,O,enter,424,1,2864.4000000059605,457273.09999999404,7757,WL,B,9.0
3,25.460000038146973,learn,34539.99996185303,Mon Mar 02 2026 11:00:36 GMT-0600 (Central Standard Time),460472.5,A,d,O,d,322,1,334.69999998807907,460137.8000000119,7757,WL,B,10.0
3,25.710000038146973,learn,34289.99996185303,Mon Mar 02 2026 11:00:36 GMT-0600 (Central Standard Time),460722.40000000596,A,do,O,o,245,1,584.5999999940395,460137.8000000119,7757,WL,B,10.0
3,25.844000101089478,learn,34155.99989891052,Mon Mar 02 2026 11:00:36 GMT-0600 (Central Standard Time),460856.8000000119,A,doo,O,o,118,1,719.0,460137.8000000119,7757,WL,B,10.0
3,26.075999975204468,learn,33924.00002479553,Mon Mar 02 2026 11:00:36 GMT-0600 (Central Standard Time),461088.59999999404,A,door,O,r,212,1,950.7999999821186,460137.8000000119,7757,WL,B,10.0
3,26.725000143051147,learn,33274.99985694885,Mon Mar 02 2026 11:00:36 GMT-0600 (Central Standard Time),461737.8000000119,A,doorenter,O,enter,634,1,1600.0,460137.8000000119,7757,WL,B,10.0
3,27.442000150680542,learn,32557.999849319458,Mon Mar 02 2026 11:00:36 GMT-0600 (Central Standard Time),462455.09999999404,A,w,O,w,704,1,717.0999999940395,461738.0,7757,WL,B,11.0
3,27.52400016784668,learn,32475.99983215332,Mon Mar 02 2026 11:00:36 GMT-0600 (Central Standard Time),462537.1999999881,A,wi,O,i,65,1,799.1999999880791,461738.0,7757,WL,B,11.0
3,27.625,learn,32375.0,Mon Mar 02 2026 11:00:36 GMT-0600 (Central Standard Time),462638.0,A,win,O,n,88,1,900.0,461738.0,7757,WL,B,11.0
3,27.725000143051147,learn,32274.999856948853,Mon Mar 02 2026 11:00:36 GMT-0600 (Central Standard Time),462738.3000000119,A,wind,O,d,77,1,1000.3000000119209,461738.0,7757,WL,B,11.0
3,27.907999992370605,learn,32092.000007629395,Mon Mar 02 2026 11:00:36 GMT-0600 (Central Standard Time),462920.8000000119,A,windo,O,o,162,1,1182.800000011921,461738.0,7757,WL,B,11.0
3,28.008000135421753,learn,31991.999864578247,Mon Mar 02 2026 11:00:36 GMT-0600 (Central Standard Time),463020.5,A,window,O,w,88,1,1282.5,461738.0,7757,WL,B,11.0
3,28.341000080108643,learn,31658.999919891357,Mon Mar 02 2026 11:00:36 GMT-0600 (Central Standard Time),463353.59999999404,A,windowenter,O,enter,326,1,1615.5999999940395,461738.0,7757,WL,B,11.0
3,35.539000034332275,learn,24460.999965667725,Mon Mar 02 2026 11:00:36 GMT-0600 (Central Standard Time),470551.90000000596,A,f,O,f,7185,1,7198.0,463353.90000000596,7757,WL,B,12.0
3,35.621999979019165,learn,24378.000020980835,Mon Mar 02 2026 11:00:36 GMT-0600 (Central Standard Time),470635.1999999881,A,fi,O,i,64,1,7281.299999982119,463353.90000000596,7757,WL,B,12.0
3,35.82299995422363,learn,24177.000045776367,Mon Mar 02 2026 11:00:36 GMT-0600 (Central Standard Time),470835.40000000596,A,fir,O,r,181,1,7481.5,463353.90000000596,7757,WL,B,12.0
3,35.90499997138977,learn,24095.00002861023,Mon Mar 02 2026 11:00:36 GMT-0600 (Central Standard Time),470917.90000000596,A,fire,O,e,61,1,7564.0,463353.90000000596,7757,WL,B,12.0
3,36.223000049591064,learn,23776.999950408936,Mon Mar 02 2026 11:00:36 GMT-0600 (Central Standard Time),471235.5,A,fireenter,O,enter,302,1,7881.5999999940395,463353.90000000596,7757,WL,B,12.0
3,44.6710000038147,learn,15328.999996185303,Mon Mar 02 2026 11:00:36 GMT-0600 (Central Standard Time),479683.90000000596,A,c,O,c,8433,1,8448.200000017881,471235.6999999881,7757,WL,B,13.0
3,44.801000118255615,learn,15198.999881744385,Mon Mar 02 2026 11:00:36 GMT-0600 (Central Standard Time),479814.1999999881,A,ca,O,a,117,1,8578.5,471235.6999999881,7757,WL,B,13.0
3,45.15300011634827,learn,14846.999883651733,Mon Mar 02 2026 11:00:36 GMT-0600 (Central Standard Time),480165.90000000596,A,cab,O,b,340,1,8930.200000017881,471235.6999999881,7757,WL,B,13.0
3,45.269999980926514,learn,14730.000019073486,Mon Mar 02 2026 11:00:36 GMT-0600 (Central Standard Time),480282.59999999404,A,cabi,O,i,108,1,9046.90000000596,471235.6999999881,7757,WL,B,13.0
3,45.36899995803833,learn,14631.00004196167,Mon Mar 02 2026 11:00:36 GMT-0600 (Central Standard Time),480381.59999999404,A,cabin,O,n,81,1,9145.90000000596,471235.6999999881,7757,WL,B,13.0
3,46.05200004577637,learn,13947.999954223633,Mon Mar 02 2026 11:00:36 GMT-0600 (Central Standard Time),481064.6999999881,A,cabinenter,O,enter,670,1,9829.0,471235.6999999881,7757,WL,B,13.0
3,46.467000007629395,learn,13532.999992370605,Mon Mar 02 2026 11:00:36 GMT-0600 (Central Standard Time),481480.40000000596,A,l,O,l,409,1,415.40000000596046,481065.0,7757,WL,B,14.0
3,46.6010000705719,learn,13398.9999294281,Mon Mar 02 2026 11:00:36 GMT-0600 (Central Standard Time),481614.1999999881,A,la,O,a,122,1,549.1999999880791,481065.0,7757,WL,B,14.0
3,46.80200004577637,learn,13197.999954223633,Mon Mar 02 2026 11:00:36 GMT-0600 (Central Standard Time),481815.3000000119,A,lak,O,k,183,1,750.3000000119209,481065.0,7757,WL,B,14.0
3,46.902000188827515,learn,13097.999811172485,Mon Mar 02 2026 11:00:36 GMT-0600 (Central Standard Time),481915.3000000119,A,lake,O,e,83,1,850.3000000119209,481065.0,7757,WL,B,14.0
3,47.21900010108948,learn,12780.999898910522,Mon Mar 02 2026 11:00:36 GMT-0600 (Central Standard Time),482232.09999999404,A,lakeenter,O,enter,298,1,1167.0999999940395,481065.0,7757,WL,B,14.0
3,60.015000104904175,learn,-15.000104904174805,Mon Mar 02 2026 11:00:36 GMT-0600 (Central Standard Time),495028.09999999404,A,None,O,None,12791,1,12795.799999982119,482232.3000000119,7757,WL,B,15.0
4,0.6340000629425049,learn,59365.999937057495,Mon Mar 02 2026 11:00:36 GMT-0600 (Central Standard Time),566271.8000000119,A,c,O,c,622,1,632.9000000059605,565638.900000006,7757,WL,B,1.0
4,0.6830000877380371,learn,59316.99991226196,Mon Mar 02 2026 11:00:36 GMT-0600 (Central Standard Time),566321.400000006,A,cl,O,l,26,1,682.5,565638.900000006,7757,WL,B,1.0
4,0.8670001029968262,learn,59132.999897003174,Mon Mar 02 2026 11:00:36 GMT-0600 (Central Standard Time),566505.6999999881,A,clo,O,o,181,1,866.7999999821186,565638.900000006,7757,WL,B,1.0
4,1.0840001106262207,learn,58915.99988937378,Mon Mar 02 2026 11:00:36 GMT-0600 (Central Standard Time),566722.5,A,cloc,O,c,199,1,1083.5999999940395,565638.900000006,7757,WL,B,1.0
4,1.1480000019073486,learn,58851.99999809265,Mon Mar 02 2026 11:00:36 GMT-0600 (Central Standard Time),566786.5,A,clock,O,k,44,1,1147.5999999940395,565638.900000006,7757,WL,B,1.0
4,2.0160000324249268,learn,57983.99996757507,Mon Mar 02 2026 11:00:36 GMT-0600 (Central Standard Time),567654.599999994,A,clockenter,O,enter,847,1,2015.699999988079,565638.900000006,7757,WL,B,1.0
4,2.8320000171661377,learn,57167.99998283386,Mon Mar 02 2026 11:00:36 GMT-0600 (Central Standard Time),568470.599999994,A,w,O,w,805,1,815.7999999821186,567654.8000000119,7757,WL,B,2.0
4,2.9149999618530273,learn,57085.00003814697,Mon Mar 02 2026 11:00:36 GMT-0600 (Central Standard Time),568553.3000000119,A,wi,O,i,73,1,898.5,567654.8000000119,7757,WL,B,2.0
4,3.2160000801086426,learn,56783.99991989136,Mon Mar 02 2026 11:00:36 GMT-0600 (Central Standard Time),568854.8000000119,A,wif,O,f,287,1,1200.0,567654.8000000119,7757,WL,B,2.0
4,3.2810001373291016,learn,56718.9998626709,Mon Mar 02 2026 11:00:36 GMT-0600 (Central Standard Time),568919.5,A,wife,O,e,49,1,1264.699999988079,567654.8000000119,7757,WL,B,2.0
4,3.815999984741211,learn,56184.00001525879,Mon Mar 02 2026 11:00:36 GMT-0600 (Central Standard Time),569454.3000000119,A,wifeenter,O,enter,513,1,1799.5,567654.8000000119,7757,WL,B,2.0
4,4.565999984741211,learn,55434.00001525879,Mon Mar 02 2026 11:00:36 GMT-0600 (Central Standard Time),570204.0,A,s,O,s,732,1,749.5,569454.5,7757,WL,B,3.0
4,4.664999961853027,learn,55335.00003814697,Mon Mar 02 2026 11:00:36 GMT-0600 (Central Standard Time),570303.3000000119,A,sk,O,k,77,1,848.8000000119209,569454.5,7757,WL,B,3.0
4,4.866000175476074,learn,55133.999824523926,Mon Mar 02 2026 11:00:36 GMT-0600 (Central Standard Time),570503.8000000119,A,ski,O,i,179,1,1049.300000011921,569454.5,7757,WL,B,3.0
4,4.965000152587891,learn,55034.99984741211,Mon Mar 02 2026 11:00:36 GMT-0600 (Central Standard Time),570603.6999999881,A,skin,O,n,81,1,1149.199999988079,569454.5,7757,WL,B,3.0
4,5.2820000648498535,learn,54717.99993515015,Mon Mar 02 2026 11:00:36 GMT-0600 (Central Standard Time),570920.400000006,A,skinenter,O,enter,301,1,1465.9000000059605,569454.5,7757,WL,B,3.0
4,6.231000185012817,learn,53768.99981498718,Mon Mar 02 2026 11:00:36 GMT-0600 (Central Standard Time),571869.8000000119,A,f,O,f,938,1,949.2000000178814,570920.599999994,7757,WL,B,4.0
4,6.299000024795532,learn,53700.99997520447,Mon Mar 02 2026 11:00:36 GMT-0600 (Central Standard Time),571937.099999994,A,fi,O,i,46,1,1016.5,570920.599999994,7757,WL,B,4.0
4,6.498000144958496,learn,53501.999855041504,Mon Mar 02 2026 11:00:36 GMT-0600 (Central Standard Time),572136.5,A,fir,O,r,177,1,1215.9000000059605,570920.599999994,7757,WL,B,4.0
4,6.513000011444092,learn,53486.99998855591,Mon Mar 02 2026 11:00:36 GMT-0600 (Central Standard Time),572151.5,A,fire,O,e,10,1,1230.9000000059605,570920.599999994,7757,WL,B,4.0
4,6.830000162124634,learn,53169.999837875366,Mon Mar 02 2026 11:00:36 GMT-0600 (Central Standard Time),572468.400000006,A,fireenter,O,enter,300,1,1547.800000011921,570920.599999994,7757,WL,B,4.0
4,7.46399998664856,learn,52536.00001335144,Mon Mar 02 2026 11:00:36 GMT-0600 (Central Standard Time),573101.8000000119,A,c,O,c,614,1,633.1000000238419,572468.6999999881,7757,WL,B,5.0
4,7.531000137329102,learn,52468.9998626709,Mon Mar 02 2026 11:00:36 GMT-0600 (Central Standard Time),573168.8000000119,A,ci,O,i,45,1,700.1000000238419,572468.6999999881,7757,WL,B,5.0
4,7.797000169754028,learn,52202.99983024597,Mon Mar 02 2026 11:00:36 GMT-0600 (Central Standard Time),573435.400000006,A,cit,O,t,257,1,966.7000000178814,572468.6999999881,7757,WL,B,5.0
4,7.88100004196167,learn,52118.99995803833,Mon Mar 02 2026 11:00:36 GMT-0600 (Central Standard Time),573519.099999994,A,city,O,y,70,1,1050.4000000059605,572468.6999999881,7757,WL,B,5.0
4,8.230000019073486,learn,51769.999980926514,Mon Mar 02 2026 11:00:36 GMT-0600 (Central Standard Time),573868.099999994,A,cityenter,O,enter,329,1,1399.4000000059605,572468.6999999881,7757,WL,B,5.0
4,9.746999979019165,learn,50253.000020980835,Mon Mar 02 2026 11:00:36 GMT-0600 (Central Standard Time),575385.099999994,A,s,O,s,1510,1,1516.7999999821186,573868.3000000119,7757,WL,B,6.0
4,10.047000169754028,learn,49952.99983024597,Mon Mar 02 2026 11:00:36 GMT-0600 (Central Standard Time),575685.599999994,A,st,O,t,279,1,1817.2999999821186,573868.3000000119,7757,WL,B,6.0
4,10.314000129699707,learn,49685.99987030029,Mon Mar 02 2026 11:00:36 GMT-0600 (Central Standard Time),575952.1999999881,A,str,O,r,246,1,2083.899999976158,573868.3000000119,7757,WL,B,6.0
4,10.345999956130981,learn,49654.00004386902,Mon Mar 02 2026 11:00:36 GMT-0600 (Central Standard Time),575984.6999999881,A,stre,O,e,11,1,2116.399999976158,573868.3000000119,7757,WL,B,6.0
4,10.52999997138977,learn,49470.00002861023,Mon Mar 02 2026 11:00:36 GMT-0600 (Central Standard Time),576168.599999994,A,stree,O,e,171,1,2300.2999999821186,573868.3000000119,7757,WL,B,6.0
4,10.764000177383423,learn,49235.99982261658,Mon Mar 02 2026 11:00:36 GMT-0600 (Central Standard Time),576402.6999999881,A,street,O,t,210,1,2534.399999976158,573868.3000000119,7757,WL,B,6.0
4,11.047000169754028,learn,48952.99983024597,Mon Mar 02 2026 11:00:36 GMT-0600 (Central Standard Time),576685.0,A,streetenter,O,enter,271,1,2816.699999988079,573868.3000000119,7757,WL,B,6.0
4,11.812999963760376,learn,48187.000036239624,Mon Mar 02 2026 11:00:36 GMT-0600 (Central Standard Time),577451.6999999881,A,g,O,g,761,1,766.3999999761581,576685.3000000119,7757,WL,B,7.0
4,12.078999996185303,learn,47921.0000038147,Mon Mar 02 2026 11:00:36 GMT-0600 (Central Standard Time),577717.099999994,A,gr,O,r,244,1,1031.7999999821186,576685.3000000119,7757,WL,B,7.0
4,12.196000099182129,learn,47803.99990081787,Mon Mar 02 2026 11:00:36 GMT-0600 (Central Standard Time),577834.400000006,A,gra,O,a,102,1,1149.0999999940395,576685.3000000119,7757,WL,B,7.0
4,12.51200008392334,learn,47487.99991607666,Mon Mar 02 2026 11:00:36 GMT-0600 (Central Standard Time),578150.400000006,A,gras,O,s,296,1,1465.0999999940395,576685.3000000119,7757,WL,B,7.0
4,12.630000114440918,learn,47369.99988555908,Mon Mar 02 2026 11:00:36 GMT-0600 (Central Standard Time),578268.400000006,A,grass,O,s,106,1,1583.0999999940395,576685.3000000119,7757,WL,B,7.0
4,13.046000003814697,learn,46953.9999961853,Mon Mar 02 2026 11:00:36 GMT-0600 (Central Standard Time),578684.3000000119,A,grassenter,O,enter,396,1,1999.0,576685.3000000119,7757,WL,B,7.0
4,14.42799997329712,learn,45572.00002670288,Mon Mar 02 2026 11:00:36 GMT-0600 (Central Standard Time),580065.8000000119,A,w,O,w,1374,1,1381.2000000178814,578684.599999994,7757,WL,B,8.0
4,14.528000116348267,learn,45471.99988365173,Mon Mar 02 2026 11:00:36 GMT-0600 (Central Standard Time),580166.400000006,A,wi,O,i,80,1,1481.800000011921,578684.599999994,7757,WL,B,8.0
4,14.611999988555908,learn,45388.00001144409,Mon Mar 02 2026 11:00:36 GMT-0600 (Central Standard Time),580249.8000000119,A,win,O,n,75,1,1565.2000000178814,578684.599999994,7757,WL,B,8.0
4,14.696000099182129,learn,45303.99990081787,Mon Mar 02 2026 11:00:36 GMT-0600 (Central Standard Time),580334.0,A,wind,O,d,71,1,1649.4000000059605,578684.599999994,7757,WL,B,8.0
4,14.896000146865845,learn,45103.999853134155,Mon Mar 02 2026 11:00:36 GMT-0600 (Central Standard Time),580534.0,A,windo,O,o,177,1,1849.4000000059605,578684.599999994,7757,WL,B,8.0
4,14.993000030517578,learn,45006.99996948242,Mon Mar 02 2026 11:00:36 GMT-0600 (Central Standard Time),580631.6999999881,A,window,O,w,84,1,1947.0999999940395,578684.599999994,7757,WL,B,8.0
4,15.502000093460083,learn,44497.99990653992,Mon Mar 02 2026 11:00:36 GMT-0600 (Central Standard Time),581140.8000000119,A,windowenter,O,enter,506,1,2456.2000000178814,578684.599999994,7757,WL,B,8.0
4,15.878000020980835,learn,44121.999979019165,Mon Mar 02 2026 11:00:36 GMT-0600 (Central Standard Time),581516.0,A,d,O,d,367,1,375.0,581141.0,7757,WL,B,9.0
4,15.909000158309937,learn,44090.99984169006,Mon Mar 02 2026 11:00:36 GMT-0600 (Central Standard Time),581547.8000000119,A,do,O,o,13,1,406.80000001192093,581141.0,7757,WL,B,9.0
4,16.094000101089478,learn,43905.99989891052,Mon Mar 02 2026 11:00:36 GMT-0600 (Central Standard Time),581732.099999994,A,doo,O,o,167,1,591.0999999940395,581141.0,7757,WL,B,9.0
4,16.312000036239624,learn,43687.999963760376,Mon Mar 02 2026 11:00:36 GMT-0600 (Central Standard Time),581950.5,A,door,O,r,207,1,809.5,581141.0,7757,WL,B,9.0
4,16.67799997329712,learn,43322.00002670288,Mon Mar 02 2026 11:00:36 GMT-0600 (Central Standard Time),582316.1999999881,A,doo,O,backspace,355,1,1175.199999988079,581141.0,7757,WL,B,9.0
4,17.99500012397766,learn,42004.99987602234,Mon Mar 02 2026 11:00:36 GMT-0600 (Central Standard Time),583633.1999999881,A,door,O,r,1302,1,2492.199999988079,581141.0,7757,WL,B,9.0
4,18.276000022888184,learn,41723.99997711182,Mon Mar 02 2026 11:00:36 GMT-0600 (Central Standard Time),583914.400000006,A,doorenter,O,enter,271,1,2773.4000000059605,581141.0,7757,WL,B,9.0
4,20.927000045776367,learn,39072.99995422363,Mon Mar 02 2026 11:00:36 GMT-0600 (Central Standard Time),586565.3000000119,A,p,O,p,2634,1,2650.800000011921,583914.5,7757,WL,B,10.0
4,21.009999990463257,learn,38990.00000953674,Mon Mar 02 2026 11:00:36 GMT-0600 (Central Standard Time),586648.099999994,A,pu,O,u,63,1,2733.5999999940395,583914.5,7757,WL,B,10.0
4,21.210000038146973,learn,38789.99996185303,Mon Mar 02 2026 11:00:36 GMT-0600 (Central Standard Time),586848.5,A,puo,O,o,184,1,2934.0,583914.5,7757,WL,B,10.0
4,21.611999988555908,learn,38388.00001144409,Mon Mar 02 2026 11:00:36 GMT-0600 (Central Standard Time),587250.099999994,A,puoi,O,i,395,1,3335.5999999940395,583914.5,7757,WL,B,10.0
4,22.243000030517578,learn,37756.99996948242,Mon Mar 02 2026 11:00:36 GMT-0600 (Central Standard Time),587881.3000000119,A,puo,O,backspace,627,1,3966.800000011921,583914.5,7757,WL,B,10.0
4,22.42799997329712,learn,37572.00002670288,Mon Mar 02 2026 11:00:36 GMT-0600 (Central Standard Time),588066.5,A,pu,O,backspace,164,1,4152.0,583914.5,7757,WL,B,10.0
4,23.05900001525879,learn,36940.99998474121,Mon Mar 02 2026 11:00:36 GMT-0600 (Central Standard Time),588697.3000000119,A,pui,O,i,625,1,4782.800000011921,583914.5,7757,WL,B,10.0
4,23.743000030517578,learn,36256.99996948242,Mon Mar 02 2026 11:00:36 GMT-0600 (Central Standard Time),589381.1999999881,A,pu,O,backspace,665,1,5466.699999988079,583914.5,7757,WL,B,10.0
4,24.608999967575073,learn,35391.00003242493,Mon Mar 02 2026 11:00:36 GMT-0600 (Central Standard Time),590247.099999994,A,pup,O,p,852,1,6332.5999999940395,583914.5,7757,WL,B,10.0
4,24.907999992370605,learn,35092.000007629395,Mon Mar 02 2026 11:00:36 GMT-0600 (Central Standard Time),590546.5,A,pupi,O,i,282,1,6632.0,583914.5,7757,WL,B,10.0
4,24.9760000705719,learn,35023.9999294281,Mon Mar 02 2026 11:00:36 GMT-0600 (Central Standard Time),590614.099999994,A,pupil,O,l,52,1,6699.5999999940395,583914.5,7757,WL,B,10.0
4,25.676000118255615,learn,34323.999881744385,Mon Mar 02 2026 11:00:36 GMT-0600 (Central Standard Time),591314.400000006,A,pupilenter,O,enter,680,1,7399.9000000059605,583914.5,7757,WL,B,10.0
4,34.48800015449524,learn,25511.99984550476,Mon Mar 02 2026 11:00:36 GMT-0600 (Central Standard Time),600126.8000000119,A,s,O,s,8801,1,8812.200000017881,591314.599999994,7757,WL,B,11.0
4,34.855000019073486,learn,25144.999980926514,Mon Mar 02 2026 11:00:36 GMT-0600 (Central Standard Time),600493.400000006,A,st,O,t,356,1,9178.800000011921,591314.599999994,7757,WL,B,11.0
4,34.97099995613098,learn,25029.00004386902,Mon Mar 02 2026 11:00:36 GMT-0600 (Central Standard Time),600609.6999999881,A,sta,O,a,107,1,9295.09999999404,591314.599999994,7757,WL,B,11.0
4,35.15499997138977,learn,24845.00002861023,Mon Mar 02 2026 11:00:36 GMT-0600 (Central Standard Time),600793.599999994,A,star,O,r,178,1,9479.0,591314.599999994,7757,WL,B,11.0
4,35.805999994277954,learn,24194.000005722046,Mon Mar 02 2026 11:00:36 GMT-0600 (Central Standard Time),601444.099999994,A,starenter,O,enter,631,1,10129.5,591314.599999994,7757,WL,B,11.0
4,45.45300006866455,learn,14546.99993133545,Mon Mar 02 2026 11:00:36 GMT-0600 (Central Standard Time),611091.8000000119,A,c,O,c,9630,1,9647.40000000596,601444.400000006,7757,WL,B,12.0
4,45.51800012588501,learn,14481.99987411499,Mon Mar 02 2026 11:00:36 GMT-0600 (Central Standard Time),611156.3000000119,A,ci,O,i,44,1,9711.90000000596,601444.400000006,7757,WL,B,12.0
4,45.819000005722046,learn,14180.999994277954,Mon Mar 02 2026 11:00:36 GMT-0600 (Central Standard Time),611457.8000000119,A,cit,O,t,297,1,10013.40000000596,601444.400000006,7757,WL,B,12.0
4,45.937000036239624,learn,14062.999963760376,Mon Mar 02 2026 11:00:36 GMT-0600 (Central Standard Time),611575.400000006,A,city,O,y,104,1,10131.0,601444.400000006,7757,WL,B,12.0
4,46.318000078201294,learn,13681.999921798706,Mon Mar 02 2026 11:00:36 GMT-0600 (Central Standard Time),611956.400000006,A,cityenter,O,enter,371,1,10512.0,601444.400000006,7757,WL,B,12.0
4,48.402000188827515,learn,11597.999811172485,Mon Mar 02 2026 11:00:36 GMT-0600 (Central Standard Time),614040.599999994,A,c,O,c,2070,1,2083.9000000059605,611956.6999999881,7757,WL,B,13.0
4,48.50100016593933,learn,11498.999834060669,Mon Mar 02 2026 11:00:36 GMT-0600 (Central Standard Time),614139.8000000119,A,ca,O,a,81,1,2183.100000023842,611956.6999999881,7757,WL,B,13.0
4,48.75,learn,11250.0,Mon Mar 02 2026 11:00:36 GMT-0600 (Central Standard Time),614388.900000006,A,cav,O,v,237,1,2432.2000000178814,611956.6999999881,7757,WL,B,13.0
4,48.86800003051758,learn,11131.999969482422,Mon Mar 02 2026 11:00:36 GMT-0600 (Central Standard Time),614506.5,A,cavi,O,i,98,1,2549.800000011921,611956.6999999881,7757,WL,B,13.0
4,48.968000173568726,learn,11031.999826431274,Mon Mar 02 2026 11:00:36 GMT-0600 (Central Standard Time),614606.900000006,A,cavin,O,n,87,1,2650.2000000178814,611956.6999999881,7757,WL,B,13.0
4,49.367000102996826,learn,10632.999897003174,Mon Mar 02 2026 11:00:36 GMT-0600 (Central Standard Time),615005.599999994,A,cavinenter,O,enter,386,1,3048.9000000059605,611956.6999999881,7757,WL,B,13.0
4,56.61500000953674,learn,3384.999990463257,Mon Mar 02 2026 11:00:36 GMT-0600 (Central Standard Time),622254.099999994,A,p,O,p,7237,1,7248.299999982119,615005.8000000119,7757,WL,B,14.0
4,56.69700002670288,learn,3302.999973297119,Mon Mar 02 2026 11:00:36 GMT-0600 (Central Standard Time),622335.1999999881,A,pi,O,i,58,1,7329.399999976158,615005.8000000119,7757,WL,B,14.0
4,56.98100018501282,learn,3018.9998149871826,Mon Mar 02 2026 11:00:36 GMT-0600 (Central Standard Time),622619.8000000119,A,pip,O,p,268,1,7614.0,615005.8000000119,7757,WL,B,14.0
4,57.24900007247925,learn,2750.999927520752,Mon Mar 02 2026 11:00:36 GMT-0600 (Central Standard Time),622887.1999999881,A,pipe,O,e,254,1,7881.399999976158,615005.8000000119,7757,WL,B,14.0
4,57.56400012969971,learn,2435.999870300293,Mon Mar 02 2026 11:00:36 GMT-0600 (Central Standard Time),623202.3000000119,A,pipeenter,O,enter,305,1,8196.5,615005.8000000119,7757,WL,B,14.0
4,60.01600003242493,learn,-16.000032424926758,Mon Mar 02 2026 11:00:36 GMT-0600 (Central Standard Time),625654.5,A,None,O,None,2447,1,2451.9000000059605,623202.599999994,7757,WL,B,15.0
5,0.4330000877380371,learn,60000.0,Mon Mar 02 2026 11:00:36 GMT-0600 (Central Standard Time),691248.900000006,A,c,O,c,410,1,433.0,690815.900000006,7757,WL,B,1.0
5,0.681999921798706,learn,60000.0,Mon Mar 02 2026 11:00:36 GMT-0600 (Central Standard Time),691497.6999999881,A,co,O,o,227,1,681.7999999821186,690815.900000006,7757,WL,B,1.0
5,0.9490001201629639,learn,60000.0,Mon Mar 02 2026 11:00:36 GMT-0600 (Central Standard Time),691764.5,A,coc,O,c,257,1,948.5999999940395,690815.900000006,7757,WL,B,1.0
5,1.065000057220459,learn,60000.0,Mon Mar 02 2026 11:00:36 GMT-0600 (Central Standard Time),691880.900000006,A,cock,O,k,94,1,1065.0,690815.900000006,7757,WL,B,1.0
5,1.9820001125335693,learn,60000.0,Mon Mar 02 2026 11:00:36 GMT-0600 (Central Standard Time),692797.8000000119,A,coc,O,backspace,895,1,1981.9000000059605,690815.900000006,7757,WL,B,1.0
5,2.115999937057495,learn,60000.0,Mon Mar 02 2026 11:00:36 GMT-0600 (Central Standard Time),692931.5,A,co,O,backspace,122,1,2115.5999999940395,690815.900000006,7757,WL,B,1.0
5,2.2810001373291016,learn,60000.0,Mon Mar 02 2026 11:00:36 GMT-0600 (Central Standard Time),693097.3000000119,A,c,O,backspace,149,1,2281.4000000059605,690815.900000006,7757,WL,B,1.0
5,3.065000057220459,learn,60000.0,Mon Mar 02 2026 11:00:36 GMT-0600 (Central Standard Time),693881.099999994,A,cl,O,l,767,1,3065.199999988079,690815.900000006,7757,WL,B,1.0
5,3.2820000648498535,learn,60000.0,Mon Mar 02 2026 11:00:36 GMT-0600 (Central Standard Time),694098.0,A,clo,O,o,209,1,3282.0999999940395,690815.900000006,7757,WL,B,1.0
5,3.4160001277923584,learn,60000.0,Mon Mar 02 2026 11:00:36 GMT-0600 (Central Standard Time),694231.8000000119,A,cloc,O,c,111,1,3415.9000000059605,690815.900000006,7757,WL,B,1.0
5,3.564000129699707,learn,60000.0,Mon Mar 02 2026 11:00:36 GMT-0600 (Central Standard Time),694380.3000000119,A,clock,O,k,138,1,3564.4000000059605,690815.900000006,7757,WL,B,1.0
5,4.114000082015991,learn,60000.0,Mon Mar 02 2026 11:00:36 GMT-0600 (Central Standard Time),694930.1999999881,A,clockenter,O,enter,529,1,4114.299999982119,690815.900000006,7757,WL,B,1.0
5,4.930999994277954,learn,60000.0,Mon Mar 02 2026 11:00:36 GMT-0600 (Central Standard Time),695746.8000000119,A,s,O,s,800,1,816.4000000059605,694930.400000006,7757,WL,B,2.0
5,5.579999923706055,learn,60000.0,Mon Mar 02 2026 11:00:36 GMT-0600 (Central Standard Time),696396.0,A,st,O,t,636,1,1465.5999999940395,694930.400000006,7757,WL,B,2.0
5,6.015000104904175,learn,60000.0,Mon Mar 02 2026 11:00:36 GMT-0600 (Central Standard Time),696831.099999994,A,str,O,r,423,1,1900.699999988079,694930.400000006,7757,WL,B,2.0
5,6.046000003814697,learn,60000.0,Mon Mar 02 2026 11:00:36 GMT-0600 (Central Standard Time),696861.900000006,A,stre,O,e,10,1,1931.5,694930.400000006,7757,WL,B,2.0
5,6.212000131607056,learn,60000.0,Mon Mar 02 2026 11:00:36 GMT-0600 (Central Standard Time),697028.1999999881,A,stree,O,e,149,1,2097.7999999821186,694930.400000006,7757,WL,B,2.0
5,6.513999938964844,learn,60000.0,Mon Mar 02 2026 11:00:36 GMT-0600 (Central Standard Time),697329.8000000119,A,street,O,t,297,1,2399.4000000059605,694930.400000006,7757,WL,B,2.0
5,7.031000137329102,learn,60000.0,Mon Mar 02 2026 11:00:36 GMT-0600 (Central Standard Time),697846.5,A,streetenter,O,enter,504,1,2916.0999999940395,694930.400000006,7757,WL,B,2.0
5,7.664000034332275,learn,60000.0,Mon Mar 02 2026 11:00:36 GMT-0600 (Central Standard Time),698480.099999994,A,g,O,g,620,1,633.2999999821186,697846.8000000119,7757,WL,B,3.0
5,7.980000019073486,learn,60000.0,Mon Mar 02 2026 11:00:36 GMT-0600 (Central Standard Time),698795.6999999881,A,gr,O,r,297,1,948.8999999761581,697846.8000000119,7757,WL,B,3.0
5,8.263999938964844,learn,60000.0,Mon Mar 02 2026 11:00:36 GMT-0600 (Central Standard Time),699079.5,A,gra,O,a,271,1,1232.699999988079,697846.8000000119,7757,WL,B,3.0
5,8.46399998664856,learn,60000.0,Mon Mar 02 2026 11:00:36 GMT-0600 (Central Standard Time),699279.8000000119,A,gras,O,s,189,1,1433.0,697846.8000000119,7757,WL,B,3.0
5,8.796000003814697,learn,60000.0,Mon Mar 02 2026 11:00:36 GMT-0600 (Central Standard Time),699612.3000000119,A,grass,O,s,320,1,1765.5,697846.8000000119,7757,WL,B,3.0
5,9.36299991607666,learn,60000.0,Mon Mar 02 2026 11:00:36 GMT-0600 (Central Standard Time),700179.0,A,grassenter,O,enter,555,1,2332.199999988079,697846.8000000119,7757,WL,B,3.0
5,10.51200008392334,learn,60000.0,Mon Mar 02 2026 11:00:36 GMT-0600 (Central Standard Time),701328.0,A,w,O,w,1135,1,1148.699999988079,700179.3000000119,7757,WL,B,4.0
5,10.595999956130981,learn,60000.0,Mon Mar 02 2026 11:00:36 GMT-0600 (Central Standard Time),701411.5,A,wi,O,i,67,1,1232.199999988079,700179.3000000119,7757,WL,B,4.0
5,10.713000059127808,learn,60000.0,Mon Mar 02 2026 11:00:36 GMT-0600 (Central Standard Time),701528.8000000119,A,win,O,n,92,1,1349.5,700179.3000000119,7757,WL,B,4.0
5,10.828999996185303,learn,60000.0,Mon Mar 02 2026 11:00:36 GMT-0600 (Central Standard Time),701644.8000000119,A,wind,O,d,96,1,1465.5,700179.3000000119,7757,WL,B,4.0
5,10.986000061035156,learn,60000.0,Mon Mar 02 2026 11:00:36 GMT-0600 (Central Standard Time),701801.5,A,windo,O,o,130,1,1622.199999988079,700179.3000000119,7757,WL,B,4.0
5,11.121000051498413,learn,60000.0,Mon Mar 02 2026 11:00:36 GMT-0600 (Central Standard Time),701936.599999994,A,window,O,w,113,1,1757.2999999821186,700179.3000000119,7757,WL,B,4.0
5,11.446000099182129,learn,60000.0,Mon Mar 02 2026 11:00:36 GMT-0600 (Central Standard Time),702261.900000006,A,windowenter,O,enter,307,1,2082.5999999940395,700179.3000000119,7757,WL,B,4.0
5,11.76200008392334,learn,60000.0,Mon Mar 02 2026 11:00:36 GMT-0600 (Central Standard Time),702578.3000000119,A,d,O,d,300,1,316.10000002384186,702262.1999999881,7757,WL,B,5.0
5,11.86299991607666,learn,60000.0,Mon Mar 02 2026 11:00:36 GMT-0600 (Central Standard Time),702678.900000006,A,do,O,o,80,1,416.7000000178814,702262.1999999881,7757,WL,B,5.0
5,11.979000091552734,learn,60000.0,Mon Mar 02 2026 11:00:36 GMT-0600 (Central Standard Time),702795.1999999881,A,doo,O,o,96,1,533.0,702262.1999999881,7757,WL,B,5.0
5,12.196000099182129,learn,60000.0,Mon Mar 02 2026 11:00:36 GMT-0600 (Central Standard Time),703011.6999999881,A,door,O,r,197,1,749.5,702262.1999999881,7757,WL,B,5.0
5,12.529000043869019,learn,60000.0,Mon Mar 02 2026 11:00:36 GMT-0600 (Central Standard Time),703345.1999999881,A,doorenter,O,enter,318,1,1083.0,702262.1999999881,7757,WL,B,5.0
5,14.24399995803833,learn,60000.0,Mon Mar 02 2026 11:00:36 GMT-0600 (Central Standard Time),705060.3000000119,A,w,O,w,1697,1,1714.9000000059605,703345.400000006,7757,WL,B,6.0
5,14.309999942779541,learn,60000.0,Mon Mar 02 2026 11:00:36 GMT-0600 (Central Standard Time),705126.3000000119,A,wi,O,i,50,1,1780.9000000059605,703345.400000006,7757,WL,B,6.0
5,14.528000116348267,learn,60000.0,Mon Mar 02 2026 11:00:36 GMT-0600 (Central Standard Time),705343.6999999881,A,wif,O,f,203,1,1998.2999999821186,703345.400000006,7757,WL,B,6.0
5,14.592999935150146,learn,60000.0,Mon Mar 02 2026 11:00:36 GMT-0600 (Central Standard Time),705409.099999994,A,wife,O,e,46,1,2063.699999988079,703345.400000006,7757,WL,B,6.0
5,14.977999925613403,learn,60000.0,Mon Mar 02 2026 11:00:36 GMT-0600 (Central Standard Time),705794.3000000119,A,wifeenter,O,enter,378,1,2448.9000000059605,703345.400000006,7757,WL,B,6.0
5,15.410000085830688,learn,60000.0,Mon Mar 02 2026 11:00:36 GMT-0600 (Central Standard Time),706226.400000006,A,s,O,s,424,1,431.80000001192093,705794.599999994,7757,WL,B,7.0
5,15.49399995803833,learn,60000.0,Mon Mar 02 2026 11:00:36 GMT-0600 (Central Standard Time),706309.599999994,A,si,O,i,71,1,515.0,705794.599999994,7757,WL,B,7.0
5,15.895999908447266,learn,60000.0,Mon Mar 02 2026 11:00:36 GMT-0600 (Central Standard Time),706711.6999999881,A,s,O,backspace,397,1,917.0999999940395,705794.599999994,7757,WL,B,7.0
5,16.161999940872192,learn,60000.0,Mon Mar 02 2026 11:00:36 GMT-0600 (Central Standard Time),706978.400000006,A,sk,O,k,250,1,1183.800000011921,705794.599999994,7757,WL,B,7.0
5,16.39300012588501,learn,60000.0,Mon Mar 02 2026 11:00:36 GMT-0600 (Central Standard Time),707209.0,A,ski,O,i,215,1,1414.4000000059605,705794.599999994,7757,WL,B,7.0
5,16.55999994277954,learn,60000.0,Mon Mar 02 2026 11:00:36 GMT-0600 (Central Standard Time),707376.1999999881,A,skin,O,n,154,1,1581.5999999940395,705794.599999994,7757,WL,B,7.0
5,16.877000093460083,learn,60000.0,Mon Mar 02 2026 11:00:36 GMT-0600 (Central Standard Time),707693.3000000119,A,skinenter,O,enter,299,1,1898.7000000178814,705794.599999994,7757,WL,B,7.0
5,18.528000116348267,learn,60000.0,Mon Mar 02 2026 11:00:36 GMT-0600 (Central Standard Time),709343.900000006,A,a,O,a,1628,1,1650.300000011921,707693.599999994,7757,WL,B,8.0
5,18.793999910354614,learn,60000.0,Mon Mar 02 2026 11:00:36 GMT-0600 (Central Standard Time),709609.5,A,ar,O,r,249,1,1915.9000000059605,707693.599999994,7757,WL,B,8.0
5,18.97699999809265,learn,60000.0,Mon Mar 02 2026 11:00:36 GMT-0600 (Central Standard Time),709792.6999999881,A,arm,O,m,163,1,2099.0999999940395,707693.599999994,7757,WL,B,8.0
5,20.342000007629395,learn,60000.0,Mon Mar 02 2026 11:00:36 GMT-0600 (Central Standard Time),711158.099999994,A,armenter,O,enter,1346,1,3464.5,707693.599999994,7757,WL,B,8.0
5,23.04200005531311,learn,60000.0,Mon Mar 02 2026 11:00:36 GMT-0600 (Central Standard Time),713857.8000000119,A,c,O,c,2683,1,2699.5,711158.3000000119,7757,WL,B,9.0
5,23.092000007629395,learn,60000.0,Mon Mar 02 2026 11:00:36 GMT-0600 (Central Standard Time),713907.6999999881,A,ci,O,i,40,1,2749.399999976158,711158.3000000119,7757,WL,B,9.0
5,23.39400005340576,learn,60000.0,Mon Mar 02 2026 11:00:36 GMT-0600 (Central Standard Time),714210.3000000119,A,cit,O,t,287,1,3052.0,711158.3000000119,7757,WL,B,9.0
5,23.45799994468689,learn,60000.0,Mon Mar 02 2026 11:00:36 GMT-0600 (Central Standard Time),714274.0,A,city,O,y,56,1,3115.699999988079,711158.3000000119,7757,WL,B,9.0
5,23.80900001525879,learn,60000.0,Mon Mar 02 2026 11:00:36 GMT-0600 (Central Standard Time),714625.1999999881,A,cityenter,O,enter,332,1,3466.899999976158,711158.3000000119,7757,WL,B,9.0
5,24.125,learn,60000.0,Mon Mar 02 2026 11:00:36 GMT-0600 (Central Standard Time),714940.6999999881,A,c,O,c,304,1,315.19999998807907,714625.5,7757,WL,B,10.0
5,24.20900011062622,learn,60000.0,Mon Mar 02 2026 11:00:36 GMT-0600 (Central Standard Time),715024.900000006,A,ca,O,a,60,1,399.40000000596046,714625.5,7757,WL,B,10.0
5,24.509999990463257,learn,60000.0,Mon Mar 02 2026 11:00:36 GMT-0600 (Central Standard Time),715325.6999999881,A,cab,O,b,287,1,700.1999999880791,714625.5,7757,WL,B,10.0
5,24.625,learn,60000.0,Mon Mar 02 2026 11:00:36 GMT-0600 (Central Standard Time),715441.400000006,A,cabi,O,i,96,1,815.9000000059605,714625.5,7757,WL,B,10.0
5,24.674000024795532,learn,60000.0,Mon Mar 02 2026 11:00:36 GMT-0600 (Central Standard Time),715489.599999994,A,cabin,O,n,40,1,864.0999999940395,714625.5,7757,WL,B,10.0
5,24.990000009536743,learn,60000.0,Mon Mar 02 2026 11:00:36 GMT-0600 (Central Standard Time),715806.1999999881,A,cabinenter,O,enter,298,1,1180.699999988079,714625.5,7757,WL,B,10.0
5,25.975000143051147,learn,60000.0,Mon Mar 02 2026 11:00:36 GMT-0600 (Central Standard Time),716790.8000000119,A,l,O,l,964,1,984.3000000119209,715806.5,7757,WL,B,11.0
5,26.072999954223633,learn,60000.0,Mon Mar 02 2026 11:00:36 GMT-0600 (Central Standard Time),716889.099999994,A,la,O,a,82,1,1082.5999999940395,715806.5,7757,WL,B,11.0
5,26.29100012779236,learn,60000.0,Mon Mar 02 2026 11:00:36 GMT-0600 (Central Standard Time),717107.3000000119,A,lak,O,k,201,1,1300.800000011921,715806.5,7757,WL,B,11.0
5,26.391000032424927,learn,60000.0,Mon Mar 02 2026 11:00:36 GMT-0600 (Central Standard Time),717206.5,A,lake,O,e,86,1,1400.0,715806.5,7757,WL,B,11.0
5,26.70799994468689,learn,60000.0,Mon Mar 02 2026 11:00:36 GMT-0600 (Central Standard Time),717523.900000006,A,lakeenter,O,enter,307,1,1717.4000000059605,715806.5,7757,WL,B,11.0
5,49.08299994468689,learn,60000.0,Mon Mar 02 2026 11:00:36 GMT-0600 (Central Standard Time),739899.1999999881,A,l,O,l,22359,1,22375.09999999404,717524.099999994,7757,WL,B,12.0
5,49.16600012779236,learn,60000.0,Mon Mar 02 2026 11:00:36 GMT-0600 (Central Standard Time),739982.099999994,A,la,O,a,68,1,22458.0,717524.099999994,7757,WL,B,12.0
5,49.700000047683716,learn,60000.0,Mon Mar 02 2026 11:00:36 GMT-0600 (Central Standard Time),740516.400000006,A,lak,O,k,523,1,22992.30000001192,717524.099999994,7757,WL,B,12.0
5,49.848999977111816,learn,60000.0,Mon Mar 02 2026 11:00:36 GMT-0600 (Central Standard Time),740665.599999994,A,lake,O,e,129,1,23141.5,717524.099999994,7757,WL,B,12.0
5,50.21799993515015,learn,60000.0,Mon Mar 02 2026 11:00:36 GMT-0600 (Central Standard Time),741034.400000006,A,lakeenter,O,enter,353,1,23510.30000001192,717524.099999994,7757,WL,B,12.0
5,53.0,learn,60000.0,Mon Mar 02 2026 11:00:36 GMT-0600 (Central Standard Time),743816.0,A,c,O,c,2761,1,2781.300000011921,741034.6999999881,7757,WL,B,13.0
5,53.06400012969971,learn,60000.0,Mon Mar 02 2026 11:00:36 GMT-0600 (Central Standard Time),743880.400000006,A,ci,O,i,48,1,2845.7000000178814,741034.6999999881,7757,WL,B,13.0
5,53.3989999294281,learn,60000.0,Mon Mar 02 2026 11:00:36 GMT-0600 (Central Standard Time),744215.3000000119,A,cit,O,t,315,1,3180.600000023842,741034.6999999881,7757,WL,B,13.0
5,53.46499991416931,learn,60000.0,Mon Mar 02 2026 11:00:36 GMT-0600 (Central Standard Time),744280.6999999881,A,city,O,y,49,1,3246.0,741034.6999999881,7757,WL,B,13.0
5,53.86500000953674,learn,60000.0,Mon Mar 02 2026 11:00:36 GMT-0600 (Central Standard Time),744680.900000006,A,cityenter,O,enter,394,1,3646.2000000178814,741034.6999999881,7757,WL,B,13.0
5,60.02999997138977,learn,60000.0,Mon Mar 02 2026 11:00:36 GMT-0600 (Central Standard Time),750846.099999994,A,d,O,d,6146,1,6165.0,744681.099999994,7757,WL,B,14.0
6,0.7330000400543213,distr,59266.99995994568,Mon Mar 02 2026 11:00:36 GMT-0600 (Central Standard Time),838351.599999994,B,b,O,b,713,1,733.0,837618.599999994,7757,WL,B,1.0
6,0.7999999523162842,distr,59200.000047683716,Mon Mar 02 2026 11:00:36 GMT-0600 (Central Standard Time),838418.1999999881,B,ba,O,a,48,1,799.5999999940395,837618.599999994,7757,WL,B,1.0
6,1.0989999771118164,distr,58901.00002288818,Mon Mar 02 2026 11:00:36 GMT-0600 (Central Standard Time),838717.5,B,bab,O,b,278,1,1098.9000000059605,837618.599999994,7757,WL,B,1.0
6,1.3659999370574951,distr,58634.000062942505,Mon Mar 02 2026 11:00:36 GMT-0600 (Central Standard Time),838984.3000000119,B,baby,O,y,246,1,1365.7000000178814,837618.599999994,7757,WL,B,1.0
6,2.2679998874664307,distr,57732.00011253357,Mon Mar 02 2026 11:00:36 GMT-0600 (Central Standard Time),839886.099999994,B,babyenter,O,enter,880,1,2267.5,837618.599999994,7757,WL,B,1.0
6,3.13100004196167,distr,56868.99995803833,Mon Mar 02 2026 11:00:36 GMT-0600 (Central Standard Time),840750.0,B,o,O,o,844,1,863.6999999880791,839886.3000000119,7757,WL,B,2.0
6,3.1459999084472656,distr,56854.000091552734,Mon Mar 02 2026 11:00:36 GMT-0600 (Central Standard Time),840765.099999994,B,oi,O,i,1,1,878.7999999821186,839886.3000000119,7757,WL,B,2.0
6,3.3489999771118164,distr,56651.00002288818,Mon Mar 02 2026 11:00:36 GMT-0600 (Central Standard Time),840967.5,B,oic,O,c,184,1,1081.199999988079,839886.3000000119,7757,WL,B,2.0
6,3.7660000324249268,distr,56233.99996757507,Mon Mar 02 2026 11:00:36 GMT-0600 (Central Standard Time),841384.5,B,oice,O,e,402,1,1498.199999988079,839886.3000000119,7757,WL,B,2.0
6,3.931999921798706,distr,56068.000078201294,Mon Mar 02 2026 11:00:36 GMT-0600 (Central Standard Time),841550.3000000119,B,oicea,O,a,155,1,1664.0,839886.3000000119,7757,WL,B,2.0
6,4.013999938964844,distr,55986.000061035156,Mon Mar 02 2026 11:00:36 GMT-0600 (Central Standard Time),841633.1999999881,B,oicean,O,n,66,1,1746.8999999761581,839886.3000000119,7757,WL,B,2.0
6,4.565999984741211,distr,55434.00001525879,Mon Mar 02 2026 11:00:36 GMT-0600 (Central Standard Time),842184.599999994,B,oicea,O,backspace,536,1,2298.2999999821186,839886.3000000119,7757,WL,B,2.0
6,4.697999954223633,distr,55302.00004577637,Mon Mar 02 2026 11:00:36 GMT-0600 (Central Standard Time),842317.0,B,oice,O,backspace,111,1,2430.699999988079,839886.3000000119,7757,WL,B,2.0
6,4.865000009536743,distr,55134.99999046326,Mon Mar 02 2026 11:00:36 GMT-0600 (Central Standard Time),842483.900000006,B,oic,O,backspace,156,1,2597.5999999940395,839886.3000000119,7757,WL,B,2.0
6,5.04800009727478,distr,54951.99990272522,Mon Mar 02 2026 11:00:36 GMT-0600 (Central Standard Time),842667.0,B,oi,O,backspace,164,1,2780.699999988079,839886.3000000119,7757,WL,B,2.0
6,5.197000026702881,distr,54802.99997329712,Mon Mar 02 2026 11:00:36 GMT-0600 (Central Standard Time),842815.3000000119,B,o,O,backspace,143,1,2929.0,839886.3000000119,7757,WL,B,2.0
6,5.38100004196167,distr,54618.99995803833,Mon Mar 02 2026 11:00:36 GMT-0600 (Central Standard Time),843000.099999994,B,,O,backspace,166,1,3113.7999999821186,839886.3000000119,7757,WL,B,2.0
6,5.514999866485596,distr,54485.000133514404,Mon Mar 02 2026 11:00:36 GMT-0600 (Central Standard Time),843134.0,B,c,O,c,111,1,3247.699999988079,839886.3000000119,7757,WL,B,2.0
6,6.2809998989105225,distr,53719.00010108948,Mon Mar 02 2026 11:00:36 GMT-0600 (Central Standard Time),843899.8000000119,B,,O,backspace,747,1,4013.5,839886.3000000119,7757,WL,B,2.0
6,6.996000051498413,distr,53003.99994850159,Mon Mar 02 2026 11:00:36 GMT-0600 (Central Standard Time),844615.099999994,B,o,O,o,710,1,4728.799999982119,839886.3000000119,7757,WL,B,2.0
6,7.21399998664856,distr,52786.00001335144,Mon Mar 02 2026 11:00:36 GMT-0600 (Central Standard Time),844832.900000006,B,oc,O,c,199,1,4946.5999999940395,839886.3000000119,7757,WL,B,2.0
6,7.447000026702881,distr,52552.99997329712,Mon Mar 02 2026 11:00:36 GMT-0600 (Central Standard Time),845065.900000006,B,oce,O,e,216,1,5179.5999999940395,839886.3000000119,7757,WL,B,2.0
6,7.546999931335449,distr,52453.00006866455,Mon Mar 02 2026 11:00:36 GMT-0600 (Central Standard Time),845166.099999994,B,ocea,O,a,79,1,5279.799999982119,839886.3000000119,7757,WL,B,2.0
6,7.648000001907349,distr,52351.99999809265,Mon Mar 02 2026 11:00:36 GMT-0600 (Central Standard Time),845266.3000000119,B,ocean,O,n,90,1,5380.0,839886.3000000119,7757,WL,B,2.0
6,8.079999923706055,distr,51920.000076293945,Mon Mar 02 2026 11:00:36 GMT-0600 (Central Standard Time),845698.6999999881,B,oceanenter,O,enter,414,1,5812.399999976158,839886.3000000119,7757,WL,B,2.0
6,9.197999954223633,distr,50802.00004577637,Mon Mar 02 2026 11:00:36 GMT-0600 (Central Standard Time),846816.400000006,B,s,O,s,1103,1,1117.4000000059605,845699.0,7757,WL,B,3.0
6,9.513000011444092,distr,50486.99998855591,Mon Mar 02 2026 11:00:36 GMT-0600 (Central Standard Time),847131.8000000119,B,st,O,t,307,1,1432.800000011921,845699.0,7757,WL,B,3.0
6,9.63100004196167,distr,50368.99995803833,Mon Mar 02 2026 11:00:36 GMT-0600 (Central Standard Time),847249.3000000119,B,sto,O,o,97,1,1550.300000011921,845699.0,7757,WL,B,3.0
6,9.763000011444092,distr,50236.99998855591,Mon Mar 02 2026 11:00:36 GMT-0600 (Central Standard Time),847382.099999994,B,stor,O,r,120,1,1683.0999999940395,845699.0,7757,WL,B,3.0
6,9.879999876022339,distr,50120.00012397766,Mon Mar 02 2026 11:00:36 GMT-0600 (Central Standard Time),847499.0,B,storm,O,m,99,1,1800.0,845699.0,7757,WL,B,3.0
6,10.629999876022339,distr,49370.00012397766,Mon Mar 02 2026 11:00:36 GMT-0600 (Central Standard Time),848248.900000006,B,stormenter,O,enter,735,1,2549.9000000059605,845699.0,7757,WL,B,3.0
6,11.430999994277954,distr,48569.000005722046,Mon Mar 02 2026 11:00:36 GMT-0600 (Central Standard Time),849049.3000000119,B,b,O,b,779,1,800.1000000238419,848249.1999999881,7757,WL,B,4.0
6,11.477999925613403,distr,48522.0000743866,Mon Mar 02 2026 11:00:36 GMT-0600 (Central Standard Time),849097.1999999881,B,ba,O,a,32,1,848.0,848249.1999999881,7757,WL,B,4.0
6,11.812999963760376,distr,48187.000036239624,Mon Mar 02 2026 11:00:36 GMT-0600 (Central Standard Time),849431.8000000119,B,bar,O,r,316,1,1182.6000000238419,848249.1999999881,7757,WL,B,4.0
6,12.07800006866455,distr,47921.99993133545,Mon Mar 02 2026 11:00:36 GMT-0600 (Central Standard Time),849697.099999994,B,barenter,O,enter,258,1,1447.9000000059605,848249.1999999881,7757,WL,B,4.0
6,28.256999969482422,distr,31743.000030517578,Mon Mar 02 2026 11:00:36 GMT-0600 (Central Standard Time),865875.6999999881,B,s,O,s,16170,1,16178.299999982119,849697.400000006,7757,WL,B,5.0
6,28.60800004005432,distr,31391.99995994568,Mon Mar 02 2026 11:00:36 GMT-0600 (Central Standard Time),866226.3000000119,B,st,O,t,346,1,16528.90000000596,849697.400000006,7757,WL,B,5.0
6,28.991999864578247,distr,31008.000135421753,Mon Mar 02 2026 11:00:36 GMT-0600 (Central Standard Time),866610.5,B,ste,O,e,363,1,16913.09999999404,849697.400000006,7757,WL,B,5.0
6,29.17300009727478,distr,30826.99990272522,Mon Mar 02 2026 11:00:36 GMT-0600 (Central Standard Time),866791.6999999881,B,stea,O,a,165,1,17094.29999998212,849697.400000006,7757,WL,B,5.0
6,29.332000017166138,distr,30667.999982833862,Mon Mar 02 2026 11:00:36 GMT-0600 (Central Standard Time),866950.400000006,B,steam,O,m,139,1,17253.0,849697.400000006,7757,WL,B,5.0
6,29.67199993133545,distr,30328.00006866455,Mon Mar 02 2026 11:00:36 GMT-0600 (Central Standard Time),867291.3000000119,B,steamenter,O,enter,325,1,17593.90000000596,849697.400000006,7757,WL,B,5.0
6,60.013999938964844,distr,-13.99993896484375,Mon Mar 02 2026 11:00:36 GMT-0600 (Central Standard Time),897632.900000006,B,None,O,None,30337,1,30341.40000000596,867291.5,7757,WL,B,6.0
7,20.57800006866455,immed,39421.99993133545,Mon Mar 02 2026 11:00:36 GMT-0600 (Central Standard Time),920460.3000000119,A,s,O,s,20569,1,20578.30000001192,899882.0,7757,WL,B,1.0
7,20.925999879837036,immed,39074.000120162964,Mon Mar 02 2026 11:00:36 GMT-0600 (Central Standard Time),920808.3000000119,A,st,O,t,333,1,20926.30000001192,899882.0,7757,WL,B,1.0
7,21.193000078201294,immed,38806.999921798706,Mon Mar 02 2026 11:00:36 GMT-0600 (Central Standard Time),921075.099999994,A,str,O,r,249,1,21193.09999999404,899882.0,7757,WL,B,1.0
7,21.243000030517578,immed,38756.99996948242,Mon Mar 02 2026 11:00:36 GMT-0600 (Central Standard Time),921125.3000000119,A,stre,O,e,31,1,21243.30000001192,899882.0,7757,WL,B,1.0
7,21.444000005722046,immed,38555.999994277954,Mon Mar 02 2026 11:00:36 GMT-0600 (Central Standard Time),921325.8000000119,A,stree,O,e,180,1,21443.80000001192,899882.0,7757,WL,B,1.0
7,21.774999856948853,immed,38225.00014305115,Mon Mar 02 2026 11:00:36 GMT-0600 (Central Standard Time),921657.400000006,A,street,O,t,314,1,21775.40000000596,899882.0,7757,WL,B,1.0
7,22.042999982833862,immed,37957.00001716614,Mon Mar 02 2026 11:00:36 GMT-0600 (Central Standard Time),921924.6999999881,A,streetenter,O,enter,257,1,22042.69999998808,899882.0,7757,WL,B,1.0
7,22.743000030517578,immed,37256.99996948242,Mon Mar 02 2026 11:00:36 GMT-0600 (Central Standard Time),922625.5,A,g,O,g,695,1,700.5999999940395,921924.900000006,7757,WL,B,2.0
7,23.04200005531311,immed,36957.99994468689,Mon Mar 02 2026 11:00:36 GMT-0600 (Central Standard Time),922924.5,A,gr,O,r,278,1,999.5999999940395,921924.900000006,7757,WL,B,2.0
7,23.092000007629395,immed,36907.999992370605,Mon Mar 02 2026 11:00:36 GMT-0600 (Central Standard Time),922974.400000006,A,gra,O,a,36,1,1049.5,921924.900000006,7757,WL,B,2.0
7,23.41000008583069,immed,36589.99991416931,Mon Mar 02 2026 11:00:36 GMT-0600 (Central Standard Time),923291.900000006,A,gras,O,s,309,1,1367.0,921924.900000006,7757,WL,B,2.0
7,23.54200005531311,immed,36457.99994468689,Mon Mar 02 2026 11:00:36 GMT-0600 (Central Standard Time),923424.099999994,A,grass,O,s,128,1,1499.199999988079,921924.900000006,7757,WL,B,2.0
7,23.841000080108643,immed,36158.99991989136,Mon Mar 02 2026 11:00:36 GMT-0600 (Central Standard Time),923723.3000000119,A,grassenter,O,enter,292,1,1798.4000000059605,921924.900000006,7757,WL,B,2.0
7,24.66000008583069,immed,35339.99991416931,Mon Mar 02 2026 11:00:36 GMT-0600 (Central Standard Time),924541.599999994,A,d,O,d,807,1,818.0999999940395,923723.5,7757,WL,B,3.0
7,24.774999856948853,immed,35225.00014305115,Mon Mar 02 2026 11:00:36 GMT-0600 (Central Standard Time),924656.900000006,A,do,O,o,99,1,933.4000000059605,923723.5,7757,WL,B,3.0
7,24.94099998474121,immed,35059.00001525879,Mon Mar 02 2026 11:00:36 GMT-0600 (Central Standard Time),924823.400000006,A,doo,O,o,146,1,1099.9000000059605,923723.5,7757,WL,B,3.0
7,25.241999864578247,immed,34758.00013542175,Mon Mar 02 2026 11:00:36 GMT-0600 (Central Standard Time),925124.0,A,door,O,r,289,1,1400.5,923723.5,7757,WL,B,3.0
7,25.54099988937378,immed,34459.00011062622,Mon Mar 02 2026 11:00:36 GMT-0600 (Central Standard Time),925423.1999999881,A,doorenter,O,enter,287,1,1699.699999988079,923723.5,7757,WL,B,3.0
7,25.776000022888184,immed,34223.99997711182,Mon Mar 02 2026 11:00:36 GMT-0600 (Central Standard Time),925658.0,A,w,O,w,216,1,234.59999999403954,925423.400000006,7757,WL,B,4.0
7,25.891000032424927,immed,34108.99996757507,Mon Mar 02 2026 11:00:36 GMT-0600 (Central Standard Time),925772.900000006,A,wi,O,i,103,1,349.5,925423.400000006,7757,WL,B,4.0
7,25.990999937057495,immed,34009.000062942505,Mon Mar 02 2026 11:00:36 GMT-0600 (Central Standard Time),925872.8000000119,A,wim,O,m,84,1,449.40000000596046,925423.400000006,7757,WL,B,4.0
7,26.056999921798706,immed,33943.000078201294,Mon Mar 02 2026 11:00:36 GMT-0600 (Central Standard Time),925939.400000006,A,wimd,O,d,49,1,516.0,925423.400000006,7757,WL,B,4.0
7,26.342000007629395,immed,33657.999992370605,Mon Mar 02 2026 11:00:36 GMT-0600 (Central Standard Time),926223.900000006,A,wim,O,backspace,269,1,800.5,925423.400000006,7757,WL,B,4.0
7,26.493000030517578,immed,33506.99996948242,Mon Mar 02 2026 11:00:36 GMT-0600 (Central Standard Time),926374.900000006,A,wi,O,backspace,131,1,951.5,925423.400000006,7757,WL,B,4.0
7,26.924999952316284,immed,33075.000047683716,Mon Mar 02 2026 11:00:36 GMT-0600 (Central Standard Time),926807.5,A,win,O,n,411,1,1384.0999999940395,925423.400000006,7757,WL,B,4.0
7,27.091000080108643,immed,32908.99991989136,Mon Mar 02 2026 11:00:36 GMT-0600 (Central Standard Time),926972.5,A,wind,O,d,144,1,1549.0999999940395,925423.400000006,7757,WL,B,4.0
7,27.30900001525879,immed,32690.99998474121,Mon Mar 02 2026 11:00:36 GMT-0600 (Central Standard Time),927190.5,A,windo,O,o,195,1,1767.0999999940395,925423.400000006,7757,WL,B,4.0
7,27.407999992370605,immed,32592.000007629395,Mon Mar 02 2026 11:00:36 GMT-0600 (Central Standard Time),927289.8000000119,A,window,O,w,83,1,1866.4000000059605,925423.400000006,7757,WL,B,4.0
7,27.85699987411499,immed,32143.00012588501,Mon Mar 02 2026 11:00:36 GMT-0600 (Central Standard Time),927739.3000000119,A,windowenter,O,enter,442,1,2315.9000000059605,925423.400000006,7757,WL,B,4.0
7,28.85800004005432,immed,31141.99995994568,Mon Mar 02 2026 11:00:36 GMT-0600 (Central Standard Time),928739.8000000119,A,s,O,s,986,1,1000.2000000178814,927739.599999994,7757,WL,B,5.0
7,28.94000005722046,immed,31059.99994277954,Mon Mar 02 2026 11:00:36 GMT-0600 (Central Standard Time),928822.0,A,si,O,i,69,1,1082.4000000059605,927739.599999994,7757,WL,B,5.0
7,29.207000017166138,immed,30792.999982833862,Mon Mar 02 2026 11:00:36 GMT-0600 (Central Standard Time),929089.400000006,A,sif,O,f,246,1,1349.800000011921,927739.599999994,7757,WL,B,5.0
7,29.27300000190735,immed,30726.99999809265,Mon Mar 02 2026 11:00:36 GMT-0600 (Central Standard Time),929155.099999994,A,sife,O,e,46,1,1415.5,927739.599999994,7757,WL,B,5.0
7,29.624000072479248,immed,30375.999927520752,Mon Mar 02 2026 11:00:36 GMT-0600 (Central Standard Time),929506.1999999881,A,sifeenter,O,enter,335,1,1766.5999999940395,927739.599999994,7757,WL,B,5.0
7,30.35800004005432,immed,29641.99995994568,Mon Mar 02 2026 11:00:36 GMT-0600 (Central Standard Time),930240.400000006,A,i,O,i,720,1,734.0,929506.400000006,7757,WL,B,6.0
7,30.723999977111816,immed,29276.000022888184,Mon Mar 02 2026 11:00:36 GMT-0600 (Central Standard Time),930606.099999994,A,,O,backspace,343,1,1099.699999988079,929506.400000006,7757,WL,B,6.0
7,32.15599989891052,immed,27844.000101089478,Mon Mar 02 2026 11:00:36 GMT-0600 (Central Standard Time),932038.1999999881,A,o,O,o,1418,1,2531.7999999821186,929506.400000006,7757,WL,B,6.0
7,32.473000049591064,immed,27526.999950408936,Mon Mar 02 2026 11:00:36 GMT-0600 (Central Standard Time),932354.599999994,A,ou,O,u,294,1,2848.199999988079,929506.400000006,7757,WL,B,6.0
7,32.704999923706055,immed,27295.000076293945,Mon Mar 02 2026 11:00:36 GMT-0600 (Central Standard Time),932587.400000006,A,oup,O,p,213,1,3081.0,929506.400000006,7757,WL,B,6.0
7,33.00600004196167,immed,26993.99995803833,Mon Mar 02 2026 11:00:36 GMT-0600 (Central Standard Time),932888.1999999881,A,oupl,O,l,280,1,3381.7999999821186,929506.400000006,7757,WL,B,6.0
7,33.43899989128113,immed,26561.000108718872,Mon Mar 02 2026 11:00:36 GMT-0600 (Central Standard Time),933321.3000000119,A,oup,O,backspace,427,1,3814.9000000059605,929506.400000006,7757,WL,B,6.0
7,33.58899998664856,immed,26411.00001335144,Mon Mar 02 2026 11:00:36 GMT-0600 (Central Standard Time),933471.0,A,ou,O,backspace,138,1,3964.5999999940395,929506.400000006,7757,WL,B,6.0
7,33.73900008201599,immed,26260.99991798401,Mon Mar 02 2026 11:00:36 GMT-0600 (Central Standard Time),933621.1999999881,A,o,O,backspace,130,1,4114.799999982119,929506.400000006,7757,WL,B,6.0
7,33.90499997138977,immed,26095.00002861023,Mon Mar 02 2026 11:00:36 GMT-0600 (Central Standard Time),933787.400000006,A,,O,backspace,153,1,4281.0,929506.400000006,7757,WL,B,6.0
7,34.638999938964844,immed,25361.000061035156,Mon Mar 02 2026 11:00:36 GMT-0600 (Central Standard Time),934521.0,A,p,O,p,714,1,5014.5999999940395,929506.400000006,7757,WL,B,6.0
7,35.039000034332275,immed,24960.999965667725,Mon Mar 02 2026 11:00:36 GMT-0600 (Central Standard Time),934920.5,A,pu,O,u,393,1,5414.0999999940395,929506.400000006,7757,WL,B,6.0
7,35.50499987602234,immed,24495.00012397766,Mon Mar 02 2026 11:00:36 GMT-0600 (Central Standard Time),935387.0,A,pup,O,p,458,1,5880.5999999940395,929506.400000006,7757,WL,B,6.0
7,35.855000019073486,immed,24144.999980926514,Mon Mar 02 2026 11:00:36 GMT-0600 (Central Standard Time),935737.3000000119,A,pupi,O,i,343,1,6230.9000000059605,929506.400000006,7757,WL,B,6.0
7,36.121999979019165,immed,23878.000020980835,Mon Mar 02 2026 11:00:36 GMT-0600 (Central Standard Time),936004.0,A,pupil,O,l,247,1,6497.5999999940395,929506.400000006,7757,WL,B,6.0
7,36.605000019073486,immed,23394.999980926514,Mon Mar 02 2026 11:00:36 GMT-0600 (Central Standard Time),936486.5,A,pupilenter,O,enter,462,1,6980.0999999940395,929506.400000006,7757,WL,B,6.0
7,42.93599987030029,immed,17064.000129699707,Mon Mar 02 2026 11:00:36 GMT-0600 (Central Standard Time),942818.3000000119,A,s,O,s,6316,1,6331.5,936486.8000000119,7757,WL,B,7.0
7,43.11800003051758,immed,16881.999969482422,Mon Mar 02 2026 11:00:36 GMT-0600 (Central Standard Time),943000.400000006,A,sk,O,k,166,1,6513.5999999940395,936486.8000000119,7757,WL,B,7.0
7,43.33699989318848,immed,16663.000106811523,Mon Mar 02 2026 11:00:36 GMT-0600 (Central Standard Time),943218.6999999881,A,ski,O,i,210,1,6731.899999976158,936486.8000000119,7757,WL,B,7.0
7,43.41799998283386,immed,16582.000017166138,Mon Mar 02 2026 11:00:36 GMT-0600 (Central Standard Time),943300.0,A,skin,O,n,69,1,6813.199999988079,936486.8000000119,7757,WL,B,7.0
7,43.80299997329712,immed,16197.00002670288,Mon Mar 02 2026 11:00:36 GMT-0600 (Central Standard Time),943685.3000000119,A,skinenter,O,enter,367,1,7198.5,936486.8000000119,7757,WL,B,7.0
7,46.13700008392334,immed,13862.99991607666,Mon Mar 02 2026 11:00:36 GMT-0600 (Central Standard Time),946018.5,A,c,O,c,2318,1,2332.9000000059605,943685.599999994,7757,WL,B,8.0
7,46.25099992752075,immed,13749.000072479248,Mon Mar 02 2026 11:00:36 GMT-0600 (Central Standard Time),946133.400000006,A,ca,O,a,102,1,2447.800000011921,943685.599999994,7757,WL,B,8.0
7,46.55200004577637,immed,13447.999954223633,Mon Mar 02 2026 11:00:36 GMT-0600 (Central Standard Time),946434.099999994,A,cab,O,b,284,1,2748.5,943685.599999994,7757,WL,B,8.0
7,46.651999950408936,immed,13348.000049591064,Mon Mar 02 2026 11:00:36 GMT-0600 (Central Standard Time),946533.599999994,A,cabi,O,i,77,1,2848.0,943685.599999994,7757,WL,B,8.0
7,46.71799993515015,immed,13282.000064849854,Mon Mar 02 2026 11:00:36 GMT-0600 (Central Standard Time),946600.400000006,A,cabin,O,n,51,1,2914.800000011921,943685.599999994,7757,WL,B,8.0
7,47.03500008583069,immed,12964.999914169312,Mon Mar 02 2026 11:00:36 GMT-0600 (Central Standard Time),946917.099999994,A,cabinenter,O,enter,298,1,3231.5,943685.599999994,7757,WL,B,8.0
7,47.36800003051758,immed,12631.999969482422,Mon Mar 02 2026 11:00:36 GMT-0600 (Central Standard Time),947250.400000006,A,c,O,c,317,1,333.09999999403954,946917.3000000119,7757,WL,B,9.0
7,47.45199990272522,immed,12548.00009727478,Mon Mar 02 2026 11:00:36 GMT-0600 (Central Standard Time),947333.6999999881,A,ci,O,i,60,1,416.39999997615814,946917.3000000119,7757,WL,B,9.0
7,47.80200004577637,immed,12197.999954223633,Mon Mar 02 2026 11:00:36 GMT-0600 (Central Standard Time),947684.099999994,A,cit,O,t,330,1,766.7999999821186,946917.3000000119,7757,WL,B,9.0
7,47.88499999046326,immed,12115.000009536743,Mon Mar 02 2026 11:00:36 GMT-0600 (Central Standard Time),947767.1999999881,A,city,O,y,68,1,849.8999999761581,946917.3000000119,7757,WL,B,9.0
7,48.16799998283386,immed,11832.000017166138,Mon Mar 02 2026 11:00:36 GMT-0600 (Central Standard Time),948050.0,A,cityenter,O,enter,273,1,1132.699999988079,946917.3000000119,7757,WL,B,9.0
7,49.56699991226196,immed,10433.000087738037,Mon Mar 02 2026 11:00:36 GMT-0600 (Central Standard Time),949449.5,A,l,O,l,1380,1,1399.300000011921,948050.1999999881,7757,WL,B,10.0
7,49.66700005531311,immed,10332.99994468689,Mon Mar 02 2026 11:00:36 GMT-0600 (Central Standard Time),949549.3000000119,A,la,O,a,79,1,1499.1000000238419,948050.1999999881,7757,WL,B,10.0
7,49.83500003814697,immed,10164.999961853027,Mon Mar 02 2026 11:00:36 GMT-0600 (Central Standard Time),949717.0,A,lak,O,k,144,1,1666.800000011921,948050.1999999881,7757,WL,B,10.0
7,49.93400001525879,immed,10065.999984741211,Mon Mar 02 2026 11:00:36 GMT-0600 (Central Standard Time),949815.900000006,A,lake,O,e,86,1,1765.7000000178814,948050.1999999881,7757,WL,B,10.0
7,50.16700005531311,immed,9832.99994468689,Mon Mar 02 2026 11:00:36 GMT-0600 (Central Standard Time),950049.0,A,lakeenter,O,enter,217,1,1998.800000011921,948050.1999999881,7757,WL,B,10.0
7,54.049999952316284,immed,5950.000047683716,Mon Mar 02 2026 11:00:36 GMT-0600 (Central Standard Time),953931.599999994,A,s,O,s,3865,1,3882.2999999821186,950049.3000000119,7757,WL,B,11.0
7,54.31599998474121,immed,5684.000015258789,Mon Mar 02 2026 11:00:36 GMT-0600 (Central Standard Time),954197.8000000119,A,st,O,t,245,1,4148.5,950049.3000000119,7757,WL,B,11.0
7,54.348000049591064,immed,5651.999950408936,Mon Mar 02 2026 11:00:36 GMT-0600 (Central Standard Time),954230.5,A,sta,O,a,20,1,4181.199999988079,950049.3000000119,7757,WL,B,11.0
7,54.68300008773804,immed,5316.999912261963,Mon Mar 02 2026 11:00:36 GMT-0600 (Central Standard Time),954564.900000006,A,star,O,r,317,1,4515.5999999940395,950049.3000000119,7757,WL,B,11.0
7,55.21600008010864,immed,4783.999919891357,Mon Mar 02 2026 11:00:36 GMT-0600 (Central Standard Time),955098.1999999881,A,starenter,O,enter,516,1,5048.899999976158,950049.3000000119,7757,WL,B,11.0
7,60.014999866485596,immed,-14.999866485595703,Mon Mar 02 2026 11:00:36 GMT-0600 (Central Standard Time),959896.6999999881,A,None,O,None,4794,1,4798.299999982119,955098.400000006,7757,WL,B,12.0
