acc_sum,block,block_c,change,condition,correct,correct_response,datetime,endtime,face,project,response,response_time,row_sel,session_number,start_end,starttime,subject_id,task,task_vers,trial
0,prac,1,,1-Back,,,Tue May 12 2026 09:53:34 GMT-0500 (Central Daylight Time),,050_m_f_n_a.png,O,space,4566,1,1,,,7806,NNB,A,0
1,prac,1,0.0,1-Back,1.0,m,Tue May 12 2026 09:53:34 GMT-0500 (Central Daylight Time),107913.39999997616,063_y_f_n_a.png,O,m,1119,2,1,1921.3999999761581,105992.0,7806,NNB,A,1
2,prac,1,1.0,1-Back,1.0,z,Tue May 12 2026 09:53:34 GMT-0500 (Central Daylight Time),109712.10000002384,063_y_f_n_a.png,O,z,1013,3,1,1787.2999999523163,107924.80000007153,7806,NNB,A,2
3,prac,1,0.0,1-Back,1.0,m,Tue May 12 2026 09:53:34 GMT-0500 (Central Daylight Time),111411.5,053_o_m_n_a.png,O,m,893,4,1,1690.6000000238419,109720.89999997616,7806,NNB,A,3
4,prac,1,0.0,1-Back,1.0,m,Tue May 12 2026 09:53:34 GMT-0500 (Central Daylight Time),113245.70000004768,058_m_m_n_a.png,O,m,1040,5,1,1823.7000000476837,111422.0,7806,NNB,A,4
5,prac,1,1.0,1-Back,1.0,z,Tue May 12 2026 09:53:34 GMT-0500 (Central Daylight Time),114729.39999997616,058_m_m_n_a.png,O,z,707,6,1,1473.5,113255.89999997616,7806,NNB,A,5
6,prac,1,0.0,1-Back,1.0,m,Tue May 12 2026 09:53:34 GMT-0500 (Central Daylight Time),116377.80000007153,047_o_f_n_a.png,O,m,877,7,1,1638.0,114739.80000007153,7806,NNB,A,6
6,prac,1,0.0,1-Back,0.0,m,Tue May 12 2026 09:53:34 GMT-0500 (Central Daylight Time),117823.70000004768,045_m_m_n_a.png,O,z,663,8,1,1436.0,116387.70000004768,7806,NNB,A,7
6,prac,1,0.0,1-Back,0.0,m,Tue May 12 2026 09:53:34 GMT-0500 (Central Daylight Time),120408.39999997616,050_m_f_n_a.png,O,z,1815,9,1,2573.6999999284744,117834.70000004768,7806,NNB,A,8
6,prac,1,1.0,1-Back,0.0,z,Tue May 12 2026 09:53:34 GMT-0500 (Central Daylight Time),123192.89999997616,050_m_f_n_a.png,O,None,2007,10,1,2774.5999999046326,120418.30000007153,7806,NNB,A,9
7,prac,1,0.0,1-Back,1.0,m,Tue May 12 2026 09:53:34 GMT-0500 (Central Daylight Time),125125.39999997616,053_o_m_n_a.png,O,m,1158,11,1,1921.8999999761581,123203.5,7806,NNB,A,10
8,prac,1,0.0,1-Back,1.0,m,Tue May 12 2026 09:53:34 GMT-0500 (Central Daylight Time),126940.80000007153,010_y_f_n_a.png,O,m,979,12,1,1806.9000000953674,125133.89999997616,7806,NNB,A,11
0,prac,2,0.0,1-Back,,,Tue May 12 2026 09:53:34 GMT-0500 (Central Daylight Time),126940.80000007153,050_m_f_n_a.png,O,a,4064,1,1,1806.9000000953674,125133.89999997616,7806,NNB,A,0
1,prac,2,0.0,1-Back,1.0,m,Tue May 12 2026 09:53:34 GMT-0500 (Central Daylight Time),135837.39999997616,063_y_f_n_a.png,O,m,1003,2,1,1775.0,134062.39999997616,7806,NNB,A,1
2,prac,2,1.0,1-Back,1.0,z,Tue May 12 2026 09:53:34 GMT-0500 (Central Daylight Time),137472.39999997616,063_y_f_n_a.png,O,z,869,3,1,1627.5,135844.89999997616,7806,NNB,A,2
3,prac,2,0.0,1-Back,1.0,m,Tue May 12 2026 09:53:34 GMT-0500 (Central Daylight Time),139087.10000002384,053_o_m_n_a.png,O,m,823,4,1,1605.2000000476837,137481.89999997616,7806,NNB,A,3
4,prac,2,0.0,1-Back,1.0,m,Tue May 12 2026 09:53:34 GMT-0500 (Central Daylight Time),140853.30000007153,058_m_m_n_a.png,O,m,986,5,1,1757.1000000238419,139096.20000004768,7806,NNB,A,4
5,prac,2,1.0,1-Back,1.0,z,Tue May 12 2026 09:53:34 GMT-0500 (Central Daylight Time),142419.0,058_m_m_n_a.png,O,z,775,6,1,1557.1000000238419,140861.89999997616,7806,NNB,A,5
6,prac,2,0.0,1-Back,1.0,m,Tue May 12 2026 09:53:34 GMT-0500 (Central Daylight Time),144285.39999997616,047_o_f_n_a.png,O,m,1099,7,1,1855.8999999761581,142429.5,7806,NNB,A,6
7,prac,2,0.0,1-Back,1.0,m,Tue May 12 2026 09:53:34 GMT-0500 (Central Daylight Time),146133.5,045_m_m_n_a.png,O,m,1061,8,1,1840.3999999761581,144293.10000002384,7806,NNB,A,7
8,prac,2,0.0,1-Back,1.0,m,Tue May 12 2026 09:53:34 GMT-0500 (Central Daylight Time),147817.30000007153,050_m_f_n_a.png,O,m,899,9,1,1675.0,146142.30000007153,7806,NNB,A,8
9,prac,2,1.0,1-Back,1.0,z,Tue May 12 2026 09:53:34 GMT-0500 (Central Daylight Time),149266.89999997616,050_m_f_n_a.png,O,z,666,10,1,1442.5999999046326,147824.30000007153,7806,NNB,A,9
10,prac,2,0.0,1-Back,1.0,m,Tue May 12 2026 09:53:34 GMT-0500 (Central Daylight Time),150865.0,053_o_m_n_a.png,O,m,815,11,1,1589.1999999284744,149275.80000007153,7806,NNB,A,10
10,prac,2,0.0,1-Back,0.0,m,Tue May 12 2026 09:53:34 GMT-0500 (Central Daylight Time),152300.0,010_y_f_n_a.png,O,z,666,12,1,1427.3999999761581,150872.60000002384,7806,NNB,A,11
0,test,1,0.0,1-Back,,,Tue May 12 2026 09:53:34 GMT-0500 (Central Daylight Time),152300.0,063_y_f_n_a.png,O,space,9141,1,1,1427.3999999761581,150872.60000002384,7806,NNB,A,0
1,test,1,0.0,1-Back,1.0,m,Tue May 12 2026 09:53:34 GMT-0500 (Central Daylight Time),181524.39999997616,043_m_f_n_a.png,O,m,834,2,1,1857.5,179666.89999997616,7806,NNB,A,1
2,test,1,0.0,1-Back,1.0,m,Tue May 12 2026 09:53:34 GMT-0500 (Central Daylight Time),183671.70000004768,010_y_f_n_a.png,O,m,1118,3,1,2143.8000000715256,181527.89999997616,7806,NNB,A,2
3,test,1,1.0,1-Back,1.0,z,Tue May 12 2026 09:53:34 GMT-0500 (Central Daylight Time),185504.20000004768,010_y_f_n_a.png,O,z,800,4,1,1828.1000000238419,183676.10000002384,7806,NNB,A,3
4,test,1,0.0,1-Back,1.0,m,Tue May 12 2026 09:53:34 GMT-0500 (Central Daylight Time),187120.60000002384,043_m_f_n_a.png,O,m,590,5,1,1611.5,185509.10000002384,7806,NNB,A,4
5,test,1,0.0,1-Back,1.0,m,Tue May 12 2026 09:53:34 GMT-0500 (Central Daylight Time),188886.39999997616,053_o_m_n_a.png,O,m,746,6,1,1762.1999999284744,187124.20000004768,7806,NNB,A,5
6,test,1,1.0,1-Back,1.0,z,Tue May 12 2026 09:53:34 GMT-0500 (Central Daylight Time),190736.5,053_o_m_n_a.png,O,z,818,7,1,1846.1000000238419,188890.39999997616,7806,NNB,A,6
7,test,1,0.0,1-Back,1.0,m,Tue May 12 2026 09:53:34 GMT-0500 (Central Daylight Time),192619.5,058_m_m_n_a.png,O,m,852,8,1,1878.7999999523163,190740.70000004768,7806,NNB,A,7
8,test,1,0.0,1-Back,1.0,m,Tue May 12 2026 09:53:34 GMT-0500 (Central Daylight Time),194585.10000002384,047_o_f_n_a.png,O,m,942,9,1,1960.7000000476837,192624.39999997616,7806,NNB,A,8
8,test,1,0.0,1-Back,0.0,m,Tue May 12 2026 09:53:34 GMT-0500 (Central Daylight Time),196966.39999997616,058_m_m_n_a.png,O,z,1359,10,1,2377.5,194588.89999997616,7806,NNB,A,9
9,test,1,0.0,1-Back,1.0,m,Tue May 12 2026 09:53:34 GMT-0500 (Central Daylight Time),198800.89999997616,041_y_m_n_a.png,O,m,808,11,1,1832.5999999046326,196968.30000007153,7806,NNB,A,10
10,test,1,1.0,1-Back,1.0,z,Tue May 12 2026 09:53:34 GMT-0500 (Central Daylight Time),200632.39999997616,041_y_m_n_a.png,O,z,809,12,1,1828.0,198804.39999997616,7806,NNB,A,11
11,test,1,0.0,1-Back,1.0,m,Tue May 12 2026 09:53:34 GMT-0500 (Central Daylight Time),202600.70000004768,044_o_f_n_a.png,O,m,936,13,1,1964.3999999761581,200636.30000007153,7806,NNB,A,12
12,test,1,1.0,1-Back,1.0,z,Tue May 12 2026 09:53:34 GMT-0500 (Central Daylight Time),204382.30000007153,044_o_f_n_a.png,O,z,754,14,1,1778.5,202603.80000007153,7806,NNB,A,13
13,test,1,0.0,1-Back,1.0,m,Tue May 12 2026 09:53:34 GMT-0500 (Central Daylight Time),206283.30000007153,008_y_m_n_a.png,O,m,875,15,1,1897.3000000715256,204386.0,7806,NNB,A,14
14,test,1,0.0,1-Back,1.0,m,Tue May 12 2026 09:53:34 GMT-0500 (Central Daylight Time),208414.0,050_m_f_n_a.png,O,m,1104,16,1,2126.899999976158,206287.10000002384,7806,NNB,A,15
15,test,1,0.0,1-Back,1.0,m,Tue May 12 2026 09:53:34 GMT-0500 (Central Daylight Time),210280.70000004768,046_o_m_n_a.png,O,m,844,17,1,1862.8999999761581,208417.80000007153,7806,NNB,A,16
16,test,1,0.0,1-Back,1.0,m,Tue May 12 2026 09:53:34 GMT-0500 (Central Daylight Time),212495.80000007153,050_m_f_n_a.png,O,m,1185,18,1,2211.9000000953674,210283.89999997616,7806,NNB,A,17
0,test,2,0.0,1-Back,,,Tue May 12 2026 09:53:34 GMT-0500 (Central Daylight Time),212495.80000007153,058_m_m_n_a.png,O,space,3938,1,1,2211.9000000953674,210283.89999997616,7806,NNB,A,0
1,test,2,0.0,1-Back,1.0,m,Tue May 12 2026 09:53:34 GMT-0500 (Central Daylight Time),220294.0,043_m_f_n_a.png,O,m,804,2,1,1825.6999999284744,218468.30000007153,7806,NNB,A,1
2,test,2,1.0,1-Back,1.0,z,Tue May 12 2026 09:53:34 GMT-0500 (Central Daylight Time),222143.60000002384,043_m_f_n_a.png,O,z,827,3,1,1846.2999999523163,220297.30000007153,7806,NNB,A,2
3,test,2,0.0,1-Back,1.0,m,Tue May 12 2026 09:53:34 GMT-0500 (Central Daylight Time),223992.5,058_m_m_n_a.png,O,m,828,4,1,1846.0,222146.5,7806,NNB,A,3
4,test,2,0.0,1-Back,1.0,m,Tue May 12 2026 09:53:34 GMT-0500 (Central Daylight Time),225975.89999997616,041_y_m_n_a.png,O,m,951,5,1,1981.3999999761581,223994.5,7806,NNB,A,4
5,test,2,0.0,1-Back,1.0,m,Tue May 12 2026 09:53:34 GMT-0500 (Central Daylight Time),227641.70000004768,063_y_f_n_a.png,O,m,632,6,1,1659.8999999761581,225981.80000007153,7806,NNB,A,5
6,test,2,1.0,1-Back,1.0,z,Tue May 12 2026 09:53:34 GMT-0500 (Central Daylight Time),229374.70000004768,063_y_f_n_a.png,O,z,715,7,1,1729.2000000476837,227645.5,7806,NNB,A,6
7,test,2,0.0,1-Back,1.0,m,Tue May 12 2026 09:53:34 GMT-0500 (Central Daylight Time),230956.70000004768,041_y_m_n_a.png,O,m,551,8,1,1577.6000000238419,229379.10000002384,7806,NNB,A,7
8,test,2,0.0,1-Back,1.0,m,Tue May 12 2026 09:53:34 GMT-0500 (Central Daylight Time),232656.20000004768,044_o_f_n_a.png,O,m,677,9,1,1696.2000000476837,230960.0,7806,NNB,A,8
9,test,2,0.0,1-Back,1.0,m,Tue May 12 2026 09:53:34 GMT-0500 (Central Daylight Time),234440.5,045_m_m_n_a.png,O,m,763,10,1,1781.6999999284744,232658.80000007153,7806,NNB,A,9
10,test,2,1.0,1-Back,1.0,z,Tue May 12 2026 09:53:34 GMT-0500 (Central Daylight Time),236220.5,045_m_m_n_a.png,O,z,763,11,1,1777.5,234443.0,7806,NNB,A,10
11,test,2,0.0,1-Back,1.0,m,Tue May 12 2026 09:53:34 GMT-0500 (Central Daylight Time),238005.20000004768,044_o_f_n_a.png,O,m,765,12,1,1781.8999999761581,236223.30000007153,7806,NNB,A,11
12,test,2,0.0,1-Back,1.0,m,Tue May 12 2026 09:53:34 GMT-0500 (Central Daylight Time),239922.39999997616,047_o_f_n_a.png,O,m,892,13,1,1914.8999999761581,238007.5,7806,NNB,A,12
13,test,2,0.0,1-Back,1.0,m,Tue May 12 2026 09:53:34 GMT-0500 (Central Daylight Time),241736.89999997616,053_o_m_n_a.png,O,m,791,14,1,1811.1999999284744,239925.70000004768,7806,NNB,A,13
14,test,2,0.0,1-Back,1.0,m,Tue May 12 2026 09:53:34 GMT-0500 (Central Daylight Time),243453.5,046_o_m_n_a.png,O,m,684,15,1,1713.6000000238419,241739.89999997616,7806,NNB,A,14
15,test,2,1.0,1-Back,1.0,z,Tue May 12 2026 09:53:34 GMT-0500 (Central Daylight Time),245102.20000004768,046_o_m_n_a.png,O,z,627,16,1,1645.2000000476837,243457.0,7806,NNB,A,15
16,test,2,0.0,1-Back,1.0,m,Tue May 12 2026 09:53:34 GMT-0500 (Central Daylight Time),246936.5,008_y_m_n_a.png,O,m,803,17,1,1832.6999999284744,245103.80000007153,7806,NNB,A,16
17,test,2,1.0,1-Back,1.0,z,Tue May 12 2026 09:53:34 GMT-0500 (Central Daylight Time),248651.5,008_y_m_n_a.png,O,z,683,18,1,1712.0,246939.5,7806,NNB,A,17
0,test,3,1.0,1-Back,,,Tue May 12 2026 09:53:34 GMT-0500 (Central Daylight Time),248651.5,010_y_f_n_a.png,O,space,9047,1,1,1712.0,246939.5,7806,NNB,A,0
1,test,3,0.0,1-Back,1.0,m,Tue May 12 2026 09:53:34 GMT-0500 (Central Daylight Time),261380.30000007153,046_o_m_n_a.png,O,m,590,2,1,1608.7000000476837,259771.60000002384,7806,NNB,A,1
2,test,3,1.0,1-Back,1.0,z,Tue May 12 2026 09:53:34 GMT-0500 (Central Daylight Time),263231.10000002384,046_o_m_n_a.png,O,z,830,3,1,1847.1000000238419,261384.0,7806,NNB,A,2
3,test,3,0.0,1-Back,1.0,m,Tue May 12 2026 09:53:34 GMT-0500 (Central Daylight Time),265012.8000000715,050_m_f_n_a.png,O,m,750,4,1,1778.6000000238419,263234.2000000477,7806,NNB,A,3
4,test,3,1.0,1-Back,1.0,z,Tue May 12 2026 09:53:34 GMT-0500 (Central Daylight Time),266995.8000000715,050_m_f_n_a.png,O,z,957,5,1,1979.9000000953674,265015.89999997616,7806,NNB,A,4
5,test,3,0.0,1-Back,1.0,m,Tue May 12 2026 09:53:34 GMT-0500 (Central Daylight Time),268811.5,044_o_f_n_a.png,O,m,784,6,1,1812.6999999284744,266998.8000000715,7806,NNB,A,5
6,test,3,0.0,1-Back,1.0,m,Tue May 12 2026 09:53:34 GMT-0500 (Central Daylight Time),270745.10000002384,041_y_m_n_a.png,O,m,915,7,1,1930.2999999523163,268814.8000000715,7806,NNB,A,6
7,test,3,0.0,1-Back,1.0,m,Tue May 12 2026 09:53:34 GMT-0500 (Central Daylight Time),273111.60000002384,044_o_f_n_a.png,O,m,1344,8,1,2364.2999999523163,270747.3000000715,7806,NNB,A,7
8,test,3,0.0,1-Back,1.0,m,Tue May 12 2026 09:53:34 GMT-0500 (Central Daylight Time),274893.5,008_y_m_n_a.png,O,m,755,9,1,1778.5,273115.0,7806,NNB,A,8
9,test,3,1.0,1-Back,1.0,z,Tue May 12 2026 09:53:34 GMT-0500 (Central Daylight Time),276628.0,008_y_m_n_a.png,O,z,701,10,1,1731.7999999523163,274896.2000000477,7806,NNB,A,9
10,test,3,0.0,1-Back,1.0,m,Tue May 12 2026 09:53:34 GMT-0500 (Central Daylight Time),278341.0,043_m_f_n_a.png,O,m,685,11,1,1709.8999999761581,276631.10000002384,7806,NNB,A,10
10,test,3,0.0,1-Back,0.0,m,Tue May 12 2026 09:53:34 GMT-0500 (Central Daylight Time),279957.60000002384,063_y_f_n_a.png,O,z,595,12,1,1613.7000000476837,278343.89999997616,7806,NNB,A,11
11,test,3,1.0,1-Back,1.0,z,Tue May 12 2026 09:53:34 GMT-0500 (Central Daylight Time),282024.7000000477,063_y_f_n_a.png,O,z,1034,13,1,2064.8000000715256,279959.89999997616,7806,NNB,A,12
12,test,3,0.0,1-Back,1.0,m,Tue May 12 2026 09:53:34 GMT-0500 (Central Daylight Time),283875.2000000477,043_m_f_n_a.png,O,m,833,14,1,1847.8000000715256,282027.39999997616,7806,NNB,A,13
13,test,3,0.0,1-Back,1.0,m,Tue May 12 2026 09:53:34 GMT-0500 (Central Daylight Time),285775.0,058_m_m_n_a.png,O,m,869,15,1,1897.7999999523163,283877.2000000477,7806,NNB,A,14
14,test,3,1.0,1-Back,1.0,z,Tue May 12 2026 09:53:34 GMT-0500 (Central Daylight Time),287420.60000002384,058_m_m_n_a.png,O,z,621,16,1,1642.1000000238419,285778.5,7806,NNB,A,15
15,test,3,0.0,1-Back,1.0,m,Tue May 12 2026 09:53:34 GMT-0500 (Central Daylight Time),289139.2000000477,047_o_f_n_a.png,O,m,697,17,1,1716.7000000476837,287422.5,7806,NNB,A,16
16,test,3,1.0,1-Back,1.0,z,Tue May 12 2026 09:53:34 GMT-0500 (Central Daylight Time),291121.60000002384,047_o_f_n_a.png,O,z,958,18,1,1979.5,289142.10000002384,7806,NNB,A,17
0,test,4,1.0,1-Back,,,Tue May 12 2026 09:53:34 GMT-0500 (Central Daylight Time),291121.60000002384,050_m_f_n_a.png,O,space,2751,1,1,1979.5,289142.10000002384,7806,NNB,A,0
1,test,4,0.0,1-Back,1.0,m,Tue May 12 2026 09:53:34 GMT-0500 (Central Daylight Time),297585.2000000477,046_o_m_n_a.png,O,m,656,2,1,1677.2000000476837,295908.0,7806,NNB,A,1
2,test,4,0.0,1-Back,1.0,m,Tue May 12 2026 09:53:34 GMT-0500 (Central Daylight Time),299452.3000000715,050_m_f_n_a.png,O,m,847,3,1,1865.2000000476837,297587.10000002384,7806,NNB,A,2
3,test,4,0.0,1-Back,1.0,m,Tue May 12 2026 09:53:34 GMT-0500 (Central Daylight Time),301367.3000000715,044_o_f_n_a.png,O,m,886,4,1,1910.1000000238419,299457.2000000477,7806,NNB,A,3
4,test,4,1.0,1-Back,1.0,z,Tue May 12 2026 09:53:34 GMT-0500 (Central Daylight Time),303000.2000000477,044_o_f_n_a.png,O,z,608,5,1,1627.5,301372.7000000477,7806,NNB,A,4
5,test,4,0.0,1-Back,1.0,m,Tue May 12 2026 09:53:34 GMT-0500 (Central Daylight Time),304566.2000000477,063_y_f_n_a.png,O,m,545,6,1,1561.1000000238419,303005.10000002384,7806,NNB,A,5
6,test,4,0.0,1-Back,1.0,m,Tue May 12 2026 09:53:34 GMT-0500 (Central Daylight Time),306465.8000000715,041_y_m_n_a.png,O,m,875,7,1,1894.2000000476837,304571.60000002384,7806,NNB,A,6
7,test,4,1.0,1-Back,1.0,z,Tue May 12 2026 09:53:34 GMT-0500 (Central Daylight Time),308198.60000002384,041_y_m_n_a.png,O,z,711,8,1,1727.3999999761581,306471.2000000477,7806,NNB,A,7
8,test,4,0.0,1-Back,1.0,m,Tue May 12 2026 09:53:34 GMT-0500 (Central Daylight Time),310148.5,063_y_f_n_a.png,O,m,921,9,1,1948.0,308200.5,7806,NNB,A,8
9,test,4,0.0,1-Back,1.0,m,Tue May 12 2026 09:53:34 GMT-0500 (Central Daylight Time),311830.10000002384,045_m_m_n_a.png,O,m,652,10,1,1675.3999999761581,310154.7000000477,7806,NNB,A,9
10,test,4,1.0,1-Back,1.0,z,Tue May 12 2026 09:53:34 GMT-0500 (Central Daylight Time),313513.60000002384,045_m_m_n_a.png,O,z,660,11,1,1680.3999999761581,311833.2000000477,7806,NNB,A,10
11,test,4,0.0,1-Back,1.0,m,Tue May 12 2026 09:53:34 GMT-0500 (Central Daylight Time),315213.89999997616,047_o_f_n_a.png,O,m,678,12,1,1694.5,313519.39999997616,7806,NNB,A,11
11,test,4,0.0,1-Back,0.0,m,Tue May 12 2026 09:53:34 GMT-0500 (Central Daylight Time),316911.39999997616,053_o_m_n_a.png,O,z,675,13,1,1693.7999999523163,315217.60000002384,7806,NNB,A,12
12,test,4,0.0,1-Back,1.0,m,Tue May 12 2026 09:53:34 GMT-0500 (Central Daylight Time),319161.8000000715,047_o_f_n_a.png,O,m,1226,14,1,2247.3000000715256,316914.5,7806,NNB,A,13
13,test,4,0.0,1-Back,1.0,m,Tue May 12 2026 09:53:34 GMT-0500 (Central Daylight Time),320812.39999997616,010_y_f_n_a.png,O,m,623,15,1,1644.3999999761581,319168.0,7806,NNB,A,14
14,test,4,1.0,1-Back,1.0,z,Tue May 12 2026 09:53:34 GMT-0500 (Central Daylight Time),322512.3000000715,010_y_f_n_a.png,O,z,678,16,1,1694.7000000476837,320817.60000002384,7806,NNB,A,15
15,test,4,0.0,1-Back,1.0,m,Tue May 12 2026 09:53:34 GMT-0500 (Central Daylight Time),324693.3000000715,043_m_f_n_a.png,O,m,1162,17,1,2177.4000000953674,322515.89999997616,7806,NNB,A,16
16,test,4,1.0,1-Back,1.0,z,Tue May 12 2026 09:53:34 GMT-0500 (Central Daylight Time),326509.7000000477,043_m_f_n_a.png,O,z,796,18,1,1810.7000000476837,324699.0,7806,NNB,A,17
0,test,5,1.0,1-Back,,,Tue May 12 2026 09:53:34 GMT-0500 (Central Daylight Time),326509.7000000477,053_o_m_n_a.png,O,space,4091,1,1,1810.7000000476837,324699.0,7806,NNB,A,0
1,test,5,1.0,1-Back,1.0,z,Tue May 12 2026 09:53:34 GMT-0500 (Central Daylight Time),334422.2000000477,053_o_m_n_a.png,O,z,775,2,1,1792.3000000715256,332629.89999997616,7806,NNB,A,1
2,test,5,0.0,1-Back,1.0,m,Tue May 12 2026 09:53:34 GMT-0500 (Central Daylight Time),335939.60000002384,063_y_f_n_a.png,O,m,490,3,1,1515.5,334424.10000002384,7806,NNB,A,2
3,test,5,0.0,1-Back,1.0,m,Tue May 12 2026 09:53:34 GMT-0500 (Central Daylight Time),337756.5,041_y_m_n_a.png,O,m,790,4,1,1815.1000000238419,335941.39999997616,7806,NNB,A,3
4,test,5,0.0,1-Back,1.0,m,Tue May 12 2026 09:53:34 GMT-0500 (Central Daylight Time),339622.39999997616,063_y_f_n_a.png,O,m,845,5,1,1861.6999999284744,337760.7000000477,7806,NNB,A,4
5,test,5,0.0,1-Back,1.0,m,Tue May 12 2026 09:53:34 GMT-0500 (Central Daylight Time),341337.39999997616,058_m_m_n_a.png,O,m,682,6,1,1712.2999999523163,339625.10000002384,7806,NNB,A,5
6,test,5,1.0,1-Back,1.0,z,Tue May 12 2026 09:53:34 GMT-0500 (Central Daylight Time),343020.7000000477,058_m_m_n_a.png,O,z,656,7,1,1680.0,341340.7000000477,7806,NNB,A,6
7,test,5,0.0,1-Back,1.0,m,Tue May 12 2026 09:53:34 GMT-0500 (Central Daylight Time),344804.3000000715,010_y_f_n_a.png,O,m,752,8,1,1779.6000000238419,343024.7000000477,7806,NNB,A,7
8,test,5,0.0,1-Back,1.0,m,Tue May 12 2026 09:53:34 GMT-0500 (Central Daylight Time),346753.60000002384,008_y_m_n_a.png,O,m,925,9,1,1944.3999999761581,344809.2000000477,7806,NNB,A,8
9,test,5,0.0,1-Back,1.0,m,Tue May 12 2026 09:53:34 GMT-0500 (Central Daylight Time),348637.10000002384,010_y_f_n_a.png,O,m,856,10,1,1880.7999999523163,346756.3000000715,7806,NNB,A,9
10,test,5,0.0,1-Back,1.0,m,Tue May 12 2026 09:53:34 GMT-0500 (Central Daylight Time),350219.0,047_o_f_n_a.png,O,m,558,11,1,1579.6999999284744,348639.3000000715,7806,NNB,A,10
11,test,5,1.0,1-Back,1.0,z,Tue May 12 2026 09:53:34 GMT-0500 (Central Daylight Time),351919.2000000477,047_o_f_n_a.png,O,z,679,12,1,1697.3000000715256,350221.89999997616,7806,NNB,A,11
12,test,5,0.0,1-Back,1.0,m,Tue May 12 2026 09:53:34 GMT-0500 (Central Daylight Time),353550.8000000715,046_o_m_n_a.png,O,m,611,13,1,1627.4000000953674,351923.39999997616,7806,NNB,A,12
13,test,5,0.0,1-Back,1.0,m,Tue May 12 2026 09:53:34 GMT-0500 (Central Daylight Time),355319.2000000477,050_m_f_n_a.png,O,m,733,14,1,1764.5,353554.7000000477,7806,NNB,A,13
14,test,5,1.0,1-Back,1.0,z,Tue May 12 2026 09:53:34 GMT-0500 (Central Daylight Time),356783.3000000715,050_m_f_n_a.png,O,z,434,15,1,1461.2000000476837,355322.10000002384,7806,NNB,A,14
15,test,5,0.0,1-Back,1.0,m,Tue May 12 2026 09:53:34 GMT-0500 (Central Daylight Time),358483.3000000715,046_o_m_n_a.png,O,m,672,16,1,1696.3000000715256,356787.0,7806,NNB,A,15
16,test,5,0.0,1-Back,1.0,m,Tue May 12 2026 09:53:34 GMT-0500 (Central Daylight Time),360249.39999997616,043_m_f_n_a.png,O,m,743,17,1,1762.1999999284744,358487.2000000477,7806,NNB,A,16
17,test,5,0.0,1-Back,1.0,m,Tue May 12 2026 09:53:34 GMT-0500 (Central Daylight Time),362031.2000000477,045_m_m_n_a.png,O,m,760,18,1,1778.8000000715256,360252.39999997616,7806,NNB,A,17
0,prac,1,0.0,2-Back,,,Tue May 12 2026 09:53:34 GMT-0500 (Central Daylight Time),362031.2000000477,008_y_m_n_a.png,O,space,8170,1,1,1778.8000000715256,360252.39999997616,7806,NNB,A,0
0,prac,1,0.0,2-Back,,,Tue May 12 2026 09:53:34 GMT-0500 (Central Daylight Time),362031.2000000477,043_m_f_n_a.png,O,space,8170,2,1,1778.8000000715256,360252.39999997616,7806,NNB,A,0
1,prac,1,1.0,2-Back,1.0,m,Tue May 12 2026 09:53:34 GMT-0500 (Central Daylight Time),524997.1000000238,046_o_m_n_a.png,O,m,1594,3,1,2392.5,522604.60000002384,7806,NNB,A,1
2,prac,1,0.0,2-Back,1.0,m,Tue May 12 2026 09:53:34 GMT-0500 (Central Daylight Time),527412.8999999762,047_o_f_n_a.png,O,m,1603,4,1,2406.5,525006.3999999762,7806,NNB,A,2
3,prac,1,0.0,2-Back,1.0,z,Tue May 12 2026 09:53:34 GMT-0500 (Central Daylight Time),529946.3000000715,046_o_m_n_a.png,O,z,1756,5,1,2524.9000000953674,527421.3999999762,7806,NNB,A,3
3,prac,1,1.0,2-Back,0.0,z,Tue May 12 2026 09:53:34 GMT-0500 (Central Daylight Time),532728.2000000477,047_o_f_n_a.png,O,None,2006,6,1,2773.8000000715256,529954.3999999762,7806,NNB,A,4
4,prac,1,0.0,2-Back,1.0,m,Tue May 12 2026 09:53:34 GMT-0500 (Central Daylight Time),534559.2000000477,045_m_m_n_a.png,O,m,1028,7,1,1821.3999999761581,532737.8000000715,7806,NNB,A,5
5,prac,1,0.0,2-Back,1.0,m,Tue May 12 2026 09:53:34 GMT-0500 (Central Daylight Time),536426.3999999762,053_o_m_n_a.png,O,m,1062,8,1,1863.2999999523163,534563.1000000238,7806,NNB,A,6
6,prac,1,0.0,2-Back,1.0,m,Tue May 12 2026 09:53:34 GMT-0500 (Central Daylight Time),538275.6000000238,010_y_f_n_a.png,O,m,1031,9,1,1841.2999999523163,536434.3000000715,7806,NNB,A,7
7,prac,1,1.0,2-Back,1.0,z,Tue May 12 2026 09:53:34 GMT-0500 (Central Daylight Time),540008.2000000477,053_o_m_n_a.png,O,z,942,10,1,1723.7000000476837,538284.5,7806,NNB,A,8
8,prac,1,0.0,2-Back,1.0,m,Tue May 12 2026 09:53:34 GMT-0500 (Central Daylight Time),541992.2000000477,063_y_f_n_a.png,O,m,1175,11,1,1975.6000000238419,540016.6000000238,7806,NNB,A,9
9,prac,1,0.0,2-Back,1.0,m,Tue May 12 2026 09:53:34 GMT-0500 (Central Daylight Time),543941.6000000238,045_m_m_n_a.png,O,m,1169,12,1,1941.0,542000.6000000238,7806,NNB,A,10
0,prac,2,0.0,2-Back,,,Tue May 12 2026 09:53:34 GMT-0500 (Central Daylight Time),543941.6000000238,008_y_m_n_a.png,O,a,6381,1,1,1941.0,542000.6000000238,7806,NNB,A,0
0,prac,2,0.0,2-Back,,,Tue May 12 2026 09:53:34 GMT-0500 (Central Daylight Time),543941.6000000238,043_m_f_n_a.png,O,a,6381,2,1,1941.0,542000.6000000238,7806,NNB,A,0
1,prac,2,1.0,2-Back,1.0,m,Tue May 12 2026 09:53:34 GMT-0500 (Central Daylight Time),557220.1000000238,046_o_m_n_a.png,O,m,1012,3,1,1791.3999999761581,555428.7000000477,7806,NNB,A,1
2,prac,2,0.0,2-Back,1.0,m,Tue May 12 2026 09:53:34 GMT-0500 (Central Daylight Time),559586.0,047_o_f_n_a.png,O,m,1603,4,1,2355.1999999284744,557230.8000000715,7806,NNB,A,2
2,prac,2,0.0,2-Back,0.0,z,Tue May 12 2026 09:53:34 GMT-0500 (Central Daylight Time),562367.6000000238,046_o_m_n_a.png,O,None,2006,5,1,2771.100000023842,559596.5,7806,NNB,A,3
3,prac,2,1.0,2-Back,1.0,z,Tue May 12 2026 09:53:34 GMT-0500 (Central Daylight Time),564453.1000000238,047_o_f_n_a.png,O,z,1310,6,1,2076.7000000476837,562376.3999999762,7806,NNB,A,4
4,prac,2,0.0,2-Back,1.0,m,Tue May 12 2026 09:53:34 GMT-0500 (Central Daylight Time),566484.1000000238,045_m_m_n_a.png,O,m,1255,7,1,2023.2000000476837,564460.8999999762,7806,NNB,A,5
5,prac,2,0.0,2-Back,1.0,m,Tue May 12 2026 09:53:34 GMT-0500 (Central Daylight Time),568716.2000000477,053_o_m_n_a.png,O,m,1446,8,1,2224.2000000476837,566492.0,7806,NNB,A,6
6,prac,2,0.0,2-Back,1.0,m,Tue May 12 2026 09:53:34 GMT-0500 (Central Daylight Time),570467.1000000238,010_y_f_n_a.png,O,m,975,9,1,1742.5,568724.6000000238,7806,NNB,A,7
7,prac,2,1.0,2-Back,1.0,z,Tue May 12 2026 09:53:34 GMT-0500 (Central Daylight Time),572132.8000000715,053_o_m_n_a.png,O,z,901,10,1,1655.6000000238419,570477.2000000477,7806,NNB,A,8
7,prac,2,0.0,2-Back,0.0,m,Tue May 12 2026 09:53:34 GMT-0500 (Central Daylight Time),574797.8000000715,063_y_f_n_a.png,O,z,1890,11,1,2660.3000000715256,572137.5,7806,NNB,A,9
8,prac,2,0.0,2-Back,1.0,m,Tue May 12 2026 09:53:34 GMT-0500 (Central Daylight Time),576947.1000000238,045_m_m_n_a.png,O,m,1365,12,1,2143.100000023842,574804.0,7806,NNB,A,10
0,test,1,0.0,2-Back,,,Tue May 12 2026 09:53:34 GMT-0500 (Central Daylight Time),576947.1000000238,041_y_m_n_a.png,O,space,2285,1,1,2143.100000023842,574804.0,7806,NNB,A,0
0,test,1,0.0,2-Back,,,Tue May 12 2026 09:53:34 GMT-0500 (Central Daylight Time),576947.1000000238,041_y_m_n_a.png,O,space,2285,2,1,2143.100000023842,574804.0,7806,NNB,A,0
1,test,1,0.0,2-Back,1.0,m,Tue May 12 2026 09:53:34 GMT-0500 (Central Daylight Time),597438.7000000477,047_o_f_n_a.png,O,m,1190,3,1,2207.2000000476837,595231.5,7806,NNB,A,1
2,test,1,0.0,2-Back,1.0,m,Tue May 12 2026 09:53:34 GMT-0500 (Central Daylight Time),599823.3000000715,058_m_m_n_a.png,O,m,1355,4,1,2383.100000023842,597440.2000000477,7806,NNB,A,2
3,test,1,1.0,2-Back,1.0,z,Tue May 12 2026 09:53:34 GMT-0500 (Central Daylight Time),602271.2000000477,047_o_f_n_a.png,O,z,1426,5,1,2445.100000023842,599826.1000000238,7806,NNB,A,3
4,test,1,0.0,2-Back,1.0,m,Tue May 12 2026 09:53:34 GMT-0500 (Central Daylight Time),604804.8999999762,063_y_f_n_a.png,O,m,1506,6,1,2531.2999999523163,602273.6000000238,7806,NNB,A,4
4,test,1,0.0,2-Back,0.0,m,Tue May 12 2026 09:53:34 GMT-0500 (Central Daylight Time),606987.8999999762,058_m_m_n_a.png,O,z,1157,7,1,2179.7999999523163,604808.1000000238,7806,NNB,A,5
5,test,1,1.0,2-Back,1.0,z,Tue May 12 2026 09:53:34 GMT-0500 (Central Daylight Time),609537.3000000715,063_y_f_n_a.png,O,z,1526,8,1,2546.4000000953674,606990.8999999762,7806,NNB,A,6
6,test,1,0.0,2-Back,1.0,m,Tue May 12 2026 09:53:34 GMT-0500 (Central Daylight Time),611768.8000000715,008_y_m_n_a.png,O,m,1208,9,1,2228.9000000953674,609539.8999999762,7806,NNB,A,7
7,test,1,0.0,2-Back,1.0,m,Tue May 12 2026 09:53:34 GMT-0500 (Central Daylight Time),614318.3999999762,044_o_f_n_a.png,O,m,1525,10,1,2546.2999999523163,611772.1000000238,7806,NNB,A,8
7,test,1,1.0,2-Back,0.0,z,Tue May 12 2026 09:53:34 GMT-0500 (Central Daylight Time),616500.6000000238,008_y_m_n_a.png,O,m,1149,11,1,2179.399999976158,614321.2000000477,7806,NNB,A,9
8,test,1,0.0,2-Back,1.0,m,Tue May 12 2026 09:53:34 GMT-0500 (Central Daylight Time),618700.1000000238,043_m_f_n_a.png,O,m,1169,12,1,2196.5,616503.6000000238,7806,NNB,A,10
9,test,1,0.0,2-Back,1.0,m,Tue May 12 2026 09:53:34 GMT-0500 (Central Daylight Time),621416.5,043_m_f_n_a.png,O,m,1683,13,1,2712.7999999523163,618703.7000000477,7806,NNB,A,11
10,test,1,0.0,2-Back,1.0,m,Tue May 12 2026 09:53:34 GMT-0500 (Central Daylight Time),623781.1000000238,046_o_m_n_a.png,O,m,1337,14,1,2361.7000000476837,621419.3999999762,7806,NNB,A,12
11,test,1,0.0,2-Back,1.0,m,Tue May 12 2026 09:53:34 GMT-0500 (Central Daylight Time),626680.8000000715,044_o_f_n_a.png,O,m,1866,15,1,2895.7000000476837,623785.1000000238,7806,NNB,A,13
12,test,1,1.0,2-Back,1.0,z,Tue May 12 2026 09:53:34 GMT-0500 (Central Daylight Time),628897.6000000238,046_o_m_n_a.png,O,z,1183,16,1,2214.2999999523163,626683.3000000715,7806,NNB,A,14
13,test,1,0.0,2-Back,1.0,m,Tue May 12 2026 09:53:34 GMT-0500 (Central Daylight Time),631212.6000000238,050_m_f_n_a.png,O,m,1288,17,1,2312.7000000476837,628899.8999999762,7806,NNB,A,15
14,test,1,0.0,2-Back,1.0,m,Tue May 12 2026 09:53:34 GMT-0500 (Central Daylight Time),633145.8000000715,045_m_m_n_a.png,O,m,911,18,1,1928.9000000953674,631216.8999999762,7806,NNB,A,16
0,test,2,0.0,2-Back,,,Tue May 12 2026 09:53:34 GMT-0500 (Central Daylight Time),633145.8000000715,045_m_m_n_a.png,O,space,24560,1,1,1928.9000000953674,631216.8999999762,7806,NNB,A,0
0,test,2,0.0,2-Back,,,Tue May 12 2026 09:53:34 GMT-0500 (Central Daylight Time),633145.8000000715,010_y_f_n_a.png,O,space,24560,2,1,1928.9000000953674,631216.8999999762,7806,NNB,A,0
1,test,2,1.0,2-Back,1.0,z,Tue May 12 2026 09:53:34 GMT-0500 (Central Daylight Time),664885.0,045_m_m_n_a.png,O,z,1054,3,1,2078.0,662807.0,7806,NNB,A,1
2,test,2,0.0,2-Back,1.0,m,Tue May 12 2026 09:53:34 GMT-0500 (Central Daylight Time),666900.8000000715,050_m_f_n_a.png,O,m,995,4,1,2009.5,664891.3000000715,7806,NNB,A,2
2,test,2,0.0,2-Back,0.0,m,Tue May 12 2026 09:53:34 GMT-0500 (Central Daylight Time),669083.3000000715,010_y_f_n_a.png,O,z,1156,5,1,2180.9000000953674,666902.3999999762,7806,NNB,A,3
3,test,2,0.0,2-Back,1.0,m,Tue May 12 2026 09:53:34 GMT-0500 (Central Daylight Time),671100.3000000715,046_o_m_n_a.png,O,m,989,6,1,2012.4000000953674,669087.8999999762,7806,NNB,A,4
4,test,2,0.0,2-Back,1.0,m,Tue May 12 2026 09:53:34 GMT-0500 (Central Daylight Time),673831.8999999762,063_y_f_n_a.png,O,m,1702,7,1,2726.5,671105.3999999762,7806,NNB,A,5
5,test,2,1.0,2-Back,1.0,z,Tue May 12 2026 09:53:34 GMT-0500 (Central Daylight Time),675798.3999999762,046_o_m_n_a.png,O,z,944,8,1,1962.5,673835.8999999762,7806,NNB,A,6
6,test,2,0.0,2-Back,1.0,m,Tue May 12 2026 09:53:34 GMT-0500 (Central Daylight Time),678430.5,008_y_m_n_a.png,O,m,1611,9,1,2628.600000023842,675801.8999999762,7806,NNB,A,7
6,test,2,0.0,2-Back,0.0,m,Tue May 12 2026 09:53:34 GMT-0500 (Central Daylight Time),680896.5,008_y_m_n_a.png,O,z,1442,10,1,2460.600000023842,678435.8999999762,7806,NNB,A,8
7,test,2,0.0,2-Back,1.0,m,Tue May 12 2026 09:53:34 GMT-0500 (Central Daylight Time),682845.8000000715,043_m_f_n_a.png,O,m,922,11,1,1945.5,680900.3000000715,7806,NNB,A,9
8,test,2,0.0,2-Back,1.0,m,Tue May 12 2026 09:53:34 GMT-0500 (Central Daylight Time),685012.1000000238,010_y_f_n_a.png,O,m,1135,12,1,2160.600000023842,682851.5,7806,NNB,A,10
9,test,2,1.0,2-Back,1.0,z,Tue May 12 2026 09:53:34 GMT-0500 (Central Daylight Time),686611.8999999762,043_m_f_n_a.png,O,z,573,13,1,1595.1999999284744,685016.7000000477,7806,NNB,A,11
10,test,2,0.0,2-Back,1.0,m,Tue May 12 2026 09:53:34 GMT-0500 (Central Daylight Time),688944.7000000477,053_o_m_n_a.png,O,m,1311,14,1,2327.2000000476837,686617.5,7806,NNB,A,12
10,test,2,0.0,2-Back,0.0,m,Tue May 12 2026 09:53:34 GMT-0500 (Central Daylight Time),691876.8000000715,053_o_m_n_a.png,O,z,1901,15,1,2929.4000000953674,688947.3999999762,7806,NNB,A,13
11,test,2,0.0,2-Back,1.0,m,Tue May 12 2026 09:53:34 GMT-0500 (Central Daylight Time),693693.3000000715,044_o_f_n_a.png,O,m,799,16,1,1812.0,691881.3000000715,7806,NNB,A,14
12,test,2,0.0,2-Back,1.0,m,Tue May 12 2026 09:53:34 GMT-0500 (Central Daylight Time),696091.8999999762,058_m_m_n_a.png,O,m,1371,17,1,2396.0,693695.8999999762,7806,NNB,A,15
13,test,2,1.0,2-Back,1.0,z,Tue May 12 2026 09:53:34 GMT-0500 (Central Daylight Time),697674.5,044_o_f_n_a.png,O,z,550,18,1,1580.7999999523163,696093.7000000477,7806,NNB,A,16
0,test,3,1.0,2-Back,,,Tue May 12 2026 09:53:34 GMT-0500 (Central Daylight Time),697674.5,041_y_m_n_a.png,O,space,9031,1,1,1580.7999999523163,696093.7000000477,7806,NNB,A,0
0,test,3,1.0,2-Back,,,Tue May 12 2026 09:53:34 GMT-0500 (Central Daylight Time),697674.5,041_y_m_n_a.png,O,space,9031,2,1,1580.7999999523163,696093.7000000477,7806,NNB,A,0
1,test,3,0.0,2-Back,1.0,m,Tue May 12 2026 09:53:34 GMT-0500 (Central Daylight Time),713719.0,044_o_f_n_a.png,O,m,900,3,1,1922.1000000238419,711796.8999999762,7806,NNB,A,1
2,test,3,0.0,2-Back,1.0,m,Tue May 12 2026 09:53:34 GMT-0500 (Central Daylight Time),716068.8000000715,045_m_m_n_a.png,O,m,1330,4,1,2346.9000000953674,713721.8999999762,7806,NNB,A,2
3,test,3,1.0,2-Back,1.0,z,Tue May 12 2026 09:53:34 GMT-0500 (Central Daylight Time),718384.2000000477,044_o_f_n_a.png,O,z,1283,5,1,2311.8000000715256,716072.3999999762,7806,NNB,A,3
4,test,3,0.0,2-Back,1.0,m,Tue May 12 2026 09:53:34 GMT-0500 (Central Daylight Time),720835.3999999762,008_y_m_n_a.png,O,m,1434,6,1,2448.6999999284744,718386.7000000477,7806,NNB,A,4
5,test,3,0.0,2-Back,1.0,m,Tue May 12 2026 09:53:34 GMT-0500 (Central Daylight Time),723718.2000000477,045_m_m_n_a.png,O,m,1866,7,1,2880.5,720837.7000000477,7806,NNB,A,5
5,test,3,1.0,2-Back,0.0,z,Tue May 12 2026 09:53:34 GMT-0500 (Central Daylight Time),725816.0,008_y_m_n_a.png,O,m,1078,8,1,2094.2999999523163,723721.7000000477,7806,NNB,A,6
6,test,3,0.0,2-Back,1.0,m,Tue May 12 2026 09:53:34 GMT-0500 (Central Daylight Time),727781.7000000477,010_y_f_n_a.png,O,m,947,9,1,1961.8999999761581,725819.8000000715,7806,NNB,A,7
7,test,3,0.0,2-Back,1.0,m,Tue May 12 2026 09:53:34 GMT-0500 (Central Daylight Time),729781.3000000715,058_m_m_n_a.png,O,m,970,10,1,1997.5,727783.8000000715,7806,NNB,A,8
7,test,3,1.0,2-Back,0.0,z,Tue May 12 2026 09:53:34 GMT-0500 (Central Daylight Time),732814.3999999762,010_y_f_n_a.png,O,None,2017,11,1,3029.399999976158,729785.0,7806,NNB,A,9
8,test,3,1.0,2-Back,1.0,z,Tue May 12 2026 09:53:34 GMT-0500 (Central Daylight Time),734313.3999999762,058_m_m_n_a.png,O,z,467,12,1,1492.2999999523163,732821.1000000238,7806,NNB,A,10
9,test,3,0.0,2-Back,1.0,m,Tue May 12 2026 09:53:34 GMT-0500 (Central Daylight Time),736663.7000000477,044_o_f_n_a.png,O,m,1328,13,1,2347.5,734316.2000000477,7806,NNB,A,11
10,test,3,0.0,2-Back,1.0,m,Tue May 12 2026 09:53:34 GMT-0500 (Central Daylight Time),739128.7000000477,050_m_f_n_a.png,O,m,1435,14,1,2462.600000023842,736666.1000000238,7806,NNB,A,12
11,test,3,0.0,2-Back,1.0,m,Tue May 12 2026 09:53:34 GMT-0500 (Central Daylight Time),741027.1000000238,046_o_m_n_a.png,O,m,874,15,1,1894.8999999761581,739132.2000000477,7806,NNB,A,13
11,test,3,1.0,2-Back,0.0,z,Tue May 12 2026 09:53:34 GMT-0500 (Central Daylight Time),744059.1000000238,050_m_f_n_a.png,O,None,2014,16,1,3029.899999976158,741029.2000000477,7806,NNB,A,14
12,test,3,0.0,2-Back,1.0,m,Tue May 12 2026 09:53:34 GMT-0500 (Central Daylight Time),746026.8999999762,047_o_f_n_a.png,O,m,934,17,1,1964.6999999284744,744062.2000000477,7806,NNB,A,15
13,test,3,0.0,2-Back,1.0,m,Tue May 12 2026 09:53:34 GMT-0500 (Central Daylight Time),748176.1000000238,047_o_f_n_a.png,O,m,1125,18,1,2146.600000023842,746029.5,7806,NNB,A,16
0,test,4,0.0,2-Back,,,Tue May 12 2026 09:53:34 GMT-0500 (Central Daylight Time),748176.1000000238,053_o_m_n_a.png,O,space,13680,1,1,2146.600000023842,746029.5,7806,NNB,A,0
0,test,4,0.0,2-Back,,,Tue May 12 2026 09:53:34 GMT-0500 (Central Daylight Time),748176.1000000238,063_y_f_n_a.png,O,space,13680,2,1,2146.600000023842,746029.5,7806,NNB,A,0
1,test,4,1.0,2-Back,1.0,z,Tue May 12 2026 09:53:34 GMT-0500 (Central Daylight Time),769068.8000000715,053_o_m_n_a.png,O,z,1068,3,1,2092.4000000953674,766976.3999999762,7806,NNB,A,1
2,test,4,1.0,2-Back,1.0,z,Tue May 12 2026 09:53:34 GMT-0500 (Central Daylight Time),771534.8999999762,063_y_f_n_a.png,O,z,1438,4,1,2463.0,769071.8999999762,7806,NNB,A,2
3,test,4,0.0,2-Back,1.0,m,Tue May 12 2026 09:53:34 GMT-0500 (Central Daylight Time),773518.0,044_o_f_n_a.png,O,m,962,5,1,1979.8999999761581,771538.1000000238,7806,NNB,A,3
4,test,4,0.0,2-Back,1.0,m,Tue May 12 2026 09:53:34 GMT-0500 (Central Daylight Time),775866.3000000715,044_o_f_n_a.png,O,m,1323,6,1,2344.2000000476837,773522.1000000238,7806,NNB,A,4
5,test,4,0.0,2-Back,1.0,m,Tue May 12 2026 09:53:34 GMT-0500 (Central Daylight Time),778317.1000000238,043_m_f_n_a.png,O,m,1423,7,1,2448.5,775868.6000000238,7806,NNB,A,5
6,test,4,0.0,2-Back,1.0,m,Tue May 12 2026 09:53:34 GMT-0500 (Central Daylight Time),780914.5,008_y_m_n_a.png,O,m,1574,8,1,2594.1999999284744,778320.3000000715,7806,NNB,A,6
7,test,4,1.0,2-Back,1.0,z,Tue May 12 2026 09:53:34 GMT-0500 (Central Daylight Time),782930.5,043_m_f_n_a.png,O,z,984,9,1,2012.1999999284744,780918.3000000715,7806,NNB,A,7
8,test,4,0.0,2-Back,1.0,m,Tue May 12 2026 09:53:34 GMT-0500 (Central Daylight Time),785479.8999999762,058_m_m_n_a.png,O,m,1526,10,1,2543.0999999046326,782936.8000000715,7806,NNB,A,8
9,test,4,0.0,2-Back,1.0,m,Tue May 12 2026 09:53:34 GMT-0500 (Central Daylight Time),787594.8999999762,008_y_m_n_a.png,O,m,1098,11,1,2111.899999976158,785483.0,7806,NNB,A,9
10,test,4,0.0,2-Back,1.0,m,Tue May 12 2026 09:53:34 GMT-0500 (Central Daylight Time),790394.6000000238,047_o_f_n_a.png,O,m,1768,12,1,2797.100000023842,787597.5,7806,NNB,A,10
11,test,4,0.0,2-Back,1.0,m,Tue May 12 2026 09:53:34 GMT-0500 (Central Daylight Time),792777.3000000715,041_y_m_n_a.png,O,m,1352,13,1,2378.9000000953674,790398.3999999762,7806,NNB,A,11
11,test,4,1.0,2-Back,0.0,z,Tue May 12 2026 09:53:34 GMT-0500 (Central Daylight Time),795810.1000000238,047_o_f_n_a.png,O,None,2015,14,1,3028.2999999523163,792781.8000000715,7806,NNB,A,12
11,test,4,1.0,2-Back,0.0,z,Tue May 12 2026 09:53:34 GMT-0500 (Central Daylight Time),798526.3000000715,041_y_m_n_a.png,O,m,1695,15,1,2709.0,795817.3000000715,7806,NNB,A,13
12,test,4,0.0,2-Back,1.0,m,Tue May 12 2026 09:53:34 GMT-0500 (Central Daylight Time),800807.2000000477,045_m_m_n_a.png,O,m,1250,16,1,2277.600000023842,798529.6000000238,7806,NNB,A,14
13,test,4,0.0,2-Back,1.0,m,Tue May 12 2026 09:53:34 GMT-0500 (Central Daylight Time),802675.3000000715,050_m_f_n_a.png,O,m,836,17,1,1864.3000000715256,800811.0,7806,NNB,A,15
14,test,4,1.0,2-Back,1.0,z,Tue May 12 2026 09:53:34 GMT-0500 (Central Daylight Time),804522.7000000477,045_m_m_n_a.png,O,z,815,18,1,1843.6000000238419,802679.1000000238,7806,NNB,A,16
0,test,5,1.0,2-Back,,,Tue May 12 2026 09:53:34 GMT-0500 (Central Daylight Time),804522.7000000477,041_y_m_n_a.png,O,space,4775,1,1,1843.6000000238419,802679.1000000238,7806,NNB,A,0
0,test,5,1.0,2-Back,,,Tue May 12 2026 09:53:34 GMT-0500 (Central Daylight Time),804522.7000000477,050_m_f_n_a.png,O,space,4775,2,1,1843.6000000238419,802679.1000000238,7806,NNB,A,0
1,test,5,1.0,2-Back,1.0,z,Tue May 12 2026 09:53:34 GMT-0500 (Central Daylight Time),816303.8999999762,041_y_m_n_a.png,O,z,925,3,1,1942.7999999523163,814361.1000000238,7806,NNB,A,1
2,test,5,1.0,2-Back,1.0,z,Tue May 12 2026 09:53:34 GMT-0500 (Central Daylight Time),818486.7000000477,050_m_f_n_a.png,O,z,1160,4,1,2180.100000023842,816306.6000000238,7806,NNB,A,2
3,test,5,0.0,2-Back,1.0,m,Tue May 12 2026 09:53:34 GMT-0500 (Central Daylight Time),820403.7000000477,047_o_f_n_a.png,O,m,893,5,1,1914.1000000238419,818489.6000000238,7806,NNB,A,3
3,test,5,0.0,2-Back,0.0,m,Tue May 12 2026 09:53:34 GMT-0500 (Central Daylight Time),822967.5,041_y_m_n_a.png,O,z,1535,6,1,2560.7999999523163,820406.7000000477,7806,NNB,A,4
4,test,5,0.0,2-Back,1.0,m,Tue May 12 2026 09:53:34 GMT-0500 (Central Daylight Time),825301.3999999762,010_y_f_n_a.png,O,m,1306,7,1,2330.399999976158,822971.0,7806,NNB,A,5
5,test,5,0.0,2-Back,1.0,m,Tue May 12 2026 09:53:34 GMT-0500 (Central Daylight Time),828099.6000000238,047_o_f_n_a.png,O,m,1772,8,1,2795.0,825304.6000000238,7806,NNB,A,6
5,test,5,1.0,2-Back,0.0,z,Tue May 12 2026 09:53:34 GMT-0500 (Central Daylight Time),830482.8000000715,010_y_f_n_a.png,O,m,1360,9,1,2378.9000000953674,828103.8999999762,7806,NNB,A,7
6,test,5,0.0,2-Back,1.0,m,Tue May 12 2026 09:53:34 GMT-0500 (Central Daylight Time),832214.8999999762,046_o_m_n_a.png,O,m,713,10,1,1729.2999999523163,830485.6000000238,7806,NNB,A,8
7,test,5,0.0,2-Back,1.0,m,Tue May 12 2026 09:53:34 GMT-0500 (Central Daylight Time),834432.1000000238,043_m_f_n_a.png,O,m,1185,11,1,2214.5,832217.6000000238,7806,NNB,A,9
8,test,5,0.0,2-Back,1.0,m,Tue May 12 2026 09:53:34 GMT-0500 (Central Daylight Time),836913.1000000238,058_m_m_n_a.png,O,m,1458,12,1,2477.5,834435.6000000238,7806,NNB,A,10
9,test,5,0.0,2-Back,1.0,m,Tue May 12 2026 09:53:34 GMT-0500 (Central Daylight Time),838631.0,046_o_m_n_a.png,O,m,694,13,1,1713.5,836917.5,7806,NNB,A,11
10,test,5,1.0,2-Back,1.0,z,Tue May 12 2026 09:53:34 GMT-0500 (Central Daylight Time),841329.1000000238,058_m_m_n_a.png,O,z,1667,14,1,2694.7000000476837,838634.3999999762,7806,NNB,A,12
11,test,5,0.0,2-Back,1.0,m,Tue May 12 2026 09:53:34 GMT-0500 (Central Daylight Time),844195.8999999762,063_y_f_n_a.png,O,m,1841,15,1,2863.6999999284744,841332.2000000477,7806,NNB,A,13
12,test,5,0.0,2-Back,1.0,m,Tue May 12 2026 09:53:34 GMT-0500 (Central Daylight Time),846026.7000000477,053_o_m_n_a.png,O,m,800,16,1,1826.1000000238419,844200.6000000238,7806,NNB,A,14
13,test,5,0.0,2-Back,1.0,m,Tue May 12 2026 09:53:34 GMT-0500 (Central Daylight Time),847777.0,043_m_f_n_a.png,O,m,719,17,1,1748.0,846029.0,7806,NNB,A,15
14,test,5,1.0,2-Back,1.0,z,Tue May 12 2026 09:53:34 GMT-0500 (Central Daylight Time),849493.5,053_o_m_n_a.png,O,z,683,18,1,1714.0,847779.5,7806,NNB,A,16
