acc_sum,block,block_c,change,condition,correct,correct_response,datetime,endtime,face,project,response,response_time,row_sel,session_number,start_end,starttime,subject_id,task,task_vers,trial
0,prac,1,,1-Back,,,Mon Jun 22 2026 13:51:15 GMT-0500 (Central Daylight Time),,005_o_f_d_a.png,I,space,5361,1,1,,,8119,VNB,B,0
1,prac,1,0.0,1-Back,1.0,m,Mon Jun 22 2026 13:51:15 GMT-0500 (Central Daylight Time),105733.09999999999,020_y_f_n_a.png,I,m,1215,2,1,2077.6999999999825,103655.40000000001,8119,VNB,B,1
2,prac,1,0.0,1-Back,1.0,m,Mon Jun 22 2026 13:51:15 GMT-0500 (Central Daylight Time),107799.00000000001,007_m_m_h_a.png,I,m,1193,3,1,2058.7000000000116,105740.3,8119,VNB,B,2
3,prac,1,0.0,1-Back,1.0,m,Mon Jun 22 2026 13:51:15 GMT-0500 (Central Daylight Time),109565.59999999999,016_y_m_d_a.png,I,m,884,4,1,1762.6999999999825,107802.90000000001,8119,VNB,B,3
4,prac,1,0.0,1-Back,1.0,m,Mon Jun 22 2026 13:51:15 GMT-0500 (Central Daylight Time),111331.7,005_o_f_n_a.png,I,m,896,5,1,1762.1999999999825,109569.50000000001,8119,VNB,B,4
4,prac,1,1.0,1-Back,0.0,z,Mon Jun 22 2026 13:51:15 GMT-0500 (Central Daylight Time),113348.59999999999,016_y_m_n_a.png,I,m,1133,6,1,2009.7999999999884,111338.8,8119,VNB,B,5
5,prac,1,0.0,1-Back,1.0,m,Mon Jun 22 2026 13:51:15 GMT-0500 (Central Daylight Time),115163.40000000001,004_o_m_h_a.png,I,m,956,7,1,1810.5,113352.90000000001,8119,VNB,B,6
6,prac,1,0.0,1-Back,1.0,m,Mon Jun 22 2026 13:51:15 GMT-0500 (Central Daylight Time),117346.2,011_m_f_d_a.png,I,m,1319,8,1,2178.399999999994,115167.8,8119,VNB,B,7
7,prac,1,1.0,1-Back,1.0,z,Mon Jun 22 2026 13:51:15 GMT-0500 (Central Daylight Time),119229.00000000001,020_y_f_d_a.png,I,z,1009,9,1,1875.4000000000233,117353.59999999999,8119,VNB,B,8
8,prac,1,0.0,1-Back,1.0,m,Mon Jun 22 2026 13:51:15 GMT-0500 (Central Daylight Time),120864.8,007_m_m_n_a.png,I,m,785,10,1,1631.7000000000116,119233.09999999999,8119,VNB,B,9
9,prac,1,0.0,1-Back,1.0,m,Mon Jun 22 2026 13:51:15 GMT-0500 (Central Daylight Time),122778.7,005_o_f_h_a.png,I,m,1046,11,1,1908.6999999999825,120870.00000000001,8119,VNB,B,10
10,prac,1,0.0,1-Back,1.0,m,Mon Jun 22 2026 13:51:15 GMT-0500 (Central Daylight Time),124727.59999999999,016_y_m_d_a.png,I,m,1075,12,1,1941.1999999999825,122786.40000000001,8119,VNB,B,11
0,test,1,0.0,1-Back,,,Mon Jun 22 2026 13:51:15 GMT-0500 (Central Daylight Time),124727.59999999999,020_y_f_d_a.png,I,space,8124,1,1,1941.1999999999825,122786.40000000001,8119,VNB,B,0
1,test,1,0.0,1-Back,1.0,m,Mon Jun 22 2026 13:51:15 GMT-0500 (Central Daylight Time),146770.0,011_m_f_n_a.png,I,m,1121,2,1,2145.4000000000233,144624.59999999998,8119,VNB,B,1
2,test,1,0.0,1-Back,1.0,m,Mon Jun 22 2026 13:51:15 GMT-0500 (Central Daylight Time),148919.5,004_o_m_h_a.png,I,m,1132,3,1,2146.7999999999884,146772.7,8119,VNB,B,2
3,test,1,1.0,1-Back,1.0,z,Mon Jun 22 2026 13:51:15 GMT-0500 (Central Daylight Time),150768.90000000002,007_m_m_h_a.png,I,z,824,4,1,1846.2000000000116,148922.7,8119,VNB,B,3
4,test,1,0.0,1-Back,1.0,m,Mon Jun 22 2026 13:51:15 GMT-0500 (Central Daylight Time),152585.2,005_o_f_n_a.png,I,m,797,5,1,1813.7999999999884,150771.40000000002,8119,VNB,B,4
5,test,1,0.0,1-Back,1.0,m,Mon Jun 22 2026 13:51:15 GMT-0500 (Central Daylight Time),154867.8,016_y_m_d_a.png,I,m,1262,6,1,2280.2000000000116,152587.59999999998,8119,VNB,B,5
6,test,1,1.0,1-Back,1.0,z,Mon Jun 22 2026 13:51:15 GMT-0500 (Central Daylight Time),157567.0,011_m_f_d_a.png,I,z,1676,7,1,2696.5,154870.5,8119,VNB,B,6
7,test,1,0.0,1-Back,1.0,m,Mon Jun 22 2026 13:51:15 GMT-0500 (Central Daylight Time),159766.3,020_y_f_h_a.png,I,m,1177,8,1,2196.7999999999884,157569.5,8119,VNB,B,7
8,test,1,0.0,1-Back,1.0,m,Mon Jun 22 2026 13:51:15 GMT-0500 (Central Daylight Time),161615.59999999998,004_o_m_n_a.png,I,m,817,9,1,1846.6999999999534,159768.90000000002,8119,VNB,B,8
9,test,1,0.0,1-Back,1.0,m,Mon Jun 22 2026 13:51:15 GMT-0500 (Central Daylight Time),163598.59999999998,016_y_m_h_a.png,I,m,950,10,1,1980.5,161618.09999999998,8119,VNB,B,9
10,test,1,0.0,1-Back,1.0,m,Mon Jun 22 2026 13:51:15 GMT-0500 (Central Daylight Time),165381.0,004_o_m_d_a.png,I,m,760,11,1,1780.0,163601.0,8119,VNB,B,10
11,test,1,1.0,1-Back,1.0,z,Mon Jun 22 2026 13:51:15 GMT-0500 (Central Daylight Time),167980.40000000002,005_o_f_d_a.png,I,z,1570,12,1,2596.5,165383.90000000002,8119,VNB,B,11
12,test,1,0.0,1-Back,1.0,m,Mon Jun 22 2026 13:51:15 GMT-0500 (Central Daylight Time),169964.40000000002,007_m_m_n_a.png,I,m,954,13,1,1981.3000000000466,167983.09999999998,8119,VNB,B,12
13,test,1,1.0,1-Back,1.0,z,Mon Jun 22 2026 13:51:15 GMT-0500 (Central Daylight Time),172179.09999999998,020_y_f_n_a.png,I,z,1196,14,1,2212.399999999965,169966.7,8119,VNB,B,13
14,test,1,0.0,1-Back,1.0,m,Mon Jun 22 2026 13:51:15 GMT-0500 (Central Daylight Time),174228.40000000002,011_m_f_h_a.png,I,m,1019,15,1,2046.9000000000233,172181.5,8119,VNB,B,14
15,test,1,0.0,1-Back,1.0,m,Mon Jun 22 2026 13:51:15 GMT-0500 (Central Daylight Time),176544.2,007_m_m_d_a.png,I,m,1291,16,1,2313.0,174231.2,8119,VNB,B,15
16,test,1,0.0,1-Back,1.0,m,Mon Jun 22 2026 13:51:15 GMT-0500 (Central Daylight Time),178860.3,016_y_m_n_a.png,I,m,1286,17,1,2313.7000000000116,176546.59999999998,8119,VNB,B,16
17,test,1,0.0,1-Back,1.0,m,Mon Jun 22 2026 13:51:15 GMT-0500 (Central Daylight Time),180809.90000000002,005_o_f_h_a.png,I,m,924,18,1,1946.9000000000233,178863.0,8119,VNB,B,17
0,test,2,0.0,1-Back,,,Mon Jun 22 2026 13:51:15 GMT-0500 (Central Daylight Time),180809.90000000002,016_y_m_n_a.png,I,space,23062,1,1,1946.9000000000233,178863.0,8119,VNB,B,0
1,test,2,0.0,1-Back,1.0,m,Mon Jun 22 2026 13:51:15 GMT-0500 (Central Daylight Time),207851.2,020_y_f_h_a.png,I,m,930,2,1,1946.4000000000233,205904.8,8119,VNB,B,1
2,test,2,1.0,1-Back,1.0,m,Mon Jun 22 2026 13:51:15 GMT-0500 (Central Daylight Time),209756.0,004_o_m_n_a.png,I,m,888,3,1,1902.2999999999884,207853.7,8119,VNB,B,2
3,test,2,0.0,1-Back,1.0,m,Mon Jun 22 2026 13:51:15 GMT-0500 (Central Daylight Time),211683.3,011_m_f_d_a.png,I,m,913,4,1,1924.0999999999767,209759.2,8119,VNB,B,3
4,test,2,0.0,1-Back,1.0,z,Mon Jun 22 2026 13:51:15 GMT-0500 (Central Daylight Time),213899.09999999998,007_m_m_d_a.png,I,z,1195,5,1,2213.2999999999884,211685.8,8119,VNB,B,4
5,test,2,0.0,1-Back,1.0,m,Mon Jun 22 2026 13:51:15 GMT-0500 (Central Daylight Time),215915.0,016_y_m_h_a.png,I,m,995,6,1,2013.2000000000116,213901.8,8119,VNB,B,5
6,test,2,1.0,1-Back,1.0,z,Mon Jun 22 2026 13:51:15 GMT-0500 (Central Daylight Time),217780.89999999997,005_o_f_h_a.png,I,z,844,7,1,1861.399999999965,215919.5,8119,VNB,B,6
7,test,2,0.0,1-Back,1.0,m,Mon Jun 22 2026 13:51:15 GMT-0500 (Central Daylight Time),219746.8,011_m_f_n_a.png,I,m,945,8,1,1963.0999999999767,217783.7,8119,VNB,B,7
8,test,2,0.0,1-Back,1.0,m,Mon Jun 22 2026 13:51:15 GMT-0500 (Central Daylight Time),221979.59999999998,020_y_f_d_a.png,I,m,1203,9,1,2230.5999999999767,219749.0,8119,VNB,B,8
9,test,2,0.0,1-Back,1.0,m,Mon Jun 22 2026 13:51:15 GMT-0500 (Central Daylight Time),224279.3,007_m_m_n_a.png,I,m,1275,10,1,2297.5,221981.8,8119,VNB,B,9
10,test,2,1.0,1-Back,1.0,m,Mon Jun 22 2026 13:51:15 GMT-0500 (Central Daylight Time),226261.7,011_m_f_h_a.png,I,m,951,11,1,1978.5,224283.2,8119,VNB,B,10
11,test,2,0.0,1-Back,1.0,z,Mon Jun 22 2026 13:51:15 GMT-0500 (Central Daylight Time),228177.7,004_o_m_h_a.png,I,z,889,12,1,1912.9000000000233,226264.8,8119,VNB,B,11
12,test,2,0.0,1-Back,1.0,m,Mon Jun 22 2026 13:51:15 GMT-0500 (Central Daylight Time),229977.3,016_y_m_d_a.png,I,m,773,13,1,1797.2000000000116,228180.09999999998,8119,VNB,B,12
13,test,2,0.0,1-Back,1.0,m,Mon Jun 22 2026 13:51:15 GMT-0500 (Central Daylight Time),232027.59999999998,005_o_f_n_a.png,I,m,1029,14,1,2047.0,229980.59999999998,8119,VNB,B,13
14,test,2,0.0,1-Back,1.0,z,Mon Jun 22 2026 13:51:15 GMT-0500 (Central Daylight Time),234308.8,020_y_f_n_a.png,I,z,1252,15,1,2277.0,232031.8,8119,VNB,B,14
15,test,2,1.0,1-Back,1.0,m,Mon Jun 22 2026 13:51:15 GMT-0500 (Central Daylight Time),236341.5,007_m_m_h_a.png,I,m,1009,16,1,2030.2999999999884,234311.2,8119,VNB,B,15
16,test,2,0.0,1-Back,1.0,m,Mon Jun 22 2026 13:51:15 GMT-0500 (Central Daylight Time),238290.89999999997,005_o_f_d_a.png,I,m,921,17,1,1946.6999999999534,236344.2,8119,VNB,B,16
16,test,2,1.0,1-Back,0.0,z,Mon Jun 22 2026 13:51:15 GMT-0500 (Central Daylight Time),240574.39999999997,004_o_m_d_a.png,I,m,1251,18,1,2280.5999999999767,238293.8,8119,VNB,B,17
0,test,3,1.0,1-Back,,,Mon Jun 22 2026 13:51:15 GMT-0500 (Central Daylight Time),240574.39999999997,005_o_f_h_a.png,I,space,11984,1,1,2280.5999999999767,238293.8,8119,VNB,B,0
1,test,3,0.0,1-Back,1.0,m,Mon Jun 22 2026 13:51:15 GMT-0500 (Central Daylight Time),257052.2,011_m_f_d_a.png,I,m,1362,2,1,2379.2000000000116,254673.0,8119,VNB,B,1
2,test,3,1.0,1-Back,1.0,m,Mon Jun 22 2026 13:51:15 GMT-0500 (Central Daylight Time),259434.5,007_m_m_n_a.png,I,m,1354,3,1,2379.600000000035,257054.89999999997,8119,VNB,B,2
3,test,3,0.0,1-Back,1.0,z,Mon Jun 22 2026 13:51:15 GMT-0500 (Central Daylight Time),261733.8,005_o_f_n_a.png,I,z,1268,4,1,2295.0999999999767,259438.7,8119,VNB,B,3
4,test,3,1.0,1-Back,1.0,m,Mon Jun 22 2026 13:51:15 GMT-0500 (Central Daylight Time),263533.1,004_o_m_d_a.png,I,m,769,5,1,1796.0999999999767,261737.0,8119,VNB,B,4
5,test,3,0.0,1-Back,1.0,m,Mon Jun 22 2026 13:51:15 GMT-0500 (Central Daylight Time),265715.8,020_y_f_h_a.png,I,m,1161,6,1,2180.0,263535.8,8119,VNB,B,5
6,test,3,0.0,1-Back,1.0,z,Mon Jun 22 2026 13:51:15 GMT-0500 (Central Daylight Time),267598.6,016_y_m_h_a.png,I,z,851,7,1,1879.0,265719.6,8119,VNB,B,6
7,test,3,0.0,1-Back,1.0,m,Mon Jun 22 2026 13:51:15 GMT-0500 (Central Daylight Time),269547.89999999997,011_m_f_n_a.png,I,m,928,8,1,1946.7999999999884,267601.1,8119,VNB,B,7
8,test,3,0.0,1-Back,1.0,m,Mon Jun 22 2026 13:51:15 GMT-0500 (Central Daylight Time),271697.1,020_y_f_d_a.png,I,m,1130,9,1,2146.7000000000116,269550.39999999997,8119,VNB,B,8
9,test,3,1.0,1-Back,1.0,m,Mon Jun 22 2026 13:51:15 GMT-0500 (Central Daylight Time),273714.39999999997,004_o_m_n_a.png,I,m,998,10,1,2015.0999999999767,271699.3,8119,VNB,B,9
10,test,3,0.0,1-Back,1.0,m,Mon Jun 22 2026 13:51:15 GMT-0500 (Central Daylight Time),275879.3,007_m_m_h_a.png,I,m,1141,11,1,2161.7999999999884,273717.5,8119,VNB,B,10
11,test,3,0.0,1-Back,1.0,z,Mon Jun 22 2026 13:51:15 GMT-0500 (Central Daylight Time),277595.89999999997,011_m_f_h_a.png,I,z,687,12,1,1713.1999999999534,275882.7,8119,VNB,B,11
12,test,3,1.0,1-Back,1.0,m,Mon Jun 22 2026 13:51:15 GMT-0500 (Central Daylight Time),279628.2,005_o_f_d_a.png,I,m,1010,13,1,2029.3000000000466,277598.89999999997,8119,VNB,B,12
13,test,3,0.0,1-Back,1.0,z,Mon Jun 22 2026 13:51:15 GMT-0500 (Central Daylight Time),281810.6,007_m_m_d_a.png,I,z,1162,14,1,2179.5999999999767,279631.0,8119,VNB,B,13
14,test,3,0.0,1-Back,1.0,m,Mon Jun 22 2026 13:51:15 GMT-0500 (Central Daylight Time),283660.1,016_y_m_n_a.png,I,m,828,15,1,1846.5999999999767,281813.5,8119,VNB,B,14
15,test,3,1.0,1-Back,1.0,m,Mon Jun 22 2026 13:51:15 GMT-0500 (Central Daylight Time),285509.6,004_o_m_h_a.png,I,m,818,16,1,1846.899999999965,283662.7,8119,VNB,B,15
16,test,3,0.0,1-Back,1.0,m,Mon Jun 22 2026 13:51:15 GMT-0500 (Central Daylight Time),287308.89999999997,016_y_m_d_a.png,I,m,777,17,1,1795.899999999965,285513.0,8119,VNB,B,16
17,test,3,1.0,1-Back,1.0,m,Mon Jun 22 2026 13:51:15 GMT-0500 (Central Daylight Time),289891.7,020_y_f_n_a.png,I,m,1561,18,1,2580.100000000035,287311.6,8119,VNB,B,17
0,test,4,1.0,1-Back,,,Mon Jun 22 2026 13:51:15 GMT-0500 (Central Daylight Time),289891.7,007_m_m_d_a.png,I,space,3492,1,1,2580.100000000035,287311.6,8119,VNB,B,0
1,test,4,0.0,1-Back,1.0,z,Mon Jun 22 2026 13:51:15 GMT-0500 (Central Daylight Time),297489.0,004_o_m_d_a.png,I,z,1064,2,1,2076.9000000000233,295412.1,8119,VNB,B,1
2,test,4,0.0,1-Back,1.0,m,Mon Jun 22 2026 13:51:15 GMT-0500 (Central Daylight Time),299705.2,016_y_m_h_a.png,I,m,1189,3,1,2212.4000000000233,297492.8,8119,VNB,B,2
3,test,4,0.0,1-Back,1.0,m,Mon Jun 22 2026 13:51:15 GMT-0500 (Central Daylight Time),301621.0,011_m_f_n_a.png,I,m,893,4,1,1913.0,299708.0,8119,VNB,B,3
4,test,4,1.0,1-Back,1.0,m,Mon Jun 22 2026 13:51:15 GMT-0500 (Central Daylight Time),303587.1,005_o_f_h_a.png,I,m,945,5,1,1963.7000000000116,301623.39999999997,8119,VNB,B,4
5,test,4,0.0,1-Back,1.0,m,Mon Jun 22 2026 13:51:15 GMT-0500 (Central Daylight Time),305386.7,007_m_m_n_a.png,I,m,771,6,1,1797.2000000000116,303589.5,8119,VNB,B,5
6,test,4,0.0,1-Back,1.0,m,Mon Jun 22 2026 13:51:15 GMT-0500 (Central Daylight Time),307219.39999999997,016_y_m_d_a.png,I,m,804,7,1,1830.0,305389.39999999997,8119,VNB,B,6
7,test,4,1.0,1-Back,1.0,z,Mon Jun 22 2026 13:51:15 GMT-0500 (Central Daylight Time),309918.39999999997,020_y_f_d_a.png,I,z,1675,8,1,2696.2999999999884,307222.1,8119,VNB,B,7
8,test,4,0.0,1-Back,1.0,m,Mon Jun 22 2026 13:51:15 GMT-0500 (Central Daylight Time),311718.0,011_m_f_h_a.png,I,m,776,9,1,1796.600000000035,309921.39999999997,8119,VNB,B,8
9,test,4,0.0,1-Back,1.0,z,Mon Jun 22 2026 13:51:15 GMT-0500 (Central Daylight Time),313784.1,004_o_m_h_a.png,I,z,1040,10,1,2063.2000000000116,311720.89999999997,8119,VNB,B,9
10,test,4,1.0,1-Back,1.0,m,Mon Jun 22 2026 13:51:15 GMT-0500 (Central Daylight Time),315533.39999999997,005_o_f_n_a.png,I,m,718,11,1,1745.6999999999534,313787.7,8119,VNB,B,10
11,test,4,0.0,1-Back,1.0,m,Mon Jun 22 2026 13:51:15 GMT-0500 (Central Daylight Time),317766.2,011_m_f_d_a.png,I,m,1209,12,1,2229.600000000035,315536.6,8119,VNB,B,11
12,test,4,0.0,1-Back,1.0,m,Mon Jun 22 2026 13:51:15 GMT-0500 (Central Daylight Time),319898.8,020_y_f_n_a.png,I,m,1103,13,1,2130.0,317768.8,8119,VNB,B,12
13,test,4,0.0,1-Back,1.0,m,Mon Jun 22 2026 13:51:15 GMT-0500 (Central Daylight Time),322015.0,005_o_f_d_a.png,I,m,1084,14,1,2113.9000000000233,319901.1,8119,VNB,B,13
14,test,4,0.0,1-Back,1.0,m,Mon Jun 22 2026 13:51:15 GMT-0500 (Central Daylight Time),324097.89999999997,020_y_f_h_a.png,I,m,1057,15,1,2080.2999999999884,322017.6,8119,VNB,B,14
15,test,4,1.0,1-Back,1.0,z,Mon Jun 22 2026 13:51:15 GMT-0500 (Central Daylight Time),325830.5,007_m_m_h_a.png,I,z,701,16,1,1730.2999999999884,324100.2,8119,VNB,B,15
16,test,4,0.0,1-Back,1.0,m,Mon Jun 22 2026 13:51:15 GMT-0500 (Central Daylight Time),327913.0,004_o_m_n_a.png,I,m,1056,17,1,2080.100000000035,325832.89999999997,8119,VNB,B,16
17,test,4,1.0,1-Back,1.0,z,Mon Jun 22 2026 13:51:15 GMT-0500 (Central Daylight Time),330462.2,016_y_m_n_a.png,I,z,1517,18,1,2546.600000000035,327915.6,8119,VNB,B,17
0,test,5,1.0,1-Back,,,Mon Jun 22 2026 13:51:15 GMT-0500 (Central Daylight Time),330462.2,004_o_m_n_a.png,I,space,3912,1,1,2546.600000000035,327915.6,8119,VNB,B,0
1,test,5,1.0,1-Back,1.0,m,Mon Jun 22 2026 13:51:15 GMT-0500 (Central Daylight Time),338409.7,005_o_f_h_a.png,I,m,989,2,1,2013.3000000000466,336396.39999999997,8119,VNB,B,1
2,test,5,0.0,1-Back,1.0,m,Mon Jun 22 2026 13:51:15 GMT-0500 (Central Daylight Time),340942.0,016_y_m_d_a.png,I,m,1501,3,1,2529.7999999999884,338412.2,8119,VNB,B,2
3,test,5,0.0,1-Back,1.0,z,Mon Jun 22 2026 13:51:15 GMT-0500 (Central Daylight Time),342741.5,004_o_m_d_a.png,I,z,768,4,1,1796.2999999999884,340945.2,8119,VNB,B,3
4,test,5,0.0,1-Back,1.0,m,Mon Jun 22 2026 13:51:15 GMT-0500 (Central Daylight Time),344641.0,011_m_f_h_a.png,I,m,872,5,1,1895.5,342745.5,8119,VNB,B,4
5,test,5,0.0,1-Back,1.0,m,Mon Jun 22 2026 13:51:15 GMT-0500 (Central Daylight Time),346840.3,020_y_f_n_a.png,I,m,1181,6,1,2195.9000000000233,344644.39999999997,8119,VNB,B,5
6,test,5,1.0,1-Back,1.0,z,Mon Jun 22 2026 13:51:15 GMT-0500 (Central Daylight Time),348772.89999999997,005_o_f_n_a.png,I,z,910,7,1,1930.0999999999767,346842.8,8119,VNB,B,6
7,test,5,0.0,1-Back,1.0,m,Mon Jun 22 2026 13:51:15 GMT-0500 (Central Daylight Time),350455.89999999997,011_m_f_d_a.png,I,m,665,8,1,1680.1999999999534,348775.7,8119,VNB,B,7
8,test,5,0.0,1-Back,1.0,m,Mon Jun 22 2026 13:51:15 GMT-0500 (Central Daylight Time),352772.1,016_y_m_h_a.png,I,m,1288,9,1,2313.399999999965,350458.7,8119,VNB,B,8
9,test,5,0.0,1-Back,1.0,m,Mon Jun 22 2026 13:51:15 GMT-0500 (Central Daylight Time),354654.7,020_y_f_d_a.png,I,m,851,10,1,1880.2000000000116,352774.5,8119,VNB,B,9
10,test,5,0.0,1-Back,1.0,m,Mon Jun 22 2026 13:51:15 GMT-0500 (Central Daylight Time),356637.1,007_m_m_n_a.png,I,m,952,11,1,1979.7999999999884,354657.3,8119,VNB,B,10
11,test,5,1.0,1-Back,1.0,z,Mon Jun 22 2026 13:51:15 GMT-0500 (Central Daylight Time),358453.2,011_m_f_n_a.png,I,z,793,12,1,1812.600000000035,356640.6,8119,VNB,B,11
12,test,5,0.0,1-Back,1.0,m,Mon Jun 22 2026 13:51:15 GMT-0500 (Central Daylight Time),360435.89999999997,004_o_m_h_a.png,I,m,961,13,1,1979.899999999965,358456.0,8119,VNB,B,12
13,test,5,0.0,1-Back,1.0,z,Mon Jun 22 2026 13:51:15 GMT-0500 (Central Daylight Time),362168.5,007_m_m_h_a.png,I,z,714,14,1,1730.0,360438.5,8119,VNB,B,13
14,test,5,1.0,1-Back,1.0,m,Mon Jun 22 2026 13:51:15 GMT-0500 (Central Daylight Time),363934.89999999997,005_o_f_d_a.png,I,m,734,15,1,1763.7999999999884,362171.1,8119,VNB,B,14
15,test,5,0.0,1-Back,1.0,m,Mon Jun 22 2026 13:51:15 GMT-0500 (Central Daylight Time),366150.8,016_y_m_n_a.png,I,m,1183,16,1,2212.5999999999767,363938.2,8119,VNB,B,15
16,test,5,0.0,1-Back,1.0,m,Mon Jun 22 2026 13:51:15 GMT-0500 (Central Daylight Time),368183.6,020_y_f_h_a.png,I,m,1007,17,1,2029.899999999965,366153.7,8119,VNB,B,16
17,test,5,0.0,1-Back,1.0,m,Mon Jun 22 2026 13:51:15 GMT-0500 (Central Daylight Time),370116.2,007_m_m_d_a.png,I,m,911,18,1,1930.100000000035,368186.1,8119,VNB,B,17
0,prac,1,0.0,2-Back,,,Mon Jun 22 2026 13:51:15 GMT-0500 (Central Daylight Time),370116.2,011_m_f_n_a.png,I,space,5056,1,1,1930.100000000035,368186.1,8119,VNB,B,0
0,prac,1,0.0,2-Back,,,Mon Jun 22 2026 13:51:15 GMT-0500 (Central Daylight Time),370116.2,005_o_f_h_a.png,I,space,5056,2,1,1930.100000000035,368186.1,8119,VNB,B,0
0,prac,1,0.0,2-Back,0.0,m,Mon Jun 22 2026 13:51:15 GMT-0500 (Central Daylight Time),512304.99999999994,004_o_m_d_a.png,I,None,2016,3,1,2861.6999999999534,509443.3,8119,VNB,B,1
0,prac,1,1.0,2-Back,0.0,z,Mon Jun 22 2026 13:51:15 GMT-0500 (Central Daylight Time),514453.99999999994,007_m_m_h_a.png,I,m,1278,4,1,2145.29999999993,512308.7,8119,VNB,B,2
0,prac,1,0.0,2-Back,0.0,m,Mon Jun 22 2026 13:51:15 GMT-0500 (Central Daylight Time),516969.99999999994,020_y_f_n_a.png,I,z,1656,5,1,2508.1999999999534,514461.8,8119,VNB,B,3
1,prac,1,1.0,2-Back,1.0,z,Mon Jun 22 2026 13:51:15 GMT-0500 (Central Daylight Time),519486.10000000003,004_o_m_h_a.png,I,z,1745,6,1,2512.4000000000233,516973.7,8119,VNB,B,4
1,prac,1,1.0,2-Back,0.0,z,Mon Jun 22 2026 13:51:15 GMT-0500 (Central Daylight Time),521718.39999999997,016_y_m_n_a.png,I,m,1367,7,1,2228.5,519489.89999999997,8119,VNB,B,5
2,prac,1,0.0,2-Back,1.0,m,Mon Jun 22 2026 13:51:15 GMT-0500 (Central Daylight Time),524267.60000000003,011_m_f_d_a.png,I,m,1677,8,1,2545.20000000007,521722.39999999997,8119,VNB,B,6
2,prac,1,0.0,2-Back,0.0,m,Mon Jun 22 2026 13:51:15 GMT-0500 (Central Daylight Time),527100.1000000001,005_o_f_d_a.png,I,z,1963,9,1,2828.300000000105,524271.8,8119,VNB,B,7
2,prac,1,0.0,2-Back,0.0,m,Mon Jun 22 2026 13:51:15 GMT-0500 (Central Daylight Time),529333.0,007_m_m_h_a.png,I,z,1455,10,1,2229.0,527104.0,8119,VNB,B,8
2,prac,1,1.0,2-Back,0.0,z,Mon Jun 22 2026 13:51:15 GMT-0500 (Central Daylight Time),532199.0,020_y_f_d_a.png,I,None,2002,11,1,2858.0999999999767,529340.9,8119,VNB,B,9
3,prac,1,0.0,2-Back,1.0,m,Mon Jun 22 2026 13:51:15 GMT-0500 (Central Daylight Time),534664.4,004_o_m_n_a.png,I,m,1611,12,1,2461.79999999993,532202.6000000001,8119,VNB,B,10
0,prac,2,0.0,2-Back,,,Mon Jun 22 2026 13:51:15 GMT-0500 (Central Daylight Time),534664.4,011_m_f_n_a.png,I,a,3995,1,1,2461.79999999993,532202.6000000001,8119,VNB,B,0
0,prac,2,0.0,2-Back,,,Mon Jun 22 2026 13:51:15 GMT-0500 (Central Daylight Time),534664.4,005_o_f_h_a.png,I,a,3995,2,1,2461.79999999993,532202.6000000001,8119,VNB,B,0
1,prac,2,0.0,2-Back,1.0,m,Mon Jun 22 2026 13:51:15 GMT-0500 (Central Daylight Time),546360.7000000001,004_o_m_d_a.png,I,m,1624,3,1,2478.3000000000466,543882.4,8119,VNB,B,1
2,prac,2,1.0,2-Back,1.0,z,Mon Jun 22 2026 13:51:15 GMT-0500 (Central Daylight Time),548576.9,007_m_m_h_a.png,I,z,1442,4,1,2212.5,546364.4,8119,VNB,B,2
2,prac,2,0.0,2-Back,0.0,m,Mon Jun 22 2026 13:51:15 GMT-0500 (Central Daylight Time),551442.4,020_y_f_n_a.png,I,None,2010,5,1,2860.1999999999534,548582.2000000001,8119,VNB,B,3
3,prac,2,1.0,2-Back,1.0,z,Mon Jun 22 2026 13:51:15 GMT-0500 (Central Daylight Time),553575.4,004_o_m_h_a.png,I,z,1275,6,1,2129.6999999999534,551445.7000000001,8119,VNB,B,4
3,prac,2,1.0,2-Back,0.0,z,Mon Jun 22 2026 13:51:15 GMT-0500 (Central Daylight Time),555691.5,016_y_m_n_a.png,I,m,1239,7,1,2112.5999999999767,553578.9,8119,VNB,B,5
4,prac,2,0.0,2-Back,1.0,m,Mon Jun 22 2026 13:51:15 GMT-0500 (Central Daylight Time),557890.5,011_m_f_d_a.png,I,m,1328,8,1,2195.29999999993,555695.2000000001,8119,VNB,B,6
5,prac,2,0.0,2-Back,1.0,m,Mon Jun 22 2026 13:51:15 GMT-0500 (Central Daylight Time),560223.0,005_o_f_d_a.png,I,m,1463,9,1,2328.1999999999534,557894.8,8119,VNB,B,7
6,prac,2,0.0,2-Back,1.0,m,Mon Jun 22 2026 13:51:15 GMT-0500 (Central Daylight Time),562288.8,007_m_m_h_a.png,I,m,1291,10,1,2061.1999999999534,560227.6000000001,8119,VNB,B,8
7,prac,2,1.0,2-Back,1.0,z,Mon Jun 22 2026 13:51:15 GMT-0500 (Central Daylight Time),564205.1000000001,020_y_f_d_a.png,I,z,1039,11,1,1905.5,562299.6000000001,8119,VNB,B,9
8,prac,2,0.0,2-Back,1.0,m,Mon Jun 22 2026 13:51:15 GMT-0500 (Central Daylight Time),565971.4,004_o_m_n_a.png,I,m,901,12,1,1762.7999999999302,564208.6000000001,8119,VNB,B,10
0,test,1,0.0,2-Back,,,Mon Jun 22 2026 13:51:15 GMT-0500 (Central Daylight Time),565971.4,016_y_m_h_a.png,I,space,17505,1,1,1762.7999999999302,564208.6000000001,8119,VNB,B,0
0,test,1,0.0,2-Back,,,Mon Jun 22 2026 13:51:15 GMT-0500 (Central Daylight Time),565971.4,005_o_f_n_a.png,I,space,17505,2,1,1762.7999999999302,564208.6000000001,8119,VNB,B,0
1,test,1,0.0,2-Back,1.0,z,Mon Jun 22 2026 13:51:15 GMT-0500 (Central Daylight Time),600510.4,004_o_m_h_a.png,I,z,1217,3,1,2245.9000000000233,598264.5,8119,VNB,B,1
2,test,1,0.0,2-Back,1.0,m,Mon Jun 22 2026 13:51:15 GMT-0500 (Central Daylight Time),602626.2000000001,011_m_f_d_a.png,I,m,1096,4,1,2113.4000000000233,600512.8,8119,VNB,B,2
3,test,1,1.0,2-Back,1.0,m,Mon Jun 22 2026 13:51:15 GMT-0500 (Central Daylight Time),604909.5,016_y_m_n_a.png,I,m,1253,5,1,2278.399999999907,602631.1000000001,8119,VNB,B,3
4,test,1,0.0,2-Back,1.0,z,Mon Jun 22 2026 13:51:15 GMT-0500 (Central Daylight Time),606808.2000000001,020_y_f_d_a.png,I,z,882,6,1,1896.2000000000698,604912.0,8119,VNB,B,4
5,test,1,0.0,2-Back,1.0,m,Mon Jun 22 2026 13:51:15 GMT-0500 (Central Daylight Time),609007.5,007_m_m_h_a.png,I,m,1182,7,1,2196.0999999999767,606811.4,8119,VNB,B,5
5,test,1,1.0,2-Back,0.0,m,Mon Jun 22 2026 13:51:15 GMT-0500 (Central Daylight Time),611373.4,020_y_f_n_a.png,I,z,1334,8,1,2363.5999999999767,609009.8,8119,VNB,B,6
5,test,1,0.0,2-Back,0.0,z,Mon Jun 22 2026 13:51:15 GMT-0500 (Central Daylight Time),613956.4,005_o_f_h_a.png,I,m,1553,9,1,2580.6999999999534,611375.7000000001,8119,VNB,B,7
6,test,1,0.0,2-Back,1.0,m,Mon Jun 22 2026 13:51:15 GMT-0500 (Central Daylight Time),615988.7000000001,004_o_m_d_a.png,I,m,1002,10,1,2030.0,613958.7000000001,8119,VNB,B,8
7,test,1,1.0,2-Back,1.0,m,Mon Jun 22 2026 13:51:15 GMT-0500 (Central Daylight Time),618204.8,007_m_m_d_a.png,I,m,1186,11,1,2213.3000000000466,615991.5,8119,VNB,B,9
8,test,1,0.0,2-Back,1.0,m,Mon Jun 22 2026 13:51:15 GMT-0500 (Central Daylight Time),620337.2000000001,011_m_f_n_a.png,I,m,1105,12,1,2129.3000000000466,618207.9,8119,VNB,B,10
9,test,1,0.0,2-Back,1.0,m,Mon Jun 22 2026 13:51:15 GMT-0500 (Central Daylight Time),622319.9,020_y_f_h_a.png,I,m,965,13,1,1980.2999999999302,620339.6000000001,8119,VNB,B,11
10,test,1,0.0,2-Back,1.0,z,Mon Jun 22 2026 13:51:15 GMT-0500 (Central Daylight Time),624769.8,007_m_m_n_a.png,I,z,1423,14,1,2447.5999999999767,622322.2000000001,8119,VNB,B,12
11,test,1,0.0,2-Back,1.0,m,Mon Jun 22 2026 13:51:15 GMT-0500 (Central Daylight Time),626868.7000000001,016_y_m_d_a.png,I,m,1068,15,1,2096.70000000007,624772.0,8119,VNB,B,13
11,test,1,1.0,2-Back,0.0,m,Mon Jun 22 2026 13:51:15 GMT-0500 (Central Daylight Time),628934.7000000001,011_m_f_h_a.png,I,z,1034,16,1,2062.20000000007,626872.5,8119,VNB,B,14
11,test,1,0.0,2-Back,0.0,z,Mon Jun 22 2026 13:51:15 GMT-0500 (Central Daylight Time),631117.4,005_o_f_d_a.png,I,m,1152,17,1,2179.5999999999767,628937.8,8119,VNB,B,15
12,test,1,0.0,2-Back,1.0,m,Mon Jun 22 2026 13:51:15 GMT-0500 (Central Daylight Time),633250.0,004_o_m_n_a.png,I,m,1113,18,1,2129.899999999907,631120.1000000001,8119,VNB,B,16
0,test,2,0.0,2-Back,,,Mon Jun 22 2026 13:51:15 GMT-0500 (Central Daylight Time),633250.0,007_m_m_h_a.png,I,space,4629,1,1,2129.899999999907,631120.1000000001,8119,VNB,B,0
0,test,2,0.0,2-Back,,,Mon Jun 22 2026 13:51:15 GMT-0500 (Central Daylight Time),633250.0,020_y_f_n_a.png,I,space,4629,2,1,2129.899999999907,631120.1000000001,8119,VNB,B,0
1,test,2,1.0,2-Back,1.0,z,Mon Jun 22 2026 13:51:15 GMT-0500 (Central Daylight Time),645029.6000000001,005_o_f_h_a.png,I,z,910,3,1,1930.2000000000698,643099.4,8119,VNB,B,1
2,test,2,0.0,2-Back,1.0,m,Mon Jun 22 2026 13:51:15 GMT-0500 (Central Daylight Time),647112.2000000001,004_o_m_d_a.png,I,m,1057,4,1,2079.5999999999767,645032.6000000001,8119,VNB,B,2
3,test,2,0.0,2-Back,1.0,m,Mon Jun 22 2026 13:51:15 GMT-0500 (Central Daylight Time),649278.3,011_m_f_d_a.png,I,m,1133,5,1,2163.6999999999534,647114.6000000001,8119,VNB,B,3
4,test,2,0.0,2-Back,1.0,m,Mon Jun 22 2026 13:51:15 GMT-0500 (Central Daylight Time),651527.8,016_y_m_h_a.png,I,m,1217,6,1,2247.0999999999767,649280.7000000001,8119,VNB,B,4
5,test,2,0.0,2-Back,1.0,m,Mon Jun 22 2026 13:51:15 GMT-0500 (Central Daylight Time),653626.9,005_o_f_n_a.png,I,m,1079,7,1,2096.5999999999767,651530.3,8119,VNB,B,5
6,test,2,1.0,2-Back,1.0,z,Mon Jun 22 2026 13:51:15 GMT-0500 (Central Daylight Time),655476.8,004_o_m_h_a.png,I,z,820,8,1,1847.1999999999534,653629.6000000001,8119,VNB,B,6
7,test,2,0.0,2-Back,1.0,m,Mon Jun 22 2026 13:51:15 GMT-0500 (Central Daylight Time),657409.0,020_y_f_d_a.png,I,m,906,9,1,1929.5,655479.5,8119,VNB,B,7
8,test,2,0.0,2-Back,1.0,m,Mon Jun 22 2026 13:51:15 GMT-0500 (Central Daylight Time),659241.8,016_y_m_d_a.png,I,m,813,10,1,1830.1999999999534,657411.6000000001,8119,VNB,B,8
9,test,2,0.0,2-Back,1.0,m,Mon Jun 22 2026 13:51:15 GMT-0500 (Central Daylight Time),661391.3,007_m_m_n_a.png,I,m,1125,11,1,2146.5,659244.8,8119,VNB,B,9
10,test,2,0.0,2-Back,1.0,m,Mon Jun 22 2026 13:51:15 GMT-0500 (Central Daylight Time),663623.7000000001,011_m_f_h_a.png,I,m,1206,12,1,2229.70000000007,661394.0,8119,VNB,B,10
11,test,2,1.0,2-Back,1.0,z,Mon Jun 22 2026 13:51:15 GMT-0500 (Central Daylight Time),665573.1000000001,004_o_m_n_a.png,I,z,919,13,1,1946.8000000000466,663626.3,8119,VNB,B,11
12,test,2,0.0,2-Back,1.0,m,Mon Jun 22 2026 13:51:15 GMT-0500 (Central Daylight Time),667472.4,005_o_f_d_a.png,I,m,873,14,1,1897.0999999999767,665575.3,8119,VNB,B,12
13,test,2,0.0,2-Back,1.0,m,Mon Jun 22 2026 13:51:15 GMT-0500 (Central Daylight Time),669455.3,020_y_f_h_a.png,I,m,966,15,1,1980.5,667474.8,8119,VNB,B,13
13,test,2,0.0,2-Back,0.0,z,Mon Jun 22 2026 13:51:15 GMT-0500 (Central Daylight Time),671522.2000000001,007_m_m_d_a.png,I,m,1047,16,1,2063.4000000000233,669458.8,8119,VNB,B,14
14,test,2,0.0,2-Back,1.0,m,Mon Jun 22 2026 13:51:15 GMT-0500 (Central Daylight Time),673637.6000000001,016_y_m_n_a.png,I,m,1094,17,1,2113.0,671524.6000000001,8119,VNB,B,15
15,test,2,1.0,2-Back,1.0,m,Mon Jun 22 2026 13:51:15 GMT-0500 (Central Daylight Time),675886.5,011_m_f_n_a.png,I,m,1217,18,1,2246.5,673640.0,8119,VNB,B,16
0,test,3,1.0,2-Back,,,Mon Jun 22 2026 13:51:15 GMT-0500 (Central Daylight Time),675886.5,004_o_m_n_a.png,I,space,2608,1,1,2246.5,673640.0,8119,VNB,B,0
0,test,3,1.0,2-Back,,,Mon Jun 22 2026 13:51:15 GMT-0500 (Central Daylight Time),675886.5,005_o_f_d_a.png,I,space,2608,2,1,2246.5,673640.0,8119,VNB,B,0
1,test,3,0.0,2-Back,1.0,m,Mon Jun 22 2026 13:51:15 GMT-0500 (Central Daylight Time),685483.5,020_y_f_h_a.png,I,m,904,3,1,1928.2999999999302,683555.2000000001,8119,VNB,B,1
2,test,3,0.0,2-Back,1.0,z,Mon Jun 22 2026 13:51:15 GMT-0500 (Central Daylight Time),687566.1000000001,011_m_f_d_a.png,I,z,1059,4,1,2079.9000000000233,685486.2000000001,8119,VNB,B,2
3,test,3,1.0,2-Back,1.0,m,Mon Jun 22 2026 13:51:15 GMT-0500 (Central Daylight Time),689915.4,016_y_m_n_a.png,I,m,1320,5,1,2346.5999999999767,687568.8,8119,VNB,B,3
4,test,3,0.0,2-Back,1.0,m,Mon Jun 22 2026 13:51:15 GMT-0500 (Central Daylight Time),692131.6000000001,004_o_m_h_a.png,I,m,1187,6,1,2213.9000000000233,689917.7000000001,8119,VNB,B,4
5,test,3,0.0,2-Back,1.0,z,Mon Jun 22 2026 13:51:15 GMT-0500 (Central Daylight Time),694014.0,020_y_f_n_a.png,I,z,851,7,1,1879.7999999999302,692134.2000000001,8119,VNB,B,5
6,test,3,1.0,2-Back,1.0,m,Mon Jun 22 2026 13:51:15 GMT-0500 (Central Daylight Time),696046.8,007_m_m_d_a.png,I,m,1000,8,1,2030.1999999999534,694016.6000000001,8119,VNB,B,6
7,test,3,0.0,2-Back,1.0,m,Mon Jun 22 2026 13:51:15 GMT-0500 (Central Daylight Time),697962.9,016_y_m_d_a.png,I,m,895,9,1,1912.9000000000233,696050.0,8119,VNB,B,7
8,test,3,0.0,2-Back,1.0,m,Mon Jun 22 2026 13:51:15 GMT-0500 (Central Daylight Time),699928.9,005_o_f_h_a.png,I,m,947,10,1,1961.7999999999302,697967.1000000001,8119,VNB,B,8
9,test,3,1.0,2-Back,1.0,m,Mon Jun 22 2026 13:51:15 GMT-0500 (Central Daylight Time),702211.4,011_m_f_n_a.png,I,m,1261,11,1,2279.5,699931.9,8119,VNB,B,9
10,test,3,1.0,2-Back,1.0,z,Mon Jun 22 2026 13:51:15 GMT-0500 (Central Daylight Time),704127.6000000001,007_m_m_h_a.png,I,z,891,12,1,1913.7000000000698,702213.9,8119,VNB,B,10
11,test,3,0.0,2-Back,1.0,m,Mon Jun 22 2026 13:51:15 GMT-0500 (Central Daylight Time),706343.9,020_y_f_d_a.png,I,m,1200,13,1,2213.79999999993,704130.1000000001,8119,VNB,B,11
12,test,3,0.0,2-Back,1.0,m,Mon Jun 22 2026 13:51:15 GMT-0500 (Central Daylight Time),708409.5,005_o_f_n_a.png,I,m,1039,14,1,2063.29999999993,706346.2000000001,8119,VNB,B,12
12,test,3,0.0,2-Back,0.0,z,Mon Jun 22 2026 13:51:15 GMT-0500 (Central Daylight Time),710293.4,004_o_m_d_a.png,I,m,862,15,1,1881.5,708411.9,8119,VNB,B,13
13,test,3,1.0,2-Back,1.0,m,Mon Jun 22 2026 13:51:15 GMT-0500 (Central Daylight Time),712141.8,011_m_f_h_a.png,I,m,826,16,1,1846.0999999999767,710295.7000000001,8119,VNB,B,14
13,test,3,0.0,2-Back,0.0,m,Mon Jun 22 2026 13:51:15 GMT-0500 (Central Daylight Time),713941.2000000001,007_m_m_n_a.png,I,z,769,17,1,1795.8000000000466,712145.4,8119,VNB,B,15
14,test,3,0.0,2-Back,1.0,z,Mon Jun 22 2026 13:51:15 GMT-0500 (Central Daylight Time),716140.5,016_y_m_h_a.png,I,z,1169,18,1,2196.79999999993,713943.7000000001,8119,VNB,B,16
0,test,4,0.0,2-Back,,,Mon Jun 22 2026 13:51:15 GMT-0500 (Central Daylight Time),716140.5,011_m_f_n_a.png,I,space,2322,1,1,2196.79999999993,713943.7000000001,8119,VNB,B,0
0,test,4,0.0,2-Back,,,Mon Jun 22 2026 13:51:15 GMT-0500 (Central Daylight Time),716140.5,004_o_m_n_a.png,I,space,2322,2,1,2196.79999999993,713943.7000000001,8119,VNB,B,0
1,test,4,1.0,2-Back,1.0,m,Mon Jun 22 2026 13:51:15 GMT-0500 (Central Daylight Time),725770.7000000001,016_y_m_h_a.png,I,m,1071,3,1,2096.5999999999767,723674.1000000001,8119,VNB,B,1
2,test,4,1.0,2-Back,1.0,m,Mon Jun 22 2026 13:51:15 GMT-0500 (Central Daylight Time),728053.8,005_o_f_d_a.png,I,m,1252,4,1,2280.3000000000466,725773.5,8119,VNB,B,2
3,test,4,0.0,2-Back,1.0,z,Mon Jun 22 2026 13:51:15 GMT-0500 (Central Daylight Time),729686.2000000001,004_o_m_h_a.png,I,z,609,5,1,1630.0,728056.2000000001,8119,VNB,B,3
4,test,4,0.0,2-Back,1.0,m,Mon Jun 22 2026 13:51:15 GMT-0500 (Central Daylight Time),731702.4,007_m_m_n_a.png,I,m,984,6,1,2012.1999999999534,729690.2000000001,8119,VNB,B,4
4,test,4,0.0,2-Back,0.0,m,Mon Jun 22 2026 13:51:15 GMT-0500 (Central Daylight Time),734001.6000000001,011_m_f_d_a.png,I,z,1272,7,1,2296.3000000000466,731705.3,8119,VNB,B,5
4,test,4,0.0,2-Back,0.0,z,Mon Jun 22 2026 13:51:15 GMT-0500 (Central Daylight Time),736334.2000000001,020_y_f_n_a.png,I,m,1301,8,1,2329.9000000000233,734004.3,8119,VNB,B,6
4,test,4,1.0,2-Back,0.0,m,Mon Jun 22 2026 13:51:15 GMT-0500 (Central Daylight Time),739366.6000000001,005_o_f_h_a.png,I,None,2015,9,1,3029.600000000093,736337.0,8119,VNB,B,7
5,test,4,0.0,2-Back,1.0,m,Mon Jun 22 2026 13:51:15 GMT-0500 (Central Daylight Time),741482.6000000001,007_m_m_h_a.png,I,m,1088,10,1,2113.4000000000233,739369.2000000001,8119,VNB,B,8
6,test,4,0.0,2-Back,1.0,m,Mon Jun 22 2026 13:51:15 GMT-0500 (Central Daylight Time),743615.1000000001,020_y_f_d_a.png,I,m,1107,11,1,2130.100000000093,741485.0,8119,VNB,B,9
7,test,4,0.0,2-Back,1.0,m,Mon Jun 22 2026 13:51:15 GMT-0500 (Central Daylight Time),745831.5,016_y_m_n_a.png,I,m,1183,12,1,2213.6999999999534,743617.8,8119,VNB,B,10
8,test,4,0.0,2-Back,1.0,z,Mon Jun 22 2026 13:51:15 GMT-0500 (Central Daylight Time),747848.1000000001,004_o_m_d_a.png,I,z,983,13,1,2014.2000000000698,745833.9,8119,VNB,B,11
8,test,4,1.0,2-Back,0.0,m,Mon Jun 22 2026 13:51:15 GMT-0500 (Central Daylight Time),750113.3,011_m_f_h_a.png,I,z,1239,14,1,2263.0999999999767,747850.2000000001,8119,VNB,B,12
9,test,4,1.0,2-Back,1.0,m,Mon Jun 22 2026 13:51:15 GMT-0500 (Central Daylight Time),752079.2000000001,020_y_f_h_a.png,I,m,949,15,1,1962.0,750117.2000000001,8119,VNB,B,13
10,test,4,0.0,2-Back,1.0,m,Mon Jun 22 2026 13:51:15 GMT-0500 (Central Daylight Time),754195.1000000001,005_o_f_n_a.png,I,m,1095,16,1,2109.3000000000466,752085.8,8119,VNB,B,14
11,test,4,0.0,2-Back,1.0,m,Mon Jun 22 2026 13:51:15 GMT-0500 (Central Daylight Time),755894.7000000001,016_y_m_d_a.png,I,m,667,17,1,1696.4000000000233,754198.3,8119,VNB,B,15
12,test,4,1.0,2-Back,1.0,m,Mon Jun 22 2026 13:51:15 GMT-0500 (Central Daylight Time),757727.5,007_m_m_d_a.png,I,m,799,18,1,1829.7999999999302,755897.7000000001,8119,VNB,B,16
0,test,5,1.0,2-Back,,,Mon Jun 22 2026 13:51:15 GMT-0500 (Central Daylight Time),757727.5,020_y_f_d_a.png,I,space,2215,1,1,1829.7999999999302,755897.7000000001,8119,VNB,B,0
0,test,5,1.0,2-Back,,,Mon Jun 22 2026 13:51:15 GMT-0500 (Central Daylight Time),757727.5,005_o_f_h_a.png,I,space,2215,2,1,1829.7999999999302,755897.7000000001,8119,VNB,B,0
1,test,5,1.0,2-Back,1.0,z,Mon Jun 22 2026 13:51:15 GMT-0500 (Central Daylight Time),767007.8,004_o_m_d_a.png,I,z,832,3,1,1846.9000000000233,765160.9,8119,VNB,B,1
2,test,5,1.0,2-Back,1.0,m,Mon Jun 22 2026 13:51:15 GMT-0500 (Central Daylight Time),769274.0,011_m_f_n_a.png,I,m,1247,4,1,2263.29999999993,767010.7000000001,8119,VNB,B,2
2,test,5,0.0,2-Back,0.0,m,Mon Jun 22 2026 13:51:15 GMT-0500 (Central Daylight Time),771939.6000000001,007_m_m_h_a.png,I,z,1637,5,1,2663.20000000007,769276.4,8119,VNB,B,3
2,test,5,0.0,2-Back,0.0,z,Mon Jun 22 2026 13:51:15 GMT-0500 (Central Daylight Time),774172.3,020_y_f_n_a.png,I,m,1211,6,1,2230.3000000000466,771942.0,8119,VNB,B,4
3,test,5,0.0,2-Back,1.0,m,Mon Jun 22 2026 13:51:15 GMT-0500 (Central Daylight Time),776421.8,005_o_f_d_a.png,I,m,1226,7,1,2246.6999999999534,774175.1000000001,8119,VNB,B,5
4,test,5,0.0,2-Back,1.0,m,Mon Jun 22 2026 13:51:15 GMT-0500 (Central Daylight Time),778287.7000000001,004_o_m_h_a.png,I,m,849,8,1,1863.3000000000466,776424.4,8119,VNB,B,6
5,test,5,1.0,2-Back,1.0,z,Mon Jun 22 2026 13:51:15 GMT-0500 (Central Daylight Time),780370.4,011_m_f_d_a.png,I,z,1063,9,1,2080.4000000000233,778290.0,8119,VNB,B,7
6,test,5,0.0,2-Back,1.0,m,Mon Jun 22 2026 13:51:15 GMT-0500 (Central Daylight Time),782169.6000000001,016_y_m_n_a.png,I,m,780,10,1,1796.2000000000698,780373.4,8119,VNB,B,8
7,test,5,0.0,2-Back,1.0,m,Mon Jun 22 2026 13:51:15 GMT-0500 (Central Daylight Time),784102.4,007_m_m_n_a.png,I,m,909,11,1,1930.1999999999534,782172.2000000001,8119,VNB,B,9
8,test,5,0.0,2-Back,1.0,m,Mon Jun 22 2026 13:51:15 GMT-0500 (Central Daylight Time),786018.6000000001,020_y_f_h_a.png,I,m,888,12,1,1914.2000000000698,784104.4,8119,VNB,B,10
9,test,5,0.0,2-Back,1.0,m,Mon Jun 22 2026 13:51:15 GMT-0500 (Central Daylight Time),787851.3,016_y_m_d_a.png,I,m,811,13,1,1829.5,786021.8,8119,VNB,B,11
10,test,5,1.0,2-Back,1.0,z,Mon Jun 22 2026 13:51:15 GMT-0500 (Central Daylight Time),789934.0,011_m_f_h_a.png,I,z,1059,14,1,2079.79999999993,787854.2000000001,8119,VNB,B,12
10,test,5,0.0,2-Back,0.0,m,Mon Jun 22 2026 13:51:15 GMT-0500 (Central Daylight Time),791916.6000000001,004_o_m_n_a.png,I,z,960,15,1,1980.0,789936.6000000001,8119,VNB,B,13
11,test,5,0.0,2-Back,1.0,m,Mon Jun 22 2026 13:51:15 GMT-0500 (Central Daylight Time),793665.9,007_m_m_d_a.png,I,m,730,16,1,1746.9000000000233,791919.0,8119,VNB,B,14
12,test,5,0.0,2-Back,1.0,z,Mon Jun 22 2026 13:51:15 GMT-0500 (Central Daylight Time),795698.9,005_o_f_n_a.png,I,z,1004,17,1,2030.5,793668.4,8119,VNB,B,15
13,test,5,1.0,2-Back,1.0,m,Mon Jun 22 2026 13:51:15 GMT-0500 (Central Daylight Time),797748.2000000001,016_y_m_h_a.png,I,m,1020,18,1,2046.8000000000466,795701.4,8119,VNB,B,16
