acc_sum,block,block_c,condition,correct,correct_response,datetime,endtime,flanker,jitter,project,response,response_test_buffer_response,response_test_target_response,response_time,response_time_test_buffer_response,response_time_test_target_response,row_sel,session_number,start_end,starttime,subject_id,target,task,task_vers,time_test_buffer,time_test_buffer_response,time_test_constants,time_test_flanker,time_test_jitter,time_test_logger,time_test_target,time_test_target_response,time_test_variables,trial
0,prac,1,con,0,z,Thu Jan 22 2026 13:00:27 GMT-0600 (Central Standard Time),190339.09999990463,lime,800,I,None,,,1799,,,5,1,4860.700000286102,185478.39999961853,7738,lime,NF,C,,,,,,,,,,1
0,prac,1,inc,0,m,Thu Jan 22 2026 13:00:27 GMT-0600 (Central Standard Time),195502.89999961853,raisin,1100,I,None,,,1800,,,12,1,5160.099999904633,190342.7999997139,7738,cobalt,NF,C,,,,,,,,,,2
0,prac,1,inc,0,m,Thu Jan 22 2026 13:00:27 GMT-0600 (Central Standard Time),200451.19999980927,pear,900,I,None,,,1799,,,14,1,4942.800000190735,195508.39999961853,7738,iron,NF,C,,,,,,,,,,3
0,prac,1,con,0,m,Thu Jan 22 2026 13:00:27 GMT-0600 (Central Standard Time),205337.5,bronze,800,I,None,,,1799,,,9,1,4878.300000190735,200459.19999980927,7738,bronze,NF,C,,,,,,,,,,4
0,prac,1,con,0,z,Thu Jan 22 2026 13:00:27 GMT-0600 (Central Standard Time),210397.39999961853,kiwi,1000,I,None,,,1799,,,7,1,5051.599999904633,205345.7999997139,7738,kiwi,NF,C,,,,,,,,,,5
0,prac,1,inc,0,z,Thu Jan 22 2026 13:00:27 GMT-0600 (Central Standard Time),215361.5,copper,900,I,None,,,1799,,,2,1,4956.5,210405.0,7738,cherry,NF,C,,,,,,,,,,6
0,prac,1,inc,0,z,Thu Jan 22 2026 13:00:27 GMT-0600 (Central Standard Time),220528.69999980927,cobalt,1100,I,None,,,1799,,,4,1,5164.0,215364.69999980927,7738,raisin,NF,C,,,,,,,,,,7
0,prac,1,con,0,z,Thu Jan 22 2026 13:00:27 GMT-0600 (Central Standard Time),225594.19999980927,orange,1000,I,None,,,1799,,,3,1,5057.699999809265,220536.5,7738,orange,NF,C,,,,,,,,,,8
0,prac,1,inc,0,m,Thu Jan 22 2026 13:00:27 GMT-0600 (Central Standard Time),230757.7999997139,plum,1100,I,None,,,1799,,,16,1,5156.799999713898,225601.0,7738,lead,NF,C,,,,,,,,,,9
0,prac,1,con,0,z,Thu Jan 22 2026 13:00:27 GMT-0600 (Central Standard Time),235608.89999961853,banana,800,I,None,,,1800,,,1,1,4844.799999713898,230764.09999990463,7738,banana,NF,C,,,,,,,,,,10
0,prac,1,inc,0,m,Thu Jan 22 2026 13:00:27 GMT-0600 (Central Standard Time),240572.09999990463,cherry,900,I,None,,,1806,,,10,1,4958.800000190735,235613.2999997139,7738,copper,NF,C,,,,,,,,,,11
0,prac,1,con,0,m,Thu Jan 22 2026 13:00:27 GMT-0600 (Central Standard Time),245453.69999980927,gold,800,I,None,,,1814,,,13,1,4876.099999904633,240577.59999990463,7738,gold,NF,C,,,,,,,,,,12
0,prac,1,con,0,m,Thu Jan 22 2026 13:00:27 GMT-0600 (Central Standard Time),250518.69999980927,zinc,1000,I,None,,,1814,,,15,1,5060.400000095367,245458.2999997139,7738,zinc,NF,C,,,,,,,,,,13
0,prac,1,inc,0,z,Thu Jan 22 2026 13:00:27 GMT-0600 (Central Standard Time),255517.0,iron,900,I,None,,,1815,,,6,1,4990.300000190735,250526.69999980927,7738,pear,NF,C,,,,,,,,,,14
0,prac,1,con,0,m,Thu Jan 22 2026 13:00:27 GMT-0600 (Central Standard Time),260597.19999980927,silver,1000,I,None,,,1814,,,11,1,5073.699999809265,255523.5,7738,silver,NF,C,,,,,,,,,,15
0,prac,1,inc,0,z,Thu Jan 22 2026 13:00:27 GMT-0600 (Central Standard Time),265763.69999980927,lead,1100,I,None,,,1800,,,8,1,5163.199999809265,260600.5,7738,plum,NF,C,,,,,,,,,,16
0,prac,2,con,0,m,Thu Jan 22 2026 13:00:27 GMT-0600 (Central Standard Time),277127.69999980927,bronze,800,I,None,,,1799,,,9,1,4847.0,272280.69999980927,7738,bronze,NF,C,,,,,,,,,,1
1,prac,2,con,1,z,Thu Jan 22 2026 13:00:27 GMT-0600 (Central Standard Time),279877.0,orange,1000,I,z,,,454,,,3,1,2743.1000003814697,277133.89999961853,7738,orange,NF,C,,,,,,,,,,2
2,prac,2,con,1,m,Thu Jan 22 2026 13:00:27 GMT-0600 (Central Standard Time),282359.19999980927,gold,800,I,m,,,368,,,13,1,2476.800000190735,279882.39999961853,7738,gold,NF,C,,,,,,,,,,3
3,prac,2,inc,1,z,Thu Jan 22 2026 13:00:27 GMT-0600 (Central Standard Time),285657.0,lead,1100,I,z,,,891,,,8,1,3292.7000002861023,282364.2999997139,7738,plum,NF,C,,,,,,,,,,4
4,prac,2,inc,1,m,Thu Jan 22 2026 13:00:27 GMT-0600 (Central Standard Time),288406.19999980927,pear,900,I,m,,,532,,,14,1,2745.5,285660.69999980927,7738,iron,NF,C,,,,,,,,,,5
5,prac,2,con,1,m,Thu Jan 22 2026 13:00:27 GMT-0600 (Central Standard Time),291141.2999997139,zinc,1000,I,m,,,432,,,15,1,2730.5,288410.7999997139,7738,zinc,NF,C,,,,,,,,,,6
5,prac,2,inc,0,z,Thu Jan 22 2026 13:00:27 GMT-0600 (Central Standard Time),293888.39999961853,cobalt,1100,I,m,,,333,,,4,1,2740.0999999046326,291148.2999997139,7738,raisin,NF,C,,,,,,,,,,7
6,prac,2,inc,1,z,Thu Jan 22 2026 13:00:27 GMT-0600 (Central Standard Time),296838.5,iron,900,I,z,,,745,,,6,1,2946.6000003814697,293891.89999961853,7738,pear,NF,C,,,,,,,,,,8
7,prac,2,inc,1,m,Thu Jan 22 2026 13:00:27 GMT-0600 (Central Standard Time),299686.0,plum,1100,I,m,,,436,,,16,1,2844.5,296841.5,7738,lead,NF,C,,,,,,,,,,9
8,prac,2,inc,1,m,Thu Jan 22 2026 13:00:27 GMT-0600 (Central Standard Time),302569.7999997139,cherry,900,I,m,,,691,,,10,1,2877.9000000953674,299691.89999961853,7738,copper,NF,C,,,,,,,,,,10
8,prac,2,inc,0,z,Thu Jan 22 2026 13:00:27 GMT-0600 (Central Standard Time),305518.19999980927,copper,900,I,m,,,744,,,2,1,2943.5999999046326,302574.59999990463,7738,cherry,NF,C,,,,,,,,,,11
9,prac,2,inc,1,m,Thu Jan 22 2026 13:00:27 GMT-0600 (Central Standard Time),308833.59999990463,raisin,1100,I,m,,,916,,,12,1,3310.5999999046326,305523.0,7738,cobalt,NF,C,,,,,,,,,,12
10,prac,2,con,1,z,Thu Jan 22 2026 13:00:27 GMT-0600 (Central Standard Time),311766.0,lime,800,I,z,,,828,,,5,1,2927.4000000953674,308838.59999990463,7738,lime,NF,C,,,,,,,,,,13
11,prac,2,con,1,m,Thu Jan 22 2026 13:00:27 GMT-0600 (Central Standard Time),314532.19999980927,silver,1000,I,m,,,453,,,11,1,2761.5999999046326,311770.59999990463,7738,silver,NF,C,,,,,,,,,,14
12,prac,2,con,1,z,Thu Jan 22 2026 13:00:27 GMT-0600 (Central Standard Time),317047.09999990463,banana,800,I,z,,,409,,,1,1,2512.2000002861023,314534.89999961853,7738,banana,NF,C,,,,,,,,,,15
13,prac,2,con,1,z,Thu Jan 22 2026 13:00:27 GMT-0600 (Central Standard Time),319729.7999997139,kiwi,1000,I,z,,,373,,,7,1,2676.0999999046326,317053.69999980927,7738,kiwi,NF,C,,,,,,,,,,16
1,test,1,con,1,m,Thu Jan 22 2026 13:00:27 GMT-0600 (Central Standard Time),353069.2999997139,silver,900,I,m,m,None,703,504.0,199.0,82,1,2144.7999997138977,350924.5,7738,silver,NF,C,347606,347606,345976,346888,345977,348121,347406,347406,348121,1
2,test,1,inc,1,m,Thu Jan 22 2026 13:00:27 GMT-0600 (Central Standard Time),355152.19999980927,plum,1100,I,m,m,None,443,243.0,200.0,120,1,2076.5,353075.69999980927,7738,zinc,NF,C,349955,349955,348128,349239,348128,350204,349754,349754,350204,2
3,test,1,inc,1,m,Thu Jan 22 2026 13:00:27 GMT-0600 (Central Standard Time),357234.7999997139,orange,1000,I,m,m,None,544,330.0,214.0,79,1,2077.5,355157.2999997139,7738,copper,NF,C,351942,351942,350209,351220,350210,352287,351727,351727,352287,3
4,test,1,inc,1,m,Thu Jan 22 2026 13:00:27 GMT-0600 (Central Standard Time),359350.59999990463,kiwi,1000,I,m,m,None,577,378.0,199.0,127,1,2110.0,357240.59999990463,7738,lead,NF,C,354020,354020,352293,353305,352293,354403,353821,353821,354403,4
5,test,1,inc,1,m,Thu Jan 22 2026 13:00:27 GMT-0600 (Central Standard Time),361483.0,plum,1100,I,m,m,None,490,290.0,200.0,128,1,2126.1000003814697,359356.89999961853,7738,lead,NF,C,356236,356236,354409,355520,354409,356535,356036,356036,356535,5
6,test,1,con,1,m,Thu Jan 22 2026 13:00:27 GMT-0600 (Central Standard Time),363332.7999997139,lead,900,I,m,m,None,404,205.0,199.0,122,1,1844.7999997138977,361488.0,7738,lead,NF,C,358168,358168,356540,357452,356540,358385,357969,357969,358385,6
6,test,1,inc,0,z,Thu Jan 22 2026 13:00:27 GMT-0600 (Central Standard Time),365048.09999990463,gold,800,I,m,m,None,376,176.0,200.0,61,1,1712.3000001907349,363335.7999997139,7738,plum,NF,C,359918,359918,358388,359201,358388,360100,359718,359718,360100,7
7,test,1,inc,1,m,Thu Jan 22 2026 13:00:27 GMT-0600 (Central Standard Time),367014.09999990463,lime,800,I,m,m,None,620,420.0,200.0,125,1,1963.2000002861023,365050.89999961853,7738,lead,NF,C,361634,361634,360103,360919,360103,362066,361434,361434,362066,8
8,test,1,con,1,z,Thu Jan 22 2026 13:00:27 GMT-0600 (Central Standard Time),369064.09999990463,lime,1100,I,z,z,None,410,209.0,201.0,36,1,2044.4000000953674,367019.69999980927,7738,lime,NF,C,363901,363901,362072,363185,362072,364116,363699,363699,364116,9
9,test,1,inc,1,z,Thu Jan 22 2026 13:00:27 GMT-0600 (Central Standard Time),370913.5,gold,800,I,z,z,None,515,316.0,199.0,45,1,1844.0,369069.5,7738,pear,NF,C,365634,365634,364122,364933,364122,365966,365434,365434,365965,10
10,test,1,inc,1,z,Thu Jan 22 2026 13:00:27 GMT-0600 (Central Standard Time),372932.0,iron,900,I,z,z,None,580,366.0,214.0,38,1,2014.3000001907349,370917.69999980927,7738,lime,NF,C,367600,367600,365970,366883,365970,367984,367386,367386,367984,11
11,test,1,inc,1,m,Thu Jan 22 2026 13:00:27 GMT-0600 (Central Standard Time),375211.89999961853,plum,1100,I,m,m,None,636,437.0,199.0,112,1,2275.0,372936.89999961853,7738,iron,NF,C,369815,369816,367989,369100,367989,370264,369615,369615,370264,12
12,test,1,inc,1,z,Thu Jan 22 2026 13:00:27 GMT-0600 (Central Standard Time),377363.39999961853,zinc,1000,I,z,z,None,599,385.0,214.0,47,1,2147.8999996185303,375215.5,7738,pear,NF,C,372013,372013,370268,371280,370268,372415,371799,371799,372415,13
13,test,1,inc,1,z,Thu Jan 22 2026 13:00:27 GMT-0600 (Central Standard Time),379578.5,cobalt,1100,I,z,z,None,582,367.0,215.0,8,1,2212.5,377366.0,7738,banana,NF,C,374263,374263,372418,373530,372418,374631,374048,374048,374631,14
14,test,1,con,1,z,Thu Jan 22 2026 13:00:27 GMT-0600 (Central Standard Time),381676.89999961853,orange,900,I,z,z,None,656,455.0,201.0,18,1,2095.5999999046326,379581.2999997139,7738,orange,NF,C,376263,376263,374633,375552,374634,376729,376062,376062,376729,15
15,test,1,con,1,m,Thu Jan 22 2026 13:00:27 GMT-0600 (Central Standard Time),383758.7999997139,cobalt,900,I,m,m,None,644,443.0,201.0,90,1,2078.5,381680.2999997139,7738,cobalt,NF,C,378363,378363,376732,377646,376733,378811,378162,378162,378811,16
16,test,1,con,1,m,Thu Jan 22 2026 13:00:27 GMT-0600 (Central Standard Time),385692.2999997139,gold,1000,I,m,m,None,404,190.0,214.0,99,1,1929.7999997138977,383762.5,7738,gold,NF,C,380544,380544,378815,379827,378815,380744,380330,380330,380744,17
17,test,1,inc,1,m,Thu Jan 22 2026 13:00:27 GMT-0600 (Central Standard Time),387809.59999990463,kiwi,1000,I,m,m,None,576,374.0,202.0,119,1,2112.5999999046326,385697.0,7738,zinc,NF,C,382480,382480,380749,381761,380749,382862,382278,382278,382862,18
18,test,1,con,1,z,Thu Jan 22 2026 13:00:27 GMT-0600 (Central Standard Time),389875.5,kiwi,900,I,z,z,None,623,424.0,199.0,50,1,2063.300000190735,387812.19999980927,7738,kiwi,NF,C,384493,384493,382864,383777,382864,384928,384294,384294,384928,19
19,test,1,con,1,z,Thu Jan 22 2026 13:00:27 GMT-0600 (Central Standard Time),391723.7999997139,cherry,800,I,z,z,None,506,291.0,215.0,9,1,1845.5999999046326,389878.19999980927,7738,cherry,NF,C,386476,386476,384930,385743,384930,386776,386261,386261,386776,20
20,test,1,inc,1,m,Thu Jan 22 2026 13:00:27 GMT-0600 (Central Standard Time),393774.19999980927,raisin,1100,I,m,m,None,417,217.0,200.0,72,1,2046.4000000953674,391727.7999997139,7738,bronze,NF,C,388609,388609,386780,387892,386780,388826,388409,388409,388826,21
21,test,1,inc,1,z,Thu Jan 22 2026 13:00:27 GMT-0600 (Central Standard Time),395906.09999990463,lead,1100,I,z,z,None,492,293.0,199.0,48,1,2127.800000190735,393778.2999997139,7738,pear,NF,C,390658,390658,388830,389944,388831,390958,390459,390459,390958,22
22,test,1,inc,1,z,Thu Jan 22 2026 13:00:27 GMT-0600 (Central Standard Time),397972.19999980927,iron,900,I,z,z,None,620,406.0,214.0,54,1,2062.0999999046326,395910.09999990463,7738,kiwi,NF,C,392608,392608,390962,391875,390962,393024,392393,392393,393024,23
23,test,1,inc,1,m,Thu Jan 22 2026 13:00:27 GMT-0600 (Central Standard Time),399937.7999997139,kiwi,1000,I,m,m,None,432,233.0,199.0,111,1,1962.4000000953674,397975.39999961853,7738,iron,NF,C,394741,394741,393027,394040,393028,394990,394541,394541,394990,24
24,test,1,inc,1,z,Thu Jan 22 2026 13:00:27 GMT-0600 (Central Standard Time),402086.89999961853,silver,1000,I,z,z,None,604,403.0,201.0,23,1,2146.3999996185303,399940.5,7738,orange,NF,C,396722,396722,394993,396007,394993,397139,396521,396521,397139,25
25,test,1,inc,1,m,Thu Jan 22 2026 13:00:27 GMT-0600 (Central Standard Time),404268.89999961853,raisin,1100,I,m,m,None,552,339.0,213.0,80,1,2178.8999996185303,402090.0,7738,copper,NF,C,398970,398970,397142,398256,397142,399321,398757,398757,399321,26
26,test,1,con,1,m,Thu Jan 22 2026 13:00:27 GMT-0600 (Central Standard Time),406452.89999961853,iron,1000,I,m,m,None,632,418.0,214.0,107,1,2181.5,404271.39999961853,7738,iron,NF,C,401071,401071,399323,400339,399324,401505,400857,400857,401505,27
27,test,1,con,1,m,Thu Jan 22 2026 13:00:27 GMT-0600 (Central Standard Time),408469.69999980927,iron,1100,I,m,m,None,372,173.0,199.0,108,1,2010.5,406459.19999980927,7738,iron,NF,C,403338,403338,401511,402622,401511,403522,403139,403139,403522,28
28,test,1,inc,1,z,Thu Jan 22 2026 13:00:27 GMT-0600 (Central Standard Time),410636.0,cobalt,1100,I,z,z,None,535,335.0,200.0,24,1,2163.0,408473.0,7738,orange,NF,C,405353,405353,403525,404636,403525,405688,405153,405153,405688,29
29,test,1,inc,1,z,Thu Jan 22 2026 13:00:27 GMT-0600 (Central Standard Time),412983.09999990463,lead,1100,I,z,z,None,710,511.0,199.0,40,1,2341.4000000953674,410641.69999980927,7738,lime,NF,C,407520,407520,405694,406804,405694,408035,407320,407320,408035,30
30,test,1,con,1,z,Thu Jan 22 2026 13:00:27 GMT-0600 (Central Standard Time),415033.89999961853,plum,800,I,z,z,None,711,510.0,201.0,57,1,2046.2999997138977,412987.59999990463,7738,plum,NF,C,409569,409569,408040,408853,408040,410086,409368,409368,410086,31
31,test,1,con,1,z,Thu Jan 22 2026 13:00:27 GMT-0600 (Central Standard Time),416849.0,pear,800,I,z,z,None,467,266.0,201.0,41,1,1812.0,415037.0,7738,pear,NF,C,411620,411620,410089,410904,410089,411901,411418,411418,411901,32
31,test,1,con,0,m,Thu Jan 22 2026 13:00:27 GMT-0600 (Central Standard Time),418748.09999990463,copper,900,I,z,z,None,453,254.0,199.0,74,1,1895.5,416852.59999990463,7738,copper,NF,C,413535,413535,411905,412818,411905,413800,413335,413335,413800,33
32,test,1,con,1,z,Thu Jan 22 2026 13:00:27 GMT-0600 (Central Standard Time),420999.09999990463,pear,1000,I,z,z,None,719,505.0,214.0,43,1,2246.4000000953674,418752.69999980927,7738,pear,NF,C,415532,415532,413805,414817,413805,416051,415318,415318,416051,34
33,test,1,con,1,m,Thu Jan 22 2026 13:00:27 GMT-0600 (Central Standard Time),422914.0,iron,800,I,m,m,None,584,383.0,201.0,105,1,1911.2000002861023,421002.7999997139,7738,iron,NF,C,417583,417583,416055,416867,416055,417966,417382,417382,417966,35
34,test,1,inc,1,z,Thu Jan 22 2026 13:00:27 GMT-0600 (Central Standard Time),424896.89999961853,copper,900,I,z,z,None,545,344.0,201.0,6,1,1979.5,422917.39999961853,7738,banana,NF,C,419599,419599,417969,418882,417970,419949,419398,419398,419949,36
35,test,1,inc,1,m,Thu Jan 22 2026 13:00:27 GMT-0600 (Central Standard Time),427079.2999997139,pear,900,I,m,m,None,734,535.0,199.0,126,1,2176.699999809265,424902.59999990463,7738,lead,NF,C,421582,421582,419955,420865,419955,422131,421382,421382,422131,37
36,test,1,inc,1,m,Thu Jan 22 2026 13:00:27 GMT-0600 (Central Standard Time),429246.7999997139,raisin,1100,I,m,m,None,545,331.0,214.0,96,1,2164.699999809265,427082.09999990463,7738,cobalt,NF,C,423963,423963,422134,423246,422134,424299,423749,423749,424299,38
37,test,1,inc,1,m,Thu Jan 22 2026 13:00:27 GMT-0600 (Central Standard Time),431294.09999990463,kiwi,1000,I,m,m,None,503,289.0,214.0,103,1,2043.8000001907349,429250.2999997139,7738,gold,NF,C,426046,426046,424302,425315,424302,426346,425832,425832,426346,39
38,test,1,inc,1,m,Thu Jan 22 2026 13:00:27 GMT-0600 (Central Standard Time),433542.7999997139,raisin,1100,I,m,m,None,625,426.0,199.0,88,1,2245.4000000953674,431297.39999961853,7738,silver,NF,C,428163,428163,426349,427462,426350,428595,427963,427963,428595,40
39,test,1,inc,1,m,Thu Jan 22 2026 13:00:27 GMT-0600 (Central Standard Time),435561.69999980927,pear,900,I,m,m,None,569,370.0,199.0,102,1,2016.1999998092651,433545.5,7738,gold,NF,C,430228,430228,428598,429511,428598,430614,430029,430029,430614,41
40,test,1,con,1,z,Thu Jan 22 2026 13:00:27 GMT-0600 (Central Standard Time),437477.69999980927,lime,900,I,z,z,None,482,281.0,201.0,34,1,1911.0,435566.69999980927,7738,lime,NF,C,432245,432245,430619,431532,430619,432530,432044,432044,432530,42
41,test,1,con,1,z,Thu Jan 22 2026 13:00:27 GMT-0600 (Central Standard Time),439592.7999997139,banana,1100,I,z,z,None,467,266.0,201.0,4,1,2111.199999809265,437481.59999990463,7738,banana,NF,C,434363,434363,432534,433646,432534,434645,434161,434161,434645,43
42,test,1,con,1,m,Thu Jan 22 2026 13:00:27 GMT-0600 (Central Standard Time),441724.5,cobalt,800,I,m,m,None,799,598.0,201.0,89,1,2124.7000002861023,439599.7999997139,7738,cobalt,NF,C,436178,436178,434652,435461,434652,436777,435976,435976,436777,44
43,test,1,con,1,m,Thu Jan 22 2026 13:00:27 GMT-0600 (Central Standard Time),443775.39999961853,copper,1100,I,m,m,None,413,213.0,200.0,76,1,2041.2999997138977,441734.09999990463,7738,copper,NF,C,438609,438609,436786,437892,436787,438827,438409,438409,438827,45
44,test,1,inc,1,z,Thu Jan 22 2026 13:00:27 GMT-0600 (Central Standard Time),445790.19999980927,bronze,800,I,z,z,None,684,469.0,215.0,21,1,2010.0,443780.19999980927,7738,orange,NF,C,440360,440360,438832,439643,438832,440842,440144,440144,440842,46
45,test,1,inc,1,m,Thu Jan 22 2026 13:00:27 GMT-0600 (Central Standard Time),447856.0,banana,800,I,m,m,None,718,517.0,201.0,93,1,2061.800000190735,445794.19999980927,7738,cobalt,NF,C,442376,442376,440846,441659,440846,442908,442175,442175,442908,47
46,test,1,con,1,m,Thu Jan 22 2026 13:00:27 GMT-0600 (Central Standard Time),449688.7999997139,copper,800,I,m,m,None,484,285.0,199.0,73,1,1828.2999997138977,447860.5,7738,copper,NF,C,444441,444441,442913,443725,442913,444741,444241,444241,444741,48
46,test,1,con,0,z,Thu Jan 22 2026 13:00:27 GMT-0600 (Central Standard Time),451721.0,orange,1100,I,m,m,None,387,185.0,202.0,20,1,2026.1000003814697,449694.89999961853,7738,orange,NF,C,446575,446575,444747,445857,444747,446773,446373,446373,446773,49
47,test,1,con,1,z,Thu Jan 22 2026 13:00:27 GMT-0600 (Central Standard Time),453936.59999990463,cherry,1100,I,z,z,None,566,367.0,199.0,12,1,2209.4000000953674,451727.19999980927,7738,cherry,NF,C,448607,448607,446779,447891,446779,448989,448407,448407,448989,50
48,test,1,inc,1,m,Thu Jan 22 2026 13:00:27 GMT-0600 (Central Standard Time),456072.69999980927,cherry,900,I,m,m,None,687,488.0,199.0,70,1,2131.800000190735,453940.89999961853,7738,bronze,NF,C,450622,450622,448993,449906,448993,451125,450423,450423,451125,51
49,test,1,con,1,m,Thu Jan 22 2026 13:00:27 GMT-0600 (Central Standard Time),458151.7999997139,gold,1100,I,m,m,None,443,244.0,199.0,100,1,2074.2999997138977,456077.5,7738,gold,NF,C,452954,452954,451130,452238,451130,453204,452755,452755,453204,52
50,test,1,inc,1,m,Thu Jan 22 2026 13:00:27 GMT-0600 (Central Standard Time),460102.0,lime,800,I,m,m,None,620,421.0,199.0,109,1,1943.5,458158.5,7738,iron,NF,C,454721,454721,453211,454021,453211,455154,454522,454522,455154,53
51,test,1,inc,1,z,Thu Jan 22 2026 13:00:27 GMT-0600 (Central Standard Time),462251.59999990463,silver,1000,I,z,z,None,622,422.0,200.0,7,1,2145.9000000953674,460105.69999980927,7738,banana,NF,C,456872,456872,455158,456171,455158,457304,456672,456672,457304,54
52,test,1,con,1,m,Thu Jan 22 2026 13:00:27 GMT-0600 (Central Standard Time),464199.59999990463,bronze,800,I,m,m,None,602,401.0,201.0,65,1,1943.9000000953674,462255.69999980927,7738,bronze,NF,C,458836,458836,457308,458121,457308,459252,458635,458635,459252,55
53,test,1,inc,1,z,Thu Jan 22 2026 13:00:27 GMT-0600 (Central Standard Time),466265.7999997139,bronze,800,I,z,z,None,731,532.0,199.0,29,1,2062.7999997138977,464203.0,7738,raisin,NF,C,460785,460785,459255,460072,459255,461318,460586,460586,461318,56
54,test,1,con,1,m,Thu Jan 22 2026 13:00:27 GMT-0600 (Central Standard Time),468232.0,lead,1100,I,m,m,None,333,131.0,202.0,124,1,1961.6000003814697,466270.39999961853,7738,lead,NF,C,463138,463138,461322,462435,461323,463284,462936,462936,463284,57
55,test,1,inc,1,z,Thu Jan 22 2026 13:00:27 GMT-0600 (Central Standard Time),470148.59999990463,iron,900,I,z,z,None,487,288.0,199.0,46,1,1911.2000002861023,468237.39999961853,7738,pear,NF,C,464901,464901,463289,464201,463290,465201,464702,464702,465201,58
56,test,1,inc,1,m,Thu Jan 22 2026 13:00:27 GMT-0600 (Central Standard Time),472132.39999961853,orange,1000,I,m,m,None,456,256.0,200.0,95,1,1978.7999997138977,470153.59999990463,7738,cobalt,NF,C,466917,466917,465206,466216,465206,467184,466717,466717,467184,59
57,test,1,con,1,m,Thu Jan 22 2026 13:00:27 GMT-0600 (Central Standard Time),474315.69999980927,cobalt,1000,I,m,m,None,640,439.0,201.0,91,1,2180.199999809265,472135.5,7738,cobalt,NF,C,468919,468919,467188,468200,467188,469368,468717,468717,469368,60
58,test,1,inc,1,z,Thu Jan 22 2026 13:00:27 GMT-0600 (Central Standard Time),476314.69999980927,copper,900,I,z,z,None,551,351.0,200.0,14,1,1994.4000000953674,474320.2999997139,7738,cherry,NF,C,471000,471000,469372,470284,469373,471367,470799,470799,471367,61
59,test,1,inc,1,z,Thu Jan 22 2026 13:00:27 GMT-0600 (Central Standard Time),478563.59999990463,lead,1100,I,z,z,None,629,416.0,213.0,56,1,2243.2000002861023,476320.39999961853,7738,kiwi,NF,C,473199,473199,471372,472482,471373,473616,472985,472985,473616,62
60,test,1,con,1,m,Thu Jan 22 2026 13:00:27 GMT-0600 (Central Standard Time),480545.59999990463,silver,1100,I,m,m,None,350,149.0,201.0,84,1,1977.8000001907349,478567.7999997139,7738,silver,NF,C,475448,475448,473620,474731,473620,475598,475247,475247,475598,63
61,test,1,inc,1,z,Thu Jan 22 2026 13:00:27 GMT-0600 (Central Standard Time),482677.2999997139,iron,900,I,z,z,None,687,487.0,200.0,62,1,2128.5999999046326,480548.69999980927,7738,plum,NF,C,477230,477230,475601,476515,475601,477729,477030,477030,477729,64
62,test,1,con,1,z,Thu Jan 22 2026 13:00:27 GMT-0600 (Central Standard Time),484727.39999961853,plum,1000,I,z,z,None,509,310.0,199.0,59,1,2046.5,482680.89999961853,7738,plum,NF,C,479463,479463,477733,478746,477733,479779,479264,479264,479779,65
63,test,1,con,1,z,Thu Jan 22 2026 13:00:27 GMT-0600 (Central Standard Time),486659.89999961853,cherry,900,I,z,z,None,488,289.0,199.0,10,1,1929.0,484730.89999961853,7738,cherry,NF,C,481413,481413,479783,480697,479783,481712,481213,481213,481712,66
64,test,1,con,1,z,Thu Jan 22 2026 13:00:27 GMT-0600 (Central Standard Time),488459.89999961853,plum,900,I,z,z,None,364,165.0,199.0,58,1,1795.5999999046326,486664.2999997139,7738,plum,NF,C,483345,483345,481716,482629,481717,483512,483146,483146,483512,67
65,test,1,inc,1,m,Thu Jan 22 2026 13:00:27 GMT-0600 (Central Standard Time),490607.59999990463,lime,800,I,m,m,None,822,608.0,214.0,117,1,2142.7000002861023,488464.89999961853,7738,zinc,NF,C,485046,485046,483517,484328,483517,485660,484831,484832,485660,68
66,test,1,inc,1,z,Thu Jan 22 2026 13:00:27 GMT-0600 (Central Standard Time),492542.09999990463,gold,800,I,z,z,None,595,395.0,200.0,37,1,1929.8000001907349,490612.2999997139,7738,lime,NF,C,487194,487194,485664,486478,485664,487594,486994,486994,487594,69
67,test,1,con,1,z,Thu Jan 22 2026 13:00:27 GMT-0600 (Central Standard Time),494273.2999997139,raisin,800,I,z,z,None,389,174.0,215.0,25,1,1725.6999998092651,492547.59999990463,7738,raisin,NF,C,489143,489143,487600,488410,487600,489325,488928,488928,489325,70
68,test,1,con,1,m,Thu Jan 22 2026 13:00:27 GMT-0600 (Central Standard Time),496140.59999990463,silver,1000,I,m,m,None,330,116.0,214.0,83,1,1864.4000000953674,494276.19999980927,7738,silver,NF,C,491076,491076,489328,490343,489329,491193,490861,490861,491193,71
69,test,1,con,1,z,Thu Jan 22 2026 13:00:27 GMT-0600 (Central Standard Time),498055.7999997139,kiwi,1000,I,z,z,None,375,175.0,200.0,51,1,1911.7999997138977,496144.0,7738,kiwi,NF,C,492927,492927,491196,492209,491196,493108,492726,492726,493108,72
69,test,1,con,0,z,Thu Jan 22 2026 13:00:27 GMT-0600 (Central Standard Time),499822.89999961853,pear,900,I,m,m,None,329,128.0,201.0,42,1,1761.5999999046326,498061.2999997139,7738,pear,NF,C,494742,494742,493113,494025,493114,494875,494541,494541,494875,73
70,test,1,inc,1,m,Thu Jan 22 2026 13:00:27 GMT-0600 (Central Standard Time),501855.19999980927,cherry,900,I,m,m,None,610,411.0,199.0,86,1,2028.5,499826.69999980927,7738,silver,NF,C,496491,496491,494879,495790,494879,496907,496292,496292,496907,74
71,test,1,inc,1,z,Thu Jan 22 2026 13:00:27 GMT-0600 (Central Standard Time),504254.69999980927,cobalt,1100,I,z,z,None,754,554.0,200.0,32,1,2396.699999809265,501858.0,7738,raisin,NF,C,498740,498740,496910,498024,496910,499307,498540,498540,499307,75
72,test,1,inc,1,z,Thu Jan 22 2026 13:00:27 GMT-0600 (Central Standard Time),506453.59999990463,lead,1100,I,z,z,None,562,362.0,200.0,64,1,2194.300000190735,504259.2999997139,7738,plum,NF,C,501140,501140,499311,500423,499311,501506,500940,500940,501506,76
73,test,1,inc,1,m,Thu Jan 22 2026 13:00:27 GMT-0600 (Central Standard Time),508653.0,orange,1000,I,m,m,None,669,453.0,216.0,87,1,2195.7000002861023,506457.2999997139,7738,silver,NF,C,503240,503240,501509,502523,501510,503705,503024,503024,503705,77
74,test,1,con,1,m,Thu Jan 22 2026 13:00:27 GMT-0600 (Central Standard Time),511088.09999990463,lead,800,I,m,m,None,1090,888.0,202.0,121,1,2432.5999999046326,508655.5,7738,lead,NF,C,505239,505239,503708,504521,503708,506140,505037,505037,506140,78
75,test,1,inc,1,m,Thu Jan 22 2026 13:00:27 GMT-0600 (Central Standard Time),513084.5,pear,900,I,m,m,None,553,354.0,199.0,110,1,1993.2000002861023,511091.2999997139,7738,iron,NF,C,507771,507771,506143,507054,506143,508137,507571,507571,508137,79
76,test,1,inc,1,m,Thu Jan 22 2026 13:00:27 GMT-0600 (Central Standard Time),515733.89999961853,cherry,900,I,m,m,None,1203,1004.0,199.0,94,1,2646.3999996185303,513087.5,7738,cobalt,NF,C,509769,509769,508140,509053,508140,510786,509570,509570,510786,80
77,test,1,inc,1,z,Thu Jan 22 2026 13:00:27 GMT-0600 (Central Standard Time),517816.89999961853,zinc,1000,I,z,z,None,533,333.0,200.0,55,1,2079.7999997138977,515737.09999990463,7738,kiwi,NF,C,512520,512520,510789,511805,510789,512869,512319,512319,512869,81
78,test,1,con,1,m,Thu Jan 22 2026 13:00:27 GMT-0600 (Central Standard Time),520132.69999980927,copper,1000,I,m,m,None,778,563.0,215.0,75,1,2310.4000000953674,517822.2999997139,7738,copper,NF,C,514618,514618,512874,513886,512875,515185,514403,514403,515185,82
79,test,1,con,1,m,Thu Jan 22 2026 13:00:27 GMT-0600 (Central Standard Time),522265.5,lead,1000,I,m,m,None,602,399.0,203.0,123,1,2130.0,520135.5,7738,lead,NF,C,516912,516912,515188,516202,515188,517318,516709,516709,517317,83
80,test,1,con,1,m,Thu Jan 22 2026 13:00:27 GMT-0600 (Central Standard Time),524282.69999980927,zinc,1100,I,m,m,None,382,167.0,215.0,116,1,2014.4000000953674,522268.2999997139,7738,zinc,NF,C,519151,519151,517320,518434,517320,519335,518935,518935,519335,84
81,test,1,con,1,z,Thu Jan 22 2026 13:00:27 GMT-0600 (Central Standard Time),526063.5999999046,raisin,900,I,z,z,None,349,135.0,214.0,26,1,1776.2000002861023,524287.39999961853,7738,raisin,NF,C,520966,520966,519339,520250,519340,521116,520752,520752,521116,85
82,test,1,con,1,z,Thu Jan 22 2026 13:00:27 GMT-0600 (Central Standard Time),527914.7999997139,raisin,1000,I,z,z,None,298,83.0,215.0,27,1,1847.7999997138977,526067.0,7738,raisin,NF,C,522866,522866,521119,522133,521119,522967,522651,522651,522967,86
83,test,1,inc,1,z,Thu Jan 22 2026 13:00:27 GMT-0600 (Central Standard Time),530113.1999998093,zinc,1000,I,z,z,None,659,460.0,199.0,63,1,2194.5,527918.6999998093,7738,plum,NF,C,524698,524698,522971,523983,522971,525165,524499,524499,525165,87
84,test,1,con,1,z,Thu Jan 22 2026 13:00:27 GMT-0600 (Central Standard Time),532061.7999997139,lime,1000,I,z,z,None,410,211.0,199.0,35,1,1945.7999997138977,530116.0,7738,lime,NF,C,526898,526898,525168,526182,525168,527114,526699,526699,527114,88
85,test,1,con,1,z,Thu Jan 22 2026 13:00:27 GMT-0600 (Central Standard Time),533945.1999998093,banana,900,I,z,z,None,440,240.0,200.0,2,1,1880.8000001907349,532064.3999996185,7738,banana,NF,C,528749,528749,527116,528032,527117,528997,528548,528548,528997,89
86,test,1,con,1,z,Thu Jan 22 2026 13:00:27 GMT-0600 (Central Standard Time),536012.0999999046,plum,1100,I,z,z,None,432,231.0,201.0,60,1,2062.5,533949.5999999046,7738,plum,NF,C,530831,530831,529002,530114,529002,531064,530630,530630,531064,90
87,test,1,con,1,m,Thu Jan 22 2026 13:00:27 GMT-0600 (Central Standard Time),537793.8999996185,zinc,800,I,m,m,None,442,241.0,201.0,113,1,1778.1999998092651,536015.6999998093,7738,zinc,NF,C,532597,532597,531068,531880,531068,532846,532396,532396,532846,91
87,test,1,inc,0,z,Thu Jan 22 2026 13:00:27 GMT-0600 (Central Standard Time),539493.5,bronze,800,I,m,m,None,362,163.0,199.0,5,1,1696.9000000953674,537796.5999999046,7738,banana,NF,C,534379,534379,532849,533663,532849,534546,534180,534180,534546,92
88,test,1,con,1,z,Thu Jan 22 2026 13:00:27 GMT-0600 (Central Standard Time),541525.7999997139,orange,800,I,z,z,None,696,496.0,200.0,17,1,2028.0,539497.7999997139,7738,orange,NF,C,536078,536078,534550,535363,534550,536578,535878,535878,536578,93
89,test,1,inc,1,m,Thu Jan 22 2026 13:00:27 GMT-0600 (Central Standard Time),543694.0,pear,900,I,m,m,None,721,521.0,200.0,118,1,2165.4000000953674,541528.5999999046,7738,zinc,NF,C,538212,538212,536581,537495,536581,538746,538011,538011,538746,94
90,test,1,con,1,z,Thu Jan 22 2026 13:00:27 GMT-0600 (Central Standard Time),545774.0,cherry,1000,I,z,z,None,535,317.0,218.0,11,1,2075.5,543698.5,7738,cherry,NF,C,540496,540496,538751,539761,538751,540826,540277,540277,540826,95
91,test,1,con,1,z,Thu Jan 22 2026 13:00:27 GMT-0600 (Central Standard Time),547706.5999999046,orange,1000,I,z,z,None,388,188.0,200.0,19,1,1927.2000002861023,545779.3999996185,7738,orange,NF,C,542561,542561,540831,541844,540832,542759,542360,542360,542759,96
92,test,1,inc,1,m,Thu Jan 22 2026 13:00:27 GMT-0600 (Central Standard Time),549972.7999997139,plum,1100,I,m,m,None,620,420.0,200.0,104,1,2262.699999809265,547710.0999999046,7738,gold,NF,C,544593,544593,542762,543878,542762,545025,544393,544393,545025,97
93,test,1,con,1,z,Thu Jan 22 2026 13:00:27 GMT-0600 (Central Standard Time),551839.3999996185,banana,800,I,z,z,None,526,326.0,200.0,1,1,1863.6999998092651,549975.6999998093,7738,banana,NF,C,546559,546559,545028,545842,545028,546891,546359,546359,546891,98
94,test,1,inc,1,m,Thu Jan 22 2026 13:00:27 GMT-0600 (Central Standard Time),553740.0999999046,banana,800,I,m,m,None,565,366.0,199.0,77,1,1896.0999999046326,551844.0,7738,copper,NF,C,548426,548426,546896,547709,546896,548792,548226,548226,548792,99
95,test,1,inc,1,m,Thu Jan 22 2026 13:00:27 GMT-0600 (Central Standard Time),556287.6999998093,orange,1000,I,m,m,None,1002,800.0,202.0,71,1,2544.800000190735,553742.8999996185,7738,bronze,NF,C,550526,550526,548795,549808,548795,551340,550324,550324,551340,100
96,test,1,inc,1,z,Thu Jan 22 2026 13:00:27 GMT-0600 (Central Standard Time),558253.5,gold,800,I,z,z,None,642,429.0,213.0,53,1,1958.6000003814697,556294.8999996185,7738,kiwi,NF,C,552873,552873,551347,552156,551347,553306,552659,552659,553306,101
97,test,1,con,1,z,Thu Jan 22 2026 13:00:27 GMT-0600 (Central Standard Time),560736.5,pear,1100,I,z,z,None,841,641.0,200.0,44,1,2475.300000190735,558261.1999998093,7738,pear,NF,C,555140,555140,553313,554422,553314,555789,554939,554939,555788,102
98,test,1,inc,1,z,Thu Jan 22 2026 13:00:27 GMT-0600 (Central Standard Time),562953.1999998093,silver,1000,I,z,z,None,677,477.0,200.0,31,1,2212.0999999046326,560741.0999999046,7738,raisin,NF,C,557521,557521,555793,556805,555793,558005,557321,557321,558005,103
99,test,1,con,1,z,Thu Jan 22 2026 13:00:27 GMT-0600 (Central Standard Time),565450.5,lime,800,I,z,z,None,1154,955.0,199.0,33,1,2490.300000190735,562960.1999998093,7738,lime,NF,C,559538,559538,558012,558822,558013,560503,559338,559338,560503,104
100,test,1,con,1,m,Thu Jan 22 2026 13:00:27 GMT-0600 (Central Standard Time),567451.0,cobalt,1100,I,m,m,None,364,165.0,199.0,92,1,1997.2000002861023,565453.7999997139,7738,cobalt,NF,C,562337,562337,560506,561621,560506,562503,562138,562138,562503,105
100,test,1,inc,0,m,Thu Jan 22 2026 13:00:27 GMT-0600 (Central Standard Time),569216.1999998093,banana,800,I,z,z,None,417,215.0,202.0,69,1,1758.4000000953674,567457.7999997139,7738,bronze,NF,C,564038,564038,562510,563323,562510,564268,563836,563836,564268,106
101,test,1,inc,1,z,Thu Jan 22 2026 13:00:27 GMT-0600 (Central Standard Time),571516.8999996185,copper,900,I,z,z,None,863,664.0,199.0,22,1,2294.0,569222.8999996185,7738,orange,NF,C,565902,565902,564275,565185,564275,566569,565703,565703,566569,107
102,test,1,con,1,z,Thu Jan 22 2026 13:00:27 GMT-0600 (Central Standard Time),573515.2999997139,banana,1000,I,z,z,None,462,263.0,199.0,3,1,1990.5,571524.7999997139,7738,banana,NF,C,568302,568302,566577,567585,566577,568567,568102,568102,568567,108
103,test,1,inc,1,z,Thu Jan 22 2026 13:00:27 GMT-0600 (Central Standard Time),575614.7999997139,copper,900,I,z,z,None,677,477.0,200.0,30,1,2096.5,573518.2999997139,7738,raisin,NF,C,570185,570185,568570,569472,568570,570667,569984,569984,570667,109
104,test,1,inc,1,z,Thu Jan 22 2026 13:00:27 GMT-0600 (Central Standard Time),577667.5999999046,silver,1000,I,z,z,None,518,318.0,200.0,15,1,2045.0999999046326,575622.5,7738,cherry,NF,C,572400,572400,570675,571683,570675,572720,572200,572200,572720,110
105,test,1,inc,1,m,Thu Jan 22 2026 13:00:27 GMT-0600 (Central Standard Time),579696.5999999046,banana,800,I,m,m,None,684,485.0,199.0,85,1,2023.9000000953674,577672.6999998093,7738,silver,NF,C,574249,574249,572725,573534,572725,574749,574050,574050,574749,111
106,test,1,con,1,m,Thu Jan 22 2026 13:00:27 GMT-0600 (Central Standard Time),582047.0,zinc,1000,I,m,m,None,812,612.0,200.0,115,1,2345.9000000953674,579701.0999999046,7738,zinc,NF,C,576482,576482,574753,575767,574753,577099,576282,576282,577099,112
107,test,1,inc,1,z,Thu Jan 22 2026 13:00:27 GMT-0600 (Central Standard Time),584196.0999999046,zinc,1000,I,z,z,None,606,406.0,200.0,39,1,2142.4000000953674,582053.6999998093,7738,lime,NF,C,578832,578832,577106,578115,577106,579248,578632,578632,579248,113
108,test,1,con,1,m,Thu Jan 22 2026 13:00:27 GMT-0600 (Central Standard Time),586411.2999997139,zinc,900,I,m,m,None,772,571.0,201.0,114,1,2210.0999999046326,584201.1999998093,7738,zinc,NF,C,580883,580883,579253,580164,579253,581463,580682,580682,581463,114
109,test,1,inc,1,z,Thu Jan 22 2026 13:00:27 GMT-0600 (Central Standard Time),588311.1999998093,bronze,800,I,z,z,None,569,369.0,200.0,13,1,1893.6999998092651,586417.5,7738,cherry,NF,C,582981,582981,581469,582280,581470,583363,582781,582781,583363,115
110,test,1,inc,1,m,Thu Jan 22 2026 13:00:27 GMT-0600 (Central Standard Time),590176.7999997139,lime,800,I,m,m,None,517,317.0,200.0,101,1,1863.0999999046326,588313.6999998093,7738,gold,NF,C,584897,584897,583366,584180,583366,585229,584697,584697,585229,116
111,test,1,con,1,m,Thu Jan 22 2026 13:00:27 GMT-0600 (Central Standard Time),592509.3999996185,bronze,1100,I,m,m,None,701,486.0,215.0,68,1,2327.3999996185303,590182.0,7738,bronze,NF,C,587063,587063,585234,586346,585234,587562,586847,586847,587561,117
112,test,1,inc,1,z,Thu Jan 22 2026 13:00:27 GMT-0600 (Central Standard Time),594758.8999996185,cobalt,1100,I,z,z,None,612,411.0,201.0,16,1,2246.7999997138977,592512.0999999046,7738,cherry,NF,C,589396,589396,587564,588678,587564,589811,589194,589194,589811,118
113,test,1,con,1,m,Thu Jan 22 2026 13:00:27 GMT-0600 (Central Standard Time),596442.0999999046,gold,800,I,m,m,None,358,159.0,199.0,97,1,1680.2000002861023,594761.8999996185,7738,gold,NF,C,591327,591327,589814,590626,589814,591494,591128,591128,591494,119
113,test,1,con,0,m,Thu Jan 22 2026 13:00:27 GMT-0600 (Central Standard Time),598641.5,bronze,900,I,z,z,None,758,559.0,199.0,66,1,2197.1000003814697,596444.3999996185,7738,bronze,NF,C,593127,593127,591496,592412,591497,593694,592927,592928,593693,120
113,test,1,inc,0,m,Thu Jan 22 2026 13:00:27 GMT-0600 (Central Standard Time),600590.5999999046,cherry,900,I,z,z,None,514,313.0,201.0,78,1,1945.0999999046326,598645.5,7738,copper,NF,C,595327,595327,593698,594609,593698,595643,595126,595126,595643,121
114,test,1,con,1,m,Thu Jan 22 2026 13:00:27 GMT-0600 (Central Standard Time),602709.3999996185,iron,900,I,m,m,None,675,475.0,200.0,106,1,2113.199999809265,600596.1999998093,7738,iron,NF,C,597275,597275,595648,596559,595648,597761,597075,597075,597761,122
115,test,1,con,1,z,Thu Jan 22 2026 13:00:27 GMT-0600 (Central Standard Time),604755.5,kiwi,1100,I,z,z,None,415,215.0,200.0,52,1,2043.2000002861023,602712.2999997139,7738,kiwi,NF,C,599592,599592,597764,598876,597764,599808,599391,599391,599808,123
116,test,1,con,1,z,Thu Jan 22 2026 13:00:27 GMT-0600 (Central Standard Time),607055.6999998093,kiwi,800,I,z,z,None,952,750.0,202.0,49,1,2297.5,604758.1999998093,7738,kiwi,NF,C,601343,601343,599810,600626,599810,602108,601141,601141,602108,124
117,test,1,con,1,m,Thu Jan 22 2026 13:00:27 GMT-0600 (Central Standard Time),608821.7999997139,silver,800,I,m,m,None,427,213.0,214.0,81,1,1761.6999998092651,607060.0999999046,7738,silver,NF,C,603657,603657,602112,602925,602112,603874,603443,603443,603874,125
117,test,1,con,0,z,Thu Jan 22 2026 13:00:27 GMT-0600 (Central Standard Time),610870.3999996185,raisin,1100,I,m,m,None,419,204.0,215.0,28,1,2045.0,608825.3999996185,7738,raisin,NF,C,605706,605706,603877,604989,603878,605923,605491,605491,605922,126
118,test,1,con,1,m,Thu Jan 22 2026 13:00:27 GMT-0600 (Central Standard Time),612753.0999999046,gold,900,I,m,m,None,442,243.0,199.0,98,1,1878.5,610874.5999999046,7738,gold,NF,C,607555,607555,605927,606840,605927,607805,607355,607356,607805,127
119,test,1,con,1,m,Thu Jan 22 2026 13:00:27 GMT-0600 (Central Standard Time),614685.5,bronze,1000,I,m,m,None,394,194.0,200.0,67,1,1929.4000000953674,612756.0999999046,7738,bronze,NF,C,609538,609539,607808,608822,607808,609738,609338,609338,609737,128
