block_c,block_dur,condition,countdown,datetime,endtime,list,multichar_response,project,response,response_time,session_number,start_end,starttime,subject_id,task,task_vers,trial
,,,,Fri Jul 18 2025 12:03:00 GMT-0500 (Central Daylight Time),,,,I,space,458,3,,,8011,WL,A,
prac,,0,,Fri Jul 18 2025 12:03:00 GMT-0500 (Central Daylight Time),,NA,b,I,b,2734,3,,,8011,WL,A,1.0
prac,,0,,Fri Jul 18 2025 12:03:00 GMT-0500 (Central Daylight Time),,NA,bo,I,o,373,3,,,8011,WL,A,1.0
prac,,0,,Fri Jul 18 2025 12:03:00 GMT-0500 (Central Daylight Time),,NA,boo,I,o,181,3,,,8011,WL,A,1.0
prac,,0,,Fri Jul 18 2025 12:03:00 GMT-0500 (Central Daylight Time),,NA,boos,I,s,182,3,,,8011,WL,A,1.0
prac,,0,,Fri Jul 18 2025 12:03:00 GMT-0500 (Central Daylight Time),,NA,boost,I,t,535,3,,,8011,WL,A,1.0
prac,,0,,Fri Jul 18 2025 12:03:00 GMT-0500 (Central Daylight Time),,NA,boostenter,I,enter,1334,3,,,8011,WL,A,1.0
1,1.001999855041504,learn,58998.000144958496,Fri Jul 18 2025 12:03:00 GMT-0500 (Central Daylight Time),95518.39999997616,A,t,I,t,982,3,1001.7999999523163,94516.60000002384,8011,WL,A,1.0
1,1.2330000400543213,learn,58766.99995994568,Fri Jul 18 2025 12:03:00 GMT-0500 (Central Daylight Time),95749.10000002384,A,tr,I,r,212,3,1232.5,94516.60000002384,8011,WL,A,1.0
1,1.3999998569488525,learn,58600.00014305115,Fri Jul 18 2025 12:03:00 GMT-0500 (Central Daylight Time),95916.5,A,tra,I,a,148,3,1399.8999999761581,94516.60000002384,8011,WL,A,1.0
1,1.5339999198913574,learn,58466.00008010864,Fri Jul 18 2025 12:03:00 GMT-0500 (Central Daylight Time),96050.0,A,trai,I,i,120,3,1533.3999999761581,94516.60000002384,8011,WL,A,1.0
1,1.6159999370574951,learn,58384.000062942505,Fri Jul 18 2025 12:03:00 GMT-0500 (Central Daylight Time),96132.29999995232,A,train,I,n,75,3,1615.6999999284744,94516.60000002384,8011,WL,A,1.0
1,1.9159998893737793,learn,58084.00011062622,Fri Jul 18 2025 12:03:00 GMT-0500 (Central Daylight Time),96432.69999992847,A,trainenter,I,enter,278,3,1916.0999999046326,94516.60000002384,8011,WL,A,1.0
1,2.133999824523926,learn,57866.000175476074,Fri Jul 18 2025 12:03:00 GMT-0500 (Central Daylight Time),96650.89999997616,A,m,I,m,204,3,217.70000004768372,96433.19999992847,8011,WL,A,2.0
1,2.2319998741149902,learn,57768.00012588501,Fri Jul 18 2025 12:03:00 GMT-0500 (Central Daylight Time),96748.79999995232,A,me,I,e,82,3,315.60000002384186,96433.19999992847,8011,WL,A,2.0
1,2.4159998893737793,learn,57584.00011062622,Fri Jul 18 2025 12:03:00 GMT-0500 (Central Daylight Time),96932.19999992847,A,mea,I,a,177,3,499.0,96433.19999992847,8011,WL,A,2.0
1,2.5339999198913574,learn,57466.00008010864,Fri Jul 18 2025 12:03:00 GMT-0500 (Central Daylight Time),97050.79999995232,A,mead,I,d,104,3,617.6000000238419,96433.19999992847,8011,WL,A,2.0
1,2.6669998168945312,learn,57333.00018310547,Fri Jul 18 2025 12:03:00 GMT-0500 (Central Daylight Time),97183.10000002384,A,meado,I,o,113,3,749.9000000953674,96433.19999992847,8011,WL,A,2.0
1,2.815999984741211,learn,57184.00001525879,Fri Jul 18 2025 12:03:00 GMT-0500 (Central Daylight Time),97332.79999995232,A,meadow,I,w,144,3,899.6000000238419,96433.19999992847,8011,WL,A,2.0
1,3.748999834060669,learn,56251.00016593933,Fri Jul 18 2025 12:03:00 GMT-0500 (Central Daylight Time),98265.60000002384,A,meadowenter,I,enter,919,3,1832.4000000953674,96433.19999992847,8011,WL,A,2.0
1,4.733000040054321,learn,55266.99995994568,Fri Jul 18 2025 12:03:00 GMT-0500 (Central Daylight Time),99249.19999992847,A,r,I,r,962,3,983.1999999284744,98266.0,8011,WL,A,3.0
1,4.848999977111816,learn,55151.00002288818,Fri Jul 18 2025 12:03:00 GMT-0500 (Central Daylight Time),99365.69999992847,A,ru,I,u,100,3,1099.6999999284744,98266.0,8011,WL,A,3.0
1,5.016000032424927,learn,54983.99996757507,Fri Jul 18 2025 12:03:00 GMT-0500 (Central Daylight Time),99532.5,A,rug,I,g,145,3,1266.5,98266.0,8011,WL,A,3.0
1,5.431999921798706,learn,54568.000078201294,Fri Jul 18 2025 12:03:00 GMT-0500 (Central Daylight Time),99948.0,A,rugenter,I,enter,410,3,1682.0,98266.0,8011,WL,A,3.0
1,5.96399998664856,learn,54036.00001335144,Fri Jul 18 2025 12:03:00 GMT-0500 (Central Daylight Time),100480.79999995232,A,b,I,b,520,3,532.3999999761581,99948.39999997616,8011,WL,A,4.0
1,6.263999938964844,learn,53736.000061035156,Fri Jul 18 2025 12:03:00 GMT-0500 (Central Daylight Time),100780.79999995232,A,bo,I,o,283,3,832.3999999761581,99948.39999997616,8011,WL,A,4.0
1,6.415999889373779,learn,53584.00011062622,Fri Jul 18 2025 12:03:00 GMT-0500 (Central Daylight Time),100932.39999997616,A,boo,I,o,136,3,984.0,99948.39999997616,8011,WL,A,4.0
1,6.598999977111816,learn,53401.00002288818,Fri Jul 18 2025 12:03:00 GMT-0500 (Central Daylight Time),101115.29999995232,A,book,I,k,168,3,1166.8999999761581,99948.39999997616,8011,WL,A,4.0
1,7.047999858856201,learn,52952.0001411438,Fri Jul 18 2025 12:03:00 GMT-0500 (Central Daylight Time),101564.69999992847,A,bookenter,I,enter,430,3,1616.2999999523163,99948.39999997616,8011,WL,A,4.0
1,7.38100004196167,learn,52618.99995803833,Fri Jul 18 2025 12:03:00 GMT-0500 (Central Daylight Time),101897.60000002384,A,f,I,f,320,3,332.40000009536743,101565.19999992847,8011,WL,A,5.0
1,7.497999906539917,learn,52502.00009346008,Fri Jul 18 2025 12:03:00 GMT-0500 (Central Daylight Time),102014.60000002384,A,fl,I,l,99,3,449.40000009536743,101565.19999992847,8011,WL,A,5.0
1,7.730999946594238,learn,52269.00005340576,Fri Jul 18 2025 12:03:00 GMT-0500 (Central Daylight Time),102247.79999995232,A,flo,I,o,212,3,682.6000000238419,101565.19999992847,8011,WL,A,5.0
1,7.796999931335449,learn,52203.00006866455,Fri Jul 18 2025 12:03:00 GMT-0500 (Central Daylight Time),102313.0,A,flow,I,w,43,3,747.8000000715256,101565.19999992847,8011,WL,A,5.0
1,7.863999843597412,learn,52136.00015640259,Fri Jul 18 2025 12:03:00 GMT-0500 (Central Daylight Time),102380.29999995232,A,flowe,I,e,48,3,815.1000000238419,101565.19999992847,8011,WL,A,5.0
1,8.113999843597412,learn,51886.00015640259,Fri Jul 18 2025 12:03:00 GMT-0500 (Central Daylight Time),102630.0,A,flower,I,r,231,3,1064.8000000715256,101565.19999992847,8011,WL,A,5.0
1,8.330999851226807,learn,51669.00014877319,Fri Jul 18 2025 12:03:00 GMT-0500 (Central Daylight Time),102847.89999997616,A,flowerenter,I,enter,205,3,1282.7000000476837,101565.19999992847,8011,WL,A,5.0
1,8.896999835968018,learn,51103.00016403198,Fri Jul 18 2025 12:03:00 GMT-0500 (Central Daylight Time),103413.69999992847,A,h,I,h,544,3,565.5,102848.19999992847,8011,WL,A,6.0
1,8.91100001335144,learn,51088.99998664856,Fri Jul 18 2025 12:03:00 GMT-0500 (Central Daylight Time),103427.79999995232,A,ha,I,a,6,3,579.6000000238419,102848.19999992847,8011,WL,A,6.0
1,9.063999891281128,learn,50936.00010871887,Fri Jul 18 2025 12:03:00 GMT-0500 (Central Daylight Time),103580.60000002384,A,har,I,r,139,3,732.4000000953674,102848.19999992847,8011,WL,A,6.0
1,9.246999979019165,learn,50753.000020980835,Fri Jul 18 2025 12:03:00 GMT-0500 (Central Daylight Time),103763.89999997616,A,harp,I,p,164,3,915.7000000476837,102848.19999992847,8011,WL,A,6.0
1,9.69599986076355,learn,50304.00013923645,Fri Jul 18 2025 12:03:00 GMT-0500 (Central Daylight Time),104212.79999995232,A,harpenter,I,enter,433,3,1364.6000000238419,102848.19999992847,8011,WL,A,6.0
1,12.161999940872192,learn,47838.00005912781,Fri Jul 18 2025 12:03:00 GMT-0500 (Central Daylight Time),106678.39999997616,A,l,I,l,2454,3,2465.2999999523163,104213.10000002384,8011,WL,A,7.0
1,12.414000034332275,learn,47585.999965667725,Fri Jul 18 2025 12:03:00 GMT-0500 (Central Daylight Time),106930.60000002384,A,lo,I,o,233,3,2717.5,104213.10000002384,8011,WL,A,7.0
1,12.562999963760376,learn,47437.000036239624,Fri Jul 18 2025 12:03:00 GMT-0500 (Central Daylight Time),107079.89999997616,A,log,I,g,130,3,2866.7999999523163,104213.10000002384,8011,WL,A,7.0
1,12.812999963760376,learn,47187.000036239624,Fri Jul 18 2025 12:03:00 GMT-0500 (Central Daylight Time),107328.89999997616,A,logenter,I,enter,236,3,3115.7999999523163,104213.10000002384,8011,WL,A,7.0
1,13.212999820709229,learn,46787.00017929077,Fri Jul 18 2025 12:03:00 GMT-0500 (Central Daylight Time),107729.89999997616,A,c,I,c,379,3,400.7000000476837,107329.19999992847,8011,WL,A,8.0
1,13.42799997329712,learn,46572.00002670288,Fri Jul 18 2025 12:03:00 GMT-0500 (Central Daylight Time),107944.79999995232,A,ch,I,h,203,3,615.6000000238419,107329.19999992847,8011,WL,A,8.0
1,13.529000043869019,learn,46470.99995613098,Fri Jul 18 2025 12:03:00 GMT-0500 (Central Daylight Time),108045.69999992847,A,chi,I,i,84,3,716.5,107329.19999992847,8011,WL,A,8.0
1,13.829999923706055,learn,46170.000076293945,Fri Jul 18 2025 12:03:00 GMT-0500 (Central Daylight Time),108346.19999992847,A,chim,I,m,279,3,1017.0,107329.19999992847,8011,WL,A,8.0
1,13.978999853134155,learn,46021.000146865845,Fri Jul 18 2025 12:03:00 GMT-0500 (Central Daylight Time),108495.39999997616,A,chime,I,e,138,3,1166.2000000476837,107329.19999992847,8011,WL,A,8.0
1,14.096999883651733,learn,45903.00011634827,Fri Jul 18 2025 12:03:00 GMT-0500 (Central Daylight Time),108613.29999995232,A,chimen,I,n,102,3,1284.1000000238419,107329.19999992847,8011,WL,A,8.0
1,14.911999940872192,learn,45088.00005912781,Fri Jul 18 2025 12:03:00 GMT-0500 (Central Daylight Time),109428.79999995232,A,chime,I,backspace,796,3,2099.600000023842,107329.19999992847,8011,WL,A,8.0
1,15.029000043869019,learn,44970.99995613098,Fri Jul 18 2025 12:03:00 GMT-0500 (Central Daylight Time),109545.60000002384,A,chim,I,backspace,95,3,2216.4000000953674,107329.19999992847,8011,WL,A,8.0
1,15.27999997138977,learn,44720.00002861023,Fri Jul 18 2025 12:03:00 GMT-0500 (Central Daylight Time),109796.29999995232,A,chimn,I,n,229,3,2467.100000023842,107329.19999992847,8011,WL,A,8.0
1,15.378999948501587,learn,44621.00005149841,Fri Jul 18 2025 12:03:00 GMT-0500 (Central Daylight Time),109895.79999995232,A,chimne,I,e,79,3,2566.600000023842,107329.19999992847,8011,WL,A,8.0
1,15.546000003814697,learn,44453.9999961853,Fri Jul 18 2025 12:03:00 GMT-0500 (Central Daylight Time),110062.19999992847,A,chimney,I,y,149,3,2733.0,107329.19999992847,8011,WL,A,8.0
1,15.845999956130981,learn,44154.00004386902,Fri Jul 18 2025 12:03:00 GMT-0500 (Central Daylight Time),110362.39999997616,A,chimneyenter,I,enter,287,3,3033.2000000476837,107329.19999992847,8011,WL,A,8.0
1,16.030999898910522,learn,43969.00010108948,Fri Jul 18 2025 12:03:00 GMT-0500 (Central Daylight Time),110546.89999997616,A,r,I,r,163,3,184.20000004768372,110362.69999992847,8011,WL,A,9.0
1,16.17899990081787,learn,43821.00009918213,Fri Jul 18 2025 12:03:00 GMT-0500 (Central Daylight Time),110695.69999992847,A,ra,I,a,139,3,333.0,110362.69999992847,8011,WL,A,9.0
1,16.444999933242798,learn,43555.0000667572,Fri Jul 18 2025 12:03:00 GMT-0500 (Central Daylight Time),110961.39999997616,A,rat,I,t,253,3,598.7000000476837,110362.69999992847,8011,WL,A,9.0
1,16.611999988555908,learn,43388.00001144409,Fri Jul 18 2025 12:03:00 GMT-0500 (Central Daylight Time),111128.19999992847,A,ratt,I,t,148,3,765.5,110362.69999992847,8011,WL,A,9.0
1,16.730000019073486,learn,43269.999980926514,Fri Jul 18 2025 12:03:00 GMT-0500 (Central Daylight Time),111246.29999995232,A,rattl,I,l,112,3,883.6000000238419,110362.69999992847,8011,WL,A,9.0
1,16.895999908447266,learn,43104.000091552734,Fri Jul 18 2025 12:03:00 GMT-0500 (Central Daylight Time),111412.19999992847,A,rattle,I,e,144,3,1049.5,110362.69999992847,8011,WL,A,9.0
1,17.359999895095825,learn,42640.000104904175,Fri Jul 18 2025 12:03:00 GMT-0500 (Central Daylight Time),111876.0,A,rattleenter,I,enter,448,3,1513.3000000715256,110362.69999992847,8011,WL,A,9.0
1,17.628000020980835,learn,42371.999979019165,Fri Jul 18 2025 12:03:00 GMT-0500 (Central Daylight Time),112144.19999992847,A,k,I,k,258,3,267.89999997615814,111876.29999995232,8011,WL,A,10.0
1,17.744999885559082,learn,42255.00011444092,Fri Jul 18 2025 12:03:00 GMT-0500 (Central Daylight Time),112261.69999992847,A,ke,I,e,100,3,385.39999997615814,111876.29999995232,8011,WL,A,10.0
1,17.944999933242798,learn,42055.0000667572,Fri Jul 18 2025 12:03:00 GMT-0500 (Central Daylight Time),112461.69999992847,A,key,I,y,193,3,585.3999999761581,111876.29999995232,8011,WL,A,10.0
1,18.51099991798401,learn,41489.00008201599,Fri Jul 18 2025 12:03:00 GMT-0500 (Central Daylight Time),113027.5,A,keyenter,I,enter,550,3,1151.2000000476837,111876.29999995232,8011,WL,A,10.0
1,18.694999933242798,learn,41305.0000667572,Fri Jul 18 2025 12:03:00 GMT-0500 (Central Daylight Time),113211.69999992847,A,g,I,g,168,3,183.79999995231628,113027.89999997616,8011,WL,A,11.0
1,18.810999870300293,learn,41189.00012969971,Fri Jul 18 2025 12:03:00 GMT-0500 (Central Daylight Time),113327.79999995232,A,go,I,o,96,3,299.89999997615814,113027.89999997616,8011,WL,A,11.0
1,19.01099991798401,learn,40989.00008201599,Fri Jul 18 2025 12:03:00 GMT-0500 (Central Daylight Time),113527.19999992847,A,gol,I,l,188,3,499.2999999523163,113027.89999997616,8011,WL,A,11.0
1,19.128999948501587,learn,40871.00005149841,Fri Jul 18 2025 12:03:00 GMT-0500 (Central Daylight Time),113645.29999995232,A,gold,I,d,113,3,617.3999999761581,113027.89999997616,8011,WL,A,11.0
1,19.359999895095825,learn,40640.000104904175,Fri Jul 18 2025 12:03:00 GMT-0500 (Central Daylight Time),113876.29999995232,A,goldenter,I,enter,225,3,848.3999999761581,113027.89999997616,8011,WL,A,11.0
1,19.67799997329712,learn,40322.00002670288,Fri Jul 18 2025 12:03:00 GMT-0500 (Central Daylight Time),114194.0,A,f,I,f,304,3,317.3000000715256,113876.69999992847,8011,WL,A,12.0
1,19.878000020980835,learn,40121.999979019165,Fri Jul 18 2025 12:03:00 GMT-0500 (Central Daylight Time),114394.29999995232,A,fi,I,i,179,3,517.6000000238419,113876.69999992847,8011,WL,A,12.0
1,19.942999839782715,learn,40057.000160217285,Fri Jul 18 2025 12:03:00 GMT-0500 (Central Daylight Time),114459.10000002384,A,fin,I,n,58,3,582.4000000953674,113876.69999992847,8011,WL,A,12.0
1,20.113999843597412,learn,39886.00015640259,Fri Jul 18 2025 12:03:00 GMT-0500 (Central Daylight Time),114630.5,A,fing,I,g,151,3,753.8000000715256,113876.69999992847,8011,WL,A,12.0
1,20.164999961853027,learn,39835.00003814697,Fri Jul 18 2025 12:03:00 GMT-0500 (Central Daylight Time),114681.0,A,finge,I,e,38,3,804.3000000715256,113876.69999992847,8011,WL,A,12.0
1,20.27900004386902,learn,39720.99995613098,Fri Jul 18 2025 12:03:00 GMT-0500 (Central Daylight Time),114795.19999992847,A,finger,I,r,101,3,918.5,113876.69999992847,8011,WL,A,12.0
1,20.477999925613403,learn,39522.0000743866,Fri Jul 18 2025 12:03:00 GMT-0500 (Central Daylight Time),114994.39999997616,A,fingerenter,I,enter,188,3,1117.7000000476837,113876.69999992847,8011,WL,A,12.0
1,26.30900001525879,learn,33690.99998474121,Fri Jul 18 2025 12:03:00 GMT-0500 (Central Daylight Time),120825.60000002384,A,a,I,a,5810,3,5830.900000095367,114994.69999992847,8011,WL,A,13.0
1,26.592000007629395,learn,33407.999992370605,Fri Jul 18 2025 12:03:00 GMT-0500 (Central Daylight Time),121108.69999992847,A,ap,I,p,261,3,6114.0,114994.69999992847,8011,WL,A,13.0
1,26.741999864578247,learn,33258.00013542175,Fri Jul 18 2025 12:03:00 GMT-0500 (Central Daylight Time),121258.69999992847,A,app,I,p,128,3,6264.0,114994.69999992847,8011,WL,A,13.0
1,26.924999952316284,learn,33075.000047683716,Fri Jul 18 2025 12:03:00 GMT-0500 (Central Daylight Time),121441.79999995232,A,appl,I,l,170,3,6447.100000023842,114994.69999992847,8011,WL,A,13.0
1,27.04099988937378,learn,32959.00011062622,Fri Jul 18 2025 12:03:00 GMT-0500 (Central Daylight Time),121558.5,A,apple,I,e,107,3,6563.800000071526,114994.69999992847,8011,WL,A,13.0
1,27.2739999294281,learn,32726.0000705719,Fri Jul 18 2025 12:03:00 GMT-0500 (Central Daylight Time),121790.79999995232,A,appleenter,I,enter,213,3,6796.100000023842,114994.69999992847,8011,WL,A,13.0
1,46.45199990272522,learn,13548.00009727478,Fri Jul 18 2025 12:03:00 GMT-0500 (Central Daylight Time),140968.79999995232,A,enter,I,enter,19166,3,19177.799999952316,121791.0,8011,WL,A,14.0
1,47.151000022888184,learn,12848.999977111816,Fri Jul 18 2025 12:03:00 GMT-0500 (Central Daylight Time),141667.60000002384,A,enter,I,enter,679,3,698.5,140969.10000002384,8011,WL,A,15.0
2,0.8510000705718994,learn,59148.9999294281,Fri Jul 18 2025 12:03:00 GMT-0500 (Central Daylight Time),209182.10000002384,A,b,I,b,847,3,851.4000000953674,208330.69999992847,8011,WL,A,1.0
2,1.1499998569488525,learn,58850.00014305115,Fri Jul 18 2025 12:03:00 GMT-0500 (Central Daylight Time),209480.60000002384,A,bo,I,o,279,3,1149.9000000953674,208330.69999992847,8011,WL,A,1.0
2,1.2999999523162842,learn,58700.000047683716,Fri Jul 18 2025 12:03:00 GMT-0500 (Central Daylight Time),209630.19999992847,A,boo,I,o,132,3,1299.5,208330.69999992847,8011,WL,A,1.0
2,1.3480000495910645,learn,58651.999950408936,Fri Jul 18 2025 12:03:00 GMT-0500 (Central Daylight Time),209678.69999992847,A,book,I,k,38,3,1348.0,208330.69999992847,8011,WL,A,1.0
2,1.6499998569488525,learn,58350.00014305115,Fri Jul 18 2025 12:03:00 GMT-0500 (Central Daylight Time),209980.79999995232,A,bookenter,I,enter,287,3,1650.1000000238419,208330.69999992847,8011,WL,A,1.0
2,2.2319998741149902,learn,57768.00012588501,Fri Jul 18 2025 12:03:00 GMT-0500 (Central Daylight Time),210562.60000002384,A,f,I,f,569,3,581.4000000953674,209981.19999992847,8011,WL,A,2.0
2,2.365999937057495,learn,57634.000062942505,Fri Jul 18 2025 12:03:00 GMT-0500 (Central Daylight Time),210697.0,A,fl,I,l,123,3,715.8000000715256,209981.19999992847,8011,WL,A,2.0
2,2.5829999446868896,learn,57417.00005531311,Fri Jul 18 2025 12:03:00 GMT-0500 (Central Daylight Time),210913.19999992847,A,flo,I,o,202,3,932.0,209981.19999992847,8011,WL,A,2.0
2,2.6659998893737793,learn,57334.00011062622,Fri Jul 18 2025 12:03:00 GMT-0500 (Central Daylight Time),210996.5,A,flow,I,w,61,3,1015.3000000715256,209981.19999992847,8011,WL,A,2.0
2,2.7309999465942383,learn,57269.00005340576,Fri Jul 18 2025 12:03:00 GMT-0500 (Central Daylight Time),211061.60000002384,A,flowe,I,e,54,3,1080.4000000953674,209981.19999992847,8011,WL,A,2.0
2,3.0,learn,57000.0,Fri Jul 18 2025 12:03:00 GMT-0500 (Central Daylight Time),211331.0,A,flower,I,r,256,3,1349.8000000715256,209981.19999992847,8011,WL,A,2.0
2,3.197999954223633,learn,56802.00004577637,Fri Jul 18 2025 12:03:00 GMT-0500 (Central Daylight Time),211528.60000002384,A,flowerenter,I,enter,185,3,1547.4000000953674,209981.19999992847,8011,WL,A,2.0
2,3.5160000324249268,learn,56483.99996757507,Fri Jul 18 2025 12:03:00 GMT-0500 (Central Daylight Time),211846.79999995232,A,t,I,t,300,3,318.0,211528.79999995232,8011,WL,A,3.0
2,3.7319998741149902,learn,56268.00012588501,Fri Jul 18 2025 12:03:00 GMT-0500 (Central Daylight Time),212063.0,A,tr,I,r,198,3,534.2000000476837,211528.79999995232,8011,WL,A,3.0
2,3.8489999771118164,learn,56151.00002288818,Fri Jul 18 2025 12:03:00 GMT-0500 (Central Daylight Time),212179.69999992847,A,tra,I,a,102,3,650.8999999761581,211528.79999995232,8011,WL,A,3.0
2,3.997999906539917,learn,56002.00009346008,Fri Jul 18 2025 12:03:00 GMT-0500 (Central Daylight Time),212328.89999997616,A,trai,I,i,137,3,800.1000000238419,211528.79999995232,8011,WL,A,3.0
2,4.082000017166138,learn,55917.99998283386,Fri Jul 18 2025 12:03:00 GMT-0500 (Central Daylight Time),212413.0,A,train,I,n,68,3,884.2000000476837,211528.79999995232,8011,WL,A,3.0
2,4.364000082015991,learn,55635.99991798401,Fri Jul 18 2025 12:03:00 GMT-0500 (Central Daylight Time),212695.0,A,trainenter,I,enter,272,3,1166.2000000476837,211528.79999995232,8011,WL,A,3.0
2,4.615999937057495,learn,55384.000062942505,Fri Jul 18 2025 12:03:00 GMT-0500 (Central Daylight Time),212946.29999995232,A,m,I,m,231,3,251.0,212695.29999995232,8011,WL,A,4.0
2,4.680999994277954,learn,55319.000005722046,Fri Jul 18 2025 12:03:00 GMT-0500 (Central Daylight Time),213011.89999997616,A,me,I,e,49,3,316.60000002384186,212695.29999995232,8011,WL,A,4.0
2,4.881999969482422,learn,55118.00003051758,Fri Jul 18 2025 12:03:00 GMT-0500 (Central Daylight Time),213212.79999995232,A,mea,I,a,180,3,517.5,212695.29999995232,8011,WL,A,4.0
2,4.9649999141693115,learn,55035.00008583069,Fri Jul 18 2025 12:03:00 GMT-0500 (Central Daylight Time),213295.39999997616,A,mead,I,d,71,3,600.1000000238419,212695.29999995232,8011,WL,A,4.0
2,5.115999937057495,learn,54884.000062942505,Fri Jul 18 2025 12:03:00 GMT-0500 (Central Daylight Time),213447.10000002384,A,meado,I,o,143,3,751.8000000715256,212695.29999995232,8011,WL,A,4.0
2,5.33299994468689,learn,54667.00005531311,Fri Jul 18 2025 12:03:00 GMT-0500 (Central Daylight Time),213663.5,A,meadow,I,w,205,3,968.2000000476837,212695.29999995232,8011,WL,A,4.0
2,5.547999858856201,learn,54452.0001411438,Fri Jul 18 2025 12:03:00 GMT-0500 (Central Daylight Time),213878.5,A,meadowenter,I,enter,198,3,1183.2000000476837,212695.29999995232,8011,WL,A,4.0
2,6.065000057220459,learn,53934.99994277954,Fri Jul 18 2025 12:03:00 GMT-0500 (Central Daylight Time),214395.5,A,h,I,h,495,3,516.7000000476837,213878.79999995232,8011,WL,A,5.0
2,6.11299991607666,learn,53887.00008392334,Fri Jul 18 2025 12:03:00 GMT-0500 (Central Daylight Time),214443.69999992847,A,ha,I,a,39,3,564.8999999761581,213878.79999995232,8011,WL,A,5.0
2,6.264999866485596,learn,53735.000133514404,Fri Jul 18 2025 12:03:00 GMT-0500 (Central Daylight Time),214595.89999997616,A,har,I,r,134,3,717.1000000238419,213878.79999995232,8011,WL,A,5.0
2,6.430999994277954,learn,53569.000005722046,Fri Jul 18 2025 12:03:00 GMT-0500 (Central Daylight Time),214761.89999997616,A,harp,I,p,145,3,883.1000000238419,213878.79999995232,8011,WL,A,5.0
2,6.796999931335449,learn,53203.00006866455,Fri Jul 18 2025 12:03:00 GMT-0500 (Central Daylight Time),215127.69999992847,A,harpenter,I,enter,345,3,1248.8999999761581,213878.79999995232,8011,WL,A,5.0
2,7.2809998989105225,learn,52719.00010108948,Fri Jul 18 2025 12:03:00 GMT-0500 (Central Daylight Time),215611.69999992847,A,f,I,f,464,3,483.6999999284744,215128.0,8011,WL,A,6.0
2,7.414999961853027,learn,52585.00003814697,Fri Jul 18 2025 12:03:00 GMT-0500 (Central Daylight Time),215745.5,A,fi,I,i,121,3,617.5,215128.0,8011,WL,A,6.0
2,7.579999923706055,learn,52420.000076293945,Fri Jul 18 2025 12:03:00 GMT-0500 (Central Daylight Time),215911.0,A,fin,I,n,157,3,783.0,215128.0,8011,WL,A,6.0
2,7.700999975204468,learn,52299.00002479553,Fri Jul 18 2025 12:03:00 GMT-0500 (Central Daylight Time),216031.29999995232,A,fing,I,g,115,3,903.2999999523163,215128.0,8011,WL,A,6.0
2,7.797999858856201,learn,52202.0001411438,Fri Jul 18 2025 12:03:00 GMT-0500 (Central Daylight Time),216128.5,A,finge,I,e,84,3,1000.5,215128.0,8011,WL,A,6.0
2,7.864000082015991,learn,52135.99991798401,Fri Jul 18 2025 12:03:00 GMT-0500 (Central Daylight Time),216194.79999995232,A,finger,I,r,44,3,1066.7999999523163,215128.0,8011,WL,A,6.0
2,8.079999923706055,learn,51920.000076293945,Fri Jul 18 2025 12:03:00 GMT-0500 (Central Daylight Time),216411.10000002384,A,fingerenter,I,enter,194,3,1283.1000000238419,215128.0,8011,WL,A,6.0
2,8.680999994277954,learn,51319.000005722046,Fri Jul 18 2025 12:03:00 GMT-0500 (Central Daylight Time),217011.79999995232,A,g,I,g,580,3,600.5,216411.29999995232,8011,WL,A,7.0
2,8.79699993133545,learn,51203.00006866455,Fri Jul 18 2025 12:03:00 GMT-0500 (Central Daylight Time),217128.10000002384,A,go,I,o,96,3,716.8000000715256,216411.29999995232,8011,WL,A,7.0
2,9.013999938964844,learn,50986.000061035156,Fri Jul 18 2025 12:03:00 GMT-0500 (Central Daylight Time),217344.89999997616,A,gol,I,l,197,3,933.6000000238419,216411.29999995232,8011,WL,A,7.0
2,9.129999876022339,learn,50870.00012397766,Fri Jul 18 2025 12:03:00 GMT-0500 (Central Daylight Time),217460.5,A,gold,I,d,99,3,1049.2000000476837,216411.29999995232,8011,WL,A,7.0
2,9.348000049591064,learn,50651.999950408936,Fri Jul 18 2025 12:03:00 GMT-0500 (Central Daylight Time),217678.19999992847,A,goldenter,I,enter,200,3,1266.8999999761581,216411.29999995232,8011,WL,A,7.0
2,9.664000034332275,learn,50335.999965667725,Fri Jul 18 2025 12:03:00 GMT-0500 (Central Daylight Time),217994.69999992847,A,b,I,b,297,3,316.2999999523163,217678.39999997616,8011,WL,A,8.0
2,9.846999883651733,learn,50153.00011634827,Fri Jul 18 2025 12:03:00 GMT-0500 (Central Daylight Time),218177.69999992847,A,bu,I,u,162,3,499.2999999523163,217678.39999997616,8011,WL,A,8.0
2,9.966000080108643,learn,50033.99991989136,Fri Jul 18 2025 12:03:00 GMT-0500 (Central Daylight Time),218296.39999997616,A,but,I,t,98,3,618.0,217678.39999997616,8011,WL,A,8.0
2,10.147000074386597,learn,49852.9999256134,Fri Jul 18 2025 12:03:00 GMT-0500 (Central Daylight Time),218477.10000002384,A,butt,I,t,166,3,798.7000000476837,217678.39999997616,8011,WL,A,8.0
2,10.263000011444092,learn,49736.99998855591,Fri Jul 18 2025 12:03:00 GMT-0500 (Central Daylight Time),218593.89999997616,A,butto,I,o,95,3,915.5,217678.39999997616,8011,WL,A,8.0
2,10.378999948501587,learn,49621.00005149841,Fri Jul 18 2025 12:03:00 GMT-0500 (Central Daylight Time),218709.60000002384,A,button,I,n,105,3,1031.2000000476837,217678.39999997616,8011,WL,A,8.0
2,10.662999868392944,learn,49337.000131607056,Fri Jul 18 2025 12:03:00 GMT-0500 (Central Daylight Time),218994.0,A,buttonenter,I,enter,271,3,1315.6000000238419,217678.39999997616,8011,WL,A,8.0
2,10.996000051498413,learn,49003.99994850159,Fri Jul 18 2025 12:03:00 GMT-0500 (Central Daylight Time),219327.0,A,l,I,l,315,3,332.7000000476837,218994.29999995232,8011,WL,A,9.0
2,11.246000051498413,learn,48753.99994850159,Fri Jul 18 2025 12:03:00 GMT-0500 (Central Daylight Time),219576.89999997616,A,lo,I,o,237,3,582.6000000238419,218994.29999995232,8011,WL,A,9.0
2,11.345999956130981,learn,48654.00004386902,Fri Jul 18 2025 12:03:00 GMT-0500 (Central Daylight Time),219676.39999997616,A,log,I,g,82,3,682.1000000238419,218994.29999995232,8011,WL,A,9.0
2,11.69599986076355,learn,48304.00013923645,Fri Jul 18 2025 12:03:00 GMT-0500 (Central Daylight Time),220026.60000002384,A,logenter,I,enter,336,3,1032.3000000715256,218994.29999995232,8011,WL,A,9.0
2,12.129999876022339,learn,47870.00012397766,Fri Jul 18 2025 12:03:00 GMT-0500 (Central Daylight Time),220460.5,A,c,I,c,419,3,433.7000000476837,220026.79999995232,8011,WL,A,10.0
2,12.29699993133545,learn,47703.00006866455,Fri Jul 18 2025 12:03:00 GMT-0500 (Central Daylight Time),220627.19999992847,A,ch,I,h,145,3,600.3999999761581,220026.79999995232,8011,WL,A,10.0
2,12.411999940872192,learn,47588.00005912781,Fri Jul 18 2025 12:03:00 GMT-0500 (Central Daylight Time),220742.79999995232,A,chi,I,i,106,3,716.0,220026.79999995232,8011,WL,A,10.0
2,12.69700002670288,learn,47302.99997329712,Fri Jul 18 2025 12:03:00 GMT-0500 (Central Daylight Time),221027.60000002384,A,chim,I,m,263,3,1000.8000000715256,220026.79999995232,8011,WL,A,10.0
2,12.812000036239624,learn,47187.999963760376,Fri Jul 18 2025 12:03:00 GMT-0500 (Central Daylight Time),221143.29999995232,A,chime,I,e,95,3,1116.5,220026.79999995232,8011,WL,A,10.0
2,13.063999891281128,learn,46936.00010871887,Fri Jul 18 2025 12:03:00 GMT-0500 (Central Daylight Time),221395.10000002384,A,chimey,I,y,228,3,1368.3000000715256,220026.79999995232,8011,WL,A,10.0
2,13.595999956130981,learn,46404.00004386902,Fri Jul 18 2025 12:03:00 GMT-0500 (Central Daylight Time),221926.79999995232,A,chime,I,backspace,512,3,1900.0,220026.79999995232,8011,WL,A,10.0
2,13.730000019073486,learn,46269.999980926514,Fri Jul 18 2025 12:03:00 GMT-0500 (Central Daylight Time),222061.0,A,chim,I,backspace,118,3,2034.2000000476837,220026.79999995232,8011,WL,A,10.0
2,14.628000020980835,learn,45371.999979019165,Fri Jul 18 2025 12:03:00 GMT-0500 (Central Daylight Time),222958.5,A,chimn,I,n,887,3,2931.7000000476837,220026.79999995232,8011,WL,A,10.0
2,14.776999950408936,learn,45223.000049591064,Fri Jul 18 2025 12:03:00 GMT-0500 (Central Daylight Time),223108.10000002384,A,chimne,I,e,145,3,3081.3000000715256,220026.79999995232,8011,WL,A,10.0
2,14.978999853134155,learn,45021.000146865845,Fri Jul 18 2025 12:03:00 GMT-0500 (Central Daylight Time),223309.39999997616,A,chimney,I,y,179,3,3282.600000023842,220026.79999995232,8011,WL,A,10.0
2,15.295000076293945,learn,44704.999923706055,Fri Jul 18 2025 12:03:00 GMT-0500 (Central Daylight Time),223626.10000002384,A,chimneyenter,I,enter,296,3,3599.3000000715256,220026.79999995232,8011,WL,A,10.0
2,15.527999877929688,learn,44472.00012207031,Fri Jul 18 2025 12:03:00 GMT-0500 (Central Daylight Time),223858.5,A,r,I,r,219,3,232.20000004768372,223626.29999995232,8011,WL,A,11.0
2,16.246000051498413,learn,43753.99994850159,Fri Jul 18 2025 12:03:00 GMT-0500 (Central Daylight Time),224576.19999992847,A,ru,I,u,707,3,949.8999999761581,223626.29999995232,8011,WL,A,11.0
2,16.411999940872192,learn,43588.00005912781,Fri Jul 18 2025 12:03:00 GMT-0500 (Central Daylight Time),224742.29999995232,A,rug,I,g,148,3,1116.0,223626.29999995232,8011,WL,A,11.0
2,16.57699990272522,learn,43423.00009727478,Fri Jul 18 2025 12:03:00 GMT-0500 (Central Daylight Time),224907.89999997616,A,rugh,I,h,150,3,1281.6000000238419,223626.29999995232,8011,WL,A,11.0
2,16.82800006866455,learn,43171.99993133545,Fri Jul 18 2025 12:03:00 GMT-0500 (Central Daylight Time),225159.0,A,rughenter,I,enter,241,3,1532.7000000476837,223626.29999995232,8011,WL,A,11.0
2,18.22699999809265,learn,41773.00000190735,Fri Jul 18 2025 12:03:00 GMT-0500 (Central Daylight Time),226557.29999995232,A,r,I,r,1390,3,1398.1000000238419,225159.19999992847,8011,WL,A,12.0
2,18.342999935150146,learn,41657.00006484985,Fri Jul 18 2025 12:03:00 GMT-0500 (Central Daylight Time),226673.29999995232,A,ru,I,u,104,3,1514.1000000238419,225159.19999992847,8011,WL,A,12.0
2,18.47699999809265,learn,41523.00000190735,Fri Jul 18 2025 12:03:00 GMT-0500 (Central Daylight Time),226807.5,A,rug,I,g,124,3,1648.3000000715256,225159.19999992847,8011,WL,A,12.0
2,18.66000008583069,learn,41339.99991416931,Fri Jul 18 2025 12:03:00 GMT-0500 (Central Daylight Time),226991.0,A,rugenter,I,enter,166,3,1831.8000000715256,225159.19999992847,8011,WL,A,12.0
2,18.980000019073486,learn,41019.999980926514,Fri Jul 18 2025 12:03:00 GMT-0500 (Central Daylight Time),227310.60000002384,A,k,I,k,302,3,319.2000000476837,226991.39999997616,8011,WL,A,13.0
2,19.144999980926514,learn,40855.000019073486,Fri Jul 18 2025 12:03:00 GMT-0500 (Central Daylight Time),227475.29999995232,A,ke,I,e,143,3,483.89999997615814,226991.39999997616,8011,WL,A,13.0
2,19.342999935150146,learn,40657.00006484985,Fri Jul 18 2025 12:03:00 GMT-0500 (Central Daylight Time),227673.69999992847,A,key,I,y,177,3,682.2999999523163,226991.39999997616,8011,WL,A,13.0
2,20.026999950408936,learn,39973.000049591064,Fri Jul 18 2025 12:03:00 GMT-0500 (Central Daylight Time),228357.79999995232,A,keyenter,I,enter,664,3,1366.3999999761581,226991.39999997616,8011,WL,A,13.0
2,20.194000005722046,learn,39805.999994277954,Fri Jul 18 2025 12:03:00 GMT-0500 (Central Daylight Time),228524.5,A,r,I,r,146,3,166.5,228358.0,8011,WL,A,14.0
2,20.30900001525879,learn,39690.99998474121,Fri Jul 18 2025 12:03:00 GMT-0500 (Central Daylight Time),228640.10000002384,A,ra,I,a,103,3,282.10000002384186,228358.0,8011,WL,A,14.0
2,20.493000030517578,learn,39506.99996948242,Fri Jul 18 2025 12:03:00 GMT-0500 (Central Daylight Time),228823.39999997616,A,rat,I,t,172,3,465.39999997615814,228358.0,8011,WL,A,14.0
2,20.674999952316284,learn,39325.000047683716,Fri Jul 18 2025 12:03:00 GMT-0500 (Central Daylight Time),229006.10000002384,A,ratt,I,t,165,3,648.1000000238419,228358.0,8011,WL,A,14.0
2,20.776000022888184,learn,39223.99997711182,Fri Jul 18 2025 12:03:00 GMT-0500 (Central Daylight Time),229106.89999997616,A,rattl,I,l,84,3,748.8999999761581,228358.0,8011,WL,A,14.0
2,20.925999879837036,learn,39074.000120162964,Fri Jul 18 2025 12:03:00 GMT-0500 (Central Daylight Time),229257.0,A,rattle,I,e,136,3,899.0,228358.0,8011,WL,A,14.0
2,21.293999910354614,learn,38706.000089645386,Fri Jul 18 2025 12:03:00 GMT-0500 (Central Daylight Time),229624.29999995232,A,rattleenter,I,enter,355,3,1266.2999999523163,228358.0,8011,WL,A,14.0
2,24.759000062942505,learn,35240.999937057495,Fri Jul 18 2025 12:03:00 GMT-0500 (Central Daylight Time),233089.60000002384,A,a,I,a,3445,3,3465.100000023842,229624.5,8011,WL,A,15.0
2,24.875,learn,35125.0,Fri Jul 18 2025 12:03:00 GMT-0500 (Central Daylight Time),233205.60000002384,A,ap,I,p,97,3,3581.100000023842,229624.5,8011,WL,A,15.0
2,25.026999950408936,learn,34973.000049591064,Fri Jul 18 2025 12:03:00 GMT-0500 (Central Daylight Time),233357.79999995232,A,app,I,p,130,3,3733.2999999523163,229624.5,8011,WL,A,15.0
2,25.210000038146973,learn,34789.99996185303,Fri Jul 18 2025 12:03:00 GMT-0500 (Central Daylight Time),233540.5,A,appl,I,l,166,3,3916.0,229624.5,8011,WL,A,15.0
2,25.342000007629395,learn,34657.999992370605,Fri Jul 18 2025 12:03:00 GMT-0500 (Central Daylight Time),233673.10000002384,A,apple,I,e,123,3,4048.600000023842,229624.5,8011,WL,A,15.0
2,25.625,learn,34375.0,Fri Jul 18 2025 12:03:00 GMT-0500 (Central Daylight Time),233955.60000002384,A,appleenter,I,enter,261,3,4331.100000023842,229624.5,8011,WL,A,15.0
3,1.2829999923706055,learn,58717.000007629395,Fri Jul 18 2025 12:03:00 GMT-0500 (Central Daylight Time),300533.89999997616,A,t,I,t,1273,3,1282.2999999523163,299251.60000002384,8011,WL,A,1.0
3,1.5180001258850098,learn,58481.99987411499,Fri Jul 18 2025 12:03:00 GMT-0500 (Central Daylight Time),300768.6999999285,A,tr,I,r,215,3,1517.0999999046326,299251.60000002384,8011,WL,A,1.0
3,1.6170001029968262,learn,58382.999897003174,Fri Jul 18 2025 12:03:00 GMT-0500 (Central Daylight Time),300868.10000002384,A,tra,I,a,77,3,1616.5,299251.60000002384,8011,WL,A,1.0
3,1.751000165939331,learn,58248.99983406067,Fri Jul 18 2025 12:03:00 GMT-0500 (Central Daylight Time),301001.89999997616,A,trai,I,i,121,3,1750.2999999523163,299251.60000002384,8011,WL,A,1.0
3,1.815999984741211,learn,58184.00001525879,Fri Jul 18 2025 12:03:00 GMT-0500 (Central Daylight Time),301066.6999999285,A,train,I,n,47,3,1815.0999999046326,299251.60000002384,8011,WL,A,1.0
3,2.0829999446868896,learn,57917.00005531311,Fri Jul 18 2025 12:03:00 GMT-0500 (Central Daylight Time),301333.7999999523,A,trainenter,I,enter,251,3,2082.1999999284744,299251.60000002384,8011,WL,A,1.0
3,2.3329999446868896,learn,57667.00005531311,Fri Jul 18 2025 12:03:00 GMT-0500 (Central Daylight Time),301584.39999997616,A,b,I,b,231,3,250.20000004768372,301334.1999999285,8011,WL,A,2.0
3,2.4509999752044678,learn,57549.00002479553,Fri Jul 18 2025 12:03:00 GMT-0500 (Central Daylight Time),301701.39999997616,A,bo,I,o,111,3,367.2000000476837,301334.1999999285,8011,WL,A,2.0
3,2.633000135421753,learn,57366.99986457825,Fri Jul 18 2025 12:03:00 GMT-0500 (Central Daylight Time),301884.2999999523,A,boo,I,o,164,3,550.1000000238419,301334.1999999285,8011,WL,A,2.0
3,2.7170000076293945,learn,57282.999992370605,Fri Jul 18 2025 12:03:00 GMT-0500 (Central Daylight Time),301967.5,A,book,I,k,64,3,633.3000000715256,301334.1999999285,8011,WL,A,2.0
3,3.0340001583099365,learn,56965.99984169006,Fri Jul 18 2025 12:03:00 GMT-0500 (Central Daylight Time),302285.0,A,bookenter,I,enter,297,3,950.8000000715256,301334.1999999285,8011,WL,A,2.0
3,3.5989999771118164,learn,56401.00002288818,Fri Jul 18 2025 12:03:00 GMT-0500 (Central Daylight Time),302849.6999999285,A,f,I,f,560,3,564.5,302285.1999999285,8011,WL,A,3.0
3,3.7350001335144043,learn,56264.999866485596,Fri Jul 18 2025 12:03:00 GMT-0500 (Central Daylight Time),302986.2999999523,A,fl,I,l,124,3,701.1000000238419,302285.1999999285,8011,WL,A,3.0
3,3.947999954223633,learn,56052.00004577637,Fri Jul 18 2025 12:03:00 GMT-0500 (Central Daylight Time),303198.89999997616,A,flo,I,o,204,3,913.7000000476837,302285.1999999285,8011,WL,A,3.0
3,4.0329999923706055,learn,55967.000007629395,Fri Jul 18 2025 12:03:00 GMT-0500 (Central Daylight Time),303283.39999997616,A,flow,I,w,65,3,998.2000000476837,302285.1999999285,8011,WL,A,3.0
3,4.081000089645386,learn,55918.999910354614,Fri Jul 18 2025 12:03:00 GMT-0500 (Central Daylight Time),303331.60000002384,A,flowe,I,e,32,3,1046.4000000953674,302285.1999999285,8011,WL,A,3.0
3,4.33299994468689,learn,55667.00005531311,Fri Jul 18 2025 12:03:00 GMT-0500 (Central Daylight Time),303583.60000002384,A,flower,I,r,242,3,1298.4000000953674,302285.1999999285,8011,WL,A,3.0
3,4.432000160217285,learn,55567.999839782715,Fri Jul 18 2025 12:03:00 GMT-0500 (Central Daylight Time),303683.0,A,flowerenter,I,enter,84,3,1397.8000000715256,302285.1999999285,8011,WL,A,3.0
3,5.183000087738037,learn,54816.99991226196,Fri Jul 18 2025 12:03:00 GMT-0500 (Central Daylight Time),304433.60000002384,A,r,I,r,730,3,750.3000000715256,303683.2999999523,8011,WL,A,4.0
3,5.315000057220459,learn,54684.99994277954,Fri Jul 18 2025 12:03:00 GMT-0500 (Central Daylight Time),304566.0,A,ru,I,u,123,3,882.7000000476837,303683.2999999523,8011,WL,A,4.0
3,5.483000040054321,learn,54516.99995994568,Fri Jul 18 2025 12:03:00 GMT-0500 (Central Daylight Time),304734.10000002384,A,rug,I,g,162,3,1050.8000000715256,303683.2999999523,8011,WL,A,4.0
3,5.815999984741211,learn,54184.00001525879,Fri Jul 18 2025 12:03:00 GMT-0500 (Central Daylight Time),305067.39999997616,A,rugenter,I,enter,320,3,1384.1000000238419,303683.2999999523,8011,WL,A,4.0
3,6.89900016784668,learn,53100.99983215332,Fri Jul 18 2025 12:03:00 GMT-0500 (Central Daylight Time),306150.5,A,m,I,m,1066,3,1082.8000000715256,305067.6999999285,8011,WL,A,5.0
3,7.049000024795532,learn,52950.99997520447,Fri Jul 18 2025 12:03:00 GMT-0500 (Central Daylight Time),306299.60000002384,A,me,I,e,128,3,1231.9000000953674,305067.6999999285,8011,WL,A,5.0
3,7.215000152587891,learn,52784.99984741211,Fri Jul 18 2025 12:03:00 GMT-0500 (Central Daylight Time),306465.60000002384,A,mea,I,a,155,3,1397.9000000953674,305067.6999999285,8011,WL,A,5.0
3,7.3480000495910645,learn,52651.999950408936,Fri Jul 18 2025 12:03:00 GMT-0500 (Central Daylight Time),306598.7999999523,A,mead,I,d,124,3,1531.1000000238419,305067.6999999285,8011,WL,A,5.0
3,7.499000072479248,learn,52500.99992752075,Fri Jul 18 2025 12:03:00 GMT-0500 (Central Daylight Time),306750.0,A,meado,I,o,146,3,1682.3000000715256,305067.6999999285,8011,WL,A,5.0
3,7.647000074386597,learn,52352.9999256134,Fri Jul 18 2025 12:03:00 GMT-0500 (Central Daylight Time),306898.2999999523,A,meadow,I,w,142,3,1830.6000000238419,305067.6999999285,8011,WL,A,5.0
3,7.914999961853027,learn,52085.00003814697,Fri Jul 18 2025 12:03:00 GMT-0500 (Central Daylight Time),307165.6999999285,A,meadowenter,I,enter,251,3,2098.0,305067.6999999285,8011,WL,A,5.0
3,8.680999994277954,learn,51319.000005722046,Fri Jul 18 2025 12:03:00 GMT-0500 (Central Daylight Time),307931.39999997616,A,a,I,a,760,3,765.2999999523163,307166.10000002384,8011,WL,A,6.0
3,8.832000017166138,learn,51167.99998283386,Fri Jul 18 2025 12:03:00 GMT-0500 (Central Daylight Time),308082.5,A,ap,I,p,139,3,916.3999999761581,307166.10000002384,8011,WL,A,6.0
3,9.015000104904175,learn,50984.999895095825,Fri Jul 18 2025 12:03:00 GMT-0500 (Central Daylight Time),308266.0,A,app,I,p,171,3,1099.8999999761581,307166.10000002384,8011,WL,A,6.0
3,9.19700002670288,learn,50802.99997329712,Fri Jul 18 2025 12:03:00 GMT-0500 (Central Daylight Time),308448.1999999285,A,appl,I,l,171,3,1282.0999999046326,307166.10000002384,8011,WL,A,6.0
3,9.348000049591064,learn,50651.999950408936,Fri Jul 18 2025 12:03:00 GMT-0500 (Central Daylight Time),308599.1999999285,A,apple,I,e,133,3,1433.0999999046326,307166.10000002384,8011,WL,A,6.0
3,9.580000162124634,learn,50419.999837875366,Fri Jul 18 2025 12:03:00 GMT-0500 (Central Daylight Time),308831.0,A,appleenter,I,enter,220,3,1664.8999999761581,307166.10000002384,8011,WL,A,6.0
3,9.897000074386597,learn,50102.9999256134,Fri Jul 18 2025 12:03:00 GMT-0500 (Central Daylight Time),309148.0,A,s,I,s,298,3,316.7000000476837,308831.2999999523,8011,WL,A,7.0
3,10.029000043869019,learn,49970.99995613098,Fri Jul 18 2025 12:03:00 GMT-0500 (Central Daylight Time),309279.7999999523,A,sa,I,a,120,3,448.5,308831.2999999523,8011,WL,A,7.0
3,10.180000066757202,learn,49819.9999332428,Fri Jul 18 2025 12:03:00 GMT-0500 (Central Daylight Time),309431.1999999285,A,sal,I,l,143,3,599.8999999761581,308831.2999999523,8011,WL,A,7.0
3,10.44700002670288,learn,49552.99997329712,Fri Jul 18 2025 12:03:00 GMT-0500 (Central Daylight Time),309698.10000002384,A,salt,I,t,249,3,866.8000000715256,308831.2999999523,8011,WL,A,7.0
3,10.664000034332275,learn,49335.999965667725,Fri Jul 18 2025 12:03:00 GMT-0500 (Central Daylight Time),309915.10000002384,A,saltenter,I,enter,202,3,1083.8000000715256,308831.2999999523,8011,WL,A,7.0
3,11.248000144958496,learn,48751.999855041504,Fri Jul 18 2025 12:03:00 GMT-0500 (Central Daylight Time),310498.89999997616,A,h,I,h,563,3,583.5,309915.39999997616,8011,WL,A,8.0
3,11.314000129699707,learn,48685.99987030029,Fri Jul 18 2025 12:03:00 GMT-0500 (Central Daylight Time),310564.39999997616,A,ha,I,a,41,3,649.0,309915.39999997616,8011,WL,A,8.0
3,11.48200011253357,learn,48517.99988746643,Fri Jul 18 2025 12:03:00 GMT-0500 (Central Daylight Time),310733.0,A,har,I,r,147,3,817.6000000238419,309915.39999997616,8011,WL,A,8.0
3,11.71500015258789,learn,48284.99984741211,Fri Jul 18 2025 12:03:00 GMT-0500 (Central Daylight Time),310965.5,A,harp,I,p,211,3,1050.1000000238419,309915.39999997616,8011,WL,A,8.0
3,11.996999979019165,learn,48003.000020980835,Fri Jul 18 2025 12:03:00 GMT-0500 (Central Daylight Time),311247.60000002384,A,harpenter,I,enter,271,3,1332.2000000476837,309915.39999997616,8011,WL,A,8.0
3,12.597000122070312,learn,47402.99987792969,Fri Jul 18 2025 12:03:00 GMT-0500 (Central Daylight Time),311848.1999999285,A,f,I,f,591,3,600.3999999761581,311247.7999999523,8011,WL,A,9.0
3,12.746000051498413,learn,47253.99994850159,Fri Jul 18 2025 12:03:00 GMT-0500 (Central Daylight Time),311997.0,A,fi,I,i,133,3,749.2000000476837,311247.7999999523,8011,WL,A,9.0
3,12.980999946594238,learn,47019.00005340576,Fri Jul 18 2025 12:03:00 GMT-0500 (Central Daylight Time),312231.6999999285,A,fin,I,n,224,3,983.8999999761581,311247.7999999523,8011,WL,A,9.0
3,13.13100004196167,learn,46868.99995803833,Fri Jul 18 2025 12:03:00 GMT-0500 (Central Daylight Time),312382.10000002384,A,fing,I,g,145,3,1134.3000000715256,311247.7999999523,8011,WL,A,9.0
3,13.229000091552734,learn,46770.999908447266,Fri Jul 18 2025 12:03:00 GMT-0500 (Central Daylight Time),312480.2999999523,A,finge,I,e,78,3,1232.5,311247.7999999523,8011,WL,A,9.0
3,13.330000162124634,learn,46669.999837875366,Fri Jul 18 2025 12:03:00 GMT-0500 (Central Daylight Time),312581.1999999285,A,finger,I,r,78,3,1333.3999999761581,311247.7999999523,8011,WL,A,9.0
3,13.498000144958496,learn,46501.999855041504,Fri Jul 18 2025 12:03:00 GMT-0500 (Central Daylight Time),312749.0,A,fingerenter,I,enter,161,3,1501.2000000476837,311247.7999999523,8011,WL,A,9.0
3,13.748000144958496,learn,46251.999855041504,Fri Jul 18 2025 12:03:00 GMT-0500 (Central Daylight Time),312998.39999997616,A,g,I,g,243,3,249.20000004768372,312749.1999999285,8011,WL,A,10.0
3,13.896000146865845,learn,46103.999853134155,Fri Jul 18 2025 12:03:00 GMT-0500 (Central Daylight Time),313147.0,A,go,I,o,135,3,397.8000000715256,312749.1999999285,8011,WL,A,10.0
3,14.162000179290771,learn,45837.99982070923,Fri Jul 18 2025 12:03:00 GMT-0500 (Central Daylight Time),313413.2999999523,A,gol,I,l,250,3,664.1000000238419,312749.1999999285,8011,WL,A,10.0
3,14.246000051498413,learn,45753.99994850159,Fri Jul 18 2025 12:03:00 GMT-0500 (Central Daylight Time),313496.6999999285,A,gold,I,d,70,3,747.5,312749.1999999285,8011,WL,A,10.0
3,14.496999979019165,learn,45503.000020980835,Fri Jul 18 2025 12:03:00 GMT-0500 (Central Daylight Time),313747.89999997616,A,goldenter,I,enter,228,3,998.7000000476837,312749.1999999285,8011,WL,A,10.0
3,14.797000169754028,learn,45202.99983024597,Fri Jul 18 2025 12:03:00 GMT-0500 (Central Daylight Time),314047.60000002384,A,b,I,b,290,3,299.40000009536743,313748.1999999285,8011,WL,A,11.0
3,15.013000011444092,learn,44986.99998855591,Fri Jul 18 2025 12:03:00 GMT-0500 (Central Daylight Time),314264.0,A,bu,I,u,197,3,515.8000000715256,313748.1999999285,8011,WL,A,11.0
3,15.128999948501587,learn,44871.00005149841,Fri Jul 18 2025 12:03:00 GMT-0500 (Central Daylight Time),314379.5,A,but,I,t,101,3,631.3000000715256,313748.1999999285,8011,WL,A,11.0
3,15.297000169754028,learn,44702.99983024597,Fri Jul 18 2025 12:03:00 GMT-0500 (Central Daylight Time),314548.2999999523,A,butt,I,t,153,3,800.1000000238419,313748.1999999285,8011,WL,A,11.0
3,15.628999948501587,learn,44371.00005149841,Fri Jul 18 2025 12:03:00 GMT-0500 (Central Daylight Time),314879.60000002384,A,butto,I,o,314,3,1131.4000000953674,313748.1999999285,8011,WL,A,11.0
3,15.779000043869019,learn,44220.99995613098,Fri Jul 18 2025 12:03:00 GMT-0500 (Central Daylight Time),315030.1999999285,A,button,I,n,132,3,1282.0,313748.1999999285,8011,WL,A,11.0
3,16.128999948501587,learn,43871.00005149841,Fri Jul 18 2025 12:03:00 GMT-0500 (Central Daylight Time),315379.60000002384,A,buttonenter,I,enter,327,3,1631.4000000953674,313748.1999999285,8011,WL,A,11.0
3,16.663000106811523,learn,43336.99989318848,Fri Jul 18 2025 12:03:00 GMT-0500 (Central Daylight Time),315913.6999999285,A,l,I,l,522,3,533.8999999761581,315379.7999999523,8011,WL,A,12.0
3,16.894999980926514,learn,43105.000019073486,Fri Jul 18 2025 12:03:00 GMT-0500 (Central Daylight Time),316145.89999997616,A,lo,I,o,212,3,766.1000000238419,315379.7999999523,8011,WL,A,12.0
3,16.99500012397766,learn,43004.99987602234,Fri Jul 18 2025 12:03:00 GMT-0500 (Central Daylight Time),316245.7999999523,A,log,I,g,90,3,866.0,315379.7999999523,8011,WL,A,12.0
3,17.228000164031982,learn,42771.99983596802,Fri Jul 18 2025 12:03:00 GMT-0500 (Central Daylight Time),316478.6999999285,A,logenter,I,enter,223,3,1098.8999999761581,315379.7999999523,8011,WL,A,12.0
3,18.09599995613098,learn,41904.00004386902,Fri Jul 18 2025 12:03:00 GMT-0500 (Central Daylight Time),317346.7999999523,A,c,I,c,847,3,867.8999999761581,316478.89999997616,8011,WL,A,13.0
3,18.228000164031982,learn,41771.99983596802,Fri Jul 18 2025 12:03:00 GMT-0500 (Central Daylight Time),317479.39999997616,A,ch,I,h,122,3,1000.5,316478.89999997616,8011,WL,A,13.0
3,18.311000108718872,learn,41688.99989128113,Fri Jul 18 2025 12:03:00 GMT-0500 (Central Daylight Time),317561.89999997616,A,chi,I,i,62,3,1083.0,316478.89999997616,8011,WL,A,13.0
3,18.628000020980835,learn,41371.999979019165,Fri Jul 18 2025 12:03:00 GMT-0500 (Central Daylight Time),317878.7999999523,A,chim,I,m,297,3,1399.8999999761581,316478.89999997616,8011,WL,A,13.0
3,18.861000061035156,learn,41138.999938964844,Fri Jul 18 2025 12:03:00 GMT-0500 (Central Daylight Time),318111.89999997616,A,chime,I,e,214,3,1633.0,316478.89999997616,8011,WL,A,13.0
3,19.011000156402588,learn,40988.99984359741,Fri Jul 18 2025 12:03:00 GMT-0500 (Central Daylight Time),318261.7999999523,A,chimen,I,n,132,3,1782.8999999761581,316478.89999997616,8011,WL,A,13.0
3,19.36300015449524,learn,40636.99984550476,Fri Jul 18 2025 12:03:00 GMT-0500 (Central Daylight Time),318613.60000002384,A,chime,I,backspace,335,3,2134.7000000476837,316478.89999997616,8011,WL,A,13.0
3,19.51200008392334,learn,40487.99991607666,Fri Jul 18 2025 12:03:00 GMT-0500 (Central Daylight Time),318762.5,A,chim,I,backspace,127,3,2283.600000023842,316478.89999997616,8011,WL,A,13.0
3,19.74399995803833,learn,40256.00004196167,Fri Jul 18 2025 12:03:00 GMT-0500 (Central Daylight Time),318994.39999997616,A,chimn,I,n,211,3,2515.5,316478.89999997616,8011,WL,A,13.0
3,19.8270001411438,learn,40172.9998588562,Fri Jul 18 2025 12:03:00 GMT-0500 (Central Daylight Time),319078.1999999285,A,chimne,I,e,74,3,2599.2999999523163,316478.89999997616,8011,WL,A,13.0
3,19.993000030517578,learn,40006.99996948242,Fri Jul 18 2025 12:03:00 GMT-0500 (Central Daylight Time),319244.0,A,chimney,I,y,158,3,2765.100000023842,316478.89999997616,8011,WL,A,13.0
3,20.377000093460083,learn,39622.99990653992,Fri Jul 18 2025 12:03:00 GMT-0500 (Central Daylight Time),319628.2999999523,A,chimneyenter,I,enter,363,3,3149.399999976158,316478.89999997616,8011,WL,A,13.0
3,20.59500002861023,learn,39404.99997138977,Fri Jul 18 2025 12:03:00 GMT-0500 (Central Daylight Time),319845.60000002384,A,r,I,r,210,3,217.0,319628.60000002384,8011,WL,A,14.0
3,20.776999950408936,learn,39223.000049591064,Fri Jul 18 2025 12:03:00 GMT-0500 (Central Daylight Time),320028.1999999285,A,ra,I,a,162,3,399.59999990463257,319628.60000002384,8011,WL,A,14.0
3,20.993000030517578,learn,39006.99996948242,Fri Jul 18 2025 12:03:00 GMT-0500 (Central Daylight Time),320244.39999997616,A,rat,I,t,201,3,615.7999999523163,319628.60000002384,8011,WL,A,14.0
3,21.177000045776367,learn,38822.99995422363,Fri Jul 18 2025 12:03:00 GMT-0500 (Central Daylight Time),320428.1999999285,A,ratt,I,t,168,3,799.5999999046326,319628.60000002384,8011,WL,A,14.0
3,21.20799994468689,learn,38792.00005531311,Fri Jul 18 2025 12:03:00 GMT-0500 (Central Daylight Time),320459.0,A,rattl,I,l,23,3,830.3999999761581,319628.60000002384,8011,WL,A,14.0
3,21.460999965667725,learn,38539.000034332275,Fri Jul 18 2025 12:03:00 GMT-0500 (Central Daylight Time),320711.60000002384,A,rattle,I,e,244,3,1083.0,319628.60000002384,8011,WL,A,14.0
3,21.594000101089478,learn,38405.99989891052,Fri Jul 18 2025 12:03:00 GMT-0500 (Central Daylight Time),320844.2999999523,A,rattleenter,I,enter,119,3,1215.6999999284744,319628.60000002384,8011,WL,A,14.0
3,21.89300012588501,learn,38106.99987411499,Fri Jul 18 2025 12:03:00 GMT-0500 (Central Daylight Time),321144.39999997616,A,k,I,k,289,3,299.7999999523163,320844.60000002384,8011,WL,A,15.0
3,22.194000005722046,learn,37805.999994277954,Fri Jul 18 2025 12:03:00 GMT-0500 (Central Daylight Time),321444.39999997616,A,ke,I,e,290,3,599.7999999523163,320844.60000002384,8011,WL,A,15.0
3,22.47699999809265,learn,37523.00000190735,Fri Jul 18 2025 12:03:00 GMT-0500 (Central Daylight Time),321727.7999999523,A,key,I,y,271,3,883.1999999284744,320844.60000002384,8011,WL,A,15.0
3,22.812000036239624,learn,37187.999963760376,Fri Jul 18 2025 12:03:00 GMT-0500 (Central Daylight Time),322062.39999997616,A,keyenter,I,enter,317,3,1217.7999999523163,320844.60000002384,8011,WL,A,15.0
4,2.1670000553131104,learn,57832.99994468689,Fri Jul 18 2025 12:03:00 GMT-0500 (Central Daylight Time),389524.0,A,b,I,b,2146,3,2166.899999976158,387357.10000002384,8011,WL,A,1.0
4,2.318000078201294,learn,57681.999921798706,Fri Jul 18 2025 12:03:00 GMT-0500 (Central Daylight Time),389674.39999997616,A,bo,I,o,140,3,2317.2999999523163,387357.10000002384,8011,WL,A,1.0
4,2.5,learn,57500.0,Fri Jul 18 2025 12:03:00 GMT-0500 (Central Daylight Time),389856.60000002384,A,boo,I,o,161,3,2499.5,387357.10000002384,8011,WL,A,1.0
4,2.6000001430511475,learn,57399.99985694885,Fri Jul 18 2025 12:03:00 GMT-0500 (Central Daylight Time),389956.6999999285,A,book,I,k,80,3,2599.5999999046326,387357.10000002384,8011,WL,A,1.0
4,2.8480000495910645,learn,57151.999950408936,Fri Jul 18 2025 12:03:00 GMT-0500 (Central Daylight Time),390205.0,A,bookenter,I,enter,235,3,2847.899999976158,387357.10000002384,8011,WL,A,1.0
4,3.2150001525878906,learn,56784.99984741211,Fri Jul 18 2025 12:03:00 GMT-0500 (Central Daylight Time),390571.89999997616,A,f,I,f,352,3,366.7000000476837,390205.1999999285,8011,WL,A,2.0
4,3.3559999465942383,learn,56644.00005340576,Fri Jul 18 2025 12:03:00 GMT-0500 (Central Daylight Time),390712.2999999523,A,fl,I,l,110,3,507.10000002384186,390205.1999999285,8011,WL,A,2.0
4,3.5840001106262207,learn,56415.99988937378,Fri Jul 18 2025 12:03:00 GMT-0500 (Central Daylight Time),390940.39999997616,A,flo,I,o,208,3,735.2000000476837,390205.1999999285,8011,WL,A,2.0
4,3.6480000019073486,learn,56351.99999809265,Fri Jul 18 2025 12:03:00 GMT-0500 (Central Daylight Time),391004.89999997616,A,flow,I,w,47,3,799.7000000476837,390205.1999999285,8011,WL,A,2.0
4,3.7669999599456787,learn,56233.00004005432,Fri Jul 18 2025 12:03:00 GMT-0500 (Central Daylight Time),391123.1999999285,A,flowe,I,e,98,3,918.0,390205.1999999285,8011,WL,A,2.0
4,4.016000032424927,learn,55983.99996757507,Fri Jul 18 2025 12:03:00 GMT-0500 (Central Daylight Time),391372.10000002384,A,flower,I,r,232,3,1166.9000000953674,390205.1999999285,8011,WL,A,2.0
4,4.348999977111816,learn,55651.00002288818,Fri Jul 18 2025 12:03:00 GMT-0500 (Central Daylight Time),391705.7999999523,A,flowerenter,I,enter,320,3,1500.6000000238419,390205.1999999285,8011,WL,A,2.0
4,4.650000095367432,learn,55349.99990463257,Fri Jul 18 2025 12:03:00 GMT-0500 (Central Daylight Time),392006.2999999523,A,t,I,t,295,3,300.1999999284744,391706.10000002384,8011,WL,A,3.0
4,4.881999969482422,learn,55118.00003051758,Fri Jul 18 2025 12:03:00 GMT-0500 (Central Daylight Time),392239.0,A,tr,I,r,224,3,532.8999999761581,391706.10000002384,8011,WL,A,3.0
4,5.0340001583099365,learn,54965.99984169006,Fri Jul 18 2025 12:03:00 GMT-0500 (Central Daylight Time),392390.2999999523,A,tra,I,a,141,3,684.1999999284744,391706.10000002384,8011,WL,A,3.0
4,5.2829999923706055,learn,54717.000007629395,Fri Jul 18 2025 12:03:00 GMT-0500 (Central Daylight Time),392639.2999999523,A,tran,I,n,238,3,933.1999999284744,391706.10000002384,8011,WL,A,3.0
4,5.699000120162964,learn,54300.999879837036,Fri Jul 18 2025 12:03:00 GMT-0500 (Central Daylight Time),393055.2999999523,A,tra,I,backspace,398,3,1349.1999999284744,391706.10000002384,8011,WL,A,3.0
4,5.916000127792358,learn,54083.99987220764,Fri Jul 18 2025 12:03:00 GMT-0500 (Central Daylight Time),393273.0,A,trai,I,i,195,3,1566.8999999761581,391706.10000002384,8011,WL,A,3.0
4,6.015000104904175,learn,53984.999895095825,Fri Jul 18 2025 12:03:00 GMT-0500 (Central Daylight Time),393371.7999999523,A,train,I,n,81,3,1665.6999999284744,391706.10000002384,8011,WL,A,3.0
4,6.3480000495910645,learn,53651.999950408936,Fri Jul 18 2025 12:03:00 GMT-0500 (Central Daylight Time),393704.89999997616,A,trainenter,I,enter,313,3,1998.7999999523163,391706.10000002384,8011,WL,A,3.0
4,7.249000072479248,learn,52750.99992752075,Fri Jul 18 2025 12:03:00 GMT-0500 (Central Daylight Time),394605.39999997616,A,m,I,m,884,3,900.2000000476837,393705.1999999285,8011,WL,A,4.0
4,7.332000017166138,learn,52667.99998283386,Fri Jul 18 2025 12:03:00 GMT-0500 (Central Daylight Time),394688.39999997616,A,me,I,e,64,3,983.2000000476837,393705.1999999285,8011,WL,A,4.0
4,7.531000137329102,learn,52468.9998626709,Fri Jul 18 2025 12:03:00 GMT-0500 (Central Daylight Time),394887.6999999285,A,mea,I,a,183,3,1182.5,393705.1999999285,8011,WL,A,4.0
4,7.648999929428101,learn,52351.0000705719,Fri Jul 18 2025 12:03:00 GMT-0500 (Central Daylight Time),395005.10000002384,A,mead,I,d,98,3,1299.9000000953674,393705.1999999285,8011,WL,A,4.0
4,7.746999979019165,learn,52253.000020980835,Fri Jul 18 2025 12:03:00 GMT-0500 (Central Daylight Time),395103.7999999523,A,meado,I,o,82,3,1398.6000000238419,393705.1999999285,8011,WL,A,4.0
4,7.983000040054321,learn,52016.99995994568,Fri Jul 18 2025 12:03:00 GMT-0500 (Central Daylight Time),395339.10000002384,A,meadow,I,w,222,3,1633.9000000953674,393705.1999999285,8011,WL,A,4.0
4,8.182000160217285,learn,51817.999839782715,Fri Jul 18 2025 12:03:00 GMT-0500 (Central Daylight Time),395538.10000002384,A,meadowenter,I,enter,181,3,1832.9000000953674,393705.1999999285,8011,WL,A,4.0
4,8.430999994277954,learn,51569.000005722046,Fri Jul 18 2025 12:03:00 GMT-0500 (Central Daylight Time),395787.60000002384,A,s,I,s,235,3,249.20000004768372,395538.39999997616,8011,WL,A,5.0
4,8.597000122070312,learn,51402.99987792969,Fri Jul 18 2025 12:03:00 GMT-0500 (Central Daylight Time),395953.89999997616,A,sa,I,a,154,3,415.5,395538.39999997616,8011,WL,A,5.0
4,8.67799997329712,learn,51322.00002670288,Fri Jul 18 2025 12:03:00 GMT-0500 (Central Daylight Time),396034.89999997616,A,sal,I,l,75,3,496.5,395538.39999997616,8011,WL,A,5.0
4,8.815000057220459,learn,51184.99994277954,Fri Jul 18 2025 12:03:00 GMT-0500 (Central Daylight Time),396171.6999999285,A,sall,I,l,118,3,633.2999999523163,395538.39999997616,8011,WL,A,5.0
4,9.015000104904175,learn,50984.999895095825,Fri Jul 18 2025 12:03:00 GMT-0500 (Central Daylight Time),396371.5,A,sally,I,y,184,3,833.1000000238419,395538.39999997616,8011,WL,A,5.0
4,9.432000160217285,learn,50567.999839782715,Fri Jul 18 2025 12:03:00 GMT-0500 (Central Daylight Time),396788.1999999285,A,sall,I,backspace,393,3,1249.7999999523163,395538.39999997616,8011,WL,A,5.0
4,9.51200008392334,learn,50487.99991607666,Fri Jul 18 2025 12:03:00 GMT-0500 (Central Daylight Time),396868.5,A,sal,I,backspace,68,3,1330.1000000238419,395538.39999997616,8011,WL,A,5.0
4,9.828999996185303,learn,50171.0000038147,Fri Jul 18 2025 12:03:00 GMT-0500 (Central Daylight Time),397185.1999999285,A,salt,I,t,305,3,1646.7999999523163,395538.39999997616,8011,WL,A,5.0
4,10.065000057220459,learn,49934.99994277954,Fri Jul 18 2025 12:03:00 GMT-0500 (Central Daylight Time),397421.5,A,saltenter,I,enter,230,3,1883.1000000238419,395538.39999997616,8011,WL,A,5.0
4,10.364000082015991,learn,49635.99991798401,Fri Jul 18 2025 12:03:00 GMT-0500 (Central Daylight Time),397720.39999997616,A,a,I,a,279,3,298.10000002384186,397422.2999999523,8011,WL,A,6.0
4,10.598000049591064,learn,49401.999950408936,Fri Jul 18 2025 12:03:00 GMT-0500 (Central Daylight Time),397954.2999999523,A,ap,I,p,211,3,532.0,397422.2999999523,8011,WL,A,6.0
4,10.746000051498413,learn,49253.99994850159,Fri Jul 18 2025 12:03:00 GMT-0500 (Central Daylight Time),398102.89999997616,A,app,I,p,138,3,680.6000000238419,397422.2999999523,8011,WL,A,6.0
4,10.847000122070312,learn,49152.99987792969,Fri Jul 18 2025 12:03:00 GMT-0500 (Central Daylight Time),398203.2999999523,A,appl,I,l,85,3,781.0,397422.2999999523,8011,WL,A,6.0
4,10.96399998664856,learn,49036.00001335144,Fri Jul 18 2025 12:03:00 GMT-0500 (Central Daylight Time),398320.39999997616,A,apple,I,e,106,3,898.1000000238419,397422.2999999523,8011,WL,A,6.0
4,11.163000106811523,learn,48836.99989318848,Fri Jul 18 2025 12:03:00 GMT-0500 (Central Daylight Time),398519.39999997616,A,appleenter,I,enter,187,3,1097.1000000238419,397422.2999999523,8011,WL,A,6.0
4,11.480000019073486,learn,48519.999980926514,Fri Jul 18 2025 12:03:00 GMT-0500 (Central Daylight Time),398837.0,A,h,I,h,303,3,317.3000000715256,398519.6999999285,8011,WL,A,7.0
4,11.63100004196167,learn,48368.99995803833,Fri Jul 18 2025 12:03:00 GMT-0500 (Central Daylight Time),398987.89999997616,A,ha,I,a,131,3,468.2000000476837,398519.6999999285,8011,WL,A,7.0
4,11.73200011253357,learn,48267.99988746643,Fri Jul 18 2025 12:03:00 GMT-0500 (Central Daylight Time),399088.1999999285,A,har,I,r,81,3,568.5,398519.6999999285,8011,WL,A,7.0
4,11.94700002670288,learn,48052.99997329712,Fri Jul 18 2025 12:03:00 GMT-0500 (Central Daylight Time),399303.1999999285,A,hard,I,d,203,3,783.5,398519.6999999285,8011,WL,A,7.0
4,12.130000114440918,learn,47869.99988555908,Fri Jul 18 2025 12:03:00 GMT-0500 (Central Daylight Time),399486.39999997616,A,hardenter,I,enter,165,3,966.7000000476837,398519.6999999285,8011,WL,A,7.0
4,13.013000011444092,learn,46986.99998855591,Fri Jul 18 2025 12:03:00 GMT-0500 (Central Daylight Time),400369.1999999285,A,f,I,f,865,3,882.3999999761581,399486.7999999523,8011,WL,A,8.0
4,13.230000019073486,learn,46769.999980926514,Fri Jul 18 2025 12:03:00 GMT-0500 (Central Daylight Time),400586.6999999285,A,fi,I,i,194,3,1099.8999999761581,399486.7999999523,8011,WL,A,8.0
4,13.329999923706055,learn,46670.000076293945,Fri Jul 18 2025 12:03:00 GMT-0500 (Central Daylight Time),400686.1999999285,A,fin,I,n,92,3,1199.3999999761581,399486.7999999523,8011,WL,A,8.0
4,13.430000066757202,learn,46569.9999332428,Fri Jul 18 2025 12:03:00 GMT-0500 (Central Daylight Time),400786.60000002384,A,fing,I,g,84,3,1299.8000000715256,399486.7999999523,8011,WL,A,8.0
4,13.513000011444092,learn,46486.99998855591,Fri Jul 18 2025 12:03:00 GMT-0500 (Central Daylight Time),400869.5,A,finge,I,e,63,3,1382.7000000476837,399486.7999999523,8011,WL,A,8.0
4,13.581000089645386,learn,46418.999910354614,Fri Jul 18 2025 12:03:00 GMT-0500 (Central Daylight Time),400937.1999999285,A,finger,I,r,56,3,1450.3999999761581,399486.7999999523,8011,WL,A,8.0
4,13.878999948501587,learn,46121.00005149841,Fri Jul 18 2025 12:03:00 GMT-0500 (Central Daylight Time),401236.0,A,fingerenter,I,enter,281,3,1749.2000000476837,399486.7999999523,8011,WL,A,8.0
4,14.59500002861023,learn,45404.99997138977,Fri Jul 18 2025 12:03:00 GMT-0500 (Central Daylight Time),401951.6999999285,A,g,I,g,705,3,715.5,401236.1999999285,8011,WL,A,9.0
4,14.67900013923645,learn,45320.99986076355,Fri Jul 18 2025 12:03:00 GMT-0500 (Central Daylight Time),402035.1999999285,A,go,I,o,66,3,799.0,401236.1999999285,8011,WL,A,9.0
4,14.894999980926514,learn,45105.000019073486,Fri Jul 18 2025 12:03:00 GMT-0500 (Central Daylight Time),402251.7999999523,A,gol,I,l,200,3,1015.6000000238419,401236.1999999285,8011,WL,A,9.0
4,14.996000051498413,learn,45003.99994850159,Fri Jul 18 2025 12:03:00 GMT-0500 (Central Daylight Time),402352.10000002384,A,gold,I,d,80,3,1115.9000000953674,401236.1999999285,8011,WL,A,9.0
4,15.128000020980835,learn,44871.999979019165,Fri Jul 18 2025 12:03:00 GMT-0500 (Central Daylight Time),402484.89999997616,A,goldenter,I,enter,113,3,1248.7000000476837,401236.1999999285,8011,WL,A,9.0
4,16.064000129699707,learn,43935.99987030029,Fri Jul 18 2025 12:03:00 GMT-0500 (Central Daylight Time),403420.5,A,b,I,b,914,3,935.3000000715256,402485.1999999285,8011,WL,A,10.0
4,16.246000051498413,learn,43753.99994850159,Fri Jul 18 2025 12:03:00 GMT-0500 (Central Daylight Time),403602.60000002384,A,bu,I,u,170,3,1117.4000000953674,402485.1999999285,8011,WL,A,10.0
4,16.34599995613098,learn,43654.00004386902,Fri Jul 18 2025 12:03:00 GMT-0500 (Central Daylight Time),403702.6999999285,A,but,I,t,81,3,1217.5,402485.1999999285,8011,WL,A,10.0
4,16.513000011444092,learn,43486.99998855591,Fri Jul 18 2025 12:03:00 GMT-0500 (Central Daylight Time),403869.5,A,butt,I,t,142,3,1384.3000000715256,402485.1999999285,8011,WL,A,10.0
4,16.526000022888184,learn,43473.99997711182,Fri Jul 18 2025 12:03:00 GMT-0500 (Central Daylight Time),403882.39999997616,A,butto,I,o,2,3,1397.2000000476837,402485.1999999285,8011,WL,A,10.0
4,16.663000106811523,learn,43336.99989318848,Fri Jul 18 2025 12:03:00 GMT-0500 (Central Daylight Time),404019.1999999285,A,button,I,n,118,3,1534.0,402485.1999999285,8011,WL,A,10.0
4,16.92900013923645,learn,43070.99986076355,Fri Jul 18 2025 12:03:00 GMT-0500 (Central Daylight Time),404285.2999999523,A,buttonenter,I,enter,243,3,1800.1000000238419,402485.1999999285,8011,WL,A,10.0
4,17.161999940872192,learn,42838.00005912781,Fri Jul 18 2025 12:03:00 GMT-0500 (Central Daylight Time),404518.60000002384,A,c,I,c,216,3,233.10000002384186,404285.5,8011,WL,A,11.0
4,17.27900004386902,learn,42720.99995613098,Fri Jul 18 2025 12:03:00 GMT-0500 (Central Daylight Time),404635.1999999285,A,ch,I,h,100,3,349.6999999284744,404285.5,8011,WL,A,11.0
4,17.360000133514404,learn,42639.999866485596,Fri Jul 18 2025 12:03:00 GMT-0500 (Central Daylight Time),404716.60000002384,A,cho,I,o,65,3,431.10000002384186,404285.5,8011,WL,A,11.0
4,17.694999933242798,learn,42305.0000667572,Fri Jul 18 2025 12:03:00 GMT-0500 (Central Daylight Time),405051.0,A,chom,I,m,319,3,765.5,404285.5,8011,WL,A,11.0
4,17.977999925613403,learn,42022.0000743866,Fri Jul 18 2025 12:03:00 GMT-0500 (Central Daylight Time),405334.5,A,cho,I,backspace,277,3,1049.0,404285.5,8011,WL,A,11.0
4,18.111000061035156,learn,41888.999938964844,Fri Jul 18 2025 12:03:00 GMT-0500 (Central Daylight Time),405467.6999999285,A,ch,I,backspace,120,3,1182.1999999284744,404285.5,8011,WL,A,11.0
4,18.32800006866455,learn,41671.99993133545,Fri Jul 18 2025 12:03:00 GMT-0500 (Central Daylight Time),405684.6999999285,A,chi,I,i,197,3,1399.1999999284744,404285.5,8011,WL,A,11.0
4,18.546000003814697,learn,41453.9999961853,Fri Jul 18 2025 12:03:00 GMT-0500 (Central Daylight Time),405902.89999997616,A,chim,I,m,211,3,1617.3999999761581,404285.5,8011,WL,A,11.0
4,18.84500002861023,learn,41154.99997138977,Fri Jul 18 2025 12:03:00 GMT-0500 (Central Daylight Time),406201.0,A,chime,I,e,287,3,1915.5,404285.5,8011,WL,A,11.0
4,19.061000108718872,learn,40938.99989128113,Fri Jul 18 2025 12:03:00 GMT-0500 (Central Daylight Time),406417.5,A,chimey,I,y,195,3,2132.0,404285.5,8011,WL,A,11.0
4,20.026999950408936,learn,39973.000049591064,Fri Jul 18 2025 12:03:00 GMT-0500 (Central Daylight Time),407383.89999997616,A,chime,I,backspace,953,3,3098.399999976158,404285.5,8011,WL,A,11.0
4,20.194999933242798,learn,39805.0000667572,Fri Jul 18 2025 12:03:00 GMT-0500 (Central Daylight Time),407551.2999999523,A,chim,I,backspace,151,3,3265.7999999523163,404285.5,8011,WL,A,11.0
4,20.67799997329712,learn,39322.00002670288,Fri Jul 18 2025 12:03:00 GMT-0500 (Central Daylight Time),408034.7999999523,A,chimn,I,n,470,3,3749.2999999523163,404285.5,8011,WL,A,11.0
4,20.795000076293945,learn,39204.999923706055,Fri Jul 18 2025 12:03:00 GMT-0500 (Central Daylight Time),408151.0,A,chimne,I,e,99,3,3865.5,404285.5,8011,WL,A,11.0
4,20.960999965667725,learn,39039.000034332275,Fri Jul 18 2025 12:03:00 GMT-0500 (Central Daylight Time),408317.60000002384,A,chimney,I,y,161,3,4032.100000023842,404285.5,8011,WL,A,11.0
4,21.176000118255615,learn,38823.999881744385,Fri Jul 18 2025 12:03:00 GMT-0500 (Central Daylight Time),408532.60000002384,A,chimneyenter,I,enter,209,3,4247.100000023842,404285.5,8011,WL,A,11.0
4,21.378000020980835,learn,38621.999979019165,Fri Jul 18 2025 12:03:00 GMT-0500 (Central Daylight Time),408734.60000002384,A,l,I,l,185,3,201.70000004768372,408532.89999997616,8011,WL,A,12.0
4,21.592999935150146,learn,38407.00006484985,Fri Jul 18 2025 12:03:00 GMT-0500 (Central Daylight Time),408949.60000002384,A,lo,I,o,203,3,416.7000000476837,408532.89999997616,8011,WL,A,12.0
4,21.693000078201294,learn,38306.999921798706,Fri Jul 18 2025 12:03:00 GMT-0500 (Central Daylight Time),409049.6999999285,A,log,I,g,87,3,516.7999999523163,408532.89999997616,8011,WL,A,12.0
4,21.97699999809265,learn,38023.00000190735,Fri Jul 18 2025 12:03:00 GMT-0500 (Central Daylight Time),409333.60000002384,A,logenter,I,enter,267,3,800.7000000476837,408532.89999997616,8011,WL,A,12.0
4,23.360000133514404,learn,36639.999866485596,Fri Jul 18 2025 12:03:00 GMT-0500 (Central Daylight Time),410716.1999999285,A,r,I,r,1361,3,1382.2999999523163,409333.89999997616,8011,WL,A,13.0
4,23.66100001335144,learn,36338.99998664856,Fri Jul 18 2025 12:03:00 GMT-0500 (Central Daylight Time),411017.39999997616,A,rt,I,t,281,3,1683.5,409333.89999997616,8011,WL,A,13.0
4,23.842000007629395,learn,36157.999992370605,Fri Jul 18 2025 12:03:00 GMT-0500 (Central Daylight Time),411198.7999999523,A,rtt,I,t,162,3,1864.8999999761581,409333.89999997616,8011,WL,A,13.0
4,23.9760000705719,learn,36023.9999294281,Fri Jul 18 2025 12:03:00 GMT-0500 (Central Daylight Time),411332.6999999285,A,rttl,I,l,115,3,1998.7999999523163,409333.89999997616,8011,WL,A,13.0
4,24.294000148773193,learn,35705.99985122681,Fri Jul 18 2025 12:03:00 GMT-0500 (Central Daylight Time),411650.1999999285,A,rtt,I,backspace,305,3,2316.2999999523163,409333.89999997616,8011,WL,A,13.0
4,24.443000078201294,learn,35556.999921798706,Fri Jul 18 2025 12:03:00 GMT-0500 (Central Daylight Time),411799.1999999285,A,rt,I,backspace,130,3,2465.2999999523163,409333.89999997616,8011,WL,A,13.0
4,24.575999975204468,learn,35424.00002479553,Fri Jul 18 2025 12:03:00 GMT-0500 (Central Daylight Time),411932.5,A,r,I,backspace,116,3,2598.600000023842,409333.89999997616,8011,WL,A,13.0
4,24.95900011062622,learn,35040.99988937378,Fri Jul 18 2025 12:03:00 GMT-0500 (Central Daylight Time),412315.89999997616,A,ra,I,a,369,3,2982.0,409333.89999997616,8011,WL,A,13.0
4,25.075999975204468,learn,34924.00002479553,Fri Jul 18 2025 12:03:00 GMT-0500 (Central Daylight Time),412432.10000002384,A,rat,I,t,106,3,3098.2000000476837,409333.89999997616,8011,WL,A,13.0
4,25.259000062942505,learn,34740.999937057495,Fri Jul 18 2025 12:03:00 GMT-0500 (Central Daylight Time),412615.39999997616,A,ratt,I,t,166,3,3281.5,409333.89999997616,8011,WL,A,13.0
4,25.424999952316284,learn,34575.000047683716,Fri Jul 18 2025 12:03:00 GMT-0500 (Central Daylight Time),412781.39999997616,A,rattl,I,l,149,3,3447.5,409333.89999997616,8011,WL,A,13.0
4,25.60800004005432,learn,34391.99995994568,Fri Jul 18 2025 12:03:00 GMT-0500 (Central Daylight Time),412964.6999999285,A,rattle,I,e,169,3,3630.7999999523163,409333.89999997616,8011,WL,A,13.0
4,25.759999990463257,learn,34240.00000953674,Fri Jul 18 2025 12:03:00 GMT-0500 (Central Daylight Time),413116.1999999285,A,rattleenter,I,enter,132,3,3782.2999999523163,409333.89999997616,8011,WL,A,13.0
4,26.02500009536743,learn,33974.99990463257,Fri Jul 18 2025 12:03:00 GMT-0500 (Central Daylight Time),413381.7999999523,A,k,I,k,258,3,265.39999997615814,413116.39999997616,8011,WL,A,14.0
4,26.225000143051147,learn,33774.99985694885,Fri Jul 18 2025 12:03:00 GMT-0500 (Central Daylight Time),413581.1999999285,A,ke,I,e,181,3,464.7999999523163,413116.39999997616,8011,WL,A,14.0
4,26.45900011062622,learn,33540.99988937378,Fri Jul 18 2025 12:03:00 GMT-0500 (Central Daylight Time),413815.1999999285,A,key,I,y,225,3,698.7999999523163,413116.39999997616,8011,WL,A,14.0
4,26.674999952316284,learn,33325.000047683716,Fri Jul 18 2025 12:03:00 GMT-0500 (Central Daylight Time),414031.6999999285,A,keyenter,I,enter,205,3,915.2999999523163,413116.39999997616,8011,WL,A,14.0
4,31.123000144958496,learn,28876.999855041504,Fri Jul 18 2025 12:03:00 GMT-0500 (Central Daylight Time),418480.2999999523,A,r,I,r,4429,3,4448.299999952316,414032.0,8011,WL,A,15.0
4,31.240000009536743,learn,28759.999990463257,Fri Jul 18 2025 12:03:00 GMT-0500 (Central Daylight Time),418597.10000002384,A,ru,I,u,102,3,4565.100000023842,414032.0,8011,WL,A,15.0
4,31.35700011253357,learn,28642.99988746643,Fri Jul 18 2025 12:03:00 GMT-0500 (Central Daylight Time),418714.0,A,rug,I,g,105,3,4682.0,414032.0,8011,WL,A,15.0
4,31.624000072479248,learn,28375.999927520752,Fri Jul 18 2025 12:03:00 GMT-0500 (Central Daylight Time),418980.7999999523,A,rugenter,I,enter,251,3,4948.799999952316,414032.0,8011,WL,A,15.0
5,1.065000057220459,learn,60000.0,Fri Jul 18 2025 12:03:00 GMT-0500 (Central Daylight Time),485525.60000002384,A,f,I,f,1056,3,1064.9000000953674,484460.6999999285,8011,WL,A,1.0
5,1.248000144958496,learn,60000.0,Fri Jul 18 2025 12:03:00 GMT-0500 (Central Daylight Time),485709.10000002384,A,fl,I,l,167,3,1248.4000000953674,484460.6999999285,8011,WL,A,1.0
5,1.5150001049041748,learn,60000.0,Fri Jul 18 2025 12:03:00 GMT-0500 (Central Daylight Time),485975.2999999523,A,flo,I,o,247,3,1514.6000000238419,484460.6999999285,8011,WL,A,1.0
5,1.6640000343322754,learn,60000.0,Fri Jul 18 2025 12:03:00 GMT-0500 (Central Daylight Time),486124.7999999523,A,flow,I,w,134,3,1664.1000000238419,484460.6999999285,8011,WL,A,1.0
5,1.7980000972747803,learn,60000.0,Fri Jul 18 2025 12:03:00 GMT-0500 (Central Daylight Time),486258.89999997616,A,flowe,I,e,120,3,1798.2000000476837,484460.6999999285,8011,WL,A,1.0
5,2.065000057220459,learn,60000.0,Fri Jul 18 2025 12:03:00 GMT-0500 (Central Daylight Time),486525.60000002384,A,flower,I,r,260,3,2064.9000000953674,484460.6999999285,8011,WL,A,1.0
5,2.3310000896453857,learn,60000.0,Fri Jul 18 2025 12:03:00 GMT-0500 (Central Daylight Time),486791.7999999523,A,flowerenter,I,enter,248,3,2331.100000023842,484460.6999999285,8011,WL,A,1.0
5,2.565000057220459,learn,60000.0,Fri Jul 18 2025 12:03:00 GMT-0500 (Central Daylight Time),487025.5,A,b,I,b,222,3,233.39999997615814,486792.10000002384,8011,WL,A,2.0
5,2.7140002250671387,learn,60000.0,Fri Jul 18 2025 12:03:00 GMT-0500 (Central Daylight Time),487175.0,A,bo,I,o,141,3,382.89999997615814,486792.10000002384,8011,WL,A,2.0
5,2.88100004196167,learn,60000.0,Fri Jul 18 2025 12:03:00 GMT-0500 (Central Daylight Time),487341.6999999285,A,boo,I,o,145,3,549.5999999046326,486792.10000002384,8011,WL,A,2.0
5,2.997000217437744,learn,60000.0,Fri Jul 18 2025 12:03:00 GMT-0500 (Central Daylight Time),487457.89999997616,A,book,I,k,96,3,665.7999999523163,486792.10000002384,8011,WL,A,2.0
5,3.2800002098083496,learn,60000.0,Fri Jul 18 2025 12:03:00 GMT-0500 (Central Daylight Time),487741.0,A,bookenter,I,enter,266,3,948.8999999761581,486792.10000002384,8011,WL,A,2.0
5,3.4630000591278076,learn,60000.0,Fri Jul 18 2025 12:03:00 GMT-0500 (Central Daylight Time),487924.10000002384,A,t,I,t,164,3,182.80000007152557,487741.2999999523,8011,WL,A,3.0
5,3.698000192642212,learn,60000.0,Fri Jul 18 2025 12:03:00 GMT-0500 (Central Daylight Time),488158.60000002384,A,tr,I,r,226,3,417.3000000715256,487741.2999999523,8011,WL,A,3.0
5,3.88100004196167,learn,60000.0,Fri Jul 18 2025 12:03:00 GMT-0500 (Central Daylight Time),488341.5,A,tra,I,a,165,3,600.2000000476837,487741.2999999523,8011,WL,A,3.0
5,4.064000129699707,learn,60000.0,Fri Jul 18 2025 12:03:00 GMT-0500 (Central Daylight Time),488524.39999997616,A,trai,I,i,164,3,783.1000000238419,487741.2999999523,8011,WL,A,3.0
5,4.199000120162964,learn,60000.0,Fri Jul 18 2025 12:03:00 GMT-0500 (Central Daylight Time),488659.60000002384,A,train,I,n,113,3,918.3000000715256,487741.2999999523,8011,WL,A,3.0
5,4.5290000438690186,learn,60000.0,Fri Jul 18 2025 12:03:00 GMT-0500 (Central Daylight Time),488990.10000002384,A,trainenter,I,enter,313,3,1248.8000000715256,487741.2999999523,8011,WL,A,3.0
5,4.765000104904175,learn,60000.0,Fri Jul 18 2025 12:03:00 GMT-0500 (Central Daylight Time),489225.7999999523,A,m,I,m,226,3,235.60000002384186,488990.1999999285,8011,WL,A,4.0
5,4.896000146865845,learn,60000.0,Fri Jul 18 2025 12:03:00 GMT-0500 (Central Daylight Time),489357.0,A,me,I,e,127,3,366.8000000715256,488990.1999999285,8011,WL,A,4.0
5,5.047000169754028,learn,60000.0,Fri Jul 18 2025 12:03:00 GMT-0500 (Central Daylight Time),489507.7999999523,A,mea,I,a,130,3,517.6000000238419,488990.1999999285,8011,WL,A,4.0
5,5.163000106811523,learn,60000.0,Fri Jul 18 2025 12:03:00 GMT-0500 (Central Daylight Time),489623.7999999523,A,mead,I,d,104,3,633.6000000238419,488990.1999999285,8011,WL,A,4.0
5,5.3460001945495605,learn,60000.0,Fri Jul 18 2025 12:03:00 GMT-0500 (Central Daylight Time),489806.6999999285,A,meado,I,o,165,3,816.5,488990.1999999285,8011,WL,A,4.0
5,5.546000003814697,learn,60000.0,Fri Jul 18 2025 12:03:00 GMT-0500 (Central Daylight Time),490006.89999997616,A,meadow,I,w,183,3,1016.7000000476837,488990.1999999285,8011,WL,A,4.0
5,5.763000011444092,learn,60000.0,Fri Jul 18 2025 12:03:00 GMT-0500 (Central Daylight Time),490224.1999999285,A,meadowenter,I,enter,207,3,1234.0,488990.1999999285,8011,WL,A,4.0
5,6.013000011444092,learn,60000.0,Fri Jul 18 2025 12:03:00 GMT-0500 (Central Daylight Time),490474.0,A,r,I,r,230,3,249.5,490224.5,8011,WL,A,5.0
5,6.231000185012817,learn,60000.0,Fri Jul 18 2025 12:03:00 GMT-0500 (Central Daylight Time),490691.5,A,ru,I,u,197,3,467.0,490224.5,8011,WL,A,5.0
5,6.380000114440918,learn,60000.0,Fri Jul 18 2025 12:03:00 GMT-0500 (Central Daylight Time),490840.2999999523,A,rug,I,g,128,3,615.7999999523163,490224.5,8011,WL,A,5.0
5,6.632000207901001,learn,60000.0,Fri Jul 18 2025 12:03:00 GMT-0500 (Central Daylight Time),491093.1999999285,A,rugh,I,h,247,3,868.6999999284744,490224.5,8011,WL,A,5.0
5,7.129000186920166,learn,60000.0,Fri Jul 18 2025 12:03:00 GMT-0500 (Central Daylight Time),491590.1999999285,A,rug,I,backspace,482,3,1365.6999999284744,490224.5,8011,WL,A,5.0
5,7.478000164031982,learn,60000.0,Fri Jul 18 2025 12:03:00 GMT-0500 (Central Daylight Time),491939.1999999285,A,rugenter,I,enter,328,3,1714.6999999284744,490224.5,8011,WL,A,5.0
5,8.130000114440918,learn,60000.0,Fri Jul 18 2025 12:03:00 GMT-0500 (Central Daylight Time),492590.89999997616,A,s,I,s,634,3,651.3999999761581,491939.5,8011,WL,A,6.0
5,8.246000051498413,learn,60000.0,Fri Jul 18 2025 12:03:00 GMT-0500 (Central Daylight Time),492706.5,A,sa,I,a,102,3,767.0,491939.5,8011,WL,A,6.0
5,8.380000114440918,learn,60000.0,Fri Jul 18 2025 12:03:00 GMT-0500 (Central Daylight Time),492840.39999997616,A,sal,I,l,114,3,900.8999999761581,491939.5,8011,WL,A,6.0
5,8.563000202178955,learn,60000.0,Fri Jul 18 2025 12:03:00 GMT-0500 (Central Daylight Time),493023.2999999523,A,salt,I,t,163,3,1083.7999999523163,491939.5,8011,WL,A,6.0
5,8.76200008392334,learn,60000.0,Fri Jul 18 2025 12:03:00 GMT-0500 (Central Daylight Time),493223.0,A,saltenter,I,enter,189,3,1283.5,491939.5,8011,WL,A,6.0
5,8.913000106811523,learn,60000.0,Fri Jul 18 2025 12:03:00 GMT-0500 (Central Daylight Time),493373.1999999285,A,a,I,a,145,3,149.79999995231628,493223.39999997616,8011,WL,A,7.0
5,9.062000036239624,learn,60000.0,Fri Jul 18 2025 12:03:00 GMT-0500 (Central Daylight Time),493523.10000002384,A,ap,I,p,129,3,299.7000000476837,493223.39999997616,8011,WL,A,7.0
5,9.213000059127808,learn,60000.0,Fri Jul 18 2025 12:03:00 GMT-0500 (Central Daylight Time),493674.10000002384,A,app,I,p,130,3,450.7000000476837,493223.39999997616,8011,WL,A,7.0
5,9.32800006866455,learn,60000.0,Fri Jul 18 2025 12:03:00 GMT-0500 (Central Daylight Time),493789.1999999285,A,appl,I,l,107,3,565.7999999523163,493223.39999997616,8011,WL,A,7.0
5,9.61300015449524,learn,60000.0,Fri Jul 18 2025 12:03:00 GMT-0500 (Central Daylight Time),494073.5,A,apple,I,e,263,3,850.1000000238419,493223.39999997616,8011,WL,A,7.0
5,9.796000003814697,learn,60000.0,Fri Jul 18 2025 12:03:00 GMT-0500 (Central Daylight Time),494256.2999999523,A,appleenter,I,enter,171,3,1032.8999999761581,493223.39999997616,8011,WL,A,7.0
5,10.212000131607056,learn,60000.0,Fri Jul 18 2025 12:03:00 GMT-0500 (Central Daylight Time),494672.60000002384,A,h,I,h,396,3,416.10000002384186,494256.5,8011,WL,A,8.0
5,10.296000003814697,learn,60000.0,Fri Jul 18 2025 12:03:00 GMT-0500 (Central Daylight Time),494756.5,A,ha,I,a,61,3,500.0,494256.5,8011,WL,A,8.0
5,10.412000179290771,learn,60000.0,Fri Jul 18 2025 12:03:00 GMT-0500 (Central Daylight Time),494872.7999999523,A,har,I,r,95,3,616.2999999523163,494256.5,8011,WL,A,8.0
5,10.612000226974487,learn,60000.0,Fri Jul 18 2025 12:03:00 GMT-0500 (Central Daylight Time),495072.89999997616,A,hard,I,d,187,3,816.3999999761581,494256.5,8011,WL,A,8.0
5,10.829000234603882,learn,60000.0,Fri Jul 18 2025 12:03:00 GMT-0500 (Central Daylight Time),495289.1999999285,A,hardenter,I,enter,203,3,1032.6999999284744,494256.5,8011,WL,A,8.0
5,12.111000061035156,learn,60000.0,Fri Jul 18 2025 12:03:00 GMT-0500 (Central Daylight Time),496571.6999999285,A,h,I,h,1262,3,1282.1999999284744,495289.5,8011,WL,A,9.0
5,12.24400019645691,learn,60000.0,Fri Jul 18 2025 12:03:00 GMT-0500 (Central Daylight Time),496704.39999997616,A,ha,I,a,114,3,1414.8999999761581,495289.5,8011,WL,A,9.0
5,12.394000053405762,learn,60000.0,Fri Jul 18 2025 12:03:00 GMT-0500 (Central Daylight Time),496855.10000002384,A,har,I,r,134,3,1565.6000000238419,495289.5,8011,WL,A,9.0
5,12.496000051498413,learn,60000.0,Fri Jul 18 2025 12:03:00 GMT-0500 (Central Daylight Time),496956.39999997616,A,harp,I,p,80,3,1666.8999999761581,495289.5,8011,WL,A,9.0
5,13.011000156402588,learn,60000.0,Fri Jul 18 2025 12:03:00 GMT-0500 (Central Daylight Time),497471.89999997616,A,harpenter,I,enter,497,3,2182.399999976158,495289.5,8011,WL,A,9.0
5,13.944000005722046,learn,60000.0,Fri Jul 18 2025 12:03:00 GMT-0500 (Central Daylight Time),498404.7999999523,A,f,I,f,916,3,932.6000000238419,497472.1999999285,8011,WL,A,10.0
5,14.07800006866455,learn,60000.0,Fri Jul 18 2025 12:03:00 GMT-0500 (Central Daylight Time),498538.7999999523,A,fi,I,i,112,3,1066.6000000238419,497472.1999999285,8011,WL,A,10.0
5,14.160000085830688,learn,60000.0,Fri Jul 18 2025 12:03:00 GMT-0500 (Central Daylight Time),498620.5,A,fin,I,n,74,3,1148.3000000715256,497472.1999999285,8011,WL,A,10.0
5,14.243000030517578,learn,60000.0,Fri Jul 18 2025 12:03:00 GMT-0500 (Central Daylight Time),498704.10000002384,A,fing,I,g,63,3,1231.9000000953674,497472.1999999285,8011,WL,A,10.0
5,14.277000188827515,learn,60000.0,Fri Jul 18 2025 12:03:00 GMT-0500 (Central Daylight Time),498737.5,A,finge,I,e,19,3,1265.3000000715256,497472.1999999285,8011,WL,A,10.0
5,14.378000020980835,learn,60000.0,Fri Jul 18 2025 12:03:00 GMT-0500 (Central Daylight Time),498838.1999999285,A,finger,I,r,93,3,1366.0,497472.1999999285,8011,WL,A,10.0
5,14.860000133514404,learn,60000.0,Fri Jul 18 2025 12:03:00 GMT-0500 (Central Daylight Time),499320.7999999523,A,fingerenter,I,enter,469,3,1848.6000000238419,497472.1999999285,8011,WL,A,10.0
5,15.24400019645691,learn,60000.0,Fri Jul 18 2025 12:03:00 GMT-0500 (Central Daylight Time),499704.5,A,g,I,g,372,3,383.60000002384186,499320.89999997616,8011,WL,A,11.0
5,15.410000085830688,learn,60000.0,Fri Jul 18 2025 12:03:00 GMT-0500 (Central Daylight Time),499871.10000002384,A,go,I,o,149,3,550.2000000476837,499320.89999997616,8011,WL,A,11.0
5,15.677000045776367,learn,60000.0,Fri Jul 18 2025 12:03:00 GMT-0500 (Central Daylight Time),500137.2999999523,A,gol,I,l,253,3,816.3999999761581,499320.89999997616,8011,WL,A,11.0
5,15.793000221252441,learn,60000.0,Fri Jul 18 2025 12:03:00 GMT-0500 (Central Daylight Time),500254.1999999285,A,gold,I,d,107,3,933.2999999523163,499320.89999997616,8011,WL,A,11.0
5,16.061000108718872,learn,60000.0,Fri Jul 18 2025 12:03:00 GMT-0500 (Central Daylight Time),500521.1999999285,A,goldenter,I,enter,246,3,1200.2999999523163,499320.89999997616,8011,WL,A,11.0
5,16.37600016593933,learn,60000.0,Fri Jul 18 2025 12:03:00 GMT-0500 (Central Daylight Time),500837.10000002384,A,b,I,b,310,3,315.60000002384186,500521.5,8011,WL,A,12.0
5,16.777000188827515,learn,60000.0,Fri Jul 18 2025 12:03:00 GMT-0500 (Central Daylight Time),501237.5,A,bu,I,u,383,3,716.0,500521.5,8011,WL,A,12.0
5,16.9280002117157,learn,60000.0,Fri Jul 18 2025 12:03:00 GMT-0500 (Central Daylight Time),501388.60000002384,A,but,I,t,126,3,867.1000000238419,500521.5,8011,WL,A,12.0
5,17.093000173568726,learn,60000.0,Fri Jul 18 2025 12:03:00 GMT-0500 (Central Daylight Time),501554.1999999285,A,butt,I,t,152,3,1032.6999999284744,500521.5,8011,WL,A,12.0
5,17.177000045776367,learn,60000.0,Fri Jul 18 2025 12:03:00 GMT-0500 (Central Daylight Time),501637.5,A,butto,I,o,76,3,1116.0,500521.5,8011,WL,A,12.0
5,17.31000018119812,learn,60000.0,Fri Jul 18 2025 12:03:00 GMT-0500 (Central Daylight Time),501771.10000002384,A,button,I,n,119,3,1249.6000000238419,500521.5,8011,WL,A,12.0
5,17.659000158309937,learn,60000.0,Fri Jul 18 2025 12:03:00 GMT-0500 (Central Daylight Time),502120.0,A,buttonenter,I,enter,329,3,1598.5,500521.5,8011,WL,A,12.0
5,18.409000158309937,learn,60000.0,Fri Jul 18 2025 12:03:00 GMT-0500 (Central Daylight Time),502870.1999999285,A,c,I,c,733,3,750.0,502120.1999999285,8011,WL,A,13.0
5,18.575000047683716,learn,60000.0,Fri Jul 18 2025 12:03:00 GMT-0500 (Central Daylight Time),503035.89999997616,A,ch,I,h,150,3,915.7000000476837,502120.1999999285,8011,WL,A,13.0
5,18.80900001525879,learn,60000.0,Fri Jul 18 2025 12:03:00 GMT-0500 (Central Daylight Time),503269.89999997616,A,chi,I,i,225,3,1149.7000000476837,502120.1999999285,8011,WL,A,13.0
5,19.05900001525879,learn,60000.0,Fri Jul 18 2025 12:03:00 GMT-0500 (Central Daylight Time),503520.0,A,chim,I,m,229,3,1399.8000000715256,502120.1999999285,8011,WL,A,13.0
5,19.29300022125244,learn,60000.0,Fri Jul 18 2025 12:03:00 GMT-0500 (Central Daylight Time),503753.60000002384,A,chimn,I,n,211,3,1633.4000000953674,502120.1999999285,8011,WL,A,13.0
5,19.79200005531311,learn,60000.0,Fri Jul 18 2025 12:03:00 GMT-0500 (Central Daylight Time),504252.2999999523,A,chimne,I,e,492,3,2132.100000023842,502120.1999999285,8011,WL,A,13.0
5,20.076000213623047,learn,60000.0,Fri Jul 18 2025 12:03:00 GMT-0500 (Central Daylight Time),504537.10000002384,A,chimney,I,y,264,3,2416.9000000953674,502120.1999999285,8011,WL,A,13.0
5,21.20800018310547,learn,60000.0,Fri Jul 18 2025 12:03:00 GMT-0500 (Central Daylight Time),505668.89999997616,A,chimneyenter,I,enter,1124,3,3548.7000000476837,502120.1999999285,8011,WL,A,13.0
5,22.408000230789185,learn,60000.0,Fri Jul 18 2025 12:03:00 GMT-0500 (Central Daylight Time),506868.89999997616,A,l,I,l,1179,3,1199.7999999523163,505669.10000002384,8011,WL,A,14.0
5,22.60800004005432,learn,60000.0,Fri Jul 18 2025 12:03:00 GMT-0500 (Central Daylight Time),507068.2999999523,A,lo,I,o,183,3,1399.1999999284744,505669.10000002384,8011,WL,A,14.0
5,22.70800018310547,learn,60000.0,Fri Jul 18 2025 12:03:00 GMT-0500 (Central Daylight Time),507169.10000002384,A,log,I,g,79,3,1500.0,505669.10000002384,8011,WL,A,14.0
5,23.074000120162964,learn,60000.0,Fri Jul 18 2025 12:03:00 GMT-0500 (Central Daylight Time),507534.39999997616,A,logenter,I,enter,348,3,1865.2999999523163,505669.10000002384,8011,WL,A,14.0
5,23.623000144958496,learn,60000.0,Fri Jul 18 2025 12:03:00 GMT-0500 (Central Daylight Time),508084.10000002384,A,r,I,r,535,3,549.4000000953674,507534.6999999285,8011,WL,A,15.0
5,23.79100012779236,learn,60000.0,Fri Jul 18 2025 12:03:00 GMT-0500 (Central Daylight Time),508251.5,A,ra,I,a,153,3,716.8000000715256,507534.6999999285,8011,WL,A,15.0
5,23.974000215530396,learn,60000.0,Fri Jul 18 2025 12:03:00 GMT-0500 (Central Daylight Time),508434.5,A,rat,I,t,168,3,899.8000000715256,507534.6999999285,8011,WL,A,15.0
5,24.158000230789185,learn,60000.0,Fri Jul 18 2025 12:03:00 GMT-0500 (Central Daylight Time),508619.10000002384,A,ratt,I,t,163,3,1084.4000000953674,507534.6999999285,8011,WL,A,15.0
5,24.257000207901,learn,60000.0,Fri Jul 18 2025 12:03:00 GMT-0500 (Central Daylight Time),508718.1999999285,A,rattl,I,l,80,3,1183.5,507534.6999999285,8011,WL,A,15.0
5,24.425000190734863,learn,60000.0,Fri Jul 18 2025 12:03:00 GMT-0500 (Central Daylight Time),508885.7999999523,A,rattle,I,e,162,3,1351.1000000238419,507534.6999999285,8011,WL,A,15.0
5,24.624000072479248,learn,60000.0,Fri Jul 18 2025 12:03:00 GMT-0500 (Central Daylight Time),509085.1999999285,A,rattleenter,I,enter,193,3,1550.5,507534.6999999285,8011,WL,A,15.0
6,0.8499999046325684,distr,59150.00009536743,Fri Jul 18 2025 12:03:00 GMT-0500 (Central Daylight Time),577546.3999999762,B,c,I,c,829,3,849.7000000476837,576696.6999999285,8011,WL,A,1.0
6,1.0329999923706055,distr,58967.000007629395,Fri Jul 18 2025 12:03:00 GMT-0500 (Central Daylight Time),577729.2999999523,B,co,I,o,170,3,1032.6000000238419,576696.6999999285,8011,WL,A,1.0
6,1.0999999046325684,distr,58900.00009536743,Fri Jul 18 2025 12:03:00 GMT-0500 (Central Daylight Time),577795.8999999762,B,cou,I,u,62,3,1099.2000000476837,576696.6999999285,8011,WL,A,1.0
6,1.3659999370574951,distr,58634.000062942505,Fri Jul 18 2025 12:03:00 GMT-0500 (Central Daylight Time),578062.1000000238,B,coun,I,n,257,3,1365.4000000953674,576696.6999999285,8011,WL,A,1.0
6,1.431999921798706,distr,58568.000078201294,Fri Jul 18 2025 12:03:00 GMT-0500 (Central Daylight Time),578128.6000000238,B,count,I,t,55,3,1431.9000000953674,576696.6999999285,8011,WL,A,1.0
6,2.4660000801086426,distr,57533.99991989136,Fri Jul 18 2025 12:03:00 GMT-0500 (Central Daylight Time),579162.5,B,county,I,y,1020,3,2465.8000000715256,576696.6999999285,8011,WL,A,1.0
6,2.683000087738037,distr,57316.99991226196,Fri Jul 18 2025 12:03:00 GMT-0500 (Central Daylight Time),579379.6000000238,B,countyenter,I,enter,202,3,2682.9000000953674,576696.6999999285,8011,WL,A,1.0
6,3.365000009536743,distr,56634.99999046326,Fri Jul 18 2025 12:03:00 GMT-0500 (Central Daylight Time),580061.5,B,j,I,j,665,3,681.7000000476837,579379.7999999523,8011,WL,A,2.0
6,3.615000009536743,distr,56384.99999046326,Fri Jul 18 2025 12:03:00 GMT-0500 (Central Daylight Time),580311.6000000238,B,ju,I,u,238,3,931.8000000715256,579379.7999999523,8011,WL,A,2.0
6,3.7660000324249268,distr,56233.99996757507,Fri Jul 18 2025 12:03:00 GMT-0500 (Central Daylight Time),580462.1999999285,B,jud,I,d,133,3,1082.3999999761581,579379.7999999523,8011,WL,A,2.0
6,4.098999977111816,distr,55901.00002288818,Fri Jul 18 2025 12:03:00 GMT-0500 (Central Daylight Time),580795.2999999523,B,judg,I,g,318,3,1415.5,579379.7999999523,8011,WL,A,2.0
6,4.198999881744385,distr,55801.000118255615,Fri Jul 18 2025 12:03:00 GMT-0500 (Central Daylight Time),580895.1000000238,B,judge,I,e,81,3,1515.3000000715256,579379.7999999523,8011,WL,A,2.0
6,4.434000015258789,distr,55565.99998474121,Fri Jul 18 2025 12:03:00 GMT-0500 (Central Daylight Time),581129.8999999762,B,judgeenter,I,enter,213,3,1750.1000000238419,579379.7999999523,8011,WL,A,2.0
6,4.73199987411499,distr,55268.00012588501,Fri Jul 18 2025 12:03:00 GMT-0500 (Central Daylight Time),581428.1999999285,B,g,I,g,278,3,298.0,581130.1999999285,8011,WL,A,3.0
6,4.95199990272522,distr,55048.00009727478,Fri Jul 18 2025 12:03:00 GMT-0500 (Central Daylight Time),581648.2999999523,B,gr,I,r,200,3,518.1000000238419,581130.1999999285,8011,WL,A,3.0
6,5.216000080108643,distr,54783.99991989136,Fri Jul 18 2025 12:03:00 GMT-0500 (Central Daylight Time),581911.8999999762,B,gra,I,a,253,3,781.7000000476837,581130.1999999285,8011,WL,A,3.0
6,5.414999961853027,distr,54585.00003814697,Fri Jul 18 2025 12:03:00 GMT-0500 (Central Daylight Time),582111.1999999285,B,gran,I,n,181,3,981.0,581130.1999999285,8011,WL,A,3.0
6,5.664999961853027,distr,54335.00003814697,Fri Jul 18 2025 12:03:00 GMT-0500 (Central Daylight Time),582361.6000000238,B,grant,I,t,230,3,1231.4000000953674,581130.1999999285,8011,WL,A,3.0
6,6.0320000648498535,distr,53967.99993515015,Fri Jul 18 2025 12:03:00 GMT-0500 (Central Daylight Time),582728.0,B,grantenter,I,enter,346,3,1597.8000000715256,581130.1999999285,8011,WL,A,3.0
6,6.764999866485596,distr,53235.000133514404,Fri Jul 18 2025 12:03:00 GMT-0500 (Central Daylight Time),583461.1000000238,B,p,I,p,713,3,732.9000000953674,582728.1999999285,8011,WL,A,4.0
6,6.980000019073486,distr,53019.999980926514,Fri Jul 18 2025 12:03:00 GMT-0500 (Central Daylight Time),583676.6999999285,B,pl,I,l,207,3,948.5,582728.1999999285,8011,WL,A,4.0
6,7.132999897003174,distr,52867.000102996826,Fri Jul 18 2025 12:03:00 GMT-0500 (Central Daylight Time),583829.6000000238,B,pla,I,a,135,3,1101.4000000953674,582728.1999999285,8011,WL,A,4.0
6,7.346999883651733,distr,52653.00011634827,Fri Jul 18 2025 12:03:00 GMT-0500 (Central Daylight Time),584043.6999999285,B,plan,I,n,199,3,1315.5,582728.1999999285,8011,WL,A,4.0
6,7.54800009727478,distr,52451.99990272522,Fri Jul 18 2025 12:03:00 GMT-0500 (Central Daylight Time),584244.1999999285,B,plane,I,e,184,3,1516.0,582728.1999999285,8011,WL,A,4.0
6,7.7809998989105225,distr,52219.00010108948,Fri Jul 18 2025 12:03:00 GMT-0500 (Central Daylight Time),584477.3999999762,B,planeenter,I,enter,217,3,1749.2000000476837,582728.1999999285,8011,WL,A,4.0
6,8.04699993133545,distr,51953.00006866455,Fri Jul 18 2025 12:03:00 GMT-0500 (Central Daylight Time),584743.5,B,s,I,s,255,3,265.89999997615814,584477.6000000238,8011,WL,A,5.0
6,8.181999921798706,distr,51818.000078201294,Fri Jul 18 2025 12:03:00 GMT-0500 (Central Daylight Time),584878.6000000238,B,sh,I,h,114,3,401.0,584477.6000000238,8011,WL,A,5.0
6,8.364000082015991,distr,51635.99991798401,Fri Jul 18 2025 12:03:00 GMT-0500 (Central Daylight Time),585060.0,B,she,I,e,160,3,582.3999999761581,584477.6000000238,8011,WL,A,5.0
6,8.516000032424927,distr,51483.99996757507,Fri Jul 18 2025 12:03:00 GMT-0500 (Central Daylight Time),585212.0,B,shee,I,e,133,3,734.3999999761581,584477.6000000238,8011,WL,A,5.0
6,8.747999906539917,distr,51252.00009346008,Fri Jul 18 2025 12:03:00 GMT-0500 (Central Daylight Time),585444.5,B,sheep,I,p,212,3,966.8999999761581,584477.6000000238,8011,WL,A,5.0
6,9.246000051498413,distr,50753.99994850159,Fri Jul 18 2025 12:03:00 GMT-0500 (Central Daylight Time),585942.6000000238,B,sheepenter,I,enter,486,3,1465.0,584477.6000000238,8011,WL,A,5.0
6,9.54699993133545,distr,50453.00006866455,Fri Jul 18 2025 12:03:00 GMT-0500 (Central Daylight Time),586243.6000000238,B,i,I,i,287,3,300.7000000476837,585942.8999999762,8011,WL,A,6.0
6,9.946000099182129,distr,50053.99990081787,Fri Jul 18 2025 12:03:00 GMT-0500 (Central Daylight Time),586642.7999999523,B,in,I,n,394,3,699.8999999761581,585942.8999999762,8011,WL,A,6.0
6,10.161999940872192,distr,49838.00005912781,Fri Jul 18 2025 12:03:00 GMT-0500 (Central Daylight Time),586858.7999999523,B,ins,I,s,197,3,915.8999999761581,585942.8999999762,8011,WL,A,6.0
6,10.38100004196167,distr,49618.99995803833,Fri Jul 18 2025 12:03:00 GMT-0500 (Central Daylight Time),587077.1000000238,B,inse,I,e,204,3,1134.2000000476837,585942.8999999762,8011,WL,A,6.0
6,10.61299991607666,distr,49387.00008392334,Fri Jul 18 2025 12:03:00 GMT-0500 (Central Daylight Time),587309.6000000238,B,insec,I,c,215,3,1366.7000000476837,585942.8999999762,8011,WL,A,6.0
6,10.914000034332275,distr,49085.999965667725,Fri Jul 18 2025 12:03:00 GMT-0500 (Central Daylight Time),587610.1000000238,B,insect,I,t,279,3,1667.2000000476837,585942.8999999762,8011,WL,A,6.0
6,11.19700002670288,distr,48802.99997329712,Fri Jul 18 2025 12:03:00 GMT-0500 (Central Daylight Time),587893.6000000238,B,insectenter,I,enter,265,3,1950.7000000476837,585942.8999999762,8011,WL,A,6.0
6,11.379999876022339,distr,48620.00012397766,Fri Jul 18 2025 12:03:00 GMT-0500 (Central Daylight Time),588076.1999999285,B,s,I,s,177,3,182.29999995231628,587893.8999999762,8011,WL,A,7.0
6,11.61299991607666,distr,48387.00008392334,Fri Jul 18 2025 12:03:00 GMT-0500 (Central Daylight Time),588309.0,B,se,I,e,224,3,415.10000002384186,587893.8999999762,8011,WL,A,7.0
6,11.779000043869019,distr,48220.99995613098,Fri Jul 18 2025 12:03:00 GMT-0500 (Central Daylight Time),588475.6999999285,B,see,I,e,150,3,581.7999999523163,587893.8999999762,8011,WL,A,7.0
6,11.996000051498413,distr,48003.99994850159,Fri Jul 18 2025 12:03:00 GMT-0500 (Central Daylight Time),588692.7999999523,B,seed,I,d,202,3,798.8999999761581,587893.8999999762,8011,WL,A,7.0
6,12.329999923706055,distr,47670.000076293945,Fri Jul 18 2025 12:03:00 GMT-0500 (Central Daylight Time),589026.3999999762,B,seedenter,I,enter,311,3,1132.5,587893.8999999762,8011,WL,A,7.0
6,13.128000020980835,distr,46871.999979019165,Fri Jul 18 2025 12:03:00 GMT-0500 (Central Daylight Time),589824.6000000238,B,d,I,d,786,3,797.9000000953674,589026.6999999285,8011,WL,A,8.0
6,13.246000051498413,distr,46753.99994850159,Fri Jul 18 2025 12:03:00 GMT-0500 (Central Daylight Time),589942.1999999285,B,da,I,a,100,3,915.5,589026.6999999285,8011,WL,A,8.0
6,13.530999898910522,distr,46469.00010108948,Fri Jul 18 2025 12:03:00 GMT-0500 (Central Daylight Time),590227.1000000238,B,daw,I,w,269,3,1200.4000000953674,589026.6999999285,8011,WL,A,8.0
6,13.711999893188477,distr,46288.00010681152,Fri Jul 18 2025 12:03:00 GMT-0500 (Central Daylight Time),590408.7999999523,B,dawn,I,n,170,3,1382.1000000238419,589026.6999999285,8011,WL,A,8.0
6,14.04699993133545,distr,45953.00006866455,Fri Jul 18 2025 12:03:00 GMT-0500 (Central Daylight Time),590743.6000000238,B,dawnenter,I,enter,316,3,1716.9000000953674,589026.6999999285,8011,WL,A,8.0
6,14.361999988555908,distr,45638.00001144409,Fri Jul 18 2025 12:03:00 GMT-0500 (Central Daylight Time),591058.6000000238,B,b,I,b,301,3,314.7000000476837,590743.8999999762,8011,WL,A,9.0
6,14.596999883651733,distr,45403.00011634827,Fri Jul 18 2025 12:03:00 GMT-0500 (Central Daylight Time),591293.1999999285,B,bo,I,o,213,3,549.2999999523163,590743.8999999762,8011,WL,A,9.0
6,14.779000043869019,distr,45220.99995613098,Fri Jul 18 2025 12:03:00 GMT-0500 (Central Daylight Time),591475.5,B,bow,I,w,161,3,731.6000000238419,590743.8999999762,8011,WL,A,9.0
6,15.229000091552734,distr,44770.999908447266,Fri Jul 18 2025 12:03:00 GMT-0500 (Central Daylight Time),591925.1999999285,B,bowl,I,l,428,3,1181.2999999523163,590743.8999999762,8011,WL,A,9.0
6,15.560999870300293,distr,44439.00012969971,Fri Jul 18 2025 12:03:00 GMT-0500 (Central Daylight Time),592257.1999999285,B,bowlenter,I,enter,311,3,1513.2999999523163,590743.8999999762,8011,WL,A,9.0
6,15.812000036239624,distr,44187.999963760376,Fri Jul 18 2025 12:03:00 GMT-0500 (Central Daylight Time),592507.8999999762,B,p,I,p,236,3,250.5,592257.3999999762,8011,WL,A,10.0
6,16.02900004386902,distr,43970.99995613098,Fri Jul 18 2025 12:03:00 GMT-0500 (Central Daylight Time),592725.1000000238,B,pe,I,e,212,3,467.7000000476837,592257.3999999762,8011,WL,A,10.0
6,16.26200008392334,distr,43737.99991607666,Fri Jul 18 2025 12:03:00 GMT-0500 (Central Daylight Time),592958.1999999285,B,pea,I,a,227,3,700.7999999523163,592257.3999999762,8011,WL,A,10.0
6,16.32800006866455,distr,43671.99993133545,Fri Jul 18 2025 12:03:00 GMT-0500 (Central Daylight Time),593024.0,B,peac,I,c,54,3,766.6000000238419,592257.3999999762,8011,WL,A,10.0
6,16.52900004386902,distr,43470.99995613098,Fri Jul 18 2025 12:03:00 GMT-0500 (Central Daylight Time),593225.3999999762,B,peach,I,h,178,3,968.0,592257.3999999762,8011,WL,A,10.0
6,17.02900004386902,distr,42970.99995613098,Fri Jul 18 2025 12:03:00 GMT-0500 (Central Daylight Time),593725.0,B,peachenter,I,enter,494,3,1467.6000000238419,592257.3999999762,8011,WL,A,10.0
6,17.41000008583069,distr,42589.99991416931,Fri Jul 18 2025 12:03:00 GMT-0500 (Central Daylight Time),594106.8999999762,B,b,I,b,368,3,381.60000002384186,593725.2999999523,8011,WL,A,11.0
6,17.59500002861023,distr,42404.99997138977,Fri Jul 18 2025 12:03:00 GMT-0500 (Central Daylight Time),594291.6000000238,B,bo,I,o,163,3,566.3000000715256,593725.2999999523,8011,WL,A,11.0
6,17.727999925613403,distr,42272.0000743866,Fri Jul 18 2025 12:03:00 GMT-0500 (Central Daylight Time),594424.3999999762,B,bot,I,t,113,3,699.1000000238419,593725.2999999523,8011,WL,A,11.0
6,17.89400005340576,distr,42105.99994659424,Fri Jul 18 2025 12:03:00 GMT-0500 (Central Daylight Time),594590.3999999762,B,bott,I,t,146,3,865.1000000238419,593725.2999999523,8011,WL,A,11.0
6,18.027999877929688,distr,41972.00012207031,Fri Jul 18 2025 12:03:00 GMT-0500 (Central Daylight Time),594724.6000000238,B,bottl,I,l,114,3,999.3000000715256,593725.2999999523,8011,WL,A,11.0
6,18.194000005722046,distr,41805.999994277954,Fri Jul 18 2025 12:03:00 GMT-0500 (Central Daylight Time),594890.7999999523,B,bottle,I,e,145,3,1165.5,593725.2999999523,8011,WL,A,11.0
6,18.546000003814697,distr,41453.9999961853,Fri Jul 18 2025 12:03:00 GMT-0500 (Central Daylight Time),595242.1000000238,B,bottleenter,I,enter,346,3,1516.8000000715256,593725.2999999523,8011,WL,A,11.0
6,20.7260000705719,distr,39273.9999294281,Fri Jul 18 2025 12:03:00 GMT-0500 (Central Daylight Time),597423.1999999285,B,c,I,c,2163,3,2180.899999976158,595242.2999999523,8011,WL,A,12.0
6,20.859999895095825,distr,39140.000104904175,Fri Jul 18 2025 12:03:00 GMT-0500 (Central Daylight Time),597557.1000000238,B,ch,I,h,128,3,2314.8000000715256,595242.2999999523,8011,WL,A,12.0
6,21.027999877929688,distr,38972.00012207031,Fri Jul 18 2025 12:03:00 GMT-0500 (Central Daylight Time),597724.5,B,cha,I,a,150,3,2482.2000000476837,595242.2999999523,8011,WL,A,12.0
6,21.243000030517578,distr,38756.99996948242,Fri Jul 18 2025 12:03:00 GMT-0500 (Central Daylight Time),597939.6999999285,B,chai,I,i,193,3,2697.399999976158,595242.2999999523,8011,WL,A,12.0
6,21.375999927520752,distr,38624.00007247925,Fri Jul 18 2025 12:03:00 GMT-0500 (Central Daylight Time),598072.6999999285,B,chair,I,r,118,3,2830.399999976158,595242.2999999523,8011,WL,A,12.0
6,21.625,distr,38375.0,Fri Jul 18 2025 12:03:00 GMT-0500 (Central Daylight Time),598321.5,B,chairenter,I,enter,227,3,3079.2000000476837,595242.2999999523,8011,WL,A,12.0
6,21.841000080108643,distr,38158.99991989136,Fri Jul 18 2025 12:03:00 GMT-0500 (Central Daylight Time),598538.3999999762,B,c,I,c,197,3,216.70000004768372,598321.6999999285,8011,WL,A,13.0
6,21.973999977111816,distr,38026.00002288818,Fri Jul 18 2025 12:03:00 GMT-0500 (Central Daylight Time),598670.7999999523,B,co,I,o,123,3,349.10000002384186,598321.6999999285,8011,WL,A,13.0
6,22.19000005722046,distr,37809.99994277954,Fri Jul 18 2025 12:03:00 GMT-0500 (Central Daylight Time),598887.0,B,coa,I,a,199,3,565.3000000715256,598321.6999999285,8011,WL,A,13.0
6,22.44000005722046,distr,37559.99994277954,Fri Jul 18 2025 12:03:00 GMT-0500 (Central Daylight Time),599137.2999999523,B,coat,I,t,231,3,815.6000000238419,598321.6999999285,8011,WL,A,13.0
6,22.789999961853027,distr,37210.00003814697,Fri Jul 18 2025 12:03:00 GMT-0500 (Central Daylight Time),599486.7999999523,B,coatenter,I,enter,340,3,1165.1000000238419,598321.6999999285,8011,WL,A,13.0
6,35.75600004196167,distr,24243.99995803833,Fri Jul 18 2025 12:03:00 GMT-0500 (Central Daylight Time),612452.6999999285,B,b,I,b,12947,3,12965.599999904633,599487.1000000238,8011,WL,A,14.0
6,35.88800001144409,distr,24111.99998855591,Fri Jul 18 2025 12:03:00 GMT-0500 (Central Daylight Time),612584.3999999762,B,bo,I,o,111,3,13097.299999952316,599487.1000000238,8011,WL,A,14.0
6,35.98900008201599,distr,24010.99991798401,Fri Jul 18 2025 12:03:00 GMT-0500 (Central Daylight Time),612686.2999999523,B,bow,I,w,95,3,13199.199999928474,599487.1000000238,8011,WL,A,14.0
