block_c,block_dur,condition,countdown,datetime,endtime,list,multichar_response,project,response,response_time,session_number,start_end,starttime,subject_id,task,task_vers,trial
,,,,Fri May 09 2025 14:15:28 GMT-0500 (Central Daylight Time),,,,I,space,351,2,,,8030,WL,A,
prac,,0,,Fri May 09 2025 14:15:28 GMT-0500 (Central Daylight Time),,NA,b,I,b,5556,2,,,8030,WL,A,1.0
prac,,0,,Fri May 09 2025 14:15:28 GMT-0500 (Central Daylight Time),,NA,bo,I,o,1378,2,,,8030,WL,A,1.0
prac,,0,,Fri May 09 2025 14:15:28 GMT-0500 (Central Daylight Time),,NA,boo,I,o,195,2,,,8030,WL,A,1.0
prac,,0,,Fri May 09 2025 14:15:28 GMT-0500 (Central Daylight Time),,NA,boos,I,s,275,2,,,8030,WL,A,1.0
prac,,0,,Fri May 09 2025 14:15:28 GMT-0500 (Central Daylight Time),,NA,boost,I,t,408,2,,,8030,WL,A,1.0
prac,,0,,Fri May 09 2025 14:15:28 GMT-0500 (Central Daylight Time),,NA,boostenter,I,enter,3006,2,,,8030,WL,A,1.0
1,1.6159999370574951,learn,58384.000062942505,Fri May 09 2025 14:15:28 GMT-0500 (Central Daylight Time),138665.90000000037,A,b,I,b,1610,2,1616.6000000005588,137049.2999999998,8030,WL,A,1.0
1,2.115999937057495,learn,57884.000062942505,Fri May 09 2025 14:15:28 GMT-0500 (Central Daylight Time),139165.10000000056,A,bo,I,o,481,2,2115.800000000745,137049.2999999998,8030,WL,A,1.0
1,2.31499981880188,learn,57685.00018119812,Fri May 09 2025 14:15:28 GMT-0500 (Central Daylight Time),139364.7999999998,A,boo,I,o,183,2,2315.5,137049.2999999998,8030,WL,A,1.0
1,2.548999786376953,learn,57451.00021362305,Fri May 09 2025 14:15:28 GMT-0500 (Central Daylight Time),139598.2000000002,A,book,I,k,216,2,2548.9000000003725,137049.2999999998,8030,WL,A,1.0
1,3.381999969482422,learn,56618.00003051758,Fri May 09 2025 14:15:28 GMT-0500 (Central Daylight Time),140431.40000000037,A,bookenter,I,enter,815,2,3382.100000000559,137049.2999999998,8030,WL,A,1.0
1,4.414999961853027,learn,55585.00003814697,Fri May 09 2025 14:15:28 GMT-0500 (Central Daylight Time),141464.2000000002,A,f,I,f,1021,2,1032.2999999998137,140431.90000000037,8030,WL,A,2.0
1,4.881999969482422,learn,55118.00003051758,Fri May 09 2025 14:15:28 GMT-0500 (Central Daylight Time),141930.90000000037,A,fl,I,l,452,2,1499.0,140431.90000000037,8030,WL,A,2.0
1,5.114999771118164,learn,54885.000228881836,Fri May 09 2025 14:15:28 GMT-0500 (Central Daylight Time),142164.10000000056,A,flo,I,o,217,2,1732.2000000001863,140431.90000000037,8030,WL,A,2.0
1,5.497999906539917,learn,54502.00009346008,Fri May 09 2025 14:15:28 GMT-0500 (Central Daylight Time),142547.2999999998,A,flow,I,w,377,2,2115.399999999441,140431.90000000037,8030,WL,A,2.0
1,5.7809998989105225,learn,54219.00010108948,Fri May 09 2025 14:15:28 GMT-0500 (Central Daylight Time),142830.5,A,flowe,I,e,274,2,2398.5999999996275,140431.90000000037,8030,WL,A,2.0
1,6.163999795913696,learn,53836.000204086304,Fri May 09 2025 14:15:28 GMT-0500 (Central Daylight Time),143213.7000000002,A,flower,I,r,366,2,2781.7999999998137,140431.90000000037,8030,WL,A,2.0
1,6.5309998989105225,learn,53469.00010108948,Fri May 09 2025 14:15:28 GMT-0500 (Central Daylight Time),143580.40000000037,A,flowerenter,I,enter,359,2,3148.5,140431.90000000037,8030,WL,A,2.0
1,7.730999946594238,learn,52269.00005340576,Fri May 09 2025 14:15:28 GMT-0500 (Central Daylight Time),144779.90000000037,A,m,I,m,1192,2,1199.0,143580.90000000037,8030,WL,A,3.0
1,8.013999938964844,learn,51986.000061035156,Fri May 09 2025 14:15:28 GMT-0500 (Central Daylight Time),145063.2999999998,A,me,I,e,273,2,1482.3999999994412,143580.90000000037,8030,WL,A,3.0
1,8.313999891281128,learn,51686.00010871887,Fri May 09 2025 14:15:28 GMT-0500 (Central Daylight Time),145363.0,A,mea,I,a,286,2,1782.0999999996275,143580.90000000037,8030,WL,A,3.0
1,8.746999979019165,learn,51253.000020980835,Fri May 09 2025 14:15:28 GMT-0500 (Central Daylight Time),145796.2999999998,A,mead,I,d,426,2,2215.399999999441,143580.90000000037,8030,WL,A,3.0
1,9.04699993133545,learn,50953.00006866455,Fri May 09 2025 14:15:28 GMT-0500 (Central Daylight Time),146096.10000000056,A,meado,I,o,289,2,2515.2000000001863,143580.90000000037,8030,WL,A,3.0
1,10.29699993133545,learn,49703.00006866455,Fri May 09 2025 14:15:28 GMT-0500 (Central Daylight Time),147345.90000000037,A,meadow,I,w,1237,2,3765.0,143580.90000000037,8030,WL,A,3.0
1,11.595999956130981,learn,48404.00004386902,Fri May 09 2025 14:15:28 GMT-0500 (Central Daylight Time),148645.5,A,meadowenter,I,enter,1291,2,5064.5999999996275,143580.90000000037,8030,WL,A,3.0
1,13.878999948501587,learn,46121.00005149841,Fri May 09 2025 14:15:28 GMT-0500 (Central Daylight Time),150928.0,A,r,I,r,2271,2,2282.0999999996275,148645.90000000037,8030,WL,A,4.0
1,14.144999980926514,learn,45855.000019073486,Fri May 09 2025 14:15:28 GMT-0500 (Central Daylight Time),151194.5,A,ra,I,a,261,2,2548.5999999996275,148645.90000000037,8030,WL,A,4.0
1,15.01199984550476,learn,44988.00015449524,Fri May 09 2025 14:15:28 GMT-0500 (Central Daylight Time),152060.90000000037,A,rat,I,t,859,2,3415.0,148645.90000000037,8030,WL,A,4.0
1,15.17799997329712,learn,44822.00002670288,Fri May 09 2025 14:15:28 GMT-0500 (Central Daylight Time),152227.7999999998,A,ratt,I,t,160,2,3581.899999999441,148645.90000000037,8030,WL,A,4.0
1,15.807999849319458,learn,44192.00015068054,Fri May 09 2025 14:15:28 GMT-0500 (Central Daylight Time),152857.60000000056,A,rattl,I,l,624,2,4211.700000000186,148645.90000000037,8030,WL,A,4.0
1,16.06499981880188,learn,43935.00018119812,Fri May 09 2025 14:15:28 GMT-0500 (Central Daylight Time),153113.90000000037,A,rattle,I,e,234,2,4468.0,148645.90000000037,8030,WL,A,4.0
1,16.793999910354614,learn,43206.000089645386,Fri May 09 2025 14:15:28 GMT-0500 (Central Daylight Time),153843.7000000002,A,rattleenter,I,enter,714,2,5197.799999999814,148645.90000000037,8030,WL,A,4.0
1,18.693999767303467,learn,41306.00023269653,Fri May 09 2025 14:15:28 GMT-0500 (Central Daylight Time),155743.10000000056,A,f,I,f,1880,2,1898.9000000003725,153844.2000000002,8030,WL,A,5.0
1,18.91099977493286,learn,41089.00022506714,Fri May 09 2025 14:15:28 GMT-0500 (Central Daylight Time),155960.0,A,fi,I,i,198,2,2115.7999999998137,153844.2000000002,8030,WL,A,5.0
1,19.193999767303467,learn,40806.00023269653,Fri May 09 2025 14:15:28 GMT-0500 (Central Daylight Time),156243.0,A,fin,I,n,269,2,2398.7999999998137,153844.2000000002,8030,WL,A,5.0
1,19.526999950408936,learn,40473.000049591064,Fri May 09 2025 14:15:28 GMT-0500 (Central Daylight Time),156576.40000000037,A,fing,I,g,314,2,2732.2000000001863,153844.2000000002,8030,WL,A,5.0
1,19.74399995803833,learn,40256.00004196167,Fri May 09 2025 14:15:28 GMT-0500 (Central Daylight Time),156792.90000000037,A,finge,I,e,205,2,2948.7000000001863,153844.2000000002,8030,WL,A,5.0
1,20.009999990463257,learn,39990.00000953674,Fri May 09 2025 14:15:28 GMT-0500 (Central Daylight Time),157059.5,A,finger,I,r,260,2,3215.2999999998137,153844.2000000002,8030,WL,A,5.0
1,20.342999935150146,learn,39657.00006484985,Fri May 09 2025 14:15:28 GMT-0500 (Central Daylight Time),157392.7000000002,A,fingerenter,I,enter,313,2,3548.5,153844.2000000002,8030,WL,A,5.0
1,22.80899977684021,learn,37191.00022315979,Fri May 09 2025 14:15:28 GMT-0500 (Central Daylight Time),159858.40000000037,A,f,I,f,2460,2,2465.2999999998137,157393.10000000056,8030,WL,A,6.0
1,23.108999967575073,learn,36891.00003242493,Fri May 09 2025 14:15:28 GMT-0500 (Central Daylight Time),160158.40000000037,A,fi,I,i,281,2,2765.2999999998137,157393.10000000056,8030,WL,A,6.0
1,23.358999967575073,learn,36641.00003242493,Fri May 09 2025 14:15:28 GMT-0500 (Central Daylight Time),160408.40000000037,A,fil,I,l,230,2,3015.2999999998137,157393.10000000056,8030,WL,A,6.0
1,23.95899987220764,learn,36041.00012779236,Fri May 09 2025 14:15:28 GMT-0500 (Central Daylight Time),161008.2000000002,A,film,I,m,588,2,3615.0999999996275,157393.10000000056,8030,WL,A,6.0
1,24.39199995994568,learn,35608.00004005432,Fri May 09 2025 14:15:28 GMT-0500 (Central Daylight Time),161441.40000000037,A,filmenter,I,enter,413,2,4048.2999999998137,157393.10000000056,8030,WL,A,6.0
1,37.40499997138977,learn,22595.00002861023,Fri May 09 2025 14:15:28 GMT-0500 (Central Daylight Time),174454.10000000056,A,t,I,t,13003,2,13012.300000000745,161441.7999999998,8030,WL,A,7.0
1,37.67099976539612,learn,22329.000234603882,Fri May 09 2025 14:15:28 GMT-0500 (Central Daylight Time),174720.60000000056,A,tr,I,r,246,2,13278.800000000745,161441.7999999998,8030,WL,A,7.0
1,37.853999853134155,learn,22146.000146865845,Fri May 09 2025 14:15:28 GMT-0500 (Central Daylight Time),174903.60000000056,A,tra,I,a,165,2,13461.800000000745,161441.7999999998,8030,WL,A,7.0
1,38.15399980545044,learn,21846.00019454956,Fri May 09 2025 14:15:28 GMT-0500 (Central Daylight Time),175203.7999999998,A,trai,I,i,284,2,13762.0,161441.7999999998,8030,WL,A,7.0
1,38.40399980545044,learn,21596.00019454956,Fri May 09 2025 14:15:28 GMT-0500 (Central Daylight Time),175453.7000000002,A,train,I,n,234,2,14011.900000000373,161441.7999999998,8030,WL,A,7.0
1,38.853999853134155,learn,21146.000146865845,Fri May 09 2025 14:15:28 GMT-0500 (Central Daylight Time),175903.60000000056,A,trainenter,I,enter,431,2,14461.800000000745,161441.7999999998,8030,WL,A,7.0
1,52.43299984931946,learn,7567.000150680542,Fri May 09 2025 14:15:28 GMT-0500 (Central Daylight Time),189482.60000000056,A,enter,I,enter,13558,2,13578.600000000559,175904.0,8030,WL,A,8.0
1,54.931999921798706,learn,5068.000078201294,Fri May 09 2025 14:15:28 GMT-0500 (Central Daylight Time),191981.7999999998,A,enter,I,enter,2482,2,2498.7999999998137,189483.0,8030,WL,A,9.0
1,55.66499996185303,learn,4335.000038146973,Fri May 09 2025 14:15:28 GMT-0500 (Central Daylight Time),192714.7000000002,A,enter,I,enter,727,2,732.4000000003725,191982.2999999998,8030,WL,A,10.0
1,56.448999881744385,learn,3551.0001182556152,Fri May 09 2025 14:15:28 GMT-0500 (Central Daylight Time),193498.2000000002,A,enter,I,enter,763,2,783.0999999996275,192715.10000000056,8030,WL,A,11.0
1,57.014999866485596,learn,2985.0001335144043,Fri May 09 2025 14:15:28 GMT-0500 (Central Daylight Time),194064.60000000056,A,enter,I,enter,547,2,566.1000000005588,193498.5,8030,WL,A,12.0
1,57.7979998588562,learn,2202.000141143799,Fri May 09 2025 14:15:28 GMT-0500 (Central Daylight Time),194847.7000000002,A,enter,I,enter,773,2,782.7000000001863,194065.0,8030,WL,A,13.0
1,58.49799990653992,learn,1502.000093460083,Fri May 09 2025 14:15:28 GMT-0500 (Central Daylight Time),195547.5,A,enter,I,enter,693,2,699.3999999994412,194848.10000000056,8030,WL,A,14.0
1,59.013999938964844,learn,986.0000610351562,Fri May 09 2025 14:15:28 GMT-0500 (Central Daylight Time),196063.90000000037,A,enter,I,enter,497,2,515.9000000003725,195548.0,8030,WL,A,15.0
2,1.5160000324249268,learn,58483.99996757507,Fri May 09 2025 14:15:28 GMT-0500 (Central Daylight Time),268107.9000000004,A,g,I,g,1502,2,1515.9000000003725,266592.0,8030,WL,A,1.0
2,2.065999984741211,learn,57934.00001525879,Fri May 09 2025 14:15:28 GMT-0500 (Central Daylight Time),268657.9000000004,A,go,I,o,528,2,2065.9000000003725,266592.0,8030,WL,A,1.0
2,2.315999984741211,learn,57684.00001525879,Fri May 09 2025 14:15:28 GMT-0500 (Central Daylight Time),268907.7999999998,A,gol,I,l,243,2,2315.7999999998137,266592.0,8030,WL,A,1.0
2,2.5989999771118164,learn,57401.00002288818,Fri May 09 2025 14:15:28 GMT-0500 (Central Daylight Time),269190.7999999998,A,gold,I,d,273,2,2598.7999999998137,266592.0,8030,WL,A,1.0
2,3.4660000801086426,learn,56533.99991989136,Fri May 09 2025 14:15:28 GMT-0500 (Central Daylight Time),270057.5,A,goldenter,I,enter,847,2,3465.5,266592.0,8030,WL,A,1.0
2,4.29800009727478,learn,55701.99990272522,Fri May 09 2025 14:15:28 GMT-0500 (Central Daylight Time),270890.2000000002,A,t,I,t,827,2,832.4000000003725,270057.7999999998,8030,WL,A,2.0
2,4.5320000648498535,learn,55467.99993515015,Fri May 09 2025 14:15:28 GMT-0500 (Central Daylight Time),271123.7999999998,A,tr,I,r,227,2,1066.0,270057.7999999998,8030,WL,A,2.0
2,4.765000104904175,learn,55234.999895095825,Fri May 09 2025 14:15:28 GMT-0500 (Central Daylight Time),271356.9000000004,A,tra,I,a,226,2,1299.1000000005588,270057.7999999998,8030,WL,A,2.0
2,5.0980000495910645,learn,54901.999950408936,Fri May 09 2025 14:15:28 GMT-0500 (Central Daylight Time),271690.2000000002,A,trai,I,i,328,2,1632.4000000003725,270057.7999999998,8030,WL,A,2.0
2,5.447999954223633,learn,54552.00004577637,Fri May 09 2025 14:15:28 GMT-0500 (Central Daylight Time),272040.0,A,train,I,n,331,2,1982.2000000001863,270057.7999999998,8030,WL,A,2.0
2,6.5980000495910645,learn,53401.999950408936,Fri May 09 2025 14:15:28 GMT-0500 (Central Daylight Time),273189.9000000004,A,trainenter,I,enter,1133,2,3132.100000000559,270057.7999999998,8030,WL,A,2.0
2,7.531000137329102,learn,52468.9998626709,Fri May 09 2025 14:15:28 GMT-0500 (Central Daylight Time),274122.60000000056,A,h,I,h,927,2,932.4000000003725,273190.2000000002,8030,WL,A,3.0
2,7.730999946594238,learn,52269.00005340576,Fri May 09 2025 14:15:28 GMT-0500 (Central Daylight Time),274322.7999999998,A,ha,I,a,187,2,1132.5999999996275,273190.2000000002,8030,WL,A,3.0
2,7.998000144958496,learn,52001.999855041504,Fri May 09 2025 14:15:28 GMT-0500 (Central Daylight Time),274589.4000000004,A,har,I,r,250,2,1399.2000000001863,273190.2000000002,8030,WL,A,3.0
2,8.564000129699707,learn,51435.99987030029,Fri May 09 2025 14:15:28 GMT-0500 (Central Daylight Time),275156.0,A,harp,I,p,552,2,1965.7999999998137,273190.2000000002,8030,WL,A,3.0
2,9.830000162124634,learn,50169.999837875366,Fri May 09 2025 14:15:28 GMT-0500 (Central Daylight Time),276422.2999999998,A,harpenter,I,enter,1257,2,3232.0999999996275,273190.2000000002,8030,WL,A,3.0
2,10.630000114440918,learn,49369.99988555908,Fri May 09 2025 14:15:28 GMT-0500 (Central Daylight Time),277221.9000000004,A,r,I,r,791,2,799.1000000005588,276422.7999999998,8030,WL,A,4.0
2,11.080000162124634,learn,48919.999837875366,Fri May 09 2025 14:15:28 GMT-0500 (Central Daylight Time),277671.7000000002,A,ru,I,u,439,2,1248.9000000003725,276422.7999999998,8030,WL,A,4.0
2,11.663000106811523,learn,48336.99989318848,Fri May 09 2025 14:15:28 GMT-0500 (Central Daylight Time),278255.0,A,rug,I,g,565,2,1832.2000000001863,276422.7999999998,8030,WL,A,4.0
2,12.878999948501587,learn,47121.00005149841,Fri May 09 2025 14:15:28 GMT-0500 (Central Daylight Time),279471.10000000056,A,rugenter,I,enter,1198,2,3048.300000000745,276422.7999999998,8030,WL,A,4.0
2,13.92900013923645,learn,46070.99986076355,Fri May 09 2025 14:15:28 GMT-0500 (Central Daylight Time),280520.7999999998,A,f,I,f,1038,2,1049.3999999994412,279471.4000000004,8030,WL,A,5.0
2,14.17900013923645,learn,45820.99986076355,Fri May 09 2025 14:15:28 GMT-0500 (Central Daylight Time),280770.7999999998,A,fi,I,i,236,2,1299.3999999994412,279471.4000000004,8030,WL,A,5.0
2,14.529000043869019,learn,45470.99995613098,Fri May 09 2025 14:15:28 GMT-0500 (Central Daylight Time),281120.7000000002,A,fin,I,n,331,2,1649.2999999998137,279471.4000000004,8030,WL,A,5.0
2,14.878999948501587,learn,45121.00005149841,Fri May 09 2025 14:15:28 GMT-0500 (Central Daylight Time),281470.60000000056,A,fing,I,g,340,2,1999.2000000001863,279471.4000000004,8030,WL,A,5.0
2,15.128000020980835,learn,44871.999979019165,Fri May 09 2025 14:15:28 GMT-0500 (Central Daylight Time),281720.2000000002,A,finge,I,e,239,2,2248.7999999998137,279471.4000000004,8030,WL,A,5.0
2,15.445000171661377,learn,44554.99982833862,Fri May 09 2025 14:15:28 GMT-0500 (Central Daylight Time),282037.2999999998,A,finger,I,r,301,2,2565.899999999441,279471.4000000004,8030,WL,A,5.0
2,16.761000156402588,learn,43238.99984359741,Fri May 09 2025 14:15:28 GMT-0500 (Central Daylight Time),283353.4000000004,A,fingerenter,I,enter,1296,2,3882.0,279471.4000000004,8030,WL,A,5.0
2,19.41100001335144,learn,40588.99998664856,Fri May 09 2025 14:15:28 GMT-0500 (Central Daylight Time),286002.5,A,f,I,f,2636,2,2648.7000000001863,283353.7999999998,8030,WL,A,6.0
2,19.72699999809265,learn,40273.00000190735,Fri May 09 2025 14:15:28 GMT-0500 (Central Daylight Time),286319.0,A,fl,I,l,299,2,2965.2000000001863,283353.7999999998,8030,WL,A,6.0
2,20.177000045776367,learn,39822.99995422363,Fri May 09 2025 14:15:28 GMT-0500 (Central Daylight Time),286768.7999999998,A,flo,I,o,429,2,3415.0,283353.7999999998,8030,WL,A,6.0
2,20.509999990463257,learn,39490.00000953674,Fri May 09 2025 14:15:28 GMT-0500 (Central Daylight Time),287102.10000000056,A,flow,I,w,317,2,3748.300000000745,283353.7999999998,8030,WL,A,6.0
2,20.710000038146973,learn,39289.99996185303,Fri May 09 2025 14:15:28 GMT-0500 (Central Daylight Time),287302.0,A,floww,I,w,191,2,3948.2000000001863,283353.7999999998,8030,WL,A,6.0
2,22.45900011062622,learn,37540.99988937378,Fri May 09 2025 14:15:28 GMT-0500 (Central Daylight Time),289051.2000000002,A,flow,I,backspace,1744,2,5697.4000000003725,283353.7999999998,8030,WL,A,6.0
2,22.858999967575073,learn,37141.00003242493,Fri May 09 2025 14:15:28 GMT-0500 (Central Daylight Time),289451.4000000004,A,flowe,I,e,394,2,6097.600000000559,283353.7999999998,8030,WL,A,6.0
2,23.159000158309937,learn,36840.99984169006,Fri May 09 2025 14:15:28 GMT-0500 (Central Daylight Time),289751.10000000056,A,flower,I,r,290,2,6397.300000000745,283353.7999999998,8030,WL,A,6.0
2,24.442000150680542,learn,35557.99984931946,Fri May 09 2025 14:15:28 GMT-0500 (Central Daylight Time),291034.2000000002,A,flowerenter,I,enter,1278,2,7680.4000000003725,283353.7999999998,8030,WL,A,6.0
2,37.355000019073486,learn,22644.999980926514,Fri May 09 2025 14:15:28 GMT-0500 (Central Daylight Time),303946.7999999998,A,f,I,f,12899,2,12912.399999999441,291034.4000000004,8030,WL,A,7.0
2,38.63700008392334,learn,21362.99991607666,Fri May 09 2025 14:15:28 GMT-0500 (Central Daylight Time),305229.4000000004,A,fi,I,i,1266,2,14195.0,291034.4000000004,8030,WL,A,7.0
2,38.9539999961853,learn,21046.000003814697,Fri May 09 2025 14:15:28 GMT-0500 (Central Daylight Time),305546.2999999998,A,fin,I,n,296,2,14511.899999999441,291034.4000000004,8030,WL,A,7.0
2,39.354000091552734,learn,20645.999908447266,Fri May 09 2025 14:15:28 GMT-0500 (Central Daylight Time),305946.2000000002,A,fing,I,g,395,2,14911.799999999814,291034.4000000004,8030,WL,A,7.0
2,39.62100005149841,learn,20378.999948501587,Fri May 09 2025 14:15:28 GMT-0500 (Central Daylight Time),306212.9000000004,A,finge,I,e,259,2,15178.5,291034.4000000004,8030,WL,A,7.0
2,39.9539999961853,learn,20046.000003814697,Fri May 09 2025 14:15:28 GMT-0500 (Central Daylight Time),306546.0,A,finger,I,r,312,2,15511.599999999627,291034.4000000004,8030,WL,A,7.0
2,40.920000076293945,learn,19079.999923706055,Fri May 09 2025 14:15:28 GMT-0500 (Central Daylight Time),307512.4000000004,A,fingerenter,I,enter,947,2,16478.0,291034.4000000004,8030,WL,A,7.0
2,53.616000175476074,learn,6383.999824523926,Fri May 09 2025 14:15:28 GMT-0500 (Central Daylight Time),320208.2999999998,A,b,I,b,12685,2,12695.599999999627,307512.7000000002,8030,WL,A,8.0
2,54.049999952316284,learn,5950.000047683716,Fri May 09 2025 14:15:28 GMT-0500 (Central Daylight Time),320641.60000000056,A,bo,I,o,421,2,13128.900000000373,307512.7000000002,8030,WL,A,8.0
2,54.25,learn,5750.0,Fri May 09 2025 14:15:28 GMT-0500 (Central Daylight Time),320841.60000000056,A,boo,I,o,180,2,13328.900000000373,307512.7000000002,8030,WL,A,8.0
2,54.46600008010864,learn,5533.999919891357,Fri May 09 2025 14:15:28 GMT-0500 (Central Daylight Time),321058.0,A,book,I,k,212,2,13545.299999999814,307512.7000000002,8030,WL,A,8.0
2,54.88300013542175,learn,5116.999864578247,Fri May 09 2025 14:15:28 GMT-0500 (Central Daylight Time),321474.60000000056,A,bookenter,I,enter,411,2,13961.900000000373,307512.7000000002,8030,WL,A,8.0
2,60.01400017738342,learn,-14.000177383422852,Fri May 09 2025 14:15:28 GMT-0500 (Central Daylight Time),326606.4000000004,A,None,I,None,5127,2,5131.600000000559,321474.7999999998,8030,WL,A,9.0
3,1.8329999446868896,learn,58167.00005531311,Fri May 09 2025 14:15:28 GMT-0500 (Central Daylight Time),396118.0,A,c,I,c,1817,2,1832.7999999998137,394285.2000000002,8030,WL,A,1.0
3,2.183000087738037,learn,57816.99991226196,Fri May 09 2025 14:15:28 GMT-0500 (Central Daylight Time),396467.7999999998,A,ch,I,h,343,2,2182.5999999996275,394285.2000000002,8030,WL,A,1.0
3,2.631999969482422,learn,57368.00003051758,Fri May 09 2025 14:15:28 GMT-0500 (Central Daylight Time),396917.5,A,chi,I,i,433,2,2632.2999999998137,394285.2000000002,8030,WL,A,1.0
3,3.5820000171661377,learn,56417.99998283386,Fri May 09 2025 14:15:28 GMT-0500 (Central Daylight Time),397867.2000000002,A,chim,I,m,944,2,3582.0,394285.2000000002,8030,WL,A,1.0
3,3.881999969482422,learn,56118.00003051758,Fri May 09 2025 14:15:28 GMT-0500 (Central Daylight Time),398167.2000000002,A,chimn,I,n,290,2,3882.0,394285.2000000002,8030,WL,A,1.0
3,4.315000057220459,learn,55684.99994277954,Fri May 09 2025 14:15:28 GMT-0500 (Central Daylight Time),398600.4000000004,A,chimny,I,y,414,2,4315.200000000186,394285.2000000002,8030,WL,A,1.0
3,7.480999946594238,learn,52519.00005340576,Fri May 09 2025 14:15:28 GMT-0500 (Central Daylight Time),401766.4000000004,A,chimn,I,backspace,3157,2,7481.200000000186,394285.2000000002,8030,WL,A,1.0
3,8.664000034332275,learn,51335.999965667725,Fri May 09 2025 14:15:28 GMT-0500 (Central Daylight Time),402949.2000000002,A,chimne,I,e,1167,2,8664.0,394285.2000000002,8030,WL,A,1.0
3,9.04699993133545,learn,50953.00006866455,Fri May 09 2025 14:15:28 GMT-0500 (Central Daylight Time),403332.2999999998,A,chimney,I,y,368,2,9047.099999999627,394285.2000000002,8030,WL,A,1.0
3,10.230000019073486,learn,49769.999980926514,Fri May 09 2025 14:15:28 GMT-0500 (Central Daylight Time),404515.2000000002,A,chimneyenter,I,enter,1169,2,10230.0,394285.2000000002,8030,WL,A,1.0
3,11.578999996185303,learn,48421.0000038147,Fri May 09 2025 14:15:28 GMT-0500 (Central Daylight Time),405864.60000000056,A,s,I,s,1338,2,1349.1000000005588,404515.5,8030,WL,A,2.0
3,11.779000043869019,learn,48220.99995613098,Fri May 09 2025 14:15:28 GMT-0500 (Central Daylight Time),406064.9000000004,A,sa,I,a,188,2,1549.4000000003725,404515.5,8030,WL,A,2.0
3,12.11299991607666,learn,47887.00008392334,Fri May 09 2025 14:15:28 GMT-0500 (Central Daylight Time),406397.9000000004,A,sal,I,l,325,2,1882.4000000003725,404515.5,8030,WL,A,2.0
3,12.661999940872192,learn,47338.00005912781,Fri May 09 2025 14:15:28 GMT-0500 (Central Daylight Time),406947.9000000004,A,salt,I,t,543,2,2432.4000000003725,404515.5,8030,WL,A,2.0
3,13.994999885559082,learn,46005.00011444092,Fri May 09 2025 14:15:28 GMT-0500 (Central Daylight Time),408280.7999999998,A,saltenter,I,enter,1322,2,3765.2999999998137,404515.5,8030,WL,A,2.0
3,17.543999910354614,learn,42456.000089645386,Fri May 09 2025 14:15:28 GMT-0500 (Central Daylight Time),411829.7000000002,A,t,I,t,3533,2,3548.5999999996275,408281.10000000056,8030,WL,A,3.0
3,17.805999994277954,learn,42194.000005722046,Fri May 09 2025 14:15:28 GMT-0500 (Central Daylight Time),412091.2000000002,A,tr,I,r,256,2,3810.0999999996275,408281.10000000056,8030,WL,A,3.0
3,18.026999950408936,learn,41973.000049591064,Fri May 09 2025 14:15:28 GMT-0500 (Central Daylight Time),412312.5,A,tra,I,a,201,2,4031.399999999441,408281.10000000056,8030,WL,A,3.0
3,18.26099991798401,learn,41739.00008201599,Fri May 09 2025 14:15:28 GMT-0500 (Central Daylight Time),412546.0,A,trai,I,i,221,2,4264.899999999441,408281.10000000056,8030,WL,A,3.0
3,18.560999870300293,learn,41439.00012969971,Fri May 09 2025 14:15:28 GMT-0500 (Central Daylight Time),412846.10000000056,A,train,I,n,283,2,4565.0,408281.10000000056,8030,WL,A,3.0
3,19.627000093460083,learn,40372.99990653992,Fri May 09 2025 14:15:28 GMT-0500 (Central Daylight Time),413912.2999999998,A,trainenter,I,enter,1047,2,5631.199999999255,408281.10000000056,8030,WL,A,3.0
3,20.460000038146973,learn,39539.99996185303,Fri May 09 2025 14:15:28 GMT-0500 (Central Daylight Time),414745.2999999998,A,f,I,f,821,2,832.6999999992549,413912.60000000056,8030,WL,A,4.0
3,20.743000030517578,learn,39256.99996948242,Fri May 09 2025 14:15:28 GMT-0500 (Central Daylight Time),415028.4000000004,A,fl,I,l,268,2,1115.7999999998137,413912.60000000056,8030,WL,A,4.0
3,21.092999935150146,learn,38907.00006484985,Fri May 09 2025 14:15:28 GMT-0500 (Central Daylight Time),415378.7000000002,A,flo,I,o,337,2,1466.0999999996275,413912.60000000056,8030,WL,A,4.0
3,21.425999879837036,learn,38574.000120162964,Fri May 09 2025 14:15:28 GMT-0500 (Central Daylight Time),415711.7999999998,A,flow,I,w,323,2,1799.199999999255,413912.60000000056,8030,WL,A,4.0
3,21.7260000705719,learn,38273.9999294281,Fri May 09 2025 14:15:28 GMT-0500 (Central Daylight Time),416011.7000000002,A,flowe,I,e,286,2,2099.0999999996275,413912.60000000056,8030,WL,A,4.0
3,22.026000022888184,learn,37973.99997711182,Fri May 09 2025 14:15:28 GMT-0500 (Central Daylight Time),416311.7000000002,A,flower,I,r,290,2,2399.0999999996275,413912.60000000056,8030,WL,A,4.0
3,22.792999982833862,learn,37207.00001716614,Fri May 09 2025 14:15:28 GMT-0500 (Central Daylight Time),417078.0,A,flowerenter,I,enter,758,2,3165.399999999441,413912.60000000056,8030,WL,A,4.0
3,23.70899987220764,learn,36291.00012779236,Fri May 09 2025 14:15:28 GMT-0500 (Central Daylight Time),417994.4000000004,A,f,I,f,895,2,915.9000000003725,417078.5,8030,WL,A,5.0
3,23.941999912261963,learn,36058.00008773804,Fri May 09 2025 14:15:28 GMT-0500 (Central Daylight Time),418227.7000000002,A,fi,I,i,227,2,1149.2000000001863,417078.5,8030,WL,A,5.0
3,24.276000022888184,learn,35723.99997711182,Fri May 09 2025 14:15:28 GMT-0500 (Central Daylight Time),418561.0,A,fin,I,n,314,2,1482.5,417078.5,8030,WL,A,5.0
3,24.608999967575073,learn,35391.00003242493,Fri May 09 2025 14:15:28 GMT-0500 (Central Daylight Time),418894.2999999998,A,fing,I,g,316,2,1815.7999999998137,417078.5,8030,WL,A,5.0
3,24.825000047683716,learn,35174.999952316284,Fri May 09 2025 14:15:28 GMT-0500 (Central Daylight Time),419110.7000000002,A,finge,I,e,207,2,2032.2000000001863,417078.5,8030,WL,A,5.0
3,25.125,learn,34875.0,Fri May 09 2025 14:15:28 GMT-0500 (Central Daylight Time),419410.7999999998,A,finger,I,r,287,2,2332.2999999998137,417078.5,8030,WL,A,5.0
3,25.89199995994568,learn,34108.00004005432,Fri May 09 2025 14:15:28 GMT-0500 (Central Daylight Time),420177.2999999998,A,fingerenter,I,enter,746,2,3098.7999999998137,417078.5,8030,WL,A,5.0
3,27.424999952316284,learn,32575.000047683716,Fri May 09 2025 14:15:28 GMT-0500 (Central Daylight Time),421710.0,A,b,I,b,1516,2,1532.2999999998137,420177.7000000002,8030,WL,A,6.0
3,27.79099988937378,learn,32209.00011062622,Fri May 09 2025 14:15:28 GMT-0500 (Central Daylight Time),422076.2999999998,A,bo,I,o,359,2,1898.5999999996275,420177.7000000002,8030,WL,A,6.0
3,27.990999937057495,learn,32009.000062942505,Fri May 09 2025 14:15:28 GMT-0500 (Central Daylight Time),422276.4000000004,A,boo,I,o,185,2,2098.7000000001863,420177.7000000002,8030,WL,A,6.0
3,28.240999937057495,learn,31759.000062942505,Fri May 09 2025 14:15:28 GMT-0500 (Central Daylight Time),422526.10000000056,A,book,I,k,241,2,2348.4000000003725,420177.7000000002,8030,WL,A,6.0
3,29.740999937057495,learn,30259.000062942505,Fri May 09 2025 14:15:28 GMT-0500 (Central Daylight Time),424026.10000000056,A,bookenter,I,enter,1487,2,3848.4000000003725,420177.7000000002,8030,WL,A,6.0
3,32.10599994659424,learn,27894.00005340576,Fri May 09 2025 14:15:28 GMT-0500 (Central Daylight Time),426391.7999999998,A,r,I,r,2347,2,2365.399999999441,424026.4000000004,8030,WL,A,7.0
3,32.40599989891052,learn,27594.000101089478,Fri May 09 2025 14:15:28 GMT-0500 (Central Daylight Time),426691.7000000002,A,ra,I,a,294,2,2665.2999999998137,424026.4000000004,8030,WL,A,7.0
3,32.78999996185303,learn,27210.000038146973,Fri May 09 2025 14:15:28 GMT-0500 (Central Daylight Time),427075.0,A,rat,I,t,370,2,3048.5999999996275,424026.4000000004,8030,WL,A,7.0
3,32.98900008201599,learn,27010.99991798401,Fri May 09 2025 14:15:28 GMT-0500 (Central Daylight Time),427274.9000000004,A,ratt,I,t,186,2,3248.5,424026.4000000004,8030,WL,A,7.0
3,33.57299995422363,learn,26427.000045776367,Fri May 09 2025 14:15:28 GMT-0500 (Central Daylight Time),427858.0,A,rattl,I,l,570,2,3831.5999999996275,424026.4000000004,8030,WL,A,7.0
3,34.02300000190735,learn,25976.99999809265,Fri May 09 2025 14:15:28 GMT-0500 (Central Daylight Time),428307.9000000004,A,rattle,I,e,435,2,4281.5,424026.4000000004,8030,WL,A,7.0
3,35.0550000667572,learn,24944.999933242798,Fri May 09 2025 14:15:28 GMT-0500 (Central Daylight Time),429340.9000000004,A,rattleenter,I,enter,1017,2,5314.5,424026.4000000004,8030,WL,A,7.0
3,40.73699998855591,learn,19263.00001144409,Fri May 09 2025 14:15:28 GMT-0500 (Central Daylight Time),435022.4000000004,A,f,I,f,5664,2,5681.100000000559,429341.2999999998,8030,WL,A,8.0
3,41.3510000705719,learn,18648.9999294281,Fri May 09 2025 14:15:28 GMT-0500 (Central Daylight Time),435636.9000000004,A,fl,I,l,471,2,6295.600000000559,429341.2999999998,8030,WL,A,8.0
3,41.503000020980835,learn,18496.999979019165,Fri May 09 2025 14:15:28 GMT-0500 (Central Daylight Time),435788.2999999998,A,flo,I,o,142,2,6447.0,429341.2999999998,8030,WL,A,8.0
3,42.03699994087219,learn,17963.000059127808,Fri May 09 2025 14:15:28 GMT-0500 (Central Daylight Time),436322.2000000002,A,flow,I,w,527,2,6980.9000000003725,429341.2999999998,8030,WL,A,8.0
3,42.38700008392334,learn,17612.99991607666,Fri May 09 2025 14:15:28 GMT-0500 (Central Daylight Time),436671.9000000004,A,flowe,I,e,339,2,7330.600000000559,429341.2999999998,8030,WL,A,8.0
3,42.68599987030029,learn,17314.000129699707,Fri May 09 2025 14:15:28 GMT-0500 (Central Daylight Time),436971.9000000004,A,flower,I,r,286,2,7630.600000000559,429341.2999999998,8030,WL,A,8.0
3,43.1029999256134,learn,16897.000074386597,Fri May 09 2025 14:15:28 GMT-0500 (Central Daylight Time),437388.2000000002,A,flowerenter,I,enter,401,2,8046.9000000003725,429341.2999999998,8030,WL,A,8.0
3,47.00200009346008,learn,12997.999906539917,Fri May 09 2025 14:15:28 GMT-0500 (Central Daylight Time),441287.0,A,r,I,r,3881,2,3898.399999999441,437388.60000000056,8030,WL,A,9.0
3,47.30200004577637,learn,12697.999954223633,Fri May 09 2025 14:15:28 GMT-0500 (Central Daylight Time),441586.9000000004,A,ru,I,u,286,2,4198.299999999814,437388.60000000056,8030,WL,A,9.0
3,47.63499999046326,learn,12365.000009536743,Fri May 09 2025 14:15:28 GMT-0500 (Central Daylight Time),441920.10000000056,A,rug,I,g,323,2,4531.5,437388.60000000056,8030,WL,A,9.0
3,48.70099997520447,learn,11299.000024795532,Fri May 09 2025 14:15:28 GMT-0500 (Central Daylight Time),442986.5,A,rugenter,I,enter,1054,2,5597.899999999441,437388.60000000056,8030,WL,A,9.0
3,55.99900007247925,learn,4000.999927520752,Fri May 09 2025 14:15:28 GMT-0500 (Central Daylight Time),450284.2000000002,A,l,I,l,7291,2,7297.299999999814,442986.9000000004,8030,WL,A,10.0
3,56.23199987411499,learn,3768.0001258850098,Fri May 09 2025 14:15:28 GMT-0500 (Central Daylight Time),450517.5,A,lo,I,o,225,2,7530.5999999996275,442986.9000000004,8030,WL,A,10.0
3,56.73199987411499,learn,3268.0001258850098,Fri May 09 2025 14:15:28 GMT-0500 (Central Daylight Time),451017.7000000002,A,log,I,g,480,2,8030.799999999814,442986.9000000004,8030,WL,A,10.0
3,57.24799990653992,learn,2752.000093460083,Fri May 09 2025 14:15:28 GMT-0500 (Central Daylight Time),451533.7999999998,A,logenter,I,enter,508,2,8546.899999999441,442986.9000000004,8030,WL,A,10.0
3,60.015000104904175,learn,-15.000104904174805,Fri May 09 2025 14:15:28 GMT-0500 (Central Daylight Time),454300.7999999998,A,None,I,None,2763,2,2766.5999999996275,451534.2000000002,8030,WL,A,11.0
4,1.183000087738037,learn,58816.99991226196,Fri May 09 2025 14:15:28 GMT-0500 (Central Daylight Time),524210.9000000004,A,b,I,b,1178,2,1182.9000000003725,523028.0,8030,WL,A,1.0
4,1.5829999446868896,learn,58417.00005531311,Fri May 09 2025 14:15:28 GMT-0500 (Central Daylight Time),524610.9000000004,A,bu,I,u,386,2,1582.9000000003725,523028.0,8030,WL,A,1.0
4,2.0,learn,58000.0,Fri May 09 2025 14:15:28 GMT-0500 (Central Daylight Time),525027.5,A,but,I,t,411,2,1999.5,523028.0,8030,WL,A,1.0
4,2.2330000400543213,learn,57766.99995994568,Fri May 09 2025 14:15:28 GMT-0500 (Central Daylight Time),525260.6000000006,A,butt,I,t,226,2,2232.600000000559,523028.0,8030,WL,A,1.0
4,2.6989998817443848,learn,57301.000118255615,Fri May 09 2025 14:15:28 GMT-0500 (Central Daylight Time),525727.1000000006,A,butto,I,o,457,2,2699.100000000559,523028.0,8030,WL,A,1.0
4,3.0829999446868896,learn,56917.00005531311,Fri May 09 2025 14:15:28 GMT-0500 (Central Daylight Time),526110.4000000004,A,button,I,n,374,2,3082.4000000003725,523028.0,8030,WL,A,1.0
4,4.249000072479248,learn,55750.99992752075,Fri May 09 2025 14:15:28 GMT-0500 (Central Daylight Time),527276.7999999998,A,buttonenter,I,enter,1151,2,4248.799999999814,523028.0,8030,WL,A,1.0
4,5.549000024795532,learn,54450.99997520447,Fri May 09 2025 14:15:28 GMT-0500 (Central Daylight Time),528576.4000000004,A,k,I,k,1281,2,1299.2000000001863,527277.2000000002,8030,WL,A,2.0
4,5.848999977111816,learn,54151.00002288818,Fri May 09 2025 14:15:28 GMT-0500 (Central Daylight Time),528876.2999999998,A,ke,I,e,285,2,1599.0999999996275,527277.2000000002,8030,WL,A,2.0
4,6.230999946594238,learn,53769.00005340576,Fri May 09 2025 14:15:28 GMT-0500 (Central Daylight Time),529259.2000000002,A,key,I,y,369,2,1982.0,527277.2000000002,8030,WL,A,2.0
4,6.908999919891357,learn,53091.00008010864,Fri May 09 2025 14:15:28 GMT-0500 (Central Daylight Time),529936.2999999998,A,keyenter,I,enter,672,2,2659.0999999996275,527277.2000000002,8030,WL,A,2.0
4,7.864000082015991,learn,52135.99991798401,Fri May 09 2025 14:15:28 GMT-0500 (Central Daylight Time),530892.2000000002,A,g,I,g,941,2,955.7000000001863,529936.5,8030,WL,A,3.0
4,8.098000049591064,learn,51901.999950408936,Fri May 09 2025 14:15:28 GMT-0500 (Central Daylight Time),531125.6000000006,A,go,I,o,216,2,1189.1000000005588,529936.5,8030,WL,A,3.0
4,8.414000034332275,learn,51585.999965667725,Fri May 09 2025 14:15:28 GMT-0500 (Central Daylight Time),531442.2000000002,A,gol,I,l,296,2,1505.7000000001863,529936.5,8030,WL,A,3.0
4,8.846999883651733,learn,51153.00011634827,Fri May 09 2025 14:15:28 GMT-0500 (Central Daylight Time),531875.2999999998,A,gold,I,d,419,2,1938.7999999998137,529936.5,8030,WL,A,3.0
4,9.829999923706055,learn,50170.000076293945,Fri May 09 2025 14:15:28 GMT-0500 (Central Daylight Time),532858.1000000006,A,goldenter,I,enter,978,2,2921.600000000559,529936.5,8030,WL,A,3.0
4,10.746999979019165,learn,49253.000020980835,Fri May 09 2025 14:15:28 GMT-0500 (Central Daylight Time),533774.6000000006,A,c,I,c,898,2,916.2000000001863,532858.4000000004,8030,WL,A,4.0
4,11.013999938964844,learn,48986.000061035156,Fri May 09 2025 14:15:28 GMT-0500 (Central Daylight Time),534041.5,A,ch,I,h,255,2,1183.0999999996275,532858.4000000004,8030,WL,A,4.0
4,11.329999923706055,learn,48670.000076293945,Fri May 09 2025 14:15:28 GMT-0500 (Central Daylight Time),534357.6000000006,A,chi,I,i,298,2,1499.2000000001863,532858.4000000004,8030,WL,A,4.0
4,11.79699993133545,learn,48203.00006866455,Fri May 09 2025 14:15:28 GMT-0500 (Central Daylight Time),534824.2999999998,A,chin,I,n,447,2,1965.8999999994412,532858.4000000004,8030,WL,A,4.0
4,13.678999900817871,learn,46321.00009918213,Fri May 09 2025 14:15:28 GMT-0500 (Central Daylight Time),536706.9000000004,A,chi,I,backspace,1877,2,3848.5,532858.4000000004,8030,WL,A,4.0
4,14.11299991607666,learn,45887.00008392334,Fri May 09 2025 14:15:28 GMT-0500 (Central Daylight Time),537140.4000000004,A,chim,I,m,419,2,4282.0,532858.4000000004,8030,WL,A,4.0
4,14.428999900817871,learn,45571.00009918213,Fri May 09 2025 14:15:28 GMT-0500 (Central Daylight Time),537457.0,A,chimn,I,n,297,2,4598.5999999996275,532858.4000000004,8030,WL,A,4.0
4,14.678999900817871,learn,45321.00009918213,Fri May 09 2025 14:15:28 GMT-0500 (Central Daylight Time),537706.7000000002,A,chimne,I,e,244,2,4848.299999999814,532858.4000000004,8030,WL,A,4.0
4,15.062000036239624,learn,44937.999963760376,Fri May 09 2025 14:15:28 GMT-0500 (Central Daylight Time),538090.2999999998,A,chimney,I,y,379,2,5231.899999999441,532858.4000000004,8030,WL,A,4.0
4,16.27900004386902,learn,43720.99995613098,Fri May 09 2025 14:15:28 GMT-0500 (Central Daylight Time),539306.2999999998,A,chimneyenter,I,enter,1211,2,6447.899999999441,532858.4000000004,8030,WL,A,4.0
4,17.295000076293945,learn,42704.999923706055,Fri May 09 2025 14:15:28 GMT-0500 (Central Daylight Time),540322.9000000004,A,f,I,f,1003,2,1016.4000000003725,539306.5,8030,WL,A,5.0
4,17.545000076293945,learn,42454.999923706055,Fri May 09 2025 14:15:28 GMT-0500 (Central Daylight Time),540572.7000000002,A,fi,I,i,234,2,1266.2000000001863,539306.5,8030,WL,A,5.0
4,17.894999980926514,learn,42105.000019073486,Fri May 09 2025 14:15:28 GMT-0500 (Central Daylight Time),540922.5,A,fin,I,n,337,2,1616.0,539306.5,8030,WL,A,5.0
4,18.227999925613403,learn,41772.0000743866,Fri May 09 2025 14:15:28 GMT-0500 (Central Daylight Time),541255.7000000002,A,fing,I,g,323,2,1949.2000000001863,539306.5,8030,WL,A,5.0
4,18.444000005722046,learn,41555.999994277954,Fri May 09 2025 14:15:28 GMT-0500 (Central Daylight Time),541472.2999999998,A,finge,I,e,206,2,2165.7999999998137,539306.5,8030,WL,A,5.0
4,18.744999885559082,learn,41255.00011444092,Fri May 09 2025 14:15:28 GMT-0500 (Central Daylight Time),541772.4000000004,A,finger,I,r,285,2,2465.9000000003725,539306.5,8030,WL,A,5.0
4,19.14400005340576,learn,40855.99994659424,Fri May 09 2025 14:15:28 GMT-0500 (Central Daylight Time),542172.2000000002,A,fingerenter,I,enter,393,2,2865.7000000001863,539306.5,8030,WL,A,5.0
4,20.07699990272522,learn,39923.00009727478,Fri May 09 2025 14:15:28 GMT-0500 (Central Daylight Time),543105.1000000006,A,s,I,s,921,2,932.7000000001863,542172.4000000004,8030,WL,A,6.0
4,20.26099991798401,learn,39739.00008201599,Fri May 09 2025 14:15:28 GMT-0500 (Central Daylight Time),543288.6000000006,A,sa,I,a,172,2,1116.2000000001863,542172.4000000004,8030,WL,A,6.0
4,20.64400005340576,learn,39355.99994659424,Fri May 09 2025 14:15:28 GMT-0500 (Central Daylight Time),543671.7999999998,A,sal,I,l,373,2,1499.3999999994412,542172.4000000004,8030,WL,A,6.0
4,21.05999994277954,learn,38940.00005722046,Fri May 09 2025 14:15:28 GMT-0500 (Central Daylight Time),544088.0,A,salt,I,t,397,2,1915.5999999996275,542172.4000000004,8030,WL,A,6.0
4,21.776999950408936,learn,38223.000049591064,Fri May 09 2025 14:15:28 GMT-0500 (Central Daylight Time),544804.7000000002,A,saltenter,I,enter,701,2,2632.2999999998137,542172.4000000004,8030,WL,A,6.0
4,22.55999994277954,learn,37440.00005722046,Fri May 09 2025 14:15:28 GMT-0500 (Central Daylight Time),545588.0,A,b,I,b,777,2,783.0,544805.0,8030,WL,A,7.0
4,23.509999990463257,learn,36490.00000953674,Fri May 09 2025 14:15:28 GMT-0500 (Central Daylight Time),546537.4000000004,A,bo,I,o,937,2,1732.4000000003725,544805.0,8030,WL,A,7.0
4,23.7260000705719,learn,36273.9999294281,Fri May 09 2025 14:15:28 GMT-0500 (Central Daylight Time),546754.1000000006,A,boo,I,o,196,2,1949.1000000005588,544805.0,8030,WL,A,7.0
4,24.026000022888184,learn,35973.99997711182,Fri May 09 2025 14:15:28 GMT-0500 (Central Daylight Time),547053.9000000004,A,book,I,k,283,2,2248.9000000003725,544805.0,8030,WL,A,7.0
4,26.52500009536743,learn,33474.99990463257,Fri May 09 2025 14:15:28 GMT-0500 (Central Daylight Time),549553.1000000006,A,bookenter,I,enter,2488,2,4748.100000000559,544805.0,8030,WL,A,7.0
4,28.740999937057495,learn,31259.000062942505,Fri May 09 2025 14:15:28 GMT-0500 (Central Daylight Time),551769.1000000006,A,r,I,r,2204,2,2215.600000000559,549553.5,8030,WL,A,8.0
4,29.04099988937378,learn,30959.00011062622,Fri May 09 2025 14:15:28 GMT-0500 (Central Daylight Time),552068.9000000004,A,ra,I,a,284,2,2515.4000000003725,549553.5,8030,WL,A,8.0
4,29.407999992370605,learn,30592.000007629395,Fri May 09 2025 14:15:28 GMT-0500 (Central Daylight Time),552435.6000000006,A,rat,I,t,353,2,2882.100000000559,549553.5,8030,WL,A,8.0
4,29.591000080108643,learn,30408.999919891357,Fri May 09 2025 14:15:28 GMT-0500 (Central Daylight Time),552618.6000000006,A,ratt,I,t,178,2,3065.100000000559,549553.5,8030,WL,A,8.0
4,30.141000032424927,learn,29858.999967575073,Fri May 09 2025 14:15:28 GMT-0500 (Central Daylight Time),553168.7999999998,A,rattl,I,l,539,2,3615.2999999998137,549553.5,8030,WL,A,8.0
4,30.44000005722046,learn,29559.99994277954,Fri May 09 2025 14:15:28 GMT-0500 (Central Daylight Time),553468.2999999998,A,rattle,I,e,295,2,3914.7999999998137,549553.5,8030,WL,A,8.0
4,31.04099988937378,learn,28959.00011062622,Fri May 09 2025 14:15:28 GMT-0500 (Central Daylight Time),554068.4000000004,A,rattleenter,I,enter,584,2,4514.9000000003725,549553.5,8030,WL,A,8.0
4,34.83899998664856,learn,25161.00001335144,Fri May 09 2025 14:15:28 GMT-0500 (Central Daylight Time),557867.2999999998,A,k,I,k,3785,2,3798.5999999996275,554068.7000000002,8030,WL,A,9.0
4,35.47199988365173,learn,24528.000116348267,Fri May 09 2025 14:15:28 GMT-0500 (Central Daylight Time),558500.2999999998,A,ke,I,e,626,2,4431.5999999996275,554068.7000000002,8030,WL,A,9.0
4,35.72199988365173,learn,24278.000116348267,Fri May 09 2025 14:15:28 GMT-0500 (Central Daylight Time),558750.2000000002,A,key,I,y,233,2,4681.5,554068.7000000002,8030,WL,A,9.0
4,36.47199988365173,learn,23528.000116348267,Fri May 09 2025 14:15:28 GMT-0500 (Central Daylight Time),559500.0,A,keyenter,I,enter,735,2,5431.299999999814,554068.7000000002,8030,WL,A,9.0
4,43.45300006866455,learn,16546.99993133545,Fri May 09 2025 14:15:28 GMT-0500 (Central Daylight Time),566481.2000000002,A,n,I,n,6961,2,6980.799999999814,559500.4000000004,8030,WL,A,10.0
4,43.83699989318848,learn,16163.000106811523,Fri May 09 2025 14:15:28 GMT-0500 (Central Daylight Time),566864.4000000004,A,ne,I,e,364,2,7364.0,559500.4000000004,8030,WL,A,10.0
4,44.38599991798401,learn,15614.000082015991,Fri May 09 2025 14:15:28 GMT-0500 (Central Daylight Time),567414.2000000002,A,nea,I,a,533,2,7913.799999999814,559500.4000000004,8030,WL,A,10.0
4,44.70300006866455,learn,15296.99993133545,Fri May 09 2025 14:15:28 GMT-0500 (Central Daylight Time),567730.5,A,nead,I,d,311,2,8230.099999999627,559500.4000000004,8030,WL,A,10.0
4,45.05299997329712,learn,14947.00002670288,Fri May 09 2025 14:15:28 GMT-0500 (Central Daylight Time),568080.7999999998,A,neado,I,o,339,2,8580.399999999441,559500.4000000004,8030,WL,A,10.0
4,45.37100005149841,learn,14628.999948501587,Fri May 09 2025 14:15:28 GMT-0500 (Central Daylight Time),568398.4000000004,A,neadow,I,w,308,2,8898.0,559500.4000000004,8030,WL,A,10.0
4,46.236000061035156,learn,13763.999938964844,Fri May 09 2025 14:15:28 GMT-0500 (Central Daylight Time),569263.7000000002,A,neadowenter,I,enter,855,2,9763.299999999814,559500.4000000004,8030,WL,A,10.0
4,54.65000009536743,learn,5349.999904632568,Fri May 09 2025 14:15:28 GMT-0500 (Central Daylight Time),577677.9000000004,A,t,I,t,8406,2,8413.900000000373,569264.0,8030,WL,A,11.0
4,55.132999897003174,learn,4867.000102996826,Fri May 09 2025 14:15:28 GMT-0500 (Central Daylight Time),578161.1000000006,A,tr,I,r,463,2,8897.100000000559,569264.0,8030,WL,A,11.0
4,55.34999990463257,learn,4650.000095367432,Fri May 09 2025 14:15:28 GMT-0500 (Central Daylight Time),578377.7000000002,A,tra,I,a,204,2,9113.700000000186,569264.0,8030,WL,A,11.0
4,55.782999992370605,learn,4217.0000076293945,Fri May 09 2025 14:15:28 GMT-0500 (Central Daylight Time),578810.5,A,trai,I,i,428,2,9546.5,569264.0,8030,WL,A,11.0
4,56.04900002479553,learn,3950.999975204468,Fri May 09 2025 14:15:28 GMT-0500 (Central Daylight Time),579077.2000000002,A,train,I,n,251,2,9813.200000000186,569264.0,8030,WL,A,11.0
4,56.448999881744385,learn,3551.0001182556152,Fri May 09 2025 14:15:28 GMT-0500 (Central Daylight Time),579477.1000000006,A,trainenter,I,enter,384,2,10213.100000000559,569264.0,8030,WL,A,11.0
4,60.013999938964844,learn,-13.99993896484375,Fri May 09 2025 14:15:28 GMT-0500 (Central Daylight Time),583043.0,A,None,I,None,3561,2,3565.5999999996275,579477.4000000004,8030,WL,A,12.0
5,1.1659998893737793,learn,60000.0,Fri May 09 2025 14:15:28 GMT-0500 (Central Daylight Time),650571.7000000002,A,r,I,r,1161,2,1166.2999999998137,649405.4000000004,8030,WL,A,1.0
5,1.5160000324249268,learn,60000.0,Fri May 09 2025 14:15:28 GMT-0500 (Central Daylight Time),650921.4000000004,A,ra,I,a,329,2,1516.0,649405.4000000004,8030,WL,A,1.0
5,1.8989999294281006,learn,60000.0,Fri May 09 2025 14:15:28 GMT-0500 (Central Daylight Time),651304.6000000006,A,rat,I,t,372,2,1899.2000000001863,649405.4000000004,8030,WL,A,1.0
5,2.0829999446868896,learn,60000.0,Fri May 09 2025 14:15:28 GMT-0500 (Central Daylight Time),651487.7000000002,A,ratt,I,t,172,2,2082.2999999998137,649405.4000000004,8030,WL,A,1.0
5,2.7149999141693115,learn,60000.0,Fri May 09 2025 14:15:28 GMT-0500 (Central Daylight Time),652120.6000000006,A,rattl,I,l,611,2,2715.2000000001863,649405.4000000004,8030,WL,A,1.0
5,3.0320000648498535,learn,60000.0,Fri May 09 2025 14:15:28 GMT-0500 (Central Daylight Time),652437.2000000002,A,rattle,I,e,300,2,3031.7999999998137,649405.4000000004,8030,WL,A,1.0
5,3.5490000247955322,learn,60000.0,Fri May 09 2025 14:15:28 GMT-0500 (Central Daylight Time),652954.1000000006,A,rattleenter,I,enter,512,2,3548.7000000001863,649405.4000000004,8030,WL,A,1.0
5,4.115000009536743,learn,60000.0,Fri May 09 2025 14:15:28 GMT-0500 (Central Daylight Time),653520.4000000004,A,g,I,g,547,2,566.0,652954.4000000004,8030,WL,A,2.0
5,4.5320000648498535,learn,60000.0,Fri May 09 2025 14:15:28 GMT-0500 (Central Daylight Time),653937.1000000006,A,go,I,o,405,2,982.7000000001863,652954.4000000004,8030,WL,A,2.0
5,4.815000057220459,learn,60000.0,Fri May 09 2025 14:15:28 GMT-0500 (Central Daylight Time),654220.1000000006,A,gol,I,l,268,2,1265.7000000001863,652954.4000000004,8030,WL,A,2.0
5,5.2820000648498535,learn,60000.0,Fri May 09 2025 14:15:28 GMT-0500 (Central Daylight Time),654686.9000000004,A,gold,I,d,457,2,1732.5,652954.4000000004,8030,WL,A,2.0
5,5.648000001907349,learn,60000.0,Fri May 09 2025 14:15:28 GMT-0500 (Central Daylight Time),655053.5,A,goldenter,I,enter,351,2,2099.0999999996275,652954.4000000004,8030,WL,A,2.0
5,6.164999961853027,learn,60000.0,Fri May 09 2025 14:15:28 GMT-0500 (Central Daylight Time),655570.0,A,k,I,k,496,2,516.2000000001863,655053.7999999998,8030,WL,A,3.0
5,6.430999994277954,learn,60000.0,Fri May 09 2025 14:15:28 GMT-0500 (Central Daylight Time),655836.5,A,ke,I,e,259,2,782.7000000001863,655053.7999999998,8030,WL,A,3.0
5,6.815000057220459,learn,60000.0,Fri May 09 2025 14:15:28 GMT-0500 (Central Daylight Time),656219.7999999998,A,key,I,y,369,2,1166.0,655053.7999999998,8030,WL,A,3.0
5,7.397000074386597,learn,60000.0,Fri May 09 2025 14:15:28 GMT-0500 (Central Daylight Time),656802.6000000006,A,keyenter,I,enter,570,2,1748.800000000745,655053.7999999998,8030,WL,A,3.0
5,8.19700002670288,learn,60000.0,Fri May 09 2025 14:15:28 GMT-0500 (Central Daylight Time),657602.4000000004,A,f,I,f,795,2,799.6000000005588,656802.7999999998,8030,WL,A,4.0
5,8.44700002670288,learn,60000.0,Fri May 09 2025 14:15:28 GMT-0500 (Central Daylight Time),657852.5,A,fi,I,i,235,2,1049.7000000001863,656802.7999999998,8030,WL,A,4.0
5,8.780999898910522,learn,60000.0,Fri May 09 2025 14:15:28 GMT-0500 (Central Daylight Time),658185.9000000004,A,fin,I,n,321,2,1383.1000000005588,656802.7999999998,8030,WL,A,4.0
5,9.114000082015991,learn,60000.0,Fri May 09 2025 14:15:28 GMT-0500 (Central Daylight Time),658518.9000000004,A,fing,I,g,315,2,1716.1000000005588,656802.7999999998,8030,WL,A,4.0
5,9.38100004196167,learn,60000.0,Fri May 09 2025 14:15:28 GMT-0500 (Central Daylight Time),658786.0,A,finge,I,e,247,2,1983.2000000001863,656802.7999999998,8030,WL,A,4.0
5,9.77999997138977,learn,60000.0,Fri May 09 2025 14:15:28 GMT-0500 (Central Daylight Time),659185.5,A,finger,I,r,387,2,2382.7000000001863,656802.7999999998,8030,WL,A,4.0
5,10.129999876022339,learn,60000.0,Fri May 09 2025 14:15:28 GMT-0500 (Central Daylight Time),659535.2999999998,A,fingerenter,I,enter,332,2,2732.5,656802.7999999998,8030,WL,A,4.0
5,10.730000019073486,learn,60000.0,Fri May 09 2025 14:15:28 GMT-0500 (Central Daylight Time),660135.2000000002,A,b,I,b,582,2,599.5,659535.7000000002,8030,WL,A,5.0
5,11.096999883651733,learn,60000.0,Fri May 09 2025 14:15:28 GMT-0500 (Central Daylight Time),660501.7999999998,A,bo,I,o,350,2,966.0999999996275,659535.7000000002,8030,WL,A,5.0
5,11.27999997138977,learn,60000.0,Fri May 09 2025 14:15:28 GMT-0500 (Central Daylight Time),660685.1000000006,A,boo,I,o,168,2,1149.4000000003725,659535.7000000002,8030,WL,A,5.0
5,11.595999956130981,learn,60000.0,Fri May 09 2025 14:15:28 GMT-0500 (Central Daylight Time),661001.7000000002,A,book,I,k,304,2,1466.0,659535.7000000002,8030,WL,A,5.0
5,12.029000043869019,learn,60000.0,Fri May 09 2025 14:15:28 GMT-0500 (Central Daylight Time),661434.7000000002,A,bookenter,I,enter,428,2,1899.0,659535.7000000002,8030,WL,A,5.0
5,13.44599986076355,learn,60000.0,Fri May 09 2025 14:15:28 GMT-0500 (Central Daylight Time),662850.7999999998,A,m,I,m,1411,2,1415.8999999994412,661434.9000000004,8030,WL,A,6.0
5,13.895999908447266,learn,60000.0,Fri May 09 2025 14:15:28 GMT-0500 (Central Daylight Time),663300.9000000004,A,me,I,e,443,2,1866.0,661434.9000000004,8030,WL,A,6.0
5,14.263000011444092,learn,60000.0,Fri May 09 2025 14:15:28 GMT-0500 (Central Daylight Time),663668.5,A,mea,I,a,352,2,2233.5999999996275,661434.9000000004,8030,WL,A,6.0
5,14.661999940872192,learn,60000.0,Fri May 09 2025 14:15:28 GMT-0500 (Central Daylight Time),664067.2000000002,A,mead,I,d,393,2,2632.2999999998137,661434.9000000004,8030,WL,A,6.0
5,14.979000091552734,learn,60000.0,Fri May 09 2025 14:15:28 GMT-0500 (Central Daylight Time),664383.9000000004,A,meado,I,o,306,2,2949.0,661434.9000000004,8030,WL,A,6.0
5,15.361999988555908,learn,60000.0,Fri May 09 2025 14:15:28 GMT-0500 (Central Daylight Time),664766.9000000004,A,meadow,I,w,374,2,3332.0,661434.9000000004,8030,WL,A,6.0
5,16.26200008392334,learn,60000.0,Fri May 09 2025 14:15:28 GMT-0500 (Central Daylight Time),665666.7999999998,A,meadowenter,I,enter,886,2,4231.899999999441,661434.9000000004,8030,WL,A,6.0
5,18.89400005340576,learn,60000.0,Fri May 09 2025 14:15:28 GMT-0500 (Central Daylight Time),668299.2000000002,A,h,I,h,2618,2,2632.0999999996275,665667.1000000006,8030,WL,A,7.0
5,19.111000061035156,learn,60000.0,Fri May 09 2025 14:15:28 GMT-0500 (Central Daylight Time),668516.1000000006,A,ha,I,a,202,2,2849.0,665667.1000000006,8030,WL,A,7.0
5,19.41100001335144,learn,60000.0,Fri May 09 2025 14:15:28 GMT-0500 (Central Daylight Time),668815.9000000004,A,har,I,r,289,2,3148.7999999998137,665667.1000000006,8030,WL,A,7.0
5,19.927000045776367,learn,60000.0,Fri May 09 2025 14:15:28 GMT-0500 (Central Daylight Time),669332.2999999998,A,harp,I,p,501,2,3665.199999999255,665667.1000000006,8030,WL,A,7.0
5,21.342999935150146,learn,60000.0,Fri May 09 2025 14:15:28 GMT-0500 (Central Daylight Time),670748.6000000006,A,harpenter,I,enter,1401,2,5081.5,665667.1000000006,8030,WL,A,7.0
5,22.2260000705719,learn,60000.0,Fri May 09 2025 14:15:28 GMT-0500 (Central Daylight Time),671631.7000000002,A,b,I,b,873,2,882.7999999998137,670748.9000000004,8030,WL,A,8.0
5,22.675999879837036,learn,60000.0,Fri May 09 2025 14:15:28 GMT-0500 (Central Daylight Time),672081.2999999998,A,bo,I,o,438,2,1332.3999999994412,670748.9000000004,8030,WL,A,8.0
5,22.908999919891357,learn,60000.0,Fri May 09 2025 14:15:28 GMT-0500 (Central Daylight Time),672314.7000000002,A,boo,I,o,220,2,1565.7999999998137,670748.9000000004,8030,WL,A,8.0
5,23.243000030517578,learn,60000.0,Fri May 09 2025 14:15:28 GMT-0500 (Central Daylight Time),672647.7999999998,A,book,I,k,323,2,1898.8999999994412,670748.9000000004,8030,WL,A,8.0
5,24.259000062942505,learn,60000.0,Fri May 09 2025 14:15:28 GMT-0500 (Central Daylight Time),673664.4000000004,A,bookenter,I,enter,1006,2,2915.5,670748.9000000004,8030,WL,A,8.0
5,25.358999967575073,learn,60000.0,Fri May 09 2025 14:15:28 GMT-0500 (Central Daylight Time),674763.7000000002,A,t,I,t,1093,2,1099.0,673664.7000000002,8030,WL,A,9.0
5,25.592000007629395,learn,60000.0,Fri May 09 2025 14:15:28 GMT-0500 (Central Daylight Time),674997.2000000002,A,tr,I,r,226,2,1332.5,673664.7000000002,8030,WL,A,9.0
5,25.80900001525879,learn,60000.0,Fri May 09 2025 14:15:28 GMT-0500 (Central Daylight Time),675213.7999999998,A,tra,I,a,208,2,1549.0999999996275,673664.7000000002,8030,WL,A,9.0
5,26.20899987220764,learn,60000.0,Fri May 09 2025 14:15:28 GMT-0500 (Central Daylight Time),675613.7999999998,A,trai,I,i,392,2,1949.0999999996275,673664.7000000002,8030,WL,A,9.0
5,26.674999952316284,learn,60000.0,Fri May 09 2025 14:15:28 GMT-0500 (Central Daylight Time),676080.0,A,train,I,n,448,2,2415.2999999998137,673664.7000000002,8030,WL,A,9.0
5,27.141000032424927,learn,60000.0,Fri May 09 2025 14:15:28 GMT-0500 (Central Daylight Time),676546.7000000002,A,trainenter,I,enter,453,2,2882.0,673664.7000000002,8030,WL,A,9.0
5,30.490999937057495,learn,60000.0,Fri May 09 2025 14:15:28 GMT-0500 (Central Daylight Time),679895.7999999998,A,c,I,c,3339,2,3348.699999999255,676547.1000000006,8030,WL,A,10.0
5,31.056999921798706,learn,60000.0,Fri May 09 2025 14:15:28 GMT-0500 (Central Daylight Time),680462.1000000006,A,ch,I,h,549,2,3915.0,676547.1000000006,8030,WL,A,10.0
5,31.424000024795532,learn,60000.0,Fri May 09 2025 14:15:28 GMT-0500 (Central Daylight Time),680828.7999999998,A,chi,I,i,351,2,4281.699999999255,676547.1000000006,8030,WL,A,10.0
5,32.07299995422363,learn,60000.0,Fri May 09 2025 14:15:28 GMT-0500 (Central Daylight Time),681478.4000000004,A,chim,I,m,641,2,4931.299999999814,676547.1000000006,8030,WL,A,10.0
5,32.35699987411499,learn,60000.0,Fri May 09 2025 14:15:28 GMT-0500 (Central Daylight Time),681761.9000000004,A,chimn,I,n,263,2,5214.799999999814,676547.1000000006,8030,WL,A,10.0
5,32.65700006484985,learn,60000.0,Fri May 09 2025 14:15:28 GMT-0500 (Central Daylight Time),682061.7999999998,A,chimne,I,e,292,2,5514.699999999255,676547.1000000006,8030,WL,A,10.0
5,33.07299995422363,learn,60000.0,Fri May 09 2025 14:15:28 GMT-0500 (Central Daylight Time),682478.1000000006,A,chimney,I,y,408,2,5931.0,676547.1000000006,8030,WL,A,10.0
5,34.473000049591064,learn,60000.0,Fri May 09 2025 14:15:28 GMT-0500 (Central Daylight Time),683877.7000000002,A,chimneyenter,I,enter,1391,2,7330.5999999996275,676547.1000000006,8030,WL,A,10.0
5,35.40499997138977,learn,60000.0,Fri May 09 2025 14:15:28 GMT-0500 (Central Daylight Time),684810.5,A,s,I,s,928,2,932.5,683878.0,8030,WL,A,11.0
5,35.605000019073486,learn,60000.0,Fri May 09 2025 14:15:28 GMT-0500 (Central Daylight Time),685010.6000000006,A,sa,I,a,195,2,1132.6000000005588,683878.0,8030,WL,A,11.0
5,35.888999938964844,learn,60000.0,Fri May 09 2025 14:15:28 GMT-0500 (Central Daylight Time),685294.1000000006,A,sal,I,l,275,2,1416.1000000005588,683878.0,8030,WL,A,11.0
5,36.40499997138977,learn,60000.0,Fri May 09 2025 14:15:28 GMT-0500 (Central Daylight Time),685810.4000000004,A,salt,I,t,496,2,1932.4000000003725,683878.0,8030,WL,A,11.0
5,37.98799991607666,learn,60000.0,Fri May 09 2025 14:15:28 GMT-0500 (Central Daylight Time),687393.2000000002,A,saltenter,I,enter,1571,2,3515.2000000001863,683878.0,8030,WL,A,11.0
5,43.170000076293945,learn,60000.0,Fri May 09 2025 14:15:28 GMT-0500 (Central Daylight Time),692575.2000000002,A,l,I,l,5164,2,5181.799999999814,687393.4000000004,8030,WL,A,12.0
5,43.40299987792969,learn,60000.0,Fri May 09 2025 14:15:28 GMT-0500 (Central Daylight Time),692808.2000000002,A,lo,I,o,222,2,5414.799999999814,687393.4000000004,8030,WL,A,12.0
5,43.80299997329712,learn,60000.0,Fri May 09 2025 14:15:28 GMT-0500 (Central Daylight Time),693208.2000000002,A,log,I,g,381,2,5814.799999999814,687393.4000000004,8030,WL,A,12.0
5,44.335999965667725,learn,60000.0,Fri May 09 2025 14:15:28 GMT-0500 (Central Daylight Time),693741.2999999998,A,logenter,I,enter,525,2,6347.899999999441,687393.4000000004,8030,WL,A,12.0
5,48.71799993515015,learn,60000.0,Fri May 09 2025 14:15:28 GMT-0500 (Central Daylight Time),698123.1000000006,A,a,I,a,4368,2,4381.5,693741.6000000006,8030,WL,A,13.0
5,49.068000078201294,learn,60000.0,Fri May 09 2025 14:15:28 GMT-0500 (Central Daylight Time),698473.2000000002,A,ap,I,p,330,2,4731.5999999996275,693741.6000000006,8030,WL,A,13.0
5,49.25099992752075,learn,60000.0,Fri May 09 2025 14:15:28 GMT-0500 (Central Daylight Time),698656.5,A,app,I,p,164,2,4914.899999999441,693741.6000000006,8030,WL,A,13.0
5,49.51799988746643,learn,60000.0,Fri May 09 2025 14:15:28 GMT-0500 (Central Daylight Time),698923.2000000002,A,appl,I,l,253,2,5181.5999999996275,693741.6000000006,8030,WL,A,13.0
5,49.818000078201294,learn,60000.0,Fri May 09 2025 14:15:28 GMT-0500 (Central Daylight Time),699223.0,A,apple,I,e,282,2,5481.399999999441,693741.6000000006,8030,WL,A,13.0
5,50.16799998283386,learn,60000.0,Fri May 09 2025 14:15:28 GMT-0500 (Central Daylight Time),699572.9000000004,A,appleenter,I,enter,335,2,5831.299999999814,693741.6000000006,8030,WL,A,13.0
5,62.77900004386902,learn,60000.0,Fri May 09 2025 14:15:28 GMT-0500 (Central Daylight Time),712185.5,A,h,I,h,12601,2,12612.299999999814,699573.2000000002,8030,WL,A,14.0
6,1.6670000553131104,distr,58332.99994468689,Fri May 09 2025 14:15:28 GMT-0500 (Central Daylight Time),783647.7999999998,B,s,I,s,1658,2,1667.2999999998137,781980.5,8030,WL,A,1.0
6,2.116000175476074,distr,57883.999824523926,Fri May 09 2025 14:15:28 GMT-0500 (Central Daylight Time),784096.2000000002,B,sh,I,h,437,2,2115.7000000001863,781980.5,8030,WL,A,1.0
6,2.499000072479248,distr,57500.99992752075,Fri May 09 2025 14:15:28 GMT-0500 (Central Daylight Time),784479.5,B,she,I,e,365,2,2499.0,781980.5,8030,WL,A,1.0
6,2.699000120162964,distr,57300.999879837036,Fri May 09 2025 14:15:28 GMT-0500 (Central Daylight Time),784679.4000000004,B,shee,I,e,182,2,2698.9000000003725,781980.5,8030,WL,A,1.0
6,3.0490000247955322,distr,56950.99997520447,Fri May 09 2025 14:15:28 GMT-0500 (Central Daylight Time),785029.2999999998,B,sheep,I,p,334,2,3048.7999999998137,781980.5,8030,WL,A,1.0
6,4.615000009536743,distr,55384.99999046326,Fri May 09 2025 14:15:28 GMT-0500 (Central Daylight Time),786595.2999999998,B,sheepenter,I,enter,1560,2,4614.799999999814,781980.5,8030,WL,A,1.0
6,6.481000185012817,distr,53518.99981498718,Fri May 09 2025 14:15:28 GMT-0500 (Central Daylight Time),788461.7000000002,B,b,I,b,1858,2,1866.0999999996275,786595.6000000006,8030,WL,A,2.0
6,6.9079999923706055,distr,53092.000007629395,Fri May 09 2025 14:15:28 GMT-0500 (Central Daylight Time),788888.7999999998,B,bo,I,o,423,2,2293.199999999255,786595.6000000006,8030,WL,A,2.0
6,7.281000137329102,distr,52718.9998626709,Fri May 09 2025 14:15:28 GMT-0500 (Central Daylight Time),789261.2000000002,B,bow,I,w,356,2,2665.5999999996275,786595.6000000006,8030,WL,A,2.0
6,7.647000074386597,distr,52352.9999256134,Fri May 09 2025 14:15:28 GMT-0500 (Central Daylight Time),789628.2999999998,B,bowl,I,l,352,2,3032.699999999255,786595.6000000006,8030,WL,A,2.0
6,8.797000169754028,distr,51202.99983024597,Fri May 09 2025 14:15:28 GMT-0500 (Central Daylight Time),790777.4000000004,B,bowlenter,I,enter,1129,2,4181.799999999814,786595.6000000006,8030,WL,A,2.0
6,10.496000051498413,distr,49503.99994850159,Fri May 09 2025 14:15:28 GMT-0500 (Central Daylight Time),792477.0,B,j,I,j,1684,2,1699.2999999998137,790777.7000000002,8030,WL,A,3.0
6,10.779000043869019,distr,49220.99995613098,Fri May 09 2025 14:15:28 GMT-0500 (Central Daylight Time),792760.2000000002,B,ju,I,u,264,2,1982.5,790777.7000000002,8030,WL,A,3.0
6,11.146000146865845,distr,48853.999853134155,Fri May 09 2025 14:15:28 GMT-0500 (Central Daylight Time),793126.7999999998,B,jud,I,d,349,2,2349.0999999996275,790777.7000000002,8030,WL,A,3.0
6,11.513000011444092,distr,48486.99998855591,Fri May 09 2025 14:15:28 GMT-0500 (Central Daylight Time),793493.6000000006,B,judg,I,g,359,2,2715.9000000003725,790777.7000000002,8030,WL,A,3.0
6,12.129000186920166,distr,47870.999813079834,Fri May 09 2025 14:15:28 GMT-0500 (Central Daylight Time),794110.1000000006,B,judge,I,e,608,2,3332.4000000003725,790777.7000000002,8030,WL,A,3.0
6,12.962000131607056,distr,47037.999868392944,Fri May 09 2025 14:15:28 GMT-0500 (Central Daylight Time),794943.0,B,judgeenter,I,enter,823,2,4165.299999999814,790777.7000000002,8030,WL,A,3.0
6,32.02300000190735,distr,27976.99999809265,Fri May 09 2025 14:15:28 GMT-0500 (Central Daylight Time),814003.7999999998,B,enter,I,enter,19047,2,19060.39999999944,794943.4000000004,8030,WL,A,4.0
6,32.35600018501282,distr,27643.999814987183,Fri May 09 2025 14:15:28 GMT-0500 (Central Daylight Time),814337.0,B,enter,I,enter,321,2,332.8999999994412,814004.1000000006,8030,WL,A,5.0
6,32.6560001373291,distr,27343.9998626709,Fri May 09 2025 14:15:28 GMT-0500 (Central Daylight Time),814636.7999999998,B,enter,I,enter,292,2,299.29999999981374,814337.5,8030,WL,A,6.0
6,32.973000049591064,distr,27026.999950408936,Fri May 09 2025 14:15:28 GMT-0500 (Central Daylight Time),814953.2999999998,B,enter,I,enter,305,2,316.09999999962747,814637.2000000002,8030,WL,A,7.0
6,33.289000034332275,distr,26710.999965667725,Fri May 09 2025 14:15:28 GMT-0500 (Central Daylight Time),815270.0,B,enter,I,enter,300,2,316.29999999981374,814953.7000000002,8030,WL,A,8.0
6,33.73900008201599,distr,26260.99991798401,Fri May 09 2025 14:15:28 GMT-0500 (Central Daylight Time),815719.9000000004,B,enter,I,enter,440,2,449.6000000005588,815270.2999999998,8030,WL,A,9.0
6,34.13900017738342,distr,25860.999822616577,Fri May 09 2025 14:15:28 GMT-0500 (Central Daylight Time),816119.6000000006,B,enter,I,enter,381,2,399.1000000005588,815720.5,8030,WL,A,10.0
6,34.507000207901,distr,25492.999792099,Fri May 09 2025 14:15:28 GMT-0500 (Central Daylight Time),816487.2999999998,B,enter,I,enter,350,2,367.29999999981374,816120.0,8030,WL,A,11.0
6,34.98900008201599,distr,25010.99991798401,Fri May 09 2025 14:15:28 GMT-0500 (Central Daylight Time),816969.4000000004,B,enter,I,enter,462,2,481.70000000018626,816487.7000000002,8030,WL,A,12.0
6,35.40500020980835,distr,24594.99979019165,Fri May 09 2025 14:15:28 GMT-0500 (Central Daylight Time),817385.9000000004,B,enter,I,enter,396,2,416.20000000018626,816969.7000000002,8030,WL,A,13.0
6,35.78800010681152,distr,24211.999893188477,Fri May 09 2025 14:15:28 GMT-0500 (Central Daylight Time),817769.1000000006,B,enter,I,enter,372,2,382.90000000037253,817386.2000000002,8030,WL,A,14.0
6,36.355000019073486,distr,23644.999980926514,Fri May 09 2025 14:15:28 GMT-0500 (Central Daylight Time),818335.6000000006,B,enter,I,enter,549,2,566.2000000001863,817769.4000000004,8030,WL,A,15.0
7,2.7829999923706055,immed,57217.000007629395,Fri May 09 2025 14:15:28 GMT-0500 (Central Daylight Time),833314.1000000006,A,b,I,b,2770,2,2782.2000000001863,830531.9000000004,8030,WL,A,1.0
7,3.182999849319458,immed,56817.00015068054,Fri May 09 2025 14:15:28 GMT-0500 (Central Daylight Time),833714.0,A,bo,I,o,395,2,3182.0999999996275,830531.9000000004,8030,WL,A,1.0
7,3.382999897003174,immed,56617.000102996826,Fri May 09 2025 14:15:28 GMT-0500 (Central Daylight Time),833914.1000000006,A,boo,I,o,195,2,3382.2000000001863,830531.9000000004,8030,WL,A,1.0
7,3.6489999294281006,immed,56351.0000705719,Fri May 09 2025 14:15:28 GMT-0500 (Central Daylight Time),834180.2999999998,A,book,I,k,259,2,3648.399999999441,830531.9000000004,8030,WL,A,1.0
7,5.549999952316284,immed,54450.000047683716,Fri May 09 2025 14:15:28 GMT-0500 (Central Daylight Time),836081.1000000006,A,bookenter,I,enter,1881,2,5549.200000000186,830531.9000000004,8030,WL,A,1.0
7,6.997999906539917,immed,53002.00009346008,Fri May 09 2025 14:15:28 GMT-0500 (Central Daylight Time),837529.6000000006,A,f,I,f,1436,2,1448.300000000745,836081.2999999998,8030,WL,A,2.0
7,7.230999946594238,immed,52769.00005340576,Fri May 09 2025 14:15:28 GMT-0500 (Central Daylight Time),837762.7000000002,A,fl,I,l,228,2,1681.4000000003725,836081.2999999998,8030,WL,A,2.0
7,7.848999977111816,immed,52151.00002288818,Fri May 09 2025 14:15:28 GMT-0500 (Central Daylight Time),838380.5,A,flo,I,o,603,2,2299.2000000001863,836081.2999999998,8030,WL,A,2.0
7,8.214999914169312,immed,51785.00008583069,Fri May 09 2025 14:15:28 GMT-0500 (Central Daylight Time),838745.7999999998,A,flow,I,w,353,2,2664.5,836081.2999999998,8030,WL,A,2.0
7,8.464999914169312,immed,51535.00008583069,Fri May 09 2025 14:15:28 GMT-0500 (Central Daylight Time),838995.7999999998,A,flowe,I,e,244,2,2914.5,836081.2999999998,8030,WL,A,2.0
7,8.764999866485596,immed,51235.000133514404,Fri May 09 2025 14:15:28 GMT-0500 (Central Daylight Time),839295.7999999998,A,flower,I,r,290,2,3214.5,836081.2999999998,8030,WL,A,2.0
7,9.88099980354309,immed,50119.00019645691,Fri May 09 2025 14:15:28 GMT-0500 (Central Daylight Time),840411.9000000004,A,flowerenter,I,enter,1109,2,4330.600000000559,836081.2999999998,8030,WL,A,2.0
7,13.245999813079834,immed,46754.000186920166,Fri May 09 2025 14:15:28 GMT-0500 (Central Daylight Time),843777.6000000006,A,r,I,r,3354,2,3365.4000000003725,840412.2000000002,8030,WL,A,3.0
7,13.678999900817871,immed,46321.00009918213,Fri May 09 2025 14:15:28 GMT-0500 (Central Daylight Time),844210.6000000006,A,ra,I,a,427,2,3798.4000000003725,840412.2000000002,8030,WL,A,3.0
7,14.062999963760376,immed,45937.000036239624,Fri May 09 2025 14:15:28 GMT-0500 (Central Daylight Time),844594.0,A,rat,I,t,363,2,4181.799999999814,840412.2000000002,8030,WL,A,3.0
7,14.245999813079834,immed,45754.000186920166,Fri May 09 2025 14:15:28 GMT-0500 (Central Daylight Time),844777.2999999998,A,ratt,I,t,162,2,4365.0999999996275,840412.2000000002,8030,WL,A,3.0
7,14.712999820709229,immed,45287.00017929077,Fri May 09 2025 14:15:28 GMT-0500 (Central Daylight Time),845244.0,A,rattl,I,l,460,2,4831.799999999814,840412.2000000002,8030,WL,A,3.0
7,15.095999956130981,immed,44904.00004386902,Fri May 09 2025 14:15:28 GMT-0500 (Central Daylight Time),845626.9000000004,A,rattle,I,e,377,2,5214.700000000186,840412.2000000002,8030,WL,A,3.0
7,15.428999900817871,immed,44571.00009918213,Fri May 09 2025 14:15:28 GMT-0500 (Central Daylight Time),845960.2000000002,A,rattleenter,I,enter,315,2,5548.0,840412.2000000002,8030,WL,A,3.0
7,16.046000003814697,immed,43953.9999961853,Fri May 09 2025 14:15:28 GMT-0500 (Central Daylight Time),846576.9000000004,A,h,I,h,597,2,616.4000000003725,845960.5,8030,WL,A,4.0
7,16.26199984550476,immed,43738.00015449524,Fri May 09 2025 14:15:28 GMT-0500 (Central Daylight Time),846793.4000000004,A,ha,I,a,204,2,832.9000000003725,845960.5,8030,WL,A,4.0
7,16.544999837875366,immed,43455.000162124634,Fri May 09 2025 14:15:28 GMT-0500 (Central Daylight Time),847076.2000000002,A,har,I,r,268,2,1115.7000000001863,845960.5,8030,WL,A,4.0
7,17.078999996185303,immed,42921.0000038147,Fri May 09 2025 14:15:28 GMT-0500 (Central Daylight Time),847609.7999999998,A,harp,I,p,521,2,1649.2999999998137,845960.5,8030,WL,A,4.0
7,18.560999870300293,immed,41439.00012969971,Fri May 09 2025 14:15:28 GMT-0500 (Central Daylight Time),849092.6000000006,A,harpenter,I,enter,1476,2,3132.100000000559,845960.5,8030,WL,A,4.0
7,19.67799997329712,immed,40322.00002670288,Fri May 09 2025 14:15:28 GMT-0500 (Central Daylight Time),850208.9000000004,A,f,I,f,1105,2,1116.0,849092.9000000004,8030,WL,A,5.0
7,19.961999893188477,immed,40038.00010681152,Fri May 09 2025 14:15:28 GMT-0500 (Central Daylight Time),850493.2999999998,A,fi,I,i,268,2,1400.3999999994412,849092.9000000004,8030,WL,A,5.0
7,20.41100001335144,immed,39588.99998664856,Fri May 09 2025 14:15:28 GMT-0500 (Central Daylight Time),850942.2000000002,A,fin,I,n,440,2,1849.2999999998137,849092.9000000004,8030,WL,A,5.0
7,20.72699999809265,immed,39273.00000190735,Fri May 09 2025 14:15:28 GMT-0500 (Central Daylight Time),851258.5,A,fing,I,g,311,2,2165.5999999996275,849092.9000000004,8030,WL,A,5.0
7,20.944000005722046,immed,39055.999994277954,Fri May 09 2025 14:15:28 GMT-0500 (Central Daylight Time),851475.0,A,finge,I,e,203,2,2382.0999999996275,849092.9000000004,8030,WL,A,5.0
7,21.24399995803833,immed,38756.00004196167,Fri May 09 2025 14:15:28 GMT-0500 (Central Daylight Time),851775.1000000006,A,finger,I,r,283,2,2682.2000000001863,849092.9000000004,8030,WL,A,5.0
7,22.176999807357788,immed,37823.00019264221,Fri May 09 2025 14:15:28 GMT-0500 (Central Daylight Time),852708.2999999998,A,fingerenter,I,enter,926,2,3615.399999999441,849092.9000000004,8030,WL,A,5.0
7,26.875999927520752,immed,33124.00007247925,Fri May 09 2025 14:15:28 GMT-0500 (Central Daylight Time),857407.0,A,a,I,a,4681,2,4698.399999999441,852708.6000000006,8030,WL,A,6.0
7,27.22499990463257,immed,32775.00009536743,Fri May 09 2025 14:15:28 GMT-0500 (Central Daylight Time),857756.6000000006,A,ap,I,p,342,2,5048.0,852708.6000000006,8030,WL,A,6.0
7,27.424999952316284,immed,32575.000047683716,Fri May 09 2025 14:15:28 GMT-0500 (Central Daylight Time),857956.6000000006,A,app,I,p,193,2,5248.0,852708.6000000006,8030,WL,A,6.0
7,27.758999824523926,immed,32241.000175476074,Fri May 09 2025 14:15:28 GMT-0500 (Central Daylight Time),858289.7999999998,A,appl,I,l,313,2,5581.199999999255,852708.6000000006,8030,WL,A,6.0
7,28.008999824523926,immed,31991.000175476074,Fri May 09 2025 14:15:28 GMT-0500 (Central Daylight Time),858539.7000000002,A,apple,I,e,244,2,5831.0999999996275,852708.6000000006,8030,WL,A,6.0
7,28.557999849319458,immed,31442.000150680542,Fri May 09 2025 14:15:28 GMT-0500 (Central Daylight Time),859089.5,A,appleenter,I,enter,538,2,6380.899999999441,852708.6000000006,8030,WL,A,6.0
7,29.524999856948853,immed,30475.000143051147,Fri May 09 2025 14:15:28 GMT-0500 (Central Daylight Time),860055.9000000004,A,s,I,s,948,2,966.1000000005588,859089.7999999998,8030,WL,A,7.0
7,29.70799994468689,immed,30292.00005531311,Fri May 09 2025 14:15:28 GMT-0500 (Central Daylight Time),860239.0,A,sa,I,a,165,2,1149.2000000001863,859089.7999999998,8030,WL,A,7.0
7,29.990999937057495,immed,30009.000062942505,Fri May 09 2025 14:15:28 GMT-0500 (Central Daylight Time),860522.2000000002,A,sal,I,l,279,2,1432.4000000003725,859089.7999999998,8030,WL,A,7.0
7,30.473999977111816,immed,29526.000022888184,Fri May 09 2025 14:15:28 GMT-0500 (Central Daylight Time),861005.6000000006,A,salt,I,t,476,2,1915.800000000745,859089.7999999998,8030,WL,A,7.0
7,31.656999826431274,immed,28343.000173568726,Fri May 09 2025 14:15:28 GMT-0500 (Central Daylight Time),862188.5,A,saltenter,I,enter,1168,2,3098.7000000001863,859089.7999999998,8030,WL,A,7.0
7,36.48899984359741,immed,23511.000156402588,Fri May 09 2025 14:15:28 GMT-0500 (Central Daylight Time),867020.4000000004,A,l,I,l,4817,2,4831.600000000559,862188.7999999998,8030,WL,A,8.0
7,36.70599985122681,immed,23294.000148773193,Fri May 09 2025 14:15:28 GMT-0500 (Central Daylight Time),867237.1000000006,A,lo,I,o,201,2,5048.300000000745,862188.7999999998,8030,WL,A,8.0
7,37.05499982833862,immed,22945.000171661377,Fri May 09 2025 14:15:28 GMT-0500 (Central Daylight Time),867586.6000000006,A,log,I,g,345,2,5397.800000000745,862188.7999999998,8030,WL,A,8.0
7,37.75499987602234,immed,22245.00012397766,Fri May 09 2025 14:15:28 GMT-0500 (Central Daylight Time),868286.6000000006,A,logenter,I,enter,683,2,6097.800000000745,862188.7999999998,8030,WL,A,8.0
7,46.61899995803833,immed,13381.00004196167,Fri May 09 2025 14:15:28 GMT-0500 (Central Daylight Time),877150.5,A,b,I,b,8847,2,8863.599999999627,868286.9000000004,8030,WL,A,9.0
7,47.38599991798401,immed,12614.000082015991,Fri May 09 2025 14:15:28 GMT-0500 (Central Daylight Time),877916.9000000004,A,bo,I,o,759,2,9630.0,868286.9000000004,8030,WL,A,9.0
7,47.68599987030029,immed,12314.000129699707,Fri May 09 2025 14:15:28 GMT-0500 (Central Daylight Time),878216.9000000004,A,boo,I,o,280,2,9930.0,868286.9000000004,8030,WL,A,9.0
7,47.984999895095825,immed,12015.000104904175,Fri May 09 2025 14:15:28 GMT-0500 (Central Daylight Time),878516.7000000002,A,book,I,k,293,2,10229.799999999814,868286.9000000004,8030,WL,A,9.0
7,48.819000005722046,immed,11180.999994277954,Fri May 09 2025 14:15:28 GMT-0500 (Central Daylight Time),879349.9000000004,A,bookenter,I,enter,825,2,11063.0,868286.9000000004,8030,WL,A,9.0
7,56.79899978637695,immed,3201.000213623047,Fri May 09 2025 14:15:28 GMT-0500 (Central Daylight Time),887330.5,A,c,I,c,7976,2,7980.299999999814,879350.2000000002,8030,WL,A,10.0
7,57.16599988937378,immed,2834.0001106262207,Fri May 09 2025 14:15:28 GMT-0500 (Central Daylight Time),887697.2000000002,A,ch,I,h,346,2,8347.0,879350.2000000002,8030,WL,A,10.0
7,57.56499981880188,immed,2435.00018119812,Fri May 09 2025 14:15:28 GMT-0500 (Central Daylight Time),888097.2000000002,A,chi,I,i,380,2,8747.0,879350.2000000002,8030,WL,A,10.0
7,58.23199987411499,immed,1768.0001258850098,Fri May 09 2025 14:15:28 GMT-0500 (Central Daylight Time),888763.5,A,chim,I,m,660,2,9413.299999999814,879350.2000000002,8030,WL,A,10.0
7,58.514999866485596,immed,1485.0001335144043,Fri May 09 2025 14:15:28 GMT-0500 (Central Daylight Time),889046.7000000002,A,chimn,I,n,274,2,9696.5,879350.2000000002,8030,WL,A,10.0
7,58.83200001716614,immed,1167.9999828338623,Fri May 09 2025 14:15:28 GMT-0500 (Central Daylight Time),889363.4000000004,A,chimne,I,e,303,2,10013.200000000186,879350.2000000002,8030,WL,A,10.0
7,59.16499996185303,immed,835.0000381469727,Fri May 09 2025 14:15:28 GMT-0500 (Central Daylight Time),889696.5,A,chimney,I,y,322,2,10346.299999999814,879350.2000000002,8030,WL,A,10.0
7,60.01599979400635,immed,-15.999794006347656,Fri May 09 2025 14:15:28 GMT-0500 (Central Daylight Time),890547.6000000006,A,chimneyNone,I,None,846,2,11197.400000000373,879350.2000000002,8030,WL,A,10.0
