acc_sum,block,block_c,change,condition,correct,correct_response,datetime,endtime,face,project,response,response_time,row_sel,session_number,start_end,starttime,subject_id,task,task_vers,trial
0,prac,1,,1-Back,,,Thu Apr 09 2026 14:30:54 GMT-0500 (Central Daylight Time),,050_m_f_n_a.png,O,space,3216,1,1,,,7785,NNB,A,0
0,prac,1,0.0,1-Back,0.0,m,Thu Apr 09 2026 14:30:54 GMT-0500 (Central Daylight Time),214833.5,063_y_f_n_a.png,O,None,2016,2,1,2826.0,212007.5,7785,NNB,A,1
0,prac,1,1.0,1-Back,0.0,z,Thu Apr 09 2026 14:30:54 GMT-0500 (Central Daylight Time),216249.0,063_y_f_n_a.png,O,m,637,3,1,1405.3000000715256,214843.69999992847,7785,NNB,A,2
0,prac,1,0.0,1-Back,0.0,m,Thu Apr 09 2026 14:30:54 GMT-0500 (Central Daylight Time),219047.59999990463,053_o_m_n_a.png,O,None,2005,4,1,2789.899999976158,216257.69999992847,7785,NNB,A,3
1,prac,1,0.0,1-Back,1.0,m,Thu Apr 09 2026 14:30:54 GMT-0500 (Central Daylight Time),220913.29999995232,058_m_m_n_a.png,O,m,1065,5,1,1858.2000000476837,219055.09999990463,7785,NNB,A,4
2,prac,1,1.0,1-Back,1.0,z,Thu Apr 09 2026 14:30:54 GMT-0500 (Central Daylight Time),222629.0,058_m_m_n_a.png,O,z,930,6,1,1711.1000000238419,220917.89999997616,7785,NNB,A,5
3,prac,1,0.0,1-Back,1.0,m,Thu Apr 09 2026 14:30:54 GMT-0500 (Central Daylight Time),224313.5,047_o_f_n_a.png,O,m,850,7,1,1674.5,222639.0,7785,NNB,A,6
3,prac,1,0.0,1-Back,0.0,m,Thu Apr 09 2026 14:30:54 GMT-0500 (Central Daylight Time),226328.89999997616,045_m_m_n_a.png,O,z,1210,8,1,2008.3999999761581,224320.5,7785,NNB,A,7
4,prac,1,0.0,1-Back,1.0,m,Thu Apr 09 2026 14:30:54 GMT-0500 (Central Daylight Time),228879.19999992847,050_m_f_n_a.png,O,m,1772,9,1,2539.899999976158,226339.29999995232,7785,NNB,A,8
4,prac,1,1.0,1-Back,0.0,z,Thu Apr 09 2026 14:30:54 GMT-0500 (Central Daylight Time),230661.19999992847,050_m_f_n_a.png,O,m,1008,10,1,1773.6999999284744,228887.5,7785,NNB,A,9
5,prac,1,0.0,1-Back,1.0,m,Thu Apr 09 2026 14:30:54 GMT-0500 (Central Daylight Time),232393.79999995232,053_o_m_n_a.png,O,m,963,11,1,1724.7999999523163,230669.0,7785,NNB,A,10
5,prac,1,0.0,1-Back,0.0,m,Thu Apr 09 2026 14:30:54 GMT-0500 (Central Daylight Time),234191.89999997616,010_y_f_n_a.png,O,z,965,12,1,1788.6000000238419,232403.29999995232,7785,NNB,A,11
0,prac,2,0.0,1-Back,,,Thu Apr 09 2026 14:30:54 GMT-0500 (Central Daylight Time),234191.89999997616,050_m_f_n_a.png,O,a,5637,1,1,1788.6000000238419,232403.29999995232,7785,NNB,A,0
1,prac,2,0.0,1-Back,1.0,m,Thu Apr 09 2026 14:30:54 GMT-0500 (Central Daylight Time),244989.69999992847,063_y_f_n_a.png,O,m,1333,2,1,2105.6999999284744,242884.0,7785,NNB,A,1
2,prac,2,1.0,1-Back,1.0,z,Thu Apr 09 2026 14:30:54 GMT-0500 (Central Daylight Time),246739.09999990463,063_y_f_n_a.png,O,z,960,3,1,1738.5999999046326,245000.5,7785,NNB,A,2
3,prac,2,0.0,1-Back,1.0,m,Thu Apr 09 2026 14:30:54 GMT-0500 (Central Daylight Time),248237.89999997616,053_o_m_n_a.png,O,m,706,4,1,1487.7000000476837,246750.19999992847,7785,NNB,A,3
4,prac,2,0.0,1-Back,1.0,m,Thu Apr 09 2026 14:30:54 GMT-0500 (Central Daylight Time),249771.09999990463,058_m_m_n_a.png,O,m,755,5,1,1524.0,248247.09999990463,7785,NNB,A,4
5,prac,2,1.0,1-Back,1.0,z,Thu Apr 09 2026 14:30:54 GMT-0500 (Central Daylight Time),251303.29999995232,058_m_m_n_a.png,O,z,759,6,1,1524.6000000238419,249778.69999992847,7785,NNB,A,5
6,prac,2,0.0,1-Back,1.0,m,Thu Apr 09 2026 14:30:54 GMT-0500 (Central Daylight Time),252721.09999990463,047_o_f_n_a.png,O,m,635,7,1,1412.1999999284744,251308.89999997616,7785,NNB,A,6
7,prac,2,0.0,1-Back,1.0,m,Thu Apr 09 2026 14:30:54 GMT-0500 (Central Daylight Time),254789.89999997616,045_m_m_n_a.png,O,m,1285,8,1,2059.899999976158,252730.0,7785,NNB,A,7
7,prac,2,0.0,1-Back,0.0,m,Thu Apr 09 2026 14:30:54 GMT-0500 (Central Daylight Time),256919.69999992847,050_m_f_n_a.png,O,z,1341,9,1,2123.899999976158,254795.79999995232,7785,NNB,A,8
8,prac,2,1.0,1-Back,1.0,z,Thu Apr 09 2026 14:30:54 GMT-0500 (Central Daylight Time),258501.89999997616,050_m_f_n_a.png,O,z,791,10,1,1573.3999999761581,256928.5,7785,NNB,A,9
9,prac,2,0.0,1-Back,1.0,m,Thu Apr 09 2026 14:30:54 GMT-0500 (Central Daylight Time),259868.39999997616,053_o_m_n_a.png,O,m,585,11,1,1359.1000000238419,258509.29999995232,7785,NNB,A,10
10,prac,2,0.0,1-Back,1.0,m,Thu Apr 09 2026 14:30:54 GMT-0500 (Central Daylight Time),261384.59999990463,010_y_f_n_a.png,O,m,741,12,1,1508.0,259876.59999990463,7785,NNB,A,11
0,test,1,0.0,1-Back,,,Thu Apr 09 2026 14:30:54 GMT-0500 (Central Daylight Time),261384.59999990463,063_y_f_n_a.png,O,space,3725,1,1,1508.0,259876.59999990463,7785,NNB,A,0
0,test,1,0.0,1-Back,0.0,m,Thu Apr 09 2026 14:30:54 GMT-0500 (Central Daylight Time),283777.1999999285,043_m_f_n_a.png,O,z,648,2,1,1674.1000000238419,282103.09999990463,7785,NNB,A,1
0,test,1,0.0,1-Back,0.0,m,Thu Apr 09 2026 14:30:54 GMT-0500 (Central Daylight Time),286809.5,010_y_f_n_a.png,O,None,2014,3,1,3026.2000000476837,283783.2999999523,7785,NNB,A,2
1,test,1,1.0,1-Back,1.0,z,Thu Apr 09 2026 14:30:54 GMT-0500 (Central Daylight Time),288709.39999997616,010_y_f_n_a.png,O,z,871,4,1,1893.1000000238419,286816.2999999523,7785,NNB,A,3
2,test,1,0.0,1-Back,1.0,m,Thu Apr 09 2026 14:30:54 GMT-0500 (Central Daylight Time),290274.89999997616,043_m_f_n_a.png,O,m,538,5,1,1557.6000000238419,288717.2999999523,7785,NNB,A,4
3,test,1,0.0,1-Back,1.0,m,Thu Apr 09 2026 14:30:54 GMT-0500 (Central Daylight Time),291957.1999999285,053_o_m_n_a.png,O,m,660,6,1,1674.3999999761581,290282.7999999523,7785,NNB,A,5
4,test,1,1.0,1-Back,1.0,z,Thu Apr 09 2026 14:30:54 GMT-0500 (Central Daylight Time),293690.2999999523,053_o_m_n_a.png,O,z,714,7,1,1726.5,291963.7999999523,7785,NNB,A,6
5,test,1,0.0,1-Back,1.0,m,Thu Apr 09 2026 14:30:54 GMT-0500 (Central Daylight Time),295373.39999997616,058_m_m_n_a.png,O,m,655,8,1,1675.2000000476837,293698.1999999285,7785,NNB,A,7
6,test,1,0.0,1-Back,1.0,m,Thu Apr 09 2026 14:30:54 GMT-0500 (Central Daylight Time),297422.6999999285,047_o_f_n_a.png,O,m,1025,9,1,2041.7999999523163,295380.89999997616,7785,NNB,A,8
7,test,1,0.0,1-Back,1.0,m,Thu Apr 09 2026 14:30:54 GMT-0500 (Central Daylight Time),299188.39999997616,058_m_m_n_a.png,O,m,744,10,1,1760.5,297427.89999997616,7785,NNB,A,9
8,test,1,0.0,1-Back,1.0,m,Thu Apr 09 2026 14:30:54 GMT-0500 (Central Daylight Time),300839.89999997616,041_y_m_n_a.png,O,m,619,11,1,1644.8999999761581,299195.0,7785,NNB,A,10
9,test,1,1.0,1-Back,1.0,z,Thu Apr 09 2026 14:30:54 GMT-0500 (Central Daylight Time),302404.7999999523,041_y_m_n_a.png,O,z,546,12,1,1558.0,300846.7999999523,7785,NNB,A,11
10,test,1,0.0,1-Back,1.0,m,Thu Apr 09 2026 14:30:54 GMT-0500 (Central Daylight Time),304003.7999999523,044_o_f_n_a.png,O,m,578,13,1,1591.7000000476837,302412.09999990463,7785,NNB,A,12
11,test,1,1.0,1-Back,1.0,z,Thu Apr 09 2026 14:30:54 GMT-0500 (Central Daylight Time),305753.39999997616,044_o_f_n_a.png,O,z,724,14,1,1742.6000000238419,304010.7999999523,7785,NNB,A,13
12,test,1,0.0,1-Back,1.0,m,Thu Apr 09 2026 14:30:54 GMT-0500 (Central Daylight Time),307253.09999990463,008_y_m_n_a.png,O,m,478,15,1,1491.2999999523163,305761.7999999523,7785,NNB,A,14
13,test,1,0.0,1-Back,1.0,m,Thu Apr 09 2026 14:30:54 GMT-0500 (Central Daylight Time),308805.1999999285,050_m_f_n_a.png,O,m,535,16,1,1544.6000000238419,307260.59999990463,7785,NNB,A,15
14,test,1,0.0,1-Back,1.0,m,Thu Apr 09 2026 14:30:54 GMT-0500 (Central Daylight Time),310435.2999999523,046_o_m_n_a.png,O,m,601,17,1,1622.0,308813.2999999523,7785,NNB,A,16
15,test,1,0.0,1-Back,1.0,m,Thu Apr 09 2026 14:30:54 GMT-0500 (Central Daylight Time),312188.0,050_m_f_n_a.png,O,m,736,18,1,1744.6000000238419,310443.39999997616,7785,NNB,A,17
0,test,2,0.0,1-Back,,,Thu Apr 09 2026 14:30:54 GMT-0500 (Central Daylight Time),312188.0,058_m_m_n_a.png,O,space,3330,1,1,1744.6000000238419,310443.39999997616,7785,NNB,A,0
0,test,2,0.0,1-Back,0.0,m,Thu Apr 09 2026 14:30:54 GMT-0500 (Central Daylight Time),319232.7999999523,043_m_f_n_a.png,O,z,658,2,1,1677.2999999523163,317555.5,7785,NNB,A,1
1,test,2,1.0,1-Back,1.0,z,Thu Apr 09 2026 14:30:54 GMT-0500 (Central Daylight Time),321115.7999999523,043_m_f_n_a.png,O,z,855,3,1,1875.5,319240.2999999523,7785,NNB,A,2
2,test,2,0.0,1-Back,1.0,m,Thu Apr 09 2026 14:30:54 GMT-0500 (Central Daylight Time),322998.2999999523,058_m_m_n_a.png,O,m,852,4,1,1873.0,321125.2999999523,7785,NNB,A,3
3,test,2,0.0,1-Back,1.0,m,Thu Apr 09 2026 14:30:54 GMT-0500 (Central Daylight Time),324747.59999990463,041_y_m_n_a.png,O,m,722,5,1,1741.1999999284744,323006.39999997616,7785,NNB,A,4
4,test,2,0.0,1-Back,1.0,m,Thu Apr 09 2026 14:30:54 GMT-0500 (Central Daylight Time),326330.39999997616,063_y_f_n_a.png,O,m,556,6,1,1576.8000000715256,324753.59999990463,7785,NNB,A,5
4,test,2,1.0,1-Back,0.0,z,Thu Apr 09 2026 14:30:54 GMT-0500 (Central Daylight Time),328045.59999990463,063_y_f_n_a.png,O,m,683,7,1,1708.0,326337.59999990463,7785,NNB,A,6
5,test,2,0.0,1-Back,1.0,m,Thu Apr 09 2026 14:30:54 GMT-0500 (Central Daylight Time),329627.5,041_y_m_n_a.png,O,m,561,8,1,1573.1000000238419,328054.39999997616,7785,NNB,A,7
6,test,2,0.0,1-Back,1.0,m,Thu Apr 09 2026 14:30:54 GMT-0500 (Central Daylight Time),331244.39999997616,044_o_f_n_a.png,O,m,586,9,1,1614.1000000238419,329630.2999999523,7785,NNB,A,8
7,test,2,0.0,1-Back,1.0,m,Thu Apr 09 2026 14:30:54 GMT-0500 (Central Daylight Time),332995.59999990463,045_m_m_n_a.png,O,m,723,10,1,1742.8999999761581,331252.6999999285,7785,NNB,A,9
8,test,2,1.0,1-Back,1.0,z,Thu Apr 09 2026 14:30:54 GMT-0500 (Central Daylight Time),334610.7999999523,045_m_m_n_a.png,O,z,589,11,1,1607.7000000476837,333003.09999990463,7785,NNB,A,10
9,test,2,0.0,1-Back,1.0,m,Thu Apr 09 2026 14:30:54 GMT-0500 (Central Daylight Time),336177.39999997616,044_o_f_n_a.png,O,m,540,12,1,1559.7000000476837,334617.6999999285,7785,NNB,A,11
10,test,2,0.0,1-Back,1.0,m,Thu Apr 09 2026 14:30:54 GMT-0500 (Central Daylight Time),337710.5,047_o_f_n_a.png,O,m,510,13,1,1525.6000000238419,336184.89999997616,7785,NNB,A,12
11,test,2,0.0,1-Back,1.0,m,Thu Apr 09 2026 14:30:54 GMT-0500 (Central Daylight Time),339476.5,053_o_m_n_a.png,O,m,732,14,1,1760.1000000238419,337716.39999997616,7785,NNB,A,13
12,test,2,0.0,1-Back,1.0,m,Thu Apr 09 2026 14:30:54 GMT-0500 (Central Daylight Time),341192.89999997616,046_o_m_n_a.png,O,m,692,15,1,1709.7000000476837,339483.1999999285,7785,NNB,A,14
13,test,2,1.0,1-Back,1.0,z,Thu Apr 09 2026 14:30:54 GMT-0500 (Central Daylight Time),342742.6999999285,046_o_m_n_a.png,O,z,519,16,1,1541.8999999761581,341200.7999999523,7785,NNB,A,15
14,test,2,0.0,1-Back,1.0,m,Thu Apr 09 2026 14:30:54 GMT-0500 (Central Daylight Time),344256.7999999523,008_y_m_n_a.png,O,m,498,17,1,1507.6000000238419,342749.1999999285,7785,NNB,A,16
15,test,2,1.0,1-Back,1.0,z,Thu Apr 09 2026 14:30:54 GMT-0500 (Central Daylight Time),345825.5,008_y_m_n_a.png,O,z,551,18,1,1564.5,344261.0,7785,NNB,A,17
0,test,3,1.0,1-Back,,,Thu Apr 09 2026 14:30:54 GMT-0500 (Central Daylight Time),345825.5,010_y_f_n_a.png,O,space,2086,1,1,1564.5,344261.0,7785,NNB,A,0
1,test,3,0.0,1-Back,1.0,m,Thu Apr 09 2026 14:30:54 GMT-0500 (Central Daylight Time),352024.09999990463,046_o_m_n_a.png,O,m,1002,2,1,2026.5999999046326,349997.5,7785,NNB,A,1
2,test,3,1.0,1-Back,1.0,z,Thu Apr 09 2026 14:30:54 GMT-0500 (Central Daylight Time),353590.1999999285,046_o_m_n_a.png,O,z,537,3,1,1559.3999999761581,352030.7999999523,7785,NNB,A,2
3,test,3,0.0,1-Back,1.0,m,Thu Apr 09 2026 14:30:54 GMT-0500 (Central Daylight Time),355237.89999997616,050_m_f_n_a.png,O,m,627,4,1,1641.1000000238419,353596.7999999523,7785,NNB,A,3
4,test,3,1.0,1-Back,1.0,z,Thu Apr 09 2026 14:30:54 GMT-0500 (Central Daylight Time),356804.2999999523,050_m_f_n_a.png,O,z,550,5,1,1559.2999999523163,355245.0,7785,NNB,A,4
5,test,3,0.0,1-Back,1.0,m,Thu Apr 09 2026 14:30:54 GMT-0500 (Central Daylight Time),358402.89999997616,044_o_f_n_a.png,O,m,580,6,1,1591.8999999761581,356811.0,7785,NNB,A,5
6,test,3,0.0,1-Back,1.0,m,Thu Apr 09 2026 14:30:54 GMT-0500 (Central Daylight Time),360069.6999999285,041_y_m_n_a.png,O,m,644,7,1,1661.3999999761581,358408.2999999523,7785,NNB,A,6
7,test,3,0.0,1-Back,1.0,m,Thu Apr 09 2026 14:30:54 GMT-0500 (Central Daylight Time),361701.1999999285,044_o_f_n_a.png,O,m,609,8,1,1625.3999999761581,360075.7999999523,7785,NNB,A,7
8,test,3,0.0,1-Back,1.0,m,Thu Apr 09 2026 14:30:54 GMT-0500 (Central Daylight Time),363303.89999997616,008_y_m_n_a.png,O,m,579,9,1,1596.1000000238419,361707.7999999523,7785,NNB,A,8
9,test,3,1.0,1-Back,1.0,z,Thu Apr 09 2026 14:30:54 GMT-0500 (Central Daylight Time),364802.39999997616,008_y_m_n_a.png,O,z,474,10,1,1490.6000000238419,363311.7999999523,7785,NNB,A,9
10,test,3,0.0,1-Back,1.0,m,Thu Apr 09 2026 14:30:54 GMT-0500 (Central Daylight Time),366317.5,043_m_f_n_a.png,O,m,495,11,1,1507.7000000476837,364809.7999999523,7785,NNB,A,10
11,test,3,0.0,1-Back,1.0,m,Thu Apr 09 2026 14:30:54 GMT-0500 (Central Daylight Time),367850.5,063_y_f_n_a.png,O,m,515,12,1,1528.0,366322.5,7785,NNB,A,11
12,test,3,1.0,1-Back,1.0,z,Thu Apr 09 2026 14:30:54 GMT-0500 (Central Daylight Time),369500.2999999523,063_y_f_n_a.png,O,z,629,13,1,1643.2000000476837,367857.09999990463,7785,NNB,A,12
13,test,3,0.0,1-Back,1.0,m,Thu Apr 09 2026 14:30:54 GMT-0500 (Central Daylight Time),371000.39999997616,043_m_f_n_a.png,O,m,476,14,1,1496.2000000476837,369504.1999999285,7785,NNB,A,13
14,test,3,0.0,1-Back,1.0,m,Thu Apr 09 2026 14:30:54 GMT-0500 (Central Daylight Time),372531.1999999285,058_m_m_n_a.png,O,m,506,15,1,1527.7999999523163,371003.39999997616,7785,NNB,A,14
15,test,3,1.0,1-Back,1.0,z,Thu Apr 09 2026 14:30:54 GMT-0500 (Central Daylight Time),373998.0,058_m_m_n_a.png,O,z,444,16,1,1460.8000000715256,372537.1999999285,7785,NNB,A,15
16,test,3,0.0,1-Back,1.0,m,Thu Apr 09 2026 14:30:54 GMT-0500 (Central Daylight Time),375530.0,047_o_f_n_a.png,O,m,503,17,1,1525.8000000715256,374004.1999999285,7785,NNB,A,16
17,test,3,1.0,1-Back,1.0,z,Thu Apr 09 2026 14:30:54 GMT-0500 (Central Daylight Time),377019.39999997616,047_o_f_n_a.png,O,z,467,18,1,1486.8999999761581,375532.5,7785,NNB,A,17
0,test,4,1.0,1-Back,,,Thu Apr 09 2026 14:30:54 GMT-0500 (Central Daylight Time),377019.39999997616,050_m_f_n_a.png,O,space,1557,1,1,1486.8999999761581,375532.5,7785,NNB,A,0
1,test,4,0.0,1-Back,1.0,m,Thu Apr 09 2026 14:30:54 GMT-0500 (Central Daylight Time),382212.59999990463,046_o_m_n_a.png,O,m,595,2,1,1609.5,380603.09999990463,7785,NNB,A,1
2,test,4,0.0,1-Back,1.0,m,Thu Apr 09 2026 14:30:54 GMT-0500 (Central Daylight Time),383795.6999999285,050_m_f_n_a.png,O,m,564,3,1,1576.6999999284744,382219.0,7785,NNB,A,2
3,test,4,0.0,1-Back,1.0,m,Thu Apr 09 2026 14:30:54 GMT-0500 (Central Daylight Time),385378.5,044_o_f_n_a.png,O,m,551,4,1,1577.0,383801.5,7785,NNB,A,3
4,test,4,1.0,1-Back,1.0,z,Thu Apr 09 2026 14:30:54 GMT-0500 (Central Daylight Time),386992.7999999523,044_o_f_n_a.png,O,z,589,5,1,1609.2999999523163,385383.5,7785,NNB,A,4
5,test,4,0.0,1-Back,1.0,m,Thu Apr 09 2026 14:30:54 GMT-0500 (Central Daylight Time),388576.7999999523,063_y_f_n_a.png,O,m,565,6,1,1579.8999999761581,386996.89999997616,7785,NNB,A,5
6,test,4,0.0,1-Back,1.0,m,Thu Apr 09 2026 14:30:54 GMT-0500 (Central Daylight Time),390110.09999990463,041_y_m_n_a.png,O,m,502,7,1,1529.5999999046326,388580.5,7785,NNB,A,6
7,test,4,1.0,1-Back,1.0,z,Thu Apr 09 2026 14:30:54 GMT-0500 (Central Daylight Time),391778.1999999285,041_y_m_n_a.png,O,z,651,8,1,1663.8999999761581,390114.2999999523,7785,NNB,A,7
8,test,4,0.0,1-Back,1.0,m,Thu Apr 09 2026 14:30:54 GMT-0500 (Central Daylight Time),393341.7999999523,063_y_f_n_a.png,O,m,535,9,1,1558.7999999523163,391783.0,7785,NNB,A,8
9,test,4,0.0,1-Back,1.0,m,Thu Apr 09 2026 14:30:54 GMT-0500 (Central Daylight Time),394958.89999997616,045_m_m_n_a.png,O,m,593,10,1,1610.2000000476837,393348.6999999285,7785,NNB,A,9
10,test,4,1.0,1-Back,1.0,z,Thu Apr 09 2026 14:30:54 GMT-0500 (Central Daylight Time),396790.89999997616,045_m_m_n_a.png,O,z,809,11,1,1827.5,394963.39999997616,7785,NNB,A,10
11,test,4,0.0,1-Back,1.0,m,Thu Apr 09 2026 14:30:54 GMT-0500 (Central Daylight Time),398275.09999990463,047_o_f_n_a.png,O,m,467,12,1,1477.5999999046326,396797.5,7785,NNB,A,11
12,test,4,0.0,1-Back,1.0,m,Thu Apr 09 2026 14:30:54 GMT-0500 (Central Daylight Time),399823.1999999285,053_o_m_n_a.png,O,m,525,13,1,1540.5,398282.6999999285,7785,NNB,A,12
13,test,4,0.0,1-Back,1.0,m,Thu Apr 09 2026 14:30:54 GMT-0500 (Central Daylight Time),401356.1999999285,047_o_f_n_a.png,O,m,504,14,1,1525.7999999523163,399830.39999997616,7785,NNB,A,13
14,test,4,0.0,1-Back,1.0,m,Thu Apr 09 2026 14:30:54 GMT-0500 (Central Daylight Time),402955.59999990463,010_y_f_n_a.png,O,m,580,15,1,1592.7999999523163,401362.7999999523,7785,NNB,A,14
15,test,4,1.0,1-Back,1.0,z,Thu Apr 09 2026 14:30:54 GMT-0500 (Central Daylight Time),404472.39999997616,010_y_f_n_a.png,O,z,494,16,1,1509.3000000715256,402963.09999990463,7785,NNB,A,15
16,test,4,0.0,1-Back,1.0,m,Thu Apr 09 2026 14:30:54 GMT-0500 (Central Daylight Time),405954.7999999523,043_m_f_n_a.png,O,m,455,17,1,1475.8999999761581,404478.89999997616,7785,NNB,A,16
17,test,4,1.0,1-Back,1.0,z,Thu Apr 09 2026 14:30:54 GMT-0500 (Central Daylight Time),407587.2999999523,043_m_f_n_a.png,O,z,613,18,1,1625.5,405961.7999999523,7785,NNB,A,17
0,test,5,1.0,1-Back,,,Thu Apr 09 2026 14:30:54 GMT-0500 (Central Daylight Time),407587.2999999523,053_o_m_n_a.png,O,space,1501,1,1,1625.5,405961.7999999523,7785,NNB,A,0
1,test,5,1.0,1-Back,1.0,z,Thu Apr 09 2026 14:30:54 GMT-0500 (Central Daylight Time),412918.89999997616,053_o_m_n_a.png,O,z,777,2,1,1790.2000000476837,411128.6999999285,7785,NNB,A,1
2,test,5,0.0,1-Back,1.0,m,Thu Apr 09 2026 14:30:54 GMT-0500 (Central Daylight Time),414734.39999997616,063_y_f_n_a.png,O,m,791,3,1,1810.8000000715256,412923.59999990463,7785,NNB,A,2
3,test,5,0.0,1-Back,1.0,m,Thu Apr 09 2026 14:30:54 GMT-0500 (Central Daylight Time),416267.1999999285,041_y_m_n_a.png,O,m,515,4,1,1526.7999999523163,414740.39999997616,7785,NNB,A,3
4,test,5,0.0,1-Back,1.0,m,Thu Apr 09 2026 14:30:54 GMT-0500 (Central Daylight Time),417883.7999999523,063_y_f_n_a.png,O,m,596,5,1,1610.5,416273.2999999523,7785,NNB,A,4
5,test,5,0.0,1-Back,1.0,m,Thu Apr 09 2026 14:30:54 GMT-0500 (Central Daylight Time),419483.5,058_m_m_n_a.png,O,m,573,6,1,1594.6000000238419,417888.89999997616,7785,NNB,A,5
6,test,5,1.0,1-Back,1.0,z,Thu Apr 09 2026 14:30:54 GMT-0500 (Central Daylight Time),421199.59999990463,058_m_m_n_a.png,O,z,692,7,1,1711.8999999761581,419487.6999999285,7785,NNB,A,6
7,test,5,0.0,1-Back,1.0,m,Thu Apr 09 2026 14:30:54 GMT-0500 (Central Daylight Time),422750.09999990463,010_y_f_n_a.png,O,m,528,8,1,1544.1999999284744,421205.89999997616,7785,NNB,A,7
8,test,5,0.0,1-Back,1.0,m,Thu Apr 09 2026 14:30:54 GMT-0500 (Central Daylight Time),424382.7999999523,008_y_m_n_a.png,O,m,602,9,1,1627.2000000476837,422755.59999990463,7785,NNB,A,8
9,test,5,0.0,1-Back,1.0,m,Thu Apr 09 2026 14:30:54 GMT-0500 (Central Daylight Time),426233.6999999285,010_y_f_n_a.png,O,m,834,10,1,1844.6999999284744,424389.0,7785,NNB,A,9
10,test,5,0.0,1-Back,1.0,m,Thu Apr 09 2026 14:30:54 GMT-0500 (Central Daylight Time),427763.5,047_o_f_n_a.png,O,m,512,11,1,1523.4000000953674,426240.09999990463,7785,NNB,A,10
11,test,5,1.0,1-Back,1.0,z,Thu Apr 09 2026 14:30:54 GMT-0500 (Central Daylight Time),429546.7999999523,047_o_f_n_a.png,O,z,756,12,1,1780.2999999523163,427766.5,7785,NNB,A,11
12,test,5,0.0,1-Back,1.0,m,Thu Apr 09 2026 14:30:54 GMT-0500 (Central Daylight Time),431097.1999999285,046_o_m_n_a.png,O,m,526,13,1,1542.3999999761581,429554.7999999523,7785,NNB,A,12
13,test,5,0.0,1-Back,1.0,m,Thu Apr 09 2026 14:30:54 GMT-0500 (Central Daylight Time),432695.7999999523,050_m_f_n_a.png,O,m,574,14,1,1590.3999999761581,431105.39999997616,7785,NNB,A,13
13,test,5,1.0,1-Back,0.0,z,Thu Apr 09 2026 14:30:54 GMT-0500 (Central Daylight Time),434277.7999999523,050_m_f_n_a.png,O,m,550,15,1,1573.7999999523163,432704.0,7785,NNB,A,14
14,test,5,0.0,1-Back,1.0,m,Thu Apr 09 2026 14:30:54 GMT-0500 (Central Daylight Time),435844.6999999285,046_o_m_n_a.png,O,m,545,16,1,1561.0,434283.6999999285,7785,NNB,A,15
15,test,5,0.0,1-Back,1.0,m,Thu Apr 09 2026 14:30:54 GMT-0500 (Central Daylight Time),437444.09999990463,043_m_f_n_a.png,O,m,578,17,1,1595.0999999046326,435849.0,7785,NNB,A,16
16,test,5,0.0,1-Back,1.0,m,Thu Apr 09 2026 14:30:54 GMT-0500 (Central Daylight Time),438993.5,045_m_m_n_a.png,O,m,523,18,1,1541.0,437452.5,7785,NNB,A,17
0,prac,1,0.0,2-Back,,,Thu Apr 09 2026 14:30:54 GMT-0500 (Central Daylight Time),438993.5,008_y_m_n_a.png,O,space,2792,1,1,1541.0,437452.5,7785,NNB,A,0
0,prac,1,0.0,2-Back,,,Thu Apr 09 2026 14:30:54 GMT-0500 (Central Daylight Time),438993.5,043_m_f_n_a.png,O,space,2792,2,1,1541.0,437452.5,7785,NNB,A,0
1,prac,1,1.0,2-Back,1.0,m,Thu Apr 09 2026 14:30:54 GMT-0500 (Central Daylight Time),595345.6999999285,046_o_m_n_a.png,O,m,1773,3,1,2557.0,592788.6999999285,7785,NNB,A,1
1,prac,1,0.0,2-Back,0.0,m,Thu Apr 09 2026 14:30:54 GMT-0500 (Central Daylight Time),598176.1999999285,047_o_f_n_a.png,O,None,2010,4,1,2823.2999999523163,595352.8999999762,7785,NNB,A,2
1,prac,1,0.0,2-Back,0.0,z,Thu Apr 09 2026 14:30:54 GMT-0500 (Central Daylight Time),600825.1999999285,046_o_m_n_a.png,O,m,1871,5,1,2638.399999976158,598186.7999999523,7785,NNB,A,3
1,prac,1,1.0,2-Back,0.0,z,Thu Apr 09 2026 14:30:54 GMT-0500 (Central Daylight Time),603608.5,047_o_f_n_a.png,O,None,2012,6,1,2778.4000000953674,600830.0999999046,7785,NNB,A,4
1,prac,1,0.0,2-Back,0.0,m,Thu Apr 09 2026 14:30:54 GMT-0500 (Central Daylight Time),606407.7999999523,045_m_m_n_a.png,O,None,2004,7,1,2791.7000000476837,603616.0999999046,7785,NNB,A,5
2,prac,1,0.0,2-Back,1.0,m,Thu Apr 09 2026 14:30:54 GMT-0500 (Central Daylight Time),608258.1999999285,053_o_m_n_a.png,O,m,1045,8,1,1844.6000000238419,606413.5999999046,7785,NNB,A,6
2,prac,1,0.0,2-Back,0.0,m,Thu Apr 09 2026 14:30:54 GMT-0500 (Central Daylight Time),611089.7999999523,010_y_f_n_a.png,O,None,2009,9,1,2822.600000023842,608267.1999999285,7785,NNB,A,7
2,prac,1,1.0,2-Back,0.0,z,Thu Apr 09 2026 14:30:54 GMT-0500 (Central Daylight Time),612660.7999999523,053_o_m_n_a.png,O,m,807,10,1,1564.2999999523163,611096.5,7785,NNB,A,8
2,prac,1,0.0,2-Back,0.0,m,Thu Apr 09 2026 14:30:54 GMT-0500 (Central Daylight Time),615471.2999999523,063_y_f_n_a.png,O,None,2002,11,1,2805.2999999523163,612666.0,7785,NNB,A,9
3,prac,1,0.0,2-Back,1.0,m,Thu Apr 09 2026 14:30:54 GMT-0500 (Central Daylight Time),616754.0,045_m_m_n_a.png,O,m,495,12,1,1273.2000000476837,615480.7999999523,7785,NNB,A,10
0,test,1,0.0,2-Back,,,Thu Apr 09 2026 14:30:54 GMT-0500 (Central Daylight Time),616754.0,041_y_m_n_a.png,O,space,1788,1,1,1273.2000000476837,615480.7999999523,7785,NNB,A,0
0,test,1,0.0,2-Back,,,Thu Apr 09 2026 14:30:54 GMT-0500 (Central Daylight Time),616754.0,041_y_m_n_a.png,O,space,1788,2,1,1273.2000000476837,615480.7999999523,7785,NNB,A,0
0,test,1,0.0,2-Back,0.0,m,Thu Apr 09 2026 14:30:54 GMT-0500 (Central Daylight Time),638248.6999999285,047_o_f_n_a.png,O,None,2015,3,1,3026.6999999284744,635222.0,7785,NNB,A,1
1,test,1,0.0,2-Back,1.0,m,Thu Apr 09 2026 14:30:54 GMT-0500 (Central Daylight Time),639780.0999999046,058_m_m_n_a.png,O,m,504,4,1,1525.2999999523163,638254.7999999523,7785,NNB,A,2
2,test,1,1.0,2-Back,1.0,z,Thu Apr 09 2026 14:30:54 GMT-0500 (Central Daylight Time),641829.2999999523,047_o_f_n_a.png,O,z,1028,5,1,2042.8999999761581,639786.3999999762,7785,NNB,A,3
2,test,1,0.0,2-Back,0.0,m,Thu Apr 09 2026 14:30:54 GMT-0500 (Central Daylight Time),644862.2999999523,063_y_f_n_a.png,O,None,2016,6,1,3027.399999976158,641834.8999999762,7785,NNB,A,4
2,test,1,0.0,2-Back,0.0,m,Thu Apr 09 2026 14:30:54 GMT-0500 (Central Daylight Time),647560.5999999046,058_m_m_n_a.png,O,z,1673,7,1,2690.399999976158,644870.1999999285,7785,NNB,A,5
3,test,1,1.0,2-Back,1.0,z,Thu Apr 09 2026 14:30:54 GMT-0500 (Central Daylight Time),649927.3999999762,063_y_f_n_a.png,O,z,1333,8,1,2358.8000000715256,647568.5999999046,7785,NNB,A,6
4,test,1,0.0,2-Back,1.0,m,Thu Apr 09 2026 14:30:54 GMT-0500 (Central Daylight Time),651726.2999999523,008_y_m_n_a.png,O,m,776,9,1,1792.1000000238419,649934.1999999285,7785,NNB,A,7
5,test,1,0.0,2-Back,1.0,m,Thu Apr 09 2026 14:30:54 GMT-0500 (Central Daylight Time),653908.5999999046,044_o_f_n_a.png,O,m,1155,10,1,2179.1999999284744,651729.3999999762,7785,NNB,A,8
6,test,1,1.0,2-Back,1.0,z,Thu Apr 09 2026 14:30:54 GMT-0500 (Central Daylight Time),656172.5,008_y_m_n_a.png,O,z,1243,11,1,2260.5,653912.0,7785,NNB,A,9
7,test,1,0.0,2-Back,1.0,m,Thu Apr 09 2026 14:30:54 GMT-0500 (Central Daylight Time),657940.0999999046,043_m_f_n_a.png,O,m,744,12,1,1764.3999999761581,656175.6999999285,7785,NNB,A,10
8,test,1,0.0,2-Back,1.0,m,Thu Apr 09 2026 14:30:54 GMT-0500 (Central Daylight Time),659806.3999999762,043_m_f_n_a.png,O,m,835,13,1,1862.8000000715256,657943.5999999046,7785,NNB,A,11
8,test,1,0.0,2-Back,0.0,m,Thu Apr 09 2026 14:30:54 GMT-0500 (Central Daylight Time),662321.6999999285,046_o_m_n_a.png,O,z,1496,14,1,2509.899999976158,659811.7999999523,7785,NNB,A,12
9,test,1,0.0,2-Back,1.0,m,Thu Apr 09 2026 14:30:54 GMT-0500 (Central Daylight Time),663955.0,044_o_f_n_a.png,O,m,604,15,1,1630.6000000238419,662324.3999999762,7785,NNB,A,13
10,test,1,1.0,2-Back,1.0,z,Thu Apr 09 2026 14:30:54 GMT-0500 (Central Daylight Time),665672.7999999523,046_o_m_n_a.png,O,z,692,16,1,1710.5,663962.2999999523,7785,NNB,A,14
11,test,1,0.0,2-Back,1.0,m,Thu Apr 09 2026 14:30:54 GMT-0500 (Central Daylight Time),667321.7999999523,050_m_f_n_a.png,O,m,615,17,1,1641.3999999761581,665680.3999999762,7785,NNB,A,15
12,test,1,0.0,2-Back,1.0,m,Thu Apr 09 2026 14:30:54 GMT-0500 (Central Daylight Time),668987.7999999523,045_m_m_n_a.png,O,m,638,18,1,1657.0,667330.7999999523,7785,NNB,A,16
0,test,2,0.0,2-Back,,,Thu Apr 09 2026 14:30:54 GMT-0500 (Central Daylight Time),668987.7999999523,045_m_m_n_a.png,O,space,4051,1,1,1657.0,667330.7999999523,7785,NNB,A,0
0,test,2,0.0,2-Back,,,Thu Apr 09 2026 14:30:54 GMT-0500 (Central Daylight Time),668987.7999999523,010_y_f_n_a.png,O,space,4051,2,1,1657.0,667330.7999999523,7785,NNB,A,0
1,test,2,1.0,2-Back,1.0,z,Thu Apr 09 2026 14:30:54 GMT-0500 (Central Daylight Time),680549.6999999285,045_m_m_n_a.png,O,z,1376,3,1,2393.1999999284744,678156.5,7785,NNB,A,1
2,test,2,0.0,2-Back,1.0,m,Thu Apr 09 2026 14:30:54 GMT-0500 (Central Daylight Time),682233.6999999285,050_m_f_n_a.png,O,m,656,4,1,1676.6000000238419,680557.0999999046,7785,NNB,A,2
3,test,2,0.0,2-Back,1.0,m,Thu Apr 09 2026 14:30:54 GMT-0500 (Central Daylight Time),684332.1999999285,010_y_f_n_a.png,O,m,1080,5,1,2091.6999999284744,682240.5,7785,NNB,A,3
4,test,2,0.0,2-Back,1.0,m,Thu Apr 09 2026 14:30:54 GMT-0500 (Central Daylight Time),686031.2999999523,046_o_m_n_a.png,O,m,674,6,1,1691.2000000476837,684340.0999999046,7785,NNB,A,4
5,test,2,0.0,2-Back,1.0,m,Thu Apr 09 2026 14:30:54 GMT-0500 (Central Daylight Time),687947.0,063_y_f_n_a.png,O,m,895,7,1,1907.5,686039.5,7785,NNB,A,5
5,test,2,1.0,2-Back,0.0,z,Thu Apr 09 2026 14:30:54 GMT-0500 (Central Daylight Time),689482.1999999285,046_o_m_n_a.png,O,m,516,8,1,1531.5,687950.6999999285,7785,NNB,A,6
6,test,2,0.0,2-Back,1.0,m,Thu Apr 09 2026 14:30:54 GMT-0500 (Central Daylight Time),691365.5999999046,008_y_m_n_a.png,O,m,853,9,1,1876.7999999523163,689488.7999999523,7785,NNB,A,7
7,test,2,0.0,2-Back,1.0,m,Thu Apr 09 2026 14:30:54 GMT-0500 (Central Daylight Time),693013.3999999762,008_y_m_n_a.png,O,m,627,10,1,1641.3999999761581,691372.0,7785,NNB,A,8
7,test,2,0.0,2-Back,0.0,m,Thu Apr 09 2026 14:30:54 GMT-0500 (Central Daylight Time),694811.6999999285,043_m_f_n_a.png,O,z,779,11,1,1790.1999999284744,693021.5,7785,NNB,A,9
8,test,2,0.0,2-Back,1.0,m,Thu Apr 09 2026 14:30:54 GMT-0500 (Central Daylight Time),696343.8999999762,010_y_f_n_a.png,O,m,506,12,1,1526.0,694817.8999999762,7785,NNB,A,10
8,test,2,1.0,2-Back,0.0,z,Thu Apr 09 2026 14:30:54 GMT-0500 (Central Daylight Time),697911.8999999762,043_m_f_n_a.png,O,m,541,13,1,1560.3000000715256,696351.5999999046,7785,NNB,A,11
9,test,2,0.0,2-Back,1.0,m,Thu Apr 09 2026 14:30:54 GMT-0500 (Central Daylight Time),699443.5999999046,053_o_m_n_a.png,O,m,512,14,1,1525.6999999284744,697917.8999999762,7785,NNB,A,12
9,test,2,0.0,2-Back,0.0,m,Thu Apr 09 2026 14:30:54 GMT-0500 (Central Daylight Time),701327.0,053_o_m_n_a.png,O,z,851,15,1,1876.4000000953674,699450.5999999046,7785,NNB,A,13
10,test,2,0.0,2-Back,1.0,m,Thu Apr 09 2026 14:30:54 GMT-0500 (Central Daylight Time),702908.3999999762,044_o_f_n_a.png,O,m,553,16,1,1572.2000000476837,701336.1999999285,7785,NNB,A,14
11,test,2,0.0,2-Back,1.0,m,Thu Apr 09 2026 14:30:54 GMT-0500 (Central Daylight Time),704608.8999999762,058_m_m_n_a.png,O,m,681,17,1,1695.7000000476837,702913.1999999285,7785,NNB,A,15
11,test,2,1.0,2-Back,0.0,z,Thu Apr 09 2026 14:30:54 GMT-0500 (Central Daylight Time),706492.1999999285,044_o_f_n_a.png,O,m,866,18,1,1875.1000000238419,704617.0999999046,7785,NNB,A,16
0,test,3,1.0,2-Back,,,Thu Apr 09 2026 14:30:54 GMT-0500 (Central Daylight Time),706492.1999999285,041_y_m_n_a.png,O,space,1587,1,1,1875.1000000238419,704617.0999999046,7785,NNB,A,0
0,test,3,1.0,2-Back,,,Thu Apr 09 2026 14:30:54 GMT-0500 (Central Daylight Time),706492.1999999285,041_y_m_n_a.png,O,space,1587,2,1,1875.1000000238419,704617.0999999046,7785,NNB,A,0
1,test,3,0.0,2-Back,1.0,m,Thu Apr 09 2026 14:30:54 GMT-0500 (Central Daylight Time),715722.5999999046,044_o_f_n_a.png,O,m,1538,3,1,2565.0999999046326,713157.5,7785,NNB,A,1
2,test,3,0.0,2-Back,1.0,m,Thu Apr 09 2026 14:30:54 GMT-0500 (Central Daylight Time),717337.7999999523,045_m_m_n_a.png,O,m,588,4,1,1608.3999999761581,715729.3999999762,7785,NNB,A,2
2,test,3,1.0,2-Back,0.0,z,Thu Apr 09 2026 14:30:54 GMT-0500 (Central Daylight Time),719170.7999999523,044_o_f_n_a.png,O,m,814,5,1,1830.2000000476837,717340.5999999046,7785,NNB,A,3
3,test,3,0.0,2-Back,1.0,m,Thu Apr 09 2026 14:30:54 GMT-0500 (Central Daylight Time),720737.7999999523,008_y_m_n_a.png,O,m,540,6,1,1561.1000000238419,719176.6999999285,7785,NNB,A,4
4,test,3,0.0,2-Back,1.0,m,Thu Apr 09 2026 14:30:54 GMT-0500 (Central Daylight Time),722336.8999999762,045_m_m_n_a.png,O,m,581,7,1,1592.8999999761581,720744.0,7785,NNB,A,5
5,test,3,1.0,2-Back,1.0,z,Thu Apr 09 2026 14:30:54 GMT-0500 (Central Daylight Time),723970.7999999523,008_y_m_n_a.png,O,z,607,8,1,1628.6000000238419,722342.1999999285,7785,NNB,A,6
6,test,3,0.0,2-Back,1.0,m,Thu Apr 09 2026 14:30:54 GMT-0500 (Central Daylight Time),725569.7999999523,010_y_f_n_a.png,O,m,581,9,1,1590.8999999761581,723978.8999999762,7785,NNB,A,7
7,test,3,0.0,2-Back,1.0,m,Thu Apr 09 2026 14:30:54 GMT-0500 (Central Daylight Time),727118.5,058_m_m_n_a.png,O,m,526,10,1,1543.7000000476837,725574.7999999523,7785,NNB,A,8
7,test,3,1.0,2-Back,0.0,z,Thu Apr 09 2026 14:30:54 GMT-0500 (Central Daylight Time),728884.1999999285,010_y_f_n_a.png,O,m,734,11,1,1758.2999999523163,727125.8999999762,7785,NNB,A,9
7,test,3,1.0,2-Back,0.0,z,Thu Apr 09 2026 14:30:54 GMT-0500 (Central Daylight Time),730635.3999999762,058_m_m_n_a.png,O,m,720,12,1,1748.8000000715256,728886.5999999046,7785,NNB,A,10
8,test,3,0.0,2-Back,1.0,m,Thu Apr 09 2026 14:30:54 GMT-0500 (Central Daylight Time),732233.0,044_o_f_n_a.png,O,m,581,13,1,1590.4000000953674,730642.5999999046,7785,NNB,A,11
9,test,3,0.0,2-Back,1.0,m,Thu Apr 09 2026 14:30:54 GMT-0500 (Central Daylight Time),733932.7999999523,050_m_f_n_a.png,O,m,669,14,1,1692.2999999523163,732240.5,7785,NNB,A,12
10,test,3,0.0,2-Back,1.0,m,Thu Apr 09 2026 14:30:54 GMT-0500 (Central Daylight Time),735599.2999999523,046_o_m_n_a.png,O,m,635,15,1,1660.6000000238419,733938.6999999285,7785,NNB,A,13
10,test,3,1.0,2-Back,0.0,z,Thu Apr 09 2026 14:30:54 GMT-0500 (Central Daylight Time),737464.6999999285,050_m_f_n_a.png,O,m,838,16,1,1860.6000000238419,735604.0999999046,7785,NNB,A,14
11,test,3,0.0,2-Back,1.0,m,Thu Apr 09 2026 14:30:54 GMT-0500 (Central Daylight Time),739164.5999999046,047_o_f_n_a.png,O,m,679,17,1,1695.2999999523163,737469.2999999523,7785,NNB,A,15
11,test,3,0.0,2-Back,0.0,m,Thu Apr 09 2026 14:30:54 GMT-0500 (Central Daylight Time),740848.5999999046,047_o_f_n_a.png,O,z,656,18,1,1677.2999999523163,739171.2999999523,7785,NNB,A,16
0,test,4,0.0,2-Back,,,Thu Apr 09 2026 14:30:54 GMT-0500 (Central Daylight Time),740848.5999999046,053_o_m_n_a.png,O,space,1311,1,1,1677.2999999523163,739171.2999999523,7785,NNB,A,0
0,test,4,0.0,2-Back,,,Thu Apr 09 2026 14:30:54 GMT-0500 (Central Daylight Time),740848.5999999046,063_y_f_n_a.png,O,space,1311,2,1,1677.2999999523163,739171.2999999523,7785,NNB,A,0
1,test,4,1.0,2-Back,1.0,z,Thu Apr 09 2026 14:30:54 GMT-0500 (Central Daylight Time),748994.3999999762,053_o_m_n_a.png,O,z,738,3,1,1757.3999999761581,747237.0,7785,NNB,A,1
1,test,4,1.0,2-Back,0.0,z,Thu Apr 09 2026 14:30:54 GMT-0500 (Central Daylight Time),750577.0999999046,063_y_f_n_a.png,O,m,555,4,1,1577.5,748999.5999999046,7785,NNB,A,2
2,test,4,0.0,2-Back,1.0,m,Thu Apr 09 2026 14:30:54 GMT-0500 (Central Daylight Time),753045.1999999285,044_o_f_n_a.png,O,m,1436,5,1,2462.399999976158,750582.7999999523,7785,NNB,A,3
2,test,4,0.0,2-Back,0.0,m,Thu Apr 09 2026 14:30:54 GMT-0500 (Central Daylight Time),754809.2999999523,044_o_f_n_a.png,O,z,733,6,1,1758.3999999761581,753050.8999999762,7785,NNB,A,4
3,test,4,0.0,2-Back,1.0,m,Thu Apr 09 2026 14:30:54 GMT-0500 (Central Daylight Time),756360.0,043_m_f_n_a.png,O,m,534,7,1,1545.0,754815.0,7785,NNB,A,5
4,test,4,0.0,2-Back,1.0,m,Thu Apr 09 2026 14:30:54 GMT-0500 (Central Daylight Time),757909.5999999046,008_y_m_n_a.png,O,m,528,8,1,1542.8999999761581,756366.6999999285,7785,NNB,A,6
4,test,4,1.0,2-Back,0.0,z,Thu Apr 09 2026 14:30:54 GMT-0500 (Central Daylight Time),759457.0,043_m_f_n_a.png,O,m,532,9,1,1542.0,757915.0,7785,NNB,A,7
5,test,4,0.0,2-Back,1.0,m,Thu Apr 09 2026 14:30:54 GMT-0500 (Central Daylight Time),761041.5999999046,058_m_m_n_a.png,O,m,551,10,1,1578.2999999523163,759463.2999999523,7785,NNB,A,8
6,test,4,0.0,2-Back,1.0,m,Thu Apr 09 2026 14:30:54 GMT-0500 (Central Daylight Time),762757.8999999762,008_y_m_n_a.png,O,m,694,11,1,1708.8000000715256,761049.0999999046,7785,NNB,A,9
7,test,4,0.0,2-Back,1.0,m,Thu Apr 09 2026 14:30:54 GMT-0500 (Central Daylight Time),764307.1999999285,047_o_f_n_a.png,O,m,521,12,1,1541.6999999284744,762765.5,7785,NNB,A,10
8,test,4,0.0,2-Back,1.0,m,Thu Apr 09 2026 14:30:54 GMT-0500 (Central Daylight Time),766107.5,041_y_m_n_a.png,O,m,783,13,1,1793.7000000476837,764313.7999999523,7785,NNB,A,11
8,test,4,1.0,2-Back,0.0,z,Thu Apr 09 2026 14:30:54 GMT-0500 (Central Daylight Time),767906.3999999762,047_o_f_n_a.png,O,m,783,14,1,1793.7000000476837,766112.6999999285,7785,NNB,A,12
9,test,4,1.0,2-Back,1.0,z,Thu Apr 09 2026 14:30:54 GMT-0500 (Central Daylight Time),769838.1999999285,041_y_m_n_a.png,O,z,908,15,1,1925.2999999523163,767912.8999999762,7785,NNB,A,13
10,test,4,0.0,2-Back,1.0,m,Thu Apr 09 2026 14:30:54 GMT-0500 (Central Daylight Time),771387.5,045_m_m_n_a.png,O,m,530,16,1,1542.5,769845.0,7785,NNB,A,14
11,test,4,0.0,2-Back,1.0,m,Thu Apr 09 2026 14:30:54 GMT-0500 (Central Daylight Time),772970.1999999285,050_m_f_n_a.png,O,m,565,17,1,1575.6999999284744,771394.5,7785,NNB,A,15
11,test,4,1.0,2-Back,0.0,z,Thu Apr 09 2026 14:30:54 GMT-0500 (Central Daylight Time),774705.6999999285,045_m_m_n_a.png,O,m,708,18,1,1728.1000000238419,772977.5999999046,7785,NNB,A,16
0,test,5,1.0,2-Back,,,Thu Apr 09 2026 14:30:54 GMT-0500 (Central Daylight Time),774705.6999999285,041_y_m_n_a.png,O,space,1206,1,1,1728.1000000238419,772977.5999999046,7785,NNB,A,0
0,test,5,1.0,2-Back,,,Thu Apr 09 2026 14:30:54 GMT-0500 (Central Daylight Time),774705.6999999285,050_m_f_n_a.png,O,space,1206,2,1,1728.1000000238419,772977.5999999046,7785,NNB,A,0
0,test,5,1.0,2-Back,0.0,z,Thu Apr 09 2026 14:30:54 GMT-0500 (Central Daylight Time),782985.0999999046,041_y_m_n_a.png,O,m,1002,3,1,2027.3999999761581,780957.6999999285,7785,NNB,A,1
0,test,5,1.0,2-Back,0.0,z,Thu Apr 09 2026 14:30:54 GMT-0500 (Central Daylight Time),784851.0999999046,050_m_f_n_a.png,O,m,850,4,1,1860.0999999046326,782991.0,7785,NNB,A,2
1,test,5,0.0,2-Back,1.0,m,Thu Apr 09 2026 14:30:54 GMT-0500 (Central Daylight Time),786582.7999999523,047_o_f_n_a.png,O,m,701,5,1,1725.1000000238419,784857.6999999285,7785,NNB,A,3
2,test,5,0.0,2-Back,1.0,m,Thu Apr 09 2026 14:30:54 GMT-0500 (Central Daylight Time),788565.1999999285,041_y_m_n_a.png,O,m,952,6,1,1977.6999999284744,786587.5,7785,NNB,A,4
3,test,5,0.0,2-Back,1.0,m,Thu Apr 09 2026 14:30:54 GMT-0500 (Central Daylight Time),790115.1999999285,010_y_f_n_a.png,O,m,529,7,1,1541.5,788573.6999999285,7785,NNB,A,5
4,test,5,0.0,2-Back,1.0,m,Thu Apr 09 2026 14:30:54 GMT-0500 (Central Daylight Time),791715.0,047_o_f_n_a.png,O,m,579,8,1,1592.7000000476837,790122.2999999523,7785,NNB,A,6
4,test,5,1.0,2-Back,0.0,z,Thu Apr 09 2026 14:30:54 GMT-0500 (Central Daylight Time),793296.5,010_y_f_n_a.png,O,m,556,9,1,1575.7000000476837,791720.7999999523,7785,NNB,A,7
5,test,5,0.0,2-Back,1.0,m,Thu Apr 09 2026 14:30:54 GMT-0500 (Central Daylight Time),794964.5999999046,046_o_m_n_a.png,O,m,646,10,1,1665.5999999046326,793299.0,7785,NNB,A,8
6,test,5,0.0,2-Back,1.0,m,Thu Apr 09 2026 14:30:54 GMT-0500 (Central Daylight Time),796580.6999999285,043_m_f_n_a.png,O,m,589,11,1,1608.1000000238419,794972.5999999046,7785,NNB,A,9
7,test,5,0.0,2-Back,1.0,m,Thu Apr 09 2026 14:30:54 GMT-0500 (Central Daylight Time),798228.7999999523,058_m_m_n_a.png,O,m,619,12,1,1640.7999999523163,796588.0,7785,NNB,A,10
8,test,5,0.0,2-Back,1.0,m,Thu Apr 09 2026 14:30:54 GMT-0500 (Central Daylight Time),799845.5,046_o_m_n_a.png,O,m,585,13,1,1609.2000000476837,798236.2999999523,7785,NNB,A,11
8,test,5,1.0,2-Back,0.0,z,Thu Apr 09 2026 14:30:54 GMT-0500 (Central Daylight Time),801411.5999999046,058_m_m_n_a.png,O,m,537,14,1,1559.1999999284744,799852.3999999762,7785,NNB,A,12
9,test,5,0.0,2-Back,1.0,m,Thu Apr 09 2026 14:30:54 GMT-0500 (Central Daylight Time),802994.2999999523,063_y_f_n_a.png,O,m,555,15,1,1574.2999999523163,801420.0,7785,NNB,A,13
10,test,5,0.0,2-Back,1.0,m,Thu Apr 09 2026 14:30:54 GMT-0500 (Central Daylight Time),804710.5,053_o_m_n_a.png,O,m,684,16,1,1709.4000000953674,803001.0999999046,7785,NNB,A,14
11,test,5,0.0,2-Back,1.0,m,Thu Apr 09 2026 14:30:54 GMT-0500 (Central Daylight Time),806876.3999999762,043_m_f_n_a.png,O,m,1144,17,1,2161.600000023842,804714.7999999523,7785,NNB,A,15
11,test,5,1.0,2-Back,0.0,z,Thu Apr 09 2026 14:30:54 GMT-0500 (Central Daylight Time),808626.0999999046,053_o_m_n_a.png,O,m,731,18,1,1742.2999999523163,806883.7999999523,7785,NNB,A,16
