acc_sum,block_c,block_dur,condition,correct,correct_response,countdown,datetime,endtime,project,response,response_time,response_time_test1_response,response_time_test2_response,row_sel,same,session_number,start_end,starttime,stim1,stim2,subject_id,task,task_vers,time_test1,time_test2,trial
1,1,0.0,prac,1,z,30000.0,Tue Apr 14 2026 16:41:49 GMT-0500 (Central Daylight Time),22400.199999999255,I,z,1256,,,4,yes,,2778.5,19621.699999999255,RSM,RSM,8070,LC,A,,,1
2,1,0.0,prac,1,z,30000.0,Tue Apr 14 2026 16:41:49 GMT-0500 (Central Daylight Time),26748.5,I,z,2824,,,2,yes,,4343.400000002235,22405.099999997765,NBGFSM,NBGFSM,8070,LC,A,,,2
3,1,0.0,prac,1,m,30000.0,Tue Apr 14 2026 16:41:49 GMT-0500 (Central Daylight Time),29998.0,I,m,1725,,,3,no,,3245.300000000745,26752.699999999255,QHZXPC,QHZWPC,8070,LC,A,,,3
4,1,0.0,prac,1,z,30000.0,Tue Apr 14 2026 16:41:49 GMT-0500 (Central Daylight Time),33313.300000000745,I,z,1778,,,6,yes,,3311.5,30001.800000000745,CSDBFPHXZ,CSDBFPHXZ,8070,LC,A,,,4
5,1,0.0,prac,1,m,30000.0,Tue Apr 14 2026 16:41:49 GMT-0500 (Central Daylight Time),37379.800000000745,I,m,2535,,,5,no,,4061.800000000745,33318.0,LNDPRSKQB,LNDPRSJQB,8070,LC,A,,,5
6,1,0.0,prac,1,m,30000.0,Tue Apr 14 2026 16:41:49 GMT-0500 (Central Daylight Time),39744.199999999255,I,m,828,,,1,no,,2360.10000000149,37384.099999997765,RNV,FNV,8070,LC,A,,,6
1,1,0.7990000247955322,test,1,m,29200.999975204468,Tue Apr 14 2026 16:41:49 GMT-0500 (Central Daylight Time),44609.699999999255,I,m,785,785,,1,no,,796.8999999985099,43812.800000000745,HCF,RCF,8070,LC,A,42070,,1
2,1,2.7660000324249268,test,1,m,27233.999967575073,Tue Apr 14 2026 16:41:49 GMT-0500 (Central Daylight Time),46575.89999999851,I,m,1960,1960,,2,no,,1962.199999999255,44613.699999999255,QTPRJX,QTPNJX,8070,LC,A,42871,,2
3,1,5.63100004196167,test,1,m,24368.99995803833,Tue Apr 14 2026 16:41:49 GMT-0500 (Central Daylight Time),49441.699999999255,I,m,2858,2858,,3,no,,2862.39999999851,46579.300000000745,MZDYGVGKQ,MZDYGLBKQ,8070,LC,A,44837,,3
4,1,6.513999938964844,test,1,m,23486.000061035156,Tue Apr 14 2026 16:41:49 GMT-0500 (Central Daylight Time),50324.699999999255,I,m,872,872,,4,no,,879.8000000007451,49444.89999999851,FQTNMK,JQTNMK,8070,LC,A,47703,,4
5,1,7.5309998989105225,test,1,z,22469.000101089478,Tue Apr 14 2026 16:41:49 GMT-0500 (Central Daylight Time),51341.0,I,z,998,998,,5,yes,,1013.1000000014901,50327.89999999851,CLJ,CLJ,8070,LC,A,48585,,5
6,1,9.348000049591064,test,1,m,20651.999950408936,Tue Apr 14 2026 16:41:49 GMT-0500 (Central Daylight Time),53158.199999999255,I,m,1806,1806,,6,no,,1814.0,51344.199999999255,JGDMNSVPW,JGZMNSVPW,8070,LC,A,49602,,6
7,1,11.828999996185303,test,1,z,18171.000003814697,Tue Apr 14 2026 16:41:49 GMT-0500 (Central Daylight Time),55639.599999997765,I,z,2468,2468,,7,yes,,2478.0,53161.599999997765,FPTVHKCBJ,FPTVHKCBJ,8070,LC,A,51419,,7
8,1,13.02999997138977,test,1,m,16970.00002861023,Tue Apr 14 2026 16:41:49 GMT-0500 (Central Daylight Time),56840.300000000745,I,m,1194,1194,,8,no,,1197.300000000745,55643.0,XRPZBS,ZRPBDH,8070,LC,A,53901,,8
9,1,14.310999870300293,test,1,m,15689.000129699707,Tue Apr 14 2026 16:41:49 GMT-0500 (Central Daylight Time),58121.89999999851,I,m,1274,1274,,9,no,,1278.300000000745,56843.599999997765,ZSQ,ZSP,8070,LC,A,55101,,9
10,1,16.126999855041504,test,1,z,13873.000144958496,Tue Apr 14 2026 16:41:49 GMT-0500 (Central Daylight Time),59938.300000000745,I,z,1808,1808,,10,yes,,1813.0,58125.300000000745,MPZRXL,MPZRXL,8070,LC,A,56383,,10
11,1,18.258999824523926,test,1,m,11741.000175476074,Tue Apr 14 2026 16:41:49 GMT-0500 (Central Daylight Time),62071.0,I,m,2113,2113,,11,no,,2129.60000000149,59941.39999999851,KJH,KRH,8070,LC,A,58199,,11
12,1,21.024999856948853,test,1,z,8975.000143051147,Tue Apr 14 2026 16:41:49 GMT-0500 (Central Daylight Time),64836.5,I,z,2755,2755,,12,yes,,2761.900000002235,62074.599999997765,SMNHVTFCB,SMNHVTFCB,8070,LC,A,60332,,12
13,1,22.757999897003174,test,1,z,7242.000102996826,Tue Apr 14 2026 16:41:49 GMT-0500 (Central Daylight Time),66569.39999999851,I,z,1723,1723,,13,yes,,1727.3999999985099,64842.0,KJWTQF,KJWTQF,8070,LC,A,63100,,13
14,1,25.406999826431274,test,1,z,4593.000173568726,Tue Apr 14 2026 16:41:49 GMT-0500 (Central Daylight Time),69218.69999999925,I,z,2641,2641,,14,yes,,2646.300000000745,66572.39999999851,CHDKQGLMB,CHDKQGLMB,8070,LC,A,64830,,14
15,1,26.47499990463257,test,1,z,3525.0000953674316,Tue Apr 14 2026 16:41:49 GMT-0500 (Central Daylight Time),70286.19999999925,I,z,1056,1056,,15,yes,,1064.3999999985099,69221.80000000075,GHQ,GHQ,8070,LC,A,67479,,15
16,1,28.9229998588562,test,1,z,1077.0001411437988,Tue Apr 14 2026 16:41:49 GMT-0500 (Central Daylight Time),72734.39999999851,I,z,2444,2444,,16,yes,,2444.89999999851,70289.5,GFVMRH,GFVMRH,8070,LC,A,68547,,16
17,1,29.621999979019165,test,1,z,378.00002098083496,Tue Apr 14 2026 16:41:49 GMT-0500 (Central Daylight Time),73433.89999999851,I,z,692,692,,17,yes,,696.3999999985099,72737.5,RSM,RSM,8070,LC,A,70995,,17
17,1,30.00600004196167,test,0,m,-6.000041961669922,Tue Apr 14 2026 16:41:49 GMT-0500 (Central Daylight Time),73817.30000000075,I,None,380,380,,18,no,,380.4000000022352,73436.89999999851,BSRJTRMLG,BSFJTRMLG,8070,LC,A,71694,,18
1,2,2.182999849319458,test,1,z,27817.000150680542,Tue Apr 14 2026 16:41:49 GMT-0500 (Central Daylight Time),77316.09999999776,I,z,2165,,2165.0,1,yes,,3879.199999999255,73436.89999999851,PRDBZTYFN,PRDBZTYFN,8070,LC,A,,73393.0,1
2,2,3.2819998264312744,test,1,m,26718.000173568726,Tue Apr 14 2026 16:41:49 GMT-0500 (Central Daylight Time),78415.69999999925,I,m,1094,,1094.0,2,no,,4978.800000000745,73436.89999999851,NCWJDZ,NCMJDZ,8070,LC,A,,75577.0,2
3,2,4.348999977111816,test,1,m,25651.000022888184,Tue Apr 14 2026 16:41:49 GMT-0500 (Central Daylight Time),79482.19999999925,I,m,1051,,1051.0,3,no,,6045.300000000745,73436.89999999851,KHW,KBW,8070,LC,A,,76676.0,3
4,2,6.313999891281128,test,1,m,23686.000108718872,Tue Apr 14 2026 16:41:49 GMT-0500 (Central Daylight Time),81448.0,I,m,1952,,1952.0,4,no,,8011.10000000149,73436.89999999851,ZRBGMF,ZRBCMF,8070,LC,A,,77743.0,4
5,2,7.263999938964844,test,1,m,22736.000061035156,Tue Apr 14 2026 16:41:49 GMT-0500 (Central Daylight Time),82398.09999999776,I,m,931,,931.0,5,no,,8961.199999999255,73436.89999999851,BTH,BYH,8070,LC,A,,79708.0,5
6,2,10.096999883651733,test,1,z,19903.000116348267,Tue Apr 14 2026 16:41:49 GMT-0500 (Central Daylight Time),85230.59999999776,I,z,2813,,2813.0,6,yes,,11793.699999999255,73436.89999999851,XWKQRYCNZ,XWKQRYCNZ,8070,LC,A,,80658.0,6
7,2,11.829999923706055,test,1,z,18170.000076293945,Tue Apr 14 2026 16:41:49 GMT-0500 (Central Daylight Time),86963.39999999851,I,z,1716,,1716.0,7,yes,,13526.5,73436.89999999851,HNPDLK,HNPDLK,8070,LC,A,,83491.0,7
8,2,13.578999996185303,test,1,m,16421.000003814697,Tue Apr 14 2026 16:41:49 GMT-0500 (Central Daylight Time),88712.69999999925,I,m,1743,,1743.0,8,no,,15275.800000000745,73436.89999999851,WMQTRSGLZ,WMQTRZGLZ,8070,LC,A,,85224.0,8
9,2,14.51199984550476,test,1,z,15488.00015449524,Tue Apr 14 2026 16:41:49 GMT-0500 (Central Daylight Time),89646.09999999776,I,z,922,,922.0,9,yes,,16209.199999999255,73436.89999999851,JPN,JPN,8070,LC,A,,86973.0,9
10,2,15.694999933242798,test,1,m,14305.000066757202,Tue Apr 14 2026 16:41:49 GMT-0500 (Central Daylight Time),90828.39999999851,I,m,1165,,1165.0,10,no,,17391.5,73436.89999999851,QLXSVT,QLNSVT,8070,LC,A,,87906.0,10
10,2,17.960999965667725,test,0,z,12039.000034332275,Tue Apr 14 2026 16:41:49 GMT-0500 (Central Daylight Time),93094.69999999925,I,m,2247,,2247.0,11,yes,,19657.800000000745,73436.89999999851,YXHKZVFPB,YXHKZVFPD,8070,LC,A,,89088.0,11
11,2,18.82699990272522,test,1,z,11173.00009727478,Tue Apr 14 2026 16:41:49 GMT-0500 (Central Daylight Time),93960.89999999851,I,z,860,,860.0,12,yes,,20524.0,73436.89999999851,RJZ,RJZ,8070,LC,A,,91355.0,12
12,2,20.57699990272522,test,1,z,9423.00009727478,Tue Apr 14 2026 16:41:49 GMT-0500 (Central Daylight Time),95710.59999999776,I,z,1731,,1731.0,13,yes,,22273.699999999255,73436.89999999851,CLNPZD,CLNPZD,8070,LC,A,,92221.0,13
13,2,23.175999879837036,test,1,m,6824.000120162964,Tue Apr 14 2026 16:41:49 GMT-0500 (Central Daylight Time),98309.69999999925,I,m,2588,,2588.0,14,no,,24872.800000000745,73436.89999999851,DCBPFHXYJ,DCBPFHLYJ,8070,LC,A,,93971.0,14
14,2,24.04199981689453,test,1,m,5958.000183105469,Tue Apr 14 2026 16:41:49 GMT-0500 (Central Daylight Time),99176.09999999776,I,m,861,,861.0,15,no,,25739.199999999255,73436.89999999851,MWR,ZWR,8070,LC,A,,96570.0,15
15,2,26.72499990463257,test,1,z,3275.0000953674316,Tue Apr 14 2026 16:41:49 GMT-0500 (Central Daylight Time),101858.30000000075,I,z,2666,,2666.0,16,yes,,28421.400000002235,73436.89999999851,LPKXZW,LPKXZW,8070,LC,A,,97437.0,16
16,2,27.674999952316284,test,1,m,2325.000047683716,Tue Apr 14 2026 16:41:49 GMT-0500 (Central Daylight Time),102808.30000000075,I,m,944,,944.0,17,no,,29371.400000002235,73436.89999999851,TZL,TZQ,8070,LC,A,,100119.0,17
16,2,30.006999969482422,test,0,z,-6.999969482421875,Tue Apr 14 2026 16:41:49 GMT-0500 (Central Daylight Time),105141.0,I,None,2329,,2329.0,18,yes,,31704.10000000149,73436.89999999851,CSDBFPHXZ,CSDBFPHXZ,8070,LC,A,,101069.0,18
