acc_sum,block,block_c,condition,correct,correct_response,datetime,endtime,flanker,jitter,project,response,response_test_buffer_response,response_test_target_response,response_time,response_time_test_buffer_response,response_time_test_target_response,row_sel,session_number,start_end,starttime,subject_id,target,task,task_vers,time_test_buffer,time_test_buffer_response,time_test_constants,time_test_flanker,time_test_jitter,time_test_logger,time_test_target,time_test_target_response,time_test_variables,trial
0,prac,1,inc,0,z,Wed May 13 2026 13:31:04 GMT-0400 (Eastern Daylight Time),109271.30000019073,napkin,1100,I,m,,,1223,,,12,2,3624.2000000476837,105647.10000014305,9047,friend,AF,B,,,,,,,,,,1
1,prac,1,con,1,m,Wed May 13 2026 13:31:04 GMT-0400 (Eastern Daylight Time),112087.5,bell,1000,I,m,,,507,,,3,2,2806.0,109281.5,9047,bell,AF,B,,,,,,,,,,2
2,prac,1,inc,1,m,Wed May 13 2026 13:31:04 GMT-0400 (Eastern Daylight Time),115071.0,hate,1100,I,m,,,566,,,4,2,2973.2999999523163,112097.70000004768,9047,film,AF,B,,,,,,,,,,3
3,prac,1,inc,1,z,Wed May 13 2026 13:31:04 GMT-0400 (Eastern Daylight Time),117887.80000019073,film,900,I,z,,,599,,,14,2,2806.4000000953674,115081.40000009537,9047,hate,AF,B,,,,,,,,,,4
4,prac,1,con,1,z,Wed May 13 2026 13:31:04 GMT-0400 (Eastern Daylight Time),121021.0,rage,1000,I,z,,,818,,,15,2,3123.899999856949,117897.10000014305,9047,rage,AF,B,,,,,,,,,,5
5,prac,1,con,1,z,Wed May 13 2026 13:31:04 GMT-0400 (Eastern Daylight Time),123787.70000004768,love,1000,I,z,,,453,,,11,2,2754.2000000476837,121033.5,9047,love,AF,B,,,,,,,,,,6
6,prac,1,inc,1,z,Wed May 13 2026 13:31:04 GMT-0400 (Eastern Daylight Time),126770.90000009537,rock,900,I,z,,,778,,,10,2,2972.5999999046326,123798.30000019073,9047,kind,AF,B,,,,,,,,,,7
6,prac,1,inc,0,m,Wed May 13 2026 13:31:04 GMT-0400 (Eastern Daylight Time),129787.60000014305,brutal,1100,I,z,,,604,,,8,2,3005.5,126782.10000014305,9047,window,AF,B,,,,,,,,,,8
7,prac,1,inc,1,z,Wed May 13 2026 13:31:04 GMT-0400 (Eastern Daylight Time),132804.40000009537,window,1100,I,z,,,611,,,16,2,3006.2999999523163,129798.10000014305,9047,temper,AF,B,,,,,,,,,,9
8,prac,1,con,1,m,Wed May 13 2026 13:31:04 GMT-0400 (Eastern Daylight Time),135571.0,remote,1000,I,m,,,464,,,7,2,2757.199999809265,132813.80000019073,9047,remote,AF,B,,,,,,,,,,10
9,prac,1,con,1,m,Wed May 13 2026 13:31:04 GMT-0400 (Eastern Daylight Time),138271.0,jacket,800,I,m,,,583,,,5,2,2689.2999999523163,135581.70000004768,9047,jacket,AF,B,,,,,,,,,,11
10,prac,1,inc,1,m,Wed May 13 2026 13:31:04 GMT-0400 (Eastern Daylight Time),141137.80000019073,elated,900,I,m,,,664,,,6,2,2858.4000000953674,138279.40000009537,9047,napkin,AF,B,,,,,,,,,,12
11,prac,1,inc,1,m,Wed May 13 2026 13:31:04 GMT-0400 (Eastern Daylight Time),143887.60000014305,kind,900,I,m,,,534,,,2,2,2739.600000143051,141148.0,9047,rock,AF,B,,,,,,,,,,13
12,prac,1,con,1,z,Wed May 13 2026 13:31:04 GMT-0400 (Eastern Daylight Time),146537.60000014305,elated,800,I,z,,,539,,,9,2,2640.9000000953674,143896.70000004768,9047,elated,AF,B,,,,,,,,,,14
13,prac,1,con,1,z,Wed May 13 2026 13:31:04 GMT-0400 (Eastern Daylight Time),149271.0,brutal,800,I,z,,,624,,,13,2,2723.699999809265,146547.30000019073,9047,brutal,AF,B,,,,,,,,,,15
14,prac,1,con,1,m,Wed May 13 2026 13:31:04 GMT-0400 (Eastern Daylight Time),151904.20000004768,step,800,I,m,,,516,,,1,2,2623.2999999523163,149280.90000009537,9047,step,AF,B,,,,,,,,,,16
1,test,1,con,1,z,Wed May 13 2026 13:31:04 GMT-0400 (Eastern Daylight Time),164854.40000009537,brutal,1100,I,z,z,None,776,577.0,199.0,36,2,2408.7000000476837,162445.70000004768,9047,brutal,AF,B,155241,155241,153415,154524,153415,155824,155041,155041,155823,1
2,test,1,inc,1,z,Wed May 13 2026 13:31:04 GMT-0400 (Eastern Daylight Time),167037.60000014305,napkin,900,I,z,z,None,736,537.0,199.0,6,2,2173.4000000953674,164864.20000004768,9047,elated,AF,B,157457,157457,155833,156740,155834,158007,157257,157257,158007,2
3,test,1,con,1,z,Wed May 13 2026 13:31:04 GMT-0400 (Eastern Daylight Time),169004.20000004768,brutal,900,I,z,z,None,522,322.0,200.0,34,2,1953.5,167050.70000004768,9047,brutal,AF,B,159640,159640,158020,158924,158020,159973,159440,159440,159973,3
4,test,1,inc,1,m,Wed May 13 2026 13:31:04 GMT-0400 (Eastern Daylight Time),171170.60000014305,love,1000,I,m,m,None,631,431.0,200.0,79,2,2156.9000000953674,169013.70000004768,9047,rock,AF,B,161707,161707,159983,160991,159983,162140,161507,161507,162140,4
5,test,1,con,1,m,Wed May 13 2026 13:31:04 GMT-0400 (Eastern Daylight Time),173270.90000009537,step,1000,I,m,m,None,560,361.0,199.0,67,2,2088.9000000953674,171182.0,9047,step,AF,B,163874,163874,162151,163157,162152,164240,163674,163674,164240,5
6,test,1,inc,1,z,Wed May 13 2026 13:31:04 GMT-0400 (Eastern Daylight Time),175620.80000019073,film,1100,I,z,z,None,711,512.0,199.0,56,2,2339.600000143051,173281.20000004768,9047,rage,AF,B,166074,166074,164250,165357,164251,166590,165874,165874,166590,6
7,test,1,con,1,z,Wed May 13 2026 13:31:04 GMT-0400 (Eastern Daylight Time),177570.70000004768,rage,900,I,z,z,None,513,314.0,199.0,50,2,1939.2999999523163,175631.40000009537,9047,rage,AF,B,168224,168224,166600,167507,166601,168540,168024,168024,168540,7
8,test,1,con,1,m,Wed May 13 2026 13:31:04 GMT-0400 (Eastern Daylight Time),179487.60000014305,window,800,I,m,m,None,567,368.0,199.0,121,2,1907.5,177580.10000014305,9047,window,AF,B,170074,170074,168549,169357,168549,170457,169874,169874,170457,8
9,test,1,con,1,z,Wed May 13 2026 13:31:04 GMT-0400 (Eastern Daylight Time),181654.20000004768,love,1100,I,z,z,None,528,328.0,200.0,20,2,2157.0,179497.20000004768,9047,love,AF,B,172290,172290,170466,171574,170467,172623,172090,172090,172623,9
9,test,1,inc,0,z,Wed May 13 2026 13:31:04 GMT-0400 (Eastern Daylight Time),183604.10000014305,jacket,800,I,m,m,None,613,414.0,199.0,61,2,1941.7999999523163,181662.30000019073,9047,temper,AF,B,174157,174157,172631,173440,172632,174573,173957,173957,174573,10
10,test,1,con,1,m,Wed May 13 2026 13:31:04 GMT-0400 (Eastern Daylight Time),185504.20000004768,step,800,I,m,m,None,550,351.0,199.0,65,2,1890.7000000476837,183613.5,9047,step,AF,B,176107,176107,174583,175390,174583,176473,175907,175907,176473,11
11,test,1,con,1,m,Wed May 13 2026 13:31:04 GMT-0400 (Eastern Daylight Time),187587.30000019073,film,1000,I,m,m,None,529,330.0,199.0,91,2,2065.5,185521.80000019073,9047,film,AF,B,178224,178224,176491,177507,176492,178556,178024,178024,178556,12
12,test,1,inc,1,m,Wed May 13 2026 13:31:04 GMT-0400 (Eastern Daylight Time),189570.60000014305,elated,800,I,m,m,None,646,447.0,199.0,109,2,1973.7000000476837,187596.90000009537,9047,napkin,AF,B,180091,180091,178566,179374,178566,180540,179890,179891,180540,13
13,test,1,con,1,m,Wed May 13 2026 13:31:04 GMT-0400 (Eastern Daylight Time),191587.30000019073,rock,800,I,m,m,None,679,480.0,199.0,73,2,2006.5,189580.80000019073,9047,rock,AF,B,182074,182074,180550,181357,180550,182556,181874,181874,182556,14
14,test,1,con,1,z,Wed May 13 2026 13:31:04 GMT-0400 (Eastern Daylight Time),193454.20000004768,rage,800,I,z,z,None,519,319.0,200.0,49,2,1858.0999999046326,191596.10000014305,9047,rage,AF,B,184090,184091,182565,183374,182566,184423,183890,183890,184423,15
15,test,1,inc,1,z,Wed May 13 2026 13:31:04 GMT-0400 (Eastern Daylight Time),195770.90000009537,bell,1000,I,z,z,None,773,574.0,199.0,55,2,2306.4000000953674,193464.5,9047,rage,AF,B,186157,186157,184434,185440,184434,186740,185957,185957,186740,16
16,test,1,inc,1,z,Wed May 13 2026 13:31:04 GMT-0400 (Eastern Daylight Time),197987.30000019073,napkin,900,I,z,z,None,779,580.0,199.0,30,2,2204.5,195782.80000019073,9047,friend,AF,B,188374,188374,186752,187657,186752,188956,188174,188174,188956,17
17,test,1,con,1,m,Wed May 13 2026 13:31:04 GMT-0400 (Eastern Daylight Time),200120.90000009537,rock,1100,I,m,m,None,492,292.0,200.0,76,2,2123.0999999046326,197997.80000019073,9047,rock,AF,B,190790,190790,188967,190074,188967,191090,190590,190590,191090,18
18,test,1,con,1,m,Wed May 13 2026 13:31:04 GMT-0400 (Eastern Daylight Time),202337.70000004768,bell,1000,I,m,m,None,681,482.0,199.0,83,2,2207.899999856949,200129.80000019073,9047,bell,AF,B,192824,192824,191099,192107,191099,193307,192624,192624,193307,19
19,test,1,con,1,m,Wed May 13 2026 13:31:04 GMT-0400 (Eastern Daylight Time),204437.60000014305,window,1100,I,m,m,None,460,261.0,199.0,124,2,2088.5,202349.10000014305,9047,window,AF,B,195141,195141,193318,194424,193318,195407,194940,194941,195407,20
20,test,1,inc,1,z,Wed May 13 2026 13:31:04 GMT-0400 (Eastern Daylight Time),206621.0,remote,1000,I,z,z,None,637,438.0,199.0,63,2,2173.5999999046326,204447.40000009537,9047,temper,AF,B,197141,197141,195416,196424,195417,197590,196941,196941,197590,21
21,test,1,inc,1,m,Wed May 13 2026 13:31:04 GMT-0400 (Eastern Daylight Time),208704.30000019073,kind,900,I,m,m,None,633,434.0,199.0,78,2,2072.4000000953674,206631.90000009537,9047,rock,AF,B,199224,199224,197601,198507,197601,199673,199024,199024,199673,22
22,test,1,con,1,m,Wed May 13 2026 13:31:04 GMT-0400 (Eastern Daylight Time),210770.60000014305,jacket,900,I,m,m,None,630,431.0,199.0,98,2,2056.7999999523163,208713.80000019073,9047,jacket,AF,B,201307,201307,199683,200590,199683,201740,201107,201107,201740,23
23,test,1,inc,1,m,Wed May 13 2026 13:31:04 GMT-0400 (Eastern Daylight Time),212787.30000019073,brutal,900,I,m,m,None,579,380.0,199.0,102,2,2007.1000001430511,210780.20000004768,9047,jacket,AF,B,203374,203374,201749,202657,201750,203756,203174,203174,203756,24
24,test,1,con,1,z,Wed May 13 2026 13:31:04 GMT-0400 (Eastern Daylight Time),214737.80000019073,friend,900,I,z,z,None,515,315.0,200.0,26,2,1939.2000000476837,212798.60000014305,9047,friend,AF,B,205391,205391,203768,204674,203768,205707,205190,205190,205707,25
25,test,1,inc,1,z,Wed May 13 2026 13:31:04 GMT-0400 (Eastern Daylight Time),216854.20000004768,jacket,800,I,z,z,None,777,578.0,199.0,37,2,2105.7999999523163,214748.40000009537,9047,brutal,AF,B,207240,207241,205717,206524,205718,207823,207040,207041,207823,26
26,test,1,inc,1,m,Wed May 13 2026 13:31:04 GMT-0400 (Eastern Daylight Time),218820.90000009537,rage,800,I,m,m,None,629,429.0,200.0,85,2,1958.5,216862.40000009537,9047,bell,AF,B,209357,209357,207831,208640,207832,209790,209157,209157,209790,27
27,test,1,con,1,m,Wed May 13 2026 13:31:04 GMT-0400 (Eastern Daylight Time),220937.60000014305,napkin,1000,I,m,m,None,573,374.0,199.0,107,2,2108.0,218829.60000014305,9047,napkin,AF,B,211524,211524,209799,210807,209799,211907,211324,211324,211907,28
28,test,1,inc,1,z,Wed May 13 2026 13:31:04 GMT-0400 (Eastern Daylight Time),223021.0,rock,900,I,z,z,None,638,438.0,200.0,22,2,2074.7999999523163,220946.20000004768,9047,love,AF,B,213540,213540,211915,212824,211916,213990,213340,213340,213990,29
29,test,1,inc,1,m,Wed May 13 2026 13:31:04 GMT-0400 (Eastern Daylight Time),225187.30000019073,temper,1000,I,m,m,None,629,430.0,199.0,103,2,2154.2000000476837,223033.10000014305,9047,jacket,AF,B,215724,215724,214002,215007,214002,216156,215524,215524,216156,30
30,test,1,inc,1,z,Wed May 13 2026 13:31:04 GMT-0400 (Eastern Daylight Time),227054.30000019073,step,800,I,z,z,None,520,321.0,199.0,21,2,1858.0,225196.30000019073,9047,love,AF,B,217690,217690,216165,216974,216166,218023,217491,217491,218023,31
31,test,1,inc,1,m,Wed May 13 2026 13:31:04 GMT-0400 (Eastern Daylight Time),229020.70000004768,rage,800,I,m,m,None,621,421.0,200.0,77,2,1956.0999999046326,227064.60000014305,9047,rock,AF,B,219557,219557,218034,218840,218034,219990,219356,219356,219990,32
32,test,1,con,1,m,Wed May 13 2026 13:31:04 GMT-0400 (Eastern Daylight Time),231454.20000004768,bell,1100,I,m,m,None,785,586.0,199.0,84,2,2418.899999856949,229035.30000019073,9047,bell,AF,B,221824,221824,220004,221107,220005,222423,221624,221624,222423,33
33,test,1,con,1,z,Wed May 13 2026 13:31:04 GMT-0400 (Eastern Daylight Time),233620.90000009537,elated,1000,I,z,z,None,628,429.0,199.0,3,2,2157.9000000953674,231463.0,9047,elated,AF,B,224157,224157,222432,223440,222432,224590,223957,223957,224590,34
34,test,1,con,1,z,Wed May 13 2026 13:31:04 GMT-0400 (Eastern Daylight Time),235654.20000004768,temper,1000,I,z,z,None,493,294.0,199.0,59,2,2023.2000000476837,233631.0,9047,temper,AF,B,226324,226324,224600,225607,224600,226623,226124,226124,226623,35
35,test,1,inc,1,z,Wed May 13 2026 13:31:04 GMT-0400 (Eastern Daylight Time),237721.0,bell,1000,I,z,z,None,525,326.0,199.0,23,2,2058.5999999046326,235662.40000009537,9047,love,AF,B,228357,228357,226631,227640,226632,228690,228157,228157,228690,36
36,test,1,con,1,m,Wed May 13 2026 13:31:04 GMT-0400 (Eastern Daylight Time),239654.30000019073,napkin,900,I,m,m,None,493,294.0,199.0,106,2,1924.3000001907349,237730.0,9047,napkin,AF,B,230324,230324,228699,229607,228699,230623,230124,230124,230623,37
37,test,1,con,1,z,Wed May 13 2026 13:31:04 GMT-0400 (Eastern Daylight Time),241570.70000004768,love,900,I,z,z,None,481,281.0,200.0,18,2,1907.2000000476837,239663.5,9047,love,AF,B,232257,232257,230633,231540,230633,232540,232057,232057,232540,38
38,test,1,inc,1,z,Wed May 13 2026 13:31:04 GMT-0400 (Eastern Daylight Time),243587.30000019073,rock,900,I,z,z,None,579,380.0,199.0,54,2,2005.5,241581.80000019073,9047,rage,AF,B,234174,234174,232551,233457,232551,234556,233974,233974,234556,39
39,test,1,con,1,z,Wed May 13 2026 13:31:04 GMT-0400 (Eastern Daylight Time),245321.0,temper,800,I,z,z,None,391,191.0,200.0,57,2,1724.7999999523163,243596.20000004768,9047,temper,AF,B,236090,236091,234565,235373,234566,236290,235890,235890,236290,40
40,test,1,inc,1,m,Wed May 13 2026 13:31:04 GMT-0400 (Eastern Daylight Time),247204.10000014305,rage,800,I,m,m,None,545,346.0,199.0,93,2,1873.4000000953674,245330.70000004768,9047,film,AF,B,237824,237824,236300,237107,236300,238173,237624,237624,238173,41
41,test,1,con,1,z,Wed May 13 2026 13:31:04 GMT-0400 (Eastern Daylight Time),249154.20000004768,brutal,800,I,z,z,None,616,416.0,200.0,33,2,1940.7999999523163,247213.40000009537,9047,brutal,AF,B,239707,239707,238182,238990,238183,240123,239507,239507,240123,42
42,test,1,inc,1,z,Wed May 13 2026 13:31:04 GMT-0400 (Eastern Daylight Time),251054.40000009537,step,800,I,z,z,None,553,353.0,200.0,53,2,1890.0,249164.40000009537,9047,rage,AF,B,241657,241657,240133,240941,240134,242023,241457,241457,242023,43
43,test,1,con,1,z,Wed May 13 2026 13:31:04 GMT-0400 (Eastern Daylight Time),253004.30000019073,love,1000,I,z,z,None,405,205.0,200.0,19,2,1940.5,251063.80000019073,9047,love,AF,B,243757,243757,242033,243040,242033,243973,243557,243557,243973,44
44,test,1,inc,1,m,Wed May 13 2026 13:31:04 GMT-0400 (Eastern Daylight Time),255237.70000004768,friend,1100,I,m,m,None,595,395.0,200.0,104,2,2218.2000000476837,253019.5,9047,jacket,AF,B,245807,245807,243989,245090,243989,246207,245607,245607,246207,45
45,test,1,inc,1,z,Wed May 13 2026 13:31:04 GMT-0400 (Eastern Daylight Time),257454.30000019073,film,1100,I,z,z,None,569,369.0,200.0,48,2,2208.0,255246.30000019073,9047,hate,AF,B,248040,248041,246215,247324,246216,248423,247840,247840,248423,46
46,test,1,inc,1,m,Wed May 13 2026 13:31:04 GMT-0400 (Eastern Daylight Time),259604.10000014305,temper,1000,I,m,m,None,614,414.0,200.0,127,2,2138.9000000953674,257465.20000004768,9047,window,AF,B,250157,250157,248434,249441,248435,250573,249957,249957,250573,47
47,test,1,inc,1,z,Wed May 13 2026 13:31:04 GMT-0400 (Eastern Daylight Time),261687.60000014305,rock,900,I,z,z,None,643,443.0,200.0,46,2,2074.2999999523163,259613.30000019073,9047,hate,AF,B,252207,252207,250582,251490,250583,252657,252007,252007,252657,48
48,test,1,inc,1,m,Wed May 13 2026 13:31:04 GMT-0400 (Eastern Daylight Time),263871.0,friend,1100,I,m,m,None,535,335.0,200.0,120,2,2172.699999809265,261698.30000019073,9047,remote,AF,B,254491,254491,252667,253774,252668,254840,254290,254290,254840,49
49,test,1,con,1,m,Wed May 13 2026 13:31:04 GMT-0400 (Eastern Daylight Time),266004.2000000477,jacket,1000,I,m,m,None,595,396.0,199.0,99,2,2123.399999856949,263880.80000019073,9047,jacket,AF,B,256574,256574,254850,255857,254850,256973,256374,256374,256973,50
50,test,1,inc,1,z,Wed May 13 2026 13:31:04 GMT-0400 (Eastern Daylight Time),267920.90000009537,step,800,I,z,z,None,567,367.0,200.0,13,2,1907.7999999523163,266013.10000014305,9047,kind,AF,B,258507,258507,256982,257790,256982,258890,258307,258307,258890,51
51,test,1,con,1,z,Wed May 13 2026 13:31:04 GMT-0400 (Eastern Daylight Time),270287.60000014305,hate,1100,I,z,z,None,718,519.0,199.0,44,2,2356.5,267931.10000014305,9047,hate,AF,B,260724,260724,258900,260007,258900,261257,260524,260524,261257,52
52,test,1,con,1,m,Wed May 13 2026 13:31:04 GMT-0400 (Eastern Daylight Time),272387.40000009537,film,900,I,m,m,None,663,463.0,200.0,90,2,2090.2000000476837,270297.2000000477,9047,film,AF,B,262891,262891,261266,262174,261267,263356,262690,262690,263356,53
53,test,1,inc,1,z,Wed May 13 2026 13:31:04 GMT-0400 (Eastern Daylight Time),274504.2000000477,bell,1000,I,z,z,None,575,375.0,200.0,47,2,2106.7999999523163,272397.40000009537,9047,hate,AF,B,265090,265091,263366,264374,263367,265473,264890,264890,265473,54
54,test,1,inc,1,z,Wed May 13 2026 13:31:04 GMT-0400 (Eastern Daylight Time),276887.60000014305,window,1100,I,z,z,None,743,543.0,200.0,32,2,2372.0,274515.60000014305,9047,friend,AF,B,267307,267307,265485,266590,265485,267857,267107,267107,267857,55
55,test,1,con,1,m,Wed May 13 2026 13:31:04 GMT-0400 (Eastern Daylight Time),279021.0,step,1100,I,m,m,None,488,288.0,200.0,68,2,2123.5999999046326,276897.40000009537,9047,step,AF,B,269690,269690,267866,268974,267867,269990,269490,269490,269990,56
56,test,1,inc,1,m,Wed May 13 2026 13:31:04 GMT-0400 (Eastern Daylight Time),280987.60000014305,brutal,900,I,m,m,None,522,323.0,199.0,110,2,1956.7999999523163,279030.80000019073,9047,napkin,AF,B,271624,271624,270000,270907,270000,271957,271424,271424,271957,57
57,test,1,inc,1,z,Wed May 13 2026 13:31:04 GMT-0400 (Eastern Daylight Time),283004.30000019073,rock,900,I,z,z,None,571,371.0,200.0,14,2,2007.5,280996.80000019073,9047,kind,AF,B,273590,273591,271966,272874,271966,273973,273390,273390,273973,58
58,test,1,inc,1,z,Wed May 13 2026 13:31:04 GMT-0400 (Eastern Daylight Time),285137.60000014305,napkin,900,I,z,z,None,683,483.0,200.0,62,2,2122.0,283015.60000014305,9047,temper,AF,B,275607,275607,273985,274890,273985,276107,275407,275407,276107,59
59,test,1,con,1,z,Wed May 13 2026 13:31:04 GMT-0400 (Eastern Daylight Time),287187.40000009537,rage,1000,I,z,z,None,514,315.0,199.0,51,2,2040.7000000476837,285146.7000000477,9047,rage,AF,B,277840,277840,276116,277124,276116,278156,277640,277641,278156,60
60,test,1,inc,1,m,Wed May 13 2026 13:31:04 GMT-0400 (Eastern Daylight Time),289304.30000019073,love,1000,I,m,m,None,575,375.0,200.0,95,2,2107.300000190735,287197.0,9047,film,AF,B,279891,279891,278166,279173,278166,280273,279690,279690,280273,61
61,test,1,con,1,z,Wed May 13 2026 13:31:04 GMT-0400 (Eastern Daylight Time),291254.2000000477,kind,800,I,z,z,None,611,412.0,199.0,9,2,1940.7000000476837,289313.5,9047,kind,AF,B,281807,281807,280282,281090,280283,282223,281607,281607,282223,62
62,test,1,con,1,z,Wed May 13 2026 13:31:04 GMT-0400 (Eastern Daylight Time),293137.60000014305,friend,800,I,z,z,None,533,333.0,200.0,25,2,1875.4000000953674,291262.2000000477,9047,friend,AF,B,283757,283757,282231,283040,282232,284107,283557,283557,284107,63
63,test,1,inc,1,m,Wed May 13 2026 13:31:04 GMT-0400 (Eastern Daylight Time),295287.60000014305,friend,1100,I,m,m,None,509,309.0,200.0,112,2,2140.5,293147.10000014305,9047,napkin,AF,B,285941,285941,284116,285224,284117,286257,285740,285740,286257,64
64,test,1,inc,1,m,Wed May 13 2026 13:31:04 GMT-0400 (Eastern Daylight Time),297254.2000000477,brutal,900,I,m,m,None,527,328.0,199.0,126,2,1956.7999999523163,295297.40000009537,9047,window,AF,B,287890,287890,286266,287174,286267,288223,287690,287691,288223,65
65,test,1,inc,1,m,Wed May 13 2026 13:31:04 GMT-0400 (Eastern Daylight Time),299537.7000000477,hate,1100,I,m,m,None,633,433.0,200.0,80,2,2274.0,297263.7000000477,9047,rock,AF,B,290057,290057,288233,289341,288233,290507,289857,289857,290507,66
66,test,1,con,1,z,Wed May 13 2026 13:31:04 GMT-0400 (Eastern Daylight Time),301904.10000014305,hate,900,I,z,z,None,917,717.0,200.0,42,2,2356.2999999523163,299547.80000019073,9047,hate,AF,B,292141,292141,290517,291424,290517,292873,291940,291940,292873,67
67,test,1,inc,1,z,Wed May 13 2026 13:31:04 GMT-0400 (Eastern Daylight Time),304004.2000000477,remote,1000,I,z,z,None,563,363.0,200.0,31,2,2088.7999999523163,301915.40000009537,9047,friend,AF,B,294607,294607,292884,293890,292885,294973,294407,294407,294973,68
68,test,1,con,1,z,Wed May 13 2026 13:31:04 GMT-0400 (Eastern Daylight Time),305937.7000000477,friend,1000,I,z,z,None,383,183.0,200.0,27,2,1923.8999998569489,304013.80000019073,9047,friend,AF,B,296707,296707,294983,295991,294983,296907,296507,296507,296907,69
69,test,1,inc,1,z,Wed May 13 2026 13:31:04 GMT-0400 (Eastern Daylight Time),308104.2000000477,remote,1000,I,z,z,None,625,425.0,200.0,39,2,2154.7000000476837,305949.5,9047,brutal,AF,B,298640,298641,296919,297924,296919,299073,298440,298440,299073,70
70,test,1,con,1,z,Wed May 13 2026 13:31:04 GMT-0400 (Eastern Daylight Time),310104.2000000477,brutal,1000,I,z,z,None,459,259.0,200.0,35,2,1991.2000000476837,308113.0,9047,brutal,AF,B,300807,300807,299082,300090,299082,301073,300607,300607,301073,71
71,test,1,inc,1,z,Wed May 13 2026 13:31:04 GMT-0400 (Eastern Daylight Time),312237.7000000477,film,1100,I,z,z,None,488,288.0,200.0,16,2,2124.5999999046326,310113.10000014305,9047,kind,AF,B,302907,302907,301082,302190,301082,303207,302707,302707,303207,72
72,test,1,inc,1,m,Wed May 13 2026 13:31:04 GMT-0400 (Eastern Daylight Time),314370.7000000477,love,1000,I,m,m,None,597,397.0,200.0,87,2,2121.7999999523163,312248.90000009537,9047,bell,AF,B,304941,304941,303218,304224,303218,305340,304740,304740,305340,73
73,test,1,con,1,m,Wed May 13 2026 13:31:04 GMT-0400 (Eastern Daylight Time),316553.80000019073,napkin,1100,I,m,m,None,538,339.0,199.0,108,2,2171.600000143051,314382.2000000477,9047,napkin,AF,B,307174,307174,305351,306457,305352,307523,306974,306974,307523,74
74,test,1,con,1,z,Wed May 13 2026 13:31:04 GMT-0400 (Eastern Daylight Time),318704.40000009537,temper,1100,I,z,z,None,501,301.0,200.0,60,2,2144.5999999046326,316559.80000019073,9047,temper,AF,B,309357,309357,307529,308641,307529,309673,309157,309157,309673,75
75,test,1,con,1,z,Wed May 13 2026 13:31:04 GMT-0400 (Eastern Daylight Time),320721.0,friend,1100,I,z,z,None,367,167.0,200.0,28,2,2006.7999999523163,318714.2000000477,9047,friend,AF,B,311507,311507,309683,310791,309683,311690,311307,311307,311690,76
76,test,1,con,1,z,Wed May 13 2026 13:31:04 GMT-0400 (Eastern Daylight Time),322470.90000009537,hate,800,I,z,z,None,410,211.0,199.0,41,2,1740.9000000953674,320730.0,9047,hate,AF,B,313224,313224,311699,312507,311700,313440,313024,313024,313440,77
77,test,1,inc,1,z,Wed May 13 2026 13:31:04 GMT-0400 (Eastern Daylight Time),324671.0,window,1100,I,z,z,None,551,352.0,199.0,40,2,2190.2999999523163,322480.7000000477,9047,brutal,AF,B,315274,315274,313450,314557,313450,315640,315074,315074,315640,78
78,test,1,con,1,m,Wed May 13 2026 13:31:04 GMT-0400 (Eastern Daylight Time),326504.30000019073,bell,800,I,m,m,None,491,292.0,199.0,81,2,1823.9000000953674,324680.40000009537,9047,bell,AF,B,317174,317174,315649,316457,315650,317473,316974,316974,317473,79
79,test,1,con,1,z,Wed May 13 2026 13:31:04 GMT-0400 (Eastern Daylight Time),328554.30000019073,kind,1000,I,z,z,None,507,307.0,200.0,11,2,2040.1000001430511,326514.2000000477,9047,kind,AF,B,319207,319207,317483,318490,317483,319523,319007,319007,319523,80
80,test,1,con,1,z,Wed May 13 2026 13:31:04 GMT-0400 (Eastern Daylight Time),330621.10000014305,rage,1100,I,z,z,None,421,221.0,200.0,52,2,2054.7999999523163,328566.30000019073,9047,rage,AF,B,321357,321357,319535,320640,319536,321590,321157,321157,321590,81
81,test,1,con,1,z,Wed May 13 2026 13:31:04 GMT-0400 (Eastern Daylight Time),332471.0,temper,900,I,z,z,None,409,210.0,199.0,58,2,1840.6999998092651,330630.30000019073,9047,temper,AF,B,323224,323224,321599,322507,321600,323440,323024,323024,323440,82
82,test,1,inc,1,m,Wed May 13 2026 13:31:04 GMT-0400 (Eastern Daylight Time),334504.40000009537,love,1000,I,m,m,None,492,293.0,199.0,71,2,2024.5,332479.90000009537,9047,step,AF,B,325174,325174,323449,324457,323449,325474,324974,324974,325473,83
83,test,1,inc,1,z,Wed May 13 2026 13:31:04 GMT-0400 (Eastern Daylight Time),336687.7000000477,remote,1000,I,z,z,None,636,436.0,200.0,7,2,2174.7000000476837,334513.0,9047,elated,AF,B,327207,327207,325482,326490,325482,327657,327007,327007,327657,84
84,test,1,con,1,m,Wed May 13 2026 13:31:04 GMT-0400 (Eastern Daylight Time),338487.60000014305,jacket,800,I,m,m,None,459,259.0,200.0,97,2,1791.2999999523163,336696.30000019073,9047,jacket,AF,B,329191,329191,327665,328474,327666,329457,328990,328990,329457,85
84,test,1,con,0,z,Wed May 13 2026 13:31:04 GMT-0400 (Eastern Daylight Time),340521.0,elated,1100,I,m,m,None,391,191.0,200.0,4,2,2024.5999999046326,338496.40000009537,9047,elated,AF,B,331291,331291,329465,330574,329466,331490,331090,331090,331490,86
85,test,1,con,1,z,Wed May 13 2026 13:31:04 GMT-0400 (Eastern Daylight Time),342304.40000009537,elated,800,I,z,z,None,433,234.0,199.0,1,2,1774.0999999046326,340530.30000019073,9047,elated,AF,B,333024,333024,331499,332307,331500,333274,332824,332824,333273,87
86,test,1,inc,1,m,Wed May 13 2026 13:31:04 GMT-0400 (Eastern Daylight Time),344254.40000009537,rage,800,I,m,m,None,603,403.0,200.0,69,2,1940.9000000953674,342313.5,9047,step,AF,B,334807,334807,333283,334091,333283,335224,334607,334607,335223,88
87,test,1,inc,1,m,Wed May 13 2026 13:31:04 GMT-0400 (Eastern Daylight Time),346304.40000009537,kind,900,I,m,m,None,601,401.0,200.0,94,2,2040.7999999523163,344263.60000014305,9047,film,AF,B,336857,336857,335233,336140,335233,337273,336657,336657,337273,89
88,test,1,con,1,z,Wed May 13 2026 13:31:04 GMT-0400 (Eastern Daylight Time),348071.0,love,800,I,z,z,None,427,227.0,200.0,17,2,1757.7999999523163,346313.2000000477,9047,love,AF,B,338807,338807,337282,338090,337283,339040,338607,338607,339040,90
88,test,1,con,0,m,Wed May 13 2026 13:31:04 GMT-0400 (Eastern Daylight Time),350037.60000014305,rock,1000,I,z,z,None,427,228.0,199.0,75,2,1957.2000000476837,348080.40000009537,9047,rock,AF,B,340774,340774,339049,340057,339050,341007,340574,340574,341007,91
89,test,1,con,1,m,Wed May 13 2026 13:31:04 GMT-0400 (Eastern Daylight Time),352221.0,remote,1100,I,m,m,None,537,337.0,200.0,116,2,2174.199999809265,350046.80000019073,9047,remote,AF,B,342841,342841,341016,342124,341016,343190,342640,342640,343190,92
90,test,1,con,1,m,Wed May 13 2026 13:31:04 GMT-0400 (Eastern Daylight Time),354104.30000019073,bell,900,I,m,m,None,442,243.0,199.0,82,2,1873.7000000476837,352230.60000014305,9047,bell,AF,B,344824,344824,343200,344107,343200,345073,344624,344624,345073,93
91,test,1,inc,1,m,Wed May 13 2026 13:31:04 GMT-0400 (Eastern Daylight Time),356204.2000000477,temper,1000,I,m,m,None,555,355.0,200.0,119,2,2090.899999856949,354113.30000019073,9047,remote,AF,B,346807,346807,345082,346091,345083,347173,346607,346607,347173,94
92,test,1,con,1,m,Wed May 13 2026 13:31:04 GMT-0400 (Eastern Daylight Time),358171.0,step,900,I,m,m,None,524,324.0,200.0,66,2,1955.0,356216.0,9047,step,AF,B,348807,348807,347185,348091,347185,349140,348607,348607,349140,95
93,test,1,inc,1,z,Wed May 13 2026 13:31:04 GMT-0400 (Eastern Daylight Time),360037.60000014305,step,800,I,z,z,None,527,328.0,199.0,45,2,1856.4000000953674,358181.2000000477,9047,hate,AF,B,350674,350674,349150,349957,349150,351007,350474,350474,351007,96
94,test,1,inc,1,m,Wed May 13 2026 13:31:04 GMT-0400 (Eastern Daylight Time),362004.2000000477,elated,800,I,m,m,None,630,430.0,200.0,117,2,1957.3999998569489,360046.80000019073,9047,remote,AF,B,352541,352541,351016,351824,351016,352973,352340,352340,352973,97
95,test,1,inc,1,z,Wed May 13 2026 13:31:04 GMT-0400 (Eastern Daylight Time),364254.30000019073,window,1100,I,z,z,None,603,403.0,200.0,8,2,2241.0,362013.30000019073,9047,elated,AF,B,354807,354807,352982,354090,352983,355223,354607,354607,355223,98
96,test,1,con,1,m,Wed May 13 2026 13:31:04 GMT-0400 (Eastern Daylight Time),366487.7000000477,film,1100,I,m,m,None,592,392.0,200.0,92,2,2224.5,364263.2000000477,9047,film,AF,B,357058,357058,355232,356341,355233,357457,356857,356857,357457,99
97,test,1,inc,1,m,Wed May 13 2026 13:31:04 GMT-0400 (Eastern Daylight Time),368504.30000019073,kind,900,I,m,m,None,576,376.0,200.0,86,2,2007.3000001907349,366497.0,9047,bell,AF,B,359091,359091,357466,358374,357467,359473,358890,358890,359473,100
97,test,1,inc,0,z,Wed May 13 2026 13:31:04 GMT-0400 (Eastern Daylight Time),370604.30000019073,jacket,800,I,m,m,None,755,555.0,200.0,29,2,2089.4000000953674,368514.90000009537,9047,friend,AF,B,361007,361007,359484,360290,359484,361573,360807,360807,361573,101
98,test,1,con,1,z,Wed May 13 2026 13:31:04 GMT-0400 (Eastern Daylight Time),372754.10000014305,kind,900,I,z,z,None,715,515.0,200.0,10,2,2140.5,370613.60000014305,9047,kind,AF,B,363207,363207,361583,362490,361583,363723,363007,363007,363723,102
99,test,1,inc,1,m,Wed May 13 2026 13:31:04 GMT-0400 (Eastern Daylight Time),375071.0,friend,1100,I,m,m,None,669,469.0,200.0,128,2,2307.699999809265,372763.30000019073,9047,window,AF,B,365557,365557,363732,364840,363733,366040,365357,365357,366040,103
100,test,1,con,1,m,Wed May 13 2026 13:31:04 GMT-0400 (Eastern Daylight Time),377170.80000019073,remote,1000,I,m,m,None,563,364.0,199.0,115,2,2089.9000000953674,375080.90000009537,9047,remote,AF,B,367774,367774,366050,367057,366050,368140,367574,367574,368140,104
101,test,1,con,1,z,Wed May 13 2026 13:31:04 GMT-0400 (Eastern Daylight Time),379371.0,kind,1100,I,z,z,None,556,357.0,199.0,12,2,2190.899999856949,377180.10000014305,9047,kind,AF,B,369974,369974,368149,369257,368149,370340,369774,369774,370340,105
102,test,1,inc,1,z,Wed May 13 2026 13:31:04 GMT-0400 (Eastern Daylight Time),381538.2000000477,napkin,900,I,z,z,None,732,533.0,199.0,38,2,2156.0,379382.2000000477,9047,brutal,AF,B,371974,371974,370351,371257,370351,372507,371774,371774,372507,106
103,test,1,con,1,z,Wed May 13 2026 13:31:04 GMT-0400 (Eastern Daylight Time),383421.10000014305,elated,900,I,z,z,None,438,238.0,200.0,2,2,1871.4000000953674,381549.7000000477,9047,elated,AF,B,374141,374141,372519,373424,372519,374390,373940,373940,374390,107
104,test,1,con,1,m,Wed May 13 2026 13:31:04 GMT-0400 (Eastern Daylight Time),385254.30000019073,film,800,I,m,m,None,494,295.0,199.0,89,2,1825.0,383429.30000019073,9047,film,AF,B,375924,375924,374398,375207,374399,376223,375724,375724,376223,108
105,test,1,inc,1,m,Wed May 13 2026 13:31:04 GMT-0400 (Eastern Daylight Time),387387.7000000477,brutal,900,I,m,m,None,688,488.0,200.0,118,2,2124.0,385263.7000000477,9047,remote,AF,B,377858,377858,376233,377141,376233,378357,377657,377657,378357,109
106,test,1,con,1,m,Wed May 13 2026 13:31:04 GMT-0400 (Eastern Daylight Time),389387.60000014305,window,1000,I,m,m,None,455,256.0,199.0,123,2,1988.6000001430511,387399.0,9047,window,AF,B,380091,380091,378368,379374,378368,380357,379890,379891,380357,110
107,test,1,inc,1,m,Wed May 13 2026 13:31:04 GMT-0400 (Eastern Daylight Time),391671.0,hate,1100,I,m,m,None,644,444.0,200.0,88,2,2274.7999999523163,389396.2000000477,9047,bell,AF,B,382190,382190,380365,381474,380366,382640,381990,381990,382640,111
108,test,1,con,1,m,Wed May 13 2026 13:31:04 GMT-0400 (Eastern Daylight Time),393871.10000014305,napkin,800,I,m,m,None,851,652.0,199.0,105,2,2191.600000143051,391679.5,9047,napkin,AF,B,384174,384174,382649,383457,382649,384840,383974,383974,384840,112
109,test,1,inc,1,m,Wed May 13 2026 13:31:04 GMT-0400 (Eastern Daylight Time),395988.7000000477,temper,1000,I,m,m,None,579,380.0,199.0,111,2,2105.5,393883.2000000477,9047,napkin,AF,B,386574,386574,384852,385857,384853,386958,386374,386374,386958,113
110,test,1,con,1,m,Wed May 13 2026 13:31:04 GMT-0400 (Eastern Daylight Time),398071.0,rock,900,I,m,m,None,644,444.0,200.0,74,2,2073.199999809265,395997.80000019073,9047,rock,AF,B,388590,388590,386967,387874,386967,389040,388390,388390,389040,114
111,test,1,inc,1,z,Wed May 13 2026 13:31:04 GMT-0400 (Eastern Daylight Time),400121.0,bell,1000,I,z,z,None,508,309.0,199.0,15,2,2041.5999999046326,398079.40000009537,9047,kind,AF,B,390774,390774,389048,390057,389049,391090,390574,390574,391090,115
112,test,1,inc,1,m,Wed May 13 2026 13:31:04 GMT-0400 (Eastern Daylight Time),402337.60000014305,hate,1100,I,m,m,None,566,367.0,199.0,96,2,2207.600000143051,400130.0,9047,film,AF,B,392924,392924,391099,392207,391099,393307,392724,392724,393307,116
113,test,1,inc,1,z,Wed May 13 2026 13:31:04 GMT-0400 (Eastern Daylight Time),404487.60000014305,window,1100,I,z,z,None,510,310.0,200.0,64,2,2140.600000143051,402347.0,9047,temper,AF,B,395140,395140,393316,394424,393316,395457,394940,394940,395457,117
114,test,1,con,1,m,Wed May 13 2026 13:31:04 GMT-0400 (Eastern Daylight Time),406621.10000014305,remote,900,I,m,m,None,687,487.0,200.0,114,2,2119.9000000953674,404501.2000000477,9047,remote,AF,B,397090,397091,395470,396374,395471,397590,396890,396890,397590,118
115,test,1,con,1,m,Wed May 13 2026 13:31:04 GMT-0400 (Eastern Daylight Time),408854.30000019073,jacket,1100,I,m,m,None,595,396.0,199.0,100,2,2224.600000143051,406629.7000000477,9047,jacket,AF,B,399423,399423,397599,398707,397599,399823,399224,399224,399823,119
116,test,1,inc,1,m,Wed May 13 2026 13:31:04 GMT-0400 (Eastern Daylight Time),410837.7000000477,elated,800,I,m,m,None,646,446.0,200.0,125,2,1975.2000000476837,408862.5,9047,window,AF,B,401357,401357,399832,400640,399832,401807,401157,401157,401807,120
117,test,1,inc,1,z,Wed May 13 2026 13:31:04 GMT-0400 (Eastern Daylight Time),412954.40000009537,film,1100,I,z,z,None,474,274.0,200.0,24,2,2107.5999999046326,410846.80000019073,9047,love,AF,B,403641,403641,401816,402924,401816,403924,403440,403440,403923,121
118,test,1,inc,1,m,Wed May 13 2026 13:31:04 GMT-0400 (Eastern Daylight Time),415204.30000019073,hate,1100,I,m,m,None,614,414.0,200.0,72,2,2240.7000000476837,412963.60000014305,9047,step,AF,B,405757,405757,403933,405041,403933,406173,405557,405557,406173,122
119,test,1,con,1,m,Wed May 13 2026 13:31:04 GMT-0400 (Eastern Daylight Time),417138.10000014305,remote,800,I,m,m,None,600,400.0,200.0,113,2,1924.7999999523163,415213.30000019073,9047,remote,AF,B,407707,407707,406182,406990,406183,408107,407507,407507,408107,123
120,test,1,con,1,z,Wed May 13 2026 13:31:04 GMT-0400 (Eastern Daylight Time),419237.7000000477,hate,1000,I,z,z,None,561,361.0,200.0,43,2,2092.2000000476837,417145.5,9047,hate,AF,B,409841,409841,408115,409124,408115,410207,409640,409640,410207,124
121,test,1,inc,1,m,Wed May 13 2026 13:31:04 GMT-0400 (Eastern Daylight Time),421254.40000009537,kind,900,I,m,m,None,578,378.0,200.0,70,2,2006.5999999046326,419247.80000019073,9047,step,AF,B,411840,411841,410217,411124,410217,412223,411640,411640,412223,125
122,test,1,con,1,m,Wed May 13 2026 13:31:04 GMT-0400 (Eastern Daylight Time),423170.80000019073,window,900,I,m,m,None,482,282.0,200.0,122,2,1905.6000001430511,421265.2000000477,9047,window,AF,B,413857,413857,412234,413141,412234,414140,413657,413657,414140,126
123,test,1,inc,1,z,Wed May 13 2026 13:31:04 GMT-0400 (Eastern Daylight Time),425087.7000000477,jacket,800,I,z,z,None,567,368.0,199.0,5,2,1907.0999999046326,423180.60000014305,9047,elated,AF,B,415674,415674,414150,414957,414150,416057,415474,415474,416057,127
124,test,1,inc,1,m,Wed May 13 2026 13:31:04 GMT-0400 (Eastern Daylight Time),426987.7000000477,elated,800,I,m,m,None,554,355.0,199.0,101,2,1890.2999999523163,425097.40000009537,9047,jacket,AF,B,417590,417591,416066,416874,416067,417957,417391,417391,417957,128
