block_c,block_dur,condition,countdown,datetime,endtime,list,multichar_response,project,response,response_time,session_number,start_end,starttime,subject_id,task,task_vers,trial
,,,,Thu Jan 22 2026 11:00:58 GMT-0600 (Central Standard Time),,,,O,space,5589,1,,,7728,WL,C,
prac,,0,,Thu Jan 22 2026 11:00:58 GMT-0600 (Central Standard Time),,NA,b,O,b,3105,1,,,7728,WL,C,1.0
prac,,0,,Thu Jan 22 2026 11:00:58 GMT-0600 (Central Standard Time),,NA,bo,O,o,416,1,,,7728,WL,C,1.0
prac,,0,,Thu Jan 22 2026 11:00:58 GMT-0600 (Central Standard Time),,NA,boo,O,o,192,1,,,7728,WL,C,1.0
prac,,0,,Thu Jan 22 2026 11:00:58 GMT-0600 (Central Standard Time),,NA,boos,O,s,167,1,,,7728,WL,C,1.0
prac,,0,,Thu Jan 22 2026 11:00:58 GMT-0600 (Central Standard Time),,NA,boost,O,t,363,1,,,7728,WL,C,1.0
prac,,0,,Thu Jan 22 2026 11:00:58 GMT-0600 (Central Standard Time),,NA,boostenter,O,enter,3364,1,,,7728,WL,C,1.0
1,1.6489999294281006,learn,58351.0000705719,Thu Jan 22 2026 11:00:58 GMT-0600 (Central Standard Time),138674.7000002861,A,t,O,t,1635,1,1649.3000001907349,137025.40000009537,7728,WL,C,1.0
1,1.8489999771118164,learn,58151.00002288818,Thu Jan 22 2026 11:00:58 GMT-0600 (Central Standard Time),138874.5,A,to,O,o,192,1,1849.0999999046326,137025.40000009537,7728,WL,C,1.0
1,2.2149999141693115,learn,57785.00008583069,Thu Jan 22 2026 11:00:58 GMT-0600 (Central Standard Time),139240.2000002861,A,tow,O,w,345,1,2214.800000190735,137025.40000009537,7728,WL,C,1.0
1,2.3980000019073486,learn,57601.99999809265,Thu Jan 22 2026 11:00:58 GMT-0600 (Central Standard Time),139423.60000038147,A,towe,O,e,163,1,2398.2000002861023,137025.40000009537,7728,WL,C,1.0
1,2.565000057220459,learn,57434.99994277954,Thu Jan 22 2026 11:00:58 GMT-0600 (Central Standard Time),139590.80000019073,A,tower,O,r,155,1,2565.4000000953674,137025.40000009537,7728,WL,C,1.0
1,4.263999938964844,learn,55736.000061035156,Thu Jan 22 2026 11:00:58 GMT-0600 (Central Standard Time),141289.10000038147,A,towerenter,O,enter,1692,1,4263.700000286102,137025.40000009537,7728,WL,C,1.0
1,13.827000141143799,learn,46172.9998588562,Thu Jan 22 2026 11:00:58 GMT-0600 (Central Standard Time),150852.7000002861,A,w,O,w,9555,1,9563.300000190735,141289.40000009537,7728,WL,C,2.0
1,14.246999979019165,learn,45753.000020980835,Thu Jan 22 2026 11:00:58 GMT-0600 (Central Standard Time),151272.60000038147,A,wh,O,h,415,1,9983.200000286102,141289.40000009537,7728,WL,C,2.0
1,14.344000101089478,learn,45655.99989891052,Thu Jan 22 2026 11:00:58 GMT-0600 (Central Standard Time),151369.60000038147,A,whe,O,e,92,1,10080.200000286102,141289.40000009537,7728,WL,C,2.0
1,14.59500002861023,learn,45404.99997138977,Thu Jan 22 2026 11:00:58 GMT-0600 (Central Standard Time),151620.60000038147,A,whes,O,s,235,1,10331.200000286102,141289.40000009537,7728,WL,C,2.0
1,14.864000082015991,learn,45135.99991798401,Thu Jan 22 2026 11:00:58 GMT-0600 (Central Standard Time),151889.40000009537,A,whest,O,t,247,1,10600.0,141289.40000009537,7728,WL,C,2.0
1,18.360000133514404,learn,41639.999866485596,Thu Jan 22 2026 11:00:58 GMT-0600 (Central Standard Time),155385.80000019073,A,whes,O,backspace,3492,1,14096.400000095367,141289.40000009537,7728,WL,C,2.0
1,18.875999927520752,learn,41124.00007247925,Thu Jan 22 2026 11:00:58 GMT-0600 (Central Standard Time),155901.80000019073,A,whe,O,backspace,505,1,14612.400000095367,141289.40000009537,7728,WL,C,2.0
1,19.9760000705719,learn,40023.9999294281,Thu Jan 22 2026 11:00:58 GMT-0600 (Central Standard Time),157001.90000009537,A,whea,O,a,1080,1,15712.5,141289.40000009537,7728,WL,C,2.0
1,20.225000143051147,learn,39774.99985694885,Thu Jan 22 2026 11:00:58 GMT-0600 (Central Standard Time),157250.60000038147,A,wheat,O,t,232,1,15961.200000286102,141289.40000009537,7728,WL,C,2.0
1,20.70900011062622,learn,39290.99988937378,Thu Jan 22 2026 11:00:58 GMT-0600 (Central Standard Time),157734.5,A,wheatenter,O,enter,474,1,16445.099999904633,141289.40000009537,7728,WL,C,2.0
1,21.64199995994568,learn,38358.00004005432,Thu Jan 22 2026 11:00:58 GMT-0600 (Central Standard Time),158667.80000019073,A,s,O,s,928,1,933.0,157734.80000019073,7728,WL,C,3.0
1,21.875,learn,38125.0,Thu Jan 22 2026 11:00:58 GMT-0600 (Central Standard Time),158900.40000009537,A,su,O,u,223,1,1165.5999999046326,157734.80000019073,7728,WL,C,3.0
1,22.02500009536743,learn,37974.99990463257,Thu Jan 22 2026 11:00:58 GMT-0600 (Central Standard Time),159050.2000002861,A,sug,O,g,145,1,1315.4000000953674,157734.80000019073,7728,WL,C,3.0
1,22.276999950408936,learn,37723.000049591064,Thu Jan 22 2026 11:00:58 GMT-0600 (Central Standard Time),159302.0,A,suga,O,a,234,1,1567.1999998092651,157734.80000019073,7728,WL,C,3.0
1,22.426000118255615,learn,37573.999881744385,Thu Jan 22 2026 11:00:58 GMT-0600 (Central Standard Time),159451.40000009537,A,sugar,O,r,134,1,1716.5999999046326,157734.80000019073,7728,WL,C,3.0
1,22.975000143051147,learn,37024.99985694885,Thu Jan 22 2026 11:00:58 GMT-0600 (Central Standard Time),160000.7000002861,A,sugarenter,O,enter,535,1,2265.9000000953674,157734.80000019073,7728,WL,C,3.0
1,24.009000062942505,learn,35990.999937057495,Thu Jan 22 2026 11:00:58 GMT-0600 (Central Standard Time),161034.5,A,q,O,q,1029,1,1033.5999999046326,160000.90000009537,7728,WL,C,4.0
1,24.225000143051147,learn,35774.99985694885,Thu Jan 22 2026 11:00:58 GMT-0600 (Central Standard Time),161250.2000002861,A,qu,O,u,209,1,1249.3000001907349,160000.90000009537,7728,WL,C,4.0
1,24.39300012588501,learn,35606.99987411499,Thu Jan 22 2026 11:00:58 GMT-0600 (Central Standard Time),161418.5,A,que,O,e,154,1,1417.5999999046326,160000.90000009537,7728,WL,C,4.0
1,24.54100012779236,learn,35458.99987220764,Thu Jan 22 2026 11:00:58 GMT-0600 (Central Standard Time),161566.90000009537,A,quee,O,e,138,1,1566.0,160000.90000009537,7728,WL,C,4.0
1,25.325000047683716,learn,34674.999952316284,Thu Jan 22 2026 11:00:58 GMT-0600 (Central Standard Time),162350.10000038147,A,queen,O,n,764,1,2349.2000002861023,160000.90000009537,7728,WL,C,4.0
1,25.85800004005432,learn,34141.99995994568,Thu Jan 22 2026 11:00:58 GMT-0600 (Central Standard Time),162882.90000009537,A,queenenter,O,enter,526,1,2882.0,160000.90000009537,7728,WL,C,4.0
1,26.473999977111816,learn,33526.00002288818,Thu Jan 22 2026 11:00:58 GMT-0600 (Central Standard Time),163499.90000009537,A,n,O,n,600,1,616.5999999046326,162883.30000019073,7728,WL,C,5.0
1,26.657000064849854,learn,33342.99993515015,Thu Jan 22 2026 11:00:58 GMT-0600 (Central Standard Time),163682.80000019073,A,na,O,a,162,1,799.5,162883.30000019073,7728,WL,C,5.0
1,26.7739999294281,learn,33226.0000705719,Thu Jan 22 2026 11:00:58 GMT-0600 (Central Standard Time),163799.2000002861,A,nai,O,i,95,1,915.9000000953674,162883.30000019073,7728,WL,C,5.0
1,26.907999992370605,learn,33092.000007629395,Thu Jan 22 2026 11:00:58 GMT-0600 (Central Standard Time),163933.5,A,nail,O,l,124,1,1050.1999998092651,162883.30000019073,7728,WL,C,5.0
1,27.308000087738037,learn,32691.999912261963,Thu Jan 22 2026 11:00:58 GMT-0600 (Central Standard Time),164333.0,A,nailenter,O,enter,381,1,1449.6999998092651,162883.30000019073,7728,WL,C,5.0
1,28.074000120162964,learn,31925.999879837036,Thu Jan 22 2026 11:00:58 GMT-0600 (Central Standard Time),165099.40000009537,A,b,O,b,758,1,766.0999999046326,164333.30000019073,7728,WL,C,6.0
1,28.256999969482422,learn,31743.000030517578,Thu Jan 22 2026 11:00:58 GMT-0600 (Central Standard Time),165282.2000002861,A,bo,O,o,175,1,948.9000000953674,164333.30000019073,7728,WL,C,6.0
1,28.57800006866455,learn,31421.99993133545,Thu Jan 22 2026 11:00:58 GMT-0600 (Central Standard Time),165603.0,A,boy,O,y,297,1,1269.6999998092651,164333.30000019073,7728,WL,C,6.0
1,30.08899998664856,learn,29911.00001335144,Thu Jan 22 2026 11:00:58 GMT-0600 (Central Standard Time),167114.30000019073,A,boyenter,O,enter,1495,1,2781.0,164333.30000019073,7728,WL,C,6.0
1,60.01200008392334,learn,-12.000083923339844,Thu Jan 22 2026 11:00:58 GMT-0600 (Central Standard Time),197038.7000002861,A,None,O,None,29921,1,29924.099999904633,167114.60000038147,7728,WL,C,7.0
2,1.3370001316070557,learn,58662.999868392944,Thu Jan 22 2026 11:00:58 GMT-0600 (Central Standard Time),275450.40000009537,A,b,O,b,1325,1,1336.4000000953674,274114.0,7728,WL,C,1.0
2,1.4670000076293945,learn,58532.999992370605,Thu Jan 22 2026 11:00:58 GMT-0600 (Central Standard Time),275580.5,A,bo,O,o,123,1,1466.5,274114.0,7728,WL,C,1.0
2,1.818000078201294,learn,58181.999921798706,Thu Jan 22 2026 11:00:58 GMT-0600 (Central Standard Time),275931.30000019073,A,boy,O,y,334,1,1817.3000001907349,274114.0,7728,WL,C,1.0
2,2.4680001735687256,learn,57531.999826431274,Thu Jan 22 2026 11:00:58 GMT-0600 (Central Standard Time),276581.30000019073,A,boyb,O,b,633,1,2467.300000190735,274114.0,7728,WL,C,1.0
2,2.5829999446868896,learn,57417.00005531311,Thu Jan 22 2026 11:00:58 GMT-0600 (Central Standard Time),276696.7000002861,A,boybo,O,o,104,1,2582.7000002861023,274114.0,7728,WL,C,1.0
2,3.2680001258850098,learn,56731.99987411499,Thu Jan 22 2026 11:00:58 GMT-0600 (Central Standard Time),277381.7000002861,A,boybod,O,d,668,1,3267.7000002861023,274114.0,7728,WL,C,1.0
2,3.450000047683716,learn,56549.999952316284,Thu Jan 22 2026 11:00:58 GMT-0600 (Central Standard Time),277563.80000019073,A,boybody,O,y,173,1,3449.800000190735,274114.0,7728,WL,C,1.0
2,4.515000104904175,learn,55484.999895095825,Thu Jan 22 2026 11:00:58 GMT-0600 (Central Standard Time),278628.10000038147,A,boybodyd,O,d,1058,1,4514.10000038147,274114.0,7728,WL,C,1.0
2,4.680999994277954,learn,55319.000005722046,Thu Jan 22 2026 11:00:58 GMT-0600 (Central Standard Time),278794.90000009537,A,boybodydo,O,o,161,1,4680.900000095367,274114.0,7728,WL,C,1.0
2,4.88100004196167,learn,55118.99995803833,Thu Jan 22 2026 11:00:58 GMT-0600 (Central Standard Time),278994.90000009537,A,boybodydoc,O,c,186,1,4880.900000095367,274114.0,7728,WL,C,1.0
2,5.166000127792358,learn,54833.99987220764,Thu Jan 22 2026 11:00:58 GMT-0600 (Central Standard Time),279279.40000009537,A,boybodydoct,O,t,267,1,5165.400000095367,274114.0,7728,WL,C,1.0
2,5.332000017166138,learn,54667.99998283386,Thu Jan 22 2026 11:00:58 GMT-0600 (Central Standard Time),279445.40000009537,A,boybodydocto,O,o,159,1,5331.400000095367,274114.0,7728,WL,C,1.0
2,5.383000135421753,learn,54616.99986457825,Thu Jan 22 2026 11:00:58 GMT-0600 (Central Standard Time),279496.10000038147,A,boybodydoctor,O,r,45,1,5382.10000038147,274114.0,7728,WL,C,1.0
2,6.016000032424927,learn,53983.99996757507,Thu Jan 22 2026 11:00:58 GMT-0600 (Central Standard Time),280129.40000009537,A,boybodydoctorw,O,w,614,1,6015.400000095367,274114.0,7728,WL,C,1.0
2,6.16700005531311,learn,53832.99994468689,Thu Jan 22 2026 11:00:58 GMT-0600 (Central Standard Time),280280.7000002861,A,boybodydoctorwh,O,h,132,1,6166.700000286102,274114.0,7728,WL,C,1.0
2,6.432000160217285,learn,53567.999839782715,Thu Jan 22 2026 11:00:58 GMT-0600 (Central Standard Time),280545.30000019073,A,boybodydoctorwhe,O,e,251,1,6431.300000190735,274114.0,7728,WL,C,1.0
2,6.616000175476074,learn,53383.999824523926,Thu Jan 22 2026 11:00:58 GMT-0600 (Central Standard Time),280729.5,A,boybodydoctorwhea,O,a,174,1,6615.5,274114.0,7728,WL,C,1.0
2,6.765000104904175,learn,53234.999895095825,Thu Jan 22 2026 11:00:58 GMT-0600 (Central Standard Time),280878.2000002861,A,boybodydoctorwheat,O,t,139,1,6764.200000286102,274114.0,7728,WL,C,1.0
2,12.913000106811523,learn,47086.99989318848,Thu Jan 22 2026 11:00:58 GMT-0600 (Central Standard Time),287027.0,A,boybodydoctorwhea,O,backspace,6133,1,12913.0,274114.0,7728,WL,C,1.0
2,13.46399998664856,learn,46536.00001335144,Thu Jan 22 2026 11:00:58 GMT-0600 (Central Standard Time),287577.60000038147,A,boybodydoctorwhe,O,backspace,534,1,13463.60000038147,274114.0,7728,WL,C,1.0
2,13.67799997329712,learn,46322.00002670288,Thu Jan 22 2026 11:00:58 GMT-0600 (Central Standard Time),287792.2000002861,A,boybodydoctorwh,O,backspace,191,1,13678.200000286102,274114.0,7728,WL,C,1.0
2,13.894999980926514,learn,46105.000019073486,Thu Jan 22 2026 11:00:58 GMT-0600 (Central Standard Time),288009.0,A,boybodydoctorw,O,backspace,197,1,13895.0,274114.0,7728,WL,C,1.0
2,14.09500002861023,learn,45904.99997138977,Thu Jan 22 2026 11:00:58 GMT-0600 (Central Standard Time),288209.80000019073,A,boybodydoctor,O,backspace,188,1,14095.800000190735,274114.0,7728,WL,C,1.0
2,14.312000036239624,learn,45687.999963760376,Thu Jan 22 2026 11:00:58 GMT-0600 (Central Standard Time),288426.10000038147,A,boybodydocto,O,backspace,200,1,14312.10000038147,274114.0,7728,WL,C,1.0
2,14.546000003814697,learn,45453.9999961853,Thu Jan 22 2026 11:00:58 GMT-0600 (Central Standard Time),288660.5,A,boybodydoct,O,backspace,225,1,14546.5,274114.0,7728,WL,C,1.0
2,14.861999988555908,learn,45138.00001144409,Thu Jan 22 2026 11:00:58 GMT-0600 (Central Standard Time),288976.90000009537,A,boybodydoc,O,backspace,303,1,14862.900000095367,274114.0,7728,WL,C,1.0
2,15.111999988555908,learn,44888.00001144409,Thu Jan 22 2026 11:00:58 GMT-0600 (Central Standard Time),289226.10000038147,A,boybodydo,O,backspace,233,1,15112.10000038147,274114.0,7728,WL,C,1.0
2,15.34500002861023,learn,44654.99997138977,Thu Jan 22 2026 11:00:58 GMT-0600 (Central Standard Time),289458.90000009537,A,boybodyd,O,backspace,227,1,15344.900000095367,274114.0,7728,WL,C,1.0
2,15.595999956130981,learn,44404.00004386902,Thu Jan 22 2026 11:00:58 GMT-0600 (Central Standard Time),289709.90000009537,A,boybody,O,backspace,231,1,15595.900000095367,274114.0,7728,WL,C,1.0
2,15.865000009536743,learn,44134.99999046326,Thu Jan 22 2026 11:00:58 GMT-0600 (Central Standard Time),289979.10000038147,A,boybod,O,backspace,255,1,15865.10000038147,274114.0,7728,WL,C,1.0
2,16.128000020980835,learn,43871.999979019165,Thu Jan 22 2026 11:00:58 GMT-0600 (Central Standard Time),290242.2000002861,A,boybo,O,backspace,248,1,16128.200000286102,274114.0,7728,WL,C,1.0
2,16.347000122070312,learn,43652.99987792969,Thu Jan 22 2026 11:00:58 GMT-0600 (Central Standard Time),290461.0,A,boyb,O,backspace,208,1,16347.0,274114.0,7728,WL,C,1.0
2,16.66100001335144,learn,43338.99998664856,Thu Jan 22 2026 11:00:58 GMT-0600 (Central Standard Time),290775.60000038147,A,boy,O,backspace,305,1,16661.60000038147,274114.0,7728,WL,C,1.0
2,17.861999988555908,learn,42138.00001144409,Thu Jan 22 2026 11:00:58 GMT-0600 (Central Standard Time),291975.80000019073,A,boyenter,O,enter,1179,1,17861.800000190735,274114.0,7728,WL,C,1.0
2,19.427000045776367,learn,40572.99995422363,Thu Jan 22 2026 11:00:58 GMT-0600 (Central Standard Time),293541.2000002861,A,b,O,b,1556,1,1565.0999999046326,291976.10000038147,7728,WL,C,2.0
2,19.610000133514404,learn,40389.999866485596,Thu Jan 22 2026 11:00:58 GMT-0600 (Central Standard Time),293724.60000038147,A,bo,O,o,173,1,1748.5,291976.10000038147,7728,WL,C,2.0
2,20.127000093460083,learn,39872.99990653992,Thu Jan 22 2026 11:00:58 GMT-0600 (Central Standard Time),294241.10000038147,A,bod,O,d,505,1,2265.0,291976.10000038147,7728,WL,C,2.0
2,20.361000061035156,learn,39638.999938964844,Thu Jan 22 2026 11:00:58 GMT-0600 (Central Standard Time),294475.40000009537,A,body,O,y,212,1,2499.2999997138977,291976.10000038147,7728,WL,C,2.0
2,20.91000008583069,learn,39089.99991416931,Thu Jan 22 2026 11:00:58 GMT-0600 (Central Standard Time),295024.60000038147,A,bodyenter,O,enter,534,1,3048.5,291976.10000038147,7728,WL,C,2.0
2,21.746000051498413,learn,38253.99994850159,Thu Jan 22 2026 11:00:58 GMT-0600 (Central Standard Time),295860.2000002861,A,d,O,d,830,1,835.2000002861023,295025.0,7728,WL,C,3.0
2,21.99500012397766,learn,38004.99987602234,Thu Jan 22 2026 11:00:58 GMT-0600 (Central Standard Time),296109.40000009537,A,do,O,o,241,1,1084.4000000953674,295025.0,7728,WL,C,3.0
2,22.177000045776367,learn,37822.99995422363,Thu Jan 22 2026 11:00:58 GMT-0600 (Central Standard Time),296291.2000002861,A,doc,O,c,160,1,1266.2000002861023,295025.0,7728,WL,C,3.0
2,22.493000030517578,learn,37506.99996948242,Thu Jan 22 2026 11:00:58 GMT-0600 (Central Standard Time),296607.10000038147,A,doct,O,t,296,1,1582.1000003814697,295025.0,7728,WL,C,3.0
2,22.62600016593933,learn,37373.99983406067,Thu Jan 22 2026 11:00:58 GMT-0600 (Central Standard Time),296740.2000002861,A,docto,O,o,114,1,1715.2000002861023,295025.0,7728,WL,C,3.0
2,22.72699999809265,learn,37273.00000190735,Thu Jan 22 2026 11:00:58 GMT-0600 (Central Standard Time),296840.80000019073,A,doctor,O,r,76,1,1815.8000001907349,295025.0,7728,WL,C,3.0
2,24.05900001525879,learn,35940.99998474121,Thu Jan 22 2026 11:00:58 GMT-0600 (Central Standard Time),298173.7000002861,A,doctorenter,O,enter,1314,1,3148.7000002861023,295025.0,7728,WL,C,3.0
2,25.427000045776367,learn,34572.99995422363,Thu Jan 22 2026 11:00:58 GMT-0600 (Central Standard Time),299541.2000002861,A,c,O,c,1358,1,1367.3000001907349,298173.90000009537,7728,WL,C,4.0
2,25.5770001411438,learn,34422.9998588562,Thu Jan 22 2026 11:00:58 GMT-0600 (Central Standard Time),299691.5,A,ca,O,a,142,1,1517.5999999046326,298173.90000009537,7728,WL,C,4.0
2,25.77500009536743,learn,34224.99990463257,Thu Jan 22 2026 11:00:58 GMT-0600 (Central Standard Time),299889.10000038147,A,cam,O,m,181,1,1715.2000002861023,298173.90000009537,7728,WL,C,4.0
2,26.16200017929077,learn,33837.99982070923,Thu Jan 22 2026 11:00:58 GMT-0600 (Central Standard Time),300276.5,A,camp,O,p,378,1,2102.5999999046326,298173.90000009537,7728,WL,C,4.0
2,26.575999975204468,learn,33424.00002479553,Thu Jan 22 2026 11:00:58 GMT-0600 (Central Standard Time),300690.2000002861,A,campenter,O,enter,399,1,2516.300000190735,298173.90000009537,7728,WL,C,4.0
2,27.009999990463257,learn,32990.00000953674,Thu Jan 22 2026 11:00:58 GMT-0600 (Central Standard Time),301124.2000002861,A,c,O,c,412,1,433.80000019073486,300690.40000009537,7728,WL,C,5.0
2,27.174999952316284,learn,32825.000047683716,Thu Jan 22 2026 11:00:58 GMT-0600 (Central Standard Time),301289.60000038147,A,ca,O,a,158,1,599.2000002861023,300690.40000009537,7728,WL,C,5.0
2,27.41000008583069,learn,32589.99991416931,Thu Jan 22 2026 11:00:58 GMT-0600 (Central Standard Time),301524.40000009537,A,cat,O,t,228,1,834.0,300690.40000009537,7728,WL,C,5.0
2,27.54100012779236,learn,32458.99987220764,Thu Jan 22 2026 11:00:58 GMT-0600 (Central Standard Time),301655.40000009537,A,catt,O,t,110,1,965.0,300690.40000009537,7728,WL,C,5.0
2,27.991000175476074,learn,32008.999824523926,Thu Jan 22 2026 11:00:58 GMT-0600 (Central Standard Time),302105.7000002861,A,cattl,O,l,440,1,1415.3000001907349,300690.40000009537,7728,WL,C,5.0
2,28.174999952316284,learn,31825.000047683716,Thu Jan 22 2026 11:00:58 GMT-0600 (Central Standard Time),302289.5,A,cattle,O,e,161,1,1599.0999999046326,300690.40000009537,7728,WL,C,5.0
2,28.924000024795532,learn,31075.999975204468,Thu Jan 22 2026 11:00:58 GMT-0600 (Central Standard Time),303038.7000002861,A,cattleenter,O,enter,739,1,2348.300000190735,300690.40000009537,7728,WL,C,5.0
2,30.674000024795532,learn,29325.999975204468,Thu Jan 22 2026 11:00:58 GMT-0600 (Central Standard Time),304788.7000002861,A,w,O,w,1741,1,1749.7000002861023,303039.0,7728,WL,C,6.0
2,30.85700011253357,learn,29142.99988746643,Thu Jan 22 2026 11:00:58 GMT-0600 (Central Standard Time),304971.2000002861,A,wh,O,h,167,1,1932.2000002861023,303039.0,7728,WL,C,6.0
2,30.990000009536743,learn,29009.999990463257,Thu Jan 22 2026 11:00:58 GMT-0600 (Central Standard Time),305104.80000019073,A,whe,O,e,109,1,2065.800000190735,303039.0,7728,WL,C,6.0
2,31.140000104904175,learn,28859.999895095825,Thu Jan 22 2026 11:00:58 GMT-0600 (Central Standard Time),305254.10000038147,A,whea,O,a,139,1,2215.1000003814697,303039.0,7728,WL,C,6.0
2,31.308000087738037,learn,28691.999912261963,Thu Jan 22 2026 11:00:58 GMT-0600 (Central Standard Time),305422.0,A,wheat,O,t,149,1,2383.0,303039.0,7728,WL,C,6.0
2,31.741000175476074,learn,28258.999824523926,Thu Jan 22 2026 11:00:58 GMT-0600 (Central Standard Time),305855.40000009537,A,wheatenter,O,enter,420,1,2816.4000000953674,303039.0,7728,WL,C,6.0
2,32.70799994468689,learn,27292.00005531311,Thu Jan 22 2026 11:00:58 GMT-0600 (Central Standard Time),306821.90000009537,A,t,O,t,949,1,966.1999998092651,305855.7000002861,7728,WL,C,7.0
2,32.92300009727478,learn,27076.99990272522,Thu Jan 22 2026 11:00:58 GMT-0600 (Central Standard Time),307037.0,A,to,O,o,195,1,1181.2999997138977,305855.7000002861,7728,WL,C,7.0
2,33.075000047683716,learn,26924.999952316284,Thu Jan 22 2026 11:00:58 GMT-0600 (Central Standard Time),307189.30000019073,A,tow,O,w,147,1,1333.5999999046326,305855.7000002861,7728,WL,C,7.0
2,33.4060001373291,learn,26593.9998626709,Thu Jan 22 2026 11:00:58 GMT-0600 (Central Standard Time),307519.90000009537,A,towe,O,e,319,1,1664.1999998092651,305855.7000002861,7728,WL,C,7.0
2,33.574000120162964,learn,26425.999879837036,Thu Jan 22 2026 11:00:58 GMT-0600 (Central Standard Time),307688.7000002861,A,tower,O,r,148,1,1833.0,305855.7000002861,7728,WL,C,7.0
2,34.42300009727478,learn,25576.99990272522,Thu Jan 22 2026 11:00:58 GMT-0600 (Central Standard Time),308536.90000009537,A,towerenter,O,enter,829,1,2681.199999809265,305855.7000002861,7728,WL,C,7.0
2,34.83899998664856,learn,25161.00001335144,Thu Jan 22 2026 11:00:58 GMT-0600 (Central Standard Time),308953.5,A,q,O,q,403,1,416.2999997138977,308537.2000002861,7728,WL,C,8.0
2,35.093000173568726,learn,24906.999826431274,Thu Jan 22 2026 11:00:58 GMT-0600 (Central Standard Time),309207.40000009537,A,qu,O,u,241,1,670.1999998092651,308537.2000002861,7728,WL,C,8.0
2,35.25600004196167,learn,24743.99995803833,Thu Jan 22 2026 11:00:58 GMT-0600 (Central Standard Time),309369.90000009537,A,que,O,e,156,1,832.6999998092651,308537.2000002861,7728,WL,C,8.0
2,35.42200016975403,learn,24577.99983024597,Thu Jan 22 2026 11:00:58 GMT-0600 (Central Standard Time),309536.5,A,quee,O,e,144,1,999.2999997138977,308537.2000002861,7728,WL,C,8.0
2,35.63900017738342,learn,24360.999822616577,Thu Jan 22 2026 11:00:58 GMT-0600 (Central Standard Time),309753.2000002861,A,queen,O,n,202,1,1216.0,308537.2000002861,7728,WL,C,8.0
2,36.055999994277954,learn,23944.000005722046,Thu Jan 22 2026 11:00:58 GMT-0600 (Central Standard Time),310169.90000009537,A,queenenter,O,enter,409,1,1632.6999998092651,308537.2000002861,7728,WL,C,8.0
2,39.47099995613098,learn,20529.00004386902,Thu Jan 22 2026 11:00:58 GMT-0600 (Central Standard Time),313585.2000002861,A,s,O,s,3402,1,3415.0999999046326,310170.10000038147,7728,WL,C,9.0
2,39.65400004386902,learn,20345.99995613098,Thu Jan 22 2026 11:00:58 GMT-0600 (Central Standard Time),313768.30000019073,A,su,O,u,170,1,3598.199999809265,310170.10000038147,7728,WL,C,9.0
2,39.854000091552734,learn,20145.999908447266,Thu Jan 22 2026 11:00:58 GMT-0600 (Central Standard Time),313968.30000019073,A,sug,O,g,189,1,3798.199999809265,310170.10000038147,7728,WL,C,9.0
2,40.13800001144409,learn,19861.99998855591,Thu Jan 22 2026 11:00:58 GMT-0600 (Central Standard Time),314252.60000038147,A,suga,O,a,268,1,4082.5,310170.10000038147,7728,WL,C,9.0
2,40.32000017166138,learn,19679.999828338623,Thu Jan 22 2026 11:00:58 GMT-0600 (Central Standard Time),314434.40000009537,A,sugar,O,r,178,1,4264.299999713898,310170.10000038147,7728,WL,C,9.0
2,41.2039999961853,learn,18796.000003814697,Thu Jan 22 2026 11:00:58 GMT-0600 (Central Standard Time),315318.2000002861,A,sugarenter,O,enter,867,1,5148.099999904633,310170.10000038147,7728,WL,C,9.0
2,41.587000131607056,learn,18412.999868392944,Thu Jan 22 2026 11:00:58 GMT-0600 (Central Standard Time),315701.30000019073,A,c,O,c,366,1,382.80000019073486,315318.5,7728,WL,C,10.0
2,41.80400013923645,learn,18195.99986076355,Thu Jan 22 2026 11:00:58 GMT-0600 (Central Standard Time),315917.80000019073,A,co,O,o,208,1,599.3000001907349,315318.5,7728,WL,C,10.0
2,42.07000017166138,learn,17929.999828338623,Thu Jan 22 2026 11:00:58 GMT-0600 (Central Standard Time),316184.40000009537,A,cor,O,r,248,1,865.9000000953674,315318.5,7728,WL,C,10.0
2,42.28700017929077,learn,17712.99982070923,Thu Jan 22 2026 11:00:58 GMT-0600 (Central Standard Time),316401.10000038147,A,corn,O,n,210,1,1082.6000003814697,315318.5,7728,WL,C,10.0
2,42.76900005340576,learn,17230.99994659424,Thu Jan 22 2026 11:00:58 GMT-0600 (Central Standard Time),316883.2000002861,A,cornenter,O,enter,474,1,1564.7000002861023,315318.5,7728,WL,C,10.0
2,50.58400011062622,learn,9415.99988937378,Thu Jan 22 2026 11:00:58 GMT-0600 (Central Standard Time),324698.30000019073,A,n,O,n,7809,1,7814.800000190735,316883.5,7728,WL,C,11.0
2,51.41700005531311,learn,8582.99994468689,Thu Jan 22 2026 11:00:58 GMT-0600 (Central Standard Time),325530.80000019073,A,na,O,a,813,1,8647.300000190735,316883.5,7728,WL,C,11.0
2,51.549999952316284,learn,8450.000047683716,Thu Jan 22 2026 11:00:58 GMT-0600 (Central Standard Time),325664.5,A,nai,O,i,123,1,8781.0,316883.5,7728,WL,C,11.0
2,51.682000160217285,learn,8317.999839782715,Thu Jan 22 2026 11:00:58 GMT-0600 (Central Standard Time),325796.7000002861,A,nail,O,l,122,1,8913.200000286102,316883.5,7728,WL,C,11.0
2,52.68400001525879,learn,7315.999984741211,Thu Jan 22 2026 11:00:58 GMT-0600 (Central Standard Time),326797.90000009537,A,nailenter,O,enter,983,1,9914.400000095367,316883.5,7728,WL,C,11.0
2,60.015000104904175,learn,-15.000104904174805,Thu Jan 22 2026 11:00:58 GMT-0600 (Central Standard Time),334129.0,A,None,O,None,7326,1,7330.799999713898,326798.2000002861,7728,WL,C,12.0
3,1.1500000953674316,learn,58849.99990463257,Thu Jan 22 2026 11:00:58 GMT-0600 (Central Standard Time),418785.30000019073,A,b,O,b,1137,1,1149.9000000953674,417635.40000009537,7728,WL,C,1.0
3,1.3519999980926514,learn,58648.00000190735,Thu Jan 22 2026 11:00:58 GMT-0600 (Central Standard Time),418986.80000019073,A,bo,O,o,179,1,1351.4000000953674,417635.40000009537,7728,WL,C,1.0
3,1.4830000400543213,learn,58516.99995994568,Thu Jan 22 2026 11:00:58 GMT-0600 (Central Standard Time),419117.90000009537,A,boy,O,y,120,1,1482.5,417635.40000009537,7728,WL,C,1.0
3,2.4179999828338623,learn,57582.00001716614,Thu Jan 22 2026 11:00:58 GMT-0600 (Central Standard Time),420052.60000038147,A,boyenter,O,enter,926,1,2417.2000002861023,417635.40000009537,7728,WL,C,1.0
3,3.315999984741211,learn,56684.00001525879,Thu Jan 22 2026 11:00:58 GMT-0600 (Central Standard Time),420950.90000009537,A,b,O,b,886,1,898.0999999046326,420052.80000019073,7728,WL,C,2.0
3,3.5490000247955322,learn,56450.99997520447,Thu Jan 22 2026 11:00:58 GMT-0600 (Central Standard Time),421184.10000038147,A,bo,O,o,215,1,1131.3000001907349,420052.80000019073,7728,WL,C,2.0
3,3.931999921798706,learn,56068.000078201294,Thu Jan 22 2026 11:00:58 GMT-0600 (Central Standard Time),421567.0,A,bod,O,d,364,1,1514.1999998092651,420052.80000019073,7728,WL,C,2.0
3,4.148999929428101,learn,55851.0000705719,Thu Jan 22 2026 11:00:58 GMT-0600 (Central Standard Time),421784.2000002861,A,body,O,y,210,1,1731.4000000953674,420052.80000019073,7728,WL,C,2.0
3,4.5980000495910645,learn,55401.999950408936,Thu Jan 22 2026 11:00:58 GMT-0600 (Central Standard Time),422233.30000019073,A,bodyenter,O,enter,443,1,2180.5,420052.80000019073,7728,WL,C,2.0
3,4.999000072479248,learn,55000.99992752075,Thu Jan 22 2026 11:00:58 GMT-0600 (Central Standard Time),422634.0,A,d,O,d,388,1,400.5,422233.5,7728,WL,C,3.0
3,5.1519999504089355,learn,54848.000049591064,Thu Jan 22 2026 11:00:58 GMT-0600 (Central Standard Time),422787.10000038147,A,do,O,o,128,1,553.6000003814697,422233.5,7728,WL,C,3.0
3,5.415999889373779,learn,54584.00011062622,Thu Jan 22 2026 11:00:58 GMT-0600 (Central Standard Time),423051.40000009537,A,doc,O,c,258,1,817.9000000953674,422233.5,7728,WL,C,3.0
3,5.917999982833862,learn,54082.00001716614,Thu Jan 22 2026 11:00:58 GMT-0600 (Central Standard Time),423552.7000002861,A,doco,O,o,488,1,1319.2000002861023,422233.5,7728,WL,C,3.0
3,6.131999969482422,learn,53868.00003051758,Thu Jan 22 2026 11:00:58 GMT-0600 (Central Standard Time),423766.80000019073,A,docor,O,r,203,1,1533.3000001907349,422233.5,7728,WL,C,3.0
3,7.980999946594238,learn,52019.00005340576,Thu Jan 22 2026 11:00:58 GMT-0600 (Central Standard Time),425615.90000009537,A,doco,O,backspace,1827,1,3382.4000000953674,422233.5,7728,WL,C,3.0
3,8.200000047683716,learn,51799.999952316284,Thu Jan 22 2026 11:00:58 GMT-0600 (Central Standard Time),425834.7000002861,A,doc,O,backspace,195,1,3601.2000002861023,422233.5,7728,WL,C,3.0
3,8.54800009727478,learn,51451.99990272522,Thu Jan 22 2026 11:00:58 GMT-0600 (Central Standard Time),426182.7000002861,A,doct,O,t,337,1,3949.2000002861023,422233.5,7728,WL,C,3.0
3,8.73200011253357,learn,51267.99988746643,Thu Jan 22 2026 11:00:58 GMT-0600 (Central Standard Time),426367.30000019073,A,docto,O,o,165,1,4133.800000190735,422233.5,7728,WL,C,3.0
3,8.88100004196167,learn,51118.99995803833,Thu Jan 22 2026 11:00:58 GMT-0600 (Central Standard Time),426515.60000038147,A,doctor,O,r,141,1,4282.10000038147,422233.5,7728,WL,C,3.0
3,10.013999938964844,learn,49986.000061035156,Thu Jan 22 2026 11:00:58 GMT-0600 (Central Standard Time),427649.30000019073,A,doctorenter,O,enter,1110,1,5415.800000190735,422233.5,7728,WL,C,3.0
3,10.864000082015991,learn,49135.99991798401,Thu Jan 22 2026 11:00:58 GMT-0600 (Central Standard Time),428499.30000019073,A,c,O,c,835,1,849.6999998092651,427649.60000038147,7728,WL,C,4.0
3,11.013000011444092,learn,48986.99998855591,Thu Jan 22 2026 11:00:58 GMT-0600 (Central Standard Time),428648.10000038147,A,co,O,o,142,1,998.5,427649.60000038147,7728,WL,C,4.0
3,11.263000011444092,learn,48736.99998855591,Thu Jan 22 2026 11:00:58 GMT-0600 (Central Standard Time),428897.90000009537,A,cor,O,r,237,1,1248.2999997138977,427649.60000038147,7728,WL,C,4.0
3,11.413000106811523,learn,48586.99989318848,Thu Jan 22 2026 11:00:58 GMT-0600 (Central Standard Time),429047.5,A,corn,O,n,131,1,1397.8999996185303,427649.60000038147,7728,WL,C,4.0
3,11.746999979019165,learn,48253.000020980835,Thu Jan 22 2026 11:00:58 GMT-0600 (Central Standard Time),429382.0,A,cornenter,O,enter,318,1,1732.3999996185303,427649.60000038147,7728,WL,C,4.0
3,12.04800009727478,learn,47951.99990272522,Thu Jan 22 2026 11:00:58 GMT-0600 (Central Standard Time),429683.40000009537,A,c,O,c,287,1,301.19999980926514,429382.2000002861,7728,WL,C,5.0
3,12.23200011253357,learn,47767.99988746643,Thu Jan 22 2026 11:00:58 GMT-0600 (Central Standard Time),429866.90000009537,A,ca,O,a,159,1,484.69999980926514,429382.2000002861,7728,WL,C,5.0
3,12.446000099182129,learn,47553.99990081787,Thu Jan 22 2026 11:00:58 GMT-0600 (Central Standard Time),430081.30000019073,A,cat,O,t,202,1,699.0999999046326,429382.2000002861,7728,WL,C,5.0
3,12.61299991607666,learn,47387.00008392334,Thu Jan 22 2026 11:00:58 GMT-0600 (Central Standard Time),430247.90000009537,A,catt,O,t,147,1,865.6999998092651,429382.2000002861,7728,WL,C,5.0
3,12.930000066757202,learn,47069.9999332428,Thu Jan 22 2026 11:00:58 GMT-0600 (Central Standard Time),430564.80000019073,A,cattl,O,l,300,1,1182.5999999046326,429382.2000002861,7728,WL,C,5.0
3,13.081000089645386,learn,46918.999910354614,Thu Jan 22 2026 11:00:58 GMT-0600 (Central Standard Time),430715.90000009537,A,cattle,O,e,144,1,1333.6999998092651,429382.2000002861,7728,WL,C,5.0
3,13.347000122070312,learn,46652.99987792969,Thu Jan 22 2026 11:00:58 GMT-0600 (Central Standard Time),430982.30000019073,A,cattleenter,O,enter,247,1,1600.0999999046326,429382.2000002861,7728,WL,C,5.0
3,14.680999994277954,learn,45319.000005722046,Thu Jan 22 2026 11:00:58 GMT-0600 (Central Standard Time),432315.7000002861,A,q,O,q,1318,1,1333.0999999046326,430982.60000038147,7728,WL,C,6.0
3,14.812999963760376,learn,45187.000036239624,Thu Jan 22 2026 11:00:58 GMT-0600 (Central Standard Time),432447.90000009537,A,qu,O,u,109,1,1465.2999997138977,430982.60000038147,7728,WL,C,6.0
3,14.980000019073486,learn,45019.999980926514,Thu Jan 22 2026 11:00:58 GMT-0600 (Central Standard Time),432614.7000002861,A,que,O,e,148,1,1632.0999999046326,430982.60000038147,7728,WL,C,6.0
3,15.130000114440918,learn,44869.99988555908,Thu Jan 22 2026 11:00:58 GMT-0600 (Central Standard Time),432764.7000002861,A,quee,O,e,132,1,1782.0999999046326,430982.60000038147,7728,WL,C,6.0
3,15.312999963760376,learn,44687.000036239624,Thu Jan 22 2026 11:00:58 GMT-0600 (Central Standard Time),432947.5,A,queen,O,n,163,1,1964.8999996185303,430982.60000038147,7728,WL,C,6.0
3,15.911999940872192,learn,44088.00005912781,Thu Jan 22 2026 11:00:58 GMT-0600 (Central Standard Time),433546.60000038147,A,queenenter,O,enter,582,1,2564.0,430982.60000038147,7728,WL,C,6.0
3,16.26200008392334,learn,43737.99991607666,Thu Jan 22 2026 11:00:58 GMT-0600 (Central Standard Time),433896.7000002861,A,t,O,t,338,1,349.90000009536743,433546.80000019073,7728,WL,C,7.0
3,16.444999933242798,learn,43555.0000667572,Thu Jan 22 2026 11:00:58 GMT-0600 (Central Standard Time),434079.7000002861,A,to,O,o,164,1,532.9000000953674,433546.80000019073,7728,WL,C,7.0
3,16.63100004196167,learn,43368.99995803833,Thu Jan 22 2026 11:00:58 GMT-0600 (Central Standard Time),434265.7000002861,A,tow,O,w,182,1,718.9000000953674,433546.80000019073,7728,WL,C,7.0
3,16.84599995613098,learn,43154.00004386902,Thu Jan 22 2026 11:00:58 GMT-0600 (Central Standard Time),434480.80000019073,A,towe,O,e,210,1,934.0,433546.80000019073,7728,WL,C,7.0
3,17.01099991798401,learn,42989.00008201599,Thu Jan 22 2026 11:00:58 GMT-0600 (Central Standard Time),434646.30000019073,A,tower,O,r,146,1,1099.5,433546.80000019073,7728,WL,C,7.0
3,17.811000108718872,learn,42188.99989128113,Thu Jan 22 2026 11:00:58 GMT-0600 (Central Standard Time),435445.5,A,towerenter,O,enter,781,1,1898.6999998092651,433546.80000019073,7728,WL,C,7.0
3,18.628000020980835,learn,41371.999979019165,Thu Jan 22 2026 11:00:58 GMT-0600 (Central Standard Time),436262.80000019073,A,c,O,c,807,1,817.0,435445.80000019073,7728,WL,C,8.0
3,18.878999948501587,learn,41121.00005149841,Thu Jan 22 2026 11:00:58 GMT-0600 (Central Standard Time),436513.90000009537,A,ca,O,a,246,1,1068.0999999046326,435445.80000019073,7728,WL,C,8.0
3,19.02900004386902,learn,40970.99995613098,Thu Jan 22 2026 11:00:58 GMT-0600 (Central Standard Time),436664.0,A,cam,O,m,136,1,1218.1999998092651,435445.80000019073,7728,WL,C,8.0
3,19.278000116348267,learn,40721.99988365173,Thu Jan 22 2026 11:00:58 GMT-0600 (Central Standard Time),436913.10000038147,A,camp,O,p,235,1,1467.3000001907349,435445.80000019073,7728,WL,C,8.0
3,20.11400008201599,learn,39885.99991798401,Thu Jan 22 2026 11:00:58 GMT-0600 (Central Standard Time),437748.7000002861,A,campenter,O,enter,818,1,2302.9000000953674,435445.80000019073,7728,WL,C,8.0
3,23.943000078201294,learn,36056.999921798706,Thu Jan 22 2026 11:00:58 GMT-0600 (Central Standard Time),441577.40000009537,A,l,O,l,3818,1,3828.5,437748.90000009537,7728,WL,C,9.0
3,24.07699990272522,learn,35923.00009727478,Thu Jan 22 2026 11:00:58 GMT-0600 (Central Standard Time),441711.7000002861,A,le,O,e,122,1,3962.800000190735,437748.90000009537,7728,WL,C,9.0
3,24.358999967575073,learn,35641.00003242493,Thu Jan 22 2026 11:00:58 GMT-0600 (Central Standard Time),441994.0,A,let,O,t,274,1,4245.099999904633,437748.90000009537,7728,WL,C,9.0
3,24.51099991798401,learn,35489.00008201599,Thu Jan 22 2026 11:00:58 GMT-0600 (Central Standard Time),442146.2000002861,A,lett,O,t,147,1,4397.300000190735,437748.90000009537,7728,WL,C,9.0
3,24.76099991798401,learn,35239.00008201599,Thu Jan 22 2026 11:00:58 GMT-0600 (Central Standard Time),442396.60000038147,A,lette,O,e,243,1,4647.700000286102,437748.90000009537,7728,WL,C,9.0
3,24.89300012588501,learn,35106.99987411499,Thu Jan 22 2026 11:00:58 GMT-0600 (Central Standard Time),442527.90000009537,A,letter,O,r,118,1,4779.0,437748.90000009537,7728,WL,C,9.0
3,25.825000047683716,learn,34174.999952316284,Thu Jan 22 2026 11:00:58 GMT-0600 (Central Standard Time),443460.30000019073,A,letterenter,O,enter,925,1,5711.400000095367,437748.90000009537,7728,WL,C,9.0
3,26.426000118255615,learn,33573.999881744385,Thu Jan 22 2026 11:00:58 GMT-0600 (Central Standard Time),444061.30000019073,A,n,O,n,592,1,600.6999998092651,443460.60000038147,7728,WL,C,10.0
3,26.691999912261963,learn,33308.00008773804,Thu Jan 22 2026 11:00:58 GMT-0600 (Central Standard Time),444327.10000038147,A,na,O,a,254,1,866.5,443460.60000038147,7728,WL,C,10.0
3,26.828999996185303,learn,33171.0000038147,Thu Jan 22 2026 11:00:58 GMT-0600 (Central Standard Time),444463.90000009537,A,nai,O,i,122,1,1003.2999997138977,443460.60000038147,7728,WL,C,10.0
3,26.977999925613403,learn,33022.0000743866,Thu Jan 22 2026 11:00:58 GMT-0600 (Central Standard Time),444612.5,A,nail,O,l,140,1,1151.8999996185303,443460.60000038147,7728,WL,C,10.0
3,28.4760000705719,learn,31523.9999294281,Thu Jan 22 2026 11:00:58 GMT-0600 (Central Standard Time),446111.40000009537,A,nailenter,O,enter,1488,1,2650.7999997138977,443460.60000038147,7728,WL,C,10.0
3,47.03500008583069,learn,12964.999914169312,Thu Jan 22 2026 11:00:58 GMT-0600 (Central Standard Time),464670.10000038147,A,w,O,w,18541,1,18558.400000095367,446111.7000002861,7728,WL,C,11.0
3,47.151000022888184,learn,12848.999977111816,Thu Jan 22 2026 11:00:58 GMT-0600 (Central Standard Time),464786.40000009537,A,wh,O,h,108,1,18674.699999809265,446111.7000002861,7728,WL,C,11.0
3,47.38499999046326,learn,12615.000009536743,Thu Jan 22 2026 11:00:58 GMT-0600 (Central Standard Time),465019.7000002861,A,whe,O,e,224,1,18908.0,446111.7000002861,7728,WL,C,11.0
3,47.6010000705719,learn,12398.9999294281,Thu Jan 22 2026 11:00:58 GMT-0600 (Central Standard Time),465236.0,A,whea,O,a,200,1,19124.299999713898,446111.7000002861,7728,WL,C,11.0
3,47.75200009346008,learn,12247.999906539917,Thu Jan 22 2026 11:00:58 GMT-0600 (Central Standard Time),465387.40000009537,A,wheat,O,t,147,1,19275.699999809265,446111.7000002861,7728,WL,C,11.0
3,49.55200004577637,learn,10447.999954223633,Thu Jan 22 2026 11:00:58 GMT-0600 (Central Standard Time),467186.5,A,wheatenter,O,enter,1785,1,21074.799999713898,446111.7000002861,7728,WL,C,11.0
3,56.94799995422363,learn,3052.000045776367,Thu Jan 22 2026 11:00:58 GMT-0600 (Central Standard Time),474583.7000002861,A,l,O,l,7387,1,7397.0,467186.7000002861,7728,WL,C,12.0
3,57.21499991416931,learn,2785.0000858306885,Thu Jan 22 2026 11:00:58 GMT-0600 (Central Standard Time),474850.30000019073,A,le,O,e,261,1,7663.599999904633,467186.7000002861,7728,WL,C,12.0
3,57.49799990653992,learn,2502.000093460083,Thu Jan 22 2026 11:00:58 GMT-0600 (Central Standard Time),475133.40000009537,A,let,O,t,274,1,7946.699999809265,467186.7000002861,7728,WL,C,12.0
3,57.66499996185303,learn,2335.0000381469727,Thu Jan 22 2026 11:00:58 GMT-0600 (Central Standard Time),475300.10000038147,A,lett,O,t,151,1,8113.400000095367,467186.7000002861,7728,WL,C,12.0
3,57.84700012207031,learn,2152.9998779296875,Thu Jan 22 2026 11:00:58 GMT-0600 (Central Standard Time),475482.90000009537,A,lette,O,e,166,1,8296.199999809265,467186.7000002861,7728,WL,C,12.0
3,57.96499991416931,learn,2035.0000858306885,Thu Jan 22 2026 11:00:58 GMT-0600 (Central Standard Time),475601.0,A,letter,O,r,105,1,8414.299999713898,467186.7000002861,7728,WL,C,12.0
3,58.914000034332275,learn,1085.9999656677246,Thu Jan 22 2026 11:00:58 GMT-0600 (Central Standard Time),476549.40000009537,A,letterenter,O,enter,941,1,9362.699999809265,467186.7000002861,7728,WL,C,12.0
3,60.013999938964844,learn,-13.99993896484375,Thu Jan 22 2026 11:00:58 GMT-0600 (Central Standard Time),477649.5,A,None,O,None,1095,1,1099.7999997138977,476549.7000002861,7728,WL,C,13.0
4,1.3350000381469727,learn,58664.99996185303,Thu Jan 22 2026 11:00:58 GMT-0600 (Central Standard Time),548460.6000003815,A,s,O,s,1320,1,1334.3000001907349,547126.3000001907,7728,WL,C,1.0
4,1.4509999752044678,learn,58549.00002479553,Thu Jan 22 2026 11:00:58 GMT-0600 (Central Standard Time),548577.3000001907,A,sh,O,h,101,1,1451.0,547126.3000001907,7728,WL,C,1.0
4,1.6349999904632568,learn,58365.00000953674,Thu Jan 22 2026 11:00:58 GMT-0600 (Central Standard Time),548760.5,A,sho,O,o,163,1,1634.1999998092651,547126.3000001907,7728,WL,C,1.0
4,1.8340001106262207,learn,58165.99988937378,Thu Jan 22 2026 11:00:58 GMT-0600 (Central Standard Time),548959.9000000954,A,shor,O,r,176,1,1833.5999999046326,547126.3000001907,7728,WL,C,1.0
4,1.9670000076293945,learn,58032.999992370605,Thu Jan 22 2026 11:00:58 GMT-0600 (Central Standard Time),549093.2000002861,A,shore,O,e,123,1,1966.9000000953674,547126.3000001907,7728,WL,C,1.0
4,2.7850000858306885,learn,57214.99991416931,Thu Jan 22 2026 11:00:58 GMT-0600 (Central Standard Time),549910.3000001907,A,shoreenter,O,enter,807,1,2784.0,547126.3000001907,7728,WL,C,1.0
4,3.816999912261963,learn,56183.00008773804,Thu Jan 22 2026 11:00:58 GMT-0600 (Central Standard Time),550942.7000002861,A,q,O,q,1022,1,1032.0999999046326,549910.6000003815,7728,WL,C,2.0
4,3.9509999752044678,learn,56049.00002479553,Thu Jan 22 2026 11:00:58 GMT-0600 (Central Standard Time),551077.0,A,qu,O,u,119,1,1166.3999996185303,549910.6000003815,7728,WL,C,2.0
4,4.117000102996826,learn,55882.999897003174,Thu Jan 22 2026 11:00:58 GMT-0600 (Central Standard Time),551243.0,A,que,O,e,158,1,1332.3999996185303,549910.6000003815,7728,WL,C,2.0
4,4.286999940872192,learn,55713.00005912781,Thu Jan 22 2026 11:00:58 GMT-0600 (Central Standard Time),551413.3000001907,A,quee,O,e,144,1,1502.6999998092651,549910.6000003815,7728,WL,C,2.0
4,4.533999919891357,learn,55466.00008010864,Thu Jan 22 2026 11:00:58 GMT-0600 (Central Standard Time),551659.8000001907,A,queen,O,n,235,1,1749.1999998092651,549910.6000003815,7728,WL,C,2.0
4,5.2829999923706055,learn,54717.000007629395,Thu Jan 22 2026 11:00:58 GMT-0600 (Central Standard Time),552409.3000001907,A,queenenter,O,enter,733,1,2498.699999809265,549910.6000003815,7728,WL,C,2.0
4,6.101000070571899,learn,53898.9999294281,Thu Jan 22 2026 11:00:58 GMT-0600 (Central Standard Time),553226.6000003815,A,t,O,t,811,1,817.0,552409.6000003815,7728,WL,C,3.0
4,6.316999912261963,learn,53683.00008773804,Thu Jan 22 2026 11:00:58 GMT-0600 (Central Standard Time),553442.5,A,to,O,o,201,1,1032.8999996185303,552409.6000003815,7728,WL,C,3.0
4,6.4670000076293945,learn,53532.999992370605,Thu Jan 22 2026 11:00:58 GMT-0600 (Central Standard Time),553592.6000003815,A,tow,O,w,132,1,1183.0,552409.6000003815,7728,WL,C,3.0
4,6.617000102996826,learn,53382.999897003174,Thu Jan 22 2026 11:00:58 GMT-0600 (Central Standard Time),553742.9000000954,A,towe,O,e,130,1,1333.2999997138977,552409.6000003815,7728,WL,C,3.0
4,6.766000032424927,learn,53233.99996757507,Thu Jan 22 2026 11:00:58 GMT-0600 (Central Standard Time),553891.7000002861,A,tower,O,r,141,1,1482.0999999046326,552409.6000003815,7728,WL,C,3.0
4,7.681999921798706,learn,52318.000078201294,Thu Jan 22 2026 11:00:58 GMT-0600 (Central Standard Time),554807.6000003815,A,towerenter,O,enter,897,1,2398.0,552409.6000003815,7728,WL,C,3.0
4,8.16700005531311,learn,51832.99994468689,Thu Jan 22 2026 11:00:58 GMT-0600 (Central Standard Time),555292.7000002861,A,d,O,d,476,1,484.90000009536743,554807.8000001907,7728,WL,C,4.0
4,8.382999897003174,learn,51617.000102996826,Thu Jan 22 2026 11:00:58 GMT-0600 (Central Standard Time),555508.8000001907,A,do,O,o,208,1,701.0,554807.8000001907,7728,WL,C,4.0
4,8.615000009536743,learn,51384.99999046326,Thu Jan 22 2026 11:00:58 GMT-0600 (Central Standard Time),555741.0,A,doc,O,c,225,1,933.1999998092651,554807.8000001907,7728,WL,C,4.0
4,8.933000087738037,learn,51066.99991226196,Thu Jan 22 2026 11:00:58 GMT-0600 (Central Standard Time),556058.4000000954,A,doct,O,t,302,1,1250.5999999046326,554807.8000001907,7728,WL,C,4.0
4,9.098999977111816,learn,50901.00002288818,Thu Jan 22 2026 11:00:58 GMT-0600 (Central Standard Time),556225.0,A,docto,O,o,160,1,1417.1999998092651,554807.8000001907,7728,WL,C,4.0
4,9.164999961853027,learn,50835.00003814697,Thu Jan 22 2026 11:00:58 GMT-0600 (Central Standard Time),556290.8000001907,A,doctor,O,r,49,1,1483.0,554807.8000001907,7728,WL,C,4.0
4,9.617000102996826,learn,50382.999897003174,Thu Jan 22 2026 11:00:58 GMT-0600 (Central Standard Time),556742.6000003815,A,doctorenter,O,enter,435,1,1934.8000001907349,554807.8000001907,7728,WL,C,4.0
4,10.66599988937378,learn,49334.00011062622,Thu Jan 22 2026 11:00:58 GMT-0600 (Central Standard Time),557791.5,A,b,O,b,1039,1,1048.6999998092651,556742.8000001907,7728,WL,C,5.0
4,10.865000009536743,learn,49134.99999046326,Thu Jan 22 2026 11:00:58 GMT-0600 (Central Standard Time),557990.8000001907,A,bo,O,o,181,1,1248.0,556742.8000001907,7728,WL,C,5.0
4,11.147000074386597,learn,48852.9999256134,Thu Jan 22 2026 11:00:58 GMT-0600 (Central Standard Time),558273.2000002861,A,boy,O,y,268,1,1530.4000000953674,556742.8000001907,7728,WL,C,5.0
4,11.48200011253357,learn,48517.99988746643,Thu Jan 22 2026 11:00:58 GMT-0600 (Central Standard Time),558607.6000003815,A,boyenter,O,enter,316,1,1864.8000001907349,556742.8000001907,7728,WL,C,5.0
4,12.280999898910522,learn,47719.00010108948,Thu Jan 22 2026 11:00:58 GMT-0600 (Central Standard Time),559407.2000002861,A,b,O,b,789,1,799.4000000953674,558607.8000001907,7728,WL,C,6.0
4,12.46399998664856,learn,47536.00001335144,Thu Jan 22 2026 11:00:58 GMT-0600 (Central Standard Time),559590.0,A,bo,O,o,163,1,982.1999998092651,558607.8000001907,7728,WL,C,6.0
4,12.765000104904175,learn,47234.999895095825,Thu Jan 22 2026 11:00:58 GMT-0600 (Central Standard Time),559891.1000003815,A,bod,O,d,286,1,1283.3000001907349,558607.8000001907,7728,WL,C,6.0
4,13.079999923706055,learn,46920.000076293945,Thu Jan 22 2026 11:00:58 GMT-0600 (Central Standard Time),560205.7000002861,A,body,O,y,303,1,1597.9000000953674,558607.8000001907,7728,WL,C,6.0
4,14.36299991607666,learn,45637.00008392334,Thu Jan 22 2026 11:00:58 GMT-0600 (Central Standard Time),561488.9000000954,A,bodyenter,O,enter,1271,1,2881.0999999046326,558607.8000001907,7728,WL,C,6.0
4,14.963000059127808,learn,45036.99994087219,Thu Jan 22 2026 11:00:58 GMT-0600 (Central Standard Time),562089.3000001907,A,c,O,c,589,1,600.0999999046326,561489.2000002861,7728,WL,C,7.0
4,15.115999937057495,learn,44884.000062942505,Thu Jan 22 2026 11:00:58 GMT-0600 (Central Standard Time),562241.4000000954,A,ca,O,a,140,1,752.1999998092651,561489.2000002861,7728,WL,C,7.0
4,15.19700002670288,learn,44802.99997329712,Thu Jan 22 2026 11:00:58 GMT-0600 (Central Standard Time),562322.4000000954,A,cam,O,m,68,1,833.1999998092651,561489.2000002861,7728,WL,C,7.0
4,15.446000099182129,learn,44553.99990081787,Thu Jan 22 2026 11:00:58 GMT-0600 (Central Standard Time),562572.1000003815,A,camp,O,p,242,1,1082.9000000953674,561489.2000002861,7728,WL,C,7.0
4,15.828999996185303,learn,44171.0000038147,Thu Jan 22 2026 11:00:58 GMT-0600 (Central Standard Time),562955.3000001907,A,campenter,O,enter,369,1,1466.0999999046326,561489.2000002861,7728,WL,C,7.0
4,16.164000034332275,learn,43835.999965667725,Thu Jan 22 2026 11:00:58 GMT-0600 (Central Standard Time),563289.5,A,l,O,l,328,1,334.0,562955.5,7728,WL,C,8.0
4,16.395999908447266,learn,43604.000091552734,Thu Jan 22 2026 11:00:58 GMT-0600 (Central Standard Time),563521.7000002861,A,le,O,e,229,1,566.2000002861023,562955.5,7728,WL,C,8.0
4,16.664000034332275,learn,43335.999965667725,Thu Jan 22 2026 11:00:58 GMT-0600 (Central Standard Time),563789.5,A,let,O,t,260,1,834.0,562955.5,7728,WL,C,8.0
4,16.812999963760376,learn,43187.000036239624,Thu Jan 22 2026 11:00:58 GMT-0600 (Central Standard Time),563938.9000000954,A,lett,O,t,142,1,983.4000000953674,562955.5,7728,WL,C,8.0
4,17.02999997138977,learn,42970.00002861023,Thu Jan 22 2026 11:00:58 GMT-0600 (Central Standard Time),564156.4000000954,A,lette,O,e,208,1,1200.9000000953674,562955.5,7728,WL,C,8.0
4,17.147000074386597,learn,42852.9999256134,Thu Jan 22 2026 11:00:58 GMT-0600 (Central Standard Time),564273.3000001907,A,letter,O,r,105,1,1317.8000001907349,562955.5,7728,WL,C,8.0
4,17.878999948501587,learn,42121.00005149841,Thu Jan 22 2026 11:00:58 GMT-0600 (Central Standard Time),565004.7000002861,A,letterenter,O,enter,721,1,2049.2000002861023,562955.5,7728,WL,C,8.0
4,18.86400008201599,learn,41135.99991798401,Thu Jan 22 2026 11:00:58 GMT-0600 (Central Standard Time),565990.3000001907,A,n,O,n,968,1,985.4000000953674,565004.9000000954,7728,WL,C,9.0
4,19.01200008392334,learn,40987.99991607666,Thu Jan 22 2026 11:00:58 GMT-0600 (Central Standard Time),566137.7000002861,A,na,O,a,140,1,1132.8000001907349,565004.9000000954,7728,WL,C,9.0
4,19.144999980926514,learn,40855.000019073486,Thu Jan 22 2026 11:00:58 GMT-0600 (Central Standard Time),566270.6000003815,A,nai,O,i,113,1,1265.7000002861023,565004.9000000954,7728,WL,C,9.0
4,19.27900004386902,learn,40720.99995613098,Thu Jan 22 2026 11:00:58 GMT-0600 (Central Standard Time),566404.5,A,nail,O,l,119,1,1399.5999999046326,565004.9000000954,7728,WL,C,9.0
4,19.661999940872192,learn,40338.00005912781,Thu Jan 22 2026 11:00:58 GMT-0600 (Central Standard Time),566788.3000001907,A,nailenter,O,enter,374,1,1783.4000000953674,565004.9000000954,7728,WL,C,9.0
4,20.49399995803833,learn,39506.00004196167,Thu Jan 22 2026 11:00:58 GMT-0600 (Central Standard Time),567620.1000003815,A,c,O,c,823,1,831.5,566788.6000003815,7728,WL,C,10.0
4,20.67799997329712,learn,39322.00002670288,Thu Jan 22 2026 11:00:58 GMT-0600 (Central Standard Time),567804.3000001907,A,ca,O,a,169,1,1015.6999998092651,566788.6000003815,7728,WL,C,10.0
4,21.026999950408936,learn,38973.000049591064,Thu Jan 22 2026 11:00:58 GMT-0600 (Central Standard Time),568153.3000001907,A,cat,O,t,335,1,1364.6999998092651,566788.6000003815,7728,WL,C,10.0
4,21.17799997329712,learn,38822.00002670288,Thu Jan 22 2026 11:00:58 GMT-0600 (Central Standard Time),568304.2000002861,A,catt,O,t,137,1,1515.5999999046326,566788.6000003815,7728,WL,C,10.0
4,21.42899990081787,learn,38571.00009918213,Thu Jan 22 2026 11:00:58 GMT-0600 (Central Standard Time),568554.4000000954,A,cattl,O,l,233,1,1765.7999997138977,566788.6000003815,7728,WL,C,10.0
4,21.561000108718872,learn,38438.99989128113,Thu Jan 22 2026 11:00:58 GMT-0600 (Central Standard Time),568687.0,A,cattle,O,e,120,1,1898.3999996185303,566788.6000003815,7728,WL,C,10.0
4,21.878999948501587,learn,38121.00005149841,Thu Jan 22 2026 11:00:58 GMT-0600 (Central Standard Time),569004.7000002861,A,cattleenter,O,enter,302,1,2216.0999999046326,566788.6000003815,7728,WL,C,10.0
4,22.545000076293945,learn,37454.999923706055,Thu Jan 22 2026 11:00:58 GMT-0600 (Central Standard Time),569670.9000000954,A,w,O,w,650,1,666.0,569004.9000000954,7728,WL,C,11.0
4,22.727999925613403,learn,37272.0000743866,Thu Jan 22 2026 11:00:58 GMT-0600 (Central Standard Time),569853.8000001907,A,wh,O,h,164,1,848.9000000953674,569004.9000000954,7728,WL,C,11.0
4,22.91100001335144,learn,37088.99998664856,Thu Jan 22 2026 11:00:58 GMT-0600 (Central Standard Time),570037.2000002861,A,whe,O,e,176,1,1032.3000001907349,569004.9000000954,7728,WL,C,11.0
4,23.14400005340576,learn,36855.99994659424,Thu Jan 22 2026 11:00:58 GMT-0600 (Central Standard Time),570269.8000001907,A,whea,O,a,214,1,1264.9000000953674,569004.9000000954,7728,WL,C,11.0
4,23.329999923706055,learn,36670.000076293945,Thu Jan 22 2026 11:00:58 GMT-0600 (Central Standard Time),570455.4000000954,A,wheat,O,t,165,1,1450.5,569004.9000000954,7728,WL,C,11.0
4,23.627000093460083,learn,36372.99990653992,Thu Jan 22 2026 11:00:58 GMT-0600 (Central Standard Time),570752.6000003815,A,wheatenter,O,enter,284,1,1747.7000002861023,569004.9000000954,7728,WL,C,11.0
4,24.825999975204468,learn,35174.00002479553,Thu Jan 22 2026 11:00:58 GMT-0600 (Central Standard Time),571952.1000003815,A,c,O,c,1188,1,1199.3000001907349,570752.8000001907,7728,WL,C,12.0
4,24.994999885559082,learn,35005.00011444092,Thu Jan 22 2026 11:00:58 GMT-0600 (Central Standard Time),572120.9000000954,A,co,O,o,148,1,1368.0999999046326,570752.8000001907,7728,WL,C,12.0
4,25.20900011062622,learn,34790.99988937378,Thu Jan 22 2026 11:00:58 GMT-0600 (Central Standard Time),572334.9000000954,A,cor,O,r,202,1,1582.0999999046326,570752.8000001907,7728,WL,C,12.0
4,25.427000045776367,learn,34572.99995422363,Thu Jan 22 2026 11:00:58 GMT-0600 (Central Standard Time),572552.5,A,corn,O,n,206,1,1799.6999998092651,570752.8000001907,7728,WL,C,12.0
4,25.796000003814697,learn,34203.9999961853,Thu Jan 22 2026 11:00:58 GMT-0600 (Central Standard Time),572921.6000003815,A,cornenter,O,enter,365,1,2168.800000190735,570752.8000001907,7728,WL,C,12.0
4,26.397000074386597,learn,33602.9999256134,Thu Jan 22 2026 11:00:58 GMT-0600 (Central Standard Time),573523.1000003815,A,s,O,s,597,1,601.2000002861023,572921.9000000954,7728,WL,C,13.0
4,26.609999895095825,learn,33390.000104904175,Thu Jan 22 2026 11:00:58 GMT-0600 (Central Standard Time),573735.8000001907,A,su,O,u,191,1,813.9000000953674,572921.9000000954,7728,WL,C,13.0
4,26.7260000705719,learn,33273.9999294281,Thu Jan 22 2026 11:00:58 GMT-0600 (Central Standard Time),573852.3000001907,A,sug,O,g,100,1,930.4000000953674,572921.9000000954,7728,WL,C,13.0
4,26.943000078201294,learn,33056.999921798706,Thu Jan 22 2026 11:00:58 GMT-0600 (Central Standard Time),574068.8000001907,A,suga,O,a,208,1,1146.9000000953674,572921.9000000954,7728,WL,C,13.0
4,27.109999895095825,learn,32890.000104904175,Thu Jan 22 2026 11:00:58 GMT-0600 (Central Standard Time),574235.7000002861,A,sugar,O,r,158,1,1313.8000001907349,572921.9000000954,7728,WL,C,13.0
4,29.075999975204468,learn,30924.000024795532,Thu Jan 22 2026 11:00:58 GMT-0600 (Central Standard Time),576201.8000001907,A,sugarenter,O,enter,1953,1,3279.9000000953674,572921.9000000954,7728,WL,C,13.0
4,34.53999996185303,learn,25460.000038146973,Thu Jan 22 2026 11:00:58 GMT-0600 (Central Standard Time),581665.6000003815,A,n,O,n,5450,1,5463.400000095367,576202.2000002861,7728,WL,C,14.0
4,34.823999881744385,learn,25176.000118255615,Thu Jan 22 2026 11:00:58 GMT-0600 (Central Standard Time),581950.3000001907,A,na,O,a,267,1,5748.099999904633,576202.2000002861,7728,WL,C,14.0
4,34.94099998474121,learn,25059.00001525879,Thu Jan 22 2026 11:00:58 GMT-0600 (Central Standard Time),582066.6000003815,A,nai,O,i,109,1,5864.400000095367,576202.2000002861,7728,WL,C,14.0
4,35.09100008010864,learn,24908.999919891357,Thu Jan 22 2026 11:00:58 GMT-0600 (Central Standard Time),582216.5,A,nail,O,l,128,1,6014.299999713898,576202.2000002861,7728,WL,C,14.0
4,35.509000062942505,learn,24490.999937057495,Thu Jan 22 2026 11:00:58 GMT-0600 (Central Standard Time),582634.5,A,nailenter,O,enter,396,1,6432.299999713898,576202.2000002861,7728,WL,C,14.0
4,60.015000104904175,learn,-15.000104904174805,Thu Jan 22 2026 11:00:58 GMT-0600 (Central Standard Time),607141.5,A,None,O,None,24501,1,24506.599999904633,582634.9000000954,7728,WL,C,15.0
5,1.883000135421753,learn,60000.0,Thu Jan 22 2026 11:00:58 GMT-0600 (Central Standard Time),677903.0,A,h,O,h,1866,1,1883.2999997138977,676019.7000002861,7728,WL,C,1.0
5,2.0860002040863037,learn,60000.0,Thu Jan 22 2026 11:00:58 GMT-0600 (Central Standard Time),678105.2000002861,A,ho,O,o,177,1,2085.5,676019.7000002861,7728,WL,C,1.0
5,2.2660000324249268,learn,60000.0,Thu Jan 22 2026 11:00:58 GMT-0600 (Central Standard Time),678285.8000001907,A,hom,O,m,170,1,2266.0999999046326,676019.7000002861,7728,WL,C,1.0
5,2.433000087738037,learn,60000.0,Thu Jan 22 2026 11:00:58 GMT-0600 (Central Standard Time),678453.0,A,home,O,e,150,1,2433.2999997138977,676019.7000002861,7728,WL,C,1.0
5,3.201000213623047,learn,60000.0,Thu Jan 22 2026 11:00:58 GMT-0600 (Central Standard Time),679220.7000002861,A,homeenter,O,enter,758,1,3201.0,676019.7000002861,7728,WL,C,1.0
5,3.866000175476074,learn,60000.0,Thu Jan 22 2026 11:00:58 GMT-0600 (Central Standard Time),679885.2000002861,A,s,O,s,646,1,664.3000001907349,679220.9000000954,7728,WL,C,2.0
5,3.999000072479248,learn,60000.0,Thu Jan 22 2026 11:00:58 GMT-0600 (Central Standard Time),680018.7000002861,A,sh,O,h,118,1,797.8000001907349,679220.9000000954,7728,WL,C,2.0
5,4.13100004196167,learn,60000.0,Thu Jan 22 2026 11:00:58 GMT-0600 (Central Standard Time),680151.1000003815,A,sho,O,o,112,1,930.2000002861023,679220.9000000954,7728,WL,C,2.0
5,4.266000032424927,learn,60000.0,Thu Jan 22 2026 11:00:58 GMT-0600 (Central Standard Time),680285.4000000954,A,shor,O,r,124,1,1064.5,679220.9000000954,7728,WL,C,2.0
5,4.383000135421753,learn,60000.0,Thu Jan 22 2026 11:00:58 GMT-0600 (Central Standard Time),680402.1000003815,A,shore,O,e,102,1,1181.2000002861023,679220.9000000954,7728,WL,C,2.0
5,4.8490002155303955,learn,60000.0,Thu Jan 22 2026 11:00:58 GMT-0600 (Central Standard Time),680868.6000003815,A,shoreenter,O,enter,449,1,1647.7000002861023,679220.9000000954,7728,WL,C,2.0
5,5.54800009727478,learn,60000.0,Thu Jan 22 2026 11:00:58 GMT-0600 (Central Standard Time),681567.9000000954,A,q,O,q,687,1,699.0,680868.9000000954,7728,WL,C,3.0
5,5.7820000648498535,learn,60000.0,Thu Jan 22 2026 11:00:58 GMT-0600 (Central Standard Time),681801.5,A,qu,O,u,213,1,932.5999999046326,680868.9000000954,7728,WL,C,3.0
5,5.952000141143799,learn,60000.0,Thu Jan 22 2026 11:00:58 GMT-0600 (Central Standard Time),681971.1000003815,A,que,O,e,164,1,1102.2000002861023,680868.9000000954,7728,WL,C,3.0
5,6.116000175476074,learn,60000.0,Thu Jan 22 2026 11:00:58 GMT-0600 (Central Standard Time),682135.2000002861,A,quee,O,e,146,1,1266.3000001907349,680868.9000000954,7728,WL,C,3.0
5,6.384000062942505,learn,60000.0,Thu Jan 22 2026 11:00:58 GMT-0600 (Central Standard Time),682403.3000001907,A,queen,O,n,260,1,1534.4000000953674,680868.9000000954,7728,WL,C,3.0
5,7.132000207901001,learn,60000.0,Thu Jan 22 2026 11:00:58 GMT-0600 (Central Standard Time),683151.4000000954,A,queenenter,O,enter,728,1,2282.5,680868.9000000954,7728,WL,C,3.0
5,8.214000225067139,learn,60000.0,Thu Jan 22 2026 11:00:58 GMT-0600 (Central Standard Time),684233.3000001907,A,t,O,t,1070,1,1081.5999999046326,683151.7000002861,7728,WL,C,4.0
5,8.54800009727478,learn,60000.0,Thu Jan 22 2026 11:00:58 GMT-0600 (Central Standard Time),684567.9000000954,A,to,O,o,324,1,1416.1999998092651,683151.7000002861,7728,WL,C,4.0
5,8.88100004196167,learn,60000.0,Thu Jan 22 2026 11:00:58 GMT-0600 (Central Standard Time),684901.0,A,tow,O,w,324,1,1749.2999997138977,683151.7000002861,7728,WL,C,4.0
5,9.080000162124634,learn,60000.0,Thu Jan 22 2026 11:00:58 GMT-0600 (Central Standard Time),685099.6000003815,A,towe,O,e,190,1,1947.9000000953674,683151.7000002861,7728,WL,C,4.0
5,9.246000051498413,learn,60000.0,Thu Jan 22 2026 11:00:58 GMT-0600 (Central Standard Time),685266.0,A,tower,O,r,155,1,2114.2999997138977,683151.7000002861,7728,WL,C,4.0
5,9.599000215530396,learn,60000.0,Thu Jan 22 2026 11:00:58 GMT-0600 (Central Standard Time),685618.2000002861,A,towerenter,O,enter,346,1,2466.5,683151.7000002861,7728,WL,C,4.0
5,10.69700002670288,learn,60000.0,Thu Jan 22 2026 11:00:58 GMT-0600 (Central Standard Time),686716.7000002861,A,b,O,b,1090,1,1098.3000001907349,685618.4000000954,7728,WL,C,5.0
5,10.847000122070312,learn,60000.0,Thu Jan 22 2026 11:00:58 GMT-0600 (Central Standard Time),686866.6000003815,A,bo,O,o,136,1,1248.2000002861023,685618.4000000954,7728,WL,C,5.0
5,11.180000066757202,learn,60000.0,Thu Jan 22 2026 11:00:58 GMT-0600 (Central Standard Time),687199.7000002861,A,boy,O,y,314,1,1581.3000001907349,685618.4000000954,7728,WL,C,5.0
5,11.581000089645386,learn,60000.0,Thu Jan 22 2026 11:00:58 GMT-0600 (Central Standard Time),687600.9000000954,A,boyenter,O,enter,388,1,1982.5,685618.4000000954,7728,WL,C,5.0
5,11.963000059127808,learn,60000.0,Thu Jan 22 2026 11:00:58 GMT-0600 (Central Standard Time),687983.1000003815,A,b,O,b,365,1,382.0,687601.1000003815,7728,WL,C,6.0
5,12.19700002670288,learn,60000.0,Thu Jan 22 2026 11:00:58 GMT-0600 (Central Standard Time),688216.5,A,bo,O,o,222,1,615.3999996185303,687601.1000003815,7728,WL,C,6.0
5,12.813000202178955,learn,60000.0,Thu Jan 22 2026 11:00:58 GMT-0600 (Central Standard Time),688832.6000003815,A,bod,O,d,596,1,1231.5,687601.1000003815,7728,WL,C,6.0
5,12.946000099182129,learn,60000.0,Thu Jan 22 2026 11:00:58 GMT-0600 (Central Standard Time),688965.8000001907,A,body,O,y,122,1,1364.6999998092651,687601.1000003815,7728,WL,C,6.0
5,13.263000011444092,learn,60000.0,Thu Jan 22 2026 11:00:58 GMT-0600 (Central Standard Time),689282.5,A,bodyenter,O,enter,304,1,1681.3999996185303,687601.1000003815,7728,WL,C,6.0
5,14.112000226974487,learn,60000.0,Thu Jan 22 2026 11:00:58 GMT-0600 (Central Standard Time),690131.6000003815,A,d,O,d,843,1,848.8000001907349,689282.8000001907,7728,WL,C,7.0
5,14.263000011444092,learn,60000.0,Thu Jan 22 2026 11:00:58 GMT-0600 (Central Standard Time),690282.5,A,do,O,o,145,1,999.6999998092651,689282.8000001907,7728,WL,C,7.0
5,14.413000106811523,learn,60000.0,Thu Jan 22 2026 11:00:58 GMT-0600 (Central Standard Time),690432.4000000954,A,doc,O,c,138,1,1149.5999999046326,689282.8000001907,7728,WL,C,7.0
5,14.730000019073486,learn,60000.0,Thu Jan 22 2026 11:00:58 GMT-0600 (Central Standard Time),690749.6000003815,A,doct,O,t,301,1,1466.8000001907349,689282.8000001907,7728,WL,C,7.0
5,14.895000219345093,learn,60000.0,Thu Jan 22 2026 11:00:58 GMT-0600 (Central Standard Time),690914.5,A,docto,O,o,151,1,1631.6999998092651,689282.8000001907,7728,WL,C,7.0
5,14.980000019073486,learn,60000.0,Thu Jan 22 2026 11:00:58 GMT-0600 (Central Standard Time),690999.4000000954,A,doctor,O,r,65,1,1716.5999999046326,689282.8000001907,7728,WL,C,7.0
5,15.378000020980835,learn,60000.0,Thu Jan 22 2026 11:00:58 GMT-0600 (Central Standard Time),691397.9000000954,A,doctorenter,O,enter,380,1,2115.0999999046326,689282.8000001907,7728,WL,C,7.0
5,16.57800006866455,learn,60000.0,Thu Jan 22 2026 11:00:58 GMT-0600 (Central Standard Time),692597.4000000954,A,c,O,c,1186,1,1199.1999998092651,691398.2000002861,7728,WL,C,8.0
5,16.78000020980835,learn,60000.0,Thu Jan 22 2026 11:00:58 GMT-0600 (Central Standard Time),692799.8000001907,A,ca,O,a,182,1,1401.5999999046326,691398.2000002861,7728,WL,C,8.0
5,16.978000164031982,learn,60000.0,Thu Jan 22 2026 11:00:58 GMT-0600 (Central Standard Time),692997.4000000954,A,cat,O,t,180,1,1599.1999998092651,691398.2000002861,7728,WL,C,8.0
5,17.129000186920166,learn,60000.0,Thu Jan 22 2026 11:00:58 GMT-0600 (Central Standard Time),693148.3000001907,A,catt,O,t,128,1,1750.0999999046326,691398.2000002861,7728,WL,C,8.0
5,17.41100001335144,learn,60000.0,Thu Jan 22 2026 11:00:58 GMT-0600 (Central Standard Time),693430.3000001907,A,cattl,O,l,264,1,2032.0999999046326,691398.2000002861,7728,WL,C,8.0
5,17.545000076293945,learn,60000.0,Thu Jan 22 2026 11:00:58 GMT-0600 (Central Standard Time),693564.2000002861,A,cattle,O,e,116,1,2166.0,691398.2000002861,7728,WL,C,8.0
5,17.844000101089478,learn,60000.0,Thu Jan 22 2026 11:00:58 GMT-0600 (Central Standard Time),693863.4000000954,A,cattleenter,O,enter,287,1,2465.199999809265,691398.2000002861,7728,WL,C,8.0
5,20.593000173568726,learn,60000.0,Thu Jan 22 2026 11:00:58 GMT-0600 (Central Standard Time),696613.0,A,c,O,c,2741,1,2749.2999997138977,693863.7000002861,7728,WL,C,9.0
5,20.81000018119812,learn,60000.0,Thu Jan 22 2026 11:00:58 GMT-0600 (Central Standard Time),696829.7000002861,A,co,O,o,201,1,2966.0,693863.7000002861,7728,WL,C,9.0
5,21.010000228881836,learn,60000.0,Thu Jan 22 2026 11:00:58 GMT-0600 (Central Standard Time),697029.6000003815,A,cor,O,r,180,1,3165.9000000953674,693863.7000002861,7728,WL,C,9.0
5,21.14400005340576,learn,60000.0,Thu Jan 22 2026 11:00:58 GMT-0600 (Central Standard Time),697163.6000003815,A,corn,O,n,117,1,3299.9000000953674,693863.7000002861,7728,WL,C,9.0
5,21.460000038146973,learn,60000.0,Thu Jan 22 2026 11:00:58 GMT-0600 (Central Standard Time),697479.5,A,cornenter,O,enter,303,1,3615.7999997138977,693863.7000002861,7728,WL,C,9.0
5,21.975000143051147,learn,60000.0,Thu Jan 22 2026 11:00:58 GMT-0600 (Central Standard Time),697994.9000000954,A,s,O,s,501,1,515.0999999046326,697479.8000001907,7728,WL,C,10.0
5,22.110000133514404,learn,60000.0,Thu Jan 22 2026 11:00:58 GMT-0600 (Central Standard Time),698130.1000003815,A,su,O,u,123,1,650.3000001907349,697479.8000001907,7728,WL,C,10.0
5,22.276000022888184,learn,60000.0,Thu Jan 22 2026 11:00:58 GMT-0600 (Central Standard Time),698295.9000000954,A,sug,O,g,147,1,816.0999999046326,697479.8000001907,7728,WL,C,10.0
5,22.49400019645691,learn,60000.0,Thu Jan 22 2026 11:00:58 GMT-0600 (Central Standard Time),698513.6000003815,A,suga,O,a,214,1,1033.8000001907349,697479.8000001907,7728,WL,C,10.0
5,22.610000133514404,learn,60000.0,Thu Jan 22 2026 11:00:58 GMT-0600 (Central Standard Time),698629.5,A,sugar,O,r,100,1,1149.6999998092651,697479.8000001907,7728,WL,C,10.0
5,22.975000143051147,learn,60000.0,Thu Jan 22 2026 11:00:58 GMT-0600 (Central Standard Time),698994.5,A,sugarenter,O,enter,349,1,1514.6999998092651,697479.8000001907,7728,WL,C,10.0
5,23.296000003814697,learn,60000.0,Thu Jan 22 2026 11:00:58 GMT-0600 (Central Standard Time),699315.6000003815,A,w,O,w,308,1,320.90000009536743,698994.7000002861,7728,WL,C,11.0
5,23.64300012588501,learn,60000.0,Thu Jan 22 2026 11:00:58 GMT-0600 (Central Standard Time),699662.9000000954,A,wh,O,h,327,1,668.1999998092651,698994.7000002861,7728,WL,C,11.0
5,23.759000062942505,learn,60000.0,Thu Jan 22 2026 11:00:58 GMT-0600 (Central Standard Time),699779.1000003815,A,whe,O,e,99,1,784.4000000953674,698994.7000002861,7728,WL,C,11.0
5,23.926000118255615,learn,60000.0,Thu Jan 22 2026 11:00:58 GMT-0600 (Central Standard Time),699946.0,A,whea,O,a,159,1,951.2999997138977,698994.7000002861,7728,WL,C,11.0
5,24.092000007629395,learn,60000.0,Thu Jan 22 2026 11:00:58 GMT-0600 (Central Standard Time),700112.1000003815,A,wheat,O,t,144,1,1117.4000000953674,698994.7000002861,7728,WL,C,11.0
5,25.142000198364258,learn,60000.0,Thu Jan 22 2026 11:00:58 GMT-0600 (Central Standard Time),701161.9000000954,A,wheatenter,O,enter,1043,1,2167.199999809265,698994.7000002861,7728,WL,C,11.0
5,27.29200005531311,learn,60000.0,Thu Jan 22 2026 11:00:58 GMT-0600 (Central Standard Time),703312.0,A,n,O,n,2139,1,2149.7999997138977,701162.2000002861,7728,WL,C,12.0
5,27.492000102996826,learn,60000.0,Thu Jan 22 2026 11:00:58 GMT-0600 (Central Standard Time),703512.0,A,na,O,a,188,1,2349.7999997138977,701162.2000002861,7728,WL,C,12.0
5,27.59000015258789,learn,60000.0,Thu Jan 22 2026 11:00:58 GMT-0600 (Central Standard Time),703610.1000003815,A,nai,O,i,93,1,2447.9000000953674,701162.2000002861,7728,WL,C,12.0
5,27.70900011062622,learn,60000.0,Thu Jan 22 2026 11:00:58 GMT-0600 (Central Standard Time),703728.8000001907,A,nail,O,l,98,1,2566.5999999046326,701162.2000002861,7728,WL,C,12.0
5,28.091000080108643,learn,60000.0,Thu Jan 22 2026 11:00:58 GMT-0600 (Central Standard Time),704110.5,A,nailenter,O,enter,362,1,2948.2999997138977,701162.2000002861,7728,WL,C,12.0
5,28.77500009536743,learn,60000.0,Thu Jan 22 2026 11:00:58 GMT-0600 (Central Standard Time),704794.9000000954,A,l,O,l,670,1,684.1999998092651,704110.7000002861,7728,WL,C,13.0
5,28.94100022315979,learn,60000.0,Thu Jan 22 2026 11:00:58 GMT-0600 (Central Standard Time),704960.9000000954,A,le,O,e,155,1,850.1999998092651,704110.7000002861,7728,WL,C,13.0
5,29.225000143051147,learn,60000.0,Thu Jan 22 2026 11:00:58 GMT-0600 (Central Standard Time),705244.2000002861,A,let,O,t,270,1,1133.5,704110.7000002861,7728,WL,C,13.0
5,29.407999992370605,learn,60000.0,Thu Jan 22 2026 11:00:58 GMT-0600 (Central Standard Time),705427.1000003815,A,lett,O,t,179,1,1316.4000000953674,704110.7000002861,7728,WL,C,13.0
5,29.70800018310547,learn,60000.0,Thu Jan 22 2026 11:00:58 GMT-0600 (Central Standard Time),705727.7000002861,A,lette,O,e,280,1,1617.0,704110.7000002861,7728,WL,C,13.0
5,29.824000120162964,learn,60000.0,Thu Jan 22 2026 11:00:58 GMT-0600 (Central Standard Time),705843.6000003815,A,letter,O,r,108,1,1732.9000000953674,704110.7000002861,7728,WL,C,13.0
5,34.688000202178955,learn,60000.0,Thu Jan 22 2026 11:00:58 GMT-0600 (Central Standard Time),710708.1000003815,A,letterenter,O,enter,4857,1,6597.400000095367,704110.7000002861,7728,WL,C,13.0
5,94.7020001411438,learn,60000.0,Thu Jan 22 2026 11:00:58 GMT-0600 (Central Standard Time),770722.7000002861,A,None,O,None,60009,1,60014.300000190735,710708.4000000954,7728,WL,C,14.0
6,1.0139999389648438,distr,58986.000061035156,Thu Jan 22 2026 11:00:58 GMT-0600 (Central Standard Time),852463.6000003815,B,m,O,m,993,1,1013.5,851450.1000003815,7728,WL,C,1.0
6,1.2999999523162842,distr,58700.000047683716,Thu Jan 22 2026 11:00:58 GMT-0600 (Central Standard Time),852749.2000002861,B,mo,O,o,264,1,1299.0999999046326,851450.1000003815,7728,WL,C,1.0
6,1.5490000247955322,distr,58450.99997520447,Thu Jan 22 2026 11:00:58 GMT-0600 (Central Standard Time),852998.3000001907,B,mot,O,t,229,1,1548.1999998092651,851450.1000003815,7728,WL,C,1.0
6,1.6470000743865967,distr,58352.9999256134,Thu Jan 22 2026 11:00:58 GMT-0600 (Central Standard Time),853096.2000002861,B,moth,O,h,82,1,1646.0999999046326,851450.1000003815,7728,WL,C,1.0
6,1.7809998989105225,distr,58219.00010108948,Thu Jan 22 2026 11:00:58 GMT-0600 (Central Standard Time),853230.5,B,mothe,O,e,116,1,1780.3999996185303,851450.1000003815,7728,WL,C,1.0
6,1.9040000438690186,distr,58095.99995613098,Thu Jan 22 2026 11:00:58 GMT-0600 (Central Standard Time),853353.4000000954,B,mother,O,r,101,1,1903.2999997138977,851450.1000003815,7728,WL,C,1.0
6,2.5799999237060547,distr,57420.000076293945,Thu Jan 22 2026 11:00:58 GMT-0600 (Central Standard Time),854029.8000001907,B,motherenter,O,enter,660,1,2579.699999809265,851450.1000003815,7728,WL,C,1.0
6,3.047999858856201,distr,56952.0001411438,Thu Jan 22 2026 11:00:58 GMT-0600 (Central Standard Time),854497.0,B,c,O,c,455,1,467.0,854030.0,7728,WL,C,2.0
6,3.2300000190734863,distr,56769.999980926514,Thu Jan 22 2026 11:00:58 GMT-0600 (Central Standard Time),854678.9000000954,B,ch,O,h,163,1,648.9000000953674,854030.0,7728,WL,C,2.0
6,3.447999954223633,distr,56552.00004577637,Thu Jan 22 2026 11:00:58 GMT-0600 (Central Standard Time),854897.6000003815,B,chr,O,r,205,1,867.6000003814697,854030.0,7728,WL,C,2.0
6,3.63100004196167,distr,56368.99995803833,Thu Jan 22 2026 11:00:58 GMT-0600 (Central Standard Time),855080.0,B,chri,O,i,162,1,1050.0,854030.0,7728,WL,C,2.0
6,3.763000011444092,distr,56236.99998855591,Thu Jan 22 2026 11:00:58 GMT-0600 (Central Standard Time),855212.6000003815,B,chris,O,s,123,1,1182.6000003814697,854030.0,7728,WL,C,2.0
6,3.9639999866485596,distr,56036.00001335144,Thu Jan 22 2026 11:00:58 GMT-0600 (Central Standard Time),855413.0,B,christ,O,t,184,1,1383.0,854030.0,7728,WL,C,2.0
6,4.263999938964844,distr,55736.000061035156,Thu Jan 22 2026 11:00:58 GMT-0600 (Central Standard Time),855713.1000003815,B,christm,O,m,278,1,1683.1000003814697,854030.0,7728,WL,C,2.0
6,4.3459999561309814,distr,55654.00004386902,Thu Jan 22 2026 11:00:58 GMT-0600 (Central Standard Time),855795.4000000954,B,christma,O,a,76,1,1765.4000000953674,854030.0,7728,WL,C,2.0
6,4.5309998989105225,distr,55469.00010108948,Thu Jan 22 2026 11:00:58 GMT-0600 (Central Standard Time),855980.1000003815,B,christmas,O,s,177,1,1950.1000003814697,854030.0,7728,WL,C,2.0
6,5.562000036239624,distr,54437.999963760376,Thu Jan 22 2026 11:00:58 GMT-0600 (Central Standard Time),857011.8000001907,B,christmasenter,O,enter,1025,1,2981.800000190735,854030.0,7728,WL,C,2.0
6,6.680999994277954,distr,53319.000005722046,Thu Jan 22 2026 11:00:58 GMT-0600 (Central Standard Time),858130.3000001907,B,h,O,h,1114,1,1118.1999998092651,857012.1000003815,7728,WL,C,3.0
6,6.846999883651733,distr,53153.00011634827,Thu Jan 22 2026 11:00:58 GMT-0600 (Central Standard Time),858296.3000001907,B,ho,O,o,147,1,1284.1999998092651,857012.1000003815,7728,WL,C,3.0
6,7.0290000438690186,distr,52970.99995613098,Thu Jan 22 2026 11:00:58 GMT-0600 (Central Standard Time),858478.5,B,hot,O,t,173,1,1466.3999996185303,857012.1000003815,7728,WL,C,3.0
6,7.145999908447266,distr,52854.000091552734,Thu Jan 22 2026 11:00:58 GMT-0600 (Central Standard Time),858595.5,B,hote,O,e,102,1,1583.3999996185303,857012.1000003815,7728,WL,C,3.0
6,7.312999963760376,distr,52687.000036239624,Thu Jan 22 2026 11:00:58 GMT-0600 (Central Standard Time),858762.0,B,hotel,O,l,162,1,1749.8999996185303,857012.1000003815,7728,WL,C,3.0
6,7.7779998779296875,distr,52222.00012207031,Thu Jan 22 2026 11:00:58 GMT-0600 (Central Standard Time),859227.7000002861,B,hotelenter,O,enter,459,1,2215.5999999046326,857012.1000003815,7728,WL,C,3.0
6,10.74399995803833,distr,49256.00004196167,Thu Jan 22 2026 11:00:58 GMT-0600 (Central Standard Time),862193.4000000954,B,m,O,m,2953,1,2965.5,859227.9000000954,7728,WL,C,4.0
6,11.01200008392334,distr,48987.99991607666,Thu Jan 22 2026 11:00:58 GMT-0600 (Central Standard Time),862461.2000002861,B,me,O,e,258,1,3233.300000190735,859227.9000000954,7728,WL,C,4.0
6,11.210999965667725,distr,48789.000034332275,Thu Jan 22 2026 11:00:58 GMT-0600 (Central Standard Time),862660.6000003815,B,mea,O,a,182,1,3432.7000002861023,859227.9000000954,7728,WL,C,4.0
6,11.345999956130981,distr,48654.00004386902,Thu Jan 22 2026 11:00:58 GMT-0600 (Central Standard Time),862795.2000002861,B,meat,O,t,122,1,3567.300000190735,859227.9000000954,7728,WL,C,4.0
6,11.793999910354614,distr,48206.000089645386,Thu Jan 22 2026 11:00:58 GMT-0600 (Central Standard Time),863243.2000002861,B,meatenter,O,enter,433,1,4015.300000190735,859227.9000000954,7728,WL,C,4.0
6,12.309999942779541,distr,47690.00005722046,Thu Jan 22 2026 11:00:58 GMT-0600 (Central Standard Time),863759.7000002861,B,b,O,b,506,1,516.2000002861023,863243.5,7728,WL,C,5.0
6,12.476999998092651,distr,47523.00000190735,Thu Jan 22 2026 11:00:58 GMT-0600 (Central Standard Time),863926.9000000954,B,bu,O,u,148,1,683.4000000953674,863243.5,7728,WL,C,5.0
6,12.812000036239624,distr,47187.999963760376,Thu Jan 22 2026 11:00:58 GMT-0600 (Central Standard Time),864261.2000002861,B,but,O,t,324,1,1017.7000002861023,863243.5,7728,WL,C,5.0
6,13.611000061035156,distr,46388.999938964844,Thu Jan 22 2026 11:00:58 GMT-0600 (Central Standard Time),865060.2000002861,B,bute,O,e,782,1,1816.7000002861023,863243.5,7728,WL,C,5.0
6,13.760999917984009,distr,46239.00008201599,Thu Jan 22 2026 11:00:58 GMT-0600 (Central Standard Time),865210.3000001907,B,buter,O,r,145,1,1966.8000001907349,863243.5,7728,WL,C,5.0
6,14.960000038146973,distr,45039.99996185303,Thu Jan 22 2026 11:00:58 GMT-0600 (Central Standard Time),866409.3000001907,B,bute,O,backspace,1194,1,3165.800000190735,863243.5,7728,WL,C,5.0
6,15.793999910354614,distr,44206.000089645386,Thu Jan 22 2026 11:00:58 GMT-0600 (Central Standard Time),867243.6000003815,B,but,O,backspace,826,1,4000.1000003814697,863243.5,7728,WL,C,5.0
6,16.007999897003174,distr,43992.000102996826,Thu Jan 22 2026 11:00:58 GMT-0600 (Central Standard Time),867457.9000000954,B,butt,O,t,201,1,4214.400000095367,863243.5,7728,WL,C,5.0
6,16.39400005340576,distr,43605.99994659424,Thu Jan 22 2026 11:00:58 GMT-0600 (Central Standard Time),867843.6000003815,B,butte,O,e,373,1,4600.10000038147,863243.5,7728,WL,C,5.0
6,16.509000062942505,distr,43490.999937057495,Thu Jan 22 2026 11:00:58 GMT-0600 (Central Standard Time),867958.9000000954,B,butter,O,r,105,1,4715.400000095367,863243.5,7728,WL,C,5.0
6,17.358999967575073,distr,42641.00003242493,Thu Jan 22 2026 11:00:58 GMT-0600 (Central Standard Time),868808.5,B,butterenter,O,enter,828,1,5565.0,863243.5,7728,WL,C,5.0
6,17.693000078201294,distr,42306.999921798706,Thu Jan 22 2026 11:00:58 GMT-0600 (Central Standard Time),869142.0,B,s,O,s,317,1,333.19999980926514,868808.8000001907,7728,WL,C,6.0
6,17.925999879837036,distr,42074.000120162964,Thu Jan 22 2026 11:00:58 GMT-0600 (Central Standard Time),869375.3000001907,B,sk,O,k,213,1,566.5,868808.8000001907,7728,WL,C,6.0
6,18.210000038146973,distr,41789.99996185303,Thu Jan 22 2026 11:00:58 GMT-0600 (Central Standard Time),869659.6000003815,B,sky,O,y,271,1,850.8000001907349,868808.8000001907,7728,WL,C,6.0
6,18.608999967575073,distr,41391.00003242493,Thu Jan 22 2026 11:00:58 GMT-0600 (Central Standard Time),870058.5,B,skyd,O,d,395,1,1249.6999998092651,868808.8000001907,7728,WL,C,6.0
6,18.72499990463257,distr,41275.00009536743,Thu Jan 22 2026 11:00:58 GMT-0600 (Central Standard Time),870174.6000003815,B,skydi,O,i,97,1,1365.8000001907349,868808.8000001907,7728,WL,C,6.0
6,18.89199995994568,distr,41108.00004005432,Thu Jan 22 2026 11:00:58 GMT-0600 (Central Standard Time),870341.7000002861,B,skydia,O,a,149,1,1532.9000000953674,868808.8000001907,7728,WL,C,6.0
6,19.075000047683716,distr,40924.999952316284,Thu Jan 22 2026 11:00:58 GMT-0600 (Central Standard Time),870524.8000001907,B,skydiam,O,m,175,1,1716.0,868808.8000001907,7728,WL,C,6.0
6,19.29099988937378,distr,40709.00011062622,Thu Jan 22 2026 11:00:58 GMT-0600 (Central Standard Time),870740.8000001907,B,skydiamo,O,o,208,1,1932.0,868808.8000001907,7728,WL,C,6.0
6,19.441999912261963,distr,40558.00008773804,Thu Jan 22 2026 11:00:58 GMT-0600 (Central Standard Time),870891.8000001907,B,skydiamon,O,n,133,1,2083.0,868808.8000001907,7728,WL,C,6.0
6,19.625,distr,40375.0,Thu Jan 22 2026 11:00:58 GMT-0600 (Central Standard Time),871074.9000000954,B,skydiamond,O,d,166,1,2266.0999999046326,868808.8000001907,7728,WL,C,6.0
6,19.991999864578247,distr,40008.00013542175,Thu Jan 22 2026 11:00:58 GMT-0600 (Central Standard Time),871441.5,B,skydiamondenter,O,enter,346,1,2632.699999809265,868808.8000001907,7728,WL,C,6.0
6,21.723999977111816,distr,38276.00002288818,Thu Jan 22 2026 11:00:58 GMT-0600 (Central Standard Time),873173.4000000954,B,v,O,v,1723,1,1731.5999999046326,871441.8000001907,7728,WL,C,7.0
6,21.85800004005432,distr,38141.99995994568,Thu Jan 22 2026 11:00:58 GMT-0600 (Central Standard Time),873307.1000003815,B,va,O,a,126,1,1865.3000001907349,871441.8000001907,7728,WL,C,7.0
6,22.026999950408936,distr,37973.000049591064,Thu Jan 22 2026 11:00:58 GMT-0600 (Central Standard Time),873476.0,B,val,O,l,152,1,2034.1999998092651,871441.8000001907,7728,WL,C,7.0
6,22.22499990463257,distr,37775.00009536743,Thu Jan 22 2026 11:00:58 GMT-0600 (Central Standard Time),873674.5,B,vall,O,l,184,1,2232.699999809265,871441.8000001907,7728,WL,C,7.0
6,22.44099998474121,distr,37559.00001525879,Thu Jan 22 2026 11:00:58 GMT-0600 (Central Standard Time),873890.1000003815,B,valle,O,e,209,1,2448.300000190735,871441.8000001907,7728,WL,C,7.0
6,22.625,distr,37375.0,Thu Jan 22 2026 11:00:58 GMT-0600 (Central Standard Time),874074.1000003815,B,valley,O,y,172,1,2632.300000190735,871441.8000001907,7728,WL,C,7.0
6,24.174000024795532,distr,35825.99997520447,Thu Jan 22 2026 11:00:58 GMT-0600 (Central Standard Time),875622.9000000954,B,valleyenter,O,enter,1537,1,4181.099999904633,871441.8000001907,7728,WL,C,7.0
6,31.471999883651733,distr,28528.000116348267,Thu Jan 22 2026 11:00:58 GMT-0600 (Central Standard Time),882921.8000001907,B,m,O,m,7287,1,7298.699999809265,875623.1000003815,7728,WL,C,8.0
6,31.671000003814697,distr,28328.999996185303,Thu Jan 22 2026 11:00:58 GMT-0600 (Central Standard Time),883120.4000000954,B,mo,O,o,183,1,7497.299999713898,875623.1000003815,7728,WL,C,8.0
6,31.853999853134155,distr,28146.000146865845,Thu Jan 22 2026 11:00:58 GMT-0600 (Central Standard Time),883303.8000001907,B,mon,O,n,160,1,7680.699999809265,875623.1000003815,7728,WL,C,8.0
6,32.0550000667572,distr,27944.999933242798,Thu Jan 22 2026 11:00:58 GMT-0600 (Central Standard Time),883504.0,B,mone,O,e,177,1,7880.89999961853,875623.1000003815,7728,WL,C,8.0
6,32.223999977111816,distr,27776.000022888184,Thu Jan 22 2026 11:00:58 GMT-0600 (Central Standard Time),883673.3000001907,B,money,O,y,165,1,8050.199999809265,875623.1000003815,7728,WL,C,8.0
6,32.72099995613098,distr,27279.00004386902,Thu Jan 22 2026 11:00:58 GMT-0600 (Central Standard Time),884170.7000002861,B,moneyenter,O,enter,489,1,8547.599999904633,875623.1000003815,7728,WL,C,8.0
6,54.96300005912781,distr,5036.999940872192,Thu Jan 22 2026 11:00:58 GMT-0600 (Central Standard Time),906412.8000001907,B,v,O,v,22234,1,22241.900000095367,884170.9000000954,7728,WL,C,9.0
6,55.26300001144409,distr,4736.999988555908,Thu Jan 22 2026 11:00:58 GMT-0600 (Central Standard Time),906712.7000002861,B,va,O,a,277,1,22541.800000190735,884170.9000000954,7728,WL,C,9.0
6,55.46399998664856,distr,4536.00001335144,Thu Jan 22 2026 11:00:58 GMT-0600 (Central Standard Time),906914.0,B,val,O,l,187,1,22743.099999904633,884170.9000000954,7728,WL,C,9.0
6,55.6470000743866,distr,4352.999925613403,Thu Jan 22 2026 11:00:58 GMT-0600 (Central Standard Time),907096.3000001907,B,vall,O,l,161,1,22925.400000095367,884170.9000000954,7728,WL,C,9.0
6,55.84599995613098,distr,4154.000043869019,Thu Jan 22 2026 11:00:58 GMT-0600 (Central Standard Time),907295.4000000954,B,valle,O,e,176,1,23124.5,884170.9000000954,7728,WL,C,9.0
6,56.062999963760376,distr,3937.000036239624,Thu Jan 22 2026 11:00:58 GMT-0600 (Central Standard Time),907512.3000001907,B,valley,O,y,205,1,23341.400000095367,884170.9000000954,7728,WL,C,9.0
6,56.46399998664856,distr,3536.0000133514404,Thu Jan 22 2026 11:00:58 GMT-0600 (Central Standard Time),907913.4000000954,B,valleyenter,O,enter,395,1,23742.5,884170.9000000954,7728,WL,C,9.0
6,60.01200008392334,distr,-12.000083923339844,Thu Jan 22 2026 11:00:58 GMT-0600 (Central Standard Time),911461.9000000954,B,None,O,None,3543,1,3548.199999809265,907913.7000002861,7728,WL,C,10.0
7,4.5329999923706055,immed,55467.000007629395,Thu Jan 22 2026 11:00:58 GMT-0600 (Central Standard Time),924591.2000002861,A,q,O,q,4513,1,4532.300000190735,920058.9000000954,7728,WL,C,1.0
7,4.631999969482422,immed,55368.00003051758,Thu Jan 22 2026 11:00:58 GMT-0600 (Central Standard Time),924690.6000003815,A,qu,O,u,91,1,4631.700000286102,920058.9000000954,7728,WL,C,1.0
7,4.83299994468689,immed,55167.00005531311,Thu Jan 22 2026 11:00:58 GMT-0600 (Central Standard Time),924891.2000002861,A,que,O,e,197,1,4832.300000190735,920058.9000000954,7728,WL,C,1.0
7,5.0,immed,55000.0,Thu Jan 22 2026 11:00:58 GMT-0600 (Central Standard Time),925058.4000000954,A,quee,O,e,143,1,4999.5,920058.9000000954,7728,WL,C,1.0
7,5.2149999141693115,immed,54785.00008583069,Thu Jan 22 2026 11:00:58 GMT-0600 (Central Standard Time),925273.4000000954,A,queen,O,n,209,1,5214.5,920058.9000000954,7728,WL,C,1.0
7,5.680999994277954,immed,54319.000005722046,Thu Jan 22 2026 11:00:58 GMT-0600 (Central Standard Time),925739.8000001907,A,queenenter,O,enter,460,1,5680.900000095367,920058.9000000954,7728,WL,C,1.0
7,6.46399998664856,immed,53536.00001335144,Thu Jan 22 2026 11:00:58 GMT-0600 (Central Standard Time),926522.9000000954,A,t,O,t,776,1,782.7999997138977,925740.1000003815,7728,WL,C,2.0
7,6.63100004196167,immed,53368.99995803833,Thu Jan 22 2026 11:00:58 GMT-0600 (Central Standard Time),926689.8000001907,A,to,O,o,159,1,949.6999998092651,925740.1000003815,7728,WL,C,2.0
7,6.815999984741211,immed,53184.00001525879,Thu Jan 22 2026 11:00:58 GMT-0600 (Central Standard Time),926874.3000001907,A,tow,O,w,175,1,1134.1999998092651,925740.1000003815,7728,WL,C,2.0
7,7.049000024795532,immed,52950.99997520447,Thu Jan 22 2026 11:00:58 GMT-0600 (Central Standard Time),927107.5,A,towe,O,e,229,1,1367.3999996185303,925740.1000003815,7728,WL,C,2.0
7,7.200000047683716,immed,52799.999952316284,Thu Jan 22 2026 11:00:58 GMT-0600 (Central Standard Time),927258.4000000954,A,tower,O,r,135,1,1518.2999997138977,925740.1000003815,7728,WL,C,2.0
7,8.082000017166138,immed,51917.99998283386,Thu Jan 22 2026 11:00:58 GMT-0600 (Central Standard Time),928140.5,A,towerenter,O,enter,876,1,2400.3999996185303,925740.1000003815,7728,WL,C,2.0
7,8.999000072479248,immed,51000.99992752075,Thu Jan 22 2026 11:00:58 GMT-0600 (Central Standard Time),929057.0,A,b,O,b,904,1,916.2999997138977,928140.7000002861,7728,WL,C,3.0
7,9.097000122070312,immed,50902.99987792969,Thu Jan 22 2026 11:00:58 GMT-0600 (Central Standard Time),929155.7000002861,A,bo,O,o,83,1,1015.0,928140.7000002861,7728,WL,C,3.0
7,9.470999956130981,immed,50529.00004386902,Thu Jan 22 2026 11:00:58 GMT-0600 (Central Standard Time),929529.1000003815,A,boy,O,y,366,1,1388.4000000953674,928140.7000002861,7728,WL,C,3.0
7,9.813999891281128,immed,50186.00010871887,Thu Jan 22 2026 11:00:58 GMT-0600 (Central Standard Time),929872.5,A,boyenter,O,enter,330,1,1731.7999997138977,928140.7000002861,7728,WL,C,3.0
7,10.331000089645386,immed,49668.999910354614,Thu Jan 22 2026 11:00:58 GMT-0600 (Central Standard Time),930389.3000001907,A,b,O,b,500,1,516.5,929872.8000001907,7728,WL,C,4.0
7,10.581000089645386,immed,49418.999910354614,Thu Jan 22 2026 11:00:58 GMT-0600 (Central Standard Time),930639.1000003815,A,bo,O,o,228,1,766.3000001907349,929872.8000001907,7728,WL,C,4.0
7,10.79699993133545,immed,49203.00006866455,Thu Jan 22 2026 11:00:58 GMT-0600 (Central Standard Time),930855.4000000954,A,bod,O,d,205,1,982.5999999046326,929872.8000001907,7728,WL,C,4.0
7,11.04800009727478,immed,48951.99990272522,Thu Jan 22 2026 11:00:58 GMT-0600 (Central Standard Time),931106.7000002861,A,body,O,y,243,1,1233.9000000953674,929872.8000001907,7728,WL,C,4.0
7,11.380000114440918,immed,48619.99988555908,Thu Jan 22 2026 11:00:58 GMT-0600 (Central Standard Time),931438.8000001907,A,bodyenter,O,enter,311,1,1566.0,929872.8000001907,7728,WL,C,4.0
7,12.13100004196167,immed,47868.99995803833,Thu Jan 22 2026 11:00:58 GMT-0600 (Central Standard Time),932189.7000002861,A,d,O,d,735,1,750.7000002861023,931439.0,7728,WL,C,5.0
7,12.312999963760376,immed,47687.000036239624,Thu Jan 22 2026 11:00:58 GMT-0600 (Central Standard Time),932371.5,A,do,O,o,166,1,932.5,931439.0,7728,WL,C,5.0
7,12.479000091552734,immed,47520.999908447266,Thu Jan 22 2026 11:00:58 GMT-0600 (Central Standard Time),932537.9000000954,A,doc,O,c,153,1,1098.9000000953674,931439.0,7728,WL,C,5.0
7,12.832000017166138,immed,47167.99998283386,Thu Jan 22 2026 11:00:58 GMT-0600 (Central Standard Time),932890.4000000954,A,doct,O,t,331,1,1451.4000000953674,931439.0,7728,WL,C,5.0
7,13.078999996185303,immed,46921.0000038147,Thu Jan 22 2026 11:00:58 GMT-0600 (Central Standard Time),933137.7000002861,A,docto,O,o,241,1,1698.7000002861023,931439.0,7728,WL,C,5.0
7,13.296000003814697,immed,46703.9999961853,Thu Jan 22 2026 11:00:58 GMT-0600 (Central Standard Time),933354.7000002861,A,doctor,O,r,201,1,1915.7000002861023,931439.0,7728,WL,C,5.0
7,13.562000036239624,immed,46437.999963760376,Thu Jan 22 2026 11:00:58 GMT-0600 (Central Standard Time),933620.9000000954,A,doctorenter,O,enter,259,1,2181.9000000953674,931439.0,7728,WL,C,5.0
7,13.911999940872192,immed,46088.00005912781,Thu Jan 22 2026 11:00:58 GMT-0600 (Central Standard Time),933970.9000000954,A,c,O,c,329,1,349.7999997138977,933621.1000003815,7728,WL,C,6.0
7,14.062999963760376,immed,45937.000036239624,Thu Jan 22 2026 11:00:58 GMT-0600 (Central Standard Time),934121.7000002861,A,ca,O,a,136,1,500.59999990463257,933621.1000003815,7728,WL,C,6.0
7,14.263000011444092,immed,45736.99998855591,Thu Jan 22 2026 11:00:58 GMT-0600 (Central Standard Time),934322.0,A,cam,O,m,193,1,700.8999996185303,933621.1000003815,7728,WL,C,6.0
7,14.479000091552734,immed,45520.999908447266,Thu Jan 22 2026 11:00:58 GMT-0600 (Central Standard Time),934538.0,A,camp,O,p,210,1,916.8999996185303,933621.1000003815,7728,WL,C,6.0
7,14.94700002670288,immed,45052.99997329712,Thu Jan 22 2026 11:00:58 GMT-0600 (Central Standard Time),935005.4000000954,A,campenter,O,enter,449,1,1384.2999997138977,933621.1000003815,7728,WL,C,6.0
7,15.696000099182129,immed,44303.99990081787,Thu Jan 22 2026 11:00:58 GMT-0600 (Central Standard Time),935754.9000000954,A,g,O,g,743,1,749.2999997138977,935005.6000003815,7728,WL,C,7.0
7,15.865000009536743,immed,44134.99999046326,Thu Jan 22 2026 11:00:58 GMT-0600 (Central Standard Time),935923.4000000954,A,gl,O,l,163,1,917.7999997138977,935005.6000003815,7728,WL,C,7.0
7,16.04699993133545,immed,43953.00006866455,Thu Jan 22 2026 11:00:58 GMT-0600 (Central Standard Time),936105.3000001907,A,gla,O,a,176,1,1099.6999998092651,935005.6000003815,7728,WL,C,7.0
7,17.528000116348267,immed,42471.99988365173,Thu Jan 22 2026 11:00:58 GMT-0600 (Central Standard Time),937586.6000003815,A,glag,O,g,1464,1,2581.0,935005.6000003815,7728,WL,C,7.0
7,18.078999996185303,immed,41921.0000038147,Thu Jan 22 2026 11:00:58 GMT-0600 (Central Standard Time),938137.6000003815,A,gla,O,backspace,538,1,3132.0,935005.6000003815,7728,WL,C,7.0
7,18.34599995613098,immed,41654.00004386902,Thu Jan 22 2026 11:00:58 GMT-0600 (Central Standard Time),938404.1000003815,A,gl,O,backspace,257,1,3398.5,935005.6000003815,7728,WL,C,7.0
7,18.528000116348267,immed,41471.99988365173,Thu Jan 22 2026 11:00:58 GMT-0600 (Central Standard Time),938586.6000003815,A,g,O,backspace,178,1,3581.0,935005.6000003815,7728,WL,C,7.0
7,18.74399995803833,immed,41256.00004196167,Thu Jan 22 2026 11:00:58 GMT-0600 (Central Standard Time),938802.7000002861,A,,O,backspace,208,1,3797.0999999046326,935005.6000003815,7728,WL,C,7.0
7,19.561000108718872,immed,40438.99989128113,Thu Jan 22 2026 11:00:58 GMT-0600 (Central Standard Time),939619.2000002861,A,f,O,f,809,1,4613.599999904633,935005.6000003815,7728,WL,C,7.0
7,20.293999910354614,immed,39706.000089645386,Thu Jan 22 2026 11:00:58 GMT-0600 (Central Standard Time),940352.4000000954,A,fl,O,l,720,1,5346.799999713898,935005.6000003815,7728,WL,C,7.0
7,20.41100001335144,immed,39588.99998664856,Thu Jan 22 2026 11:00:58 GMT-0600 (Central Standard Time),940469.2000002861,A,fla,O,a,99,1,5463.599999904633,935005.6000003815,7728,WL,C,7.0
7,20.55999994277954,immed,39440.00005722046,Thu Jan 22 2026 11:00:58 GMT-0600 (Central Standard Time),940618.8000001907,A,flag,O,g,142,1,5613.199999809265,935005.6000003815,7728,WL,C,7.0
7,21.91000008583069,immed,38089.99991416931,Thu Jan 22 2026 11:00:58 GMT-0600 (Central Standard Time),941969.0,A,flagenter,O,enter,1338,1,6963.39999961853,935005.6000003815,7728,WL,C,7.0
7,22.47699999809265,immed,37523.00000190735,Thu Jan 22 2026 11:00:58 GMT-0600 (Central Standard Time),942535.5,A,c,O,c,554,1,566.1999998092651,941969.3000001907,7728,WL,C,8.0
7,22.625999927520752,immed,37374.00007247925,Thu Jan 22 2026 11:00:58 GMT-0600 (Central Standard Time),942684.2000002861,A,ca,O,a,140,1,714.9000000953674,941969.3000001907,7728,WL,C,8.0
7,22.693000078201294,immed,37306.999921798706,Thu Jan 22 2026 11:00:58 GMT-0600 (Central Standard Time),942751.5,A,cam,O,m,48,1,782.1999998092651,941969.3000001907,7728,WL,C,8.0
7,22.91000008583069,immed,37089.99991416931,Thu Jan 22 2026 11:00:58 GMT-0600 (Central Standard Time),942968.1000003815,A,camp,O,p,205,1,998.8000001907349,941969.3000001907,7728,WL,C,8.0
7,23.45799994468689,immed,36542.00005531311,Thu Jan 22 2026 11:00:58 GMT-0600 (Central Standard Time),943516.8000001907,A,campenter,O,enter,534,1,1547.5,941969.3000001907,7728,WL,C,8.0
7,24.292999982833862,immed,35707.00001716614,Thu Jan 22 2026 11:00:58 GMT-0600 (Central Standard Time),944352.0,A,c,O,c,815,1,834.8999996185303,943517.1000003815,7728,WL,C,9.0
7,24.408999919891357,immed,35591.00008010864,Thu Jan 22 2026 11:00:58 GMT-0600 (Central Standard Time),944467.6000003815,A,co,O,o,101,1,950.5,943517.1000003815,7728,WL,C,9.0
7,24.575999975204468,immed,35424.00002479553,Thu Jan 22 2026 11:00:58 GMT-0600 (Central Standard Time),944634.6000003815,A,cor,O,r,151,1,1117.5,943517.1000003815,7728,WL,C,9.0
7,24.70900011062622,immed,35290.99988937378,Thu Jan 22 2026 11:00:58 GMT-0600 (Central Standard Time),944767.8000001907,A,corn,O,n,111,1,1250.6999998092651,943517.1000003815,7728,WL,C,9.0
7,25.026000022888184,immed,34973.99997711182,Thu Jan 22 2026 11:00:58 GMT-0600 (Central Standard Time),945084.4000000954,A,cornenter,O,enter,296,1,1567.2999997138977,943517.1000003815,7728,WL,C,9.0
7,25.259000062942505,immed,34740.999937057495,Thu Jan 22 2026 11:00:58 GMT-0600 (Central Standard Time),945317.8000001907,A,s,O,s,223,1,233.19999980926514,945084.6000003815,7728,WL,C,10.0
7,25.424999952316284,immed,34575.000047683716,Thu Jan 22 2026 11:00:58 GMT-0600 (Central Standard Time),945483.6000003815,A,su,O,u,151,1,399.0,945084.6000003815,7728,WL,C,10.0
7,25.592999935150146,immed,34407.00006484985,Thu Jan 22 2026 11:00:58 GMT-0600 (Central Standard Time),945651.2000002861,A,sug,O,g,162,1,566.5999999046326,945084.6000003815,7728,WL,C,10.0
7,25.825000047683716,immed,34174.999952316284,Thu Jan 22 2026 11:00:58 GMT-0600 (Central Standard Time),945883.4000000954,A,suga,O,a,217,1,798.7999997138977,945084.6000003815,7728,WL,C,10.0
7,25.941999912261963,immed,34058.00008773804,Thu Jan 22 2026 11:00:58 GMT-0600 (Central Standard Time),946001.0,A,sugar,O,r,107,1,916.3999996185303,945084.6000003815,7728,WL,C,10.0
7,26.243000030517578,immed,33756.99996948242,Thu Jan 22 2026 11:00:58 GMT-0600 (Central Standard Time),946301.2000002861,A,sugarenter,O,enter,284,1,1216.5999999046326,945084.6000003815,7728,WL,C,10.0
7,27.14299988746643,immed,32857.00011253357,Thu Jan 22 2026 11:00:58 GMT-0600 (Central Standard Time),947201.2000002861,A,w,O,w,881,1,899.9000000953674,946301.3000001907,7728,WL,C,11.0
7,27.2739999294281,immed,32726.0000705719,Thu Jan 22 2026 11:00:58 GMT-0600 (Central Standard Time),947332.5,A,wh,O,h,122,1,1031.1999998092651,946301.3000001907,7728,WL,C,11.0
7,27.700999975204468,immed,32299.000024795532,Thu Jan 22 2026 11:00:58 GMT-0600 (Central Standard Time),947759.6000003815,A,whe,O,e,423,1,1458.3000001907349,946301.3000001907,7728,WL,C,11.0
7,27.875,immed,32125.0,Thu Jan 22 2026 11:00:58 GMT-0600 (Central Standard Time),947933.3000001907,A,whea,O,a,156,1,1632.0,946301.3000001907,7728,WL,C,11.0
7,28.04099988937378,immed,31959.00011062622,Thu Jan 22 2026 11:00:58 GMT-0600 (Central Standard Time),948099.8000001907,A,wheat,O,t,164,1,1798.5,946301.3000001907,7728,WL,C,11.0
7,29.075000047683716,immed,30924.999952316284,Thu Jan 22 2026 11:00:58 GMT-0600 (Central Standard Time),949133.3000001907,A,wheatenter,O,enter,1017,1,2832.0,946301.3000001907,7728,WL,C,11.0
7,34.520999908447266,immed,25479.000091552734,Thu Jan 22 2026 11:00:58 GMT-0600 (Central Standard Time),954580.0,A,f,O,f,5431,1,5446.5,949133.5,7728,WL,C,12.0
7,34.74000000953674,immed,25259.999990463257,Thu Jan 22 2026 11:00:58 GMT-0600 (Central Standard Time),954798.3000001907,A,fl,O,l,209,1,5664.800000190735,949133.5,7728,WL,C,12.0
7,36.2720000743866,immed,23727.999925613403,Thu Jan 22 2026 11:00:58 GMT-0600 (Central Standard Time),956330.5,A,fla,O,a,1526,1,7197.0,949133.5,7728,WL,C,12.0
7,36.456000089645386,immed,23543.999910354614,Thu Jan 22 2026 11:00:58 GMT-0600 (Central Standard Time),956514.3000001907,A,flag,O,g,170,1,7380.800000190735,949133.5,7728,WL,C,12.0
7,36.73900008201599,immed,23260.99991798401,Thu Jan 22 2026 11:00:58 GMT-0600 (Central Standard Time),956797.9000000954,A,flagenter,O,enter,274,1,7664.400000095367,949133.5,7728,WL,C,12.0
7,37.17199993133545,immed,22828.00006866455,Thu Jan 22 2026 11:00:58 GMT-0600 (Central Standard Time),957231.2000002861,A,c,O,c,415,1,433.0,956798.2000002861,7728,WL,C,13.0
7,37.371999979019165,immed,22628.000020980835,Thu Jan 22 2026 11:00:58 GMT-0600 (Central Standard Time),957430.7000002861,A,ca,O,a,191,1,632.5,956798.2000002861,7728,WL,C,13.0
7,37.50600004196167,immed,22493.99995803833,Thu Jan 22 2026 11:00:58 GMT-0600 (Central Standard Time),957564.5,A,cam,O,m,127,1,766.2999997138977,956798.2000002861,7728,WL,C,13.0
7,37.75500011444092,immed,22244.999885559082,Thu Jan 22 2026 11:00:58 GMT-0600 (Central Standard Time),957813.3000001907,A,camp,O,p,233,1,1015.0999999046326,956798.2000002861,7728,WL,C,13.0
7,40.58699989318848,immed,19413.000106811523,Thu Jan 22 2026 11:00:58 GMT-0600 (Central Standard Time),960646.0,A,campenter,O,enter,2825,1,3847.7999997138977,956798.2000002861,7728,WL,C,13.0
7,60.01600003242493,immed,-16.000032424926758,Thu Jan 22 2026 11:00:58 GMT-0600 (Central Standard Time),980074.3000001907,A,None,O,None,19425,1,19428.199999809265,960646.1000003815,7728,WL,C,14.0
