Number,acc_sum,block,block_c,block_cond,con_img,correct,correct_response,datetime,endtime,jitter,project,response,response_time,row_sel,session_number,start_end,starttime,subject_id,task,task_vers,trial
9,0,prac,1,A,circle.png,0,m,Tue Mar 10 2026 13:45:16 GMT-0500 (Central Daylight Time),79390.80000000075,1500,O,None,1516,8,1,3795.2000000011176,75595.59999999963,7776,NTS,B,1
9,0,prac,1,A,circle.png,0,m,Tue Mar 10 2026 13:45:16 GMT-0500 (Central Daylight Time),83189.0,1500,O,None,1515,8,1,3793.300000000745,79395.69999999925,7776,NTS,B,2
3,0,prac,1,A,circle.png,0,z,Tue Mar 10 2026 13:45:16 GMT-0500 (Central Daylight Time),86671.90000000037,1200,O,None,1515,3,1,3477.5,83194.40000000037,7776,NTS,B,3
7,0,prac,1,A,circle.png,0,m,Tue Mar 10 2026 13:45:16 GMT-0500 (Central Daylight Time),90669.19999999925,1700,O,None,1515,6,1,3992.7999999988824,86676.40000000037,7776,NTS,B,4
6,0,prac,1,A,circle.png,0,m,Tue Mar 10 2026 13:45:16 GMT-0500 (Central Daylight Time),94867.90000000037,1900,O,None,1517,5,1,4193.5999999996275,90674.30000000075,7776,NTS,B,5
7,0,prac,1,A,circle.png,0,m,Tue Mar 10 2026 13:45:16 GMT-0500 (Central Daylight Time),98867.40000000037,1700,O,None,1514,6,1,3995.300000000745,94872.09999999963,7776,NTS,B,6
6,0,prac,1,A,circle.png,0,m,Tue Mar 10 2026 13:45:16 GMT-0500 (Central Daylight Time),103049.69999999925,1900,O,None,1516,5,1,4178.299999998882,98871.40000000037,7776,NTS,B,7
2,0,prac,1,A,circle.png,0,z,Tue Mar 10 2026 13:45:16 GMT-0500 (Central Daylight Time),107346.09999999963,2000,O,None,1514,2,1,4291.299999998882,103054.80000000075,7776,NTS,B,8
4,0,prac,1,A,circle.png,0,z,Tue Mar 10 2026 13:45:16 GMT-0500 (Central Daylight Time),111045.30000000075,1400,O,None,1516,4,1,3695.2000000011176,107350.09999999963,7776,NTS,B,9
2,1,prac,1,A,circle.png,1,z,Tue Mar 10 2026 13:45:16 GMT-0500 (Central Daylight Time),114945.80000000075,2000,O,z,1125,2,1,3896.10000000149,111049.69999999925,7776,NTS,B,10
8,2,prac,1,A,circle.png,1,m,Tue Mar 10 2026 13:45:16 GMT-0500 (Central Daylight Time),117808.5,1600,O,m,481,7,1,2858.199999999255,114950.30000000075,7776,NTS,B,11
1,3,prac,1,A,circle.png,1,z,Tue Mar 10 2026 13:45:16 GMT-0500 (Central Daylight Time),120074.59999999963,1000,O,z,482,1,1,2262.0999999996275,117812.5,7776,NTS,B,12
9,1,prac,2,A,circle.png,1,m,Tue Mar 10 2026 13:45:16 GMT-0500 (Central Daylight Time),126575.80000000075,1500,O,m,694,8,1,2963.10000000149,123612.69999999925,7776,NTS,B,1
1,2,prac,2,A,circle.png,1,z,Tue Mar 10 2026 13:45:16 GMT-0500 (Central Daylight Time),128823.69999999925,1000,O,z,461,1,1,2243.2999999988824,126580.40000000037,7776,NTS,B,2
7,3,prac,2,A,circle.png,1,m,Tue Mar 10 2026 13:45:16 GMT-0500 (Central Daylight Time),131839.5,1700,O,m,528,6,1,3011.199999999255,128828.30000000075,7776,NTS,B,3
2,4,prac,2,A,circle.png,1,z,Tue Mar 10 2026 13:45:16 GMT-0500 (Central Daylight Time),135121.30000000075,2000,O,z,483,2,1,3276.800000000745,131844.5,7776,NTS,B,4
3,5,prac,2,A,circle.png,1,z,Tue Mar 10 2026 13:45:16 GMT-0500 (Central Daylight Time),137804.90000000037,1200,O,z,714,3,1,2679.9000000003725,135125.0,7776,NTS,B,5
4,6,prac,2,A,circle.png,1,z,Tue Mar 10 2026 13:45:16 GMT-0500 (Central Daylight Time),140753.59999999963,1400,O,z,750,4,1,2945.199999999255,137808.40000000037,7776,NTS,B,6
2,7,prac,2,A,circle.png,1,z,Tue Mar 10 2026 13:45:16 GMT-0500 (Central Daylight Time),144086.30000000075,2000,O,z,546,2,1,3328.800000000745,140757.5,7776,NTS,B,7
6,8,prac,2,A,circle.png,1,m,Tue Mar 10 2026 13:45:16 GMT-0500 (Central Daylight Time),147201.19999999925,1900,O,m,426,5,1,3110.89999999851,144090.30000000075,7776,NTS,B,8
3,9,prac,2,A,circle.png,1,z,Tue Mar 10 2026 13:45:16 GMT-0500 (Central Daylight Time),149667.90000000037,1200,O,z,466,3,1,2462.5,147205.40000000037,7776,NTS,B,9
9,10,prac,2,A,circle.png,1,m,Tue Mar 10 2026 13:45:16 GMT-0500 (Central Daylight Time),152500.30000000075,1500,O,m,540,8,1,2828.9000000003725,149671.40000000037,7776,NTS,B,10
8,11,prac,2,A,circle.png,1,m,Tue Mar 10 2026 13:45:16 GMT-0500 (Central Daylight Time),155499.80000000075,1600,O,m,599,7,1,2995.10000000149,152504.69999999925,7776,NTS,B,11
1,12,prac,2,A,circle.png,1,z,Tue Mar 10 2026 13:45:16 GMT-0500 (Central Daylight Time),157831.69999999925,1000,O,z,544,1,1,2327.39999999851,155504.30000000075,7776,NTS,B,12
2,1,prac,1,B,triangle.png,1,m,Tue Mar 10 2026 13:45:16 GMT-0500 (Central Daylight Time),192337.5,1700,O,m,1093,2,1,3577.9000000003725,188759.59999999963,7776,NTS,B,1
6,2,prac,1,B,triangle.png,1,m,Tue Mar 10 2026 13:45:16 GMT-0500 (Central Daylight Time),194653.0,1000,O,m,530,5,1,2311.4000000003725,192341.59999999963,7776,NTS,B,2
8,3,prac,1,B,triangle.png,1,m,Tue Mar 10 2026 13:45:16 GMT-0500 (Central Daylight Time),197152.30000000075,1200,O,m,510,7,1,2495.5,194656.80000000075,7776,NTS,B,3
4,4,prac,1,B,triangle.png,1,m,Tue Mar 10 2026 13:45:16 GMT-0500 (Central Daylight Time),199967.90000000037,1500,O,m,519,4,1,2812.0999999996275,197155.80000000075,7776,NTS,B,4
3,5,prac,1,B,triangle.png,1,z,Tue Mar 10 2026 13:45:16 GMT-0500 (Central Daylight Time),203033.90000000037,1600,O,z,676,3,1,3062.7000000011176,199971.19999999925,7776,NTS,B,5
2,6,prac,1,B,triangle.png,1,m,Tue Mar 10 2026 13:45:16 GMT-0500 (Central Daylight Time),206398.90000000037,1700,O,m,877,2,1,3361.0,203037.90000000037,7776,NTS,B,6
7,6,prac,1,B,triangle.png,0,z,Tue Mar 10 2026 13:45:16 GMT-0500 (Central Daylight Time),210630.80000000075,2000,O,m,1437,6,1,4228.0,206402.80000000075,7776,NTS,B,7
3,6,prac,1,B,triangle.png,0,z,Tue Mar 10 2026 13:45:16 GMT-0500 (Central Daylight Time),214530.19999999925,1600,O,None,1515,3,1,3896.0999999996275,210634.09999999963,7776,NTS,B,8
6,7,prac,1,B,triangle.png,1,m,Tue Mar 10 2026 13:45:16 GMT-0500 (Central Daylight Time),217361.59999999963,1000,O,m,1042,5,1,2827.7999999988824,214533.80000000075,7776,NTS,B,9
9,8,prac,1,B,triangle.png,1,z,Tue Mar 10 2026 13:45:16 GMT-0500 (Central Daylight Time),220195.69999999925,1400,O,z,633,8,1,2830.39999999851,217365.30000000075,7776,NTS,B,10
1,9,prac,1,B,triangle.png,1,z,Tue Mar 10 2026 13:45:16 GMT-0500 (Central Daylight Time),223478.0,1900,O,z,597,1,1,3278.9000000003725,220199.09999999963,7776,NTS,B,11
7,10,prac,1,B,triangle.png,1,z,Tue Mar 10 2026 13:45:16 GMT-0500 (Central Daylight Time),227025.69999999925,2000,O,z,749,6,1,3539.39999999851,223486.30000000075,7776,NTS,B,12
7,1,test,1,A,circle.png,1,m,Tue Mar 10 2026 13:45:16 GMT-0500 (Central Daylight Time),254566.5,1700,O,m,660,6,1,2379.199999999255,252187.30000000075,7776,NTS,B,1
8,2,test,1,A,circle.png,1,m,Tue Mar 10 2026 13:45:16 GMT-0500 (Central Daylight Time),256700.19999999925,1600,O,m,500,7,1,2130.89999999851,254569.30000000075,7776,NTS,B,2
1,3,test,1,A,circle.png,1,z,Tue Mar 10 2026 13:45:16 GMT-0500 (Central Daylight Time),258216.09999999963,1000,O,z,495,1,1,1513.2999999988824,256702.80000000075,7776,NTS,B,3
3,4,test,1,A,circle.png,1,z,Tue Mar 10 2026 13:45:16 GMT-0500 (Central Daylight Time),260015.09999999963,1200,O,z,578,3,1,1796.5,258218.59999999963,7776,NTS,B,4
2,5,test,1,A,circle.png,1,z,Tue Mar 10 2026 13:45:16 GMT-0500 (Central Daylight Time),262547.5,2000,O,z,500,2,1,2529.699999999255,260017.80000000075,7776,NTS,B,5
9,6,test,1,A,circle.png,1,m,Tue Mar 10 2026 13:45:16 GMT-0500 (Central Daylight Time),264563.69999999925,1500,O,m,499,8,1,2013.5999999996275,262550.0999999996,7776,NTS,B,6
4,7,test,1,A,circle.png,1,z,Tue Mar 10 2026 13:45:16 GMT-0500 (Central Daylight Time),266563.69999999925,1400,O,z,566,4,1,1997.5,264566.19999999925,7776,NTS,B,7
9,8,test,1,A,circle.png,1,m,Tue Mar 10 2026 13:45:16 GMT-0500 (Central Daylight Time),268679.80000000075,1500,O,m,596,8,1,2113.2000000011176,266566.5999999996,7776,NTS,B,8
7,9,test,1,A,circle.png,1,m,Tue Mar 10 2026 13:45:16 GMT-0500 (Central Daylight Time),270861.80000000075,1700,O,m,466,6,1,2179.0,268682.80000000075,7776,NTS,B,9
8,10,test,1,A,circle.png,1,m,Tue Mar 10 2026 13:45:16 GMT-0500 (Central Daylight Time),272994.9000000004,1600,O,m,508,7,1,2130.4000000003725,270864.5,7776,NTS,B,10
7,11,test,1,A,circle.png,1,m,Tue Mar 10 2026 13:45:16 GMT-0500 (Central Daylight Time),275211.0999999996,1700,O,m,484,6,1,2213.699999999255,272997.4000000004,7776,NTS,B,11
6,12,test,1,A,circle.png,1,m,Tue Mar 10 2026 13:45:16 GMT-0500 (Central Daylight Time),277726.5,1900,O,m,597,5,1,2512.9000000003725,275213.5999999996,7776,NTS,B,12
2,13,test,1,A,circle.png,1,z,Tue Mar 10 2026 13:45:16 GMT-0500 (Central Daylight Time),280309.0,2000,O,z,548,2,1,2580.0999999996275,277728.9000000004,7776,NTS,B,13
7,14,test,1,A,circle.png,1,m,Tue Mar 10 2026 13:45:16 GMT-0500 (Central Daylight Time),282541.5999999996,1700,O,m,514,6,1,2230.0,280311.5999999996,7776,NTS,B,14
4,15,test,1,A,circle.png,1,z,Tue Mar 10 2026 13:45:16 GMT-0500 (Central Daylight Time),284507.69999999925,1400,O,z,532,4,1,1963.7999999988824,282543.9000000004,7776,NTS,B,15
4,16,test,1,A,circle.png,1,z,Tue Mar 10 2026 13:45:16 GMT-0500 (Central Daylight Time),286440.9000000004,1400,O,z,504,4,1,1930.7000000011176,284510.19999999925,7776,NTS,B,16
3,17,test,1,A,circle.png,1,z,Tue Mar 10 2026 13:45:16 GMT-0500 (Central Daylight Time),288206.4000000004,1200,O,z,539,3,1,1762.2000000011176,286444.19999999925,7776,NTS,B,17
3,18,test,1,A,circle.png,1,z,Tue Mar 10 2026 13:45:16 GMT-0500 (Central Daylight Time),289906.19999999925,1200,O,z,468,3,1,1697.0999999996275,288209.0999999996,7776,NTS,B,18
6,19,test,1,A,circle.png,1,m,Tue Mar 10 2026 13:45:16 GMT-0500 (Central Daylight Time),292304.9000000004,1900,O,m,478,5,1,2395.9000000003725,289909.0,7776,NTS,B,19
1,20,test,1,A,circle.png,1,z,Tue Mar 10 2026 13:45:16 GMT-0500 (Central Daylight Time),293838.0999999996,1000,O,z,506,1,1,1530.2999999988824,292307.80000000075,7776,NTS,B,20
2,21,test,1,A,circle.png,1,z,Tue Mar 10 2026 13:45:16 GMT-0500 (Central Daylight Time),296371.0,2000,O,z,508,2,1,2530.4000000003725,293840.5999999996,7776,NTS,B,21
1,22,test,1,A,circle.png,1,z,Tue Mar 10 2026 13:45:16 GMT-0500 (Central Daylight Time),297903.5999999996,1000,O,z,503,1,1,1530.199999999255,296373.4000000004,7776,NTS,B,22
8,23,test,1,A,circle.png,1,m,Tue Mar 10 2026 13:45:16 GMT-0500 (Central Daylight Time),300036.4000000004,1600,O,m,516,7,1,2130.4000000003725,297906.0,7776,NTS,B,23
3,24,test,1,A,circle.png,1,z,Tue Mar 10 2026 13:45:16 GMT-0500 (Central Daylight Time),301752.0,1200,O,z,495,3,1,1713.300000000745,300038.69999999925,7776,NTS,B,24
6,1,test,1,B,triangle.png,1,m,Tue Mar 10 2026 13:45:16 GMT-0500 (Central Daylight Time),322196.0,1500,O,m,734,13,1,2263.300000000745,319932.69999999925,7776,NTS,B,1
4,2,test,1,B,triangle.png,1,m,Tue Mar 10 2026 13:45:16 GMT-0500 (Central Daylight Time),324312.0,1500,O,m,588,4,1,2110.699999999255,322201.30000000075,7776,NTS,B,2
3,3,test,1,B,triangle.png,1,z,Tue Mar 10 2026 13:45:16 GMT-0500 (Central Daylight Time),326860.19999999925,2000,O,z,523,11,1,2545.699999999255,324314.5,7776,NTS,B,3
7,3,test,1,B,triangle.png,0,z,Tue Mar 10 2026 13:45:16 GMT-0500 (Central Daylight Time),329376.4000000004,2000,O,m,494,6,1,2513.9000000003725,326862.5,7776,NTS,B,4
3,4,test,1,B,triangle.png,1,z,Tue Mar 10 2026 13:45:16 GMT-0500 (Central Daylight Time),331509.19999999925,1600,O,z,507,3,1,2130.199999999255,329379.0,7776,NTS,B,5
4,5,test,1,B,triangle.png,1,m,Tue Mar 10 2026 13:45:16 GMT-0500 (Central Daylight Time),333558.69999999925,1000,O,m,1031,12,1,2047.0,331511.69999999925,7776,NTS,B,6
6,6,test,1,B,triangle.png,1,m,Tue Mar 10 2026 13:45:16 GMT-0500 (Central Daylight Time),335208.19999999925,1000,O,m,622,5,1,1646.7999999988824,333561.4000000004,7776,NTS,B,7
7,7,test,1,B,triangle.png,1,z,Tue Mar 10 2026 13:45:16 GMT-0500 (Central Daylight Time),337640.4000000004,1600,O,z,802,14,1,2429.300000000745,335211.0999999996,7776,NTS,B,8
2,8,test,1,B,triangle.png,1,m,Tue Mar 10 2026 13:45:16 GMT-0500 (Central Daylight Time),340289.5999999996,1700,O,m,929,2,1,2646.5999999996275,337643.0,7776,NTS,B,9
3,8,test,1,B,triangle.png,0,z,Tue Mar 10 2026 13:45:16 GMT-0500 (Central Daylight Time),343822.4000000004,2000,O,None,1516,11,1,3530.2000000011176,340292.19999999925,7776,NTS,B,10
7,9,test,1,B,triangle.png,1,z,Tue Mar 10 2026 13:45:16 GMT-0500 (Central Daylight Time),346537.69999999925,2000,O,z,694,6,1,2712.7999999988824,343824.9000000004,7776,NTS,B,11
3,10,test,1,B,triangle.png,1,z,Tue Mar 10 2026 13:45:16 GMT-0500 (Central Daylight Time),349220.69999999925,1600,O,z,1057,3,1,2680.2999999988824,346540.4000000004,7776,NTS,B,12
7,11,test,1,B,triangle.png,1,z,Tue Mar 10 2026 13:45:16 GMT-0500 (Central Daylight Time),351535.80000000075,1600,O,z,695,14,1,2312.2000000011176,349223.5999999996,7776,NTS,B,13
9,12,test,1,B,triangle.png,1,z,Tue Mar 10 2026 13:45:16 GMT-0500 (Central Daylight Time),354168.9000000004,1900,O,z,703,16,1,2630.5,351538.4000000004,7776,NTS,B,14
1,13,test,1,B,triangle.png,1,z,Tue Mar 10 2026 13:45:16 GMT-0500 (Central Daylight Time),356867.5,1900,O,z,766,1,1,2696.0,354171.5,7776,NTS,B,15
4,14,test,1,B,triangle.png,1,m,Tue Mar 10 2026 13:45:16 GMT-0500 (Central Daylight Time),359068.4000000004,1500,O,m,676,4,1,2198.5,356869.9000000004,7776,NTS,B,16
9,15,test,1,B,triangle.png,1,z,Tue Mar 10 2026 13:45:16 GMT-0500 (Central Daylight Time),361099.4000000004,1400,O,z,609,8,1,2028.4000000003725,359071.0,7776,NTS,B,17
8,16,test,1,B,triangle.png,1,m,Tue Mar 10 2026 13:45:16 GMT-0500 (Central Daylight Time),363482.69999999925,1700,O,m,659,15,1,2380.2999999988824,361102.4000000004,7776,NTS,B,18
9,17,test,1,B,triangle.png,1,z,Tue Mar 10 2026 13:45:16 GMT-0500 (Central Daylight Time),365515.4000000004,1400,O,z,616,8,1,2029.4000000003725,363486.0,7776,NTS,B,19
1,18,test,1,B,triangle.png,1,z,Tue Mar 10 2026 13:45:16 GMT-0500 (Central Daylight Time),367547.5999999996,1400,O,z,616,9,1,2029.5999999996275,365518.0,7776,NTS,B,20
2,19,test,1,B,triangle.png,1,m,Tue Mar 10 2026 13:45:16 GMT-0500 (Central Daylight Time),369480.80000000075,1200,O,m,711,10,1,1930.9000000003725,367549.9000000004,7776,NTS,B,21
6,20,test,1,B,triangle.png,1,m,Tue Mar 10 2026 13:45:16 GMT-0500 (Central Daylight Time),371746.80000000075,1500,O,m,735,13,1,2263.10000000149,369483.69999999925,7776,NTS,B,22
6,21,test,1,B,triangle.png,1,m,Tue Mar 10 2026 13:45:16 GMT-0500 (Central Daylight Time),373295.5,1000,O,m,529,5,1,1546.0,371749.5,7776,NTS,B,23
8,22,test,1,B,triangle.png,1,m,Tue Mar 10 2026 13:45:16 GMT-0500 (Central Daylight Time),375028.69999999925,1200,O,m,514,7,1,1730.5999999996275,373298.0999999996,7776,NTS,B,24
4,0,prac,1,C,circle.png,0,z,Tue Mar 10 2026 13:45:16 GMT-0500 (Central Daylight Time),413668.80000000075,1000,O,None,1516,4,1,3292.2000000011176,410376.5999999996,7776,NTS,B,1
3,1,prac,1,C,triangle.png,1,z,Tue Mar 10 2026 13:45:16 GMT-0500 (Central Daylight Time),416849.5999999996,1500,O,z,906,3,1,3172.7999999988824,413676.80000000075,7776,NTS,B,2
7,2,prac,1,C,triangle.png,1,z,Tue Mar 10 2026 13:45:16 GMT-0500 (Central Daylight Time),419603.30000000075,1200,O,z,770,6,1,2749.300000000745,416854.0,7776,NTS,B,3
1,3,prac,1,C,circle.png,1,z,Tue Mar 10 2026 13:45:16 GMT-0500 (Central Daylight Time),422998.5999999996,1700,O,z,920,1,1,3390.699999999255,419607.9000000004,7776,NTS,B,4
7,4,prac,1,C,triangle.png,1,z,Tue Mar 10 2026 13:45:16 GMT-0500 (Central Daylight Time),425762.9000000004,1200,O,z,782,6,1,2756.0,423006.9000000004,7776,NTS,B,5
9,5,prac,1,C,circle.png,1,m,Tue Mar 10 2026 13:45:16 GMT-0500 (Central Daylight Time),428946.5,1900,O,m,492,8,1,3177.5,425769.0,7776,NTS,B,6
8,5,prac,1,C,triangle.png,0,m,Tue Mar 10 2026 13:45:16 GMT-0500 (Central Daylight Time),431895.19999999925,1400,O,z,763,7,1,2943.5,428951.69999999925,7776,NTS,B,7
2,6,prac,1,C,triangle.png,1,m,Tue Mar 10 2026 13:45:16 GMT-0500 (Central Daylight Time),435143.30000000075,1600,O,m,861,2,1,3240.10000000149,431903.19999999925,7776,NTS,B,8
2,7,prac,1,C,triangle.png,1,m,Tue Mar 10 2026 13:45:16 GMT-0500 (Central Daylight Time),438342.80000000075,1600,O,m,814,2,1,3192.2000000011176,435150.5999999996,7776,NTS,B,9
4,8,prac,1,C,circle.png,1,z,Tue Mar 10 2026 13:45:16 GMT-0500 (Central Daylight Time),441310.19999999925,1000,O,z,1185,4,1,2958.7999999988824,438351.4000000004,7776,NTS,B,10
9,9,prac,1,C,circle.png,1,m,Tue Mar 10 2026 13:45:16 GMT-0500 (Central Daylight Time),444940.5,1900,O,m,932,8,1,3623.300000000745,441317.19999999925,7776,NTS,B,11
6,10,prac,1,C,circle.png,1,m,Tue Mar 10 2026 13:45:16 GMT-0500 (Central Daylight Time),448539.9000000004,2000,O,m,815,5,1,3595.800000000745,444944.0999999996,7776,NTS,B,12
6,1,test,1,C,circle.png,1,m,Tue Mar 10 2026 13:45:16 GMT-0500 (Central Daylight Time),491776.5999999996,1900,O,m,938,21,1,2864.2999999988824,488912.30000000075,7776,NTS,B,1
8,2,test,1,C,circle.png,1,m,Tue Mar 10 2026 13:45:16 GMT-0500 (Central Daylight Time),493692.69999999925,1200,O,m,685,15,1,1910.5,491782.19999999925,7776,NTS,B,2
4,3,test,1,C,triangle.png,1,m,Tue Mar 10 2026 13:45:16 GMT-0500 (Central Daylight Time),496590.5999999996,1500,O,m,1371,20,1,2892.0,493698.5999999996,7776,NTS,B,3
1,4,test,1,C,triangle.png,1,z,Tue Mar 10 2026 13:45:16 GMT-0500 (Central Daylight Time),499192.4000000004,1900,O,z,679,9,1,2596.0999999996275,496596.30000000075,7776,NTS,B,4
4,4,test,1,C,circle.png,0,z,Tue Mar 10 2026 13:45:16 GMT-0500 (Central Daylight Time),501405.9000000004,1400,O,m,797,4,1,2206.5,499199.4000000004,7776,NTS,B,5
2,5,test,1,C,circle.png,1,z,Tue Mar 10 2026 13:45:16 GMT-0500 (Central Daylight Time),504006.4000000004,1700,O,z,874,18,1,2596.5,501409.9000000004,7776,NTS,B,6
9,6,test,1,C,circle.png,1,m,Tue Mar 10 2026 13:45:16 GMT-0500 (Central Daylight Time),506271.19999999925,1500,O,m,738,24,1,2260.39999999851,504010.80000000075,7776,NTS,B,7
8,7,test,1,C,triangle.png,1,m,Tue Mar 10 2026 13:45:16 GMT-0500 (Central Daylight Time),509020.80000000075,1600,O,m,1117,23,1,2745.0,506275.80000000075,7776,NTS,B,8
2,8,test,1,C,triangle.png,1,m,Tue Mar 10 2026 13:45:16 GMT-0500 (Central Daylight Time),512185.80000000075,2000,O,m,1135,2,1,3161.4000000003725,509024.4000000004,7776,NTS,B,9
1,9,test,1,C,circle.png,1,z,Tue Mar 10 2026 13:45:16 GMT-0500 (Central Daylight Time),514052.19999999925,1000,O,z,842,1,1,1862.199999999255,512190.0,7776,NTS,B,10
4,10,test,1,C,triangle.png,1,m,Tue Mar 10 2026 13:45:16 GMT-0500 (Central Daylight Time),516534.19999999925,1500,O,m,965,12,1,2478.39999999851,514055.80000000075,7776,NTS,B,11
6,11,test,1,C,circle.png,1,m,Tue Mar 10 2026 13:45:16 GMT-0500 (Central Daylight Time),519700.5,1900,O,m,1241,5,1,3161.800000000745,516538.69999999925,7776,NTS,B,12
7,12,test,1,C,triangle.png,1,z,Tue Mar 10 2026 13:45:16 GMT-0500 (Central Daylight Time),522632.19999999925,1700,O,z,1212,6,1,2928.0999999996275,519704.0999999996,7776,NTS,B,13
3,12,test,1,C,circle.png,0,z,Tue Mar 10 2026 13:45:16 GMT-0500 (Central Daylight Time),525581.5,1600,O,m,1323,19,1,2943.699999999255,522637.80000000075,7776,NTS,B,14
3,13,test,1,C,circle.png,1,z,Tue Mar 10 2026 13:45:16 GMT-0500 (Central Daylight Time),527964.3000000007,1600,O,z,757,11,1,2380.300000000745,525584.0,7776,NTS,B,15
2,14,test,1,C,circle.png,1,z,Tue Mar 10 2026 13:45:16 GMT-0500 (Central Daylight Time),530562.5,1700,O,z,867,10,1,2594.5,527968.0,7776,NTS,B,16
9,14,test,1,C,triangle.png,0,z,Tue Mar 10 2026 13:45:16 GMT-0500 (Central Daylight Time),533497.1999999993,1400,O,None,1516,16,1,2931.2999999988824,530565.9000000004,7776,NTS,B,17
7,15,test,1,C,circle.png,1,m,Tue Mar 10 2026 13:45:16 GMT-0500 (Central Daylight Time),536445.5,2000,O,m,925,14,1,2942.800000000745,533502.6999999993,7776,NTS,B,18
3,16,test,1,C,triangle.png,1,z,Tue Mar 10 2026 13:45:16 GMT-0500 (Central Daylight Time),539028.0999999996,1200,O,z,1358,3,1,2577.199999999255,536450.9000000004,7776,NTS,B,19
1,17,test,1,C,triangle.png,1,z,Tue Mar 10 2026 13:45:16 GMT-0500 (Central Daylight Time),541610.4000000004,1900,O,z,652,17,1,2578.4000000003725,539032.0,7776,NTS,B,20
7,18,test,1,C,triangle.png,1,z,Tue Mar 10 2026 13:45:16 GMT-0500 (Central Daylight Time),544209.5,1700,O,z,871,22,1,2594.0,541615.5,7776,NTS,B,21
9,19,test,1,C,circle.png,1,m,Tue Mar 10 2026 13:45:16 GMT-0500 (Central Daylight Time),546358.0999999996,1500,O,m,621,8,1,2143.7999999988824,544214.3000000007,7776,NTS,B,22
8,20,test,1,C,triangle.png,1,m,Tue Mar 10 2026 13:45:16 GMT-0500 (Central Daylight Time),549208.5,1600,O,m,1233,7,1,2846.4000000003725,546362.0999999996,7776,NTS,B,23
6,21,test,1,C,triangle.png,1,m,Tue Mar 10 2026 13:45:16 GMT-0500 (Central Daylight Time),551089.5,1000,O,m,851,13,1,1877.0,549212.5,7776,NTS,B,24
4,0,test,2,C,circle.png,0,z,Tue Mar 10 2026 13:45:16 GMT-0500 (Central Daylight Time),558121.1999999993,1400,O,None,1516,4,1,2927.39999999851,555193.8000000007,7776,NTS,B,1
4,1,test,2,C,triangle.png,1,m,Tue Mar 10 2026 13:45:16 GMT-0500 (Central Daylight Time),561070.9000000004,1500,O,m,1422,20,1,2942.300000000745,558128.5999999996,7776,NTS,B,2
8,2,test,2,C,circle.png,1,m,Tue Mar 10 2026 13:45:16 GMT-0500 (Central Daylight Time),563219.3000000007,1200,O,m,917,23,1,2143.300000000745,561076.0,7776,NTS,B,3
6,3,test,2,C,circle.png,1,m,Tue Mar 10 2026 13:45:16 GMT-0500 (Central Daylight Time),565869.4000000004,1900,O,m,726,5,1,2644.0999999996275,563225.3000000007,7776,NTS,B,4
7,3,test,2,C,triangle.png,0,z,Tue Mar 10 2026 13:45:16 GMT-0500 (Central Daylight Time),569100.8000000007,1700,O,None,1516,6,1,3224.5,565876.3000000007,7776,NTS,B,5
6,3,test,2,C,triangle.png,0,m,Tue Mar 10 2026 13:45:16 GMT-0500 (Central Daylight Time),571634.5999999996,1000,O,None,1517,13,1,2525.9000000003725,569108.6999999993,7776,NTS,B,6
7,4,test,2,C,circle.png,1,m,Tue Mar 10 2026 13:45:16 GMT-0500 (Central Daylight Time),574865.5,2000,O,m,1210,14,1,3225.699999999255,571639.8000000007,7776,NTS,B,7
3,5,test,2,C,circle.png,1,z,Tue Mar 10 2026 13:45:16 GMT-0500 (Central Daylight Time),577381.5,1600,O,z,890,11,1,2509.699999999255,574871.8000000007,7776,NTS,B,8
1,6,test,2,C,circle.png,1,z,Tue Mar 10 2026 13:45:16 GMT-0500 (Central Daylight Time),578981.4000000004,1000,O,z,583,1,1,1588.5,577392.9000000004,7776,NTS,B,9
2,7,test,2,C,triangle.png,1,m,Tue Mar 10 2026 13:45:16 GMT-0500 (Central Daylight Time),581882.4000000004,2000,O,m,879,2,1,2896.4000000003725,578986.0,7776,NTS,B,10
9,8,test,2,C,triangle.png,1,z,Tue Mar 10 2026 13:45:16 GMT-0500 (Central Daylight Time),584712.1999999993,1400,O,z,1410,24,1,2822.5,581889.6999999993,7776,NTS,B,11
1,9,test,2,C,triangle.png,1,z,Tue Mar 10 2026 13:45:16 GMT-0500 (Central Daylight Time),587561.3000000007,1900,O,z,928,17,1,2844.10000000149,584717.1999999993,7776,NTS,B,12
3,10,test,2,C,triangle.png,1,z,Tue Mar 10 2026 13:45:16 GMT-0500 (Central Daylight Time),589543.6999999993,1200,O,z,753,3,1,1978.5,587565.1999999993,7776,NTS,B,13
2,11,test,2,C,circle.png,1,z,Tue Mar 10 2026 13:45:16 GMT-0500 (Central Daylight Time),591977.3000000007,1700,O,z,709,10,1,2430.60000000149,589546.6999999993,7776,NTS,B,14
8,12,test,2,C,circle.png,1,m,Tue Mar 10 2026 13:45:16 GMT-0500 (Central Daylight Time),594142.3000000007,1200,O,m,939,15,1,2160.10000000149,591982.1999999993,7776,NTS,B,15
3,13,test,2,C,circle.png,1,z,Tue Mar 10 2026 13:45:16 GMT-0500 (Central Daylight Time),596559.4000000004,1600,O,z,790,19,1,2411.300000000745,594148.0999999996,7776,NTS,B,16
9,14,test,2,C,circle.png,1,m,Tue Mar 10 2026 13:45:16 GMT-0500 (Central Daylight Time),598759.0999999996,1500,O,m,673,8,1,2196.9000000003725,596562.1999999993,7776,NTS,B,17
2,14,test,2,C,circle.png,0,z,Tue Mar 10 2026 13:45:16 GMT-0500 (Central Daylight Time),601490.6999999993,1700,O,m,1009,18,1,2726.89999999851,598763.8000000007,7776,NTS,B,18
4,15,test,2,C,triangle.png,1,m,Tue Mar 10 2026 13:45:16 GMT-0500 (Central Daylight Time),604189.5,1500,O,m,1181,12,1,2694.699999999255,601494.8000000007,7776,NTS,B,19
7,15,test,2,C,circle.png,0,m,Tue Mar 10 2026 13:45:16 GMT-0500 (Central Daylight Time),607705.1999999993,2000,O,z,1486,22,1,3509.699999999255,604195.5,7776,NTS,B,20
6,15,test,2,C,triangle.png,0,m,Tue Mar 10 2026 13:45:16 GMT-0500 (Central Daylight Time),610071.3000000007,1000,O,z,1339,21,1,2361.0,607710.3000000007,7776,NTS,B,21
9,15,test,2,C,triangle.png,0,z,Tue Mar 10 2026 13:45:16 GMT-0500 (Central Daylight Time),613003.5,1400,O,None,1515,16,1,2928.0,610075.5,7776,NTS,B,22
8,16,test,2,C,triangle.png,1,m,Tue Mar 10 2026 13:45:16 GMT-0500 (Central Daylight Time),616102.5999999996,1600,O,m,1479,7,1,3092.5,613010.0999999996,7776,NTS,B,23
1,17,test,2,C,triangle.png,1,z,Tue Mar 10 2026 13:45:16 GMT-0500 (Central Daylight Time),619169.1999999993,1900,O,z,1136,9,1,3063.0999999996275,616106.0999999996,7776,NTS,B,24
2,1,test,3,C,circle.png,1,z,Tue Mar 10 2026 13:45:16 GMT-0500 (Central Daylight Time),623333.9000000004,1700,O,z,988,10,1,2711.9000000003725,620622.0,7776,NTS,B,1
8,2,test,3,C,circle.png,1,m,Tue Mar 10 2026 13:45:16 GMT-0500 (Central Daylight Time),625750.0,1200,O,m,1199,15,1,2413.0999999996275,623336.9000000004,7776,NTS,B,2
2,2,test,3,C,triangle.png,0,m,Tue Mar 10 2026 13:45:16 GMT-0500 (Central Daylight Time),628932.3000000007,2000,O,z,1157,18,1,3178.0,625754.3000000007,7776,NTS,B,3
2,2,test,3,C,triangle.png,0,m,Tue Mar 10 2026 13:45:16 GMT-0500 (Central Daylight Time),632247.3000000007,2000,O,z,1297,2,1,3310.4000000003725,628936.9000000004,7776,NTS,B,4
3,3,test,3,C,circle.png,1,z,Tue Mar 10 2026 13:45:16 GMT-0500 (Central Daylight Time),635014.5999999996,1600,O,z,1132,11,1,2762.4000000003725,632252.1999999993,7776,NTS,B,5
6,4,test,3,C,circle.png,1,m,Tue Mar 10 2026 13:45:16 GMT-0500 (Central Daylight Time),637779.9000000004,1900,O,m,833,5,1,2759.5,635020.4000000004,7776,NTS,B,6
4,5,test,3,C,triangle.png,1,m,Tue Mar 10 2026 13:45:16 GMT-0500 (Central Daylight Time),640728.0999999996,1500,O,m,1428,12,1,2943.5,637784.5999999996,7776,NTS,B,7
9,5,test,3,C,circle.png,0,m,Tue Mar 10 2026 13:45:16 GMT-0500 (Central Daylight Time),643761.6999999993,1500,O,None,1516,24,1,3029.39999999851,640732.3000000007,7776,NTS,B,8
1,6,test,3,C,circle.png,1,z,Tue Mar 10 2026 13:45:16 GMT-0500 (Central Daylight Time),645560.8000000007,1000,O,z,770,1,1,1793.800000000745,643767.0,7776,NTS,B,9
7,7,test,3,C,circle.png,1,m,Tue Mar 10 2026 13:45:16 GMT-0500 (Central Daylight Time),648392.3000000007,2000,O,m,804,14,1,2823.7000000011176,645568.5999999996,7776,NTS,B,10
4,8,test,3,C,circle.png,1,z,Tue Mar 10 2026 13:45:16 GMT-0500 (Central Daylight Time),650409.5,1400,O,z,583,4,1,2013.300000000745,648396.1999999993,7776,NTS,B,11
9,8,test,3,C,triangle.png,0,z,Tue Mar 10 2026 13:45:16 GMT-0500 (Central Daylight Time),652857.5,1400,O,m,1018,16,1,2442.4000000003725,650415.0999999996,7776,NTS,B,12
3,9,test,3,C,triangle.png,1,z,Tue Mar 10 2026 13:45:16 GMT-0500 (Central Daylight Time),655440.0999999996,1200,O,z,1361,3,1,2579.699999999255,652860.4000000004,7776,NTS,B,13
8,10,test,3,C,triangle.png,1,m,Tue Mar 10 2026 13:45:16 GMT-0500 (Central Daylight Time),658355.4000000004,1600,O,m,1291,7,1,2909.5999999996275,655445.8000000007,7776,NTS,B,14
3,11,test,3,C,triangle.png,1,z,Tue Mar 10 2026 13:45:16 GMT-0500 (Central Daylight Time),660572.1999999993,1200,O,z,984,19,1,2214.0,658358.1999999993,7776,NTS,B,15
6,12,test,3,C,triangle.png,1,m,Tue Mar 10 2026 13:45:16 GMT-0500 (Central Daylight Time),662521.9000000004,1000,O,m,921,13,1,1945.0,660576.9000000004,7776,NTS,B,16
8,13,test,3,C,triangle.png,1,m,Tue Mar 10 2026 13:45:16 GMT-0500 (Central Daylight Time),664920.4000000004,1600,O,m,770,23,1,2393.7000000011176,662526.6999999993,7776,NTS,B,17
6,14,test,3,C,circle.png,1,m,Tue Mar 10 2026 13:45:16 GMT-0500 (Central Daylight Time),667887.1999999993,1900,O,m,1041,21,1,2961.7999999988824,664925.4000000004,7776,NTS,B,18
9,15,test,3,C,circle.png,1,m,Tue Mar 10 2026 13:45:16 GMT-0500 (Central Daylight Time),670353.0,1500,O,m,938,8,1,2461.5999999996275,667891.4000000004,7776,NTS,B,19
1,16,test,3,C,circle.png,1,z,Tue Mar 10 2026 13:45:16 GMT-0500 (Central Daylight Time),672116.4000000004,1000,O,z,748,17,1,1759.4000000003725,670357.0,7776,NTS,B,20
7,16,test,3,C,triangle.png,0,z,Tue Mar 10 2026 13:45:16 GMT-0500 (Central Daylight Time),674851.5,1700,O,m,1003,6,1,2732.300000000745,672119.1999999993,7776,NTS,B,21
4,16,test,3,C,circle.png,0,z,Tue Mar 10 2026 13:45:16 GMT-0500 (Central Daylight Time),677783.0999999996,1400,O,None,1515,20,1,2927.2999999988824,674855.8000000007,7776,NTS,B,22
7,16,test,3,C,triangle.png,0,z,Tue Mar 10 2026 13:45:16 GMT-0500 (Central Daylight Time),681014.9000000004,1700,O,None,1515,22,1,3223.5,677791.4000000004,7776,NTS,B,23
1,17,test,3,C,triangle.png,1,z,Tue Mar 10 2026 13:45:16 GMT-0500 (Central Daylight Time),683630.5,1900,O,z,683,9,1,2608.199999999255,681022.3000000007,7776,NTS,B,24
2,1,test,4,C,circle.png,1,z,Tue Mar 10 2026 13:45:16 GMT-0500 (Central Daylight Time),687331.0,1700,O,z,877,10,1,2593.199999999255,684737.8000000007,7776,NTS,B,1
6,2,test,4,C,circle.png,1,m,Tue Mar 10 2026 13:45:16 GMT-0500 (Central Daylight Time),690145.0,1900,O,m,893,5,1,2808.199999999255,687336.8000000007,7776,NTS,B,2
6,3,test,4,C,circle.png,1,m,Tue Mar 10 2026 13:45:16 GMT-0500 (Central Daylight Time),692661.5999999996,1900,O,m,600,21,1,2510.0999999996275,690151.5,7776,NTS,B,3
7,4,test,4,C,circle.png,1,m,Tue Mar 10 2026 13:45:16 GMT-0500 (Central Daylight Time),695277.5,2000,O,m,590,14,1,2609.300000000745,692668.1999999993,7776,NTS,B,4
1,5,test,4,C,triangle.png,1,z,Tue Mar 10 2026 13:45:16 GMT-0500 (Central Daylight Time),697843.9000000004,1900,O,z,635,9,1,2561.0,695282.9000000004,7776,NTS,B,5
3,6,test,4,C,triangle.png,1,z,Tue Mar 10 2026 13:45:16 GMT-0500 (Central Daylight Time),699709.3000000007,1200,O,z,648,3,1,1858.9000000003725,697850.4000000004,7776,NTS,B,6
1,7,test,4,C,circle.png,1,z,Tue Mar 10 2026 13:45:16 GMT-0500 (Central Daylight Time),701291.5999999996,1000,O,z,559,17,1,1578.199999999255,699713.4000000004,7776,NTS,B,7
1,8,test,4,C,circle.png,1,z,Tue Mar 10 2026 13:45:16 GMT-0500 (Central Daylight Time),703026.5,1000,O,z,709,1,1,1729.300000000745,701297.1999999993,7776,NTS,B,8
9,8,test,4,C,triangle.png,0,z,Tue Mar 10 2026 13:45:16 GMT-0500 (Central Daylight Time),705241.3000000007,1400,O,m,786,16,1,2209.10000000149,703032.1999999993,7776,NTS,B,9
2,9,test,4,C,triangle.png,1,m,Tue Mar 10 2026 13:45:16 GMT-0500 (Central Daylight Time),708689.3000000007,2000,O,m,1417,2,1,3441.300000000745,705248.0,7776,NTS,B,10
4,10,test,4,C,triangle.png,1,m,Tue Mar 10 2026 13:45:16 GMT-0500 (Central Daylight Time),711057.1999999993,1500,O,m,835,12,1,2363.7999999988824,708693.4000000004,7776,NTS,B,11
3,11,test,4,C,triangle.png,1,z,Tue Mar 10 2026 13:45:16 GMT-0500 (Central Daylight Time),712905.5,1200,O,z,619,19,1,1843.0999999996275,711062.4000000004,7776,NTS,B,12
7,12,test,4,C,triangle.png,1,z,Tue Mar 10 2026 13:45:16 GMT-0500 (Central Daylight Time),715687.5,1700,O,z,1062,6,1,2776.300000000745,712911.1999999993,7776,NTS,B,13
8,13,test,4,C,circle.png,1,m,Tue Mar 10 2026 13:45:16 GMT-0500 (Central Daylight Time),717653.8000000007,1200,O,m,739,15,1,1961.4000000003725,715692.4000000004,7776,NTS,B,14
9,14,test,4,C,circle.png,1,m,Tue Mar 10 2026 13:45:16 GMT-0500 (Central Daylight Time),719903.5999999996,1500,O,m,722,24,1,2245.7999999988824,717657.8000000007,7776,NTS,B,15
6,15,test,4,C,triangle.png,1,m,Tue Mar 10 2026 13:45:16 GMT-0500 (Central Daylight Time),721903.0,1000,O,m,975,13,1,1994.5999999996275,719908.4000000004,7776,NTS,B,16
9,16,test,4,C,circle.png,1,m,Tue Mar 10 2026 13:45:16 GMT-0500 (Central Daylight Time),724451.9000000004,1500,O,m,1017,8,1,2544.5999999996275,721907.3000000007,7776,NTS,B,17
4,17,test,4,C,circle.png,1,z,Tue Mar 10 2026 13:45:16 GMT-0500 (Central Daylight Time),726584.0,1400,O,z,712,4,1,2126.9000000003725,724457.0999999996,7776,NTS,B,18
3,18,test,4,C,circle.png,1,z,Tue Mar 10 2026 13:45:16 GMT-0500 (Central Daylight Time),729266.0999999996,1600,O,z,1059,11,1,2677.699999999255,726588.4000000004,7776,NTS,B,19
2,19,test,4,C,triangle.png,1,m,Tue Mar 10 2026 13:45:16 GMT-0500 (Central Daylight Time),732682.0,2000,O,m,1385,18,1,3411.9000000003725,729270.0999999996,7776,NTS,B,20
8,20,test,4,C,triangle.png,1,m,Tue Mar 10 2026 13:45:16 GMT-0500 (Central Daylight Time),734966.5,1600,O,m,666,7,1,2276.9000000003725,732689.5999999996,7776,NTS,B,21
7,20,test,4,C,triangle.png,0,z,Tue Mar 10 2026 13:45:16 GMT-0500 (Central Daylight Time),737581.0999999996,1700,O,m,882,22,1,2609.0999999996275,734972.0,7776,NTS,B,22
8,21,test,4,C,triangle.png,1,m,Tue Mar 10 2026 13:45:16 GMT-0500 (Central Daylight Time),739981.0,1600,O,m,775,23,1,2396.0,737585.0,7776,NTS,B,23
4,22,test,4,C,circle.png,1,z,Tue Mar 10 2026 13:45:16 GMT-0500 (Central Daylight Time),742231.1999999993,1400,O,z,833,20,1,2246.0999999996275,739985.0999999996,7776,NTS,B,24
