acc_sum,block,block_c,change,condition,correct,correct_response,datetime,endtime,face,project,response,response_time,row_sel,session_number,start_end,starttime,subject_id,task,task_vers,trial
0,prac,1,,1-Back,,,Wed May 13 2026 13:40:01 GMT-0500 (Central Daylight Time),,124_o_f_d_a.png,O,space,5307,1,1,,,7807,VNB,A,0
1,prac,1,0.0,1-Back,1.0,m,Wed May 13 2026 13:40:01 GMT-0500 (Central Daylight Time),114075.0,071_y_f_n_a.png,O,m,1599,2,1,2388.1000000089407,111686.89999999106,7807,VNB,A,1
2,prac,1,0.0,1-Back,1.0,m,Wed May 13 2026 13:40:01 GMT-0500 (Central Daylight Time),115923.79999999702,165_m_m_h_a.png,O,m,1043,3,1,1840.9000000059605,114082.89999999106,7807,VNB,A,2
3,prac,1,0.0,1-Back,1.0,m,Wed May 13 2026 13:40:01 GMT-0500 (Central Daylight Time),117735.79999999702,109_y_m_d_a.png,O,m,1016,4,1,1803.1000000089407,115932.69999998808,7807,VNB,A,3
4,prac,1,0.0,1-Back,1.0,m,Wed May 13 2026 13:40:01 GMT-0500 (Central Daylight Time),119819.29999999702,124_o_f_n_a.png,O,m,1262,5,1,2078.6000000089407,117740.69999998808,7807,VNB,A,4
5,prac,1,1.0,1-Back,1.0,z,Wed May 13 2026 13:40:01 GMT-0500 (Central Daylight Time),121271.39999999106,109_y_m_n_a.png,O,z,652,6,1,1441.5,119829.89999999106,7807,VNB,A,5
6,prac,1,0.0,1-Back,1.0,m,Wed May 13 2026 13:40:01 GMT-0500 (Central Daylight Time),123321.5,039_o_m_h_a.png,O,m,1241,7,1,2042.0,121279.5,7807,VNB,A,6
7,prac,1,0.0,1-Back,1.0,m,Wed May 13 2026 13:40:01 GMT-0500 (Central Daylight Time),125271.39999999106,139_m_f_d_a.png,O,m,1153,8,1,1940.7999999970198,123330.59999999404,7807,VNB,A,7
8,prac,1,1.0,1-Back,1.0,z,Wed May 13 2026 13:40:01 GMT-0500 (Central Daylight Time),127035.39999999106,071_y_f_d_a.png,O,z,959,9,1,1755.5999999940395,125279.79999999702,7807,VNB,A,8
9,prac,1,0.0,1-Back,1.0,m,Wed May 13 2026 13:40:01 GMT-0500 (Central Daylight Time),128604.09999999404,165_m_m_n_a.png,O,m,765,10,1,1561.7000000029802,127042.39999999106,7807,VNB,A,9
10,prac,1,0.0,1-Back,1.0,m,Wed May 13 2026 13:40:01 GMT-0500 (Central Daylight Time),130436.19999998808,124_o_f_h_a.png,O,m,1008,11,1,1820.8999999910593,128615.29999999702,7807,VNB,A,10
10,prac,1,0.0,1-Back,0.0,m,Wed May 13 2026 13:40:01 GMT-0500 (Central Daylight Time),131850.79999999702,109_y_m_d_a.png,O,z,638,12,1,1405.6000000089407,130445.19999998808,7807,VNB,A,11
0,test,1,0.0,1-Back,,,Wed May 13 2026 13:40:01 GMT-0500 (Central Daylight Time),131850.79999999702,071_y_f_d_a.png,O,space,2417,1,1,1405.6000000089407,130445.19999998808,7807,VNB,A,0
1,test,1,0.0,1-Back,1.0,m,Wed May 13 2026 13:40:01 GMT-0500 (Central Daylight Time),142799.39999999106,139_m_f_n_a.png,O,m,655,2,1,1675.5999999940395,141123.79999999702,7807,VNB,A,1
2,test,1,0.0,1-Back,1.0,m,Wed May 13 2026 13:40:01 GMT-0500 (Central Daylight Time),144746.39999999106,039_o_m_h_a.png,O,m,924,3,1,1944.5,142801.89999999106,7807,VNB,A,2
3,test,1,1.0,1-Back,1.0,z,Wed May 13 2026 13:40:01 GMT-0500 (Central Daylight Time),146663.39999999106,165_m_m_h_a.png,O,z,888,4,1,1913.8999999910593,144749.5,7807,VNB,A,3
4,test,1,0.0,1-Back,1.0,m,Wed May 13 2026 13:40:01 GMT-0500 (Central Daylight Time),148347.59999999404,124_o_f_n_a.png,O,m,668,5,1,1680.4000000059605,146667.19999998808,7807,VNB,A,4
4,test,1,0.0,1-Back,0.0,m,Wed May 13 2026 13:40:01 GMT-0500 (Central Daylight Time),150646.79999999702,109_y_m_d_a.png,O,z,1284,6,1,2297.1000000089407,148349.69999998808,7807,VNB,A,5
4,test,1,1.0,1-Back,0.0,z,Wed May 13 2026 13:40:01 GMT-0500 (Central Daylight Time),153111.19999998808,139_m_f_d_a.png,O,m,1448,7,1,2462.0,150649.19999998808,7807,VNB,A,6
5,test,1,0.0,1-Back,1.0,m,Wed May 13 2026 13:40:01 GMT-0500 (Central Daylight Time),155143.29999999702,071_y_f_h_a.png,O,m,1000,8,1,2028.7999999970198,153114.5,7807,VNB,A,7
6,test,1,0.0,1-Back,1.0,m,Wed May 13 2026 13:40:01 GMT-0500 (Central Daylight Time),156926.39999999106,039_o_m_n_a.png,O,m,754,9,1,1779.5999999940395,155146.79999999702,7807,VNB,A,8
7,test,1,0.0,1-Back,1.0,m,Wed May 13 2026 13:40:01 GMT-0500 (Central Daylight Time),159008.59999999404,109_y_m_h_a.png,O,m,1051,10,1,2079.5,156929.09999999404,7807,VNB,A,9
8,test,1,0.0,1-Back,1.0,m,Wed May 13 2026 13:40:01 GMT-0500 (Central Daylight Time),160808.29999999702,039_o_m_d_a.png,O,m,769,11,1,1796.5,159011.79999999702,7807,VNB,A,10
9,test,1,1.0,1-Back,1.0,z,Wed May 13 2026 13:40:01 GMT-0500 (Central Daylight Time),162891.19999998808,124_o_f_d_a.png,O,z,1059,12,1,2079.0,160812.19999998808,7807,VNB,A,11
10,test,1,0.0,1-Back,1.0,m,Wed May 13 2026 13:40:01 GMT-0500 (Central Daylight Time),164790.79999999702,165_m_m_n_a.png,O,m,880,13,1,1896.4000000059605,162894.39999999106,7807,VNB,A,12
10,test,1,1.0,1-Back,0.0,z,Wed May 13 2026 13:40:01 GMT-0500 (Central Daylight Time),166956.89999999106,071_y_f_n_a.png,O,m,1135,14,1,2164.3999999910593,164792.5,7807,VNB,A,13
11,test,1,0.0,1-Back,1.0,m,Wed May 13 2026 13:40:01 GMT-0500 (Central Daylight Time),169088.89999999106,139_m_f_h_a.png,O,m,1100,15,1,2128.5,166960.39999999106,7807,VNB,A,14
12,test,1,0.0,1-Back,1.0,m,Wed May 13 2026 13:40:01 GMT-0500 (Central Daylight Time),171206.09999999404,165_m_m_d_a.png,O,m,1100,16,1,2114.0999999940395,169092.0,7807,VNB,A,15
13,test,1,0.0,1-Back,1.0,m,Wed May 13 2026 13:40:01 GMT-0500 (Central Daylight Time),173404.5,109_y_m_n_a.png,O,m,1181,17,1,2195.6000000089407,171208.89999999106,7807,VNB,A,16
14,test,1,0.0,1-Back,1.0,m,Wed May 13 2026 13:40:01 GMT-0500 (Central Daylight Time),175371.59999999404,124_o_f_h_a.png,O,m,944,18,1,1965.2999999970198,173406.29999999702,7807,VNB,A,17
0,test,2,0.0,1-Back,,,Wed May 13 2026 13:40:01 GMT-0500 (Central Daylight Time),175371.59999999404,109_y_m_n_a.png,O,space,1544,1,1,1965.2999999970198,173406.29999999702,7807,VNB,A,0
1,test,2,0.0,1-Back,1.0,m,Wed May 13 2026 13:40:01 GMT-0500 (Central Daylight Time),180869.89999999106,071_y_f_h_a.png,O,m,906,2,1,1925.0999999940395,178944.79999999702,7807,VNB,A,1
2,test,2,1.0,1-Back,1.0,m,Wed May 13 2026 13:40:01 GMT-0500 (Central Daylight Time),183085.59999999404,039_o_m_n_a.png,O,m,1191,3,1,2213.4000000059605,180872.19999998808,7807,VNB,A,2
3,test,2,0.0,1-Back,1.0,m,Wed May 13 2026 13:40:01 GMT-0500 (Central Daylight Time),185300.59999999404,139_m_f_d_a.png,O,m,1198,4,1,2212.0999999940395,183088.5,7807,VNB,A,3
4,test,2,0.0,1-Back,1.0,z,Wed May 13 2026 13:40:01 GMT-0500 (Central Daylight Time),187400.5,165_m_m_d_a.png,O,z,1078,5,1,2097.800000011921,185302.69999998808,7807,VNB,A,4
5,test,2,0.0,1-Back,1.0,m,Wed May 13 2026 13:40:01 GMT-0500 (Central Daylight Time),189500.19999998808,109_y_m_h_a.png,O,m,1077,6,1,2097.0999999940395,187403.09999999404,7807,VNB,A,5
6,test,2,1.0,1-Back,1.0,z,Wed May 13 2026 13:40:01 GMT-0500 (Central Daylight Time),191648.29999999702,124_o_f_h_a.png,O,z,1128,7,1,2145.2000000029802,189503.09999999404,7807,VNB,A,6
7,test,2,0.0,1-Back,1.0,m,Wed May 13 2026 13:40:01 GMT-0500 (Central Daylight Time),193499.09999999404,139_m_f_n_a.png,O,m,827,8,1,1847.5999999940395,191651.5,7807,VNB,A,7
8,test,2,0.0,1-Back,1.0,m,Wed May 13 2026 13:40:01 GMT-0500 (Central Daylight Time),195498.89999999106,071_y_f_d_a.png,O,m,976,9,1,1996.8999999910593,193502.0,7807,VNB,A,8
9,test,2,0.0,1-Back,1.0,m,Wed May 13 2026 13:40:01 GMT-0500 (Central Daylight Time),197547.89999999106,165_m_m_n_a.png,O,m,1018,10,1,2046.0,195501.89999999106,7807,VNB,A,9
10,test,2,1.0,1-Back,1.0,m,Wed May 13 2026 13:40:01 GMT-0500 (Central Daylight Time),199796.69999998808,139_m_f_h_a.png,O,m,1216,11,1,2245.699999988079,197551.0,7807,VNB,A,10
11,test,2,0.0,1-Back,1.0,z,Wed May 13 2026 13:40:01 GMT-0500 (Central Daylight Time),201928.29999999702,039_o_m_h_a.png,O,z,1111,12,1,2128.9000000059605,199799.39999999106,7807,VNB,A,11
12,test,2,0.0,1-Back,1.0,m,Wed May 13 2026 13:40:01 GMT-0500 (Central Daylight Time),203794.79999999702,109_y_m_d_a.png,O,m,834,13,1,1860.4000000059605,201934.39999999106,7807,VNB,A,12
13,test,2,0.0,1-Back,1.0,m,Wed May 13 2026 13:40:01 GMT-0500 (Central Daylight Time),205911.09999999404,124_o_f_n_a.png,O,m,1096,14,1,2110.4000000059605,203800.69999998808,7807,VNB,A,13
14,test,2,0.0,1-Back,1.0,z,Wed May 13 2026 13:40:01 GMT-0500 (Central Daylight Time),208109.69999998808,071_y_f_n_a.png,O,z,1172,15,1,2194.5,205915.19999998808,7807,VNB,A,14
15,test,2,1.0,1-Back,1.0,m,Wed May 13 2026 13:40:01 GMT-0500 (Central Daylight Time),210209.69999998808,165_m_m_h_a.png,O,m,1077,16,1,2096.2999999970198,208113.39999999106,7807,VNB,A,15
16,test,2,0.0,1-Back,1.0,m,Wed May 13 2026 13:40:01 GMT-0500 (Central Daylight Time),212324.89999999106,124_o_f_d_a.png,O,m,1090,17,1,2112.0,210212.89999999106,7807,VNB,A,16
17,test,2,1.0,1-Back,1.0,z,Wed May 13 2026 13:40:01 GMT-0500 (Central Daylight Time),214458.0,039_o_m_d_a.png,O,z,1109,18,1,2126.4000000059605,212331.59999999404,7807,VNB,A,17
0,test,3,1.0,1-Back,,,Wed May 13 2026 13:40:01 GMT-0500 (Central Daylight Time),214458.0,124_o_f_h_a.png,O,space,1425,1,1,2126.4000000059605,212331.59999999404,7807,VNB,A,0
1,test,3,0.0,1-Back,1.0,m,Wed May 13 2026 13:40:01 GMT-0500 (Central Daylight Time),219840.59999999404,139_m_f_d_a.png,O,m,871,2,1,1890.9000000059605,217949.69999998808,7807,VNB,A,1
2,test,3,1.0,1-Back,1.0,m,Wed May 13 2026 13:40:01 GMT-0500 (Central Daylight Time),221705.5,165_m_m_n_a.png,O,m,843,3,1,1859.7000000029802,219845.79999999702,7807,VNB,A,2
3,test,3,0.0,1-Back,1.0,z,Wed May 13 2026 13:40:01 GMT-0500 (Central Daylight Time),223605.0,124_o_f_n_a.png,O,z,874,4,1,1893.0,221712.0,7807,VNB,A,3
4,test,3,1.0,1-Back,1.0,m,Wed May 13 2026 13:40:01 GMT-0500 (Central Daylight Time),225371.19999998808,039_o_m_d_a.png,O,m,735,5,1,1761.7999999970198,223609.39999999106,7807,VNB,A,4
5,test,3,0.0,1-Back,1.0,m,Wed May 13 2026 13:40:01 GMT-0500 (Central Daylight Time),227253.69999998808,071_y_f_h_a.png,O,m,858,6,1,1880.0999999940395,225373.59999999404,7807,VNB,A,5
6,test,3,0.0,1-Back,1.0,z,Wed May 13 2026 13:40:01 GMT-0500 (Central Daylight Time),229105.59999999404,109_y_m_h_a.png,O,z,819,7,1,1845.4000000059605,227260.19999998808,7807,VNB,A,6
7,test,3,0.0,1-Back,1.0,m,Wed May 13 2026 13:40:01 GMT-0500 (Central Daylight Time),230919.69999998808,139_m_f_n_a.png,O,m,788,8,1,1812.0999999940395,229107.59999999404,7807,VNB,A,7
7,test,3,0.0,1-Back,0.0,m,Wed May 13 2026 13:40:01 GMT-0500 (Central Daylight Time),232735.5,071_y_f_d_a.png,O,z,787,9,1,1809.6000000089407,230925.89999999106,7807,VNB,A,8
8,test,3,1.0,1-Back,1.0,m,Wed May 13 2026 13:40:01 GMT-0500 (Central Daylight Time),234968.29999999702,039_o_m_n_a.png,O,m,1214,10,1,2230.2000000029802,232738.09999999404,7807,VNB,A,9
9,test,3,0.0,1-Back,1.0,m,Wed May 13 2026 13:40:01 GMT-0500 (Central Daylight Time),236817.09999999404,165_m_m_h_a.png,O,m,826,11,1,1845.9000000059605,234971.19999998808,7807,VNB,A,10
10,test,3,0.0,1-Back,1.0,z,Wed May 13 2026 13:40:01 GMT-0500 (Central Daylight Time),238834.19999998808,139_m_f_h_a.png,O,z,985,12,1,2014.5999999940395,236819.59999999404,7807,VNB,A,11
11,test,3,1.0,1-Back,1.0,m,Wed May 13 2026 13:40:01 GMT-0500 (Central Daylight Time),240832.79999999702,124_o_f_d_a.png,O,m,978,13,1,1995.0,238837.79999999702,7807,VNB,A,12
12,test,3,0.0,1-Back,1.0,z,Wed May 13 2026 13:40:01 GMT-0500 (Central Daylight Time),242948.19999998808,165_m_m_d_a.png,O,z,1097,14,1,2113.699999988079,240834.5,7807,VNB,A,13
13,test,3,0.0,1-Back,1.0,m,Wed May 13 2026 13:40:01 GMT-0500 (Central Daylight Time),244881.5,109_y_m_n_a.png,O,m,909,15,1,1931.0,242950.5,7807,VNB,A,14
14,test,3,1.0,1-Back,1.0,m,Wed May 13 2026 13:40:01 GMT-0500 (Central Daylight Time),246864.89999999106,039_o_m_h_a.png,O,m,954,16,1,1981.2999999970198,244883.59999999404,7807,VNB,A,15
15,test,3,0.0,1-Back,1.0,m,Wed May 13 2026 13:40:01 GMT-0500 (Central Daylight Time),248613.89999999106,109_y_m_d_a.png,O,m,730,17,1,1745.7999999970198,246868.09999999404,7807,VNB,A,16
16,test,3,1.0,1-Back,1.0,m,Wed May 13 2026 13:40:01 GMT-0500 (Central Daylight Time),250445.89999999106,071_y_f_n_a.png,O,m,812,18,1,1828.0999999940395,248617.79999999702,7807,VNB,A,17
0,test,4,1.0,1-Back,,,Wed May 13 2026 13:40:01 GMT-0500 (Central Daylight Time),250445.89999999106,165_m_m_d_a.png,O,space,1221,1,1,1828.0999999940395,248617.79999999702,7807,VNB,A,0
1,test,4,0.0,1-Back,1.0,z,Wed May 13 2026 13:40:01 GMT-0500 (Central Daylight Time),255962.29999999702,039_o_m_d_a.png,O,z,1236,2,1,2259.7000000029802,253702.59999999404,7807,VNB,A,1
2,test,4,0.0,1-Back,1.0,m,Wed May 13 2026 13:40:01 GMT-0500 (Central Daylight Time),258726.79999999702,109_y_m_h_a.png,O,m,1745,3,1,2761.5,255965.29999999702,7807,VNB,A,2
3,test,4,0.0,1-Back,1.0,m,Wed May 13 2026 13:40:01 GMT-0500 (Central Daylight Time),260494.69999998808,139_m_f_n_a.png,O,m,749,4,1,1765.3999999910593,258729.29999999702,7807,VNB,A,3
4,test,4,1.0,1-Back,1.0,m,Wed May 13 2026 13:40:01 GMT-0500 (Central Daylight Time),262543.39999999106,124_o_f_h_a.png,O,m,1033,5,1,2044.0999999940395,260499.29999999702,7807,VNB,A,4
5,test,4,0.0,1-Back,1.0,m,Wed May 13 2026 13:40:01 GMT-0500 (Central Daylight Time),264275.5,165_m_m_n_a.png,O,m,708,6,1,1728.6000000089407,262546.89999999106,7807,VNB,A,5
6,test,4,0.0,1-Back,1.0,m,Wed May 13 2026 13:40:01 GMT-0500 (Central Daylight Time),266225.39999999106,109_y_m_d_a.png,O,m,927,7,1,1947.2000000029802,264278.1999999881,7807,VNB,A,6
7,test,4,1.0,1-Back,1.0,z,Wed May 13 2026 13:40:01 GMT-0500 (Central Daylight Time),268008.5,071_y_f_d_a.png,O,z,754,8,1,1781.4000000059605,266227.09999999404,7807,VNB,A,7
8,test,4,0.0,1-Back,1.0,m,Wed May 13 2026 13:40:01 GMT-0500 (Central Daylight Time),269857.0,139_m_f_h_a.png,O,m,828,9,1,1845.7000000029802,268011.299999997,7807,VNB,A,8
9,test,4,0.0,1-Back,1.0,z,Wed May 13 2026 13:40:01 GMT-0500 (Central Daylight Time),272007.0,039_o_m_h_a.png,O,z,1131,10,1,2147.1000000089407,269859.89999999106,7807,VNB,A,9
10,test,4,1.0,1-Back,1.0,m,Wed May 13 2026 13:40:01 GMT-0500 (Central Daylight Time),273790.89999999106,124_o_f_n_a.png,O,m,767,11,1,1781.3999999910593,272009.5,7807,VNB,A,10
11,test,4,0.0,1-Back,1.0,m,Wed May 13 2026 13:40:01 GMT-0500 (Central Daylight Time),276138.6999999881,139_m_f_d_a.png,O,m,1327,12,1,2344.8999999910593,273793.799999997,7807,VNB,A,11
12,test,4,0.0,1-Back,1.0,m,Wed May 13 2026 13:40:01 GMT-0500 (Central Daylight Time),277821.799999997,071_y_f_n_a.png,O,m,658,13,1,1680.6000000089407,276141.1999999881,7807,VNB,A,12
13,test,4,0.0,1-Back,1.0,m,Wed May 13 2026 13:40:01 GMT-0500 (Central Daylight Time),279704.39999999106,124_o_f_d_a.png,O,m,852,14,1,1879.5,277824.89999999106,7807,VNB,A,13
14,test,4,0.0,1-Back,1.0,m,Wed May 13 2026 13:40:01 GMT-0500 (Central Daylight Time),281503.0,071_y_f_h_a.png,O,m,771,15,1,1795.6000000089407,279707.39999999106,7807,VNB,A,14
15,test,4,1.0,1-Back,1.0,z,Wed May 13 2026 13:40:01 GMT-0500 (Central Daylight Time),283553.09999999404,165_m_m_h_a.png,O,z,1028,16,1,2047.7999999970198,281505.299999997,7807,VNB,A,15
16,test,4,0.0,1-Back,1.0,m,Wed May 13 2026 13:40:01 GMT-0500 (Central Daylight Time),285469.09999999404,039_o_m_n_a.png,O,m,892,17,1,1913.2000000029802,283555.89999999106,7807,VNB,A,16
17,test,4,1.0,1-Back,1.0,z,Wed May 13 2026 13:40:01 GMT-0500 (Central Daylight Time),287518.39999999106,109_y_m_n_a.png,O,z,1021,18,1,2046.5999999940395,285471.799999997,7807,VNB,A,17
0,test,5,1.0,1-Back,,,Wed May 13 2026 13:40:01 GMT-0500 (Central Daylight Time),287518.39999999106,039_o_m_n_a.png,O,space,1173,1,1,2046.5999999940395,285471.799999997,7807,VNB,A,0
1,test,5,1.0,1-Back,1.0,m,Wed May 13 2026 13:40:01 GMT-0500 (Central Daylight Time),292400.39999999106,124_o_f_h_a.png,O,m,663,2,1,1679.5999999940395,290720.799999997,7807,VNB,A,1
2,test,5,0.0,1-Back,1.0,m,Wed May 13 2026 13:40:01 GMT-0500 (Central Daylight Time),294101.0,109_y_m_d_a.png,O,m,684,3,1,1697.7000000029802,292403.299999997,7807,VNB,A,2
3,test,5,0.0,1-Back,1.0,z,Wed May 13 2026 13:40:01 GMT-0500 (Central Daylight Time),296182.6999999881,039_o_m_d_a.png,O,z,1065,4,1,2078.5,294104.1999999881,7807,VNB,A,3
4,test,5,0.0,1-Back,1.0,m,Wed May 13 2026 13:40:01 GMT-0500 (Central Daylight Time),297964.59999999404,139_m_f_h_a.png,O,m,765,5,1,1778.7999999970198,296185.799999997,7807,VNB,A,4
5,test,5,0.0,1-Back,1.0,m,Wed May 13 2026 13:40:01 GMT-0500 (Central Daylight Time),299680.799999997,071_y_f_n_a.png,O,m,696,6,1,1714.6000000089407,297966.1999999881,7807,VNB,A,5
6,test,5,1.0,1-Back,1.0,z,Wed May 13 2026 13:40:01 GMT-0500 (Central Daylight Time),301697.0,124_o_f_n_a.png,O,z,994,7,1,2014.1000000089407,299682.89999999106,7807,VNB,A,6
7,test,5,0.0,1-Back,1.0,m,Wed May 13 2026 13:40:01 GMT-0500 (Central Daylight Time),303397.0,139_m_f_d_a.png,O,m,682,8,1,1697.800000011921,301699.1999999881,7807,VNB,A,7
8,test,5,0.0,1-Back,1.0,m,Wed May 13 2026 13:40:01 GMT-0500 (Central Daylight Time),305096.5,109_y_m_h_a.png,O,m,679,9,1,1696.4000000059605,303400.09999999404,7807,VNB,A,8
9,test,5,0.0,1-Back,1.0,m,Wed May 13 2026 13:40:01 GMT-0500 (Central Daylight Time),307078.299999997,071_y_f_d_a.png,O,m,961,10,1,1979.2999999970198,305099.0,7807,VNB,A,9
10,test,5,0.0,1-Back,1.0,m,Wed May 13 2026 13:40:01 GMT-0500 (Central Daylight Time),308977.299999997,165_m_m_n_a.png,O,m,876,11,1,1895.1000000089407,307082.1999999881,7807,VNB,A,10
11,test,5,1.0,1-Back,1.0,z,Wed May 13 2026 13:40:01 GMT-0500 (Central Daylight Time),310844.89999999106,139_m_f_n_a.png,O,z,851,12,1,1864.8999999910593,308980.0,7807,VNB,A,11
12,test,5,0.0,1-Back,1.0,m,Wed May 13 2026 13:40:01 GMT-0500 (Central Daylight Time),312644.0,039_o_m_h_a.png,O,m,784,13,1,1795.9000000059605,310848.09999999404,7807,VNB,A,12
13,test,5,0.0,1-Back,1.0,z,Wed May 13 2026 13:40:01 GMT-0500 (Central Daylight Time),314443.1999999881,165_m_m_h_a.png,O,z,775,14,1,1796.0,312647.1999999881,7807,VNB,A,13
14,test,5,1.0,1-Back,1.0,m,Wed May 13 2026 13:40:01 GMT-0500 (Central Daylight Time),316542.09999999404,124_o_f_d_a.png,O,m,1080,15,1,2096.0999999940395,314446.0,7807,VNB,A,14
15,test,5,0.0,1-Back,1.0,m,Wed May 13 2026 13:40:01 GMT-0500 (Central Daylight Time),318392.6999999881,109_y_m_n_a.png,O,m,828,16,1,1846.5999999940395,316546.09999999404,7807,VNB,A,15
16,test,5,0.0,1-Back,1.0,m,Wed May 13 2026 13:40:01 GMT-0500 (Central Daylight Time),320123.09999999404,071_y_f_h_a.png,O,m,705,17,1,1727.9000000059605,318395.1999999881,7807,VNB,A,16
17,test,5,0.0,1-Back,1.0,m,Wed May 13 2026 13:40:01 GMT-0500 (Central Daylight Time),321923.6999999881,165_m_m_d_a.png,O,m,781,18,1,1798.5,320125.1999999881,7807,VNB,A,17
0,prac,1,0.0,2-Back,,,Wed May 13 2026 13:40:01 GMT-0500 (Central Daylight Time),321923.6999999881,139_m_f_n_a.png,O,space,2715,1,1,1798.5,320125.1999999881,7807,VNB,A,0
0,prac,1,0.0,2-Back,,,Wed May 13 2026 13:40:01 GMT-0500 (Central Daylight Time),321923.6999999881,124_o_f_h_a.png,O,space,2715,2,1,1798.5,320125.1999999881,7807,VNB,A,0
1,prac,1,0.0,2-Back,1.0,m,Wed May 13 2026 13:40:01 GMT-0500 (Central Daylight Time),419560.89999999106,039_o_m_d_a.png,O,m,1688,3,1,2475.7000000029802,417085.1999999881,7807,VNB,A,1
2,prac,1,1.0,2-Back,1.0,z,Wed May 13 2026 13:40:01 GMT-0500 (Central Daylight Time),421294.1999999881,165_m_m_h_a.png,O,z,921,4,1,1722.3999999910593,419571.799999997,7807,VNB,A,2
2,prac,1,0.0,2-Back,0.0,m,Wed May 13 2026 13:40:01 GMT-0500 (Central Daylight Time),423393.0,071_y_f_n_a.png,O,z,1287,5,1,2089.6000000089407,421303.39999999106,7807,VNB,A,3
3,prac,1,1.0,2-Back,1.0,z,Wed May 13 2026 13:40:01 GMT-0500 (Central Daylight Time),425190.799999997,039_o_m_h_a.png,O,z,1017,6,1,1787.6000000089407,423403.1999999881,7807,VNB,A,4
3,prac,1,1.0,2-Back,0.0,z,Wed May 13 2026 13:40:01 GMT-0500 (Central Daylight Time),427241.89999999106,109_y_m_n_a.png,O,m,1243,7,1,2043.2999999970198,425198.59999999404,7807,VNB,A,5
4,prac,1,0.0,2-Back,1.0,m,Wed May 13 2026 13:40:01 GMT-0500 (Central Daylight Time),429322.89999999106,139_m_f_d_a.png,O,m,1274,8,1,2072.5999999940395,427250.299999997,7807,VNB,A,6
4,prac,1,0.0,2-Back,0.0,m,Wed May 13 2026 13:40:01 GMT-0500 (Central Daylight Time),431373.59999999404,124_o_f_d_a.png,O,z,1226,9,1,2042.4000000059605,429331.1999999881,7807,VNB,A,7
5,prac,1,0.0,2-Back,1.0,m,Wed May 13 2026 13:40:01 GMT-0500 (Central Daylight Time),433906.1999999881,165_m_m_h_a.png,O,m,1759,10,1,2526.199999988079,431380.0,7807,VNB,A,8
5,prac,1,1.0,2-Back,0.0,z,Wed May 13 2026 13:40:01 GMT-0500 (Central Daylight Time),435804.89999999106,071_y_f_d_a.png,O,m,1101,11,1,1889.5999999940395,433915.299999997,7807,VNB,A,9
5,prac,1,0.0,2-Back,0.0,m,Wed May 13 2026 13:40:01 GMT-0500 (Central Daylight Time),438604.5,039_o_m_n_a.png,O,None,2003,12,1,2789.300000011921,435815.1999999881,7807,VNB,A,10
0,prac,2,0.0,2-Back,,,Wed May 13 2026 13:40:01 GMT-0500 (Central Daylight Time),438604.5,139_m_f_n_a.png,O,a,4682,1,1,2789.300000011921,435815.1999999881,7807,VNB,A,0
0,prac,2,0.0,2-Back,,,Wed May 13 2026 13:40:01 GMT-0500 (Central Daylight Time),438604.5,124_o_f_h_a.png,O,a,4682,2,1,2789.300000011921,435815.1999999881,7807,VNB,A,0
1,prac,2,0.0,2-Back,1.0,m,Wed May 13 2026 13:40:01 GMT-0500 (Central Daylight Time),450318.39999999106,039_o_m_d_a.png,O,m,1108,3,1,1891.2000000029802,448427.1999999881,7807,VNB,A,1
2,prac,2,1.0,2-Back,1.0,z,Wed May 13 2026 13:40:01 GMT-0500 (Central Daylight Time),452367.89999999106,165_m_m_h_a.png,O,z,1286,4,1,2041.8999999910593,450326.0,7807,VNB,A,2
3,prac,2,0.0,2-Back,1.0,m,Wed May 13 2026 13:40:01 GMT-0500 (Central Daylight Time),454881.1999999881,071_y_f_n_a.png,O,m,1702,5,1,2505.8999999910593,452375.299999997,7807,VNB,A,3
4,prac,2,1.0,2-Back,1.0,z,Wed May 13 2026 13:40:01 GMT-0500 (Central Daylight Time),457297.299999997,039_o_m_h_a.png,O,z,1607,6,1,2408.5,454888.799999997,7807,VNB,A,4
5,prac,2,1.0,2-Back,1.0,z,Wed May 13 2026 13:40:01 GMT-0500 (Central Daylight Time),459179.89999999106,109_y_m_n_a.png,O,z,1083,7,1,1875.5,457304.39999999106,7807,VNB,A,5
6,prac,2,0.0,2-Back,1.0,m,Wed May 13 2026 13:40:01 GMT-0500 (Central Daylight Time),461096.89999999106,139_m_f_d_a.png,O,m,1106,8,1,1908.0,459188.89999999106,7807,VNB,A,6
7,prac,2,0.0,2-Back,1.0,m,Wed May 13 2026 13:40:01 GMT-0500 (Central Daylight Time),463365.59999999404,124_o_f_d_a.png,O,m,1443,9,1,2258.7999999970198,461106.799999997,7807,VNB,A,7
7,prac,2,0.0,2-Back,0.0,m,Wed May 13 2026 13:40:01 GMT-0500 (Central Daylight Time),465030.1999999881,165_m_m_h_a.png,O,z,898,10,1,1660.8999999910593,463369.299999997,7807,VNB,A,8
8,prac,2,1.0,2-Back,1.0,z,Wed May 13 2026 13:40:01 GMT-0500 (Central Daylight Time),466779.09999999404,071_y_f_d_a.png,O,z,944,11,1,1740.2000000029802,465038.89999999106,7807,VNB,A,9
9,prac,2,0.0,2-Back,1.0,m,Wed May 13 2026 13:40:01 GMT-0500 (Central Daylight Time),468328.59999999404,039_o_m_n_a.png,O,m,744,12,1,1544.5,466784.09999999404,7807,VNB,A,10
0,test,1,0.0,2-Back,,,Wed May 13 2026 13:40:01 GMT-0500 (Central Daylight Time),468328.59999999404,109_y_m_h_a.png,O,space,2032,1,1,1544.5,466784.09999999404,7807,VNB,A,0
0,test,1,0.0,2-Back,,,Wed May 13 2026 13:40:01 GMT-0500 (Central Daylight Time),468328.59999999404,124_o_f_n_a.png,O,space,2032,2,1,1544.5,466784.09999999404,7807,VNB,A,0
1,test,1,0.0,2-Back,1.0,z,Wed May 13 2026 13:40:01 GMT-0500 (Central Daylight Time),486221.799999997,039_o_m_h_a.png,O,z,1056,3,1,2073.6000000089407,484148.1999999881,7807,VNB,A,1
2,test,1,0.0,2-Back,1.0,m,Wed May 13 2026 13:40:01 GMT-0500 (Central Daylight Time),488087.1999999881,139_m_f_d_a.png,O,m,844,4,1,1862.699999988079,486224.5,7807,VNB,A,2
2,test,1,1.0,2-Back,0.0,m,Wed May 13 2026 13:40:01 GMT-0500 (Central Daylight Time),490770.799999997,109_y_m_n_a.png,O,z,1652,5,1,2681.7999999970198,488089.0,7807,VNB,A,3
3,test,1,0.0,2-Back,1.0,z,Wed May 13 2026 13:40:01 GMT-0500 (Central Daylight Time),492651.5,071_y_f_d_a.png,O,z,844,6,1,1877.9000000059605,490773.59999999404,7807,VNB,A,4
4,test,1,0.0,2-Back,1.0,m,Wed May 13 2026 13:40:01 GMT-0500 (Central Daylight Time),494818.89999999106,165_m_m_h_a.png,O,m,1142,7,1,2165.5,492653.39999999106,7807,VNB,A,5
4,test,1,1.0,2-Back,0.0,m,Wed May 13 2026 13:40:01 GMT-0500 (Central Daylight Time),497117.299999997,071_y_f_n_a.png,O,z,1272,8,1,2295.2000000029802,494822.09999999404,7807,VNB,A,6
5,test,1,0.0,2-Back,1.0,z,Wed May 13 2026 13:40:01 GMT-0500 (Central Daylight Time),499318.1999999881,124_o_f_h_a.png,O,z,1182,9,1,2198.5,497119.6999999881,7807,VNB,A,7
5,test,1,0.0,2-Back,0.0,m,Wed May 13 2026 13:40:01 GMT-0500 (Central Daylight Time),501399.59999999404,039_o_m_d_a.png,O,z,1063,10,1,2078.5999999940395,499321.0,7807,VNB,A,8
5,test,1,1.0,2-Back,0.0,m,Wed May 13 2026 13:40:01 GMT-0500 (Central Daylight Time),503348.09999999404,165_m_m_d_a.png,O,z,923,11,1,1946.2999999970198,501401.799999997,7807,VNB,A,9
5,test,1,0.0,2-Back,0.0,m,Wed May 13 2026 13:40:01 GMT-0500 (Central Daylight Time),506048.89999999106,139_m_f_n_a.png,O,z,1671,12,1,2698.5,503350.39999999106,7807,VNB,A,10
6,test,1,0.0,2-Back,1.0,m,Wed May 13 2026 13:40:01 GMT-0500 (Central Daylight Time),508230.89999999106,071_y_f_h_a.png,O,m,1163,13,1,2179.2000000029802,506051.6999999881,7807,VNB,A,11
6,test,1,0.0,2-Back,0.0,z,Wed May 13 2026 13:40:01 GMT-0500 (Central Daylight Time),510664.59999999404,165_m_m_n_a.png,O,m,1404,14,1,2432.0999999940395,508232.5,7807,VNB,A,12
7,test,1,0.0,2-Back,1.0,m,Wed May 13 2026 13:40:01 GMT-0500 (Central Daylight Time),513364.59999999404,109_y_m_d_a.png,O,m,1668,15,1,2697.2000000029802,510667.39999999106,7807,VNB,A,13
8,test,1,1.0,2-Back,1.0,m,Wed May 13 2026 13:40:01 GMT-0500 (Central Daylight Time),516112.799999997,139_m_f_h_a.png,O,m,1718,16,1,2745.5,513367.299999997,7807,VNB,A,14
8,test,1,0.0,2-Back,0.0,z,Wed May 13 2026 13:40:01 GMT-0500 (Central Daylight Time),518794.299999997,124_o_f_d_a.png,O,m,1649,17,1,2678.6000000089407,516115.6999999881,7807,VNB,A,15
9,test,1,0.0,2-Back,1.0,m,Wed May 13 2026 13:40:01 GMT-0500 (Central Daylight Time),521211.09999999404,039_o_m_n_a.png,O,m,1393,18,1,2414.0,518797.09999999404,7807,VNB,A,16
0,test,2,0.0,2-Back,,,Wed May 13 2026 13:40:01 GMT-0500 (Central Daylight Time),521211.09999999404,165_m_m_h_a.png,O,space,1736,1,1,2414.0,518797.09999999404,7807,VNB,A,0
0,test,2,0.0,2-Back,,,Wed May 13 2026 13:40:01 GMT-0500 (Central Daylight Time),521211.09999999404,071_y_f_n_a.png,O,space,1736,2,1,2414.0,518797.09999999404,7807,VNB,A,0
1,test,2,1.0,2-Back,1.0,z,Wed May 13 2026 13:40:01 GMT-0500 (Central Daylight Time),529773.5,124_o_f_h_a.png,O,z,704,3,1,1724.0,528049.5,7807,VNB,A,1
2,test,2,0.0,2-Back,1.0,m,Wed May 13 2026 13:40:01 GMT-0500 (Central Daylight Time),531657.299999997,039_o_m_d_a.png,O,m,855,4,1,1881.1000000089407,529776.1999999881,7807,VNB,A,2
3,test,2,0.0,2-Back,1.0,m,Wed May 13 2026 13:40:01 GMT-0500 (Central Daylight Time),534473.299999997,139_m_f_d_a.png,O,m,1793,5,1,2813.2000000029802,531660.099999994,7807,VNB,A,3
4,test,2,0.0,2-Back,1.0,m,Wed May 13 2026 13:40:01 GMT-0500 (Central Daylight Time),536455.0,109_y_m_h_a.png,O,m,954,6,1,1979.5,534475.5,7807,VNB,A,4
5,test,2,0.0,2-Back,1.0,m,Wed May 13 2026 13:40:01 GMT-0500 (Central Daylight Time),538638.599999994,124_o_f_n_a.png,O,m,1164,7,1,2181.0,536457.599999994,7807,VNB,A,5
6,test,2,1.0,2-Back,1.0,z,Wed May 13 2026 13:40:01 GMT-0500 (Central Daylight Time),540654.799999997,039_o_m_h_a.png,O,z,989,8,1,2012.2999999970198,538642.5,7807,VNB,A,6
7,test,2,0.0,2-Back,1.0,m,Wed May 13 2026 13:40:01 GMT-0500 (Central Daylight Time),542819.599999994,071_y_f_d_a.png,O,m,1139,9,1,2161.5,540658.099999994,7807,VNB,A,7
7,test,2,0.0,2-Back,0.0,m,Wed May 13 2026 13:40:01 GMT-0500 (Central Daylight Time),545385.6999999881,109_y_m_d_a.png,O,z,1545,10,1,2564.0999999940395,542821.599999994,7807,VNB,A,8
8,test,2,0.0,2-Back,1.0,m,Wed May 13 2026 13:40:01 GMT-0500 (Central Daylight Time),547388.1999999881,165_m_m_n_a.png,O,m,985,11,1,1999.199999988079,545389.0,7807,VNB,A,9
9,test,2,0.0,2-Back,1.0,m,Wed May 13 2026 13:40:01 GMT-0500 (Central Daylight Time),549002.099999994,139_m_f_h_a.png,O,m,595,12,1,1610.7999999970198,547391.299999997,7807,VNB,A,10
10,test,2,1.0,2-Back,1.0,z,Wed May 13 2026 13:40:01 GMT-0500 (Central Daylight Time),550801.0,039_o_m_n_a.png,O,z,778,13,1,1796.300000011921,549004.6999999881,7807,VNB,A,11
11,test,2,0.0,2-Back,1.0,m,Wed May 13 2026 13:40:01 GMT-0500 (Central Daylight Time),552765.6999999881,124_o_f_d_a.png,O,m,946,14,1,1962.2999999970198,550803.3999999911,7807,VNB,A,12
12,test,2,0.0,2-Back,1.0,m,Wed May 13 2026 13:40:01 GMT-0500 (Central Daylight Time),555032.0,071_y_f_h_a.png,O,m,1244,15,1,2264.4000000059605,552767.599999994,7807,VNB,A,13
12,test,2,0.0,2-Back,0.0,z,Wed May 13 2026 13:40:01 GMT-0500 (Central Daylight Time),557083.1999999881,165_m_m_d_a.png,O,m,1017,16,1,2049.0,555034.1999999881,7807,VNB,A,14
12,test,2,0.0,2-Back,0.0,m,Wed May 13 2026 13:40:01 GMT-0500 (Central Daylight Time),558598.5,109_y_m_n_a.png,O,z,489,17,1,1511.6000000089407,557086.8999999911,7807,VNB,A,15
13,test,2,1.0,2-Back,1.0,m,Wed May 13 2026 13:40:01 GMT-0500 (Central Daylight Time),560563.299999997,139_m_f_n_a.png,O,m,948,18,1,1962.1000000089407,558601.1999999881,7807,VNB,A,16
0,test,3,1.0,2-Back,,,Wed May 13 2026 13:40:01 GMT-0500 (Central Daylight Time),560563.299999997,039_o_m_n_a.png,O,space,1208,1,1,1962.1000000089407,558601.1999999881,7807,VNB,A,0
0,test,3,1.0,2-Back,,,Wed May 13 2026 13:40:01 GMT-0500 (Central Daylight Time),560563.299999997,124_o_f_d_a.png,O,space,1208,2,1,1962.1000000089407,558601.1999999881,7807,VNB,A,0
1,test,3,0.0,2-Back,1.0,m,Wed May 13 2026 13:40:01 GMT-0500 (Central Daylight Time),568927.6999999881,071_y_f_h_a.png,O,m,1077,3,1,2094.5,566833.1999999881,7807,VNB,A,1
2,test,3,0.0,2-Back,1.0,z,Wed May 13 2026 13:40:01 GMT-0500 (Central Daylight Time),571877.3999999911,139_m_f_d_a.png,O,z,1923,4,1,2947.2999999970198,568930.099999994,7807,VNB,A,2
2,test,3,1.0,2-Back,0.0,m,Wed May 13 2026 13:40:01 GMT-0500 (Central Daylight Time),574376.3999999911,109_y_m_n_a.png,O,z,1477,5,1,2494.8999999910593,571881.5,7807,VNB,A,3
2,test,3,0.0,2-Back,0.0,m,Wed May 13 2026 13:40:01 GMT-0500 (Central Daylight Time),577407.799999997,039_o_m_h_a.png,O,None,2013,6,1,3026.1000000089407,574381.6999999881,7807,VNB,A,4
2,test,3,0.0,2-Back,0.0,z,Wed May 13 2026 13:40:01 GMT-0500 (Central Daylight Time),580441.099999994,071_y_f_n_a.png,O,None,2015,7,1,3028.0999999940395,577413.0,7807,VNB,A,5
3,test,3,1.0,2-Back,1.0,m,Wed May 13 2026 13:40:01 GMT-0500 (Central Daylight Time),581560.099999994,165_m_m_d_a.png,O,m,84,8,1,1110.2000000029802,580449.8999999911,7807,VNB,A,6
3,test,3,0.0,2-Back,0.0,m,Wed May 13 2026 13:40:01 GMT-0500 (Central Daylight Time),583474.0,109_y_m_d_a.png,O,z,892,9,1,1910.6000000089407,581563.3999999911,7807,VNB,A,7
4,test,3,0.0,2-Back,1.0,m,Wed May 13 2026 13:40:01 GMT-0500 (Central Daylight Time),585589.8999999911,124_o_f_h_a.png,O,m,1098,10,1,2111.5999999940395,583478.299999997,7807,VNB,A,8
5,test,3,1.0,2-Back,1.0,m,Wed May 13 2026 13:40:01 GMT-0500 (Central Daylight Time),587538.6999999881,139_m_f_n_a.png,O,m,925,11,1,1943.7999999970198,585594.8999999911,7807,VNB,A,9
6,test,3,1.0,2-Back,1.0,z,Wed May 13 2026 13:40:01 GMT-0500 (Central Daylight Time),589021.8999999911,165_m_m_h_a.png,O,z,465,12,1,1476.7000000029802,587545.1999999881,7807,VNB,A,10
7,test,3,0.0,2-Back,1.0,m,Wed May 13 2026 13:40:01 GMT-0500 (Central Daylight Time),590938.8999999911,071_y_f_d_a.png,O,m,885,13,1,1911.7999999970198,589027.099999994,7807,VNB,A,11
8,test,3,0.0,2-Back,1.0,m,Wed May 13 2026 13:40:01 GMT-0500 (Central Daylight Time),593154.6999999881,124_o_f_n_a.png,O,m,1184,14,1,2212.7999999970198,590941.8999999911,7807,VNB,A,12
8,test,3,0.0,2-Back,0.0,z,Wed May 13 2026 13:40:01 GMT-0500 (Central Daylight Time),595103.6999999881,039_o_m_d_a.png,O,m,920,15,1,1945.5,593158.1999999881,7807,VNB,A,13
8,test,3,1.0,2-Back,0.0,m,Wed May 13 2026 13:40:01 GMT-0500 (Central Daylight Time),597087.3999999911,139_m_f_h_a.png,O,z,956,16,1,1981.0,595106.3999999911,7807,VNB,A,14
9,test,3,0.0,2-Back,1.0,m,Wed May 13 2026 13:40:01 GMT-0500 (Central Daylight Time),599070.5,165_m_m_n_a.png,O,m,957,17,1,1979.2000000029802,597091.299999997,7807,VNB,A,15
10,test,3,0.0,2-Back,1.0,z,Wed May 13 2026 13:40:01 GMT-0500 (Central Daylight Time),600586.099999994,109_y_m_h_a.png,O,z,485,18,1,1512.9000000059605,599073.1999999881,7807,VNB,A,16
0,test,4,0.0,2-Back,,,Wed May 13 2026 13:40:01 GMT-0500 (Central Daylight Time),600586.099999994,139_m_f_n_a.png,O,space,1336,1,1,1512.9000000059605,599073.1999999881,7807,VNB,A,0
0,test,4,0.0,2-Back,,,Wed May 13 2026 13:40:01 GMT-0500 (Central Daylight Time),600586.099999994,039_o_m_n_a.png,O,space,1336,2,1,1512.9000000059605,599073.1999999881,7807,VNB,A,0
1,test,4,1.0,2-Back,1.0,m,Wed May 13 2026 13:40:01 GMT-0500 (Central Daylight Time),609015.299999997,109_y_m_h_a.png,O,m,1003,3,1,2028.7999999970198,606986.5,7807,VNB,A,1
2,test,4,1.0,2-Back,1.0,m,Wed May 13 2026 13:40:01 GMT-0500 (Central Daylight Time),611147.299999997,124_o_f_d_a.png,O,m,1099,4,1,2130.2000000029802,609017.099999994,7807,VNB,A,2
3,test,4,0.0,2-Back,1.0,z,Wed May 13 2026 13:40:01 GMT-0500 (Central Daylight Time),613480.3999999911,039_o_m_h_a.png,O,z,1311,5,1,2331.2999999970198,611149.099999994,7807,VNB,A,3
4,test,4,0.0,2-Back,1.0,m,Wed May 13 2026 13:40:01 GMT-0500 (Central Daylight Time),615981.6999999881,165_m_m_n_a.png,O,m,1481,6,1,2498.0999999940395,613483.599999994,7807,VNB,A,4
5,test,4,0.0,2-Back,1.0,m,Wed May 13 2026 13:40:01 GMT-0500 (Central Daylight Time),618079.3999999911,139_m_f_d_a.png,O,m,1079,7,1,2093.7999999970198,615985.599999994,7807,VNB,A,5
6,test,4,0.0,2-Back,1.0,z,Wed May 13 2026 13:40:01 GMT-0500 (Central Daylight Time),620545.3999999911,071_y_f_n_a.png,O,z,1436,8,1,2462.7000000029802,618082.6999999881,7807,VNB,A,6
6,test,4,1.0,2-Back,0.0,m,Wed May 13 2026 13:40:01 GMT-0500 (Central Daylight Time),623144.3999999911,124_o_f_h_a.png,O,z,1580,9,1,2596.7999999970198,620547.599999994,7807,VNB,A,7
7,test,4,0.0,2-Back,1.0,m,Wed May 13 2026 13:40:01 GMT-0500 (Central Daylight Time),625178.0,165_m_m_h_a.png,O,m,1003,10,1,2030.4000000059605,623147.599999994,7807,VNB,A,8
7,test,4,0.0,2-Back,0.0,m,Wed May 13 2026 13:40:01 GMT-0500 (Central Daylight Time),627443.8999999911,071_y_f_d_a.png,O,z,1241,11,1,2263.5,625180.3999999911,7807,VNB,A,9
8,test,4,0.0,2-Back,1.0,m,Wed May 13 2026 13:40:01 GMT-0500 (Central Daylight Time),629958.5,109_y_m_n_a.png,O,m,1489,12,1,2512.0,627446.5,7807,VNB,A,10
9,test,4,0.0,2-Back,1.0,z,Wed May 13 2026 13:40:01 GMT-0500 (Central Daylight Time),632158.6999999881,039_o_m_d_a.png,O,z,1172,13,1,2197.0999999940395,629961.599999994,7807,VNB,A,11
9,test,4,1.0,2-Back,0.0,m,Wed May 13 2026 13:40:01 GMT-0500 (Central Daylight Time),634624.0,139_m_f_h_a.png,O,z,1446,14,1,2463.300000011921,632160.6999999881,7807,VNB,A,12
10,test,4,1.0,2-Back,1.0,m,Wed May 13 2026 13:40:01 GMT-0500 (Central Daylight Time),636756.799999997,071_y_f_h_a.png,O,m,1106,15,1,2130.2999999970198,634626.5,7807,VNB,A,13
11,test,4,0.0,2-Back,1.0,m,Wed May 13 2026 13:40:01 GMT-0500 (Central Daylight Time),638741.6999999881,124_o_f_n_a.png,O,m,951,16,1,1982.5,636759.1999999881,7807,VNB,A,14
12,test,4,0.0,2-Back,1.0,m,Wed May 13 2026 13:40:01 GMT-0500 (Central Daylight Time),640938.099999994,109_y_m_d_a.png,O,m,1175,17,1,2193.7000000029802,638744.3999999911,7807,VNB,A,15
13,test,4,1.0,2-Back,1.0,m,Wed May 13 2026 13:40:01 GMT-0500 (Central Daylight Time),643071.599999994,165_m_m_d_a.png,O,m,1114,18,1,2131.0999999940395,640940.5,7807,VNB,A,16
0,test,5,1.0,2-Back,,,Wed May 13 2026 13:40:01 GMT-0500 (Central Daylight Time),643071.599999994,071_y_f_d_a.png,O,space,1172,1,1,2131.0999999940395,640940.5,7807,VNB,A,0
0,test,5,1.0,2-Back,,,Wed May 13 2026 13:40:01 GMT-0500 (Central Daylight Time),643071.599999994,124_o_f_h_a.png,O,space,1172,2,1,2131.0999999940395,640940.5,7807,VNB,A,0
0,test,5,1.0,2-Back,0.0,z,Wed May 13 2026 13:40:01 GMT-0500 (Central Daylight Time),652369.0,039_o_m_d_a.png,O,None,2016,3,1,3024.7000000029802,649344.299999997,7807,VNB,A,1
1,test,5,1.0,2-Back,1.0,m,Wed May 13 2026 13:40:01 GMT-0500 (Central Daylight Time),654536.5,139_m_f_n_a.png,O,m,1132,4,1,2160.300000011921,652376.1999999881,7807,VNB,A,2
2,test,5,0.0,2-Back,1.0,m,Wed May 13 2026 13:40:01 GMT-0500 (Central Daylight Time),657200.6999999881,165_m_m_h_a.png,O,m,1637,5,1,2661.3999999910593,654539.299999997,7807,VNB,A,3
2,test,5,0.0,2-Back,0.0,z,Wed May 13 2026 13:40:01 GMT-0500 (Central Daylight Time),659616.3999999911,071_y_f_n_a.png,O,m,1386,6,1,2412.2999999970198,657204.099999994,7807,VNB,A,4
2,test,5,0.0,2-Back,0.0,m,Wed May 13 2026 13:40:01 GMT-0500 (Central Daylight Time),661965.299999997,124_o_f_d_a.png,O,z,1324,7,1,2345.9000000059605,659619.3999999911,7807,VNB,A,5
3,test,5,0.0,2-Back,1.0,m,Wed May 13 2026 13:40:01 GMT-0500 (Central Daylight Time),664348.1999999881,039_o_m_h_a.png,O,m,1357,8,1,2379.8999999910593,661968.299999997,7807,VNB,A,6
3,test,5,1.0,2-Back,0.0,z,Wed May 13 2026 13:40:01 GMT-0500 (Central Daylight Time),666598.0,139_m_f_d_a.png,O,m,1222,9,1,2247.300000011921,664350.6999999881,7807,VNB,A,7
4,test,5,0.0,2-Back,1.0,m,Wed May 13 2026 13:40:01 GMT-0500 (Central Daylight Time),668497.0,109_y_m_n_a.png,O,m,877,10,1,1896.2000000029802,666600.799999997,7807,VNB,A,8
4,test,5,0.0,2-Back,0.0,m,Wed May 13 2026 13:40:01 GMT-0500 (Central Daylight Time),670913.8999999911,165_m_m_n_a.png,O,z,1384,11,1,2414.5,668499.3999999911,7807,VNB,A,9
4,test,5,0.0,2-Back,0.0,m,Wed May 13 2026 13:40:01 GMT-0500 (Central Daylight Time),673947.0,071_y_f_h_a.png,O,None,2018,12,1,3029.9000000059605,670917.099999994,7807,VNB,A,10
5,test,5,0.0,2-Back,1.0,m,Wed May 13 2026 13:40:01 GMT-0500 (Central Daylight Time),676011.8999999911,109_y_m_d_a.png,O,m,1043,13,1,2057.8999999910593,673954.0,7807,VNB,A,11
6,test,5,1.0,2-Back,1.0,z,Wed May 13 2026 13:40:01 GMT-0500 (Central Daylight Time),677776.3999999911,139_m_f_h_a.png,O,z,736,14,1,1762.0999999940395,676014.299999997,7807,VNB,A,12
7,test,5,0.0,2-Back,1.0,m,Wed May 13 2026 13:40:01 GMT-0500 (Central Daylight Time),679676.6999999881,039_o_m_n_a.png,O,m,875,15,1,1898.699999988079,677778.0,7807,VNB,A,13
8,test,5,0.0,2-Back,1.0,m,Wed May 13 2026 13:40:01 GMT-0500 (Central Daylight Time),681791.8999999911,165_m_m_d_a.png,O,m,1087,16,1,2112.7999999970198,679679.099999994,7807,VNB,A,14
9,test,5,0.0,2-Back,1.0,z,Wed May 13 2026 13:40:01 GMT-0500 (Central Daylight Time),683742.0,124_o_f_n_a.png,O,z,931,17,1,1948.1000000089407,681793.8999999911,7807,VNB,A,15
9,test,5,1.0,2-Back,0.0,m,Wed May 13 2026 13:40:01 GMT-0500 (Central Daylight Time),685893.799999997,109_y_m_h_a.png,O,z,1126,18,1,2148.2999999970198,683745.5,7807,VNB,A,16
