acc_sum,block,block_c,block_cond,con_img,correct,correct_response,datetime,endtime,face,jitter,line,project,response,response_time,row_sel,session_number,start_end,starttime,subject_id,task,task_vers,trial
0,prac,1,A,haborder.png,0,z,Fri May 16 2025 15:00:04 GMT-0500 (Central Daylight Time),40105.700000000186,CFD-WF-019-015-A.jpg,1000,solid,O,None,1514,12,1,3297.0,36808.700000000186,7138,ATS,A,1
0,prac,1,A,haborder.png,0,z,Fri May 16 2025 15:00:04 GMT-0500 (Central Daylight Time),43521.5,CFD-BM-005-010-A.jpg,1600,solid,O,m,1033,2,1,6712.799999999814,36808.700000000186,7138,ATS,A,2
1,prac,1,A,haborder.png,1,m,Fri May 16 2025 15:00:04 GMT-0500 (Central Daylight Time),46970.60000000056,CFD-BM-017-052-HC.jpg,1700,solid,O,m,965,1,1,10161.900000000373,36808.700000000186,7138,ATS,A,3
2,prac,1,A,haborder.png,1,m,Fri May 16 2025 15:00:04 GMT-0500 (Central Daylight Time),50369.60000000056,CFD-WM-006-013-HC.jpg,1700,solid,O,m,917,9,1,13560.900000000373,36808.700000000186,7138,ATS,A,4
3,prac,1,A,haborder.png,1,z,Fri May 16 2025 15:00:04 GMT-0500 (Central Daylight Time),53452.700000000186,CFD-WF-003-014-A.jpg,1600,solid,O,z,686,10,1,16644.0,36808.700000000186,7138,ATS,A,5
4,prac,1,A,haborder.png,1,z,Fri May 16 2025 15:00:04 GMT-0500 (Central Daylight Time),56084.60000000056,CFD-BF-023-013-A.jpg,1000,solid,O,z,847,4,1,19275.900000000373,36808.700000000186,7138,ATS,A,6
5,prac,1,A,haborder.png,1,m,Fri May 16 2025 15:00:04 GMT-0500 (Central Daylight Time),59067.10000000056,CFD-WF-017-016-HC.jpg,1500,solid,O,m,683,11,1,22258.400000000373,36808.700000000186,7138,ATS,A,7
6,prac,1,A,haborder.png,1,z,Fri May 16 2025 15:00:04 GMT-0500 (Central Daylight Time),62466.0,CFD-WM-013-015-A.jpg,1900,solid,O,z,698,8,1,25657.299999999814,36808.700000000186,7138,ATS,A,8
7,prac,1,A,haborder.png,1,m,Fri May 16 2025 15:00:04 GMT-0500 (Central Daylight Time),65481.5,CFD-BM-029-026-HC.jpg,1500,solid,O,m,737,3,1,28672.799999999814,36808.700000000186,7138,ATS,A,9
8,prac,1,A,haborder.png,1,z,Fri May 16 2025 15:00:04 GMT-0500 (Central Daylight Time),68097.70000000019,CFD-BF-039-039-A.jpg,1200,solid,O,z,622,6,1,31289.0,36808.700000000186,7138,ATS,A,10
9,prac,1,A,haborder.png,1,m,Fri May 16 2025 15:00:04 GMT-0500 (Central Daylight Time),71730.5,CFD-BF-028-020-HC.jpg,2000,solid,O,m,833,5,1,34921.799999999814,36808.700000000186,7138,ATS,A,11
10,prac,1,A,haborder.png,1,m,Fri May 16 2025 15:00:04 GMT-0500 (Central Daylight Time),74747.20000000019,CFD-WM-004-005-HC.jpg,1400,solid,O,m,833,7,1,37938.5,36808.700000000186,7138,ATS,A,12
1,prac,1,B,mfborder.png,1,z,Fri May 16 2025 15:00:04 GMT-0500 (Central Daylight Time),113449.70000000019,CFD-WF-002-008-HC.jpg,1900,dash,O,z,855,8,1,3565.5999999996275,109884.10000000056,7138,ATS,A,1
2,prac,1,B,mfborder.png,1,m,Fri May 16 2025 15:00:04 GMT-0500 (Central Daylight Time),116428.80000000075,CFD-WM-013-015-A.jpg,1700,dash,O,m,493,9,1,6544.700000000186,109884.10000000056,7138,ATS,A,2
3,prac,1,B,mfborder.png,1,m,Fri May 16 2025 15:00:04 GMT-0500 (Central Daylight Time),119812.5,CFD-WM-019-013-A.jpg,1200,dash,O,m,1395,6,1,9928.399999999441,109884.10000000056,7138,ATS,A,3
4,prac,1,B,mfborder.png,1,m,Fri May 16 2025 15:00:04 GMT-0500 (Central Daylight Time),123445.20000000019,CFD-BM-010-019-A.jpg,1600,dash,O,m,1234,2,1,13561.099999999627,109884.10000000056,7138,ATS,A,4
5,prac,1,B,mfborder.png,1,m,Fri May 16 2025 15:00:04 GMT-0500 (Central Daylight Time),126543.80000000075,CFD-BM-029-026-HC.jpg,1700,dash,O,m,615,1,1,16659.700000000186,109884.10000000056,7138,ATS,A,5
6,prac,1,B,mfborder.png,1,m,Fri May 16 2025 15:00:04 GMT-0500 (Central Daylight Time),129962.10000000056,CFD-WM-006-013-HC.jpg,1600,dash,O,m,1032,10,1,20078.0,109884.10000000056,7138,ATS,A,6
7,prac,1,B,mfborder.png,1,m,Fri May 16 2025 15:00:04 GMT-0500 (Central Daylight Time),133625.10000000056,CFD-BM-005-010-A.jpg,2000,dash,O,m,872,5,1,23741.0,109884.10000000056,7138,ATS,A,7
7,prac,1,B,mfborder.png,0,z,Fri May 16 2025 15:00:04 GMT-0500 (Central Daylight Time),136742.30000000075,CFD-BF-028-020-HC.jpg,1400,dash,O,m,943,7,1,26858.200000000186,109884.10000000056,7138,ATS,A,8
8,prac,1,B,mfborder.png,1,z,Fri May 16 2025 15:00:04 GMT-0500 (Central Daylight Time),139923.80000000075,CFD-BF-010-005-HC.jpg,1500,dash,O,z,898,3,1,30039.700000000186,109884.10000000056,7138,ATS,A,9
9,prac,1,B,mfborder.png,1,z,Fri May 16 2025 15:00:04 GMT-0500 (Central Daylight Time),142790.40000000037,CFD-WF-003-014-A.jpg,1500,dash,O,z,579,11,1,32906.299999999814,109884.10000000056,7138,ATS,A,10
10,prac,1,B,mfborder.png,1,z,Fri May 16 2025 15:00:04 GMT-0500 (Central Daylight Time),145305.2000000002,CFD-WF-017-016-HC.jpg,1000,dash,O,z,732,12,1,35421.09999999963,109884.10000000056,7138,ATS,A,11
11,prac,1,B,mfborder.png,1,z,Fri May 16 2025 15:00:04 GMT-0500 (Central Daylight Time),147655.40000000037,CFD-BF-023-013-A.jpg,1000,dash,O,z,565,4,1,37771.299999999814,109884.10000000056,7138,ATS,A,12
1,test,1,A,haborder.png,1,m,Fri May 16 2025 15:00:04 GMT-0500 (Central Daylight Time),172099.2000000002,CFD-BM-029-026-HC.jpg,1500,solid,O,m,1283,3,1,2800.7000000001863,169298.5,7138,ATS,A,1
2,test,1,A,haborder.png,1,m,Fri May 16 2025 15:00:04 GMT-0500 (Central Daylight Time),174498.60000000056,CFD-WF-017-016-HC.jpg,1500,solid,O,m,881,11,1,5200.100000000559,169298.5,7138,ATS,A,2
3,test,1,A,haborder.png,1,z,Fri May 16 2025 15:00:04 GMT-0500 (Central Daylight Time),176296.7000000002,CFD-BF-039-039-A.jpg,1200,solid,O,z,569,6,1,6998.200000000186,169298.5,7138,ATS,A,3
4,test,1,A,haborder.png,1,z,Fri May 16 2025 15:00:04 GMT-0500 (Central Daylight Time),178294.80000000075,CFD-BF-039-039-A.jpg,1200,solid,O,z,771,6,1,8996.300000000745,169298.5,7138,ATS,A,4
5,test,1,A,haborder.png,1,z,Fri May 16 2025 15:00:04 GMT-0500 (Central Daylight Time),180978.10000000056,CFD-WM-013-015-A.jpg,1900,solid,O,z,750,8,1,11679.600000000559,169298.5,7138,ATS,A,5
6,test,1,A,haborder.png,1,m,Fri May 16 2025 15:00:04 GMT-0500 (Central Daylight Time),183158.0,CFD-WF-017-016-HC.jpg,1500,solid,O,m,650,11,1,13859.5,169298.5,7138,ATS,A,6
7,test,1,A,haborder.png,1,z,Fri May 16 2025 15:00:04 GMT-0500 (Central Daylight Time),185244.2000000002,CFD-WF-019-015-A.jpg,1000,solid,O,z,1066,12,1,15945.700000000186,169298.5,7138,ATS,A,7
8,test,1,A,haborder.png,1,m,Fri May 16 2025 15:00:04 GMT-0500 (Central Daylight Time),188092.0,CFD-BM-017-052-HC.jpg,1700,solid,O,m,1122,1,1,18793.5,169298.5,7138,ATS,A,8
9,test,1,A,haborder.png,1,z,Fri May 16 2025 15:00:04 GMT-0500 (Central Daylight Time),190041.40000000037,CFD-BF-023-013-A.jpg,1000,solid,O,z,926,4,1,20742.900000000373,169298.5,7138,ATS,A,9
10,test,1,A,haborder.png,1,z,Fri May 16 2025 15:00:04 GMT-0500 (Central Daylight Time),193290.7000000002,CFD-WM-013-015-A.jpg,1900,solid,O,z,1317,8,1,23992.200000000186,169298.5,7138,ATS,A,10
11,test,1,A,haborder.png,1,m,Fri May 16 2025 15:00:04 GMT-0500 (Central Daylight Time),195539.80000000075,CFD-WM-004-005-HC.jpg,1400,solid,O,m,816,7,1,26241.300000000745,169298.5,7138,ATS,A,11
12,test,1,A,haborder.png,1,z,Fri May 16 2025 15:00:04 GMT-0500 (Central Daylight Time),198455.60000000056,CFD-BM-005-010-A.jpg,1600,solid,O,z,1294,2,1,29157.10000000056,169298.5,7138,ATS,A,12
13,test,1,A,haborder.png,1,z,Fri May 16 2025 15:00:04 GMT-0500 (Central Daylight Time),200804.7000000002,CFD-BF-023-013-A.jpg,1000,solid,O,z,1314,4,1,31506.200000000186,169298.5,7138,ATS,A,13
14,test,1,A,haborder.png,1,z,Fri May 16 2025 15:00:04 GMT-0500 (Central Daylight Time),203468.80000000075,CFD-WF-003-014-A.jpg,1600,solid,O,z,1037,10,1,34170.300000000745,169298.5,7138,ATS,A,14
15,test,1,A,haborder.png,1,z,Fri May 16 2025 15:00:04 GMT-0500 (Central Daylight Time),205887.0,CFD-BM-005-010-A.jpg,1600,solid,O,z,777,2,1,36588.5,169298.5,7138,ATS,A,15
16,test,1,A,haborder.png,1,z,Fri May 16 2025 15:00:04 GMT-0500 (Central Daylight Time),208202.7000000002,CFD-WF-003-014-A.jpg,1600,solid,O,z,682,10,1,38904.200000000186,169298.5,7138,ATS,A,16
17,test,1,A,haborder.png,1,m,Fri May 16 2025 15:00:04 GMT-0500 (Central Daylight Time),210151.0,CFD-WM-004-005-HC.jpg,1400,solid,O,m,517,7,1,40852.5,169298.5,7138,ATS,A,17
18,test,1,A,haborder.png,1,m,Fri May 16 2025 15:00:04 GMT-0500 (Central Daylight Time),212835.90000000037,CFD-BF-028-020-HC.jpg,2000,solid,O,m,667,5,1,43537.40000000037,169298.5,7138,ATS,A,18
19,test,1,A,haborder.png,1,m,Fri May 16 2025 15:00:04 GMT-0500 (Central Daylight Time),215417.10000000056,CFD-WM-006-013-HC.jpg,1700,solid,O,m,851,9,1,46118.60000000056,169298.5,7138,ATS,A,19
20,test,1,A,haborder.png,1,m,Fri May 16 2025 15:00:04 GMT-0500 (Central Daylight Time),217548.80000000075,CFD-BM-029-026-HC.jpg,1500,solid,O,m,605,3,1,48250.300000000745,169298.5,7138,ATS,A,20
21,test,1,A,haborder.png,1,m,Fri May 16 2025 15:00:04 GMT-0500 (Central Daylight Time),220015.5,CFD-BM-017-052-HC.jpg,1700,solid,O,m,743,1,1,50717.0,169298.5,7138,ATS,A,21
22,test,1,A,haborder.png,1,m,Fri May 16 2025 15:00:04 GMT-0500 (Central Daylight Time),222698.0,CFD-BF-028-020-HC.jpg,2000,solid,O,m,648,5,1,53399.5,169298.5,7138,ATS,A,22
23,test,1,A,haborder.png,1,m,Fri May 16 2025 15:00:04 GMT-0500 (Central Daylight Time),224948.30000000075,CFD-WM-006-013-HC.jpg,1700,solid,O,m,511,9,1,55649.800000000745,169298.5,7138,ATS,A,23
24,test,1,A,haborder.png,1,z,Fri May 16 2025 15:00:04 GMT-0500 (Central Daylight Time),226696.40000000037,CFD-WF-019-015-A.jpg,1000,solid,O,z,712,12,1,57397.90000000037,169298.5,7138,ATS,A,24
1,test,1,B,mfborder.png,1,z,Fri May 16 2025 15:00:04 GMT-0500 (Central Daylight Time),236774.2000000002,CFD-BF-010-005-HC.jpg,1500,dash,O,z,1243,3,1,2780.7000000001863,233993.5,7138,ATS,A,1
2,test,1,B,mfborder.png,1,m,Fri May 16 2025 15:00:04 GMT-0500 (Central Daylight Time),239542.90000000037,CFD-BM-005-010-A.jpg,2000,dash,O,m,734,5,1,5549.4000000003725,233993.5,7138,ATS,A,2
3,test,1,B,mfborder.png,1,m,Fri May 16 2025 15:00:04 GMT-0500 (Central Daylight Time),241990.40000000037,CFD-BM-029-026-HC.jpg,1700,dash,O,m,719,1,1,7996.9000000003725,233993.5,7138,ATS,A,3
4,test,1,B,mfborder.png,1,z,Fri May 16 2025 15:00:04 GMT-0500 (Central Daylight Time),244240.90000000037,CFD-BF-028-020-HC.jpg,1400,dash,O,z,826,7,1,10247.400000000373,233993.5,7138,ATS,A,4
5,test,1,B,mfborder.png,1,m,Fri May 16 2025 15:00:04 GMT-0500 (Central Daylight Time),246657.10000000056,CFD-WM-013-015-A.jpg,1700,dash,O,m,677,9,1,12663.600000000559,233993.5,7138,ATS,A,5
6,test,1,B,mfborder.png,1,z,Fri May 16 2025 15:00:04 GMT-0500 (Central Daylight Time),248206.0,CFD-BF-023-013-A.jpg,1000,dash,O,z,526,4,1,14212.5,233993.5,7138,ATS,A,6
7,test,1,B,mfborder.png,1,m,Fri May 16 2025 15:00:04 GMT-0500 (Central Daylight Time),250471.40000000037,CFD-WM-006-013-HC.jpg,1600,dash,O,m,642,10,1,16477.900000000373,233993.5,7138,ATS,A,7
8,test,1,B,mfborder.png,1,m,Fri May 16 2025 15:00:04 GMT-0500 (Central Daylight Time),253021.30000000075,CFD-WM-006-013-HC.jpg,1600,dash,O,m,929,10,1,19027.800000000745,233993.5,7138,ATS,A,8
9,test,1,B,mfborder.png,1,m,Fri May 16 2025 15:00:04 GMT-0500 (Central Daylight Time),255368.80000000075,CFD-BM-010-019-A.jpg,1600,dash,O,m,716,2,1,21375.300000000745,233993.5,7138,ATS,A,9
9,test,1,B,mfborder.png,0,z,Fri May 16 2025 15:00:04 GMT-0500 (Central Daylight Time),258402.80000000075,CFD-WF-003-014-A.jpg,1500,dash,O,None,1514,11,1,24409.300000000745,233993.5,7138,ATS,A,10
10,test,1,B,mfborder.png,1,z,Fri May 16 2025 15:00:04 GMT-0500 (Central Daylight Time),261235.5,CFD-WF-002-008-HC.jpg,1900,dash,O,z,906,8,1,27242.0,233993.5,7138,ATS,A,11
11,test,1,B,mfborder.png,1,m,Fri May 16 2025 15:00:04 GMT-0500 (Central Daylight Time),263533.4000000004,CFD-BM-010-019-A.jpg,1600,dash,O,m,677,2,1,29539.900000000373,233993.5,7138,ATS,A,12
12,test,1,B,mfborder.png,1,m,Fri May 16 2025 15:00:04 GMT-0500 (Central Daylight Time),265750.4000000004,CFD-WM-019-013-A.jpg,1200,dash,O,m,994,6,1,31756.900000000373,233993.5,7138,ATS,A,13
13,test,1,B,mfborder.png,1,z,Fri May 16 2025 15:00:04 GMT-0500 (Central Daylight Time),267400.7000000002,CFD-WF-017-016-HC.jpg,1000,dash,O,z,621,12,1,33407.200000000186,233993.5,7138,ATS,A,14
14,test,1,B,mfborder.png,1,z,Fri May 16 2025 15:00:04 GMT-0500 (Central Daylight Time),269865.9000000004,CFD-BF-010-005-HC.jpg,1500,dash,O,z,942,3,1,35872.40000000037,233993.5,7138,ATS,A,15
15,test,1,B,mfborder.png,1,m,Fri May 16 2025 15:00:04 GMT-0500 (Central Daylight Time),272665.5,CFD-BM-029-026-HC.jpg,1700,dash,O,m,1067,1,1,38672.0,233993.5,7138,ATS,A,16
16,test,1,B,mfborder.png,1,z,Fri May 16 2025 15:00:04 GMT-0500 (Central Daylight Time),274681.30000000075,CFD-WF-017-016-HC.jpg,1000,dash,O,z,991,12,1,40687.800000000745,233993.5,7138,ATS,A,17
17,test,1,B,mfborder.png,1,z,Fri May 16 2025 15:00:04 GMT-0500 (Central Daylight Time),276965.80000000075,CFD-BF-028-020-HC.jpg,1400,dash,O,z,867,7,1,42972.300000000745,233993.5,7138,ATS,A,18
18,test,1,B,mfborder.png,1,z,Fri May 16 2025 15:00:04 GMT-0500 (Central Daylight Time),278830.10000000056,CFD-BF-023-013-A.jpg,1000,dash,O,z,835,4,1,44836.60000000056,233993.5,7138,ATS,A,19
19,test,1,B,mfborder.png,1,m,Fri May 16 2025 15:00:04 GMT-0500 (Central Daylight Time),281995.4000000004,CFD-BM-005-010-A.jpg,2000,dash,O,m,1130,5,1,48001.90000000037,233993.5,7138,ATS,A,20
20,test,1,B,mfborder.png,1,z,Fri May 16 2025 15:00:04 GMT-0500 (Central Daylight Time),284728.2000000002,CFD-WF-002-008-HC.jpg,1900,dash,O,z,810,8,1,50734.700000000186,233993.5,7138,ATS,A,21
20,test,1,B,mfborder.png,0,m,Fri May 16 2025 15:00:04 GMT-0500 (Central Daylight Time),287460.0,CFD-WM-019-013-A.jpg,1200,dash,O,None,1514,6,1,53466.5,233993.5,7138,ATS,A,22
21,test,1,B,mfborder.png,1,m,Fri May 16 2025 15:00:04 GMT-0500 (Central Daylight Time),289876.2000000002,CFD-WM-013-015-A.jpg,1700,dash,O,m,698,9,1,55882.700000000186,233993.5,7138,ATS,A,23
22,test,1,B,mfborder.png,1,z,Fri May 16 2025 15:00:04 GMT-0500 (Central Daylight Time),292125.30000000075,CFD-WF-003-014-A.jpg,1500,dash,O,z,705,11,1,58131.800000000745,233993.5,7138,ATS,A,24
0,prac,1,C,mfborder.png,0,z,Fri May 16 2025 15:00:04 GMT-0500 (Central Daylight Time),341160.10000000056,CFD-BF-028-020-HC.jpg,1000,dash,O,None,1516,3,1,3298.4000000003725,337861.7000000002,7138,ATS,A,1
0,prac,1,C,mfborder.png,0,z,Fri May 16 2025 15:00:04 GMT-0500 (Central Daylight Time),344958.10000000056,CFD-WF-019-015-A.jpg,1500,solid,O,None,1515,2,1,7096.4000000003725,337861.7000000002,7138,ATS,A,2
0,prac,1,C,haborder.png,0,z,Fri May 16 2025 15:00:04 GMT-0500 (Central Daylight Time),348825.7000000002,CFD-BF-039-039-A.jpg,1700,solid,O,m,1391,8,1,10964.0,337861.7000000002,7138,ATS,A,3
1,prac,1,C,haborder.png,1,m,Fri May 16 2025 15:00:04 GMT-0500 (Central Daylight Time),352075.30000000075,CFD-WM-004-005-HC.jpg,1400,solid,O,m,1051,12,1,14213.600000000559,337861.7000000002,7138,ATS,A,4
2,prac,1,C,mfborder.png,1,z,Fri May 16 2025 15:00:04 GMT-0500 (Central Daylight Time),355737.7000000002,CFD-WF-017-016-HC.jpg,1600,dash,O,z,1281,1,1,17876.0,337861.7000000002,7138,ATS,A,5
3,prac,1,C,haborder.png,1,m,Fri May 16 2025 15:00:04 GMT-0500 (Central Daylight Time),358971.5,CFD-BM-029-026-HC.jpg,1500,solid,O,m,949,10,1,21109.799999999814,337861.7000000002,7138,ATS,A,6
4,prac,1,C,mfborder.png,1,m,Fri May 16 2025 15:00:04 GMT-0500 (Central Daylight Time),362787.80000000075,CFD-WM-013-015-A.jpg,1700,solid,O,m,1347,6,1,24926.10000000056,337861.7000000002,7138,ATS,A,7
5,prac,1,C,mfborder.png,1,m,Fri May 16 2025 15:00:04 GMT-0500 (Central Daylight Time),366017.9000000004,CFD-BM-005-010-A.jpg,1200,dash,O,m,1239,5,1,28156.200000000186,337861.7000000002,7138,ATS,A,8
6,prac,1,C,haborder.png,1,z,Fri May 16 2025 15:00:04 GMT-0500 (Central Daylight Time),369949.9000000004,CFD-BF-023-013-A.jpg,1900,dash,O,z,1234,7,1,32088.200000000186,337861.7000000002,7138,ATS,A,9
7,prac,1,C,haborder.png,1,m,Fri May 16 2025 15:00:04 GMT-0500 (Central Daylight Time),372834.30000000075,CFD-WM-004-005-HC.jpg,1000,dash,O,m,1098,11,1,34972.60000000056,337861.7000000002,7138,ATS,A,10
7,prac,1,C,mfborder.png,0,m,Fri May 16 2025 15:00:04 GMT-0500 (Central Daylight Time),377132.7000000002,CFD-BM-017-052-HC.jpg,2000,solid,O,None,1514,4,1,39271.0,337861.7000000002,7138,ATS,A,11
8,prac,1,C,haborder.png,1,z,Fri May 16 2025 15:00:04 GMT-0500 (Central Daylight Time),380630.0,CFD-WF-003-014-A.jpg,1600,dash,O,z,1110,9,1,42768.299999999814,337861.7000000002,7138,ATS,A,12
0,test,1,C,mfborder.png,0,m,Fri May 16 2025 15:00:04 GMT-0500 (Central Daylight Time),428517.4000000004,CFD-WM-006-013-HC.jpg,1000,dash,O,None,1517,4,1,2533.9000000003725,425983.5,7138,ATS,A,1
0,test,1,C,mfborder.png,0,z,Fri May 16 2025 15:00:04 GMT-0500 (Central Daylight Time),431531.2000000002,CFD-BF-010-005-HC.jpg,1700,dash,O,m,1298,1,1,5547.700000000186,425983.5,7138,ATS,A,2
0,test,1,C,mfborder.png,0,z,Fri May 16 2025 15:00:04 GMT-0500 (Central Daylight Time),434564.5,CFD-WF-003-014-A.jpg,1500,dash,O,None,1515,3,1,8581.0,425983.5,7138,ATS,A,3
1,test,1,C,haborder.png,1,z,Fri May 16 2025 15:00:04 GMT-0500 (Central Daylight Time),437595.5,CFD-BM-010-019-A.jpg,1700,solid,O,z,1313,9,1,11612.0,425983.5,7138,ATS,A,4
2,test,1,C,mfborder.png,1,m,Fri May 16 2025 15:00:04 GMT-0500 (Central Daylight Time),440695.7000000002,CFD-WM-019-013-A.jpg,2000,dash,O,m,1068,5,1,14712.200000000186,425983.5,7138,ATS,A,5
2,test,1,C,mfborder.png,0,z,Fri May 16 2025 15:00:04 GMT-0500 (Central Daylight Time),443828.5,CFD-BF-023-013-A.jpg,1600,dash,O,None,1515,2,1,17845.0,425983.5,7138,ATS,A,6
2,test,1,C,haborder.png,0,z,Fri May 16 2025 15:00:04 GMT-0500 (Central Daylight Time),446761.2000000002,CFD-WM-013-015-A.jpg,1400,solid,O,None,1510,7,1,20777.700000000186,425983.5,7138,ATS,A,7
3,test,1,C,mfborder.png,1,z,Fri May 16 2025 15:00:04 GMT-0500 (Central Daylight Time),449924.10000000056,CFD-BF-010-005-HC.jpg,1700,dash,O,z,1441,1,1,23940.60000000056,425983.5,7138,ATS,A,8
4,test,1,C,haborder.png,1,m,Fri May 16 2025 15:00:04 GMT-0500 (Central Daylight Time),452374.10000000056,CFD-WF-017-016-HC.jpg,1000,solid,O,m,1414,12,1,26390.60000000056,425983.5,7138,ATS,A,9
4,test,1,C,mfborder.png,0,m,Fri May 16 2025 15:00:04 GMT-0500 (Central Daylight Time),454640.5,CFD-BM-029-026-HC.jpg,1200,dash,O,z,1040,6,1,28657.0,425983.5,7138,ATS,A,10
5,test,1,C,haborder.png,1,m,Fri May 16 2025 15:00:04 GMT-0500 (Central Daylight Time),457506.10000000056,CFD-BF-028-020-HC.jpg,1600,solid,O,m,1242,10,1,31522.60000000056,425983.5,7138,ATS,A,11
6,test,1,C,haborder.png,1,z,Fri May 16 2025 15:00:04 GMT-0500 (Central Daylight Time),460190.30000000075,CFD-WM-013-015-A.jpg,1400,solid,O,z,1266,7,1,34206.800000000745,425983.5,7138,ATS,A,12
7,test,1,C,mfborder.png,1,m,Fri May 16 2025 15:00:04 GMT-0500 (Central Daylight Time),462536.7000000002,CFD-WM-006-013-HC.jpg,1000,dash,O,m,1315,4,1,36553.200000000186,425983.5,7138,ATS,A,13
8,test,1,C,mfborder.png,1,z,Fri May 16 2025 15:00:04 GMT-0500 (Central Daylight Time),465652.7000000002,CFD-BF-023-013-A.jpg,1600,dash,O,z,1489,2,1,39669.200000000186,425983.5,7138,ATS,A,14
8,test,1,C,haborder.png,0,z,Fri May 16 2025 15:00:04 GMT-0500 (Central Daylight Time),469083.5,CFD-BM-005-010-A.jpg,1900,solid,O,None,1512,8,1,43100.0,425983.5,7138,ATS,A,15
9,test,1,C,haborder.png,1,z,Fri May 16 2025 15:00:04 GMT-0500 (Central Daylight Time),472001.10000000056,CFD-BM-010-019-A.jpg,1700,solid,O,z,1191,9,1,46017.60000000056,425983.5,7138,ATS,A,16
10,test,1,C,haborder.png,1,m,Fri May 16 2025 15:00:04 GMT-0500 (Central Daylight Time),474451.30000000075,CFD-WF-002-008-HC.jpg,1500,solid,O,m,925,11,1,48467.800000000745,425983.5,7138,ATS,A,17
10,test,1,C,haborder.png,0,m,Fri May 16 2025 15:00:04 GMT-0500 (Central Daylight Time),477316.9000000004,CFD-BF-028-020-HC.jpg,1600,solid,O,z,1239,10,1,51333.40000000037,425983.5,7138,ATS,A,18
10,test,1,C,mfborder.png,0,z,Fri May 16 2025 15:00:04 GMT-0500 (Central Daylight Time),480349.30000000075,CFD-WF-003-014-A.jpg,1500,dash,O,None,1509,3,1,54365.800000000745,425983.5,7138,ATS,A,19
11,test,1,C,haborder.png,1,m,Fri May 16 2025 15:00:04 GMT-0500 (Central Daylight Time),482483.5,CFD-WF-017-016-HC.jpg,1000,solid,O,m,1094,12,1,56500.0,425983.5,7138,ATS,A,20
11,test,1,C,mfborder.png,0,m,Fri May 16 2025 15:00:04 GMT-0500 (Central Daylight Time),485215.4000000004,CFD-BM-029-026-HC.jpg,1200,dash,O,None,1515,6,1,59231.90000000037,425983.5,7138,ATS,A,21
12,test,1,C,mfborder.png,1,m,Fri May 16 2025 15:00:04 GMT-0500 (Central Daylight Time),488680.5,CFD-WM-019-013-A.jpg,2000,dash,O,m,1443,5,1,62697.0,425983.5,7138,ATS,A,22
12,test,1,C,haborder.png,0,z,Fri May 16 2025 15:00:04 GMT-0500 (Central Daylight Time),492113.4000000004,CFD-BM-005-010-A.jpg,1900,solid,O,None,1508,8,1,66129.90000000037,425983.5,7138,ATS,A,23
13,test,1,C,haborder.png,1,m,Fri May 16 2025 15:00:04 GMT-0500 (Central Daylight Time),495044.4000000004,CFD-WF-002-008-HC.jpg,1500,solid,O,m,1406,11,1,69060.90000000037,425983.5,7138,ATS,A,24
0,test,2,C,haborder.png,0,z,Fri May 16 2025 15:00:04 GMT-0500 (Central Daylight Time),519654.30000000075,CFD-BF-023-013-A.jpg,1400,solid,O,m,1381,7,1,2817.4000000003725,516836.9000000004,7138,ATS,A,1
1,test,2,C,mfborder.png,1,m,Fri May 16 2025 15:00:04 GMT-0500 (Central Daylight Time),522002.9000000004,CFD-WM-013-015-A.jpg,1200,dash,O,m,1123,6,1,5166.0,516836.9000000004,7138,ATS,A,2
2,test,2,C,mfborder.png,1,m,Fri May 16 2025 15:00:04 GMT-0500 (Central Daylight Time),524501.0,CFD-WM-013-015-A.jpg,1200,dash,O,m,1271,6,1,7664.0999999996275,516836.9000000004,7138,ATS,A,3
3,test,2,C,haborder.png,1,m,Fri May 16 2025 15:00:04 GMT-0500 (Central Daylight Time),526984.2000000002,CFD-WM-004-005-HC.jpg,1500,solid,O,m,955,11,1,10147.299999999814,516836.9000000004,7138,ATS,A,4
4,test,2,C,mfborder.png,1,m,Fri May 16 2025 15:00:04 GMT-0500 (Central Daylight Time),530250.8000000007,CFD-BM-005-010-A.jpg,2000,dash,O,m,1234,5,1,13413.900000000373,516836.9000000004,7138,ATS,A,5
4,test,2,C,haborder.png,0,z,Fri May 16 2025 15:00:04 GMT-0500 (Central Daylight Time),533198.3000000007,CFD-BF-023-013-A.jpg,1400,solid,O,None,1514,7,1,16361.400000000373,516836.9000000004,7138,ATS,A,6
5,test,2,C,haborder.png,1,z,Fri May 16 2025 15:00:04 GMT-0500 (Central Daylight Time),536164.5,CFD-WF-003-014-A.jpg,1700,solid,O,z,1240,9,1,19327.599999999627,516836.9000000004,7138,ATS,A,7
6,test,2,C,mfborder.png,1,m,Fri May 16 2025 15:00:04 GMT-0500 (Central Daylight Time),538263.7000000002,CFD-BM-017-052-HC.jpg,1000,dash,O,m,1071,4,1,21426.799999999814,516836.9000000004,7138,ATS,A,8
7,test,2,C,mfborder.png,1,m,Fri May 16 2025 15:00:04 GMT-0500 (Central Daylight Time),540647.8000000007,CFD-BM-017-052-HC.jpg,1000,dash,O,m,1345,4,1,23810.900000000373,516836.9000000004,7138,ATS,A,9
7,test,2,C,mfborder.png,0,z,Fri May 16 2025 15:00:04 GMT-0500 (Central Daylight Time),543765.2000000002,CFD-WF-019-015-A.jpg,1600,dash,O,None,1501,2,1,26928.299999999814,516836.9000000004,7138,ATS,A,10
7,test,2,C,haborder.png,0,z,Fri May 16 2025 15:00:04 GMT-0500 (Central Daylight Time),547195.9000000004,CFD-BF-039-039-A.jpg,1900,solid,O,None,1511,8,1,30359.0,516836.9000000004,7138,ATS,A,11
7,test,2,C,mfborder.png,0,z,Fri May 16 2025 15:00:04 GMT-0500 (Central Daylight Time),550427.8000000007,CFD-WF-017-016-HC.jpg,1700,dash,O,None,1516,1,1,33590.90000000037,516836.9000000004,7138,ATS,A,12
8,test,2,C,mfborder.png,1,z,Fri May 16 2025 15:00:04 GMT-0500 (Central Daylight Time),552826.3000000007,CFD-BF-028-020-HC.jpg,1500,dash,O,z,874,3,1,35989.40000000037,516836.9000000004,7138,ATS,A,13
8,test,2,C,haborder.png,0,m,Fri May 16 2025 15:00:04 GMT-0500 (Central Daylight Time),555859.8000000007,CFD-WM-004-005-HC.jpg,1500,solid,O,None,1510,11,1,39022.90000000037,516836.9000000004,7138,ATS,A,14
9,test,2,C,mfborder.png,1,z,Fri May 16 2025 15:00:04 GMT-0500 (Central Daylight Time),558791.1000000006,CFD-WF-019-015-A.jpg,1600,dash,O,z,1312,2,1,41954.200000000186,516836.9000000004,7138,ATS,A,15
10,test,2,C,mfborder.png,1,z,Fri May 16 2025 15:00:04 GMT-0500 (Central Daylight Time),561456.4000000004,CFD-WF-017-016-HC.jpg,1700,dash,O,z,942,1,1,44619.5,516836.9000000004,7138,ATS,A,16
11,test,2,C,haborder.png,1,m,Fri May 16 2025 15:00:04 GMT-0500 (Central Daylight Time),563621.8000000007,CFD-WM-004-005-HC.jpg,1000,solid,O,m,1136,12,1,46784.90000000037,516836.9000000004,7138,ATS,A,17
11,test,2,C,mfborder.png,0,z,Fri May 16 2025 15:00:04 GMT-0500 (Central Daylight Time),566656.8000000007,CFD-BF-028-020-HC.jpg,1500,dash,O,None,1517,3,1,49819.90000000037,516836.9000000004,7138,ATS,A,18
12,test,2,C,haborder.png,1,z,Fri May 16 2025 15:00:04 GMT-0500 (Central Daylight Time),569903.7000000002,CFD-BF-039-039-A.jpg,1900,solid,O,z,1315,8,1,53066.799999999814,516836.9000000004,7138,ATS,A,19
13,test,2,C,haborder.png,1,m,Fri May 16 2025 15:00:04 GMT-0500 (Central Daylight Time),572153.7000000002,CFD-WM-004-005-HC.jpg,1000,solid,O,m,1219,12,1,55316.799999999814,516836.9000000004,7138,ATS,A,20
13,test,2,C,mfborder.png,0,m,Fri May 16 2025 15:00:04 GMT-0500 (Central Daylight Time),575337.5,CFD-BM-005-010-A.jpg,2000,dash,O,z,1161,5,1,58500.59999999963,516836.9000000004,7138,ATS,A,21
14,test,2,C,haborder.png,1,m,Fri May 16 2025 15:00:04 GMT-0500 (Central Daylight Time),578100.9000000004,CFD-BM-029-026-HC.jpg,1600,solid,O,m,1148,10,1,61264.0,516836.9000000004,7138,ATS,A,22
15,test,2,C,haborder.png,1,z,Fri May 16 2025 15:00:04 GMT-0500 (Central Daylight Time),581117.9000000004,CFD-WF-003-014-A.jpg,1700,solid,O,z,1299,9,1,64281.0,516836.9000000004,7138,ATS,A,23
16,test,2,C,haborder.png,1,m,Fri May 16 2025 15:00:04 GMT-0500 (Central Daylight Time),583848.3000000007,CFD-BM-029-026-HC.jpg,1600,solid,O,m,1109,10,1,67011.40000000037,516836.9000000004,7138,ATS,A,24
1,test,3,C,mfborder.png,1,m,Fri May 16 2025 15:00:04 GMT-0500 (Central Daylight Time),588898.7000000002,CFD-WM-019-013-A.jpg,2000,dash,O,m,1200,5,1,3234.399999999441,585664.3000000007,7138,ATS,A,1
1,test,3,C,haborder.png,0,m,Fri May 16 2025 15:00:04 GMT-0500 (Central Daylight Time),592030.4000000004,CFD-BF-028-020-HC.jpg,1600,solid,O,None,1514,10,1,6366.0999999996275,585664.3000000007,7138,ATS,A,2
2,test,3,C,haborder.png,1,z,Fri May 16 2025 15:00:04 GMT-0500 (Central Daylight Time),594712.1000000006,CFD-BM-010-019-A.jpg,1700,solid,O,z,951,9,1,9047.799999999814,585664.3000000007,7138,ATS,A,3
3,test,3,C,haborder.png,1,m,Fri May 16 2025 15:00:04 GMT-0500 (Central Daylight Time),596828.3000000007,CFD-WF-017-016-HC.jpg,1000,solid,O,m,1093,12,1,11164.0,585664.3000000007,7138,ATS,A,4
4,test,3,C,mfborder.png,1,z,Fri May 16 2025 15:00:04 GMT-0500 (Central Daylight Time),599744.2000000002,CFD-BF-023-013-A.jpg,1600,dash,O,z,1286,2,1,14079.899999999441,585664.3000000007,7138,ATS,A,5
5,test,3,C,haborder.png,1,m,Fri May 16 2025 15:00:04 GMT-0500 (Central Daylight Time),601794.3000000007,CFD-WF-017-016-HC.jpg,1000,solid,O,m,1032,12,1,16130.0,585664.3000000007,7138,ATS,A,6
6,test,3,C,mfborder.png,1,z,Fri May 16 2025 15:00:04 GMT-0500 (Central Daylight Time),604844.2000000002,CFD-BF-010-005-HC.jpg,1700,dash,O,z,1334,1,1,19179.89999999944,585664.3000000007,7138,ATS,A,7
6,test,3,C,haborder.png,0,z,Fri May 16 2025 15:00:04 GMT-0500 (Central Daylight Time),608077.5,CFD-BM-005-010-A.jpg,1900,solid,O,m,1300,8,1,22413.199999999255,585664.3000000007,7138,ATS,A,8
7,test,3,C,haborder.png,1,z,Fri May 16 2025 15:00:04 GMT-0500 (Central Daylight Time),610708.4000000004,CFD-WM-013-015-A.jpg,1400,solid,O,z,1206,7,1,25044.099999999627,585664.3000000007,7138,ATS,A,9
8,test,3,C,mfborder.png,1,z,Fri May 16 2025 15:00:04 GMT-0500 (Central Daylight Time),613639.9000000004,CFD-WF-003-014-A.jpg,1500,dash,O,z,1395,3,1,27975.599999999627,585664.3000000007,7138,ATS,A,10
9,test,3,C,mfborder.png,1,z,Fri May 16 2025 15:00:04 GMT-0500 (Central Daylight Time),616121.9000000004,CFD-WF-003-014-A.jpg,1500,dash,O,z,951,3,1,30457.599999999627,585664.3000000007,7138,ATS,A,11
9,test,3,C,mfborder.png,0,m,Fri May 16 2025 15:00:04 GMT-0500 (Central Daylight Time),618855.4000000004,CFD-BM-029-026-HC.jpg,1200,dash,O,None,1515,6,1,33191.09999999963,585664.3000000007,7138,ATS,A,12
10,test,3,C,mfborder.png,1,m,Fri May 16 2025 15:00:04 GMT-0500 (Central Daylight Time),620688.0,CFD-WM-006-013-HC.jpg,1000,dash,O,m,795,4,1,35023.699999999255,585664.3000000007,7138,ATS,A,13
11,test,3,C,mfborder.png,1,m,Fri May 16 2025 15:00:04 GMT-0500 (Central Daylight Time),623834.7000000002,CFD-WM-019-013-A.jpg,2000,dash,O,m,1115,5,1,38170.39999999944,585664.3000000007,7138,ATS,A,14
12,test,3,C,mfborder.png,1,m,Fri May 16 2025 15:00:04 GMT-0500 (Central Daylight Time),626302.5,CFD-BM-029-026-HC.jpg,1200,dash,O,m,1236,6,1,40638.199999999255,585664.3000000007,7138,ATS,A,15
13,test,3,C,haborder.png,1,z,Fri May 16 2025 15:00:04 GMT-0500 (Central Daylight Time),629019.1000000006,CFD-BM-010-019-A.jpg,1700,solid,O,z,982,9,1,43354.799999999814,585664.3000000007,7138,ATS,A,16
14,test,3,C,haborder.png,1,m,Fri May 16 2025 15:00:04 GMT-0500 (Central Daylight Time),631351.2000000002,CFD-WF-002-008-HC.jpg,1500,solid,O,m,811,11,1,45686.89999999944,585664.3000000007,7138,ATS,A,17
15,test,3,C,mfborder.png,1,m,Fri May 16 2025 15:00:04 GMT-0500 (Central Daylight Time),633701.5,CFD-WM-006-013-HC.jpg,1000,dash,O,m,1324,4,1,48037.199999999255,585664.3000000007,7138,ATS,A,18
15,test,3,C,haborder.png,0,m,Fri May 16 2025 15:00:04 GMT-0500 (Central Daylight Time),636034.9000000004,CFD-BF-028-020-HC.jpg,1600,solid,O,z,710,10,1,50370.59999999963,585664.3000000007,7138,ATS,A,19
15,test,3,C,haborder.png,0,z,Fri May 16 2025 15:00:04 GMT-0500 (Central Daylight Time),639466.5,CFD-BM-005-010-A.jpg,1900,solid,O,None,1511,8,1,53802.199999999255,585664.3000000007,7138,ATS,A,20
16,test,3,C,haborder.png,1,m,Fri May 16 2025 15:00:04 GMT-0500 (Central Daylight Time),641798.7000000002,CFD-WF-002-008-HC.jpg,1500,solid,O,m,808,11,1,56134.39999999944,585664.3000000007,7138,ATS,A,21
17,test,3,C,mfborder.png,1,z,Fri May 16 2025 15:00:04 GMT-0500 (Central Daylight Time),644631.6000000006,CFD-BF-023-013-A.jpg,1600,dash,O,z,1199,2,1,58967.299999999814,585664.3000000007,7138,ATS,A,22
18,test,3,C,haborder.png,1,z,Fri May 16 2025 15:00:04 GMT-0500 (Central Daylight Time),646995.9000000004,CFD-WM-013-015-A.jpg,1400,solid,O,z,942,7,1,61331.59999999963,585664.3000000007,7138,ATS,A,23
19,test,3,C,mfborder.png,1,z,Fri May 16 2025 15:00:04 GMT-0500 (Central Daylight Time),649811.7000000002,CFD-BF-010-005-HC.jpg,1700,dash,O,z,1096,1,1,64147.39999999944,585664.3000000007,7138,ATS,A,24
0,test,4,C,mfborder.png,0,m,Fri May 16 2025 15:00:04 GMT-0500 (Central Daylight Time),659759.3000000007,CFD-WM-013-015-A.jpg,1200,dash,O,None,1515,6,1,2731.7000000001863,657027.6000000006,7138,ATS,A,1
0,test,4,C,haborder.png,0,m,Fri May 16 2025 15:00:04 GMT-0500 (Central Daylight Time),662891.1000000006,CFD-BM-029-026-HC.jpg,1600,solid,O,None,1507,10,1,5863.5,657027.6000000006,7138,ATS,A,2
1,test,4,C,haborder.png,1,m,Fri May 16 2025 15:00:04 GMT-0500 (Central Daylight Time),665373.8000000007,CFD-WM-004-005-HC.jpg,1000,solid,O,m,1454,12,1,8346.200000000186,657027.6000000006,7138,ATS,A,3
2,test,4,C,haborder.png,1,m,Fri May 16 2025 15:00:04 GMT-0500 (Central Daylight Time),667789.5,CFD-BM-029-026-HC.jpg,1600,solid,O,m,781,10,1,10761.899999999441,657027.6000000006,7138,ATS,A,4
3,test,4,C,mfborder.png,1,z,Fri May 16 2025 15:00:04 GMT-0500 (Central Daylight Time),670288.1000000006,CFD-WF-019-015-A.jpg,1600,dash,O,z,876,2,1,13260.5,657027.6000000006,7138,ATS,A,5
4,test,4,C,mfborder.png,1,m,Fri May 16 2025 15:00:04 GMT-0500 (Central Daylight Time),673654.1000000006,CFD-BM-005-010-A.jpg,2000,dash,O,m,1339,5,1,16626.5,657027.6000000006,7138,ATS,A,6
5,test,4,C,haborder.png,1,z,Fri May 16 2025 15:00:04 GMT-0500 (Central Daylight Time),676487.5,CFD-BF-023-013-A.jpg,1400,solid,O,z,1397,7,1,19459.89999999944,657027.6000000006,7138,ATS,A,7
6,test,4,C,haborder.png,1,m,Fri May 16 2025 15:00:04 GMT-0500 (Central Daylight Time),678852.3000000007,CFD-WM-004-005-HC.jpg,1500,solid,O,m,846,11,1,21824.700000000186,657027.6000000006,7138,ATS,A,8
7,test,4,C,mfborder.png,1,z,Fri May 16 2025 15:00:04 GMT-0500 (Central Daylight Time),681369.4000000004,CFD-BF-028-020-HC.jpg,1500,dash,O,z,977,3,1,24341.799999999814,657027.6000000006,7138,ATS,A,9
8,test,4,C,mfborder.png,1,m,Fri May 16 2025 15:00:04 GMT-0500 (Central Daylight Time),683366.4000000004,CFD-BM-017-052-HC.jpg,1000,dash,O,m,965,4,1,26338.799999999814,657027.6000000006,7138,ATS,A,10
8,test,4,C,mfborder.png,0,z,Fri May 16 2025 15:00:04 GMT-0500 (Central Daylight Time),686600.8000000007,CFD-WF-017-016-HC.jpg,1700,dash,O,None,1508,1,1,29573.200000000186,657027.6000000006,7138,ATS,A,11
8,test,4,C,haborder.png,0,z,Fri May 16 2025 15:00:04 GMT-0500 (Central Daylight Time),689134.3000000007,CFD-BF-023-013-A.jpg,1400,solid,O,m,1116,7,1,32106.700000000186,657027.6000000006,7138,ATS,A,12
9,test,4,C,haborder.png,1,m,Fri May 16 2025 15:00:04 GMT-0500 (Central Daylight Time),691798.3000000007,CFD-WM-004-005-HC.jpg,1500,solid,O,m,1130,11,1,34770.700000000186,657027.6000000006,7138,ATS,A,13
10,test,4,C,mfborder.png,1,z,Fri May 16 2025 15:00:04 GMT-0500 (Central Daylight Time),694397.9000000004,CFD-BF-028-020-HC.jpg,1500,dash,O,z,1069,3,1,37370.299999999814,657027.6000000006,7138,ATS,A,14
11,test,4,C,haborder.png,1,z,Fri May 16 2025 15:00:04 GMT-0500 (Central Daylight Time),697528.8000000007,CFD-BF-039-039-A.jpg,1900,solid,O,z,1208,8,1,40501.200000000186,657027.6000000006,7138,ATS,A,15
12,test,4,C,haborder.png,1,z,Fri May 16 2025 15:00:04 GMT-0500 (Central Daylight Time),700312.4000000004,CFD-BF-039-039-A.jpg,1900,solid,O,z,851,8,1,43284.799999999814,657027.6000000006,7138,ATS,A,16
13,test,4,C,mfborder.png,1,m,Fri May 16 2025 15:00:04 GMT-0500 (Central Daylight Time),703495.2000000002,CFD-BM-005-010-A.jpg,2000,dash,O,m,1161,5,1,46467.59999999963,657027.6000000006,7138,ATS,A,17
14,test,4,C,mfborder.png,1,z,Fri May 16 2025 15:00:04 GMT-0500 (Central Daylight Time),706025.7000000002,CFD-WF-019-015-A.jpg,1600,dash,O,z,890,2,1,48998.09999999963,657027.6000000006,7138,ATS,A,18
15,test,4,C,mfborder.png,1,z,Fri May 16 2025 15:00:04 GMT-0500 (Central Daylight Time),708725.7000000002,CFD-WF-017-016-HC.jpg,1700,dash,O,z,972,1,1,51698.09999999963,657027.6000000006,7138,ATS,A,19
16,test,4,C,haborder.png,1,m,Fri May 16 2025 15:00:04 GMT-0500 (Central Daylight Time),711226.0,CFD-WM-004-005-HC.jpg,1000,solid,O,m,1461,12,1,54198.39999999944,657027.6000000006,7138,ATS,A,20
16,test,4,C,mfborder.png,0,m,Fri May 16 2025 15:00:04 GMT-0500 (Central Daylight Time),713757.8000000007,CFD-BM-017-052-HC.jpg,1000,dash,O,None,1508,4,1,56730.200000000186,657027.6000000006,7138,ATS,A,21
17,test,4,C,mfborder.png,1,m,Fri May 16 2025 15:00:04 GMT-0500 (Central Daylight Time),715823.8000000007,CFD-WM-013-015-A.jpg,1200,dash,O,m,837,6,1,58796.200000000186,657027.6000000006,7138,ATS,A,22
18,test,4,C,haborder.png,1,z,Fri May 16 2025 15:00:04 GMT-0500 (Central Daylight Time),718805.9000000004,CFD-WF-003-014-A.jpg,1700,solid,O,z,1246,9,1,61778.299999999814,657027.6000000006,7138,ATS,A,23
19,test,4,C,haborder.png,1,z,Fri May 16 2025 15:00:04 GMT-0500 (Central Daylight Time),721386.8000000007,CFD-WF-003-014-A.jpg,1700,solid,O,z,853,9,1,64359.200000000186,657027.6000000006,7138,ATS,A,24
