block_c,block_dur,condition,countdown,datetime,endtime,list,multichar_response,project,response,response_time,session_number,start_end,starttime,subject_id,task,task_vers,trial
,,,,Wed Nov 12 2025 15:05:27 GMT-0600 (Central Standard Time),,,,O,space,774,1,,,7232,WL,C,
prac,,0,,Wed Nov 12 2025 15:05:27 GMT-0600 (Central Standard Time),,NA,b,O,b,2051,1,,,7232,WL,C,1.0
prac,,0,,Wed Nov 12 2025 15:05:27 GMT-0600 (Central Standard Time),,NA,bo,O,o,506,1,,,7232,WL,C,1.0
prac,,0,,Wed Nov 12 2025 15:05:27 GMT-0600 (Central Standard Time),,NA,boo,O,o,350,1,,,7232,WL,C,1.0
prac,,0,,Wed Nov 12 2025 15:05:27 GMT-0600 (Central Standard Time),,NA,boos,O,s,759,1,,,7232,WL,C,1.0
prac,,0,,Wed Nov 12 2025 15:05:27 GMT-0600 (Central Standard Time),,NA,boost,O,t,449,1,,,7232,WL,C,1.0
prac,,0,,Wed Nov 12 2025 15:05:27 GMT-0600 (Central Standard Time),,NA,boostenter,O,enter,1541,1,,,7232,WL,C,1.0
1,0.6649999618530273,learn,59335.00003814697,Wed Nov 12 2025 15:05:27 GMT-0600 (Central Standard Time),159506.30000007153,A,w,O,w,659,1,664.7000000476837,158841.60000002384,7232,WL,C,1.0
1,0.8829998970031738,learn,59117.000102996826,Wed Nov 12 2025 15:05:27 GMT-0600 (Central Standard Time),159724.0,A,wh,O,h,202,1,882.3999999761581,158841.60000002384,7232,WL,C,1.0
1,1.0,learn,59000.0,Wed Nov 12 2025 15:05:27 GMT-0600 (Central Standard Time),159841.39999997616,A,whe,O,e,105,1,999.7999999523163,158841.60000002384,7232,WL,C,1.0
1,1.1989998817443848,learn,58801.000118255615,Wed Nov 12 2025 15:05:27 GMT-0600 (Central Standard Time),160039.80000007153,A,whea,O,a,187,1,1198.2000000476837,158841.60000002384,7232,WL,C,1.0
1,1.7149999141693115,learn,58285.00008583069,Wed Nov 12 2025 15:05:27 GMT-0600 (Central Standard Time),160556.20000004768,A,wheat,O,t,509,1,1714.6000000238419,158841.60000002384,7232,WL,C,1.0
1,2.865000009536743,learn,57134.99999046326,Wed Nov 12 2025 15:05:27 GMT-0600 (Central Standard Time),161706.5,A,wheatenter,O,enter,1145,1,2864.899999976158,158841.60000002384,7232,WL,C,1.0
1,3.632999897003174,learn,56367.000102996826,Wed Nov 12 2025 15:05:27 GMT-0600 (Central Standard Time),162474.20000004768,A,t,O,t,746,1,767.3999999761581,161706.80000007153,7232,WL,C,2.0
1,3.8320000171661377,learn,56167.99998283386,Wed Nov 12 2025 15:05:27 GMT-0600 (Central Standard Time),162673.0,A,to,O,o,179,1,966.1999999284744,161706.80000007153,7232,WL,C,2.0
1,3.9809999465942383,learn,56019.00005340576,Wed Nov 12 2025 15:05:27 GMT-0600 (Central Standard Time),162822.30000007153,A,tow,O,w,140,1,1115.5,161706.80000007153,7232,WL,C,2.0
1,4.148000001907349,learn,55851.99999809265,Wed Nov 12 2025 15:05:27 GMT-0600 (Central Standard Time),162989.5,A,towe,O,e,159,1,1282.6999999284744,161706.80000007153,7232,WL,C,2.0
1,4.31499981880188,learn,55685.00018119812,Wed Nov 12 2025 15:05:27 GMT-0600 (Central Standard Time),163156.30000007153,A,tower,O,r,159,1,1449.5,161706.80000007153,7232,WL,C,2.0
1,5.330999851226807,learn,54669.00014877319,Wed Nov 12 2025 15:05:27 GMT-0600 (Central Standard Time),164172.39999997616,A,towerenter,O,enter,1000,1,2465.5999999046326,161706.80000007153,7232,WL,C,2.0
1,6.263999938964844,learn,53736.000061035156,Wed Nov 12 2025 15:05:27 GMT-0600 (Central Standard Time),165105.20000004768,A,q,O,q,921,1,932.5,164172.70000004768,7232,WL,C,3.0
1,6.447999954223633,learn,53552.00004577637,Wed Nov 12 2025 15:05:27 GMT-0600 (Central Standard Time),165288.89999997616,A,qu,O,u,172,1,1116.1999999284744,164172.70000004768,7232,WL,C,3.0
1,6.596999883651733,learn,53403.00011634827,Wed Nov 12 2025 15:05:27 GMT-0600 (Central Standard Time),165438.10000002384,A,que,O,e,132,1,1265.3999999761581,164172.70000004768,7232,WL,C,3.0
1,6.697999954223633,learn,53302.00004577637,Wed Nov 12 2025 15:05:27 GMT-0600 (Central Standard Time),165539.10000002384,A,quee,O,e,86,1,1366.3999999761581,164172.70000004768,7232,WL,C,3.0
1,6.863999843597412,learn,53136.00015640259,Wed Nov 12 2025 15:05:27 GMT-0600 (Central Standard Time),165705.30000007153,A,queen,O,n,153,1,1532.6000000238419,164172.70000004768,7232,WL,C,3.0
1,7.662999868392944,learn,52337.000131607056,Wed Nov 12 2025 15:05:27 GMT-0600 (Central Standard Time),166504.60000002384,A,queenenter,O,enter,788,1,2331.899999976158,164172.70000004768,7232,WL,C,3.0
1,8.38100004196167,learn,51618.99995803833,Wed Nov 12 2025 15:05:27 GMT-0600 (Central Standard Time),167222.20000004768,A,b,O,b,701,1,717.3000000715256,166504.89999997616,7232,WL,C,4.0
1,8.646999835968018,learn,51353.00016403198,Wed Nov 12 2025 15:05:27 GMT-0600 (Central Standard Time),167488.5,A,bo,O,o,246,1,983.6000000238419,166504.89999997616,7232,WL,C,4.0
1,9.412999868392944,learn,50587.000131607056,Wed Nov 12 2025 15:05:27 GMT-0600 (Central Standard Time),168254.39999997616,A,boy,O,y,756,1,1749.5,166504.89999997616,7232,WL,C,4.0
1,10.162999868392944,learn,49837.000131607056,Wed Nov 12 2025 15:05:27 GMT-0600 (Central Standard Time),169004.5,A,boyenter,O,enter,735,1,2499.600000023842,166504.89999997616,7232,WL,C,4.0
1,10.44599986076355,learn,49554.00013923645,Wed Nov 12 2025 15:05:27 GMT-0600 (Central Standard Time),169287.39999997616,A,d,O,d,272,1,282.6999999284744,169004.70000004768,7232,WL,C,5.0
1,10.680999994277954,learn,49319.000005722046,Wed Nov 12 2025 15:05:27 GMT-0600 (Central Standard Time),169521.89999997616,A,do,O,o,214,1,517.1999999284744,169004.70000004768,7232,WL,C,5.0
1,10.763000011444092,learn,49236.99998855591,Wed Nov 12 2025 15:05:27 GMT-0600 (Central Standard Time),169604.70000004768,A,doc,O,c,75,1,600.0,169004.70000004768,7232,WL,C,5.0
1,10.961999893188477,learn,49038.00010681152,Wed Nov 12 2025 15:05:27 GMT-0600 (Central Standard Time),169803.70000004768,A,doct,O,t,185,1,799.0,169004.70000004768,7232,WL,C,5.0
1,11.179999828338623,learn,48820.00017166138,Wed Nov 12 2025 15:05:27 GMT-0600 (Central Standard Time),170021.30000007153,A,docto,O,o,202,1,1016.6000000238419,169004.70000004768,7232,WL,C,5.0
1,11.34500002861023,learn,48654.99997138977,Wed Nov 12 2025 15:05:27 GMT-0600 (Central Standard Time),170186.39999997616,A,doctor,O,r,160,1,1181.6999999284744,169004.70000004768,7232,WL,C,5.0
1,11.678999900817871,learn,48321.00009918213,Wed Nov 12 2025 15:05:27 GMT-0600 (Central Standard Time),170520.30000007153,A,doctorenter,O,enter,323,1,1515.6000000238419,169004.70000004768,7232,WL,C,5.0
1,12.513000011444092,learn,47486.99998855591,Wed Nov 12 2025 15:05:27 GMT-0600 (Central Standard Time),171354.0,A,c,O,c,811,1,833.3999999761581,170520.60000002384,7232,WL,C,6.0
1,12.678999900817871,learn,47321.00009918213,Wed Nov 12 2025 15:05:27 GMT-0600 (Central Standard Time),171519.80000007153,A,ca,O,a,156,1,999.2000000476837,170520.60000002384,7232,WL,C,6.0
1,12.779000043869019,learn,47220.99995613098,Wed Nov 12 2025 15:05:27 GMT-0600 (Central Standard Time),171620.0,A,cat,O,t,93,1,1099.3999999761581,170520.60000002384,7232,WL,C,6.0
1,12.912999868392944,learn,47087.000131607056,Wed Nov 12 2025 15:05:27 GMT-0600 (Central Standard Time),171753.80000007153,A,catt,O,t,113,1,1233.2000000476837,170520.60000002384,7232,WL,C,6.0
1,13.227999925613403,learn,46772.0000743866,Wed Nov 12 2025 15:05:27 GMT-0600 (Central Standard Time),172069.60000002384,A,cattl,O,l,308,1,1549.0,170520.60000002384,7232,WL,C,6.0
1,13.34500002861023,learn,46654.99997138977,Wed Nov 12 2025 15:05:27 GMT-0600 (Central Standard Time),172186.30000007153,A,cattle,O,e,112,1,1665.7000000476837,170520.60000002384,7232,WL,C,6.0
1,13.560999870300293,learn,46439.00012969971,Wed Nov 12 2025 15:05:27 GMT-0600 (Central Standard Time),172402.70000004768,A,cattleenter,O,enter,204,1,1882.1000000238419,170520.60000002384,7232,WL,C,6.0
1,14.227999925613403,learn,45772.0000743866,Wed Nov 12 2025 15:05:27 GMT-0600 (Central Standard Time),173069.20000004768,A,n,O,n,651,1,666.2000000476837,172403.0,7232,WL,C,7.0
1,14.312999963760376,learn,45687.000036239624,Wed Nov 12 2025 15:05:27 GMT-0600 (Central Standard Time),173153.89999997616,A,na,O,a,82,1,750.8999999761581,172403.0,7232,WL,C,7.0
1,14.494999885559082,learn,45505.00011444092,Wed Nov 12 2025 15:05:27 GMT-0600 (Central Standard Time),173336.10000002384,A,nai,O,i,172,1,933.1000000238419,172403.0,7232,WL,C,7.0
1,14.710999965667725,learn,45289.000034332275,Wed Nov 12 2025 15:05:27 GMT-0600 (Central Standard Time),173551.89999997616,A,nail,O,l,197,1,1148.8999999761581,172403.0,7232,WL,C,7.0
1,16.393999814987183,learn,43606.00018501282,Wed Nov 12 2025 15:05:27 GMT-0600 (Central Standard Time),175235.5,A,nailenter,O,enter,1670,1,2832.5,172403.0,7232,WL,C,7.0
1,18.09500002861023,learn,41904.99997138977,Wed Nov 12 2025 15:05:27 GMT-0600 (Central Standard Time),176936.0,A,h,O,h,1682,1,1700.2999999523163,175235.70000004768,7232,WL,C,8.0
1,18.32699990272522,learn,41673.00009727478,Wed Nov 12 2025 15:05:27 GMT-0600 (Central Standard Time),177168.70000004768,A,ho,O,o,221,1,1933.0,175235.70000004768,7232,WL,C,8.0
1,18.542999982833862,learn,41457.00001716614,Wed Nov 12 2025 15:05:27 GMT-0600 (Central Standard Time),177384.89999997616,A,hom,O,m,205,1,2149.1999999284744,175235.70000004768,7232,WL,C,8.0
1,18.759999990463257,learn,41240.00000953674,Wed Nov 12 2025 15:05:27 GMT-0600 (Central Standard Time),177601.10000002384,A,home,O,e,213,1,2365.399999976158,175235.70000004768,7232,WL,C,8.0
1,20.042999982833862,learn,39957.00001716614,Wed Nov 12 2025 15:05:27 GMT-0600 (Central Standard Time),178884.20000004768,A,homeenter,O,enter,1277,1,3648.5,175235.70000004768,7232,WL,C,8.0
1,20.425999879837036,learn,39574.000120162964,Wed Nov 12 2025 15:05:27 GMT-0600 (Central Standard Time),179267.70000004768,A,d,O,d,369,1,383.3000000715256,178884.39999997616,7232,WL,C,9.0
1,20.625999927520752,learn,39374.00007247925,Wed Nov 12 2025 15:05:27 GMT-0600 (Central Standard Time),179467.70000004768,A,do,O,o,186,1,583.3000000715256,178884.39999997616,7232,WL,C,9.0
1,20.72599983215332,learn,39274.00016784668,Wed Nov 12 2025 15:05:27 GMT-0600 (Central Standard Time),179567.30000007153,A,doc,O,c,82,1,682.9000000953674,178884.39999997616,7232,WL,C,9.0
1,20.90999984741211,learn,39090.00015258789,Wed Nov 12 2025 15:05:27 GMT-0600 (Central Standard Time),179751.30000007153,A,doct,O,t,166,1,866.9000000953674,178884.39999997616,7232,WL,C,9.0
1,21.210000038146973,learn,38789.99996185303,Wed Nov 12 2025 15:05:27 GMT-0600 (Central Standard Time),180051.60000002384,A,docto,O,o,286,1,1167.2000000476837,178884.39999997616,7232,WL,C,9.0
1,21.508999824523926,learn,38491.000175476074,Wed Nov 12 2025 15:05:27 GMT-0600 (Central Standard Time),180350.5,A,doctor,O,r,282,1,1466.1000000238419,178884.39999997616,7232,WL,C,9.0
1,22.125999927520752,learn,37874.00007247925,Wed Nov 12 2025 15:05:27 GMT-0600 (Central Standard Time),180967.0,A,doctorenter,O,enter,599,1,2082.600000023842,178884.39999997616,7232,WL,C,9.0
1,24.057999849319458,learn,35942.00015068054,Wed Nov 12 2025 15:05:27 GMT-0600 (Central Standard Time),182899.70000004768,A,s,O,s,1917,1,1932.3999999761581,180967.30000007153,7232,WL,C,10.0
1,24.60800004005432,learn,35391.99995994568,Wed Nov 12 2025 15:05:27 GMT-0600 (Central Standard Time),183449.39999997616,A,su,O,u,546,1,2482.0999999046326,180967.30000007153,7232,WL,C,10.0
1,24.875,learn,35125.0,Wed Nov 12 2025 15:05:27 GMT-0600 (Central Standard Time),183716.20000004768,A,sug,O,g,252,1,2748.899999976158,180967.30000007153,7232,WL,C,10.0
1,24.990999937057495,learn,35009.000062942505,Wed Nov 12 2025 15:05:27 GMT-0600 (Central Standard Time),183832.80000007153,A,suga,O,a,106,1,2865.5,180967.30000007153,7232,WL,C,10.0
1,25.240999937057495,learn,34759.000062942505,Wed Nov 12 2025 15:05:27 GMT-0600 (Central Standard Time),184082.60000002384,A,sugar,O,r,236,1,3115.2999999523163,180967.30000007153,7232,WL,C,10.0
1,26.756999969482422,learn,33243.00003051758,Wed Nov 12 2025 15:05:27 GMT-0600 (Central Standard Time),185598.5,A,sugarenter,O,enter,1507,1,4631.199999928474,180967.30000007153,7232,WL,C,10.0
1,31.68999981880188,learn,28310.00018119812,Wed Nov 12 2025 15:05:27 GMT-0600 (Central Standard Time),190531.30000007153,A,f,O,f,4913,1,4932.5,185598.80000007153,7232,WL,C,11.0
1,31.93999981880188,learn,28060.00018119812,Wed Nov 12 2025 15:05:27 GMT-0600 (Central Standard Time),190781.20000004768,A,fl,O,l,241,1,5182.399999976158,185598.80000007153,7232,WL,C,11.0
1,32.03999996185303,learn,27960.000038146973,Wed Nov 12 2025 15:05:27 GMT-0600 (Central Standard Time),190881.0,A,fla,O,a,88,1,5282.199999928474,185598.80000007153,7232,WL,C,11.0
1,32.25699996948242,learn,27743.000030517578,Wed Nov 12 2025 15:05:27 GMT-0600 (Central Standard Time),191098.5,A,flag,O,g,197,1,5499.699999928474,185598.80000007153,7232,WL,C,11.0
1,32.605000019073486,learn,27394.999980926514,Wed Nov 12 2025 15:05:27 GMT-0600 (Central Standard Time),191446.80000007153,A,flagenter,O,enter,337,1,5848.0,185598.80000007153,7232,WL,C,11.0
1,42.973000049591064,learn,17026.999950408936,Wed Nov 12 2025 15:05:27 GMT-0600 (Central Standard Time),201814.39999997616,A,s,O,s,10351,1,10367.399999976158,191447.0,7232,WL,C,12.0
1,43.168999910354614,learn,16831.000089645386,Wed Nov 12 2025 15:05:27 GMT-0600 (Central Standard Time),202010.89999997616,A,sh,O,h,183,1,10563.899999976158,191447.0,7232,WL,C,12.0
1,43.36899995803833,learn,16631.00004196167,Wed Nov 12 2025 15:05:27 GMT-0600 (Central Standard Time),202210.80000007153,A,sho,O,o,192,1,10763.800000071526,191447.0,7232,WL,C,12.0
1,43.55200004577637,learn,16447.999954223633,Wed Nov 12 2025 15:05:27 GMT-0600 (Central Standard Time),202393.80000007153,A,shor,O,r,171,1,10946.800000071526,191447.0,7232,WL,C,12.0
1,43.78600001335144,learn,16213.99998664856,Wed Nov 12 2025 15:05:27 GMT-0600 (Central Standard Time),202627.60000002384,A,shore,O,e,220,1,11180.600000023842,191447.0,7232,WL,C,12.0
1,44.317999839782715,learn,15682.000160217285,Wed Nov 12 2025 15:05:27 GMT-0600 (Central Standard Time),203159.70000004768,A,shoreenter,O,enter,514,1,11712.700000047684,191447.0,7232,WL,C,12.0
1,53.514999866485596,learn,6485.000133514404,Wed Nov 12 2025 15:05:27 GMT-0600 (Central Standard Time),212356.5,A,enter,O,enter,9189,1,9196.600000023842,203159.89999997616,7232,WL,C,13.0
1,53.91599988937378,learn,6084.000110626221,Wed Nov 12 2025 15:05:27 GMT-0600 (Central Standard Time),212757.30000007153,A,enter,O,enter,385,1,400.5,212356.80000007153,7232,WL,C,14.0
1,54.98199987411499,learn,5018.00012588501,Wed Nov 12 2025 15:05:27 GMT-0600 (Central Standard Time),213823.70000004768,A,enter,O,enter,1049,1,1066.2000000476837,212757.5,7232,WL,C,15.0
2,0.7829999923706055,learn,59217.000007629395,Wed Nov 12 2025 15:05:27 GMT-0600 (Central Standard Time),285250.8000000715,A,c,O,c,767,1,782.5,284468.3000000715,7232,WL,C,1.0
2,0.9660000801086426,learn,59033.99991989136,Wed Nov 12 2025 15:05:27 GMT-0600 (Central Standard Time),285433.60000002384,A,ca,O,a,179,1,965.2999999523163,284468.3000000715,7232,WL,C,1.0
2,1.0999999046325684,learn,58900.00009536743,Wed Nov 12 2025 15:05:27 GMT-0600 (Central Standard Time),285568.10000002384,A,cam,O,m,124,1,1099.7999999523163,284468.3000000715,7232,WL,C,1.0
2,1.4649999141693115,learn,58535.00008583069,Wed Nov 12 2025 15:05:27 GMT-0600 (Central Standard Time),285933.3000000715,A,camp,O,p,350,1,1465.0,284468.3000000715,7232,WL,C,1.0
2,1.9159998893737793,learn,58084.00011062622,Wed Nov 12 2025 15:05:27 GMT-0600 (Central Standard Time),286384.0,A,campenter,O,enter,433,1,1915.6999999284744,284468.3000000715,7232,WL,C,1.0
2,2.5169999599456787,learn,57483.00004005432,Wed Nov 12 2025 15:05:27 GMT-0600 (Central Standard Time),286984.5,A,l,O,l,588,1,600.2999999523163,286384.2000000477,7232,WL,C,2.0
2,2.615999937057495,learn,57384.000062942505,Wed Nov 12 2025 15:05:27 GMT-0600 (Central Standard Time),287083.7000000477,A,le,O,e,85,1,699.5,286384.2000000477,7232,WL,C,2.0
2,2.7990000247955322,learn,57200.99997520447,Wed Nov 12 2025 15:05:27 GMT-0600 (Central Standard Time),287266.8000000715,A,let,O,t,180,1,882.6000000238419,286384.2000000477,7232,WL,C,2.0
2,2.9149999618530273,learn,57085.00003814697,Wed Nov 12 2025 15:05:27 GMT-0600 (Central Standard Time),287382.8000000715,A,lett,O,t,107,1,998.6000000238419,286384.2000000477,7232,WL,C,2.0
2,2.997999906539917,learn,57002.00009346008,Wed Nov 12 2025 15:05:27 GMT-0600 (Central Standard Time),287466.3000000715,A,lette,O,e,80,1,1082.1000000238419,286384.2000000477,7232,WL,C,2.0
2,3.1489999294281006,learn,56851.0000705719,Wed Nov 12 2025 15:05:27 GMT-0600 (Central Standard Time),287616.7000000477,A,letter,O,r,140,1,1232.5,286384.2000000477,7232,WL,C,2.0
2,4.0320000648498535,learn,55967.99993515015,Wed Nov 12 2025 15:05:27 GMT-0600 (Central Standard Time),288500.0,A,letterenter,O,enter,877,1,2115.7999999523163,286384.2000000477,7232,WL,C,2.0
2,4.5980000495910645,learn,55401.999950408936,Wed Nov 12 2025 15:05:27 GMT-0600 (Central Standard Time),289066.3000000715,A,c,O,c,563,1,566.1000000238419,288500.2000000477,7232,WL,C,3.0
2,4.881999969482422,learn,55118.00003051758,Wed Nov 12 2025 15:05:27 GMT-0600 (Central Standard Time),289349.5,A,co,O,o,276,1,849.2999999523163,288500.2000000477,7232,WL,C,3.0
2,5.015000104904175,learn,54984.999895095825,Wed Nov 12 2025 15:05:27 GMT-0600 (Central Standard Time),289483.10000002384,A,cor,O,r,130,1,982.8999999761581,288500.2000000477,7232,WL,C,3.0
2,5.247999906539917,learn,54752.00009346008,Wed Nov 12 2025 15:05:27 GMT-0600 (Central Standard Time),289715.89999997616,A,corn,O,n,219,1,1215.6999999284744,288500.2000000477,7232,WL,C,3.0
2,5.664999961853027,learn,54335.00003814697,Wed Nov 12 2025 15:05:27 GMT-0600 (Central Standard Time),290133.10000002384,A,cornenter,O,enter,401,1,1632.8999999761581,288500.2000000477,7232,WL,C,3.0
2,6.647000074386597,learn,53352.9999256134,Wed Nov 12 2025 15:05:27 GMT-0600 (Central Standard Time),291115.3000000715,A,b,O,b,968,1,982.0,290133.3000000715,7232,WL,C,4.0
2,6.8480000495910645,learn,53151.999950408936,Wed Nov 12 2025 15:05:27 GMT-0600 (Central Standard Time),291315.8000000715,A,bo,O,o,194,1,1182.5,290133.3000000715,7232,WL,C,4.0
2,7.04800009727478,learn,52951.99990272522,Wed Nov 12 2025 15:05:27 GMT-0600 (Central Standard Time),291515.7000000477,A,bod,O,d,194,1,1382.3999999761581,290133.3000000715,7232,WL,C,4.0
2,7.246999979019165,learn,52753.000020980835,Wed Nov 12 2025 15:05:27 GMT-0600 (Central Standard Time),291715.10000002384,A,body,O,y,186,1,1581.7999999523163,290133.3000000715,7232,WL,C,4.0
2,7.763999938964844,learn,52236.000061035156,Wed Nov 12 2025 15:05:27 GMT-0600 (Central Standard Time),292231.60000002384,A,bodyenter,O,enter,498,1,2098.2999999523163,290133.3000000715,7232,WL,C,4.0
2,8.614000082015991,learn,51385.99991798401,Wed Nov 12 2025 15:05:27 GMT-0600 (Central Standard Time),293081.5,A,t,O,t,829,1,849.7999999523163,292231.7000000477,7232,WL,C,5.0
2,8.79699993133545,learn,51203.00006866455,Wed Nov 12 2025 15:05:27 GMT-0600 (Central Standard Time),293265.10000002384,A,to,O,o,173,1,1033.3999999761581,292231.7000000477,7232,WL,C,5.0
2,8.946000099182129,learn,51053.99990081787,Wed Nov 12 2025 15:05:27 GMT-0600 (Central Standard Time),293414.2000000477,A,tow,O,w,133,1,1182.5,292231.7000000477,7232,WL,C,5.0
2,9.097000122070312,learn,50902.99987792969,Wed Nov 12 2025 15:05:27 GMT-0600 (Central Standard Time),293564.8000000715,A,towe,O,e,144,1,1333.1000000238419,292231.7000000477,7232,WL,C,5.0
2,9.29699993133545,learn,50703.00006866455,Wed Nov 12 2025 15:05:27 GMT-0600 (Central Standard Time),293764.7000000477,A,tower,O,r,193,1,1533.0,292231.7000000477,7232,WL,C,5.0
2,9.630000114440918,learn,50369.99988555908,Wed Nov 12 2025 15:05:27 GMT-0600 (Central Standard Time),294098.0,A,towerenter,O,enter,330,1,1866.2999999523163,292231.7000000477,7232,WL,C,5.0
2,12.546000003814697,learn,47453.9999961853,Wed Nov 12 2025 15:05:27 GMT-0600 (Central Standard Time),297014.60000002384,A,w,O,w,2900,1,2916.399999976158,294098.2000000477,7232,WL,C,6.0
2,13.062000036239624,learn,46937.999963760376,Wed Nov 12 2025 15:05:27 GMT-0600 (Central Standard Time),297529.89999997616,A,wh,O,h,495,1,3431.6999999284744,294098.2000000477,7232,WL,C,6.0
2,13.213000059127808,learn,46786.99994087219,Wed Nov 12 2025 15:05:27 GMT-0600 (Central Standard Time),297680.7000000477,A,whe,O,e,132,1,3582.5,294098.2000000477,7232,WL,C,6.0
2,13.380000114440918,learn,46619.99988555908,Wed Nov 12 2025 15:05:27 GMT-0600 (Central Standard Time),297847.8000000715,A,whea,O,a,149,1,3749.600000023842,294098.2000000477,7232,WL,C,6.0
2,13.51200008392334,learn,46487.99991607666,Wed Nov 12 2025 15:05:27 GMT-0600 (Central Standard Time),297980.10000002384,A,wheat,O,t,125,1,3881.899999976158,294098.2000000477,7232,WL,C,6.0
2,14.07800006866455,learn,45921.99993133545,Wed Nov 12 2025 15:05:27 GMT-0600 (Central Standard Time),298546.10000002384,A,wheatenter,O,enter,562,1,4447.899999976158,294098.2000000477,7232,WL,C,6.0
2,15.16100001335144,learn,44838.99998664856,Wed Nov 12 2025 15:05:27 GMT-0600 (Central Standard Time),299629.10000002384,A,q,O,q,1068,1,1082.7999999523163,298546.3000000715,7232,WL,C,7.0
2,15.32699990272522,learn,44673.00009727478,Wed Nov 12 2025 15:05:27 GMT-0600 (Central Standard Time),299795.0,A,qu,O,u,161,1,1248.6999999284744,298546.3000000715,7232,WL,C,7.0
2,15.41100001335144,learn,44588.99998664856,Wed Nov 12 2025 15:05:27 GMT-0600 (Central Standard Time),299879.10000002384,A,que,O,e,75,1,1332.7999999523163,298546.3000000715,7232,WL,C,7.0
2,15.545000076293945,learn,44454.999923706055,Wed Nov 12 2025 15:05:27 GMT-0600 (Central Standard Time),300012.89999997616,A,quee,O,e,126,1,1466.5999999046326,298546.3000000715,7232,WL,C,7.0
2,15.727999925613403,learn,44272.0000743866,Wed Nov 12 2025 15:05:27 GMT-0600 (Central Standard Time),300196.10000002384,A,queen,O,n,177,1,1649.7999999523163,298546.3000000715,7232,WL,C,7.0
2,16.061000108718872,learn,43938.99989128113,Wed Nov 12 2025 15:05:27 GMT-0600 (Central Standard Time),300528.7000000477,A,queenenter,O,enter,314,1,1982.3999999761581,298546.3000000715,7232,WL,C,7.0
2,18.127000093460083,learn,41872.99990653992,Wed Nov 12 2025 15:05:27 GMT-0600 (Central Standard Time),302594.8000000715,A,s,O,s,2062,1,2065.9000000953674,300528.89999997616,7232,WL,C,8.0
2,18.276999950408936,learn,41723.000049591064,Wed Nov 12 2025 15:05:27 GMT-0600 (Central Standard Time),302745.3000000715,A,sh,O,h,130,1,2216.4000000953674,300528.89999997616,7232,WL,C,8.0
2,18.444000005722046,learn,41555.999994277954,Wed Nov 12 2025 15:05:27 GMT-0600 (Central Standard Time),302911.8000000715,A,sho,O,o,157,1,2382.9000000953674,300528.89999997616,7232,WL,C,8.0
2,18.542999982833862,learn,41457.00001716614,Wed Nov 12 2025 15:05:27 GMT-0600 (Central Standard Time),303011.60000002384,A,shor,O,r,86,1,2482.7000000476837,300528.89999997616,7232,WL,C,8.0
2,18.710000038146973,learn,41289.99996185303,Wed Nov 12 2025 15:05:27 GMT-0600 (Central Standard Time),303177.8000000715,A,shore,O,e,162,1,2648.9000000953674,300528.89999997616,7232,WL,C,8.0
2,19.30999994277954,learn,40690.00005722046,Wed Nov 12 2025 15:05:27 GMT-0600 (Central Standard Time),303778.0,A,shoreenter,O,enter,588,1,3249.100000023842,300528.89999997616,7232,WL,C,8.0
2,19.677000045776367,learn,40322.99995422363,Wed Nov 12 2025 15:05:27 GMT-0600 (Central Standard Time),304144.7000000477,A,f,O,f,354,1,366.39999997615814,303778.3000000715,7232,WL,C,9.0
2,19.877000093460083,learn,40122.99990653992,Wed Nov 12 2025 15:05:27 GMT-0600 (Central Standard Time),304345.10000002384,A,fl,O,l,181,1,566.7999999523163,303778.3000000715,7232,WL,C,9.0
2,19.99399995803833,learn,40006.00004196167,Wed Nov 12 2025 15:05:27 GMT-0600 (Central Standard Time),304462.3000000715,A,fla,O,a,101,1,684.0,303778.3000000715,7232,WL,C,9.0
2,20.177000045776367,learn,39822.99995422363,Wed Nov 12 2025 15:05:27 GMT-0600 (Central Standard Time),304644.8000000715,A,flag,O,g,175,1,866.5,303778.3000000715,7232,WL,C,9.0
2,20.509000062942505,learn,39490.999937057495,Wed Nov 12 2025 15:05:27 GMT-0600 (Central Standard Time),304977.5,A,flagenter,O,enter,328,1,1199.1999999284744,303778.3000000715,7232,WL,C,9.0
2,21.193000078201294,learn,38806.999921798706,Wed Nov 12 2025 15:05:27 GMT-0600 (Central Standard Time),305660.8000000715,A,b,O,b,676,1,683.1000000238419,304977.7000000477,7232,WL,C,10.0
2,21.542999982833862,learn,38457.00001716614,Wed Nov 12 2025 15:05:27 GMT-0600 (Central Standard Time),306010.7000000477,A,bo,O,o,345,1,1033.0,304977.7000000477,7232,WL,C,10.0
2,21.79200005531311,learn,38207.99994468689,Wed Nov 12 2025 15:05:27 GMT-0600 (Central Standard Time),306260.5,A,boy,O,y,232,1,1282.7999999523163,304977.7000000477,7232,WL,C,10.0
2,22.158999919891357,learn,37841.00008010864,Wed Nov 12 2025 15:05:27 GMT-0600 (Central Standard Time),306627.10000002384,A,boyenter,O,enter,353,1,1649.3999999761581,304977.7000000477,7232,WL,C,10.0
2,22.759000062942505,learn,37240.999937057495,Wed Nov 12 2025 15:05:27 GMT-0600 (Central Standard Time),307227.0,A,d,O,d,585,1,599.6000000238419,306627.39999997616,7232,WL,C,11.0
2,22.95799994468689,learn,37042.00005531311,Wed Nov 12 2025 15:05:27 GMT-0600 (Central Standard Time),307426.60000002384,A,do,O,o,195,1,799.2000000476837,306627.39999997616,7232,WL,C,11.0
2,23.026000022888184,learn,36973.99997711182,Wed Nov 12 2025 15:05:27 GMT-0600 (Central Standard Time),307493.7000000477,A,doc,O,c,59,1,866.3000000715256,306627.39999997616,7232,WL,C,11.0
2,23.22499990463257,learn,36775.00009536743,Wed Nov 12 2025 15:05:27 GMT-0600 (Central Standard Time),307693.39999997616,A,doct,O,t,183,1,1066.0,306627.39999997616,7232,WL,C,11.0
2,23.441999912261963,learn,36558.00008773804,Wed Nov 12 2025 15:05:27 GMT-0600 (Central Standard Time),307910.60000002384,A,docto,O,o,209,1,1283.2000000476837,306627.39999997616,7232,WL,C,11.0
2,23.625999927520752,learn,36374.00007247925,Wed Nov 12 2025 15:05:27 GMT-0600 (Central Standard Time),308093.8000000715,A,doctor,O,r,167,1,1466.4000000953674,306627.39999997616,7232,WL,C,11.0
2,24.04200005531311,learn,35957.99994468689,Wed Nov 12 2025 15:05:27 GMT-0600 (Central Standard Time),308509.8000000715,A,doctorenter,O,enter,400,1,1882.4000000953674,306627.39999997616,7232,WL,C,11.0
2,27.5239999294281,learn,32476.0000705719,Wed Nov 12 2025 15:05:27 GMT-0600 (Central Standard Time),311992.3000000715,A,f,O,f,3472,1,3482.4000000953674,308509.89999997616,7232,WL,C,12.0
2,27.723000049591064,learn,32276.999950408936,Wed Nov 12 2025 15:05:27 GMT-0600 (Central Standard Time),312191.39999997616,A,fl,O,l,190,1,3681.5,308509.89999997616,7232,WL,C,12.0
2,27.806999921798706,learn,32193.000078201294,Wed Nov 12 2025 15:05:27 GMT-0600 (Central Standard Time),312274.8000000715,A,fla,O,a,70,1,3764.9000000953674,308509.89999997616,7232,WL,C,12.0
2,27.990999937057495,learn,32009.000062942505,Wed Nov 12 2025 15:05:27 GMT-0600 (Central Standard Time),312458.89999997616,A,flag,O,g,171,1,3949.0,308509.89999997616,7232,WL,C,12.0
2,28.341000080108643,learn,31658.999919891357,Wed Nov 12 2025 15:05:27 GMT-0600 (Central Standard Time),312808.7000000477,A,flagenter,O,enter,331,1,4298.800000071526,308509.89999997616,7232,WL,C,12.0
2,32.00500011444092,learn,27994.999885559082,Wed Nov 12 2025 15:05:27 GMT-0600 (Central Standard Time),316473.39999997616,A,c,O,c,3660,1,3664.5,312808.89999997616,7232,WL,C,13.0
2,32.223000049591064,learn,27776.999950408936,Wed Nov 12 2025 15:05:27 GMT-0600 (Central Standard Time),316690.7000000477,A,ca,O,a,214,1,3881.8000000715256,312808.89999997616,7232,WL,C,13.0
2,32.35599994659424,learn,27644.00005340576,Wed Nov 12 2025 15:05:27 GMT-0600 (Central Standard Time),316823.60000002384,A,cat,O,t,123,1,4014.7000000476837,312808.89999997616,7232,WL,C,13.0
2,32.454999923706055,learn,27545.000076293945,Wed Nov 12 2025 15:05:27 GMT-0600 (Central Standard Time),316923.3000000715,A,catt,O,t,94,1,4114.400000095367,312808.89999997616,7232,WL,C,13.0
2,32.805999994277954,learn,27194.000005722046,Wed Nov 12 2025 15:05:27 GMT-0600 (Central Standard Time),317273.89999997616,A,cattl,O,l,338,1,4465.0,312808.89999997616,7232,WL,C,13.0
2,32.956000089645386,learn,27043.999910354614,Wed Nov 12 2025 15:05:27 GMT-0600 (Central Standard Time),317423.89999997616,A,cattle,O,e,132,1,4615.0,312808.89999997616,7232,WL,C,13.0
2,33.204999923706055,learn,26795.000076293945,Wed Nov 12 2025 15:05:27 GMT-0600 (Central Standard Time),317673.10000002384,A,cattleenter,O,enter,230,1,4864.200000047684,312808.89999997616,7232,WL,C,13.0
2,33.75600004196167,learn,26243.99995803833,Wed Nov 12 2025 15:05:27 GMT-0600 (Central Standard Time),318223.8000000715,A,d,O,d,539,1,550.5,317673.3000000715,7232,WL,C,14.0
2,34.00600004196167,learn,25993.99995803833,Wed Nov 12 2025 15:05:27 GMT-0600 (Central Standard Time),318474.39999997616,A,do,O,o,246,1,801.0999999046326,317673.3000000715,7232,WL,C,14.0
2,34.105000019073486,learn,25894.999980926514,Wed Nov 12 2025 15:05:27 GMT-0600 (Central Standard Time),318573.60000002384,A,doc,O,c,91,1,900.2999999523163,317673.3000000715,7232,WL,C,14.0
2,34.289000034332275,learn,25710.999965667725,Wed Nov 12 2025 15:05:27 GMT-0600 (Central Standard Time),318756.8000000715,A,doct,O,t,163,1,1083.5,317673.3000000715,7232,WL,C,14.0
2,34.638999938964844,learn,25361.000061035156,Wed Nov 12 2025 15:05:27 GMT-0600 (Central Standard Time),319106.89999997616,A,docto,O,o,337,1,1433.5999999046326,317673.3000000715,7232,WL,C,14.0
2,34.888999938964844,learn,25111.000061035156,Wed Nov 12 2025 15:05:27 GMT-0600 (Central Standard Time),319356.7000000477,A,doctor,O,r,235,1,1683.3999999761581,317673.3000000715,7232,WL,C,14.0
2,35.63800001144409,learn,24361.99998855591,Wed Nov 12 2025 15:05:27 GMT-0600 (Central Standard Time),320106.39999997616,A,doctorenter,O,enter,745,1,2433.0999999046326,317673.3000000715,7232,WL,C,14.0
2,44.8529999256134,learn,15147.000074386597,Wed Nov 12 2025 15:05:27 GMT-0600 (Central Standard Time),329321.10000002384,A,l,O,l,9195,1,9214.399999976158,320106.7000000477,7232,WL,C,15.0
2,44.95199990272522,learn,15048.00009727478,Wed Nov 12 2025 15:05:27 GMT-0600 (Central Standard Time),329419.89999997616,A,le,O,e,83,1,9313.199999928474,320106.7000000477,7232,WL,C,15.0
2,45.16799998283386,learn,14832.000017166138,Wed Nov 12 2025 15:05:27 GMT-0600 (Central Standard Time),329635.89999997616,A,let,O,t,207,1,9529.199999928474,320106.7000000477,7232,WL,C,15.0
2,45.28500008583069,learn,14714.999914169312,Wed Nov 12 2025 15:05:27 GMT-0600 (Central Standard Time),329753.2000000477,A,lett,O,t,114,1,9646.5,320106.7000000477,7232,WL,C,15.0
2,45.38499999046326,learn,14615.000009536743,Wed Nov 12 2025 15:05:27 GMT-0600 (Central Standard Time),329852.8000000715,A,lette,O,e,93,1,9746.100000023842,320106.7000000477,7232,WL,C,15.0
2,45.55200004577637,learn,14447.999954223633,Wed Nov 12 2025 15:05:27 GMT-0600 (Central Standard Time),330020.3000000715,A,letter,O,r,161,1,9913.600000023842,320106.7000000477,7232,WL,C,15.0
2,45.819000005722046,learn,14180.999994277954,Wed Nov 12 2025 15:05:27 GMT-0600 (Central Standard Time),330287.0,A,letterenter,O,enter,249,1,10180.299999952316,320106.7000000477,7232,WL,C,15.0
3,1.8660001754760742,learn,58133.999824523926,Wed Nov 12 2025 15:05:27 GMT-0600 (Central Standard Time),401463.5,A,w,O,w,1848,1,1865.6000000238419,399597.89999997616,7232,WL,C,1.0
3,2.249000072479248,learn,57750.99992752075,Wed Nov 12 2025 15:05:27 GMT-0600 (Central Standard Time),401846.89999997616,A,wh,O,h,366,1,2249.0,399597.89999997616,7232,WL,C,1.0
3,2.4660000801086426,learn,57533.99991989136,Wed Nov 12 2025 15:05:27 GMT-0600 (Central Standard Time),402063.10000002384,A,whe,O,e,206,1,2465.2000000476837,399597.89999997616,7232,WL,C,1.0
3,2.6660001277923584,learn,57333.99987220764,Wed Nov 12 2025 15:05:27 GMT-0600 (Central Standard Time),402263.7000000477,A,whea,O,a,190,1,2665.8000000715256,399597.89999997616,7232,WL,C,1.0
3,2.8329999446868896,learn,57167.00005531311,Wed Nov 12 2025 15:05:27 GMT-0600 (Central Standard Time),402430.5,A,wheat,O,t,158,1,2832.600000023842,399597.89999997616,7232,WL,C,1.0
3,3.4660000801086426,learn,56533.99991989136,Wed Nov 12 2025 15:05:27 GMT-0600 (Central Standard Time),403063.0,A,wheatenter,O,enter,615,1,3465.100000023842,399597.89999997616,7232,WL,C,1.0
3,3.7820000648498535,learn,56217.99993515015,Wed Nov 12 2025 15:05:27 GMT-0600 (Central Standard Time),403379.10000002384,A,c,O,c,303,1,315.89999997615814,403063.2000000477,7232,WL,C,2.0
3,3.999000072479248,learn,56000.99992752075,Wed Nov 12 2025 15:05:27 GMT-0600 (Central Standard Time),403596.2000000477,A,co,O,o,203,1,533.0,403063.2000000477,7232,WL,C,2.0
3,4.131999969482422,learn,55868.00003051758,Wed Nov 12 2025 15:05:27 GMT-0600 (Central Standard Time),403729.10000002384,A,cor,O,r,121,1,665.8999999761581,403063.2000000477,7232,WL,C,2.0
3,4.299000024795532,learn,55700.99997520447,Wed Nov 12 2025 15:05:27 GMT-0600 (Central Standard Time),403896.2000000477,A,corn,O,n,157,1,833.0,403063.2000000477,7232,WL,C,2.0
3,4.699000120162964,learn,55300.999879837036,Wed Nov 12 2025 15:05:27 GMT-0600 (Central Standard Time),404296.8000000715,A,cornenter,O,enter,390,1,1233.6000000238419,403063.2000000477,7232,WL,C,2.0
3,5.115000009536743,learn,54884.99999046326,Wed Nov 12 2025 15:05:27 GMT-0600 (Central Standard Time),404712.3000000715,A,s,O,s,397,1,415.40000009536743,404296.89999997616,7232,WL,C,3.0
3,5.266000032424927,learn,54733.99996757507,Wed Nov 12 2025 15:05:27 GMT-0600 (Central Standard Time),404863.3000000715,A,su,O,u,133,1,566.4000000953674,404296.89999997616,7232,WL,C,3.0
3,5.465000152587891,learn,54534.99984741211,Wed Nov 12 2025 15:05:27 GMT-0600 (Central Standard Time),405062.10000002384,A,sug,O,g,183,1,765.2000000476837,404296.89999997616,7232,WL,C,3.0
3,5.54800009727478,learn,54451.99990272522,Wed Nov 12 2025 15:05:27 GMT-0600 (Central Standard Time),405145.39999997616,A,suga,O,a,79,1,848.5,404296.89999997616,7232,WL,C,3.0
3,5.748000144958496,learn,54251.999855041504,Wed Nov 12 2025 15:05:27 GMT-0600 (Central Standard Time),405345.60000002384,A,sugar,O,r,188,1,1048.7000000476837,404296.89999997616,7232,WL,C,3.0
3,6.949000120162964,learn,53050.999879837036,Wed Nov 12 2025 15:05:27 GMT-0600 (Central Standard Time),406546.10000002384,A,sugarenter,O,enter,1185,1,2249.2000000476837,404296.89999997616,7232,WL,C,3.0
3,8.581000089645386,learn,51418.999910354614,Wed Nov 12 2025 15:05:27 GMT-0600 (Central Standard Time),408178.0,A,s,O,s,1620,1,1631.7999999523163,406546.2000000477,7232,WL,C,4.0
3,8.763999938964844,learn,51236.000061035156,Wed Nov 12 2025 15:05:27 GMT-0600 (Central Standard Time),408361.39999997616,A,sh,O,h,172,1,1815.1999999284744,406546.2000000477,7232,WL,C,4.0
3,8.96399998664856,learn,51036.00001335144,Wed Nov 12 2025 15:05:27 GMT-0600 (Central Standard Time),408561.2000000477,A,sho,O,o,180,1,2015.0,406546.2000000477,7232,WL,C,4.0
3,9.047000169754028,learn,50952.99983024597,Wed Nov 12 2025 15:05:27 GMT-0600 (Central Standard Time),408644.10000002384,A,shor,O,r,76,1,2097.899999976158,406546.2000000477,7232,WL,C,4.0
3,9.21399998664856,learn,50786.00001335144,Wed Nov 12 2025 15:05:27 GMT-0600 (Central Standard Time),408811.3000000715,A,shore,O,e,163,1,2265.100000023842,406546.2000000477,7232,WL,C,4.0
3,9.414000034332275,learn,50585.999965667725,Wed Nov 12 2025 15:05:27 GMT-0600 (Central Standard Time),409011.60000002384,A,shoreenter,O,enter,195,1,2465.399999976158,406546.2000000477,7232,WL,C,4.0
3,9.914000034332275,learn,50085.999965667725,Wed Nov 12 2025 15:05:27 GMT-0600 (Central Standard Time),409511.3000000715,A,c,O,c,481,1,499.5,409011.8000000715,7232,WL,C,5.0
3,10.097000122070312,learn,49902.99987792969,Wed Nov 12 2025 15:05:27 GMT-0600 (Central Standard Time),409694.0,A,ca,O,a,166,1,682.1999999284744,409011.8000000715,7232,WL,C,5.0
3,10.213000059127808,learn,49786.99994087219,Wed Nov 12 2025 15:05:27 GMT-0600 (Central Standard Time),409810.60000002384,A,cam,O,m,112,1,798.7999999523163,409011.8000000715,7232,WL,C,5.0
3,10.44700002670288,learn,49552.99997329712,Wed Nov 12 2025 15:05:27 GMT-0600 (Central Standard Time),410044.3000000715,A,camp,O,p,227,1,1032.5,409011.8000000715,7232,WL,C,5.0
3,11.413000106811523,learn,48586.99989318848,Wed Nov 12 2025 15:05:27 GMT-0600 (Central Standard Time),411010.0,A,campenter,O,enter,961,1,1998.1999999284744,409011.8000000715,7232,WL,C,5.0
3,11.830000162124634,learn,48169.999837875366,Wed Nov 12 2025 15:05:27 GMT-0600 (Central Standard Time),411427.2000000477,A,h,O,h,405,1,417.0,411010.2000000477,7232,WL,C,6.0
3,12.546000003814697,learn,47453.9999961853,Wed Nov 12 2025 15:05:27 GMT-0600 (Central Standard Time),412143.5,A,ho,O,o,699,1,1133.2999999523163,411010.2000000477,7232,WL,C,6.0
3,12.796000003814697,learn,47203.9999961853,Wed Nov 12 2025 15:05:27 GMT-0600 (Central Standard Time),412393.5,A,hom,O,m,238,1,1383.2999999523163,411010.2000000477,7232,WL,C,6.0
3,12.913000106811523,learn,47086.99989318848,Wed Nov 12 2025 15:05:27 GMT-0600 (Central Standard Time),412510.3000000715,A,home,O,e,108,1,1500.1000000238419,411010.2000000477,7232,WL,C,6.0
3,13.213000059127808,learn,46786.99994087219,Wed Nov 12 2025 15:05:27 GMT-0600 (Central Standard Time),412810.2000000477,A,homeenter,O,enter,297,1,1800.0,411010.2000000477,7232,WL,C,6.0
3,13.828999996185303,learn,46171.0000038147,Wed Nov 12 2025 15:05:27 GMT-0600 (Central Standard Time),413426.39999997616,A,t,O,t,604,1,616.0,412810.39999997616,7232,WL,C,7.0
3,14.013000011444092,learn,45986.99998855591,Wed Nov 12 2025 15:05:27 GMT-0600 (Central Standard Time),413610.0,A,to,O,o,171,1,799.6000000238419,412810.39999997616,7232,WL,C,7.0
3,14.196000099182129,learn,45803.99990081787,Wed Nov 12 2025 15:05:27 GMT-0600 (Central Standard Time),413793.0,A,tow,O,w,162,1,982.6000000238419,412810.39999997616,7232,WL,C,7.0
3,14.361999988555908,learn,45638.00001144409,Wed Nov 12 2025 15:05:27 GMT-0600 (Central Standard Time),413959.0,A,towe,O,e,149,1,1148.6000000238419,412810.39999997616,7232,WL,C,7.0
3,14.532000064849854,learn,45467.99993515015,Wed Nov 12 2025 15:05:27 GMT-0600 (Central Standard Time),414129.0,A,tower,O,r,147,1,1318.6000000238419,412810.39999997616,7232,WL,C,7.0
3,14.82800006866455,learn,45171.99993133545,Wed Nov 12 2025 15:05:27 GMT-0600 (Central Standard Time),414425.7000000477,A,towerenter,O,enter,286,1,1615.3000000715256,412810.39999997616,7232,WL,C,7.0
3,16.161999940872192,learn,43838.00005912781,Wed Nov 12 2025 15:05:27 GMT-0600 (Central Standard Time),415759.60000002384,A,b,O,b,1316,1,1333.7000000476837,414425.89999997616,7232,WL,C,8.0
3,16.445000171661377,learn,43554.99982833862,Wed Nov 12 2025 15:05:27 GMT-0600 (Central Standard Time),416042.2000000477,A,bo,O,o,278,1,1616.3000000715256,414425.89999997616,7232,WL,C,8.0
3,16.76200008392334,learn,43237.99991607666,Wed Nov 12 2025 15:05:27 GMT-0600 (Central Standard Time),416359.3000000715,A,boy,O,y,308,1,1933.4000000953674,414425.89999997616,7232,WL,C,8.0
3,17.776999950408936,learn,42223.000049591064,Wed Nov 12 2025 15:05:27 GMT-0600 (Central Standard Time),417374.89999997616,A,boyenter,O,enter,998,1,2949.0,414425.89999997616,7232,WL,C,8.0
3,19.110000133514404,learn,40889.999866485596,Wed Nov 12 2025 15:05:27 GMT-0600 (Central Standard Time),418708.0,A,q,O,q,1318,1,1332.7999999523163,417375.2000000477,7232,WL,C,9.0
3,19.294000148773193,learn,40705.99985122681,Wed Nov 12 2025 15:05:27 GMT-0600 (Central Standard Time),418891.39999997616,A,qu,O,u,170,1,1516.1999999284744,417375.2000000477,7232,WL,C,9.0
3,19.444000005722046,learn,40555.999994277954,Wed Nov 12 2025 15:05:27 GMT-0600 (Central Standard Time),419041.8000000715,A,que,O,e,130,1,1666.6000000238419,417375.2000000477,7232,WL,C,9.0
3,19.55999994277954,learn,40440.00005722046,Wed Nov 12 2025 15:05:27 GMT-0600 (Central Standard Time),419158.10000002384,A,quee,O,e,109,1,1782.8999999761581,417375.2000000477,7232,WL,C,9.0
3,19.792999982833862,learn,40207.00001716614,Wed Nov 12 2025 15:05:27 GMT-0600 (Central Standard Time),419391.0,A,queen,O,n,215,1,2015.7999999523163,417375.2000000477,7232,WL,C,9.0
3,21.075999975204468,learn,38924.00002479553,Wed Nov 12 2025 15:05:27 GMT-0600 (Central Standard Time),420673.8000000715,A,queenenter,O,enter,1269,1,3298.600000023842,417375.2000000477,7232,WL,C,9.0
3,21.759999990463257,learn,38240.00000953674,Wed Nov 12 2025 15:05:27 GMT-0600 (Central Standard Time),421357.3000000715,A,n,O,n,668,1,683.3000000715256,420674.0,7232,WL,C,10.0
3,21.858999967575073,learn,38141.00003242493,Wed Nov 12 2025 15:05:27 GMT-0600 (Central Standard Time),421456.7000000477,A,na,O,a,80,1,782.7000000476837,420674.0,7232,WL,C,10.0
3,22.026000022888184,learn,37973.99997711182,Wed Nov 12 2025 15:05:27 GMT-0600 (Central Standard Time),421623.8000000715,A,nai,O,i,156,1,949.8000000715256,420674.0,7232,WL,C,10.0
3,22.259999990463257,learn,37740.00000953674,Wed Nov 12 2025 15:05:27 GMT-0600 (Central Standard Time),421857.2000000477,A,nail,O,l,229,1,1183.2000000476837,420674.0,7232,WL,C,10.0
3,22.693000078201294,learn,37306.999921798706,Wed Nov 12 2025 15:05:27 GMT-0600 (Central Standard Time),422290.39999997616,A,nailenter,O,enter,430,1,1616.3999999761581,420674.0,7232,WL,C,10.0
3,23.4760000705719,learn,36523.9999294281,Wed Nov 12 2025 15:05:27 GMT-0600 (Central Standard Time),423073.5,A,l,O,l,762,1,782.8999999761581,422290.60000002384,7232,WL,C,11.0
3,23.558000087738037,learn,36441.99991226196,Wed Nov 12 2025 15:05:27 GMT-0600 (Central Standard Time),423156.0,A,le,O,e,76,1,865.3999999761581,422290.60000002384,7232,WL,C,11.0
3,23.77500009536743,learn,36224.99990463257,Wed Nov 12 2025 15:05:27 GMT-0600 (Central Standard Time),423372.89999997616,A,let,O,t,202,1,1082.2999999523163,422290.60000002384,7232,WL,C,11.0
3,23.89199995994568,learn,36108.00004005432,Wed Nov 12 2025 15:05:27 GMT-0600 (Central Standard Time),423489.7000000477,A,lett,O,t,114,1,1199.1000000238419,422290.60000002384,7232,WL,C,11.0
3,23.975000143051147,learn,36024.99985694885,Wed Nov 12 2025 15:05:27 GMT-0600 (Central Standard Time),423573.0,A,lette,O,e,76,1,1282.3999999761581,422290.60000002384,7232,WL,C,11.0
3,24.12600016593933,learn,35873.99983406067,Wed Nov 12 2025 15:05:27 GMT-0600 (Central Standard Time),423723.60000002384,A,letter,O,r,145,1,1433.0,422290.60000002384,7232,WL,C,11.0
3,25.692000150680542,learn,34307.99984931946,Wed Nov 12 2025 15:05:27 GMT-0600 (Central Standard Time),425289.2000000477,A,letterenter,O,enter,1562,1,2998.600000023842,422290.60000002384,7232,WL,C,11.0
3,26.60700011253357,learn,33392.99988746643,Wed Nov 12 2025 15:05:27 GMT-0600 (Central Standard Time),426205.10000002384,A,f,O,f,909,1,915.6000000238419,425289.5,7232,WL,C,12.0
3,26.808000087738037,learn,33191.99991226196,Wed Nov 12 2025 15:05:27 GMT-0600 (Central Standard Time),426405.60000002384,A,fl,O,l,193,1,1116.1000000238419,425289.5,7232,WL,C,12.0
3,26.92799997329712,learn,33072.00002670288,Wed Nov 12 2025 15:05:27 GMT-0600 (Central Standard Time),426525.8000000715,A,fla,O,a,104,1,1236.3000000715256,425289.5,7232,WL,C,12.0
3,27.14199995994568,learn,32858.00004005432,Wed Nov 12 2025 15:05:27 GMT-0600 (Central Standard Time),426739.8000000715,A,flag,O,g,200,1,1450.3000000715256,425289.5,7232,WL,C,12.0
3,28.27400016784668,learn,31725.99983215332,Wed Nov 12 2025 15:05:27 GMT-0600 (Central Standard Time),427871.5,A,flagenter,O,enter,1114,1,2582.0,425289.5,7232,WL,C,12.0
3,29.006999969482422,learn,30993.000030517578,Wed Nov 12 2025 15:05:27 GMT-0600 (Central Standard Time),428605.10000002384,A,s,O,s,718,1,733.2000000476837,427871.89999997616,7232,WL,C,13.0
3,29.223999977111816,learn,30776.000022888184,Wed Nov 12 2025 15:05:27 GMT-0600 (Central Standard Time),428821.5,A,su,O,u,200,1,949.6000000238419,427871.89999997616,7232,WL,C,13.0
3,29.407000064849854,learn,30592.999935150146,Wed Nov 12 2025 15:05:27 GMT-0600 (Central Standard Time),429005.10000002384,A,sug,O,g,176,1,1133.2000000476837,427871.89999997616,7232,WL,C,13.0
3,29.924000024795532,learn,30075.999975204468,Wed Nov 12 2025 15:05:27 GMT-0600 (Central Standard Time),429521.3000000715,A,su,O,backspace,505,1,1649.4000000953674,427871.89999997616,7232,WL,C,13.0
3,30.057000160217285,learn,29942.999839782715,Wed Nov 12 2025 15:05:27 GMT-0600 (Central Standard Time),429654.8000000715,A,s,O,backspace,124,1,1782.9000000953674,427871.89999997616,7232,WL,C,13.0
3,30.174000024795532,learn,29825.999975204468,Wed Nov 12 2025 15:05:27 GMT-0600 (Central Standard Time),429771.7000000477,A,,O,backspace,110,1,1899.8000000715256,427871.89999997616,7232,WL,C,13.0
3,32.44000005722046,learn,27559.99994277954,Wed Nov 12 2025 15:05:27 GMT-0600 (Central Standard Time),432037.39999997616,A,b,O,b,2258,1,4165.5,427871.89999997616,7232,WL,C,13.0
3,32.74000000953674,learn,27259.999990463257,Wed Nov 12 2025 15:05:27 GMT-0600 (Central Standard Time),432337.2000000477,A,bo,O,o,286,1,4465.300000071526,427871.89999997616,7232,WL,C,13.0
3,33.00699996948242,learn,26993.000030517578,Wed Nov 12 2025 15:05:27 GMT-0600 (Central Standard Time),432604.89999997616,A,bod,O,d,253,1,4733.0,427871.89999997616,7232,WL,C,13.0
3,33.19000005722046,learn,26809.99994277954,Wed Nov 12 2025 15:05:27 GMT-0600 (Central Standard Time),432787.60000002384,A,body,O,y,176,1,4915.700000047684,427871.89999997616,7232,WL,C,13.0
3,33.605000019073486,learn,26394.999980926514,Wed Nov 12 2025 15:05:27 GMT-0600 (Central Standard Time),433202.8000000715,A,bodyenter,O,enter,410,1,5330.900000095367,427871.89999997616,7232,WL,C,13.0
3,41.587000131607056,learn,18412.999868392944,Wed Nov 12 2025 15:05:27 GMT-0600 (Central Standard Time),441184.8000000715,A,d,O,d,7971,1,7981.800000071526,433203.0,7232,WL,C,14.0
3,41.90400004386902,learn,18095.99995613098,Wed Nov 12 2025 15:05:27 GMT-0600 (Central Standard Time),441501.89999997616,A,do,O,o,301,1,8298.899999976158,433203.0,7232,WL,C,14.0
3,42.03600001335144,learn,17963.99998664856,Wed Nov 12 2025 15:05:27 GMT-0600 (Central Standard Time),441634.0,A,doc,O,c,128,1,8431.0,433203.0,7232,WL,C,14.0
3,42.236000061035156,learn,17763.999938964844,Wed Nov 12 2025 15:05:27 GMT-0600 (Central Standard Time),441833.7000000477,A,doct,O,t,188,1,8630.700000047684,433203.0,7232,WL,C,14.0
3,42.585999965667725,learn,17414.000034332275,Wed Nov 12 2025 15:05:27 GMT-0600 (Central Standard Time),442183.7000000477,A,doctp,O,p,340,1,8980.700000047684,433203.0,7232,WL,C,14.0
3,43.503000020980835,learn,16496.999979019165,Wed Nov 12 2025 15:05:27 GMT-0600 (Central Standard Time),443100.39999997616,A,doct,O,backspace,902,1,9897.399999976158,433203.0,7232,WL,C,14.0
3,45.26800012588501,learn,14731.99987411499,Wed Nov 12 2025 15:05:27 GMT-0600 (Central Standard Time),444866.0,A,docto,O,o,1762,1,11663.0,433203.0,7232,WL,C,14.0
3,45.38499999046326,learn,14615.000009536743,Wed Nov 12 2025 15:05:27 GMT-0600 (Central Standard Time),444982.7000000477,A,doctor,O,r,107,1,11779.700000047684,433203.0,7232,WL,C,14.0
3,45.585999965667725,learn,14414.000034332275,Wed Nov 12 2025 15:05:27 GMT-0600 (Central Standard Time),445183.60000002384,A,doctorenter,O,enter,191,1,11980.600000023842,433203.0,7232,WL,C,14.0
3,52.58299994468689,learn,7417.00005531311,Wed Nov 12 2025 15:05:27 GMT-0600 (Central Standard Time),452180.60000002384,A,n,O,n,6982,1,6996.799999952316,445183.8000000715,7232,WL,C,15.0
3,52.68300008773804,learn,7316.999912261963,Wed Nov 12 2025 15:05:27 GMT-0600 (Central Standard Time),452280.8000000715,A,na,O,a,89,1,7097.0,445183.8000000715,7232,WL,C,15.0
3,52.81700015068054,learn,7182.999849319458,Wed Nov 12 2025 15:05:27 GMT-0600 (Central Standard Time),452414.60000002384,A,nai,O,i,125,1,7230.799999952316,445183.8000000715,7232,WL,C,15.0
3,53.01600003242493,learn,6983.999967575073,Wed Nov 12 2025 15:05:27 GMT-0600 (Central Standard Time),452614.2000000477,A,nail,O,l,183,1,7430.399999976158,445183.8000000715,7232,WL,C,15.0
3,53.23300004005432,learn,6766.999959945679,Wed Nov 12 2025 15:05:27 GMT-0600 (Central Standard Time),452830.7000000477,A,nailenter,O,enter,207,1,7646.899999976158,445183.8000000715,7232,WL,C,15.0
4,0.8819999694824219,learn,59118.00003051758,Wed Nov 12 2025 15:05:27 GMT-0600 (Central Standard Time),520092.2000000477,A,b,O,b,874,1,882.3999999761581,519209.8000000715,7232,WL,C,1.0
4,1.3320000171661377,learn,58667.99998283386,Wed Nov 12 2025 15:05:27 GMT-0600 (Central Standard Time),520542.39999997616,A,bo,O,o,441,1,1332.5999999046326,519209.8000000715,7232,WL,C,1.0
4,1.6490001678466797,learn,58350.99983215332,Wed Nov 12 2025 15:05:27 GMT-0600 (Central Standard Time),520858.60000002384,A,bod,O,d,303,1,1648.7999999523163,519209.8000000715,7232,WL,C,1.0
4,1.9160001277923584,learn,58083.99987220764,Wed Nov 12 2025 15:05:27 GMT-0600 (Central Standard Time),521125.89999997616,A,body,O,y,259,1,1916.0999999046326,519209.8000000715,7232,WL,C,1.0
4,2.8320000171661377,learn,57167.99998283386,Wed Nov 12 2025 15:05:27 GMT-0600 (Central Standard Time),522042.10000002384,A,bodyenter,O,enter,896,1,2832.2999999523163,519209.8000000715,7232,WL,C,1.0
4,3.7320001125335693,learn,56267.99988746643,Wed Nov 12 2025 15:05:27 GMT-0600 (Central Standard Time),522941.7000000477,A,b,O,b,892,1,899.5,522042.2000000477,7232,WL,C,2.0
4,4.0320000648498535,learn,55967.99993515015,Wed Nov 12 2025 15:05:27 GMT-0600 (Central Standard Time),523241.5,A,bo,O,o,296,1,1199.2999999523163,522042.2000000477,7232,WL,C,2.0
4,4.332000017166138,learn,55667.99998283386,Wed Nov 12 2025 15:05:27 GMT-0600 (Central Standard Time),523542.10000002384,A,boy,O,y,284,1,1499.8999999761581,522042.2000000477,7232,WL,C,2.0
4,5.215000152587891,learn,54784.99984741211,Wed Nov 12 2025 15:05:27 GMT-0600 (Central Standard Time),524425.1000000238,A,boyenter,O,enter,863,1,2382.899999976158,522042.2000000477,7232,WL,C,2.0
4,5.748000144958496,learn,54251.999855041504,Wed Nov 12 2025 15:05:27 GMT-0600 (Central Standard Time),524958.5,A,q,O,q,524,1,533.1999999284744,524425.3000000715,7232,WL,C,3.0
4,5.930999994277954,learn,54069.000005722046,Wed Nov 12 2025 15:05:27 GMT-0600 (Central Standard Time),525141.3000000715,A,qu,O,u,175,1,716.0,524425.3000000715,7232,WL,C,3.0
4,6.164000034332275,learn,53835.999965667725,Wed Nov 12 2025 15:05:27 GMT-0600 (Central Standard Time),525374.0,A,que,O,e,225,1,948.6999999284744,524425.3000000715,7232,WL,C,3.0
4,6.314000129699707,learn,53685.99987030029,Wed Nov 12 2025 15:05:27 GMT-0600 (Central Standard Time),525524.5,A,quee,O,e,144,1,1099.1999999284744,524425.3000000715,7232,WL,C,3.0
4,6.46399998664856,learn,53536.00001335144,Wed Nov 12 2025 15:05:27 GMT-0600 (Central Standard Time),525674.5,A,queen,O,n,137,1,1249.1999999284744,524425.3000000715,7232,WL,C,3.0
4,6.999000072479248,learn,53000.99992752075,Wed Nov 12 2025 15:05:27 GMT-0600 (Central Standard Time),526208.6000000238,A,queenenter,O,enter,516,1,1783.2999999523163,524425.3000000715,7232,WL,C,3.0
4,8.047000169754028,learn,51952.99983024597,Wed Nov 12 2025 15:05:27 GMT-0600 (Central Standard Time),527257.0,A,d,O,d,1037,1,1048.2999999523163,526208.7000000477,7232,WL,C,4.0
4,8.180000066757202,learn,51819.9999332428,Wed Nov 12 2025 15:05:27 GMT-0600 (Central Standard Time),527389.7000000477,A,do,O,o,125,1,1181.0,526208.7000000477,7232,WL,C,4.0
4,8.314000129699707,learn,51685.99987030029,Wed Nov 12 2025 15:05:27 GMT-0600 (Central Standard Time),527524.2000000477,A,doc,O,c,120,1,1315.5,526208.7000000477,7232,WL,C,4.0
4,8.44700002670288,learn,51552.99997329712,Wed Nov 12 2025 15:05:27 GMT-0600 (Central Standard Time),527656.7000000477,A,doct,O,t,122,1,1448.0,526208.7000000477,7232,WL,C,4.0
4,8.713000059127808,learn,51286.99994087219,Wed Nov 12 2025 15:05:27 GMT-0600 (Central Standard Time),527923.3999999762,A,docto,O,o,261,1,1714.6999999284744,526208.7000000477,7232,WL,C,4.0
4,8.897000074386597,learn,51102.9999256134,Wed Nov 12 2025 15:05:27 GMT-0600 (Central Standard Time),528107.2000000477,A,doctor,O,r,170,1,1898.5,526208.7000000477,7232,WL,C,4.0
4,9.164000034332275,learn,50835.999965667725,Wed Nov 12 2025 15:05:27 GMT-0600 (Central Standard Time),528373.8000000715,A,doctorenter,O,enter,251,1,2165.100000023842,526208.7000000477,7232,WL,C,4.0
4,12.17900013923645,learn,47820.99986076355,Wed Nov 12 2025 15:05:27 GMT-0600 (Central Standard Time),531389.1000000238,A,c,O,c,3006,1,3015.0,528374.1000000238,7232,WL,C,5.0
4,12.380000114440918,learn,47619.99988555908,Wed Nov 12 2025 15:05:27 GMT-0600 (Central Standard Time),531589.5,A,ca,O,a,188,1,3215.399999976158,528374.1000000238,7232,WL,C,5.0
4,12.611999988555908,learn,47388.00001144409,Wed Nov 12 2025 15:05:27 GMT-0600 (Central Standard Time),531822.1000000238,A,cat,O,t,222,1,3448.0,528374.1000000238,7232,WL,C,5.0
4,12.745000123977661,learn,47254.99987602234,Wed Nov 12 2025 15:05:27 GMT-0600 (Central Standard Time),531955.0,A,catt,O,t,126,1,3580.899999976158,528374.1000000238,7232,WL,C,5.0
4,13.361999988555908,learn,46638.00001144409,Wed Nov 12 2025 15:05:27 GMT-0600 (Central Standard Time),532571.6000000238,A,cattl,O,l,603,1,4197.5,528374.1000000238,7232,WL,C,5.0
4,13.479000091552734,learn,46520.999908447266,Wed Nov 12 2025 15:05:27 GMT-0600 (Central Standard Time),532688.6000000238,A,cattle,O,e,106,1,4314.5,528374.1000000238,7232,WL,C,5.0
4,13.713000059127808,learn,46286.99994087219,Wed Nov 12 2025 15:05:27 GMT-0600 (Central Standard Time),532923.3000000715,A,cattleenter,O,enter,231,1,4549.200000047684,528374.1000000238,7232,WL,C,5.0
4,14.92799997329712,learn,45072.00002670288,Wed Nov 12 2025 15:05:27 GMT-0600 (Central Standard Time),534137.8000000715,A,h,O,h,1195,1,1214.3000000715256,532923.5,7232,WL,C,6.0
4,15.128000020980835,learn,44871.999979019165,Wed Nov 12 2025 15:05:27 GMT-0600 (Central Standard Time),534338.1000000238,A,ho,O,o,196,1,1414.6000000238419,532923.5,7232,WL,C,6.0
4,15.32800006866455,learn,44671.99993133545,Wed Nov 12 2025 15:05:27 GMT-0600 (Central Standard Time),534537.8000000715,A,hom,O,m,188,1,1614.3000000715256,532923.5,7232,WL,C,6.0
4,15.42799997329712,learn,44572.00002670288,Wed Nov 12 2025 15:05:27 GMT-0600 (Central Standard Time),534637.8999999762,A,home,O,e,84,1,1714.3999999761581,532923.5,7232,WL,C,6.0
4,15.694000005722046,learn,44305.999994277954,Wed Nov 12 2025 15:05:27 GMT-0600 (Central Standard Time),534904.3999999762,A,homeenter,O,enter,248,1,1980.8999999761581,532923.5,7232,WL,C,6.0
4,16.311000108718872,learn,43688.99989128113,Wed Nov 12 2025 15:05:27 GMT-0600 (Central Standard Time),535520.8000000715,A,t,O,t,604,1,616.2000000476837,534904.6000000238,7232,WL,C,7.0
4,16.67799997329712,learn,43322.00002670288,Wed Nov 12 2025 15:05:27 GMT-0600 (Central Standard Time),535888.3000000715,A,to,O,o,358,1,983.7000000476837,534904.6000000238,7232,WL,C,7.0
4,16.811000108718872,learn,43188.99989128113,Wed Nov 12 2025 15:05:27 GMT-0600 (Central Standard Time),536021.1000000238,A,tow,O,w,126,1,1116.5,534904.6000000238,7232,WL,C,7.0
4,16.978000164031982,learn,43021.99983596802,Wed Nov 12 2025 15:05:27 GMT-0600 (Central Standard Time),536187.7000000477,A,towe,O,e,153,1,1283.1000000238419,534904.6000000238,7232,WL,C,7.0
4,17.16100001335144,learn,42838.99998664856,Wed Nov 12 2025 15:05:27 GMT-0600 (Central Standard Time),536371.3999999762,A,tower,O,r,170,1,1466.7999999523163,534904.6000000238,7232,WL,C,7.0
4,17.478000164031982,learn,42521.99983596802,Wed Nov 12 2025 15:05:27 GMT-0600 (Central Standard Time),536688.3999999762,A,towerenter,O,enter,299,1,1783.7999999523163,534904.6000000238,7232,WL,C,7.0
4,19.292999982833862,learn,40707.00001716614,Wed Nov 12 2025 15:05:27 GMT-0600 (Central Standard Time),538503.5,A,s,O,s,1797,1,1814.7999999523163,536688.7000000477,7232,WL,C,8.0
4,19.427000045776367,learn,40572.99995422363,Wed Nov 12 2025 15:05:27 GMT-0600 (Central Standard Time),538636.8000000715,A,sh,O,h,118,1,1948.1000000238419,536688.7000000477,7232,WL,C,8.0
4,19.610000133514404,learn,40389.999866485596,Wed Nov 12 2025 15:05:27 GMT-0600 (Central Standard Time),538820.0,A,sho,O,o,169,1,2131.2999999523163,536688.7000000477,7232,WL,C,8.0
4,19.710000038146973,learn,40289.99996185303,Wed Nov 12 2025 15:05:27 GMT-0600 (Central Standard Time),538920.0,A,shor,O,r,82,1,2231.2999999523163,536688.7000000477,7232,WL,C,8.0
4,19.858999967575073,learn,40141.00003242493,Wed Nov 12 2025 15:05:27 GMT-0600 (Central Standard Time),539069.6000000238,A,shore,O,e,132,1,2380.899999976158,536688.7000000477,7232,WL,C,8.0
4,20.0770001411438,learn,39922.9998588562,Wed Nov 12 2025 15:05:27 GMT-0600 (Central Standard Time),539287.2000000477,A,shoreenter,O,enter,208,1,2598.5,536688.7000000477,7232,WL,C,8.0
4,20.493000030517578,learn,39506.99996948242,Wed Nov 12 2025 15:05:27 GMT-0600 (Central Standard Time),539703.1000000238,A,c,O,c,397,1,415.60000002384186,539287.5,7232,WL,C,9.0
4,20.66000008583069,learn,39339.99991416931,Wed Nov 12 2025 15:05:27 GMT-0600 (Central Standard Time),539870.1000000238,A,ca,O,a,159,1,582.6000000238419,539287.5,7232,WL,C,9.0
4,20.79200005531311,learn,39207.99994468689,Wed Nov 12 2025 15:05:27 GMT-0600 (Central Standard Time),540002.6000000238,A,cam,O,m,128,1,715.1000000238419,539287.5,7232,WL,C,9.0
4,21.042999982833862,learn,38957.00001716614,Wed Nov 12 2025 15:05:27 GMT-0600 (Central Standard Time),540253.3999999762,A,camp,O,p,235,1,965.8999999761581,539287.5,7232,WL,C,9.0
4,21.776000022888184,learn,38223.99997711182,Wed Nov 12 2025 15:05:27 GMT-0600 (Central Standard Time),540986.0,A,campenter,O,enter,712,1,1698.5,539287.5,7232,WL,C,9.0
4,22.975000143051147,learn,37024.99985694885,Wed Nov 12 2025 15:05:27 GMT-0600 (Central Standard Time),542185.3999999762,A,f,O,f,1180,1,1199.1999999284744,540986.2000000477,7232,WL,C,10.0
4,23.192000150680542,learn,36807.99984931946,Wed Nov 12 2025 15:05:27 GMT-0600 (Central Standard Time),542402.7000000477,A,fl,O,l,205,1,1416.5,540986.2000000477,7232,WL,C,10.0
4,23.308000087738037,learn,36691.99991226196,Wed Nov 12 2025 15:05:27 GMT-0600 (Central Standard Time),542518.8000000715,A,fla,O,a,99,1,1532.6000000238419,540986.2000000477,7232,WL,C,10.0
4,23.491000175476074,learn,36508.999824523926,Wed Nov 12 2025 15:05:27 GMT-0600 (Central Standard Time),542701.5,A,flag,O,g,176,1,1715.2999999523163,540986.2000000477,7232,WL,C,10.0
4,24.009000062942505,learn,35990.999937057495,Wed Nov 12 2025 15:05:27 GMT-0600 (Central Standard Time),543219.7000000477,A,flagenter,O,enter,513,1,2233.5,540986.2000000477,7232,WL,C,10.0
4,25.075000047683716,learn,34924.999952316284,Wed Nov 12 2025 15:05:27 GMT-0600 (Central Standard Time),544285.3999999762,A,n,O,n,1057,1,1065.3999999761581,543220.0,7232,WL,C,11.0
4,25.20800018310547,learn,34791.99981689453,Wed Nov 12 2025 15:05:27 GMT-0600 (Central Standard Time),544418.3000000715,A,na,O,a,129,1,1198.3000000715256,543220.0,7232,WL,C,11.0
4,25.342000007629395,learn,34657.999992370605,Wed Nov 12 2025 15:05:27 GMT-0600 (Central Standard Time),544551.8999999762,A,nai,O,i,116,1,1331.8999999761581,543220.0,7232,WL,C,11.0
4,25.54100012779236,learn,34458.99987220764,Wed Nov 12 2025 15:05:27 GMT-0600 (Central Standard Time),544751.2000000477,A,nail,O,l,191,1,1531.2000000476837,543220.0,7232,WL,C,11.0
4,25.85800004005432,learn,34141.99995994568,Wed Nov 12 2025 15:05:27 GMT-0600 (Central Standard Time),545068.2000000477,A,nailenter,O,enter,310,1,1848.2000000476837,543220.0,7232,WL,C,11.0
4,26.52400016784668,learn,33475.99983215332,Wed Nov 12 2025 15:05:27 GMT-0600 (Central Standard Time),545734.0,A,l,O,l,658,1,665.6999999284744,545068.3000000715,7232,WL,C,12.0
4,26.60700011253357,learn,33392.99988746643,Wed Nov 12 2025 15:05:27 GMT-0600 (Central Standard Time),545817.5,A,le,O,e,80,1,749.1999999284744,545068.3000000715,7232,WL,C,12.0
4,26.79100012779236,learn,33208.99987220764,Wed Nov 12 2025 15:05:27 GMT-0600 (Central Standard Time),546001.7000000477,A,let,O,t,165,1,933.3999999761581,545068.3000000715,7232,WL,C,12.0
4,26.907000064849854,learn,33092.99993515015,Wed Nov 12 2025 15:05:27 GMT-0600 (Central Standard Time),546117.7000000477,A,lett,O,t,101,1,1049.3999999761581,545068.3000000715,7232,WL,C,12.0
4,26.957000017166138,learn,33042.99998283386,Wed Nov 12 2025 15:05:27 GMT-0600 (Central Standard Time),546167.6000000238,A,lette,O,e,40,1,1099.2999999523163,545068.3000000715,7232,WL,C,12.0
4,27.123000144958496,learn,32876.999855041504,Wed Nov 12 2025 15:05:27 GMT-0600 (Central Standard Time),546333.5,A,letter,O,r,158,1,1265.1999999284744,545068.3000000715,7232,WL,C,12.0
4,27.373000144958496,learn,32626.999855041504,Wed Nov 12 2025 15:05:27 GMT-0600 (Central Standard Time),546583.6000000238,A,letterenter,O,enter,232,1,1515.2999999523163,545068.3000000715,7232,WL,C,12.0
4,27.94099998474121,learn,32059.00001525879,Wed Nov 12 2025 15:05:27 GMT-0600 (Central Standard Time),547151.0,A,w,O,w,550,1,567.1999999284744,546583.8000000715,7232,WL,C,13.0
4,28.106000185012817,learn,31893.999814987183,Wed Nov 12 2025 15:05:27 GMT-0600 (Central Standard Time),547316.8000000715,A,wh,O,h,160,1,733.0,546583.8000000715,7232,WL,C,13.0
4,28.207000017166138,learn,31792.999982833862,Wed Nov 12 2025 15:05:27 GMT-0600 (Central Standard Time),547417.3000000715,A,whe,O,e,97,1,833.5,546583.8000000715,7232,WL,C,13.0
4,28.374000072479248,learn,31625.999927520752,Wed Nov 12 2025 15:05:27 GMT-0600 (Central Standard Time),547584.6000000238,A,whea,O,a,149,1,1000.7999999523163,546583.8000000715,7232,WL,C,13.0
4,28.52400016784668,learn,31475.99983215332,Wed Nov 12 2025 15:05:27 GMT-0600 (Central Standard Time),547734.1000000238,A,wheat,O,t,133,1,1150.2999999523163,546583.8000000715,7232,WL,C,13.0
4,28.907000064849854,learn,31092.999935150146,Wed Nov 12 2025 15:05:27 GMT-0600 (Central Standard Time),548117.1000000238,A,wheatenter,O,enter,376,1,1533.2999999523163,546583.8000000715,7232,WL,C,13.0
4,29.34000015258789,learn,30659.99984741211,Wed Nov 12 2025 15:05:27 GMT-0600 (Central Standard Time),548549.8999999762,A,c,O,c,416,1,432.59999990463257,548117.3000000715,7232,WL,C,14.0
4,29.52300000190735,learn,30476.99999809265,Wed Nov 12 2025 15:05:27 GMT-0600 (Central Standard Time),548733.3000000715,A,co,O,o,168,1,616.0,548117.3000000715,7232,WL,C,14.0
4,29.60700011253357,learn,30392.99988746643,Wed Nov 12 2025 15:05:27 GMT-0600 (Central Standard Time),548817.6000000238,A,cor,O,r,81,1,700.2999999523163,548117.3000000715,7232,WL,C,14.0
4,29.84000015258789,learn,30159.99984741211,Wed Nov 12 2025 15:05:27 GMT-0600 (Central Standard Time),549050.1000000238,A,corn,O,n,221,1,932.7999999523163,548117.3000000715,7232,WL,C,14.0
4,30.17300009727478,learn,29826.99990272522,Wed Nov 12 2025 15:05:27 GMT-0600 (Central Standard Time),549383.1000000238,A,cornenter,O,enter,315,1,1265.7999999523163,548117.3000000715,7232,WL,C,14.0
4,30.692000150680542,learn,29307.999849319458,Wed Nov 12 2025 15:05:27 GMT-0600 (Central Standard Time),549901.8999999762,A,s,O,s,498,1,518.5,549383.3999999762,7232,WL,C,15.0
4,30.83899998664856,learn,29161.00001335144,Wed Nov 12 2025 15:05:27 GMT-0600 (Central Standard Time),550049.7000000477,A,su,O,u,142,1,666.3000000715256,549383.3999999762,7232,WL,C,15.0
4,31.008000135421753,learn,28991.999864578247,Wed Nov 12 2025 15:05:27 GMT-0600 (Central Standard Time),550217.8999999762,A,sug,O,g,165,1,834.5,549383.3999999762,7232,WL,C,15.0
4,31.08899998664856,learn,28911.00001335144,Wed Nov 12 2025 15:05:27 GMT-0600 (Central Standard Time),550299.8000000715,A,suga,O,a,62,1,916.4000000953674,549383.3999999762,7232,WL,C,15.0
4,31.240000009536743,learn,28759.999990463257,Wed Nov 12 2025 15:05:27 GMT-0600 (Central Standard Time),550450.6000000238,A,sugar,O,r,127,1,1067.2000000476837,549383.3999999762,7232,WL,C,15.0
4,31.856000185012817,learn,28143.999814987183,Wed Nov 12 2025 15:05:27 GMT-0600 (Central Standard Time),551066.7000000477,A,sugarenter,O,enter,612,1,1683.3000000715256,549383.3999999762,7232,WL,C,15.0
5,0.7339999675750732,learn,60000.0,Wed Nov 12 2025 15:05:27 GMT-0600 (Central Standard Time),619361.8000000715,A,b,O,b,712,1,734.1000000238419,618627.7000000477,7232,WL,C,1.0
5,1.183000087738037,learn,60000.0,Wed Nov 12 2025 15:05:27 GMT-0600 (Central Standard Time),619810.8999999762,A,bo,O,o,446,1,1183.1999999284744,618627.7000000477,7232,WL,C,1.0
5,1.3329999446868896,learn,60000.0,Wed Nov 12 2025 15:05:27 GMT-0600 (Central Standard Time),619960.8999999762,A,bod,O,d,147,1,1333.1999999284744,618627.7000000477,7232,WL,C,1.0
5,1.5,learn,60000.0,Wed Nov 12 2025 15:05:27 GMT-0600 (Central Standard Time),620127.2000000477,A,body,O,y,157,1,1499.5,618627.7000000477,7232,WL,C,1.0
5,2.2669999599456787,learn,60000.0,Wed Nov 12 2025 15:05:27 GMT-0600 (Central Standard Time),620894.6000000238,A,bodyenter,O,enter,750,1,2266.899999976158,618627.7000000477,7232,WL,C,1.0
5,2.9839999675750732,learn,60000.0,Wed Nov 12 2025 15:05:27 GMT-0600 (Central Standard Time),621611.7000000477,A,q,O,q,702,1,716.8000000715256,620894.8999999762,7232,WL,C,2.0
5,3.1660001277923584,learn,60000.0,Wed Nov 12 2025 15:05:27 GMT-0600 (Central Standard Time),621793.7000000477,A,qu,O,u,162,1,898.8000000715256,620894.8999999762,7232,WL,C,2.0
5,3.3329999446868896,learn,60000.0,Wed Nov 12 2025 15:05:27 GMT-0600 (Central Standard Time),621960.6000000238,A,que,O,e,149,1,1065.7000000476837,620894.8999999762,7232,WL,C,2.0
5,3.447999954223633,learn,60000.0,Wed Nov 12 2025 15:05:27 GMT-0600 (Central Standard Time),622075.8000000715,A,quee,O,e,109,1,1180.9000000953674,620894.8999999762,7232,WL,C,2.0
5,3.5989999771118164,learn,60000.0,Wed Nov 12 2025 15:05:27 GMT-0600 (Central Standard Time),622226.3000000715,A,queen,O,n,146,1,1331.4000000953674,620894.8999999762,7232,WL,C,2.0
5,4.416000127792358,learn,60000.0,Wed Nov 12 2025 15:05:27 GMT-0600 (Central Standard Time),623043.2000000477,A,queenenter,O,enter,804,1,2148.3000000715256,620894.8999999762,7232,WL,C,2.0
5,5.249000072479248,learn,60000.0,Wed Nov 12 2025 15:05:27 GMT-0600 (Central Standard Time),623876.7000000477,A,b,O,b,828,1,833.3999999761581,623043.3000000715,7232,WL,C,3.0
5,5.631999969482422,learn,60000.0,Wed Nov 12 2025 15:05:27 GMT-0600 (Central Standard Time),624260.1000000238,A,bo,O,o,367,1,1216.7999999523163,623043.3000000715,7232,WL,C,3.0
5,5.966000080108643,learn,60000.0,Wed Nov 12 2025 15:05:27 GMT-0600 (Central Standard Time),624593.3000000715,A,boy,O,y,314,1,1550.0,623043.3000000715,7232,WL,C,3.0
5,6.332000017166138,learn,60000.0,Wed Nov 12 2025 15:05:27 GMT-0600 (Central Standard Time),624959.3000000715,A,boyenter,O,enter,357,1,1916.0,623043.3000000715,7232,WL,C,3.0
5,6.648000001907349,learn,60000.0,Wed Nov 12 2025 15:05:27 GMT-0600 (Central Standard Time),625275.8000000715,A,d,O,d,302,1,316.2000000476837,624959.6000000238,7232,WL,C,4.0
5,6.865000009536743,learn,60000.0,Wed Nov 12 2025 15:05:27 GMT-0600 (Central Standard Time),625492.6000000238,A,do,O,o,202,1,533.0,624959.6000000238,7232,WL,C,4.0
5,6.999000072479248,learn,60000.0,Wed Nov 12 2025 15:05:27 GMT-0600 (Central Standard Time),625626.3000000715,A,doc,O,c,114,1,666.7000000476837,624959.6000000238,7232,WL,C,4.0
5,7.140000104904175,learn,60000.0,Wed Nov 12 2025 15:05:27 GMT-0600 (Central Standard Time),625767.3000000715,A,doct,O,t,116,1,807.7000000476837,624959.6000000238,7232,WL,C,4.0
5,7.370000123977661,learn,60000.0,Wed Nov 12 2025 15:05:27 GMT-0600 (Central Standard Time),625997.5,A,docto,O,o,223,1,1037.8999999761581,624959.6000000238,7232,WL,C,4.0
5,7.549000024795532,learn,60000.0,Wed Nov 12 2025 15:05:27 GMT-0600 (Central Standard Time),626176.7000000477,A,doctor,O,r,161,1,1217.1000000238419,624959.6000000238,7232,WL,C,4.0
5,7.765000104904175,learn,60000.0,Wed Nov 12 2025 15:05:27 GMT-0600 (Central Standard Time),626392.2000000477,A,doctorenter,O,enter,203,1,1432.6000000238419,624959.6000000238,7232,WL,C,4.0
5,8.115000009536743,learn,60000.0,Wed Nov 12 2025 15:05:27 GMT-0600 (Central Standard Time),626742.3000000715,A,c,O,c,332,1,349.90000009536743,626392.3999999762,7232,WL,C,5.0
5,8.315000057220459,learn,60000.0,Wed Nov 12 2025 15:05:27 GMT-0600 (Central Standard Time),626942.2000000477,A,ca,O,a,184,1,549.8000000715256,626392.3999999762,7232,WL,C,5.0
5,8.447999954223633,learn,60000.0,Wed Nov 12 2025 15:05:27 GMT-0600 (Central Standard Time),627075.1000000238,A,cat,O,t,128,1,682.7000000476837,626392.3999999762,7232,WL,C,5.0
5,8.581000089645386,learn,60000.0,Wed Nov 12 2025 15:05:27 GMT-0600 (Central Standard Time),627208.6000000238,A,catt,O,t,115,1,816.2000000476837,626392.3999999762,7232,WL,C,5.0
5,8.88100004196167,learn,60000.0,Wed Nov 12 2025 15:05:27 GMT-0600 (Central Standard Time),627508.8000000715,A,cattl,O,l,293,1,1116.4000000953674,626392.3999999762,7232,WL,C,5.0
5,9.13100004196167,learn,60000.0,Wed Nov 12 2025 15:05:27 GMT-0600 (Central Standard Time),627758.8000000715,A,cattle,O,e,233,1,1366.4000000953674,626392.3999999762,7232,WL,C,5.0
5,9.38100004196167,learn,60000.0,Wed Nov 12 2025 15:05:27 GMT-0600 (Central Standard Time),628008.3999999762,A,cattleenter,O,enter,231,1,1616.0,626392.3999999762,7232,WL,C,5.0
5,11.130000114440918,learn,60000.0,Wed Nov 12 2025 15:05:27 GMT-0600 (Central Standard Time),629757.3000000715,A,w,O,w,1742,1,1748.6000000238419,628008.7000000477,7232,WL,C,6.0
5,11.347000122070312,learn,60000.0,Wed Nov 12 2025 15:05:27 GMT-0600 (Central Standard Time),629974.5,A,wh,O,h,200,1,1965.7999999523163,628008.7000000477,7232,WL,C,6.0
5,11.496999979019165,learn,60000.0,Wed Nov 12 2025 15:05:27 GMT-0600 (Central Standard Time),630124.3000000715,A,whe,O,e,143,1,2115.600000023842,628008.7000000477,7232,WL,C,6.0
5,11.69700002670288,learn,60000.0,Wed Nov 12 2025 15:05:27 GMT-0600 (Central Standard Time),630324.3999999762,A,whea,O,a,186,1,2315.6999999284744,628008.7000000477,7232,WL,C,6.0
5,11.829999923706055,learn,60000.0,Wed Nov 12 2025 15:05:27 GMT-0600 (Central Standard Time),630457.8999999762,A,wheat,O,t,130,1,2449.1999999284744,628008.7000000477,7232,WL,C,6.0
5,12.329999923706055,learn,60000.0,Wed Nov 12 2025 15:05:27 GMT-0600 (Central Standard Time),630957.3999999762,A,wheatenter,O,enter,484,1,2948.6999999284744,628008.7000000477,7232,WL,C,6.0
5,12.52999997138977,learn,60000.0,Wed Nov 12 2025 15:05:27 GMT-0600 (Central Standard Time),631157.6000000238,A,c,O,c,193,1,199.89999997615814,630957.7000000477,7232,WL,C,7.0
5,12.713000059127808,learn,60000.0,Wed Nov 12 2025 15:05:27 GMT-0600 (Central Standard Time),631341.1000000238,A,co,O,o,168,1,383.39999997615814,630957.7000000477,7232,WL,C,7.0
5,12.829999923706055,learn,60000.0,Wed Nov 12 2025 15:05:27 GMT-0600 (Central Standard Time),631457.3000000715,A,cor,O,r,105,1,499.60000002384186,630957.7000000477,7232,WL,C,7.0
5,13.01200008392334,learn,60000.0,Wed Nov 12 2025 15:05:27 GMT-0600 (Central Standard Time),631640.0,A,corn,O,n,165,1,682.2999999523163,630957.7000000477,7232,WL,C,7.0
5,13.312000036239624,learn,60000.0,Wed Nov 12 2025 15:05:27 GMT-0600 (Central Standard Time),631939.5,A,cornenter,O,enter,286,1,981.7999999523163,630957.7000000477,7232,WL,C,7.0
5,13.996999979019165,learn,60000.0,Wed Nov 12 2025 15:05:27 GMT-0600 (Central Standard Time),632624.2000000477,A,s,O,s,665,1,684.6000000238419,631939.6000000238,7232,WL,C,8.0
5,14.161999940872192,learn,60000.0,Wed Nov 12 2025 15:05:27 GMT-0600 (Central Standard Time),632789.8000000715,A,su,O,u,149,1,850.2000000476837,631939.6000000238,7232,WL,C,8.0
5,14.34500002861023,learn,60000.0,Wed Nov 12 2025 15:05:27 GMT-0600 (Central Standard Time),632973.0,A,sug,O,g,167,1,1033.3999999761581,631939.6000000238,7232,WL,C,8.0
5,14.42799997329712,learn,60000.0,Wed Nov 12 2025 15:05:27 GMT-0600 (Central Standard Time),633056.0,A,suga,O,a,64,1,1116.3999999761581,631939.6000000238,7232,WL,C,8.0
5,14.562999963760376,learn,60000.0,Wed Nov 12 2025 15:05:27 GMT-0600 (Central Standard Time),633190.2000000477,A,sugar,O,r,127,1,1250.6000000238419,631939.6000000238,7232,WL,C,8.0
5,14.928999900817871,learn,60000.0,Wed Nov 12 2025 15:05:27 GMT-0600 (Central Standard Time),633557.0,A,sugarenter,O,enter,359,1,1617.3999999761581,631939.6000000238,7232,WL,C,8.0
5,15.729000091552734,learn,60000.0,Wed Nov 12 2025 15:05:27 GMT-0600 (Central Standard Time),634356.5,A,n,O,n,792,1,799.2999999523163,633557.2000000477,7232,WL,C,9.0
5,15.84500002861023,learn,60000.0,Wed Nov 12 2025 15:05:27 GMT-0600 (Central Standard Time),634472.8999999762,A,na,O,a,96,1,915.6999999284744,633557.2000000477,7232,WL,C,9.0
5,15.979000091552734,learn,60000.0,Wed Nov 12 2025 15:05:27 GMT-0600 (Central Standard Time),634606.1000000238,A,nai,O,i,117,1,1048.8999999761581,633557.2000000477,7232,WL,C,9.0
5,16.17799997329712,learn,60000.0,Wed Nov 12 2025 15:05:27 GMT-0600 (Central Standard Time),634805.6000000238,A,nail,O,l,192,1,1248.3999999761581,633557.2000000477,7232,WL,C,9.0
5,16.413000106811523,learn,60000.0,Wed Nov 12 2025 15:05:27 GMT-0600 (Central Standard Time),635040.2000000477,A,nailenter,O,enter,224,1,1483.0,633557.2000000477,7232,WL,C,9.0
5,16.76200008392334,learn,60000.0,Wed Nov 12 2025 15:05:27 GMT-0600 (Central Standard Time),635389.8000000715,A,f,O,f,340,1,349.40000009536743,635040.3999999762,7232,WL,C,10.0
5,16.894999980926514,learn,60000.0,Wed Nov 12 2025 15:05:27 GMT-0600 (Central Standard Time),635522.3999999762,A,fl,O,l,128,1,482.0,635040.3999999762,7232,WL,C,10.0
5,17.028000116348267,learn,60000.0,Wed Nov 12 2025 15:05:27 GMT-0600 (Central Standard Time),635656.0,A,fla,O,a,116,1,615.6000000238419,635040.3999999762,7232,WL,C,10.0
5,17.161999940872192,learn,60000.0,Wed Nov 12 2025 15:05:27 GMT-0600 (Central Standard Time),635789.3999999762,A,flag,O,g,118,1,749.0,635040.3999999762,7232,WL,C,10.0
5,17.594000101089478,learn,60000.0,Wed Nov 12 2025 15:05:27 GMT-0600 (Central Standard Time),636222.1000000238,A,flagenter,O,enter,425,1,1181.7000000476837,635040.3999999762,7232,WL,C,10.0
5,18.194999933242798,learn,60000.0,Wed Nov 12 2025 15:05:27 GMT-0600 (Central Standard Time),636822.2000000477,A,l,O,l,583,1,599.8999999761581,636222.3000000715,7232,WL,C,11.0
5,18.26099991798401,learn,60000.0,Wed Nov 12 2025 15:05:27 GMT-0600 (Central Standard Time),636888.6000000238,A,le,O,e,56,1,666.2999999523163,636222.3000000715,7232,WL,C,11.0
5,18.444000005722046,learn,60000.0,Wed Nov 12 2025 15:05:27 GMT-0600 (Central Standard Time),637071.7000000477,A,let,O,t,171,1,849.3999999761581,636222.3000000715,7232,WL,C,11.0
5,18.545000076293945,learn,60000.0,Wed Nov 12 2025 15:05:27 GMT-0600 (Central Standard Time),637172.3999999762,A,lett,O,t,94,1,950.0999999046326,636222.3000000715,7232,WL,C,11.0
5,18.57699990272522,learn,60000.0,Wed Nov 12 2025 15:05:27 GMT-0600 (Central Standard Time),637204.8000000715,A,lette,O,e,25,1,982.5,636222.3000000715,7232,WL,C,11.0
5,18.72699999809265,learn,60000.0,Wed Nov 12 2025 15:05:27 GMT-0600 (Central Standard Time),637355.1000000238,A,letter,O,r,145,1,1132.7999999523163,636222.3000000715,7232,WL,C,11.0
5,19.061000108718872,learn,60000.0,Wed Nov 12 2025 15:05:27 GMT-0600 (Central Standard Time),637688.3999999762,A,letterenter,O,enter,323,1,1466.0999999046326,636222.3000000715,7232,WL,C,11.0
5,20.411999940872192,learn,60000.0,Wed Nov 12 2025 15:05:27 GMT-0600 (Central Standard Time),639040.0,A,h,O,h,1333,1,1351.2999999523163,637688.7000000477,7232,WL,C,12.0
5,20.628000020980835,learn,60000.0,Wed Nov 12 2025 15:05:27 GMT-0600 (Central Standard Time),639256.0,A,ho,O,o,198,1,1567.2999999523163,637688.7000000477,7232,WL,C,12.0
5,20.793999910354614,learn,60000.0,Wed Nov 12 2025 15:05:27 GMT-0600 (Central Standard Time),639421.8000000715,A,hom,O,m,150,1,1733.1000000238419,637688.7000000477,7232,WL,C,12.0
5,20.91100001335144,learn,60000.0,Wed Nov 12 2025 15:05:27 GMT-0600 (Central Standard Time),639538.3999999762,A,home,O,e,104,1,1849.6999999284744,637688.7000000477,7232,WL,C,12.0
5,21.89300012588501,learn,60000.0,Wed Nov 12 2025 15:05:27 GMT-0600 (Central Standard Time),640520.6000000238,A,homeenter,O,enter,973,1,2831.899999976158,637688.7000000477,7232,WL,C,12.0
5,22.57699990272522,learn,60000.0,Wed Nov 12 2025 15:05:27 GMT-0600 (Central Standard Time),641204.3999999762,A,t,O,t,678,1,683.5999999046326,640520.8000000715,7232,WL,C,13.0
5,22.858999967575073,learn,60000.0,Wed Nov 12 2025 15:05:27 GMT-0600 (Central Standard Time),641486.1000000238,A,to,O,o,264,1,965.2999999523163,640520.8000000715,7232,WL,C,13.0
5,22.944999933242798,learn,60000.0,Wed Nov 12 2025 15:05:27 GMT-0600 (Central Standard Time),641572.3000000715,A,tow,O,w,82,1,1051.5,640520.8000000715,7232,WL,C,13.0
5,23.092999935150146,learn,60000.0,Wed Nov 12 2025 15:05:27 GMT-0600 (Central Standard Time),641720.8000000715,A,towe,O,e,144,1,1200.0,640520.8000000715,7232,WL,C,13.0
5,23.2260000705719,learn,60000.0,Wed Nov 12 2025 15:05:27 GMT-0600 (Central Standard Time),641854.0,A,tower,O,r,125,1,1333.1999999284744,640520.8000000715,7232,WL,C,13.0
5,23.842999935150146,learn,60000.0,Wed Nov 12 2025 15:05:27 GMT-0600 (Central Standard Time),642470.5,A,towerenter,O,enter,609,1,1949.6999999284744,640520.8000000715,7232,WL,C,13.0
5,24.29200005531311,learn,60000.0,Wed Nov 12 2025 15:05:27 GMT-0600 (Central Standard Time),642920.0,A,c,O,c,431,1,449.1999999284744,642470.8000000715,7232,WL,C,14.0
5,24.460000038146973,learn,60000.0,Wed Nov 12 2025 15:05:27 GMT-0600 (Central Standard Time),643087.1000000238,A,ca,O,a,150,1,616.2999999523163,642470.8000000715,7232,WL,C,14.0
5,24.575999975204468,learn,60000.0,Wed Nov 12 2025 15:05:27 GMT-0600 (Central Standard Time),643203.6000000238,A,cam,O,m,103,1,732.7999999523163,642470.8000000715,7232,WL,C,14.0
5,24.80999994277954,learn,60000.0,Wed Nov 12 2025 15:05:27 GMT-0600 (Central Standard Time),643437.1000000238,A,camp,O,p,218,1,966.2999999523163,642470.8000000715,7232,WL,C,14.0
5,26.325999975204468,learn,60000.0,Wed Nov 12 2025 15:05:27 GMT-0600 (Central Standard Time),644953.7000000477,A,campenter,O,enter,1514,1,2482.899999976158,642470.8000000715,7232,WL,C,14.0
5,26.625,learn,60000.0,Wed Nov 12 2025 15:05:27 GMT-0600 (Central Standard Time),645252.8000000715,A,s,O,s,284,1,299.0,644953.8000000715,7232,WL,C,15.0
5,26.77500009536743,learn,60000.0,Wed Nov 12 2025 15:05:27 GMT-0600 (Central Standard Time),645402.8000000715,A,sh,O,h,137,1,449.0,644953.8000000715,7232,WL,C,15.0
5,26.95799994468689,learn,60000.0,Wed Nov 12 2025 15:05:27 GMT-0600 (Central Standard Time),645586.0,A,sho,O,o,171,1,632.1999999284744,644953.8000000715,7232,WL,C,15.0
5,27.058000087738037,learn,60000.0,Wed Nov 12 2025 15:05:27 GMT-0600 (Central Standard Time),645685.8000000715,A,shor,O,r,84,1,732.0,644953.8000000715,7232,WL,C,15.0
5,27.191999912261963,learn,60000.0,Wed Nov 12 2025 15:05:27 GMT-0600 (Central Standard Time),645819.1000000238,A,shore,O,e,120,1,865.2999999523163,644953.8000000715,7232,WL,C,15.0
5,27.507999897003174,learn,60000.0,Wed Nov 12 2025 15:05:27 GMT-0600 (Central Standard Time),646135.6000000238,A,shoreenter,O,enter,307,1,1181.7999999523163,644953.8000000715,7232,WL,C,15.0
6,1.5829999446868896,distr,58417.00005531311,Wed Nov 12 2025 15:05:27 GMT-0600 (Central Standard Time),731958.7000000477,B,s,O,s,1574,1,1582.8000000715256,730375.8999999762,7232,WL,C,1.0
6,1.7330000400543213,distr,58266.99995994568,Wed Nov 12 2025 15:05:27 GMT-0600 (Central Standard Time),732107.8000000715,B,sk,O,k,142,1,1731.9000000953674,730375.8999999762,7232,WL,C,1.0
6,1.9500000476837158,distr,58049.999952316284,Wed Nov 12 2025 15:05:27 GMT-0600 (Central Standard Time),732325.1000000238,B,sky,O,y,202,1,1949.2000000476837,730375.8999999762,7232,WL,C,1.0
6,2.315999984741211,distr,57684.00001525879,Wed Nov 12 2025 15:05:27 GMT-0600 (Central Standard Time),732691.3000000715,B,skyenter,O,enter,353,1,2315.4000000953674,730375.8999999762,7232,WL,C,1.0
6,2.865999937057495,distr,57134.000062942505,Wed Nov 12 2025 15:05:27 GMT-0600 (Central Standard Time),733241.3000000715,B,v,O,v,537,1,549.7000000476837,732691.6000000238,7232,WL,C,2.0
6,2.9660000801086426,distr,57033.99991989136,Wed Nov 12 2025 15:05:27 GMT-0600 (Central Standard Time),733341.2000000477,B,va,O,a,84,1,649.6000000238419,732691.6000000238,7232,WL,C,2.0
6,3.1500000953674316,distr,56849.99990463257,Wed Nov 12 2025 15:05:27 GMT-0600 (Central Standard Time),733525.0,B,val,O,l,177,1,833.3999999761581,732691.6000000238,7232,WL,C,2.0
6,3.2660000324249268,distr,56733.99996757507,Wed Nov 12 2025 15:05:27 GMT-0600 (Central Standard Time),733641.3000000715,B,vall,O,l,113,1,949.7000000476837,732691.6000000238,7232,WL,C,2.0
6,3.383000135421753,distr,56616.99986457825,Wed Nov 12 2025 15:05:27 GMT-0600 (Central Standard Time),733757.8999999762,B,valle,O,e,101,1,1066.2999999523163,732691.6000000238,7232,WL,C,2.0
6,3.5829999446868896,distr,56417.00005531311,Wed Nov 12 2025 15:05:27 GMT-0600 (Central Standard Time),733957.8000000715,B,valley,O,y,192,1,1266.2000000476837,732691.6000000238,7232,WL,C,2.0
6,3.9149999618530273,distr,56085.00003814697,Wed Nov 12 2025 15:05:27 GMT-0600 (Central Standard Time),734290.6000000238,B,valleyenter,O,enter,320,1,1599.0,732691.6000000238,7232,WL,C,2.0
6,4.966000080108643,distr,55033.99991989136,Wed Nov 12 2025 15:05:27 GMT-0600 (Central Standard Time),735340.8999999762,B,f,O,f,1043,1,1050.0999999046326,734290.8000000715,7232,WL,C,3.0
6,5.148999929428101,distr,54851.0000705719,Wed Nov 12 2025 15:05:27 GMT-0600 (Central Standard Time),735524.1000000238,B,fo,O,o,168,1,1233.2999999523163,734290.8000000715,7232,WL,C,3.0
6,5.249000072479248,distr,54750.99992752075,Wed Nov 12 2025 15:05:27 GMT-0600 (Central Standard Time),735624.0,B,for,O,r,88,1,1333.1999999284744,734290.8000000715,7232,WL,C,3.0
6,5.414999961853027,distr,54585.00003814697,Wed Nov 12 2025 15:05:27 GMT-0600 (Central Standard Time),735790.3000000715,B,fore,O,e,147,1,1499.5,734290.8000000715,7232,WL,C,3.0
6,5.565000057220459,distr,54434.99994277954,Wed Nov 12 2025 15:05:27 GMT-0600 (Central Standard Time),735940.5,B,fores,O,s,144,1,1649.6999999284744,734290.8000000715,7232,WL,C,3.0
6,5.681999921798706,distr,54318.000078201294,Wed Nov 12 2025 15:05:27 GMT-0600 (Central Standard Time),736057.1000000238,B,forest,O,t,113,1,1766.2999999523163,734290.8000000715,7232,WL,C,3.0
6,6.398999929428101,distr,53601.0000705719,Wed Nov 12 2025 15:05:27 GMT-0600 (Central Standard Time),736773.8000000715,B,forestenter,O,enter,709,1,2483.0,734290.8000000715,7232,WL,C,3.0
6,9.532000064849854,distr,50467.99993515015,Wed Nov 12 2025 15:05:27 GMT-0600 (Central Standard Time),739906.8000000715,B,h,O,h,3121,1,3132.7000000476837,736774.1000000238,7232,WL,C,4.0
6,9.647000074386597,distr,50352.9999256134,Wed Nov 12 2025 15:05:27 GMT-0600 (Central Standard Time),740022.6000000238,B,ha,O,a,106,1,3248.5,736774.1000000238,7232,WL,C,4.0
6,9.848000049591064,distr,50151.999950408936,Wed Nov 12 2025 15:05:27 GMT-0600 (Central Standard Time),740223.5,B,hal,O,l,183,1,3449.399999976158,736774.1000000238,7232,WL,C,4.0
6,9.96399998664856,distr,50036.00001335144,Wed Nov 12 2025 15:05:27 GMT-0600 (Central Standard Time),740339.3000000715,B,hall,O,l,102,1,3565.2000000476837,736774.1000000238,7232,WL,C,4.0
6,10.38100004196167,distr,49618.99995803833,Wed Nov 12 2025 15:05:27 GMT-0600 (Central Standard Time),740756.0,B,hallenter,O,enter,411,1,3981.899999976158,736774.1000000238,7232,WL,C,4.0
6,11.02999997138977,distr,48970.00002861023,Wed Nov 12 2025 15:05:27 GMT-0600 (Central Standard Time),741405.3000000715,B,p,O,p,634,1,649.1000000238419,740756.2000000477,7232,WL,C,5.0
6,11.180000066757202,distr,48819.9999332428,Wed Nov 12 2025 15:05:27 GMT-0600 (Central Standard Time),741555.6000000238,B,pl,O,l,144,1,799.3999999761581,740756.2000000477,7232,WL,C,5.0
6,11.27999997138977,distr,48720.00002861023,Wed Nov 12 2025 15:05:27 GMT-0600 (Central Standard Time),741655.5,B,pla,O,a,82,1,899.2999999523163,740756.2000000477,7232,WL,C,5.0
6,11.46399998664856,distr,48536.00001335144,Wed Nov 12 2025 15:05:27 GMT-0600 (Central Standard Time),741838.8999999762,B,plan,O,n,174,1,1082.6999999284744,740756.2000000477,7232,WL,C,5.0
6,11.680999994277954,distr,48319.000005722046,Wed Nov 12 2025 15:05:27 GMT-0600 (Central Standard Time),742055.8000000715,B,plant,O,t,200,1,1299.6000000238419,740756.2000000477,7232,WL,C,5.0
6,11.980000019073486,distr,48019.999980926514,Wed Nov 12 2025 15:05:27 GMT-0600 (Central Standard Time),742355.2000000477,B,plantenter,O,enter,296,1,1599.0,740756.2000000477,7232,WL,C,5.0
6,12.414000034332275,distr,47585.999965667725,Wed Nov 12 2025 15:05:27 GMT-0600 (Central Standard Time),742788.7000000477,B,b,O,b,425,1,433.3000000715256,742355.3999999762,7232,WL,C,6.0
6,12.61299991607666,distr,47387.00008392334,Wed Nov 12 2025 15:05:27 GMT-0600 (Central Standard Time),742988.6000000238,B,bu,O,u,193,1,633.2000000476837,742355.3999999762,7232,WL,C,6.0
6,12.814000129699707,distr,47185.99987030029,Wed Nov 12 2025 15:05:27 GMT-0600 (Central Standard Time),743188.8000000715,B,but,O,t,185,1,833.4000000953674,742355.3999999762,7232,WL,C,6.0
6,12.996999979019165,distr,47003.000020980835,Wed Nov 12 2025 15:05:27 GMT-0600 (Central Standard Time),743372.1000000238,B,butt,O,t,169,1,1016.7000000476837,742355.3999999762,7232,WL,C,6.0
6,13.23200011253357,distr,46767.99988746643,Wed Nov 12 2025 15:05:27 GMT-0600 (Central Standard Time),743606.8999999762,B,butte,O,e,221,1,1251.5,742355.3999999762,7232,WL,C,6.0
6,13.396000146865845,distr,46603.999853134155,Wed Nov 12 2025 15:05:27 GMT-0600 (Central Standard Time),743770.8000000715,B,butter,O,r,145,1,1415.4000000953674,742355.3999999762,7232,WL,C,6.0
6,14.861999988555908,distr,45138.00001144409,Wed Nov 12 2025 15:05:27 GMT-0600 (Central Standard Time),745236.7000000477,B,butterenter,O,enter,1459,1,2881.3000000715256,742355.3999999762,7232,WL,C,6.0
6,15.812000036239624,distr,44187.999963760376,Wed Nov 12 2025 15:05:27 GMT-0600 (Central Standard Time),746187.3000000715,B,d,O,d,945,1,950.4000000953674,745236.8999999762,7232,WL,C,7.0
6,15.92900013923645,distr,44070.99986076355,Wed Nov 12 2025 15:05:27 GMT-0600 (Central Standard Time),746304.6000000238,B,di,O,i,106,1,1067.7000000476837,745236.8999999762,7232,WL,C,7.0
6,16.028000116348267,distr,43971.99988365173,Wed Nov 12 2025 15:05:27 GMT-0600 (Central Standard Time),746403.5,B,dia,O,a,85,1,1166.6000000238419,745236.8999999762,7232,WL,C,7.0
6,16.312000036239624,distr,43687.999963760376,Wed Nov 12 2025 15:05:27 GMT-0600 (Central Standard Time),746687.5,B,diam,O,m,274,1,1450.6000000238419,745236.8999999762,7232,WL,C,7.0
6,16.49500012397766,distr,43504.99987602234,Wed Nov 12 2025 15:05:27 GMT-0600 (Central Standard Time),746870.3000000715,B,diamo,O,o,173,1,1633.4000000953674,745236.8999999762,7232,WL,C,7.0
6,16.694999933242798,distr,43305.0000667572,Wed Nov 12 2025 15:05:27 GMT-0600 (Central Standard Time),747070.1000000238,B,diamon,O,n,191,1,1833.2000000476837,745236.8999999762,7232,WL,C,7.0
6,16.812000036239624,distr,43187.999963760376,Wed Nov 12 2025 15:05:27 GMT-0600 (Central Standard Time),747187.3999999762,B,diamond,O,d,111,1,1950.5,745236.8999999762,7232,WL,C,7.0
6,17.146000146865845,distr,42853.999853134155,Wed Nov 12 2025 15:05:27 GMT-0600 (Central Standard Time),747520.7000000477,B,diamondenter,O,enter,323,1,2283.8000000715256,745236.8999999762,7232,WL,C,7.0
6,17.812000036239624,distr,42187.999963760376,Wed Nov 12 2025 15:05:27 GMT-0600 (Central Standard Time),748187.3000000715,B,m,O,m,646,1,666.4000000953674,747520.8999999762,7232,WL,C,8.0
6,17.977999925613403,distr,42022.0000743866,Wed Nov 12 2025 15:05:27 GMT-0600 (Central Standard Time),748353.1000000238,B,mo,O,o,163,1,832.2000000476837,747520.8999999762,7232,WL,C,8.0
6,18.210999965667725,distr,41789.000034332275,Wed Nov 12 2025 15:05:27 GMT-0600 (Central Standard Time),748586.3000000715,B,mot,O,t,230,1,1065.4000000953674,747520.8999999762,7232,WL,C,8.0
6,18.378000020980835,distr,41621.999979019165,Wed Nov 12 2025 15:05:27 GMT-0600 (Central Standard Time),748753.3999999762,B,moth,O,h,147,1,1232.5,747520.8999999762,7232,WL,C,8.0
6,18.460999965667725,distr,41539.000034332275,Wed Nov 12 2025 15:05:27 GMT-0600 (Central Standard Time),748836.5,B,mothe,O,e,76,1,1315.6000000238419,747520.8999999762,7232,WL,C,8.0
6,18.57800006866455,distr,41421.99993133545,Wed Nov 12 2025 15:05:27 GMT-0600 (Central Standard Time),748953.1000000238,B,mother,O,r,113,1,1432.2000000476837,747520.8999999762,7232,WL,C,8.0
6,18.794000148773193,distr,41205.99985122681,Wed Nov 12 2025 15:05:27 GMT-0600 (Central Standard Time),749169.5,B,motherenter,O,enter,213,1,1648.6000000238419,747520.8999999762,7232,WL,C,8.0
6,19.844000101089478,distr,40155.99989891052,Wed Nov 12 2025 15:05:27 GMT-0600 (Central Standard Time),750219.0,B,d,O,d,1029,1,1049.2999999523163,749169.7000000477,7232,WL,C,9.0
6,19.977999925613403,distr,40022.0000743866,Wed Nov 12 2025 15:05:27 GMT-0600 (Central Standard Time),750352.8999999762,B,do,O,o,115,1,1183.1999999284744,749169.7000000477,7232,WL,C,9.0
6,20.17799997329712,distr,39822.00002670288,Wed Nov 12 2025 15:05:27 GMT-0600 (Central Standard Time),750552.8999999762,B,dol,O,l,181,1,1383.1999999284744,749169.7000000477,7232,WL,C,9.0
6,20.24500012397766,distr,39754.99987602234,Wed Nov 12 2025 15:05:27 GMT-0600 (Central Standard Time),750619.8000000715,B,doll,O,l,61,1,1450.1000000238419,749169.7000000477,7232,WL,C,9.0
6,20.344000101089478,distr,39655.99989891052,Wed Nov 12 2025 15:05:27 GMT-0600 (Central Standard Time),750718.8999999762,B,dolla,O,a,90,1,1549.1999999284744,749169.7000000477,7232,WL,C,9.0
6,20.561000108718872,distr,39438.99989128113,Wed Nov 12 2025 15:05:27 GMT-0600 (Central Standard Time),750935.8000000715,B,dollar,O,r,206,1,1766.1000000238419,749169.7000000477,7232,WL,C,9.0
6,21.294000148773193,distr,38705.99985122681,Wed Nov 12 2025 15:05:27 GMT-0600 (Central Standard Time),751669.6000000238,B,dollarenter,O,enter,718,1,2499.899999976158,749169.7000000477,7232,WL,C,9.0
6,23.509000062942505,distr,36490.999937057495,Wed Nov 12 2025 15:05:27 GMT-0600 (Central Standard Time),753884.7000000477,B,v,O,v,2199,1,2215.0,751669.7000000477,7232,WL,C,10.0
6,23.64300012588501,distr,36356.99987411499,Wed Nov 12 2025 15:05:27 GMT-0600 (Central Standard Time),754017.8000000715,B,va,O,a,113,1,2348.100000023842,751669.7000000477,7232,WL,C,10.0
6,23.776000022888184,distr,36223.99997711182,Wed Nov 12 2025 15:05:27 GMT-0600 (Central Standard Time),754151.5,B,val,O,l,124,1,2481.7999999523163,751669.7000000477,7232,WL,C,10.0
6,23.89300012588501,distr,36106.99987411499,Wed Nov 12 2025 15:05:27 GMT-0600 (Central Standard Time),754267.8999999762,B,vall,O,l,102,1,2598.1999999284744,751669.7000000477,7232,WL,C,10.0
6,23.95900011062622,distr,36040.99988937378,Wed Nov 12 2025 15:05:27 GMT-0600 (Central Standard Time),754334.3999999762,B,valle,O,e,50,1,2664.6999999284744,751669.7000000477,7232,WL,C,10.0
6,24.14199995994568,distr,35858.00004005432,Wed Nov 12 2025 15:05:27 GMT-0600 (Central Standard Time),754517.6000000238,B,valley,O,y,175,1,2847.899999976158,751669.7000000477,7232,WL,C,10.0
6,24.47699999809265,distr,35523.00000190735,Wed Nov 12 2025 15:05:27 GMT-0600 (Central Standard Time),754852.3999999762,B,valleyenter,O,enter,329,1,3182.6999999284744,751669.7000000477,7232,WL,C,10.0
6,26.926000118255615,distr,33073.999881744385,Wed Nov 12 2025 15:05:27 GMT-0600 (Central Standard Time),757300.8000000715,B,m,O,m,2433,1,2448.2000000476837,754852.6000000238,7232,WL,C,11.0
6,26.992000102996826,distr,33007.999897003174,Wed Nov 12 2025 15:05:27 GMT-0600 (Central Standard Time),757367.6000000238,B,me,O,e,49,1,2515.0,754852.6000000238,7232,WL,C,11.0
6,27.14199995994568,distr,32858.00004005432,Wed Nov 12 2025 15:05:27 GMT-0600 (Central Standard Time),757517.1000000238,B,mea,O,a,132,1,2664.5,754852.6000000238,7232,WL,C,11.0
6,27.225000143051147,distr,32774.99985694885,Wed Nov 12 2025 15:05:27 GMT-0600 (Central Standard Time),757600.1000000238,B,meat,O,t,72,1,2747.5,754852.6000000238,7232,WL,C,11.0
6,27.54200005531311,distr,32457.99994468689,Wed Nov 12 2025 15:05:27 GMT-0600 (Central Standard Time),757917.6000000238,B,meatenter,O,enter,302,1,3065.0,754852.6000000238,7232,WL,C,11.0
6,30.341000080108643,distr,29658.999919891357,Wed Nov 12 2025 15:05:27 GMT-0600 (Central Standard Time),760716.3999999762,B,enter,O,enter,2782,1,2798.5999999046326,757917.8000000715,7232,WL,C,12.0
6,30.7739999294281,distr,29226.0000705719,Wed Nov 12 2025 15:05:27 GMT-0600 (Central Standard Time),761148.8000000715,B,enter,O,enter,424,1,432.10000002384186,760716.7000000477,7232,WL,C,13.0
6,31.10700011253357,distr,28892.99988746643,Wed Nov 12 2025 15:05:27 GMT-0600 (Central Standard Time),761482.2000000477,B,enter,O,enter,321,1,333.0,761149.2000000477,7232,WL,C,14.0
6,31.44000005722046,distr,28559.99994277954,Wed Nov 12 2025 15:05:27 GMT-0600 (Central Standard Time),761815.3999999762,B,enter,O,enter,315,1,333.0,761482.3999999762,7232,WL,C,15.0
7,1.6990001201629639,immed,58300.999879837036,Wed Nov 12 2025 15:05:27 GMT-0600 (Central Standard Time),777927.0,A,w,O,w,1688,1,1698.6999999284744,776228.3000000715,7232,WL,C,1.0
7,2.015000104904175,immed,57984.999895095825,Wed Nov 12 2025 15:05:27 GMT-0600 (Central Standard Time),778243.7000000477,A,wh,O,h,303,1,2015.3999999761581,776228.3000000715,7232,WL,C,1.0
7,2.132000207901001,immed,57867.999792099,Wed Nov 12 2025 15:05:27 GMT-0600 (Central Standard Time),778360.3000000715,A,whe,O,e,106,1,2132.0,776228.3000000715,7232,WL,C,1.0
7,2.2810001373291016,immed,57718.9998626709,Wed Nov 12 2025 15:05:27 GMT-0600 (Central Standard Time),778510.0,A,whea,O,a,134,1,2281.6999999284744,776228.3000000715,7232,WL,C,1.0
7,2.3330001831054688,immed,57666.99981689453,Wed Nov 12 2025 15:05:27 GMT-0600 (Central Standard Time),778561.7000000477,A,wheat,O,t,40,1,2333.399999976158,776228.3000000715,7232,WL,C,1.0
7,2.7150001525878906,immed,57284.99984741211,Wed Nov 12 2025 15:05:27 GMT-0600 (Central Standard Time),778943.3999999762,A,wheatenter,O,enter,372,1,2715.0999999046326,776228.3000000715,7232,WL,C,1.0
7,3.1480000019073486,immed,56851.99999809265,Wed Nov 12 2025 15:05:27 GMT-0600 (Central Standard Time),779376.8000000715,A,c,O,c,422,1,433.2000000476837,778943.6000000238,7232,WL,C,2.0
7,3.6480000019073486,immed,56351.99999809265,Wed Nov 12 2025 15:05:27 GMT-0600 (Central Standard Time),779876.7000000477,A,co,O,o,492,1,933.1000000238419,778943.6000000238,7232,WL,C,2.0
7,3.8470001220703125,immed,56152.99987792969,Wed Nov 12 2025 15:05:27 GMT-0600 (Central Standard Time),780075.8999999762,A,cor,O,r,184,1,1132.2999999523163,778943.6000000238,7232,WL,C,2.0
7,4.465000152587891,immed,55534.99984741211,Wed Nov 12 2025 15:05:27 GMT-0600 (Central Standard Time),780693.7000000477,A,corn,O,n,602,1,1750.1000000238419,778943.6000000238,7232,WL,C,2.0
7,4.716000080108643,immed,55283.99991989136,Wed Nov 12 2025 15:05:27 GMT-0600 (Central Standard Time),780944.1000000238,A,cornenter,O,enter,232,1,2000.5,778943.6000000238,7232,WL,C,2.0
7,4.981000185012817,immed,55018.99981498718,Wed Nov 12 2025 15:05:27 GMT-0600 (Central Standard Time),781209.8000000715,A,s,O,s,244,1,265.5,780944.3000000715,7232,WL,C,3.0
7,5.115000009536743,immed,54884.99999046326,Wed Nov 12 2025 15:05:27 GMT-0600 (Central Standard Time),781343.2000000477,A,su,O,u,116,1,398.89999997615814,780944.3000000715,7232,WL,C,3.0
7,5.2820000648498535,immed,54717.99993515015,Wed Nov 12 2025 15:05:27 GMT-0600 (Central Standard Time),781510.0,A,sug,O,g,151,1,565.6999999284744,780944.3000000715,7232,WL,C,3.0
7,5.364000082015991,immed,54635.99991798401,Wed Nov 12 2025 15:05:27 GMT-0600 (Central Standard Time),781592.5,A,suga,O,a,63,1,648.1999999284744,780944.3000000715,7232,WL,C,3.0
7,5.497000217437744,immed,54502.999782562256,Wed Nov 12 2025 15:05:27 GMT-0600 (Central Standard Time),781725.8999999762,A,sugar,O,r,117,1,781.5999999046326,780944.3000000715,7232,WL,C,3.0
7,5.930999994277954,immed,54069.000005722046,Wed Nov 12 2025 15:05:27 GMT-0600 (Central Standard Time),782159.8999999762,A,sugarenter,O,enter,416,1,1215.5999999046326,780944.3000000715,7232,WL,C,3.0
7,6.980000019073486,immed,53019.999980926514,Wed Nov 12 2025 15:05:27 GMT-0600 (Central Standard Time),783208.8000000715,A,b,O,b,1029,1,1048.7000000476837,782160.1000000238,7232,WL,C,4.0
7,7.213000059127808,immed,52786.99994087219,Wed Nov 12 2025 15:05:27 GMT-0600 (Central Standard Time),783441.8000000715,A,bo,O,o,221,1,1281.7000000476837,782160.1000000238,7232,WL,C,4.0
7,7.3480000495910645,immed,52651.999950408936,Wed Nov 12 2025 15:05:27 GMT-0600 (Central Standard Time),783576.1000000238,A,bod,O,d,115,1,1416.0,782160.1000000238,7232,WL,C,4.0
7,7.479000091552734,immed,52520.999908447266,Wed Nov 12 2025 15:05:27 GMT-0600 (Central Standard Time),783707.8999999762,A,body,O,y,118,1,1547.7999999523163,782160.1000000238,7232,WL,C,4.0
7,7.747000217437744,immed,52252.999782562256,Wed Nov 12 2025 15:05:27 GMT-0600 (Central Standard Time),783975.8000000715,A,bodyenter,O,enter,258,1,1815.7000000476837,782160.1000000238,7232,WL,C,4.0
7,8.53000020980835,immed,51469.99979019165,Wed Nov 12 2025 15:05:27 GMT-0600 (Central Standard Time),784758.0,A,b,O,b,766,1,782.0,783976.0,7232,WL,C,5.0
7,8.94700002670288,immed,51052.99997329712,Wed Nov 12 2025 15:05:27 GMT-0600 (Central Standard Time),785175.3000000715,A,bo,O,o,400,1,1199.3000000715256,783976.0,7232,WL,C,5.0
7,9.663000106811523,immed,50336.99989318848,Wed Nov 12 2025 15:05:27 GMT-0600 (Central Standard Time),785891.3999999762,A,boy,O,y,710,1,1915.3999999761581,783976.0,7232,WL,C,5.0
7,10.830000162124634,immed,49169.999837875366,Wed Nov 12 2025 15:05:27 GMT-0600 (Central Standard Time),787058.2000000477,A,boyenter,O,enter,1146,1,3082.2000000476837,783976.0,7232,WL,C,5.0
7,11.078999996185303,immed,48921.0000038147,Wed Nov 12 2025 15:05:27 GMT-0600 (Central Standard Time),787307.3999999762,A,q,O,q,235,1,249.09999990463257,787058.3000000715,7232,WL,C,6.0
7,11.296000003814697,immed,48703.9999961853,Wed Nov 12 2025 15:05:27 GMT-0600 (Central Standard Time),787524.3000000715,A,qu,O,u,202,1,466.0,787058.3000000715,7232,WL,C,6.0
7,11.479000091552734,immed,48520.999908447266,Wed Nov 12 2025 15:05:27 GMT-0600 (Central Standard Time),787707.5,A,que,O,e,170,1,649.1999999284744,787058.3000000715,7232,WL,C,6.0
7,11.59600019454956,immed,48403.99980545044,Wed Nov 12 2025 15:05:27 GMT-0600 (Central Standard Time),787824.0,A,quee,O,e,98,1,765.6999999284744,787058.3000000715,7232,WL,C,6.0
7,11.796000003814697,immed,48203.9999961853,Wed Nov 12 2025 15:05:27 GMT-0600 (Central Standard Time),788024.3000000715,A,queen,O,n,182,1,966.0,787058.3000000715,7232,WL,C,6.0
7,12.545000076293945,immed,47454.999923706055,Wed Nov 12 2025 15:05:27 GMT-0600 (Central Standard Time),788773.6000000238,A,queenenter,O,enter,733,1,1715.2999999523163,787058.3000000715,7232,WL,C,6.0
7,13.146000146865845,immed,46853.999853134155,Wed Nov 12 2025 15:05:27 GMT-0600 (Central Standard Time),789374.2000000477,A,c,O,c,591,1,600.3999999761581,788773.8000000715,7232,WL,C,7.0
7,13.32800006866455,immed,46671.99993133545,Wed Nov 12 2025 15:05:27 GMT-0600 (Central Standard Time),789556.5,A,ca,O,a,165,1,782.6999999284744,788773.8000000715,7232,WL,C,7.0
7,13.428000211715698,immed,46571.9997882843,Wed Nov 12 2025 15:05:27 GMT-0600 (Central Standard Time),789656.5,A,cat,O,t,89,1,882.6999999284744,788773.8000000715,7232,WL,C,7.0
7,13.562000036239624,immed,46437.999963760376,Wed Nov 12 2025 15:05:27 GMT-0600 (Central Standard Time),789790.8999999762,A,catt,O,t,117,1,1017.0999999046326,788773.8000000715,7232,WL,C,7.0
7,13.82800006866455,immed,46171.99993133545,Wed Nov 12 2025 15:05:27 GMT-0600 (Central Standard Time),790056.8000000715,A,cattl,O,l,244,1,1283.0,788773.8000000715,7232,WL,C,7.0
7,13.928000211715698,immed,46071.9997882843,Wed Nov 12 2025 15:05:27 GMT-0600 (Central Standard Time),790156.3000000715,A,cattle,O,e,94,1,1382.5,788773.8000000715,7232,WL,C,7.0
7,14.09500002861023,immed,45904.99997138977,Wed Nov 12 2025 15:05:27 GMT-0600 (Central Standard Time),790323.8000000715,A,cattleenter,O,enter,146,1,1550.0,788773.8000000715,7232,WL,C,7.0
7,14.496000051498413,immed,45503.99994850159,Wed Nov 12 2025 15:05:27 GMT-0600 (Central Standard Time),790724.5,A,d,O,d,385,1,400.60000002384186,790323.8999999762,7232,WL,C,8.0
7,14.627000093460083,immed,45372.99990653992,Wed Nov 12 2025 15:05:27 GMT-0600 (Central Standard Time),790855.8999999762,A,do,O,o,118,1,532.0,790323.8999999762,7232,WL,C,8.0
7,14.711000204086304,immed,45288.999795913696,Wed Nov 12 2025 15:05:27 GMT-0600 (Central Standard Time),790939.3000000715,A,doc,O,c,78,1,615.4000000953674,790323.8999999762,7232,WL,C,8.0
7,14.861000061035156,immed,45138.999938964844,Wed Nov 12 2025 15:05:27 GMT-0600 (Central Standard Time),791089.3000000715,A,doct,O,t,147,1,765.4000000953674,790323.8999999762,7232,WL,C,8.0
7,15.561000108718872,immed,44438.99989128113,Wed Nov 12 2025 15:05:27 GMT-0600 (Central Standard Time),791789.5,A,docto,O,o,683,1,1465.6000000238419,790323.8999999762,7232,WL,C,8.0
