acc_sum,block,block_c,condition,correct,correct_response,datetime,endtime,flanker,jitter,project,response,response_test_buffer_response,response_test_target_response,response_time,response_time_test_buffer_response,response_time_test_target_response,row_sel,session_number,start_end,starttime,subject_id,target,task,task_vers,time_test_buffer,time_test_buffer_response,time_test_constants,time_test_flanker,time_test_jitter,time_test_logger,time_test_target,time_test_target_response,time_test_variables,trial
1,prac,1,inc,1,z,Fri Mar 13 2026 08:57:20 GMT-0500 (Central Daylight Time),124568.90000003576,window,1100,I,z,,,589,,,16,2,2994.600000023842,121574.30000001192,8080,temper,AF,C,,,,,,,,,,1
2,prac,1,inc,1,m,Fri Mar 13 2026 08:57:20 GMT-0500 (Central Daylight Time),127601.20000004768,brutal,1100,I,m,,,623,,,8,2,3027.5,124573.70000004768,8080,window,AF,C,,,,,,,,,,2
3,prac,1,con,1,m,Fri Mar 13 2026 08:57:20 GMT-0500 (Central Daylight Time),130517.10000002384,bell,1000,I,m,,,553,,,3,2,2911.699999988079,127605.40000003576,8080,bell,AF,C,,,,,,,,,,3
4,prac,1,con,1,m,Fri Mar 13 2026 08:57:20 GMT-0500 (Central Daylight Time),133149.70000004768,step,800,I,m,,,520,,,1,2,2628.300000011921,130521.40000003576,8080,step,AF,C,,,,,,,,,,4
5,prac,1,con,1,m,Fri Mar 13 2026 08:57:20 GMT-0500 (Central Daylight Time),135798.80000001192,jacket,800,I,m,,,534,,,5,2,2644.599999964237,133154.20000004768,8080,jacket,AF,C,,,,,,,,,,5
6,prac,1,inc,1,m,Fri Mar 13 2026 08:57:20 GMT-0500 (Central Daylight Time),138814.40000003576,hate,1100,I,m,,,610,,,4,2,3011.300000011921,135803.10000002384,8080,film,AF,C,,,,,,,,,,6
7,prac,1,con,1,z,Fri Mar 13 2026 08:57:20 GMT-0500 (Central Daylight Time),141346.90000003576,elated,800,I,z,,,422,,,9,2,2528.100000023842,138818.80000001192,8080,elated,AF,C,,,,,,,,,,7
8,prac,1,inc,1,m,Fri Mar 13 2026 08:57:20 GMT-0500 (Central Daylight Time),144129.5,kind,900,I,m,,,573,,,2,2,2778.199999988079,141351.30000001192,8080,rock,AF,C,,,,,,,,,,8
9,prac,1,inc,1,z,Fri Mar 13 2026 08:57:20 GMT-0500 (Central Daylight Time),146828.60000002384,film,900,I,z,,,486,,,14,2,2694.600000023842,144134.0,8080,hate,AF,C,,,,,,,,,,9
9,prac,1,con,0,z,Fri Mar 13 2026 08:57:20 GMT-0500 (Central Daylight Time),149377.90000003576,brutal,800,I,m,,,446,,,13,2,2544.900000035763,146833.0,8080,brutal,AF,C,,,,,,,,,,10
10,prac,1,con,1,z,Fri Mar 13 2026 08:57:20 GMT-0500 (Central Daylight Time),152093.70000004768,love,1000,I,z,,,410,,,11,2,2710.600000023842,149383.10000002384,8080,love,AF,C,,,,,,,,,,11
11,prac,1,inc,1,z,Fri Mar 13 2026 08:57:20 GMT-0500 (Central Daylight Time),154726.40000003576,rock,900,I,z,,,418,,,10,2,2628.199999988079,152098.20000004768,8080,kind,AF,C,,,,,,,,,,12
12,prac,1,con,1,z,Fri Mar 13 2026 08:57:20 GMT-0500 (Central Daylight Time),157441.90000003576,rage,1000,I,z,,,406,,,15,2,2711.300000011921,154730.60000002384,8080,rage,AF,C,,,,,,,,,,13
13,prac,1,con,1,m,Fri Mar 13 2026 08:57:20 GMT-0500 (Central Daylight Time),160291.10000002384,remote,1000,I,m,,,539,,,7,2,2845.300000011921,157445.80000001192,8080,remote,AF,C,,,,,,,,,,14
14,prac,1,inc,1,z,Fri Mar 13 2026 08:57:20 GMT-0500 (Central Daylight Time),163474.70000004768,napkin,1100,I,z,,,781,,,12,2,3179.5,160295.20000004768,8080,friend,AF,C,,,,,,,,,,15
15,prac,1,inc,1,m,Fri Mar 13 2026 08:57:20 GMT-0500 (Central Daylight Time),166256.10000002384,elated,900,I,m,,,566,,,6,2,2777.0,163479.10000002384,8080,napkin,AF,C,,,,,,,,,,16
1,test,1,inc,1,m,Fri Mar 13 2026 08:57:20 GMT-0500 (Central Daylight Time),181084.5,love,1000,I,m,m,None,520,321.0,199.0,71,2,2062.899999976158,179021.60000002384,8080,step,AF,C,171749,171749,170019,171032,170019,172082,171549,171549,172081,1
2,test,1,inc,1,m,Fri Mar 13 2026 08:57:20 GMT-0500 (Central Daylight Time),183233.90000003576,friend,1100,I,m,m,None,507,308.0,199.0,104,2,2144.900000035763,181089.0,8080,jacket,AF,C,173914,173914,172086,173198,172086,174231,173715,173715,174231,2
3,test,1,con,1,z,Fri Mar 13 2026 08:57:20 GMT-0500 (Central Daylight Time),185366.30000001192,temper,900,I,z,z,None,686,486.0,200.0,58,2,2128.0,183238.30000001192,8080,temper,AF,C,175864,175864,174235,175147,174236,176363,175664,175664,176363,3
4,test,1,con,1,m,Fri Mar 13 2026 08:57:20 GMT-0500 (Central Daylight Time),187465.90000003576,film,1100,I,m,m,None,449,250.0,199.0,92,2,2095.300000011921,185370.60000002384,8080,film,AF,C,178196,178197,176368,177480,176368,178463,177997,177997,178463,4
5,test,1,con,1,m,Fri Mar 13 2026 08:57:20 GMT-0500 (Central Daylight Time),189581.90000003576,rock,1100,I,m,m,None,470,270.0,200.0,76,2,2111.900000035763,187470.0,8080,rock,AF,C,180296,180296,178467,179580,178467,180579,180096,180096,180579,5
6,test,1,con,1,m,Fri Mar 13 2026 08:57:20 GMT-0500 (Central Daylight Time),191464.80000001192,rock,900,I,m,m,None,443,243.0,200.0,74,2,1878.8999999761581,189585.90000003576,8080,rock,AF,C,182212,182212,180583,181495,180583,182462,182012,182012,182462,6
7,test,1,con,1,z,Fri Mar 13 2026 08:57:20 GMT-0500 (Central Daylight Time),193314.30000001192,hate,900,I,z,z,None,415,215.0,200.0,42,2,1845.3999999761581,191468.90000003576,8080,hate,AF,C,184096,184096,182466,183378,182466,184311,183895,183895,184311,7
8,test,1,inc,1,m,Fri Mar 13 2026 08:57:20 GMT-0500 (Central Daylight Time),195413.30000001192,friend,1100,I,m,m,None,462,262.0,200.0,128,2,2093.899999976158,193319.40000003576,8080,window,AF,C,186144,186144,184316,185428,184317,186410,185944,185944,186410,8
9,test,1,inc,1,z,Fri Mar 13 2026 08:57:20 GMT-0500 (Central Daylight Time),197445.90000003576,bell,1000,I,z,z,None,493,294.0,199.0,55,2,2028.699999988079,195417.20000004768,8080,rage,AF,C,188143,188144,186414,187427,186415,188443,187944,187944,188443,9
10,test,1,inc,1,z,Fri Mar 13 2026 08:57:20 GMT-0500 (Central Daylight Time),199574.20000004768,film,1100,I,z,z,None,495,295.0,200.0,48,2,2124.300000011921,197449.90000003576,8080,hate,AF,C,190276,190276,188447,189560,188447,190571,190076,190076,190571,10
11,test,1,con,1,m,Fri Mar 13 2026 08:57:20 GMT-0500 (Central Daylight Time),201511.40000003576,film,1000,I,m,m,None,409,194.0,215.0,91,2,1930.199999988079,199581.20000004768,8080,film,AF,C,192309,192309,190578,191592,190579,192509,192093,192094,192508,11
12,test,1,con,1,m,Fri Mar 13 2026 08:57:20 GMT-0500 (Central Daylight Time),203344.30000001192,step,800,I,m,m,None,483,284.0,199.0,65,2,1827.300000011921,201517.0,8080,step,AF,C,194042,194042,192514,193325,192514,194341,193842,193842,194341,12
13,test,1,inc,1,m,Fri Mar 13 2026 08:57:20 GMT-0500 (Central Daylight Time),205327.0,kind,900,I,m,m,None,543,344.0,199.0,86,2,1978.0,203349.0,8080,bell,AF,C,195974,195974,194346,195258,194346,196324,195775,195775,196324,13
14,test,1,inc,1,z,Fri Mar 13 2026 08:57:20 GMT-0500 (Central Daylight Time),207576.40000003576,film,1100,I,z,z,None,609,408.0,201.0,16,2,2245.100000023842,205331.30000001192,8080,kind,AF,C,198158,198158,196328,197441,196329,198573,197957,197957,198573,14
15,test,1,inc,1,m,Fri Mar 13 2026 08:57:20 GMT-0500 (Central Daylight Time),209492.20000004768,brutal,900,I,m,m,None,473,273.0,200.0,126,2,1911.7000000476837,207580.5,8080,window,AF,C,200206,200206,198578,199490,198578,200489,200006,200006,200489,15
16,test,1,con,1,z,Fri Mar 13 2026 08:57:20 GMT-0500 (Central Daylight Time),211258.30000001192,rage,800,I,z,z,None,423,223.0,200.0,49,2,1761.8999999761581,209496.40000003576,8080,rage,AF,C,202023,202023,200493,201306,200494,202255,201822,201822,202255,16
17,test,1,con,1,z,Fri Mar 13 2026 08:57:20 GMT-0500 (Central Daylight Time),213257.60000002384,hate,1000,I,z,z,None,481,282.0,199.0,43,2,1995.1000000238419,211262.5,8080,hate,AF,C,203972,203972,202260,203272,202260,204255,203773,203773,204255,17
18,test,1,con,1,z,Fri Mar 13 2026 08:57:20 GMT-0500 (Central Daylight Time),215340.60000002384,elated,1100,I,z,z,None,445,246.0,199.0,4,2,2078.899999976158,213261.70000004768,8080,elated,AF,C,206088,206088,204259,205371,204259,206338,205888,205888,206338,18
19,test,1,inc,1,m,Fri Mar 13 2026 08:57:20 GMT-0500 (Central Daylight Time),217507.70000004768,friend,1100,I,m,m,None,522,323.0,199.0,112,2,2163.400000035763,215344.30000001192,8080,napkin,AF,C,208171,208171,206341,207454,206342,208505,207971,207971,208505,19
20,test,1,con,1,z,Fri Mar 13 2026 08:57:20 GMT-0500 (Central Daylight Time),219356.10000002384,kind,900,I,z,z,None,412,213.0,199.0,10,2,1844.300000011921,217511.80000001192,8080,kind,AF,C,210137,210137,208509,209420,208509,210353,209937,209937,210353,20
21,test,1,inc,1,z,Fri Mar 13 2026 08:57:20 GMT-0500 (Central Daylight Time),221455.20000004768,bell,1000,I,z,z,None,560,360.0,200.0,23,2,2095.300000011921,219359.90000003576,8080,love,AF,C,212086,212086,210357,211370,210357,212452,211886,211886,212452,21
22,test,1,con,1,z,Fri Mar 13 2026 08:57:20 GMT-0500 (Central Daylight Time),223354.40000003576,elated,900,I,z,z,None,456,147.0,309.0,2,2,1893.800000011921,221460.60000002384,8080,elated,AF,C,214195,214195,212458,213369,212458,214351,213886,213886,214351,22
23,test,1,inc,1,m,Fri Mar 13 2026 08:57:20 GMT-0500 (Central Daylight Time),225404.20000004768,temper,1000,I,m,m,None,512,313.0,199.0,103,2,2045.5,223358.70000004768,8080,jacket,AF,C,216085,216085,214356,215368,214356,216401,215885,215885,216401,23
24,test,1,con,1,m,Fri Mar 13 2026 08:57:20 GMT-0500 (Central Daylight Time),227470.10000002384,step,1000,I,m,m,None,528,328.0,200.0,67,2,2062.0,225408.10000002384,8080,step,AF,C,218134,218134,216405,217418,216405,218467,217934,217934,218467,24
25,test,1,con,1,m,Fri Mar 13 2026 08:57:20 GMT-0500 (Central Daylight Time),229603.80000001192,jacket,1100,I,m,m,None,490,290.0,200.0,100,2,2130.0,227473.80000001192,8080,jacket,AF,C,220300,220300,218471,219584,218471,220601,220100,220100,220601,25
26,test,1,con,1,m,Fri Mar 13 2026 08:57:20 GMT-0500 (Central Daylight Time),231885.40000003576,bell,1000,I,m,m,None,744,545.0,199.0,83,2,2277.300000011921,229608.10000002384,8080,bell,AF,C,222333,222333,220605,221616,220605,222882,222134,222134,222882,26
27,test,1,inc,1,z,Fri Mar 13 2026 08:57:20 GMT-0500 (Central Daylight Time),233818.10000002384,jacket,800,I,z,z,None,599,400.0,199.0,37,2,1928.699999988079,231889.40000003576,8080,brutal,AF,C,224415,224415,222886,223699,222887,224815,224216,224216,224815,27
28,test,1,inc,1,m,Fri Mar 13 2026 08:57:20 GMT-0500 (Central Daylight Time),235867.60000002384,kind,900,I,m,m,None,614,413.0,201.0,94,2,2044.699999988079,233822.90000003576,8080,film,AF,C,226449,226449,224820,225732,224820,226865,226248,226248,226865,28
29,test,1,con,1,m,Fri Mar 13 2026 08:57:20 GMT-0500 (Central Daylight Time),238083.0,step,1100,I,m,m,None,579,380.0,199.0,68,2,2211.699999988079,235871.30000001192,8080,step,AF,C,228698,228698,226868,227981,226869,229080,228498,228498,229080,29
30,test,1,inc,1,m,Fri Mar 13 2026 08:57:20 GMT-0500 (Central Daylight Time),239949.5,elated,800,I,m,m,None,528,329.0,199.0,101,2,1862.199999988079,238087.30000001192,8080,jacket,AF,C,230614,230614,229084,229897,229085,230947,230414,230414,230947,30
31,test,1,inc,1,m,Fri Mar 13 2026 08:57:20 GMT-0500 (Central Daylight Time),241948.90000003576,kind,900,I,m,m,None,561,346.0,215.0,70,2,1995.699999988079,239953.20000004768,8080,step,AF,C,232596,232596,230950,231863,230951,232946,232381,232381,232946,31
32,test,1,con,1,m,Fri Mar 13 2026 08:57:20 GMT-0500 (Central Daylight Time),243848.40000003576,rock,800,I,m,m,None,551,351.0,200.0,73,2,1895.1000000238419,241953.30000001192,8080,rock,AF,C,234479,234479,232950,233762,232951,234845,234279,234279,234845,32
33,test,1,con,1,m,Fri Mar 13 2026 08:57:20 GMT-0500 (Central Daylight Time),245948.80000001192,bell,1100,I,m,m,None,463,263.0,200.0,84,2,2096.199999988079,243852.60000002384,8080,bell,AF,C,236678,236679,234850,235962,234850,236946,236478,236478,236946,33
34,test,1,con,1,z,Fri Mar 13 2026 08:57:20 GMT-0500 (Central Daylight Time),247813.60000002384,rage,900,I,z,z,None,420,220.0,200.0,50,2,1860.6000000238419,245953.0,8080,rage,AF,C,238578,238578,236950,237865,236950,238811,238378,238378,238811,34
35,test,1,con,1,z,Fri Mar 13 2026 08:57:20 GMT-0500 (Central Daylight Time),249613.20000004768,elated,800,I,z,z,None,463,263.0,200.0,1,2,1795.7000000476837,247817.5,8080,elated,AF,C,240344,240344,238815,239627,238815,240610,240144,240144,240610,35
36,test,1,con,1,m,Fri Mar 13 2026 08:57:20 GMT-0500 (Central Daylight Time),251712.40000003576,window,1100,I,m,m,None,451,250.0,201.0,124,2,2095.5,249616.90000003576,8080,window,AF,C,242444,242444,240614,241726,240614,242710,242243,242243,242709,36
37,test,1,inc,1,m,Fri Mar 13 2026 08:57:20 GMT-0500 (Central Daylight Time),253795.60000002384,love,1000,I,m,m,None,548,347.0,201.0,95,2,2079.399999976158,251716.20000004768,8080,film,AF,C,244443,244443,242713,243726,242713,244793,244242,244242,244793,37
37,test,1,con,0,z,Fri Mar 13 2026 08:57:20 GMT-0500 (Central Daylight Time),255944.40000003576,friend,1100,I,m,m,None,501,301.0,200.0,28,2,2145.199999988079,253799.20000004768,8080,friend,AF,C,246625,246625,244796,245909,244797,246942,246425,246425,246941,38
38,test,1,inc,1,z,Fri Mar 13 2026 08:57:20 GMT-0500 (Central Daylight Time),258143.90000003576,film,1100,I,z,z,None,550,351.0,199.0,56,2,2195.400000035763,255948.5,8080,rage,AF,C,248775,248775,246945,248058,246946,249141,248575,248575,249141,39
39,test,1,con,1,z,Fri Mar 13 2026 08:57:20 GMT-0500 (Central Daylight Time),260009.60000002384,love,900,I,z,z,None,423,224.0,199.0,18,2,1861.699999988079,258147.90000003576,8080,love,AF,C,250774,250774,249145,250059,249145,251007,250574,250574,251007,40
40,test,1,con,1,m,Fri Mar 13 2026 08:57:20 GMT-0500 (Central Daylight Time),261859.20000004768,film,800,I,m,m,None,507,307.0,200.0,89,2,1845.5,260013.70000004768,8080,film,AF,C,252540,252540,251011,251823,251011,252856,252340,252340,252856,41
41,test,1,inc,1,m,Fri Mar 13 2026 08:57:20 GMT-0500 (Central Daylight Time),263892.0,temper,1000,I,m,m,None,495,295.0,200.0,111,2,2029.0999999642372,261862.90000003576,8080,napkin,AF,C,254591,254591,252860,253873,252860,254889,254389,254390,254889,42
42,test,1,con,1,m,Fri Mar 13 2026 08:57:20 GMT-0500 (Central Daylight Time),265824.90000003576,bell,900,I,m,m,None,492,292.0,200.0,82,2,1929.300000011921,263895.60000002384,8080,bell,AF,C,256522,256522,254893,255806,254893,256822,256322,256322,256822,43
43,test,1,con,1,m,Fri Mar 13 2026 08:57:20 GMT-0500 (Central Daylight Time),267891.7000000477,jacket,1000,I,m,m,None,530,331.0,199.0,99,2,2063.2000000476837,265828.5,8080,jacket,AF,C,258555,258555,256826,257838,256826,258889,258355,258355,258889,44
44,test,1,con,1,z,Fri Mar 13 2026 08:57:20 GMT-0500 (Central Daylight Time),269740.2000000477,friend,800,I,z,z,None,505,306.0,199.0,25,2,1844.5,267895.7000000477,8080,friend,AF,C,260421,260421,258893,259704,258893,260737,260221,260221,260737,45
45,test,1,con,1,z,Fri Mar 13 2026 08:57:20 GMT-0500 (Central Daylight Time),271822.8000000119,temper,1100,I,z,z,None,460,261.0,199.0,60,2,2079.099999964237,269743.7000000477,8080,temper,AF,C,262554,262554,260741,261853,260741,262820,262354,262354,262820,46
46,test,1,inc,1,m,Fri Mar 13 2026 08:57:20 GMT-0500 (Central Daylight Time),273972.0,hate,1100,I,m,m,None,513,313.0,200.0,96,2,2145.199999988079,271826.8000000119,8080,film,AF,C,264653,264653,262824,263937,262824,264969,264453,264453,264969,47
47,test,1,con,1,m,Fri Mar 13 2026 08:57:20 GMT-0500 (Central Daylight Time),275905.10000002384,napkin,900,I,m,m,None,482,283.0,199.0,106,2,1929.300000011921,273975.8000000119,8080,napkin,AF,C,266603,266603,264973,265886,264973,266902,266404,266404,266902,48
48,test,1,con,1,z,Fri Mar 13 2026 08:57:20 GMT-0500 (Central Daylight Time),277987.60000002384,love,1100,I,z,z,None,439,239.0,200.0,20,2,2078.800000011921,275908.8000000119,8080,love,AF,C,268735,268735,266906,268018,266906,268985,268535,268535,268985,49
49,test,1,con,1,m,Fri Mar 13 2026 08:57:20 GMT-0500 (Central Daylight Time),280103.60000002384,napkin,1100,I,m,m,None,477,278.0,199.0,108,2,2112.0,277991.60000002384,8080,napkin,AF,C,270817,270817,268989,270101,268989,271101,270618,270618,271101,50
49,test,1,inc,0,m,Fri Mar 13 2026 08:57:20 GMT-0500 (Central Daylight Time),282219.7000000477,elated,800,I,z,z,None,772,573.0,199.0,117,2,2112.100000023842,280107.60000002384,8080,remote,AF,C,272634,272634,271105,271917,271105,273217,272434,272434,273217,51
50,test,1,con,1,z,Fri Mar 13 2026 08:57:20 GMT-0500 (Central Daylight Time),283985.8000000119,hate,800,I,z,z,None,433,234.0,199.0,41,2,1762.5,282223.3000000119,8080,hate,AF,C,274733,274733,273220,274033,273221,274983,274534,274534,274983,52
51,test,1,inc,1,z,Fri Mar 13 2026 08:57:20 GMT-0500 (Central Daylight Time),286201.7000000477,remote,1000,I,z,z,None,673,474.0,199.0,31,2,2211.900000035763,283989.8000000119,8080,friend,AF,C,276716,276716,274987,276001,274987,277199,276516,276516,277199,53
52,test,1,inc,1,m,Fri Mar 13 2026 08:57:20 GMT-0500 (Central Daylight Time),288217.7000000477,temper,1000,I,m,m,None,474,274.0,200.0,127,2,2012.4000000357628,286205.3000000119,8080,window,AF,C,278932,278932,277202,278215,277203,279215,278732,278732,279215,54
53,test,1,inc,1,m,Fri Mar 13 2026 08:57:20 GMT-0500 (Central Daylight Time),290218.3000000119,brutal,900,I,m,m,None,550,350.0,200.0,110,2,1996.5999999642372,288221.7000000477,8080,napkin,AF,C,280848,280848,279219,280131,279219,281215,280648,280648,281215,55
54,test,1,inc,1,z,Fri Mar 13 2026 08:57:20 GMT-0500 (Central Daylight Time),292266.5,bell,1000,I,z,z,None,507,307.0,200.0,47,2,2044.3999999761581,290222.10000002384,8080,hate,AF,C,282947,282947,281219,282231,281219,283264,282747,282747,283264,56
55,test,1,inc,1,z,Fri Mar 13 2026 08:57:20 GMT-0500 (Central Daylight Time),294300.10000002384,rock,900,I,z,z,None,519,311.0,208.0,54,2,2029.699999988079,292270.40000003576,8080,rage,AF,C,284984,284984,283267,284181,283268,285297,284776,284776,285297,57
56,test,1,con,1,z,Fri Mar 13 2026 08:57:20 GMT-0500 (Central Daylight Time),296398.60000002384,hate,1100,I,z,z,None,461,261.0,200.0,44,2,2094.699999988079,294303.90000003576,8080,hate,AF,C,287129,287129,285301,286413,285301,287396,286929,286929,287396,58
57,test,1,inc,1,z,Fri Mar 13 2026 08:57:20 GMT-0500 (Central Daylight Time),298247.7000000477,jacket,800,I,z,z,None,508,309.0,199.0,5,2,1845.6000000238419,296402.10000002384,8080,elated,AF,C,288929,288929,287399,288212,287399,289245,288729,288729,289245,59
58,test,1,inc,1,z,Fri Mar 13 2026 08:57:20 GMT-0500 (Central Daylight Time),300197.10000002384,napkin,900,I,z,z,None,512,312.0,200.0,6,2,1945.3999999761581,298251.7000000477,8080,elated,AF,C,290878,290878,289249,290162,289249,291194,290678,290678,291194,60
59,test,1,inc,1,z,Fri Mar 13 2026 08:57:20 GMT-0500 (Central Daylight Time),302064.10000002384,step,800,I,z,z,None,518,319.0,199.0,21,2,1863.1000000238419,300201.0,8080,love,AF,C,292727,292727,291198,292011,291198,293061,292528,292528,293061,61
60,test,1,inc,1,m,Fri Mar 13 2026 08:57:20 GMT-0500 (Central Daylight Time),303862.7000000477,elated,800,I,m,m,None,461,261.0,200.0,109,2,1793.800000011921,302068.90000003576,8080,napkin,AF,C,294594,294594,293066,293877,293066,294860,294393,294393,294860,62
61,test,1,con,1,m,Fri Mar 13 2026 08:57:20 GMT-0500 (Central Daylight Time),305913.40000003576,napkin,1000,I,m,m,None,501,301.0,200.0,107,2,2046.800000011921,303866.60000002384,8080,napkin,AF,C,296593,296593,294864,295877,294864,296910,296393,296393,296910,63
62,test,1,con,1,z,Fri Mar 13 2026 08:57:20 GMT-0500 (Central Daylight Time),307994.60000002384,kind,1100,I,z,z,None,441,241.0,200.0,12,2,2077.399999976158,305917.2000000477,8080,kind,AF,C,298742,298742,296914,298026,296914,298992,298542,298542,298992,64
63,test,1,con,1,z,Fri Mar 13 2026 08:57:20 GMT-0500 (Central Daylight Time),309877.3000000119,brutal,900,I,z,z,None,443,228.0,215.0,34,2,1879.0999999642372,307998.2000000477,8080,brutal,AF,C,300642,300642,298995,299909,298995,300874,300426,300426,300874,65
64,test,1,con,1,m,Fri Mar 13 2026 08:57:20 GMT-0500 (Central Daylight Time),311660.3000000119,napkin,800,I,m,m,None,445,246.0,199.0,105,2,1778.800000011921,309881.5,8080,napkin,AF,C,302408,302408,300879,301691,300879,302657,302208,302208,302657,66
65,test,1,inc,1,m,Fri Mar 13 2026 08:57:20 GMT-0500 (Central Daylight Time),313576.5,brutal,900,I,m,m,None,474,275.0,199.0,102,2,1912.699999988079,311663.8000000119,8080,jacket,AF,C,304291,304291,302661,303574,302661,304574,304091,304091,304574,67
65,test,1,con,0,m,Fri Mar 13 2026 08:57:20 GMT-0500 (Central Daylight Time),315576.0,remote,800,I,z,z,None,659,460.0,199.0,113,2,1996.0,313580.0,8080,remote,AF,C,306107,306107,304577,305390,304577,306573,305907,305907,306573,68
66,test,1,con,1,m,Fri Mar 13 2026 08:57:20 GMT-0500 (Central Daylight Time),317486.60000002384,jacket,900,I,m,m,None,477,147.0,330.0,98,2,1906.800000011921,315579.8000000119,8080,jacket,AF,C,308337,308337,306577,307489,306577,308484,308006,308006,308484,69
67,test,1,inc,1,m,Fri Mar 13 2026 08:57:20 GMT-0500 (Central Daylight Time),319424.60000002384,rage,800,I,m,m,None,608,408.0,200.0,77,2,1933.699999988079,317490.90000003576,8080,rock,AF,C,310006,310006,308488,309289,308488,310422,309805,309805,310422,70
68,test,1,con,1,m,Fri Mar 13 2026 08:57:20 GMT-0500 (Central Daylight Time),321224.10000002384,jacket,800,I,m,m,None,459,260.0,199.0,97,2,1796.0,319428.10000002384,8080,jacket,AF,C,311955,311955,310425,311238,310425,312221,311755,311755,312221,71
69,test,1,inc,1,m,Fri Mar 13 2026 08:57:20 GMT-0500 (Central Daylight Time),323306.7000000477,love,1000,I,m,m,None,548,348.0,200.0,87,2,2078.5,321228.2000000477,8080,bell,AF,C,313954,313954,312225,313239,312225,314304,313754,313754,314304,72
70,test,1,con,1,z,Fri Mar 13 2026 08:57:20 GMT-0500 (Central Daylight Time),325089.3000000119,kind,800,I,z,z,None,433,233.0,200.0,9,2,1779.0,323310.3000000119,8080,kind,AF,C,315837,315837,314307,315120,314308,316087,315637,315637,316086,73
70,test,1,inc,0,z,Fri Mar 13 2026 08:57:20 GMT-0500 (Central Daylight Time),327072.2000000477,remote,1000,I,m,m,None,450,251.0,199.0,63,2,1979.2000000476837,325093.0,8080,temper,AF,C,317803,317803,316090,317103,316090,318069,317604,317604,318069,74
71,test,1,inc,1,z,Fri Mar 13 2026 08:57:20 GMT-0500 (Central Daylight Time),329121.90000003576,remote,1000,I,z,z,None,501,301.0,200.0,7,2,2045.199999988079,327076.7000000477,8080,elated,AF,C,319802,319802,318074,319086,318074,320119,319602,319602,320119,75
72,test,1,con,1,z,Fri Mar 13 2026 08:57:20 GMT-0500 (Central Daylight Time),331687.5,brutal,1100,I,z,z,None,926,727.0,199.0,36,2,2562.099999964237,329125.40000003576,8080,brutal,AF,C,321952,321952,320122,321235,320123,322685,321752,321752,322685,76
73,test,1,inc,1,z,Fri Mar 13 2026 08:57:20 GMT-0500 (Central Daylight Time),333603.5,jacket,800,I,z,z,None,572,373.0,199.0,29,2,1912.2999999523163,331691.2000000477,8080,friend,AF,C,324218,324218,322688,323501,322688,324601,324018,324018,324601,77
74,test,1,inc,1,z,Fri Mar 13 2026 08:57:20 GMT-0500 (Central Daylight Time),335819.60000002384,film,1100,I,z,z,None,572,373.0,199.0,24,2,2212.399999976158,333607.2000000477,8080,love,AF,C,326434,326434,324604,325717,324605,326817,326234,326234,326817,78
75,test,1,inc,1,m,Fri Mar 13 2026 08:57:20 GMT-0500 (Central Daylight Time),337802.10000002384,rage,800,I,m,m,None,632,432.0,200.0,85,2,1979.0,335823.10000002384,8080,bell,AF,C,328351,328351,326820,327633,326820,328799,328150,328150,328799,79
76,test,1,con,1,m,Fri Mar 13 2026 08:57:20 GMT-0500 (Central Daylight Time),339585.2000000477,window,800,I,m,m,None,443,243.0,200.0,121,2,1779.4000000357628,337805.8000000119,8080,window,AF,C,330332,330332,328803,329616,328803,330582,330132,330132,330582,80
77,test,1,con,1,z,Fri Mar 13 2026 08:57:20 GMT-0500 (Central Daylight Time),341584.90000003576,elated,1000,I,z,z,None,466,251.0,215.0,3,2,1996.0,339588.90000003576,8080,elated,AF,C,332315,332315,330586,331599,330586,332582,332100,332100,332582,81
77,test,1,con,0,m,Fri Mar 13 2026 08:57:20 GMT-0500 (Central Daylight Time),343783.60000002384,remote,1100,I,z,z,None,550,351.0,199.0,116,2,2195.100000023842,341588.5,8080,remote,AF,C,334414,334415,332586,333698,332586,334781,334214,334215,334781,82
78,test,1,con,1,m,Fri Mar 13 2026 08:57:20 GMT-0500 (Central Daylight Time),345783.40000003576,window,1000,I,m,m,None,451,252.0,199.0,123,2,1996.0,343787.40000003576,8080,window,AF,C,336514,336514,334784,335797,334785,336780,336314,336314,336780,83
79,test,1,inc,1,z,Fri Mar 13 2026 08:57:20 GMT-0500 (Central Daylight Time),347815.8000000119,rock,900,I,z,z,None,586,386.0,200.0,46,2,2028.699999988079,345787.10000002384,8080,hate,AF,C,338413,338413,336784,337697,336784,338813,338213,338213,338813,84
80,test,1,con,1,z,Fri Mar 13 2026 08:57:20 GMT-0500 (Central Daylight Time),349515.0,love,800,I,z,z,None,364,164.0,200.0,17,2,1695.2999999523163,347819.7000000477,8080,love,AF,C,340346,340346,338817,339630,338817,340512,340146,340146,340512,85
81,test,1,inc,1,z,Fri Mar 13 2026 08:57:20 GMT-0500 (Central Daylight Time),351597.90000003576,bell,1000,I,z,z,None,543,327.0,216.0,15,2,2079.300000011921,349518.60000002384,8080,kind,AF,C,342263,342263,340516,341529,340516,342595,342047,342047,342595,86
82,test,1,inc,1,m,Fri Mar 13 2026 08:57:20 GMT-0500 (Central Daylight Time),353563.90000003576,kind,900,I,m,m,None,521,322.0,199.0,78,2,1962.300000011921,351601.60000002384,8080,rock,AF,C,344228,344228,342599,343512,342599,344561,344028,344028,344561,87
83,test,1,inc,1,m,Fri Mar 13 2026 08:57:20 GMT-0500 (Central Daylight Time),355729.90000003576,hate,1100,I,m,m,None,516,317.0,199.0,72,2,2162.300000011921,353567.60000002384,8080,step,AF,C,346394,346394,344565,345677,344565,346727,346194,346194,346727,88
84,test,1,con,1,m,Fri Mar 13 2026 08:57:20 GMT-0500 (Central Daylight Time),357729.5,window,900,I,m,m,None,550,350.0,200.0,122,2,1995.5999999642372,355733.90000003576,8080,window,AF,C,348360,348360,346731,347643,346731,348727,348160,348160,348726,89
85,test,1,inc,1,m,Fri Mar 13 2026 08:57:20 GMT-0500 (Central Daylight Time),359895.3000000119,hate,1100,I,m,m,None,528,328.0,200.0,88,2,2162.0,357733.3000000119,8080,bell,AF,C,350559,350559,348730,349843,348731,350892,350359,350359,350892,90
86,test,1,con,1,z,Fri Mar 13 2026 08:57:20 GMT-0500 (Central Daylight Time),362128.3000000119,friend,1000,I,z,z,None,685,485.0,200.0,27,2,2229.399999976158,359898.90000003576,8080,friend,AF,C,352625,352625,350896,351909,350896,353125,352425,352425,353125,91
87,test,1,inc,1,z,Fri Mar 13 2026 08:57:20 GMT-0500 (Central Daylight Time),364044.10000002384,step,800,I,z,z,None,580,380.0,200.0,13,2,1911.699999988079,362132.40000003576,8080,kind,AF,C,354658,354658,353129,353942,353130,355041,354458,354458,355041,92
88,test,1,con,1,m,Fri Mar 13 2026 08:57:20 GMT-0500 (Central Daylight Time),366076.8000000119,remote,900,I,m,m,None,597,397.0,200.0,114,2,2028.8999999761581,364047.90000003576,8080,remote,AF,C,356674,356674,355045,355958,355045,357074,356474,356474,357074,93
89,test,1,inc,1,m,Fri Mar 13 2026 08:57:20 GMT-0500 (Central Daylight Time),368442.60000002384,friend,1100,I,m,m,None,730,531.0,199.0,120,2,2362.0,366080.60000002384,8080,remote,AF,C,358907,358907,357078,358190,357078,359440,358707,358707,359440,94
90,test,1,con,1,m,Fri Mar 13 2026 08:57:20 GMT-0500 (Central Daylight Time),370258.7000000477,film,900,I,m,m,None,374,175.0,199.0,90,2,1812.6000000238419,368446.10000002384,8080,film,AF,C,361072,361072,359443,360356,359443,361256,360873,360873,361256,95
91,test,1,con,1,m,Fri Mar 13 2026 08:57:20 GMT-0500 (Central Daylight Time),372441.7000000477,rock,1000,I,m,m,None,641,442.0,199.0,75,2,2179.100000023842,370262.60000002384,8080,rock,AF,C,362988,362989,361260,362272,361260,363439,362789,362789,363439,96
92,test,1,inc,1,z,Fri Mar 13 2026 08:57:20 GMT-0500 (Central Daylight Time),374257.60000002384,step,800,I,z,z,None,482,282.0,200.0,45,2,1812.5,372445.10000002384,8080,hate,AF,C,364972,364972,363442,364255,363442,365255,364771,364771,365255,97
93,test,1,inc,1,z,Fri Mar 13 2026 08:57:20 GMT-0500 (Central Daylight Time),376090.3000000119,step,800,I,z,z,None,490,291.0,199.0,53,2,1829.0999999642372,374261.2000000477,8080,rage,AF,C,366788,366788,365258,366071,365259,367087,366588,366588,367087,98
94,test,1,con,1,z,Fri Mar 13 2026 08:57:20 GMT-0500 (Central Daylight Time),377873.0,temper,800,I,z,z,None,432,217.0,215.0,57,2,1779.0,376094.0,8080,temper,AF,C,368637,368637,367091,367904,367091,368870,368422,368422,368870,99
95,test,1,inc,1,z,Fri Mar 13 2026 08:57:20 GMT-0500 (Central Daylight Time),379989.0,napkin,900,I,z,z,None,672,472.0,200.0,30,2,2112.399999976158,377876.60000002384,8080,friend,AF,C,370503,370503,368874,369787,368874,370986,370303,370303,370986,100
96,test,1,con,1,z,Fri Mar 13 2026 08:57:20 GMT-0500 (Central Daylight Time),381921.7000000477,love,1000,I,z,z,None,399,199.0,200.0,19,2,1929.300000011921,379992.40000003576,8080,love,AF,C,372719,372719,370989,372003,370990,372919,372519,372519,372919,101
97,test,1,inc,1,z,Fri Mar 13 2026 08:57:20 GMT-0500 (Central Daylight Time),383871.2000000477,jacket,800,I,z,z,None,602,402.0,200.0,61,2,1946.0,381925.2000000477,8080,temper,AF,C,374452,374452,372922,373735,372923,374868,374252,374252,374868,102
98,test,1,inc,1,z,Fri Mar 13 2026 08:57:20 GMT-0500 (Central Daylight Time),386087.3000000119,window,1100,I,z,z,None,577,377.0,200.0,40,2,2212.5,383874.8000000119,8080,brutal,AF,C,376701,376701,374872,375985,374872,377084,376501,376501,377084,103
99,test,1,inc,1,m,Fri Mar 13 2026 08:57:20 GMT-0500 (Central Daylight Time),388236.10000002384,hate,1100,I,m,m,None,512,312.0,200.0,80,2,2145.100000023842,386091.0,8080,rock,AF,C,378917,378917,377088,378200,377088,379233,378717,378717,379233,104
100,test,1,con,1,z,Fri Mar 13 2026 08:57:20 GMT-0500 (Central Daylight Time),390152.7000000477,brutal,800,I,z,z,None,566,367.0,199.0,33,2,1910.1000000238419,388242.60000002384,8080,brutal,AF,C,380767,380767,379240,380050,379240,381150,380567,380567,381150,105
101,test,1,inc,1,z,Fri Mar 13 2026 08:57:20 GMT-0500 (Central Daylight Time),392052.0,rock,900,I,z,z,None,463,264.0,199.0,22,2,1895.699999988079,390156.3000000119,8080,love,AF,C,382782,382782,381153,382066,381153,383049,382583,382583,383049,106
102,test,1,inc,1,m,Fri Mar 13 2026 08:57:20 GMT-0500 (Central Daylight Time),394017.90000003576,rage,800,I,m,m,None,625,425.0,200.0,69,2,1962.0,392055.90000003576,8080,step,AF,C,384582,384582,383053,383865,383053,385015,384382,384382,385015,107
103,test,1,inc,1,z,Fri Mar 13 2026 08:57:20 GMT-0500 (Central Daylight Time),396084.10000002384,napkin,900,I,z,z,None,630,430.0,200.0,38,2,2062.300000011921,394021.8000000119,8080,brutal,AF,C,386648,386648,385019,385932,385019,387081,386448,386448,387081,108
104,test,1,con,1,z,Fri Mar 13 2026 08:57:20 GMT-0500 (Central Daylight Time),398066.7000000477,temper,1000,I,z,z,None,439,240.0,199.0,59,2,1978.5,396088.2000000477,8080,temper,AF,C,388814,388814,387085,388097,387085,389064,388615,388615,389064,109
105,test,1,con,1,z,Fri Mar 13 2026 08:57:20 GMT-0500 (Central Daylight Time),400332.7000000477,kind,1000,I,z,z,None,729,530.0,199.0,11,2,2262.300000011921,398070.40000003576,8080,kind,AF,C,390797,390797,389067,390080,389068,391330,390597,390597,391330,110
105,test,1,inc,0,m,Fri Mar 13 2026 08:57:20 GMT-0500 (Central Daylight Time),402365.40000003576,temper,1000,I,z,z,None,495,296.0,199.0,119,2,2028.699999988079,400336.7000000477,8080,remote,AF,C,393063,393063,391334,392346,391334,393362,392864,392864,393362,111
106,test,1,con,1,z,Fri Mar 13 2026 08:57:20 GMT-0500 (Central Daylight Time),404364.90000003576,rage,1100,I,z,z,None,364,164.0,200.0,52,2,1995.9000000357628,402369.0,8080,rage,AF,C,395195,395195,393366,394479,393366,395362,394995,394995,395362,112
106,test,1,inc,0,z,Fri Mar 13 2026 08:57:20 GMT-0500 (Central Daylight Time),406414.10000002384,window,1100,I,m,m,None,403,204.0,199.0,64,2,2045.800000011921,404368.3000000119,8080,temper,AF,C,397195,397195,395365,396478,395366,397411,396995,396995,397411,113
107,test,1,inc,1,m,Fri Mar 13 2026 08:57:20 GMT-0500 (Central Daylight Time),408313.60000002384,elated,800,I,m,m,None,559,359.0,200.0,125,2,1896.0,406417.60000002384,8080,window,AF,C,398944,398944,397415,398228,397415,399311,398744,398744,399311,114
108,test,1,con,1,z,Fri Mar 13 2026 08:57:20 GMT-0500 (Central Daylight Time),410562.90000003576,friend,900,I,z,z,None,806,606.0,200.0,26,2,2245.600000023842,408317.3000000119,8080,friend,AF,C,400944,400944,399314,400227,399314,401560,400744,400744,401560,115
108,test,1,con,0,m,Fri Mar 13 2026 08:57:20 GMT-0500 (Central Daylight Time),412628.8000000119,remote,1000,I,z,z,None,438,238.0,200.0,115,2,2062.0,410566.8000000119,8080,remote,AF,C,403376,403376,401564,402673,401564,403626,403176,403176,403626,116
109,test,1,inc,1,z,Fri Mar 13 2026 08:57:20 GMT-0500 (Central Daylight Time),414878.40000003576,remote,1000,I,z,z,None,711,511.0,200.0,39,2,2245.900000035763,412632.5,8080,brutal,AF,C,405359,405359,403630,404643,403630,405875,405159,405159,405875,117
110,test,1,inc,1,z,Fri Mar 13 2026 08:57:20 GMT-0500 (Central Daylight Time),417110.7000000477,window,1100,I,z,z,None,587,387.0,200.0,8,2,2228.7000000476837,414882.0,8080,elated,AF,C,407708,407708,405879,406992,405879,408108,407508,407508,408108,118
111,test,1,inc,1,m,Fri Mar 13 2026 08:57:20 GMT-0500 (Central Daylight Time),419226.7000000477,brutal,900,I,m,m,None,674,474.0,200.0,118,2,2112.5,417114.2000000477,8080,remote,AF,C,409741,409741,408111,409024,408111,410224,409541,409541,410224,119
112,test,1,inc,1,m,Fri Mar 13 2026 08:57:20 GMT-0500 (Central Daylight Time),421126.10000002384,rage,800,I,m,m,None,561,362.0,199.0,93,2,1895.800000011921,419230.3000000119,8080,film,AF,C,411757,411757,410227,411041,410228,412123,411557,411557,412123,120
113,test,1,inc,1,z,Fri Mar 13 2026 08:57:20 GMT-0500 (Central Daylight Time),423192.2000000477,rock,900,I,z,z,None,625,426.0,199.0,14,2,2062.5,421129.7000000477,8080,kind,AF,C,413756,413756,412127,413041,412127,414189,413557,413557,414189,121
114,test,1,con,1,m,Fri Mar 13 2026 08:57:20 GMT-0500 (Central Daylight Time),425258.3000000119,step,900,I,m,m,None,624,424.0,200.0,66,2,2062.0,423196.3000000119,8080,step,AF,C,415822,415822,414193,415106,414194,416255,415622,415622,416255,122
115,test,1,inc,1,z,Fri Mar 13 2026 08:57:20 GMT-0500 (Central Daylight Time),427307.40000003576,napkin,900,I,z,z,None,605,406.0,199.0,62,2,2045.6000000238419,425261.8000000119,8080,temper,AF,C,417888,417888,416259,417172,416259,418305,417689,417689,418304,123
116,test,1,inc,1,m,Fri Mar 13 2026 08:57:20 GMT-0500 (Central Daylight Time),429391.5,love,1000,I,m,m,None,544,345.0,199.0,79,2,2080.599999964237,427310.90000003576,8080,rock,AF,C,420038,420038,418308,419321,418308,420389,419838,419838,420389,124
117,test,1,con,1,m,Fri Mar 13 2026 08:57:20 GMT-0500 (Central Daylight Time),431256.60000002384,bell,800,I,m,m,None,518,318.0,200.0,81,2,1861.300000011921,429395.3000000119,8080,bell,AF,C,421920,421920,420392,421204,420393,422254,421720,421720,422254,125
118,test,1,inc,1,z,Fri Mar 13 2026 08:57:20 GMT-0500 (Central Daylight Time),433489.90000003576,window,1100,I,z,z,None,593,393.0,200.0,32,2,2229.300000011921,431260.60000002384,8080,friend,AF,C,424086,424086,422258,423370,422258,424487,423886,423886,424487,126
119,test,1,con,1,z,Fri Mar 13 2026 08:57:20 GMT-0500 (Central Daylight Time),435638.2000000477,rage,1000,I,z,z,None,611,265.0,346.0,51,2,2144.800000011921,433493.40000003576,8080,rage,AF,C,426365,426365,424490,425503,424491,426635,426019,426019,426635,127
119,test,1,con,0,z,Fri Mar 13 2026 08:57:20 GMT-0500 (Central Daylight Time),437937.8000000119,brutal,1000,I,m,m,None,757,557.0,200.0,35,2,2295.899999976158,435641.90000003576,8080,brutal,AF,C,428369,428369,426639,427652,426639,428935,428168,428168,428935,128
