acc_sum,block,block_c,change,condition,correct,correct_response,datetime,endtime,face,project,response,response_time,row_sel,session_number,start_end,starttime,subject_id,task,task_vers,trial
0,prac,1,,1-Back,,,Mon Mar 16 2026 14:34:00 GMT-0400 (Eastern Daylight Time),,093_m_f_n_a.png,I,space,8605,1,1,,,9064,NNB,C,0
1,prac,1,0.0,1-Back,1.0,m,Mon Mar 16 2026 14:34:00 GMT-0400 (Eastern Daylight Time),182375.5,098_y_f_n_a.png,I,m,1187,2,1,2135.0,180240.5,9064,NNB,C,1
1,prac,1,1.0,1-Back,0.0,z,Mon Mar 16 2026 14:34:00 GMT-0400 (Eastern Daylight Time),185158.5,098_y_f_n_a.png,I,None,2004,3,1,2770.899999999441,182387.60000000056,9064,NNB,C,2
2,prac,1,0.0,1-Back,1.0,m,Mon Mar 16 2026 14:34:00 GMT-0400 (Eastern Daylight Time),187641.7999999998,059_o_m_n_a.png,I,m,1514,4,1,2466.399999999441,185175.40000000037,9064,NNB,C,3
3,prac,1,0.0,1-Back,1.0,m,Mon Mar 16 2026 14:34:00 GMT-0400 (Eastern Daylight Time),189525.7999999998,092_m_m_n_a.png,I,m,926,5,1,1876.2999999998137,187649.5,9064,NNB,C,4
4,prac,1,1.0,1-Back,1.0,z,Mon Mar 16 2026 14:34:00 GMT-0400 (Eastern Daylight Time),191175.40000000037,092_m_m_n_a.png,I,z,868,6,1,1638.7999999998137,189536.60000000056,9064,NNB,C,5
5,prac,1,0.0,1-Back,1.0,m,Mon Mar 16 2026 14:34:00 GMT-0400 (Eastern Daylight Time),193225.5,130_o_f_n_a.png,I,m,1048,7,1,2036.0,191189.5,9064,NNB,C,6
6,prac,1,0.0,1-Back,1.0,m,Mon Mar 16 2026 14:34:00 GMT-0400 (Eastern Daylight Time),195492.0,082_m_m_n_a.png,I,m,1339,8,1,2256.399999999441,193235.60000000056,9064,NNB,C,7
7,prac,1,0.0,1-Back,1.0,m,Mon Mar 16 2026 14:34:00 GMT-0400 (Eastern Daylight Time),197342.10000000056,093_m_f_n_a.png,I,m,1059,9,1,1837.0,195505.10000000056,9064,NNB,C,8
8,prac,1,1.0,1-Back,1.0,z,Mon Mar 16 2026 14:34:00 GMT-0400 (Eastern Daylight Time),198975.2000000002,093_m_f_n_a.png,I,z,846,10,1,1616.5999999996275,197358.60000000056,9064,NNB,C,9
9,prac,1,0.0,1-Back,1.0,m,Mon Mar 16 2026 14:34:00 GMT-0400 (Eastern Daylight Time),200842.2000000002,059_o_m_n_a.png,I,m,1076,11,1,1857.4000000003725,198984.7999999998,9064,NNB,C,10
10,prac,1,0.0,1-Back,1.0,m,Mon Mar 16 2026 14:34:00 GMT-0400 (Eastern Daylight Time),202992.0,028_y_f_n_a.png,I,m,1239,12,1,2138.7999999998137,200853.2000000002,9064,NNB,C,11
0,test,1,0.0,1-Back,,,Mon Mar 16 2026 14:34:00 GMT-0400 (Eastern Daylight Time),202992.0,098_y_f_n_a.png,I,space,8246,1,1,2138.7999999998137,200853.2000000002,9064,NNB,C,0
1,test,1,0.0,1-Back,1.0,m,Mon Mar 16 2026 14:34:00 GMT-0400 (Eastern Daylight Time),227692.0,006_m_f_n_a.png,I,m,918,2,1,1938.8999999994412,225753.10000000056,9064,NNB,C,1
2,test,1,0.0,1-Back,1.0,m,Mon Mar 16 2026 14:34:00 GMT-0400 (Eastern Daylight Time),229642.10000000056,028_y_f_n_a.png,I,m,920,3,1,1941.1000000005588,227701.0,9064,NNB,C,2
3,test,1,1.0,1-Back,1.0,z,Mon Mar 16 2026 14:34:00 GMT-0400 (Eastern Daylight Time),231208.40000000037,028_y_f_n_a.png,I,z,538,4,1,1555.7000000001863,229652.7000000002,9064,NNB,C,3
4,test,1,0.0,1-Back,1.0,m,Mon Mar 16 2026 14:34:00 GMT-0400 (Eastern Daylight Time),232858.60000000056,006_m_f_n_a.png,I,m,628,5,1,1642.7000000001863,231215.90000000037,9064,NNB,C,4
5,test,1,0.0,1-Back,1.0,m,Mon Mar 16 2026 14:34:00 GMT-0400 (Eastern Daylight Time),234774.90000000037,059_o_m_n_a.png,I,m,896,6,1,1906.7000000001863,232868.2000000002,9064,NNB,C,5
6,test,1,1.0,1-Back,1.0,z,Mon Mar 16 2026 14:34:00 GMT-0400 (Eastern Daylight Time),236558.5,059_o_m_n_a.png,I,z,757,7,1,1779.2999999998137,234779.2000000002,9064,NNB,C,6
7,test,1,0.0,1-Back,1.0,m,Mon Mar 16 2026 14:34:00 GMT-0400 (Eastern Daylight Time),238158.2999999998,092_m_m_n_a.png,I,m,580,8,1,1587.5,236570.7999999998,9064,NNB,C,7
8,test,1,0.0,1-Back,1.0,m,Mon Mar 16 2026 14:34:00 GMT-0400 (Eastern Daylight Time),240008.40000000037,130_o_f_n_a.png,I,m,829,9,1,1842.6000000005588,238165.7999999998,9064,NNB,C,8
9,test,1,0.0,1-Back,1.0,m,Mon Mar 16 2026 14:34:00 GMT-0400 (Eastern Daylight Time),241758.40000000037,092_m_m_n_a.png,I,m,731,10,1,1743.0,240015.40000000037,9064,NNB,C,9
10,test,1,0.0,1-Back,1.0,m,Mon Mar 16 2026 14:34:00 GMT-0400 (Eastern Daylight Time),243458.5,057_y_m_n_a.png,I,m,677,11,1,1691.7000000001863,241766.7999999998,9064,NNB,C,10
11,test,1,1.0,1-Back,1.0,z,Mon Mar 16 2026 14:34:00 GMT-0400 (Eastern Daylight Time),245191.60000000056,057_y_m_n_a.png,I,z,713,12,1,1725.300000000745,243466.2999999998,9064,NNB,C,11
12,test,1,0.0,1-Back,1.0,m,Mon Mar 16 2026 14:34:00 GMT-0400 (Eastern Daylight Time),247225.0,030_o_f_n_a.png,I,m,1011,13,1,2027.8999999994412,245197.10000000056,9064,NNB,C,12
12,test,1,1.0,1-Back,0.0,z,Mon Mar 16 2026 14:34:00 GMT-0400 (Eastern Daylight Time),248758.2999999998,030_o_f_n_a.png,I,m,507,14,1,1525.0999999996275,247233.2000000002,9064,NNB,C,13
13,test,1,0.0,1-Back,1.0,m,Mon Mar 16 2026 14:34:00 GMT-0400 (Eastern Daylight Time),250742.0,031_y_m_n_a.png,I,m,964,15,1,1976.7000000001863,248765.2999999998,9064,NNB,C,14
14,test,1,0.0,1-Back,1.0,m,Mon Mar 16 2026 14:34:00 GMT-0400 (Eastern Daylight Time),252941.7999999998,093_m_f_n_a.png,I,m,1173,16,1,2188.2999999998137,250753.5,9064,NNB,C,15
15,test,1,0.0,1-Back,1.0,m,Mon Mar 16 2026 14:34:00 GMT-0400 (Eastern Daylight Time),254708.40000000037,146_o_m_n_a.png,I,m,734,17,1,1758.5,252949.90000000037,9064,NNB,C,16
16,test,1,0.0,1-Back,1.0,m,Mon Mar 16 2026 14:34:00 GMT-0400 (Eastern Daylight Time),256391.7000000002,093_m_f_n_a.png,I,m,663,18,1,1676.2000000001863,254715.5,9064,NNB,C,17
0,test,2,0.0,1-Back,,,Mon Mar 16 2026 14:34:00 GMT-0400 (Eastern Daylight Time),256391.7000000002,092_m_m_n_a.png,I,space,2548,1,1,1676.2000000001863,254715.5,9064,NNB,C,0
1,test,2,0.0,1-Back,1.0,m,Mon Mar 16 2026 14:34:00 GMT-0400 (Eastern Daylight Time),262691.60000000056,006_m_f_n_a.png,I,m,701,2,1,1724.2000000001863,260967.40000000037,9064,NNB,C,1
2,test,2,1.0,1-Back,1.0,z,Mon Mar 16 2026 14:34:00 GMT-0400 (Eastern Daylight Time),264491.9000000004,006_m_f_n_a.png,I,z,768,3,1,1796.2000000001863,262695.7000000002,9064,NNB,C,2
3,test,2,0.0,1-Back,1.0,m,Mon Mar 16 2026 14:34:00 GMT-0400 (Eastern Daylight Time),266225.2999999998,092_m_m_n_a.png,I,m,704,4,1,1726.199999999255,264499.10000000056,9064,NNB,C,3
4,test,2,0.0,1-Back,1.0,m,Mon Mar 16 2026 14:34:00 GMT-0400 (Eastern Daylight Time),268025.2999999998,057_y_m_n_a.png,I,m,770,5,1,1791.8999999994412,266233.4000000004,9064,NNB,C,4
5,test,2,0.0,1-Back,1.0,m,Mon Mar 16 2026 14:34:00 GMT-0400 (Eastern Daylight Time),269858.5,098_y_f_n_a.png,I,m,802,6,1,1823.3999999994412,268035.10000000056,9064,NNB,C,5
6,test,2,1.0,1-Back,1.0,z,Mon Mar 16 2026 14:34:00 GMT-0400 (Eastern Daylight Time),271524.9000000004,098_y_f_n_a.png,I,z,649,7,1,1658.6000000005588,269866.2999999998,9064,NNB,C,6
7,test,2,0.0,1-Back,1.0,m,Mon Mar 16 2026 14:34:00 GMT-0400 (Eastern Daylight Time),273358.4000000004,057_y_m_n_a.png,I,m,807,8,1,1829.0,271529.4000000004,9064,NNB,C,7
8,test,2,0.0,1-Back,1.0,m,Mon Mar 16 2026 14:34:00 GMT-0400 (Eastern Daylight Time),275108.9000000004,030_o_f_n_a.png,I,m,733,9,1,1742.5,273366.4000000004,9064,NNB,C,8
9,test,2,0.0,1-Back,1.0,m,Mon Mar 16 2026 14:34:00 GMT-0400 (Eastern Daylight Time),276941.7999999998,082_m_m_n_a.png,I,m,799,10,1,1827.3999999994412,275114.4000000004,9064,NNB,C,9
10,test,2,1.0,1-Back,1.0,z,Mon Mar 16 2026 14:34:00 GMT-0400 (Eastern Daylight Time),278675.10000000056,082_m_m_n_a.png,I,z,710,11,1,1726.7000000001863,276948.4000000004,9064,NNB,C,10
11,test,2,0.0,1-Back,1.0,m,Mon Mar 16 2026 14:34:00 GMT-0400 (Eastern Daylight Time),280374.9000000004,030_o_f_n_a.png,I,m,673,12,1,1688.2000000001863,278686.7000000002,9064,NNB,C,11
12,test,2,0.0,1-Back,1.0,m,Mon Mar 16 2026 14:34:00 GMT-0400 (Eastern Daylight Time),282208.5,130_o_f_n_a.png,I,m,813,13,1,1829.2000000001863,280379.2999999998,9064,NNB,C,12
13,test,2,0.0,1-Back,1.0,m,Mon Mar 16 2026 14:34:00 GMT-0400 (Eastern Daylight Time),284008.2999999998,059_o_m_n_a.png,I,m,777,14,1,1789.5999999996275,282218.7000000002,9064,NNB,C,13
14,test,2,0.0,1-Back,1.0,m,Mon Mar 16 2026 14:34:00 GMT-0400 (Eastern Daylight Time),285775.10000000056,146_o_m_n_a.png,I,m,746,15,1,1761.9000000003725,284013.2000000002,9064,NNB,C,14
15,test,2,1.0,1-Back,1.0,z,Mon Mar 16 2026 14:34:00 GMT-0400 (Eastern Daylight Time),287441.7999999998,146_o_m_n_a.png,I,z,644,16,1,1660.5999999996275,285781.2000000002,9064,NNB,C,15
16,test,2,0.0,1-Back,1.0,m,Mon Mar 16 2026 14:34:00 GMT-0400 (Eastern Daylight Time),289141.7000000002,031_y_m_n_a.png,I,m,673,17,1,1690.5,287451.2000000002,9064,NNB,C,16
17,test,2,1.0,1-Back,1.0,z,Mon Mar 16 2026 14:34:00 GMT-0400 (Eastern Daylight Time),290774.9000000004,031_y_m_n_a.png,I,z,606,18,1,1626.9000000003725,289148.0,9064,NNB,C,17
0,test,3,1.0,1-Back,,,Mon Mar 16 2026 14:34:00 GMT-0400 (Eastern Daylight Time),290774.9000000004,028_y_f_n_a.png,I,space,1629,1,1,1626.9000000003725,289148.0,9064,NNB,C,0
1,test,3,0.0,1-Back,1.0,m,Mon Mar 16 2026 14:34:00 GMT-0400 (Eastern Daylight Time),296358.5,146_o_m_n_a.png,I,m,773,1,1,1789.7000000001863,294568.7999999998,9064,NNB,C,1
2,test,3,1.0,1-Back,1.0,z,Mon Mar 16 2026 14:34:00 GMT-0400 (Eastern Daylight Time),297875.2000000002,146_o_m_n_a.png,I,z,485,1,1,1508.4000000003725,296366.7999999998,9064,NNB,C,2
3,test,3,0.0,1-Back,1.0,m,Mon Mar 16 2026 14:34:00 GMT-0400 (Eastern Daylight Time),299475.2000000002,093_m_f_n_a.png,I,m,577,1,1,1591.9000000003725,297883.2999999998,9064,NNB,C,3
4,test,3,1.0,1-Back,1.0,z,Mon Mar 16 2026 14:34:00 GMT-0400 (Eastern Daylight Time),301091.4000000004,093_m_f_n_a.png,I,z,592,1,1,1608.0,299483.4000000004,9064,NNB,C,4
5,test,3,0.0,1-Back,1.0,m,Mon Mar 16 2026 14:34:00 GMT-0400 (Eastern Daylight Time),302675.10000000056,030_o_f_n_a.png,I,m,552,1,1,1579.4000000003725,301095.7000000002,9064,NNB,C,5
6,test,3,0.0,1-Back,1.0,m,Mon Mar 16 2026 14:34:00 GMT-0400 (Eastern Daylight Time),304342.0,057_y_m_n_a.png,I,m,649,1,1,1657.2999999998137,302684.7000000002,9064,NNB,C,6
7,test,3,0.0,1-Back,1.0,m,Mon Mar 16 2026 14:34:00 GMT-0400 (Eastern Daylight Time),305925.2999999998,030_o_f_n_a.png,I,m,550,1,1,1571.5999999996275,304353.7000000002,9064,NNB,C,7
8,test,3,0.0,1-Back,1.0,m,Mon Mar 16 2026 14:34:00 GMT-0400 (Eastern Daylight Time),307525.5,031_y_m_n_a.png,I,m,582,1,1,1590.2000000001863,305935.2999999998,9064,NNB,C,8
9,test,3,1.0,1-Back,1.0,z,Mon Mar 16 2026 14:34:00 GMT-0400 (Eastern Daylight Time),309175.2000000002,031_y_m_n_a.png,I,z,622,1,1,1641.7000000001863,307533.5,9064,NNB,C,9
10,test,3,0.0,1-Back,1.0,m,Mon Mar 16 2026 14:34:00 GMT-0400 (Eastern Daylight Time),310858.5,006_m_f_n_a.png,I,m,661,1,1,1676.5999999996275,309181.9000000004,9064,NNB,C,10
11,test,3,0.0,1-Back,1.0,m,Mon Mar 16 2026 14:34:00 GMT-0400 (Eastern Daylight Time),313041.60000000056,098_y_f_n_a.png,I,m,1152,1,1,2174.5,310867.10000000056,9064,NNB,C,11
12,test,3,1.0,1-Back,1.0,z,Mon Mar 16 2026 14:34:00 GMT-0400 (Eastern Daylight Time),314741.7999999998,098_y_f_n_a.png,I,z,674,1,1,1692.8999999994412,313048.9000000004,9064,NNB,C,12
13,test,3,0.0,1-Back,1.0,m,Mon Mar 16 2026 14:34:00 GMT-0400 (Eastern Daylight Time),316592.10000000056,006_m_f_n_a.png,I,m,830,1,1,1840.4000000003725,314751.7000000002,9064,NNB,C,13
14,test,3,0.0,1-Back,1.0,m,Mon Mar 16 2026 14:34:00 GMT-0400 (Eastern Daylight Time),318158.2999999998,092_m_m_n_a.png,I,m,547,1,1,1557.5999999996275,316600.7000000002,9064,NNB,C,14
15,test,3,1.0,1-Back,1.0,z,Mon Mar 16 2026 14:34:00 GMT-0400 (Eastern Daylight Time),319658.60000000056,092_m_m_n_a.png,I,z,469,1,1,1493.2000000001863,318165.4000000004,9064,NNB,C,15
16,test,3,0.0,1-Back,1.0,m,Mon Mar 16 2026 14:34:00 GMT-0400 (Eastern Daylight Time),321275.2999999998,130_o_f_n_a.png,I,m,584,1,1,1608.7999999998137,319666.5,9064,NNB,C,16
17,test,3,1.0,1-Back,1.0,z,Mon Mar 16 2026 14:34:00 GMT-0400 (Eastern Daylight Time),322958.2000000002,130_o_f_n_a.png,I,z,665,1,1,1674.4000000003725,321283.7999999998,9064,NNB,C,17
0,test,4,1.0,1-Back,,,Mon Mar 16 2026 14:34:00 GMT-0400 (Eastern Daylight Time),322958.2000000002,093_m_f_n_a.png,I,space,1310,1,1,1674.4000000003725,321283.7999999998,9064,NNB,C,0
1,test,4,0.0,1-Back,1.0,m,Mon Mar 16 2026 14:34:00 GMT-0400 (Eastern Daylight Time),328525.2999999998,146_o_m_n_a.png,I,m,1099,2,1,2108.0,326417.2999999998,9064,NNB,C,1
2,test,4,0.0,1-Back,1.0,m,Mon Mar 16 2026 14:34:00 GMT-0400 (Eastern Daylight Time),330391.7000000002,093_m_f_n_a.png,I,m,838,3,1,1855.0999999996275,328536.60000000056,9064,NNB,C,2
3,test,4,0.0,1-Back,1.0,m,Mon Mar 16 2026 14:34:00 GMT-0400 (Eastern Daylight Time),332058.5,030_o_f_n_a.png,I,m,635,4,1,1653.7999999998137,330404.7000000002,9064,NNB,C,3
4,test,4,1.0,1-Back,1.0,z,Mon Mar 16 2026 14:34:00 GMT-0400 (Eastern Daylight Time),333658.4000000004,030_o_f_n_a.png,I,z,569,5,1,1590.7999999998137,332067.60000000056,9064,NNB,C,4
5,test,4,0.0,1-Back,1.0,m,Mon Mar 16 2026 14:34:00 GMT-0400 (Eastern Daylight Time),335325.0,098_y_f_n_a.png,I,m,632,6,1,1659.5,333665.5,9064,NNB,C,5
6,test,4,0.0,1-Back,1.0,m,Mon Mar 16 2026 14:34:00 GMT-0400 (Eastern Daylight Time),336942.0,057_y_m_n_a.png,I,m,590,7,1,1612.7000000001863,335329.2999999998,9064,NNB,C,6
7,test,4,1.0,1-Back,1.0,z,Mon Mar 16 2026 14:34:00 GMT-0400 (Eastern Daylight Time),338425.0,057_y_m_n_a.png,I,z,461,8,1,1474.5999999996275,336950.4000000004,9064,NNB,C,7
8,test,4,0.0,1-Back,1.0,m,Mon Mar 16 2026 14:34:00 GMT-0400 (Eastern Daylight Time),340008.4000000004,098_y_f_n_a.png,I,m,554,9,1,1578.7999999998137,338429.60000000056,9064,NNB,C,8
9,test,4,0.0,1-Back,1.0,m,Mon Mar 16 2026 14:34:00 GMT-0400 (Eastern Daylight Time),341608.2999999998,082_m_m_n_a.png,I,m,572,10,1,1593.5999999996275,340014.7000000002,9064,NNB,C,9
10,test,4,1.0,1-Back,1.0,z,Mon Mar 16 2026 14:34:00 GMT-0400 (Eastern Daylight Time),343125.0,082_m_m_n_a.png,I,z,500,11,1,1507.3999999994412,341617.60000000056,9064,NNB,C,10
11,test,4,0.0,1-Back,1.0,m,Mon Mar 16 2026 14:34:00 GMT-0400 (Eastern Daylight Time),344658.4000000004,130_o_f_n_a.png,I,m,501,12,1,1525.0,343133.4000000004,9064,NNB,C,11
12,test,4,0.0,1-Back,1.0,m,Mon Mar 16 2026 14:34:00 GMT-0400 (Eastern Daylight Time),346241.60000000056,059_o_m_n_a.png,I,m,554,13,1,1577.4000000003725,344664.2000000002,9064,NNB,C,12
13,test,4,0.0,1-Back,1.0,m,Mon Mar 16 2026 14:34:00 GMT-0400 (Eastern Daylight Time),347741.60000000056,130_o_f_n_a.png,I,m,473,14,1,1493.0,346248.60000000056,9064,NNB,C,13
14,test,4,0.0,1-Back,1.0,m,Mon Mar 16 2026 14:34:00 GMT-0400 (Eastern Daylight Time),349292.2999999998,028_y_f_n_a.png,I,m,533,15,1,1546.2999999998137,347746.0,9064,NNB,C,14
15,test,4,1.0,1-Back,1.0,z,Mon Mar 16 2026 14:34:00 GMT-0400 (Eastern Daylight Time),350925.2000000002,028_y_f_n_a.png,I,z,608,16,1,1629.0,349296.2000000002,9064,NNB,C,15
16,test,4,0.0,1-Back,1.0,m,Mon Mar 16 2026 14:34:00 GMT-0400 (Eastern Daylight Time),352541.9000000004,006_m_f_n_a.png,I,m,599,17,1,1604.5,350937.4000000004,9064,NNB,C,16
17,test,4,1.0,1-Back,1.0,z,Mon Mar 16 2026 14:34:00 GMT-0400 (Eastern Daylight Time),354158.7000000002,006_m_f_n_a.png,I,z,590,18,1,1607.2999999998137,352551.4000000004,9064,NNB,C,17
0,test,5,1.0,1-Back,,,Mon Mar 16 2026 14:34:00 GMT-0400 (Eastern Daylight Time),354158.7000000002,059_o_m_n_a.png,I,space,1429,1,1,1607.2999999998137,352551.4000000004,9064,NNB,C,0
1,test,5,1.0,1-Back,1.0,z,Mon Mar 16 2026 14:34:00 GMT-0400 (Eastern Daylight Time),359475.10000000056,059_o_m_n_a.png,I,z,844,2,1,1860.1000000005588,357615.0,9064,NNB,C,1
2,test,5,0.0,1-Back,1.0,m,Mon Mar 16 2026 14:34:00 GMT-0400 (Eastern Daylight Time),361425.10000000056,098_y_f_n_a.png,I,m,929,3,1,1942.4000000003725,359482.7000000002,9064,NNB,C,2
3,test,5,0.0,1-Back,1.0,m,Mon Mar 16 2026 14:34:00 GMT-0400 (Eastern Daylight Time),363408.4000000004,057_y_m_n_a.png,I,m,954,4,1,1974.7000000001863,361433.7000000002,9064,NNB,C,3
4,test,5,0.0,1-Back,1.0,m,Mon Mar 16 2026 14:34:00 GMT-0400 (Eastern Daylight Time),365341.7999999998,098_y_f_n_a.png,I,m,907,5,1,1925.8999999994412,363415.9000000004,9064,NNB,C,4
5,test,5,0.0,1-Back,1.0,m,Mon Mar 16 2026 14:34:00 GMT-0400 (Eastern Daylight Time),367041.7999999998,092_m_m_n_a.png,I,m,670,6,1,1691.699999999255,365350.10000000056,9064,NNB,C,5
6,test,5,1.0,1-Back,1.0,z,Mon Mar 16 2026 14:34:00 GMT-0400 (Eastern Daylight Time),368725.10000000056,092_m_m_n_a.png,I,z,658,7,1,1672.6000000005588,367052.5,9064,NNB,C,6
7,test,5,0.0,1-Back,1.0,m,Mon Mar 16 2026 14:34:00 GMT-0400 (Eastern Daylight Time),370508.5,028_y_f_n_a.png,I,m,751,8,1,1775.5,368733.0,9064,NNB,C,7
8,test,5,0.0,1-Back,1.0,m,Mon Mar 16 2026 14:34:00 GMT-0400 (Eastern Daylight Time),372125.2000000002,031_y_m_n_a.png,I,m,592,9,1,1608.4000000003725,370516.7999999998,9064,NNB,C,8
8,test,5,0.0,1-Back,0.0,m,Mon Mar 16 2026 14:34:00 GMT-0400 (Eastern Daylight Time),373808.4000000004,028_y_f_n_a.png,I,z,655,10,1,1676.1000000005588,372132.2999999998,9064,NNB,C,9
9,test,5,0.0,1-Back,1.0,m,Mon Mar 16 2026 14:34:00 GMT-0400 (Eastern Daylight Time),375442.0,130_o_f_n_a.png,I,m,603,11,1,1625.0,373817.0,9064,NNB,C,10
10,test,5,1.0,1-Back,1.0,z,Mon Mar 16 2026 14:34:00 GMT-0400 (Eastern Daylight Time),377358.2999999998,130_o_f_n_a.png,I,z,898,12,1,1907.2999999998137,375451.0,9064,NNB,C,11
11,test,5,0.0,1-Back,1.0,m,Mon Mar 16 2026 14:34:00 GMT-0400 (Eastern Daylight Time),379108.5,146_o_m_n_a.png,I,m,723,13,1,1742.3999999994412,377366.10000000056,9064,NNB,C,12
12,test,5,0.0,1-Back,1.0,m,Mon Mar 16 2026 14:34:00 GMT-0400 (Eastern Daylight Time),380741.7999999998,093_m_f_n_a.png,I,m,616,14,1,1625.5,379116.2999999998,9064,NNB,C,13
13,test,5,1.0,1-Back,1.0,z,Mon Mar 16 2026 14:34:00 GMT-0400 (Eastern Daylight Time),382559.2000000002,093_m_f_n_a.png,I,z,789,15,1,1808.7000000001863,380750.5,9064,NNB,C,14
14,test,5,0.0,1-Back,1.0,m,Mon Mar 16 2026 14:34:00 GMT-0400 (Eastern Daylight Time),384691.7999999998,146_o_m_n_a.png,I,m,1110,16,1,2128.5,382563.2999999998,9064,NNB,C,15
15,test,5,0.0,1-Back,1.0,m,Mon Mar 16 2026 14:34:00 GMT-0400 (Eastern Daylight Time),386408.10000000056,006_m_f_n_a.png,I,m,694,17,1,1709.2000000001863,384698.9000000004,9064,NNB,C,16
16,test,5,0.0,1-Back,1.0,m,Mon Mar 16 2026 14:34:00 GMT-0400 (Eastern Daylight Time),388041.4000000004,082_m_m_n_a.png,I,m,610,18,1,1629.6000000005588,386411.7999999998,9064,NNB,C,17
0,prac,1,0.0,2-Back,,,Mon Mar 16 2026 14:34:00 GMT-0400 (Eastern Daylight Time),388041.4000000004,031_y_m_n_a.png,I,space,5878,1,1,1629.6000000005588,386411.7999999998,9064,NNB,C,0
0,prac,1,0.0,2-Back,,,Mon Mar 16 2026 14:34:00 GMT-0400 (Eastern Daylight Time),388041.4000000004,006_m_f_n_a.png,I,space,5878,2,1,1629.6000000005588,386411.7999999998,9064,NNB,C,0
1,prac,1,1.0,2-Back,1.0,m,Mon Mar 16 2026 14:34:00 GMT-0400 (Eastern Daylight Time),496292.0,146_o_m_n_a.png,I,m,1882,3,1,2819.7999999998137,493472.2000000002,9064,NNB,C,1
2,prac,1,0.0,2-Back,1.0,m,Mon Mar 16 2026 14:34:00 GMT-0400 (Eastern Daylight Time),498325.10000000056,130_o_f_n_a.png,I,m,935,4,1,2018.6000000005588,496306.5,9064,NNB,C,2
3,prac,1,0.0,2-Back,1.0,z,Mon Mar 16 2026 14:34:00 GMT-0400 (Eastern Daylight Time),499941.4000000004,146_o_m_n_a.png,I,z,833,5,1,1602.2000000001863,498339.2000000002,9064,NNB,C,3
4,prac,1,1.0,2-Back,1.0,z,Mon Mar 16 2026 14:34:00 GMT-0400 (Eastern Daylight Time),501675.5,130_o_f_n_a.png,I,z,951,6,1,1727.2000000001863,499948.2999999998,9064,NNB,C,4
4,prac,1,0.0,2-Back,0.0,m,Mon Mar 16 2026 14:34:00 GMT-0400 (Eastern Daylight Time),504458.5,082_m_m_n_a.png,I,None,2006,7,1,2772.5999999996275,501685.9000000004,9064,NNB,C,5
5,prac,1,0.0,2-Back,1.0,m,Mon Mar 16 2026 14:34:00 GMT-0400 (Eastern Daylight Time),506725.2000000002,059_o_m_n_a.png,I,m,1214,8,1,2255.0,504470.2000000002,9064,NNB,C,6
6,prac,1,0.0,2-Back,1.0,m,Mon Mar 16 2026 14:34:00 GMT-0400 (Eastern Daylight Time),509041.9000000004,028_y_f_n_a.png,I,m,1281,9,1,2302.9000000003725,506739.0,9064,NNB,C,7
6,prac,1,1.0,2-Back,0.0,z,Mon Mar 16 2026 14:34:00 GMT-0400 (Eastern Daylight Time),511825.0,059_o_m_n_a.png,I,None,2006,10,1,2773.7999999998137,509051.2000000002,9064,NNB,C,8
7,prac,1,0.0,2-Back,1.0,m,Mon Mar 16 2026 14:34:00 GMT-0400 (Eastern Daylight Time),514741.7999999998,098_y_f_n_a.png,I,m,1887,11,1,2905.7999999998137,511836.0,9064,NNB,C,9
8,prac,1,0.0,2-Back,1.0,m,Mon Mar 16 2026 14:34:00 GMT-0400 (Eastern Daylight Time),517108.60000000056,082_m_m_n_a.png,I,m,1579,12,1,2355.4000000003725,514753.2000000002,9064,NNB,C,10
0,test,1,0.0,2-Back,,,Mon Mar 16 2026 14:34:00 GMT-0400 (Eastern Daylight Time),517108.60000000056,057_y_m_n_a.png,I,space,11600,1,1,2355.4000000003725,514753.2000000002,9064,NNB,C,0
0,test,1,0.0,2-Back,,,Mon Mar 16 2026 14:34:00 GMT-0400 (Eastern Daylight Time),517108.60000000056,057_y_m_n_a.png,I,space,11600,2,1,2355.4000000003725,514753.2000000002,9064,NNB,C,0
1,test,1,0.0,2-Back,1.0,m,Mon Mar 16 2026 14:34:00 GMT-0400 (Eastern Daylight Time),545908.7000000002,130_o_f_n_a.png,I,m,984,3,1,2006.0,543902.7000000002,9064,NNB,C,1
2,test,1,0.0,2-Back,1.0,m,Mon Mar 16 2026 14:34:00 GMT-0400 (Eastern Daylight Time),547791.2999999998,092_m_m_n_a.png,I,m,853,4,1,1873.3999999994412,545917.9000000004,9064,NNB,C,2
3,test,1,1.0,2-Back,1.0,z,Mon Mar 16 2026 14:34:00 GMT-0400 (Eastern Daylight Time),549458.5,130_o_f_n_a.png,I,z,635,5,1,1663.2999999998137,547795.2000000002,9064,NNB,C,3
4,test,1,0.0,2-Back,1.0,m,Mon Mar 16 2026 14:34:00 GMT-0400 (Eastern Daylight Time),551258.6000000006,098_y_f_n_a.png,I,m,768,6,1,1791.7000000001863,549466.9000000004,9064,NNB,C,4
4,test,1,0.0,2-Back,0.0,m,Mon Mar 16 2026 14:34:00 GMT-0400 (Eastern Daylight Time),553225.2000000002,092_m_m_n_a.png,I,z,937,7,1,1959.5999999996275,551265.6000000006,9064,NNB,C,5
5,test,1,1.0,2-Back,1.0,z,Mon Mar 16 2026 14:34:00 GMT-0400 (Eastern Daylight Time),555608.0,098_y_f_n_a.png,I,z,1362,8,1,2374.2000000001863,553233.7999999998,9064,NNB,C,6
6,test,1,0.0,2-Back,1.0,m,Mon Mar 16 2026 14:34:00 GMT-0400 (Eastern Daylight Time),558025.2000000002,031_y_m_n_a.png,I,m,1395,9,1,2413.2999999998137,555611.9000000004,9064,NNB,C,7
7,test,1,0.0,2-Back,1.0,m,Mon Mar 16 2026 14:34:00 GMT-0400 (Eastern Daylight Time),560225.2000000002,030_o_f_n_a.png,I,m,1179,10,1,2191.4000000003725,558033.7999999998,9064,NNB,C,8
7,test,1,1.0,2-Back,0.0,z,Mon Mar 16 2026 14:34:00 GMT-0400 (Eastern Daylight Time),563258.6000000006,031_y_m_n_a.png,I,None,2016,11,1,3025.600000000559,560233.0,9064,NNB,C,9
8,test,1,0.0,2-Back,1.0,m,Mon Mar 16 2026 14:34:00 GMT-0400 (Eastern Daylight Time),565075.1000000006,006_m_f_n_a.png,I,m,785,12,1,1807.7000000001863,563267.4000000004,9064,NNB,C,10
9,test,1,0.0,2-Back,1.0,m,Mon Mar 16 2026 14:34:00 GMT-0400 (Eastern Daylight Time),567559.1000000006,006_m_f_n_a.png,I,m,1464,13,1,2477.0,565082.1000000006,9064,NNB,C,11
9,test,1,0.0,2-Back,0.0,m,Mon Mar 16 2026 14:34:00 GMT-0400 (Eastern Daylight Time),569941.6000000006,146_o_m_n_a.png,I,z,1365,14,1,2377.5,567564.1000000006,9064,NNB,C,12
9,test,1,0.0,2-Back,0.0,m,Mon Mar 16 2026 14:34:00 GMT-0400 (Eastern Daylight Time),572025.1000000006,030_o_f_n_a.png,I,z,1054,15,1,2076.2000000001863,569948.9000000004,9064,NNB,C,13
9,test,1,1.0,2-Back,0.0,z,Mon Mar 16 2026 14:34:00 GMT-0400 (Eastern Daylight Time),574358.2999999998,146_o_m_n_a.png,I,m,1315,16,1,2324.399999999441,572033.9000000004,9064,NNB,C,14
10,test,1,0.0,2-Back,1.0,m,Mon Mar 16 2026 14:34:00 GMT-0400 (Eastern Daylight Time),576358.2999999998,093_m_f_n_a.png,I,m,981,17,1,1991.5,574366.7999999998,9064,NNB,C,15
10,test,1,0.0,2-Back,0.0,m,Mon Mar 16 2026 14:34:00 GMT-0400 (Eastern Daylight Time),579391.9000000004,082_m_m_n_a.png,I,None,2017,18,1,3026.7999999998137,576365.1000000006,9064,NNB,C,16
0,test,2,0.0,2-Back,,,Mon Mar 16 2026 14:34:00 GMT-0400 (Eastern Daylight Time),579391.9000000004,082_m_m_n_a.png,I,space,4108,1,1,3026.7999999998137,576365.1000000006,9064,NNB,C,0
0,test,2,0.0,2-Back,,,Mon Mar 16 2026 14:34:00 GMT-0400 (Eastern Daylight Time),579391.9000000004,028_y_f_n_a.png,I,space,4108,2,1,3026.7999999998137,576365.1000000006,9064,NNB,C,0
0,test,2,1.0,2-Back,0.0,z,Mon Mar 16 2026 14:34:00 GMT-0400 (Eastern Daylight Time),591708.6000000006,082_m_m_n_a.png,I,None,2016,3,1,3023.800000000745,588684.7999999998,9064,NNB,C,1
1,test,2,0.0,2-Back,1.0,m,Mon Mar 16 2026 14:34:00 GMT-0400 (Eastern Daylight Time),594025.1000000006,093_m_f_n_a.png,I,m,1287,4,1,2308.100000000559,591717.0,9064,NNB,C,2
1,test,2,0.0,2-Back,0.0,m,Mon Mar 16 2026 14:34:00 GMT-0400 (Eastern Daylight Time),597058.6000000006,028_y_f_n_a.png,I,None,2016,5,1,3023.7000000001863,594034.9000000004,9064,NNB,C,3
2,test,2,0.0,2-Back,1.0,m,Mon Mar 16 2026 14:34:00 GMT-0400 (Eastern Daylight Time),599008.4000000004,146_o_m_n_a.png,I,m,929,6,1,1940.7000000001863,597067.7000000002,9064,NNB,C,4
3,test,2,0.0,2-Back,1.0,m,Mon Mar 16 2026 14:34:00 GMT-0400 (Eastern Daylight Time),600925.1000000006,098_y_f_n_a.png,I,m,891,7,1,1908.1000000005588,599017.0,9064,NNB,C,5
4,test,2,1.0,2-Back,1.0,z,Mon Mar 16 2026 14:34:00 GMT-0400 (Eastern Daylight Time),603325.1000000006,146_o_m_n_a.png,I,z,1367,8,1,2392.800000000745,600932.2999999998,9064,NNB,C,6
5,test,2,0.0,2-Back,1.0,m,Mon Mar 16 2026 14:34:00 GMT-0400 (Eastern Daylight Time),605291.6000000006,031_y_m_n_a.png,I,m,933,9,1,1955.2000000001863,603336.4000000004,9064,NNB,C,7
5,test,2,0.0,2-Back,0.0,m,Mon Mar 16 2026 14:34:00 GMT-0400 (Eastern Daylight Time),608208.4000000004,031_y_m_n_a.png,I,z,1889,10,1,2913.0,605295.4000000004,9064,NNB,C,8
6,test,2,0.0,2-Back,1.0,m,Mon Mar 16 2026 14:34:00 GMT-0400 (Eastern Daylight Time),610775.2000000002,006_m_f_n_a.png,I,m,1539,11,1,2557.4000000003725,608217.7999999998,9064,NNB,C,9
6,test,2,0.0,2-Back,0.0,m,Mon Mar 16 2026 14:34:00 GMT-0400 (Eastern Daylight Time),612725.2000000002,028_y_f_n_a.png,I,z,933,12,1,1942.2999999998137,610782.9000000004,9064,NNB,C,10
6,test,2,1.0,2-Back,0.0,z,Mon Mar 16 2026 14:34:00 GMT-0400 (Eastern Daylight Time),614941.5,006_m_f_n_a.png,I,m,1199,13,1,2207.2000000001863,612734.2999999998,9064,NNB,C,11
7,test,2,0.0,2-Back,1.0,m,Mon Mar 16 2026 14:34:00 GMT-0400 (Eastern Daylight Time),617058.4000000004,059_o_m_n_a.png,I,m,1085,14,1,2109.5,614948.9000000004,9064,NNB,C,12
8,test,2,0.0,2-Back,1.0,m,Mon Mar 16 2026 14:34:00 GMT-0400 (Eastern Daylight Time),619608.4000000004,059_o_m_n_a.png,I,m,1521,15,1,2542.2000000001863,617066.2000000002,9064,NNB,C,13
8,test,2,0.0,2-Back,0.0,m,Mon Mar 16 2026 14:34:00 GMT-0400 (Eastern Daylight Time),622641.9000000004,030_o_f_n_a.png,I,None,2016,16,1,3024.7000000001863,619617.2000000002,9064,NNB,C,14
9,test,2,0.0,2-Back,1.0,m,Mon Mar 16 2026 14:34:00 GMT-0400 (Eastern Daylight Time),625108.5,092_m_m_n_a.png,I,m,1433,17,1,2458.2999999998137,622650.2000000002,9064,NNB,C,15
10,test,2,1.0,2-Back,1.0,z,Mon Mar 16 2026 14:34:00 GMT-0400 (Eastern Daylight Time),626925.0,030_o_f_n_a.png,I,z,783,18,1,1808.0999999996275,625116.9000000004,9064,NNB,C,16
0,test,3,1.0,2-Back,,,Mon Mar 16 2026 14:34:00 GMT-0400 (Eastern Daylight Time),626925.0,057_y_m_n_a.png,I,space,1439,1,1,1808.0999999996275,625116.9000000004,9064,NNB,C,0
0,test,3,1.0,2-Back,,,Mon Mar 16 2026 14:34:00 GMT-0400 (Eastern Daylight Time),626925.0,057_y_m_n_a.png,I,space,1439,2,1,1808.0999999996275,625116.9000000004,9064,NNB,C,0
1,test,3,0.0,2-Back,1.0,m,Mon Mar 16 2026 14:34:00 GMT-0400 (Eastern Daylight Time),635525.1000000006,030_o_f_n_a.png,I,m,941,3,1,1957.4000000003725,633567.7000000002,9064,NNB,C,1
2,test,3,0.0,2-Back,1.0,m,Mon Mar 16 2026 14:34:00 GMT-0400 (Eastern Daylight Time),637641.9000000004,082_m_m_n_a.png,I,m,1095,4,1,2108.9000000003725,635533.0,9064,NNB,C,2
3,test,3,1.0,2-Back,1.0,z,Mon Mar 16 2026 14:34:00 GMT-0400 (Eastern Daylight Time),639441.7000000002,030_o_f_n_a.png,I,z,770,5,1,1789.5,637652.2000000002,9064,NNB,C,3
4,test,3,0.0,2-Back,1.0,m,Mon Mar 16 2026 14:34:00 GMT-0400 (Eastern Daylight Time),641758.6000000006,031_y_m_n_a.png,I,m,1289,6,1,2308.9000000003725,639449.7000000002,9064,NNB,C,4
4,test,3,0.0,2-Back,0.0,m,Mon Mar 16 2026 14:34:00 GMT-0400 (Eastern Daylight Time),643824.9000000004,082_m_m_n_a.png,I,z,1045,7,1,2058.100000000559,641766.7999999998,9064,NNB,C,5
4,test,3,1.0,2-Back,0.0,z,Mon Mar 16 2026 14:34:00 GMT-0400 (Eastern Daylight Time),645758.6000000006,031_y_m_n_a.png,I,m,907,8,1,1925.6000000005588,643833.0,9064,NNB,C,6
5,test,3,0.0,2-Back,1.0,m,Mon Mar 16 2026 14:34:00 GMT-0400 (Eastern Daylight Time),648625.0,028_y_f_n_a.png,I,m,1845,9,1,2857.399999999441,645767.6000000006,9064,NNB,C,7
6,test,3,0.0,2-Back,1.0,m,Mon Mar 16 2026 14:34:00 GMT-0400 (Eastern Daylight Time),650775.0,092_m_m_n_a.png,I,m,1131,10,1,2141.5999999996275,648633.4000000004,9064,NNB,C,8
7,test,3,1.0,2-Back,1.0,z,Mon Mar 16 2026 14:34:00 GMT-0400 (Eastern Daylight Time),652841.7999999998,028_y_f_n_a.png,I,z,1045,11,1,2059.0999999996275,650782.7000000002,9064,NNB,C,9
8,test,3,1.0,2-Back,1.0,z,Mon Mar 16 2026 14:34:00 GMT-0400 (Eastern Daylight Time),654575.1000000006,092_m_m_n_a.png,I,z,705,12,1,1727.300000000745,652847.7999999998,9064,NNB,C,10
9,test,3,0.0,2-Back,1.0,m,Mon Mar 16 2026 14:34:00 GMT-0400 (Eastern Daylight Time),656541.7000000002,030_o_f_n_a.png,I,m,941,13,1,1957.0999999996275,654584.6000000006,9064,NNB,C,11
10,test,3,0.0,2-Back,1.0,m,Mon Mar 16 2026 14:34:00 GMT-0400 (Eastern Daylight Time),658975.1000000006,093_m_f_n_a.png,I,m,1405,14,1,2425.5,656549.6000000006,9064,NNB,C,12
11,test,3,0.0,2-Back,1.0,m,Mon Mar 16 2026 14:34:00 GMT-0400 (Eastern Daylight Time),660975.1000000006,146_o_m_n_a.png,I,m,973,15,1,1991.0,658984.1000000006,9064,NNB,C,13
12,test,3,1.0,2-Back,1.0,z,Mon Mar 16 2026 14:34:00 GMT-0400 (Eastern Daylight Time),662691.7000000002,093_m_f_n_a.png,I,z,692,16,1,1709.4000000003725,660982.2999999998,9064,NNB,C,14
13,test,3,0.0,2-Back,1.0,m,Mon Mar 16 2026 14:34:00 GMT-0400 (Eastern Daylight Time),664841.6000000006,130_o_f_n_a.png,I,m,1127,17,1,2142.2000000001863,662699.4000000004,9064,NNB,C,15
13,test,3,0.0,2-Back,0.0,m,Mon Mar 16 2026 14:34:00 GMT-0400 (Eastern Daylight Time),666941.7000000002,130_o_f_n_a.png,I,z,1074,18,1,2096.0,664845.7000000002,9064,NNB,C,16
0,test,4,0.0,2-Back,,,Mon Mar 16 2026 14:34:00 GMT-0400 (Eastern Daylight Time),666941.7000000002,059_o_m_n_a.png,I,space,1053,1,1,2096.0,664845.7000000002,9064,NNB,C,0
0,test,4,0.0,2-Back,,,Mon Mar 16 2026 14:34:00 GMT-0400 (Eastern Daylight Time),666941.7000000002,098_y_f_n_a.png,I,space,1053,2,1,2096.0,664845.7000000002,9064,NNB,C,0
1,test,4,1.0,2-Back,1.0,z,Mon Mar 16 2026 14:34:00 GMT-0400 (Eastern Daylight Time),675291.7000000002,059_o_m_n_a.png,I,z,950,3,1,1974.0,673317.7000000002,9064,NNB,C,1
2,test,4,1.0,2-Back,1.0,z,Mon Mar 16 2026 14:34:00 GMT-0400 (Eastern Daylight Time),676925.0,098_y_f_n_a.png,I,z,608,4,1,1622.2999999998137,675302.7000000002,9064,NNB,C,2
3,test,4,0.0,2-Back,1.0,m,Mon Mar 16 2026 14:34:00 GMT-0400 (Eastern Daylight Time),678925.0,030_o_f_n_a.png,I,m,967,5,1,1991.8999999994412,676933.1000000006,9064,NNB,C,3
4,test,4,0.0,2-Back,1.0,m,Mon Mar 16 2026 14:34:00 GMT-0400 (Eastern Daylight Time),681875.1000000006,030_o_f_n_a.png,I,m,1927,6,1,2942.7000000001863,678932.4000000004,9064,NNB,C,4
5,test,4,0.0,2-Back,1.0,m,Mon Mar 16 2026 14:34:00 GMT-0400 (Eastern Daylight Time),684458.2999999998,006_m_f_n_a.png,I,m,1561,7,1,2575.899999999441,681882.4000000004,9064,NNB,C,5
6,test,4,0.0,2-Back,1.0,m,Mon Mar 16 2026 14:34:00 GMT-0400 (Eastern Daylight Time),686408.4000000004,031_y_m_n_a.png,I,m,929,8,1,1942.6000000005588,684465.7999999998,9064,NNB,C,6
7,test,4,1.0,2-Back,1.0,z,Mon Mar 16 2026 14:34:00 GMT-0400 (Eastern Daylight Time),687975.0,006_m_f_n_a.png,I,z,539,9,1,1556.5,686418.5,9064,NNB,C,7
8,test,4,0.0,2-Back,1.0,m,Mon Mar 16 2026 14:34:00 GMT-0400 (Eastern Daylight Time),689725.9000000004,092_m_m_n_a.png,I,m,732,10,1,1741.2999999998137,687984.6000000006,9064,NNB,C,8
8,test,4,0.0,2-Back,0.0,m,Mon Mar 16 2026 14:34:00 GMT-0400 (Eastern Daylight Time),691391.7999999998,031_y_m_n_a.png,I,z,647,11,1,1661.699999999255,689730.1000000006,9064,NNB,C,9
9,test,4,0.0,2-Back,1.0,m,Mon Mar 16 2026 14:34:00 GMT-0400 (Eastern Daylight Time),693308.4000000004,130_o_f_n_a.png,I,m,884,12,1,1907.2999999998137,691401.1000000006,9064,NNB,C,10
10,test,4,0.0,2-Back,1.0,m,Mon Mar 16 2026 14:34:00 GMT-0400 (Eastern Daylight Time),695858.5,057_y_m_n_a.png,I,m,1527,13,1,2542.7999999998137,693315.7000000002,9064,NNB,C,11
11,test,4,1.0,2-Back,1.0,z,Mon Mar 16 2026 14:34:00 GMT-0400 (Eastern Daylight Time),697491.7000000002,130_o_f_n_a.png,I,z,601,14,1,1621.9000000003725,695869.7999999998,9064,NNB,C,12
12,test,4,1.0,2-Back,1.0,z,Mon Mar 16 2026 14:34:00 GMT-0400 (Eastern Daylight Time),700491.7000000002,057_y_m_n_a.png,I,z,1976,15,1,2991.5,697500.2000000002,9064,NNB,C,13
12,test,4,0.0,2-Back,0.0,m,Mon Mar 16 2026 14:34:00 GMT-0400 (Eastern Daylight Time),703525.2999999998,082_m_m_n_a.png,I,None,2016,16,1,3025.5,700499.7999999998,9064,NNB,C,14
13,test,4,0.0,2-Back,1.0,m,Mon Mar 16 2026 14:34:00 GMT-0400 (Eastern Daylight Time),705275.1000000006,093_m_f_n_a.png,I,m,726,17,1,1742.300000000745,703532.7999999998,9064,NNB,C,15
14,test,4,1.0,2-Back,1.0,z,Mon Mar 16 2026 14:34:00 GMT-0400 (Eastern Daylight Time),707008.4000000004,082_m_m_n_a.png,I,z,713,18,1,1728.1000000005588,705280.2999999998,9064,NNB,C,16
0,test,5,1.0,2-Back,,,Mon Mar 16 2026 14:34:00 GMT-0400 (Eastern Daylight Time),707008.4000000004,057_y_m_n_a.png,I,space,1090,1,1,1728.1000000005588,705280.2999999998,9064,NNB,C,0
0,test,5,1.0,2-Back,,,Mon Mar 16 2026 14:34:00 GMT-0400 (Eastern Daylight Time),707008.4000000004,093_m_f_n_a.png,I,space,1090,2,1,1728.1000000005588,705280.2999999998,9064,NNB,C,0
0,test,5,1.0,2-Back,0.0,z,Mon Mar 16 2026 14:34:00 GMT-0400 (Eastern Daylight Time),716191.6000000006,057_y_m_n_a.png,I,None,2016,3,1,3025.9000000003725,713165.7000000002,9064,NNB,C,1
1,test,5,1.0,2-Back,1.0,z,Mon Mar 16 2026 14:34:00 GMT-0400 (Eastern Daylight Time),718008.2999999998,093_m_f_n_a.png,I,z,788,4,1,1812.2999999998137,716196.0,9064,NNB,C,2
2,test,5,0.0,2-Back,1.0,m,Mon Mar 16 2026 14:34:00 GMT-0400 (Eastern Daylight Time),721008.5,130_o_f_n_a.png,I,m,1979,5,1,2988.7000000001863,718019.7999999998,9064,NNB,C,3
2,test,5,0.0,2-Back,0.0,m,Mon Mar 16 2026 14:34:00 GMT-0400 (Eastern Daylight Time),724025.1000000006,057_y_m_n_a.png,I,z,1994,6,1,3005.800000000745,721019.2999999998,9064,NNB,C,4
2,test,5,0.0,2-Back,0.0,m,Mon Mar 16 2026 14:34:00 GMT-0400 (Eastern Daylight Time),727058.2999999998,028_y_f_n_a.png,I,None,2016,7,1,3025.899999999441,724032.4000000004,9064,NNB,C,5
2,test,5,0.0,2-Back,0.0,m,Mon Mar 16 2026 14:34:00 GMT-0400 (Eastern Daylight Time),729041.5,130_o_f_n_a.png,I,z,953,8,1,1975.5999999996275,727065.9000000004,9064,NNB,C,6
2,test,5,1.0,2-Back,0.0,z,Mon Mar 16 2026 14:34:00 GMT-0400 (Eastern Daylight Time),731374.9000000004,028_y_f_n_a.png,I,m,1306,9,1,2329.0,729045.9000000004,9064,NNB,C,7
3,test,5,0.0,2-Back,1.0,m,Mon Mar 16 2026 14:34:00 GMT-0400 (Eastern Daylight Time),733441.7000000002,146_o_m_n_a.png,I,m,1035,10,1,2058.0,731383.7000000002,9064,NNB,C,8
4,test,5,0.0,2-Back,1.0,m,Mon Mar 16 2026 14:34:00 GMT-0400 (Eastern Daylight Time),735258.5,006_m_f_n_a.png,I,m,784,11,1,1806.5,733452.0,9064,NNB,C,9
4,test,5,0.0,2-Back,0.0,m,Mon Mar 16 2026 14:34:00 GMT-0400 (Eastern Daylight Time),736875.1000000006,092_m_m_n_a.png,I,z,593,12,1,1609.4000000003725,735265.7000000002,9064,NNB,C,10
4,test,5,0.0,2-Back,0.0,m,Mon Mar 16 2026 14:34:00 GMT-0400 (Eastern Daylight Time),738941.9000000004,146_o_m_n_a.png,I,z,1040,13,1,2059.600000000559,736882.2999999998,9064,NNB,C,11
5,test,5,1.0,2-Back,1.0,z,Mon Mar 16 2026 14:34:00 GMT-0400 (Eastern Daylight Time),741191.7999999998,092_m_m_n_a.png,I,z,1221,14,1,2239.2999999998137,738952.5,9064,NNB,C,12
6,test,5,0.0,2-Back,1.0,m,Mon Mar 16 2026 14:34:00 GMT-0400 (Eastern Daylight Time),743375.0,098_y_f_n_a.png,I,m,1164,15,1,2174.5999999996275,741200.4000000004,9064,NNB,C,13
7,test,5,0.0,2-Back,1.0,m,Mon Mar 16 2026 14:34:00 GMT-0400 (Eastern Daylight Time),745525.1000000006,059_o_m_n_a.png,I,m,1132,16,1,2139.0,743386.1000000006,9064,NNB,C,14
7,test,5,0.0,2-Back,0.0,m,Mon Mar 16 2026 14:34:00 GMT-0400 (Eastern Daylight Time),747508.0,006_m_f_n_a.png,I,z,958,17,1,1973.2999999998137,745534.7000000002,9064,NNB,C,15
8,test,5,1.0,2-Back,1.0,z,Mon Mar 16 2026 14:34:00 GMT-0400 (Eastern Daylight Time),749591.7999999998,059_o_m_n_a.png,I,z,1054,18,1,2079.899999999441,747511.9000000004,9064,NNB,C,16
