acc_sum,block,block_c,change,condition,correct,correct_response,datetime,endtime,face,project,response,response_time,row_sel,session_number,start_end,starttime,subject_id,task,task_vers,trial
0,prac,1,,1-Back,,,Fri Mar 27 2026 13:22:01 GMT-0500 (Central Daylight Time),,093_m_f_n_a.png,O,space,13104,1,1,,,7784,NNB,C,0
1,prac,1,0.0,1-Back,1.0,m,Fri Mar 27 2026 13:22:01 GMT-0500 (Central Daylight Time),178424.60000014305,098_y_f_n_a.png,O,m,1256,2,1,2102.2000000476837,176322.40000009537,7784,NNB,C,1
1,prac,1,1.0,1-Back,0.0,z,Fri Mar 27 2026 13:22:01 GMT-0500 (Central Daylight Time),181206.60000014305,098_y_f_n_a.png,O,None,2012,3,1,2776.2000000476837,178430.40000009537,7784,NNB,C,2
1,prac,1,0.0,1-Back,0.0,m,Fri Mar 27 2026 13:22:01 GMT-0500 (Central Daylight Time),184056.90000009537,059_o_m_n_a.png,O,None,2005,4,1,2844.7999999523163,181212.10000014305,7784,NNB,C,3
2,prac,1,0.0,1-Back,1.0,m,Fri Mar 27 2026 13:22:01 GMT-0500 (Central Daylight Time),185825.20000004768,092_m_m_n_a.png,O,m,918,5,1,1759.8999998569489,184065.30000019073,7784,NNB,C,4
2,prac,1,1.0,1-Back,0.0,z,Fri Mar 27 2026 13:22:01 GMT-0500 (Central Daylight Time),187222.90000009537,092_m_m_n_a.png,O,m,613,6,1,1383.7000000476837,185839.20000004768,7784,NNB,C,5
2,prac,1,0.0,1-Back,0.0,m,Fri Mar 27 2026 13:22:01 GMT-0500 (Central Daylight Time),190088.40000009537,130_o_f_n_a.png,O,None,2005,7,1,2857.2999999523163,187231.10000014305,7784,NNB,C,6
3,prac,1,0.0,1-Back,1.0,m,Fri Mar 27 2026 13:22:01 GMT-0500 (Central Daylight Time),192271.80000019073,082_m_m_n_a.png,O,m,1333,8,1,2175.100000143051,190096.70000004768,7784,NNB,C,7
4,prac,1,0.0,1-Back,1.0,m,Fri Mar 27 2026 13:22:01 GMT-0500 (Central Daylight Time),194353.0,093_m_f_n_a.png,O,m,1291,9,1,2072.699999809265,192280.30000019073,7784,NNB,C,8
5,prac,1,1.0,1-Back,1.0,z,Fri Mar 27 2026 13:22:01 GMT-0500 (Central Daylight Time),196106.70000004768,093_m_f_n_a.png,O,z,976,10,1,1749.7000000476837,194357.0,7784,NNB,C,9
6,prac,1,0.0,1-Back,1.0,m,Fri Mar 27 2026 13:22:01 GMT-0500 (Central Daylight Time),197836.80000019073,059_o_m_n_a.png,O,m,959,11,1,1720.2000000476837,196116.60000014305,7784,NNB,C,10
7,prac,1,0.0,1-Back,1.0,m,Fri Mar 27 2026 13:22:01 GMT-0500 (Central Daylight Time),199720.0,028_y_f_n_a.png,O,m,1033,12,1,1874.7999999523163,197845.20000004768,7784,NNB,C,11
0,test,1,0.0,1-Back,,,Fri Mar 27 2026 13:22:01 GMT-0500 (Central Daylight Time),199720.0,098_y_f_n_a.png,O,space,3736,1,1,1874.7999999523163,197845.20000004768,7784,NNB,C,0
1,test,1,0.0,1-Back,1.0,m,Fri Mar 27 2026 13:22:01 GMT-0500 (Central Daylight Time),215914.0,006_m_f_n_a.png,O,m,760,2,1,1772.6999998092651,214141.30000019073,7784,NNB,C,1
1,test,1,0.0,1-Back,0.0,m,Fri Mar 27 2026 13:22:01 GMT-0500 (Central Daylight Time),218946.40000009537,028_y_f_n_a.png,O,None,2016,3,1,3026.5,215919.90000009537,7784,NNB,C,2
1,test,1,1.0,1-Back,0.0,z,Fri Mar 27 2026 13:22:01 GMT-0500 (Central Daylight Time),220879.20000004768,028_y_f_n_a.png,O,m,900,4,1,1925.5,218953.70000004768,7784,NNB,C,3
2,test,1,0.0,1-Back,1.0,m,Fri Mar 27 2026 13:22:01 GMT-0500 (Central Daylight Time),223895.30000019073,006_m_f_n_a.png,O,m,1987,5,1,3009.800000190735,220885.5,7784,NNB,C,4
3,test,1,0.0,1-Back,1.0,m,Fri Mar 27 2026 13:22:01 GMT-0500 (Central Daylight Time),226293.40000009537,059_o_m_n_a.png,O,m,1373,6,1,2391.2999999523163,223902.10000014305,7784,NNB,C,5
4,test,1,1.0,1-Back,1.0,z,Fri Mar 27 2026 13:22:01 GMT-0500 (Central Daylight Time),228510.10000014305,059_o_m_n_a.png,O,z,1198,7,1,2210.2999999523163,226299.80000019073,7784,NNB,C,6
5,test,1,0.0,1-Back,1.0,m,Fri Mar 27 2026 13:22:01 GMT-0500 (Central Daylight Time),230792.60000014305,092_m_m_n_a.png,O,m,1266,8,1,2278.2000000476837,228514.40000009537,7784,NNB,C,7
6,test,1,0.0,1-Back,1.0,m,Fri Mar 27 2026 13:22:01 GMT-0500 (Central Daylight Time),232676.30000019073,130_o_f_n_a.png,O,m,860,9,1,1876.9000000953674,230799.40000009537,7784,NNB,C,8
7,test,1,0.0,1-Back,1.0,m,Fri Mar 27 2026 13:22:01 GMT-0500 (Central Daylight Time),234892.60000014305,092_m_m_n_a.png,O,m,1199,10,1,2211.4000000953674,232681.20000004768,7784,NNB,C,9
8,test,1,0.0,1-Back,1.0,m,Fri Mar 27 2026 13:22:01 GMT-0500 (Central Daylight Time),236940.0,057_y_m_n_a.png,O,m,1024,11,1,2041.2999999523163,234898.70000004768,7784,NNB,C,10
9,test,1,1.0,1-Back,1.0,z,Fri Mar 27 2026 13:22:01 GMT-0500 (Central Daylight Time),238556.60000014305,057_y_m_n_a.png,O,z,590,12,1,1613.2000000476837,236943.40000009537,7784,NNB,C,11
10,test,1,0.0,1-Back,1.0,m,Fri Mar 27 2026 13:22:01 GMT-0500 (Central Daylight Time),240505.10000014305,030_o_f_n_a.png,O,m,927,13,1,1940.6000001430511,238564.5,7784,NNB,C,12
11,test,1,1.0,1-Back,1.0,z,Fri Mar 27 2026 13:22:01 GMT-0500 (Central Daylight Time),242072.30000019073,030_o_f_n_a.png,O,z,532,14,1,1560.8000001907349,240511.5,7784,NNB,C,13
12,test,1,0.0,1-Back,1.0,m,Fri Mar 27 2026 13:22:01 GMT-0500 (Central Daylight Time),244055.60000014305,031_y_m_n_a.png,O,m,955,15,1,1977.2999999523163,242078.30000019073,7784,NNB,C,14
13,test,1,0.0,1-Back,1.0,m,Fri Mar 27 2026 13:22:01 GMT-0500 (Central Daylight Time),245837.40000009537,093_m_f_n_a.png,O,m,757,16,1,1774.7000000476837,244062.70000004768,7784,NNB,C,15
14,test,1,0.0,1-Back,1.0,m,Fri Mar 27 2026 13:22:01 GMT-0500 (Central Daylight Time),247654.40000009537,146_o_m_n_a.png,O,m,781,17,1,1811.7000000476837,245842.70000004768,7784,NNB,C,16
15,test,1,0.0,1-Back,1.0,m,Fri Mar 27 2026 13:22:01 GMT-0500 (Central Daylight Time),249454.0,093_m_f_n_a.png,O,m,785,18,1,1792.0,247662.0,7784,NNB,C,17
0,test,2,0.0,1-Back,,,Fri Mar 27 2026 13:22:01 GMT-0500 (Central Daylight Time),249454.0,092_m_m_n_a.png,O,space,3065,1,1,1792.0,247662.0,7784,NNB,C,0
1,test,2,0.0,1-Back,1.0,m,Fri Mar 27 2026 13:22:01 GMT-0500 (Central Daylight Time),256701.0,006_m_f_n_a.png,O,m,1126,2,1,2147.699999809265,254553.30000019073,7784,NNB,C,1
2,test,2,1.0,1-Back,1.0,z,Fri Mar 27 2026 13:22:01 GMT-0500 (Central Daylight Time),258383.40000009537,006_m_f_n_a.png,O,z,663,3,1,1675.5999999046326,256707.80000019073,7784,NNB,C,2
3,test,2,0.0,1-Back,1.0,m,Fri Mar 27 2026 13:22:01 GMT-0500 (Central Daylight Time),260350.90000009537,092_m_m_n_a.png,O,m,951,4,1,1963.2000000476837,258387.70000004768,7784,NNB,C,3
4,test,2,0.0,1-Back,1.0,m,Fri Mar 27 2026 13:22:01 GMT-0500 (Central Daylight Time),262364.7000000477,057_y_m_n_a.png,O,m,999,5,1,2006.8999998569489,260357.80000019073,7784,NNB,C,4
5,test,2,0.0,1-Back,1.0,m,Fri Mar 27 2026 13:22:01 GMT-0500 (Central Daylight Time),264181.5,098_y_f_n_a.png,O,m,780,6,1,1813.0999999046326,262368.40000009537,7784,NNB,C,5
6,test,2,1.0,1-Back,1.0,z,Fri Mar 27 2026 13:22:01 GMT-0500 (Central Daylight Time),265648.7000000477,098_y_f_n_a.png,O,z,446,7,1,1460.3999998569489,264188.30000019073,7784,NNB,C,6
7,test,2,0.0,1-Back,1.0,m,Fri Mar 27 2026 13:22:01 GMT-0500 (Central Daylight Time),267631.90000009537,057_y_m_n_a.png,O,m,967,8,1,1976.7000000476837,265655.2000000477,7784,NNB,C,7
8,test,2,0.0,1-Back,1.0,m,Fri Mar 27 2026 13:22:01 GMT-0500 (Central Daylight Time),269648.0,030_o_f_n_a.png,O,m,989,9,1,2011.0999999046326,267636.90000009537,7784,NNB,C,8
9,test,2,0.0,1-Back,1.0,m,Fri Mar 27 2026 13:22:01 GMT-0500 (Central Daylight Time),271414.2000000477,082_m_m_n_a.png,O,m,742,10,1,1758.7000000476837,269655.5,7784,NNB,C,9
10,test,2,1.0,1-Back,1.0,z,Fri Mar 27 2026 13:22:01 GMT-0500 (Central Daylight Time),273462.90000009537,082_m_m_n_a.png,O,z,1033,11,1,2040.7999999523163,271422.10000014305,7784,NNB,C,10
11,test,2,0.0,1-Back,1.0,m,Fri Mar 27 2026 13:22:01 GMT-0500 (Central Daylight Time),275413.2000000477,030_o_f_n_a.png,O,m,918,12,1,1944.0,273469.2000000477,7784,NNB,C,11
12,test,2,0.0,1-Back,1.0,m,Fri Mar 27 2026 13:22:01 GMT-0500 (Central Daylight Time),277262.60000014305,130_o_f_n_a.png,O,m,834,13,1,1842.1000001430511,275420.5,7784,NNB,C,12
13,test,2,0.0,1-Back,1.0,m,Fri Mar 27 2026 13:22:01 GMT-0500 (Central Daylight Time),279245.90000009537,059_o_m_n_a.png,O,m,951,14,1,1975.7999999523163,277270.10000014305,7784,NNB,C,13
14,test,2,0.0,1-Back,1.0,m,Fri Mar 27 2026 13:22:01 GMT-0500 (Central Daylight Time),281276.80000019073,146_o_m_n_a.png,O,m,1005,15,1,2023.9000000953674,279252.90000009537,7784,NNB,C,14
15,test,2,1.0,1-Back,1.0,z,Fri Mar 27 2026 13:22:01 GMT-0500 (Central Daylight Time),282877.10000014305,146_o_m_n_a.png,O,z,566,16,1,1593.7000000476837,281283.40000009537,7784,NNB,C,15
16,test,2,0.0,1-Back,1.0,m,Fri Mar 27 2026 13:22:01 GMT-0500 (Central Daylight Time),284942.0,031_y_m_n_a.png,O,m,1049,17,1,2057.5999999046326,282884.40000009537,7784,NNB,C,16
17,test,2,1.0,1-Back,1.0,z,Fri Mar 27 2026 13:22:01 GMT-0500 (Central Daylight Time),286792.0,031_y_m_n_a.png,O,z,825,18,1,1842.8999998569489,284949.10000014305,7784,NNB,C,17
0,test,3,1.0,1-Back,,,Fri Mar 27 2026 13:22:01 GMT-0500 (Central Daylight Time),286792.0,028_y_f_n_a.png,O,space,2605,1,1,1842.8999998569489,284949.10000014305,7784,NNB,C,0
1,test,3,0.0,1-Back,1.0,m,Fri Mar 27 2026 13:22:01 GMT-0500 (Central Daylight Time),293473.30000019073,146_o_m_n_a.png,O,m,949,1,1,1975.5,291497.80000019073,7784,NNB,C,1
2,test,3,1.0,1-Back,1.0,z,Fri Mar 27 2026 13:22:01 GMT-0500 (Central Daylight Time),295387.5,146_o_m_n_a.png,O,z,891,1,1,1907.0,293480.5,7784,NNB,C,2
2,test,3,0.0,1-Back,0.0,m,Fri Mar 27 2026 13:22:01 GMT-0500 (Central Daylight Time),298422.10000014305,093_m_f_n_a.png,O,None,2016,1,1,3028.2000000476837,295393.90000009537,7784,NNB,C,3
3,test,3,1.0,1-Back,1.0,z,Fri Mar 27 2026 13:22:01 GMT-0500 (Central Daylight Time),300353.5,093_m_f_n_a.png,O,z,912,1,1,1925.1999998092651,298428.30000019073,7784,NNB,C,4
3,test,3,0.0,1-Back,0.0,m,Fri Mar 27 2026 13:22:01 GMT-0500 (Central Daylight Time),303385.80000019073,030_o_f_n_a.png,O,None,2016,1,1,3027.300000190735,300358.5,7784,NNB,C,5
4,test,3,0.0,1-Back,1.0,m,Fri Mar 27 2026 13:22:01 GMT-0500 (Central Daylight Time),305201.7000000477,057_y_m_n_a.png,O,m,787,1,1,1807.5999999046326,303394.10000014305,7784,NNB,C,6
5,test,3,0.0,1-Back,1.0,m,Fri Mar 27 2026 13:22:01 GMT-0500 (Central Daylight Time),307152.0,030_o_f_n_a.png,O,m,922,1,1,1942.2999999523163,305209.7000000477,7784,NNB,C,7
6,test,3,0.0,1-Back,1.0,m,Fri Mar 27 2026 13:22:01 GMT-0500 (Central Daylight Time),309084.2000000477,031_y_m_n_a.png,O,m,909,1,1,1924.3999998569489,307159.80000019073,7784,NNB,C,8
7,test,3,1.0,1-Back,1.0,z,Fri Mar 27 2026 13:22:01 GMT-0500 (Central Daylight Time),310716.60000014305,031_y_m_n_a.png,O,z,600,1,1,1628.7999999523163,309087.80000019073,7784,NNB,C,9
8,test,3,0.0,1-Back,1.0,m,Fri Mar 27 2026 13:22:01 GMT-0500 (Central Daylight Time),313333.7000000477,006_m_f_n_a.png,O,m,1599,1,1,2609.7000000476837,310724.0,7784,NNB,C,10
9,test,3,0.0,1-Back,1.0,m,Fri Mar 27 2026 13:22:01 GMT-0500 (Central Daylight Time),315099.2000000477,098_y_f_n_a.png,O,m,736,1,1,1756.8999998569489,313342.30000019073,7784,NNB,C,11
10,test,3,1.0,1-Back,1.0,z,Fri Mar 27 2026 13:22:01 GMT-0500 (Central Daylight Time),316665.0,098_y_f_n_a.png,O,z,536,1,1,1559.0,315106.0,7784,NNB,C,12
11,test,3,0.0,1-Back,1.0,m,Fri Mar 27 2026 13:22:01 GMT-0500 (Central Daylight Time),318548.10000014305,006_m_f_n_a.png,O,m,850,1,1,1872.5,316675.60000014305,7784,NNB,C,13
12,test,3,0.0,1-Back,1.0,m,Fri Mar 27 2026 13:22:01 GMT-0500 (Central Daylight Time),320296.80000019073,092_m_m_n_a.png,O,m,729,1,1,1741.0,318555.80000019073,7784,NNB,C,14
13,test,3,1.0,1-Back,1.0,z,Fri Mar 27 2026 13:22:01 GMT-0500 (Central Daylight Time),321846.40000009537,092_m_m_n_a.png,O,z,523,1,1,1542.7000000476837,320303.7000000477,7784,NNB,C,15
14,test,3,0.0,1-Back,1.0,m,Fri Mar 27 2026 13:22:01 GMT-0500 (Central Daylight Time),323531.0,130_o_f_n_a.png,O,m,664,1,1,1678.6999998092651,321852.30000019073,7784,NNB,C,16
15,test,3,1.0,1-Back,1.0,z,Fri Mar 27 2026 13:22:01 GMT-0500 (Central Daylight Time),324995.7000000477,130_o_f_n_a.png,O,z,435,1,1,1457.2000000476837,323538.5,7784,NNB,C,17
0,test,4,1.0,1-Back,,,Fri Mar 27 2026 13:22:01 GMT-0500 (Central Daylight Time),324995.7000000477,093_m_f_n_a.png,O,space,1720,1,1,1457.2000000476837,323538.5,7784,NNB,C,0
1,test,4,0.0,1-Back,1.0,m,Fri Mar 27 2026 13:22:01 GMT-0500 (Central Daylight Time),330878.30000019073,146_o_m_n_a.png,O,m,1048,2,1,2061.9000000953674,328816.40000009537,7784,NNB,C,1
2,test,4,0.0,1-Back,1.0,m,Fri Mar 27 2026 13:22:01 GMT-0500 (Central Daylight Time),332659.2000000477,093_m_f_n_a.png,O,m,760,3,1,1775.5999999046326,330883.60000014305,7784,NNB,C,2
3,test,4,0.0,1-Back,1.0,m,Fri Mar 27 2026 13:22:01 GMT-0500 (Central Daylight Time),334659.40000009537,030_o_f_n_a.png,O,m,977,4,1,1997.4000000953674,332662.0,7784,NNB,C,3
4,test,4,1.0,1-Back,1.0,z,Fri Mar 27 2026 13:22:01 GMT-0500 (Central Daylight Time),336358.7000000477,030_o_f_n_a.png,O,z,673,5,1,1692.5,334666.2000000477,7784,NNB,C,4
5,test,4,0.0,1-Back,1.0,m,Fri Mar 27 2026 13:22:01 GMT-0500 (Central Daylight Time),338525.10000014305,098_y_f_n_a.png,O,m,1135,6,1,2160.2999999523163,336364.80000019073,7784,NNB,C,5
6,test,4,0.0,1-Back,1.0,m,Fri Mar 27 2026 13:22:01 GMT-0500 (Central Daylight Time),340307.40000009537,057_y_m_n_a.png,O,m,751,7,1,1774.5999999046326,338532.80000019073,7784,NNB,C,6
7,test,4,1.0,1-Back,1.0,z,Fri Mar 27 2026 13:22:01 GMT-0500 (Central Daylight Time),342057.60000014305,057_y_m_n_a.png,O,z,717,8,1,1744.7999999523163,340312.80000019073,7784,NNB,C,7
8,test,4,0.0,1-Back,1.0,m,Fri Mar 27 2026 13:22:01 GMT-0500 (Central Daylight Time),344606.5,098_y_f_n_a.png,O,m,1523,9,1,2543.399999856949,342063.10000014305,7784,NNB,C,8
9,test,4,0.0,1-Back,1.0,m,Fri Mar 27 2026 13:22:01 GMT-0500 (Central Daylight Time),346456.2000000477,082_m_m_n_a.png,O,m,832,10,1,1842.2999999523163,344613.90000009537,7784,NNB,C,9
10,test,4,1.0,1-Back,1.0,z,Fri Mar 27 2026 13:22:01 GMT-0500 (Central Daylight Time),348338.80000019073,082_m_m_n_a.png,O,z,861,11,1,1875.0,346463.80000019073,7784,NNB,C,10
10,test,4,0.0,1-Back,0.0,m,Fri Mar 27 2026 13:22:01 GMT-0500 (Central Daylight Time),351371.5,130_o_f_n_a.png,O,None,2017,12,1,3025.699999809265,348345.80000019073,7784,NNB,C,11
11,test,4,0.0,1-Back,1.0,m,Fri Mar 27 2026 13:22:01 GMT-0500 (Central Daylight Time),353053.90000009537,059_o_m_n_a.png,O,m,657,13,1,1675.9000000953674,351378.0,7784,NNB,C,12
12,test,4,0.0,1-Back,1.0,m,Fri Mar 27 2026 13:22:01 GMT-0500 (Central Daylight Time),355253.7000000477,130_o_f_n_a.png,O,m,1174,14,1,2193.399999856949,353060.30000019073,7784,NNB,C,13
13,test,4,0.0,1-Back,1.0,m,Fri Mar 27 2026 13:22:01 GMT-0500 (Central Daylight Time),357185.80000019073,028_y_f_n_a.png,O,m,904,15,1,1925.2000000476837,355260.60000014305,7784,NNB,C,14
14,test,4,1.0,1-Back,1.0,z,Fri Mar 27 2026 13:22:01 GMT-0500 (Central Daylight Time),358652.40000009537,028_y_f_n_a.png,O,z,434,16,1,1459.7000000476837,357192.7000000477,7784,NNB,C,15
15,test,4,0.0,1-Back,1.0,m,Fri Mar 27 2026 13:22:01 GMT-0500 (Central Daylight Time),360700.90000009537,006_m_f_n_a.png,O,m,1016,17,1,2040.2000000476837,358660.7000000477,7784,NNB,C,16
16,test,4,1.0,1-Back,1.0,z,Fri Mar 27 2026 13:22:01 GMT-0500 (Central Daylight Time),362467.30000019073,006_m_f_n_a.png,O,z,742,18,1,1760.1000001430511,360707.2000000477,7784,NNB,C,17
0,test,5,1.0,1-Back,,,Fri Mar 27 2026 13:22:01 GMT-0500 (Central Daylight Time),362467.30000019073,059_o_m_n_a.png,O,space,1426,1,1,1760.1000001430511,360707.2000000477,7784,NNB,C,0
1,test,5,1.0,1-Back,1.0,z,Fri Mar 27 2026 13:22:01 GMT-0500 (Central Daylight Time),367765.80000019073,059_o_m_n_a.png,O,z,824,2,1,1840.7000000476837,365925.10000014305,7784,NNB,C,1
2,test,5,0.0,1-Back,1.0,m,Fri Mar 27 2026 13:22:01 GMT-0500 (Central Daylight Time),370315.10000014305,098_y_f_n_a.png,O,m,1526,3,1,2543.600000143051,367771.5,7784,NNB,C,2
3,test,5,0.0,1-Back,1.0,m,Fri Mar 27 2026 13:22:01 GMT-0500 (Central Daylight Time),372364.0,057_y_m_n_a.png,O,m,1025,4,1,2042.0999999046326,370321.90000009537,7784,NNB,C,3
4,test,5,0.0,1-Back,1.0,m,Fri Mar 27 2026 13:22:01 GMT-0500 (Central Daylight Time),374329.30000019073,098_y_f_n_a.png,O,m,944,5,1,1958.8000001907349,372370.5,7784,NNB,C,4
5,test,5,0.0,1-Back,1.0,m,Fri Mar 27 2026 13:22:01 GMT-0500 (Central Daylight Time),376097.10000014305,092_m_m_n_a.png,O,m,738,6,1,1762.4000000953674,374334.7000000477,7784,NNB,C,5
6,test,5,1.0,1-Back,1.0,z,Fri Mar 27 2026 13:22:01 GMT-0500 (Central Daylight Time),377746.30000019073,092_m_m_n_a.png,O,z,629,7,1,1642.4000000953674,376103.90000009537,7784,NNB,C,6
7,test,5,0.0,1-Back,1.0,m,Fri Mar 27 2026 13:22:01 GMT-0500 (Central Daylight Time),379711.10000014305,028_y_f_n_a.png,O,m,938,8,1,1958.5,377752.60000014305,7784,NNB,C,7
8,test,5,0.0,1-Back,1.0,m,Fri Mar 27 2026 13:22:01 GMT-0500 (Central Daylight Time),381610.7000000477,031_y_m_n_a.png,O,m,868,9,1,1893.7000000476837,379717.0,7784,NNB,C,8
9,test,5,0.0,1-Back,1.0,m,Fri Mar 27 2026 13:22:01 GMT-0500 (Central Daylight Time),383744.7000000477,028_y_f_n_a.png,O,m,1117,10,1,2127.5,381617.2000000477,7784,NNB,C,9
10,test,5,0.0,1-Back,1.0,m,Fri Mar 27 2026 13:22:01 GMT-0500 (Central Daylight Time),385592.90000009537,130_o_f_n_a.png,O,m,829,11,1,1841.7999999523163,383751.10000014305,7784,NNB,C,10
11,test,5,1.0,1-Back,1.0,z,Fri Mar 27 2026 13:22:01 GMT-0500 (Central Daylight Time),387110.80000019073,130_o_f_n_a.png,O,z,499,12,1,1513.5,385597.30000019073,7784,NNB,C,11
12,test,5,0.0,1-Back,1.0,m,Fri Mar 27 2026 13:22:01 GMT-0500 (Central Daylight Time),389375.10000014305,146_o_m_n_a.png,O,m,1237,13,1,2257.0,387118.10000014305,7784,NNB,C,12
13,test,5,0.0,1-Back,1.0,m,Fri Mar 27 2026 13:22:01 GMT-0500 (Central Daylight Time),391024.80000019073,093_m_f_n_a.png,O,m,620,14,1,1641.8000001907349,389383.0,7784,NNB,C,13
14,test,5,1.0,1-Back,1.0,z,Fri Mar 27 2026 13:22:01 GMT-0500 (Central Daylight Time),392490.40000009537,093_m_f_n_a.png,O,z,443,15,1,1458.7999999523163,391031.60000014305,7784,NNB,C,14
15,test,5,0.0,1-Back,1.0,m,Fri Mar 27 2026 13:22:01 GMT-0500 (Central Daylight Time),394357.30000019073,146_o_m_n_a.png,O,m,841,16,1,1860.4000000953674,392496.90000009537,7784,NNB,C,15
16,test,5,0.0,1-Back,1.0,m,Fri Mar 27 2026 13:22:01 GMT-0500 (Central Daylight Time),396122.7000000477,006_m_f_n_a.png,O,m,742,17,1,1759.5,394363.2000000477,7784,NNB,C,16
17,test,5,0.0,1-Back,1.0,m,Fri Mar 27 2026 13:22:01 GMT-0500 (Central Daylight Time),397806.2000000477,082_m_m_n_a.png,O,m,658,18,1,1677.0999999046326,396129.10000014305,7784,NNB,C,17
0,prac,1,0.0,2-Back,,,Fri Mar 27 2026 13:22:01 GMT-0500 (Central Daylight Time),397806.2000000477,031_y_m_n_a.png,O,space,5902,1,1,1677.0999999046326,396129.10000014305,7784,NNB,C,0
0,prac,1,0.0,2-Back,,,Fri Mar 27 2026 13:22:01 GMT-0500 (Central Daylight Time),397806.2000000477,006_m_f_n_a.png,O,space,5902,2,1,1677.0999999046326,396129.10000014305,7784,NNB,C,0
1,prac,1,1.0,2-Back,1.0,m,Fri Mar 27 2026 13:22:01 GMT-0500 (Central Daylight Time),607640.4000000954,146_o_m_n_a.png,O,m,1333,3,1,2174.9000000953674,605465.5,7784,NNB,C,1
2,prac,1,0.0,2-Back,1.0,m,Fri Mar 27 2026 13:22:01 GMT-0500 (Central Daylight Time),610256.7000000477,130_o_f_n_a.png,O,m,1758,4,1,2607.0999999046326,607649.600000143,7784,NNB,C,2
2,prac,1,0.0,2-Back,0.0,z,Fri Mar 27 2026 13:22:01 GMT-0500 (Central Daylight Time),613038.600000143,146_o_m_n_a.png,O,None,2008,5,1,2774.2999999523163,610264.3000001907,7784,NNB,C,3
3,prac,1,1.0,2-Back,1.0,z,Fri Mar 27 2026 13:22:01 GMT-0500 (Central Daylight Time),615405.100000143,130_o_f_n_a.png,O,z,1597,6,1,2358.0,613047.100000143,7784,NNB,C,4
3,prac,1,0.0,2-Back,0.0,m,Fri Mar 27 2026 13:22:01 GMT-0500 (Central Daylight Time),617887.0,082_m_m_n_a.png,O,z,1695,7,1,2472.0999999046326,615414.9000000954,7784,NNB,C,5
4,prac,1,0.0,2-Back,1.0,m,Fri Mar 27 2026 13:22:01 GMT-0500 (Central Daylight Time),620635.3000001907,059_o_m_n_a.png,O,m,1895,8,1,2740.7000000476837,617894.600000143,7784,NNB,C,6
5,prac,1,0.0,2-Back,1.0,m,Fri Mar 27 2026 13:22:01 GMT-0500 (Central Daylight Time),623102.4000000954,028_y_f_n_a.png,O,m,1622,9,1,2459.0999999046326,620643.3000001907,7784,NNB,C,7
6,prac,1,1.0,2-Back,1.0,z,Fri Mar 27 2026 13:22:01 GMT-0500 (Central Daylight Time),625084.4000000954,059_o_m_n_a.png,O,z,1207,10,1,1974.0999999046326,623110.3000001907,7784,NNB,C,8
7,prac,1,0.0,2-Back,1.0,m,Fri Mar 27 2026 13:22:01 GMT-0500 (Central Daylight Time),627182.7000000477,098_y_f_n_a.png,O,m,1235,11,1,2091.0,625091.7000000477,7784,NNB,C,9
7,prac,1,0.0,2-Back,0.0,m,Fri Mar 27 2026 13:22:01 GMT-0500 (Central Daylight Time),629283.5,082_m_m_n_a.png,O,z,1318,12,1,2093.0999999046326,627190.4000000954,7784,NNB,C,10
0,test,1,0.0,2-Back,,,Fri Mar 27 2026 13:22:01 GMT-0500 (Central Daylight Time),629283.5,057_y_m_n_a.png,O,space,3145,1,1,2093.0999999046326,627190.4000000954,7784,NNB,C,0
0,test,1,0.0,2-Back,,,Fri Mar 27 2026 13:22:01 GMT-0500 (Central Daylight Time),629283.5,057_y_m_n_a.png,O,space,3145,2,1,2093.0999999046326,627190.4000000954,7784,NNB,C,0
1,test,1,0.0,2-Back,1.0,m,Fri Mar 27 2026 13:22:01 GMT-0500 (Central Daylight Time),653691.4000000954,130_o_f_n_a.png,O,m,1168,3,1,2192.4000000953674,651499.0,7784,NNB,C,1
2,test,1,0.0,2-Back,1.0,m,Fri Mar 27 2026 13:22:01 GMT-0500 (Central Daylight Time),655774.100000143,092_m_m_n_a.png,O,m,1058,4,1,2077.5,653696.600000143,7784,NNB,C,2
3,test,1,1.0,2-Back,1.0,z,Fri Mar 27 2026 13:22:01 GMT-0500 (Central Daylight Time),658039.600000143,130_o_f_n_a.png,O,z,1238,5,1,2257.100000143051,655782.5,7784,NNB,C,3
4,test,1,0.0,2-Back,1.0,m,Fri Mar 27 2026 13:22:01 GMT-0500 (Central Daylight Time),660405.9000000954,098_y_f_n_a.png,O,m,1343,6,1,2360.9000000953674,658045.0,7784,NNB,C,4
4,test,1,0.0,2-Back,0.0,m,Fri Mar 27 2026 13:22:01 GMT-0500 (Central Daylight Time),662688.0,092_m_m_n_a.png,O,z,1263,7,1,2276.0,660412.0,7784,NNB,C,5
5,test,1,1.0,2-Back,1.0,z,Fri Mar 27 2026 13:22:01 GMT-0500 (Central Daylight Time),665104.7000000477,098_y_f_n_a.png,O,z,1386,8,1,2406.399999856949,662698.3000001907,7784,NNB,C,6
5,test,1,0.0,2-Back,0.0,m,Fri Mar 27 2026 13:22:01 GMT-0500 (Central Daylight Time),668136.5,031_y_m_n_a.png,O,None,2015,9,1,3024.5,665112.0,7784,NNB,C,7
6,test,1,0.0,2-Back,1.0,m,Fri Mar 27 2026 13:22:01 GMT-0500 (Central Daylight Time),670352.9000000954,030_o_f_n_a.png,O,m,1196,10,1,2207.7000000476837,668145.2000000477,7784,NNB,C,8
7,test,1,1.0,2-Back,1.0,z,Fri Mar 27 2026 13:22:01 GMT-0500 (Central Daylight Time),672285.9000000954,031_y_m_n_a.png,O,z,909,11,1,1925.5,670360.4000000954,7784,NNB,C,9
8,test,1,0.0,2-Back,1.0,m,Fri Mar 27 2026 13:22:01 GMT-0500 (Central Daylight Time),675050.8000001907,006_m_f_n_a.png,O,m,1735,12,1,2756.2000000476837,672294.600000143,7784,NNB,C,10
8,test,1,0.0,2-Back,0.0,m,Fri Mar 27 2026 13:22:01 GMT-0500 (Central Daylight Time),678083.5,006_m_f_n_a.png,O,None,2015,13,1,3026.0999999046326,675057.4000000954,7784,NNB,C,11
9,test,1,0.0,2-Back,1.0,m,Fri Mar 27 2026 13:22:01 GMT-0500 (Central Daylight Time),679833.0,146_o_m_n_a.png,O,m,723,14,1,1740.0999999046326,678092.9000000954,7784,NNB,C,12
9,test,1,0.0,2-Back,0.0,m,Fri Mar 27 2026 13:22:01 GMT-0500 (Central Daylight Time),682864.8000001907,030_o_f_n_a.png,O,None,2016,15,1,3025.2000000476837,679839.600000143,7784,NNB,C,13
10,test,1,1.0,2-Back,1.0,z,Fri Mar 27 2026 13:22:01 GMT-0500 (Central Daylight Time),684581.100000143,146_o_m_n_a.png,O,z,684,16,1,1708.7999999523163,682872.3000001907,7784,NNB,C,14
10,test,1,0.0,2-Back,0.0,m,Fri Mar 27 2026 13:22:01 GMT-0500 (Central Daylight Time),687614.9000000954,093_m_f_n_a.png,O,None,2017,17,1,3026.2999999523163,684588.600000143,7784,NNB,C,15
10,test,1,0.0,2-Back,0.0,m,Fri Mar 27 2026 13:22:01 GMT-0500 (Central Daylight Time),689679.5,082_m_m_n_a.png,O,z,1039,18,1,2057.699999809265,687621.8000001907,7784,NNB,C,16
0,test,2,0.0,2-Back,,,Fri Mar 27 2026 13:22:01 GMT-0500 (Central Daylight Time),689679.5,082_m_m_n_a.png,O,space,2492,1,1,2057.699999809265,687621.8000001907,7784,NNB,C,0
0,test,2,0.0,2-Back,,,Fri Mar 27 2026 13:22:01 GMT-0500 (Central Daylight Time),689679.5,028_y_f_n_a.png,O,space,2492,2,1,2057.699999809265,687621.8000001907,7784,NNB,C,0
1,test,2,1.0,2-Back,1.0,z,Fri Mar 27 2026 13:22:01 GMT-0500 (Central Daylight Time),699208.7000000477,082_m_m_n_a.png,O,z,892,3,1,1909.8999998569489,697298.8000001907,7784,NNB,C,1
1,test,2,0.0,2-Back,0.0,m,Fri Mar 27 2026 13:22:01 GMT-0500 (Central Daylight Time),701710.4000000954,093_m_f_n_a.png,O,z,1475,4,1,2496.2999999523163,699214.100000143,7784,NNB,C,2
1,test,2,0.0,2-Back,0.0,m,Fri Mar 27 2026 13:22:01 GMT-0500 (Central Daylight Time),704591.600000143,028_y_f_n_a.png,O,z,1865,5,1,2874.9000000953674,701716.7000000477,7784,NNB,C,3
2,test,2,0.0,2-Back,1.0,m,Fri Mar 27 2026 13:22:01 GMT-0500 (Central Daylight Time),706824.3000001907,146_o_m_n_a.png,O,m,1205,6,1,2225.5,704598.8000001907,7784,NNB,C,4
2,test,2,0.0,2-Back,0.0,m,Fri Mar 27 2026 13:22:01 GMT-0500 (Central Daylight Time),709857.5,098_y_f_n_a.png,O,None,2015,7,1,3026.0999999046326,706831.4000000954,7784,NNB,C,5
3,test,2,1.0,2-Back,1.0,z,Fri Mar 27 2026 13:22:01 GMT-0500 (Central Daylight Time),711905.8000001907,146_o_m_n_a.png,O,z,1020,8,1,2042.4000000953674,709863.4000000954,7784,NNB,C,6
4,test,2,0.0,2-Back,1.0,m,Fri Mar 27 2026 13:22:01 GMT-0500 (Central Daylight Time),714354.4000000954,031_y_m_n_a.png,O,m,1426,9,1,2441.2000000476837,711913.2000000477,7784,NNB,C,7
4,test,2,0.0,2-Back,0.0,m,Fri Mar 27 2026 13:22:01 GMT-0500 (Central Daylight Time),717387.0,031_y_m_n_a.png,O,None,2015,10,1,3026.2999999523163,714360.7000000477,7784,NNB,C,8
5,test,2,0.0,2-Back,1.0,m,Fri Mar 27 2026 13:22:01 GMT-0500 (Central Daylight Time),719887.0,006_m_f_n_a.png,O,m,1474,11,1,2493.199999809265,717393.8000001907,7784,NNB,C,9
6,test,2,0.0,2-Back,1.0,m,Fri Mar 27 2026 13:22:01 GMT-0500 (Central Daylight Time),722269.7000000477,028_y_f_n_a.png,O,m,1357,12,1,2376.7000000476837,719893.0,7784,NNB,C,10
7,test,2,1.0,2-Back,1.0,z,Fri Mar 27 2026 13:22:01 GMT-0500 (Central Daylight Time),724886.4000000954,006_m_f_n_a.png,O,z,1599,13,1,2609.4000000953674,722277.0,7784,NNB,C,11
7,test,2,0.0,2-Back,0.0,m,Fri Mar 27 2026 13:22:01 GMT-0500 (Central Daylight Time),727916.5,059_o_m_n_a.png,O,None,2014,14,1,3023.5,724893.0,7784,NNB,C,12
7,test,2,0.0,2-Back,0.0,m,Fri Mar 27 2026 13:22:01 GMT-0500 (Central Daylight Time),730951.0,059_o_m_n_a.png,O,None,2016,15,1,3032.0999999046326,727918.9000000954,7784,NNB,C,13
7,test,2,0.0,2-Back,0.0,m,Fri Mar 27 2026 13:22:01 GMT-0500 (Central Daylight Time),733983.5,030_o_f_n_a.png,O,None,2016,16,1,3024.699999809265,730958.8000001907,7784,NNB,C,14
8,test,2,0.0,2-Back,1.0,m,Fri Mar 27 2026 13:22:01 GMT-0500 (Central Daylight Time),736282.2000000477,092_m_m_n_a.png,O,m,1278,17,1,2292.2999999523163,733989.9000000954,7784,NNB,C,15
9,test,2,1.0,2-Back,1.0,z,Fri Mar 27 2026 13:22:01 GMT-0500 (Central Daylight Time),738130.8000001907,030_o_f_n_a.png,O,z,828,18,1,1842.3000001907349,736288.5,7784,NNB,C,16
0,test,3,1.0,2-Back,,,Fri Mar 27 2026 13:22:01 GMT-0500 (Central Daylight Time),738130.8000001907,057_y_m_n_a.png,O,space,2545,1,1,1842.3000001907349,736288.5,7784,NNB,C,0
0,test,3,1.0,2-Back,,,Fri Mar 27 2026 13:22:01 GMT-0500 (Central Daylight Time),738130.8000001907,057_y_m_n_a.png,O,space,2545,2,1,1842.3000001907349,736288.5,7784,NNB,C,0
0,test,3,0.0,2-Back,0.0,m,Fri Mar 27 2026 13:22:01 GMT-0500 (Central Daylight Time),748826.9000000954,030_o_f_n_a.png,O,None,2015,3,1,3026.2000000476837,745800.7000000477,7784,NNB,C,1
1,test,3,0.0,2-Back,1.0,m,Fri Mar 27 2026 13:22:01 GMT-0500 (Central Daylight Time),751611.100000143,082_m_m_n_a.png,O,m,1762,4,1,2781.2000000476837,748829.9000000954,7784,NNB,C,2
2,test,3,1.0,2-Back,1.0,z,Fri Mar 27 2026 13:22:01 GMT-0500 (Central Daylight Time),753477.0,030_o_f_n_a.png,O,z,833,5,1,1860.3999998569489,751616.600000143,7784,NNB,C,3
3,test,3,0.0,2-Back,1.0,m,Fri Mar 27 2026 13:22:01 GMT-0500 (Central Daylight Time),755841.9000000954,031_y_m_n_a.png,O,m,1346,6,1,2358.7999999523163,753483.100000143,7784,NNB,C,4
3,test,3,0.0,2-Back,0.0,m,Fri Mar 27 2026 13:22:01 GMT-0500 (Central Daylight Time),757807.7000000477,082_m_m_n_a.png,O,z,939,7,1,1960.8999998569489,755846.8000001907,7784,NNB,C,5
4,test,3,1.0,2-Back,1.0,z,Fri Mar 27 2026 13:22:01 GMT-0500 (Central Daylight Time),760142.0,031_y_m_n_a.png,O,z,1316,8,1,2328.0999999046326,757813.9000000954,7784,NNB,C,6
5,test,3,0.0,2-Back,1.0,m,Fri Mar 27 2026 13:22:01 GMT-0500 (Central Daylight Time),762473.4000000954,028_y_f_n_a.png,O,m,1304,9,1,2325.5,760147.9000000954,7784,NNB,C,7
6,test,3,0.0,2-Back,1.0,m,Fri Mar 27 2026 13:22:01 GMT-0500 (Central Daylight Time),765022.7000000477,092_m_m_n_a.png,O,m,1530,10,1,2543.2000000476837,762479.5,7784,NNB,C,8
7,test,3,1.0,2-Back,1.0,z,Fri Mar 27 2026 13:22:01 GMT-0500 (Central Daylight Time),766738.8000001907,028_y_f_n_a.png,O,z,686,11,1,1713.1000001430511,765025.7000000477,7784,NNB,C,9
8,test,3,1.0,2-Back,1.0,z,Fri Mar 27 2026 13:22:01 GMT-0500 (Central Daylight Time),768870.4000000954,092_m_m_n_a.png,O,z,1105,12,1,2123.7999999523163,766746.600000143,7784,NNB,C,10
9,test,3,0.0,2-Back,1.0,m,Fri Mar 27 2026 13:22:01 GMT-0500 (Central Daylight Time),771071.100000143,030_o_f_n_a.png,O,m,1175,13,1,2196.7000000476837,768874.4000000954,7784,NNB,C,11
10,test,3,0.0,2-Back,1.0,m,Fri Mar 27 2026 13:22:01 GMT-0500 (Central Daylight Time),773169.600000143,093_m_f_n_a.png,O,m,1079,14,1,2093.100000143051,771076.5,7784,NNB,C,12
11,test,3,0.0,2-Back,1.0,m,Fri Mar 27 2026 13:22:01 GMT-0500 (Central Daylight Time),775602.0,146_o_m_n_a.png,O,m,1409,15,1,2425.5,773176.5,7784,NNB,C,13
12,test,3,1.0,2-Back,1.0,z,Fri Mar 27 2026 13:22:01 GMT-0500 (Central Daylight Time),777385.3000001907,093_m_f_n_a.png,O,z,754,16,1,1776.9000000953674,775608.4000000954,7784,NNB,C,14
13,test,3,0.0,2-Back,1.0,m,Fri Mar 27 2026 13:22:01 GMT-0500 (Central Daylight Time),779835.2000000477,130_o_f_n_a.png,O,m,1420,17,1,2445.5,777389.7000000477,7784,NNB,C,15
14,test,3,0.0,2-Back,1.0,m,Fri Mar 27 2026 13:22:01 GMT-0500 (Central Daylight Time),782035.9000000954,130_o_f_n_a.png,O,m,1169,18,1,2193.0999999046326,779842.8000001907,7784,NNB,C,16
0,test,4,0.0,2-Back,,,Fri Mar 27 2026 13:22:01 GMT-0500 (Central Daylight Time),782035.9000000954,059_o_m_n_a.png,O,space,1504,1,1,2193.0999999046326,779842.8000001907,7784,NNB,C,0
0,test,4,0.0,2-Back,,,Fri Mar 27 2026 13:22:01 GMT-0500 (Central Daylight Time),782035.9000000954,098_y_f_n_a.png,O,space,1504,2,1,2193.0999999046326,779842.8000001907,7784,NNB,C,0
1,test,4,1.0,2-Back,1.0,z,Fri Mar 27 2026 13:22:01 GMT-0500 (Central Daylight Time),790364.100000143,059_o_m_n_a.png,O,z,601,3,1,1623.2000000476837,788740.9000000954,7784,NNB,C,1
1,test,4,1.0,2-Back,0.0,z,Fri Mar 27 2026 13:22:01 GMT-0500 (Central Daylight Time),792014.600000143,098_y_f_n_a.png,O,m,613,4,1,1643.2999999523163,790371.3000001907,7784,NNB,C,2
1,test,4,0.0,2-Back,0.0,m,Fri Mar 27 2026 13:22:01 GMT-0500 (Central Daylight Time),795029.8000001907,030_o_f_n_a.png,O,None,2001,5,1,3007.0,792022.8000001907,7784,NNB,C,3
1,test,4,0.0,2-Back,0.0,m,Fri Mar 27 2026 13:22:01 GMT-0500 (Central Daylight Time),798061.600000143,030_o_f_n_a.png,O,None,2014,6,1,3025.4000000953674,795036.2000000477,7784,NNB,C,4
1,test,4,0.0,2-Back,0.0,m,Fri Mar 27 2026 13:22:01 GMT-0500 (Central Daylight Time),801094.100000143,006_m_f_n_a.png,O,None,2016,7,1,3025.7999999523163,798068.3000001907,7784,NNB,C,5
1,test,4,0.0,2-Back,0.0,m,Fri Mar 27 2026 13:22:01 GMT-0500 (Central Daylight Time),804126.7000000477,031_y_m_n_a.png,O,None,2016,8,1,3026.2999999523163,801100.4000000954,7784,NNB,C,6
2,test,4,1.0,2-Back,1.0,z,Fri Mar 27 2026 13:22:01 GMT-0500 (Central Daylight Time),805792.7000000477,006_m_f_n_a.png,O,z,645,9,1,1661.7000000476837,804131.0,7784,NNB,C,7
3,test,4,0.0,2-Back,1.0,m,Fri Mar 27 2026 13:22:01 GMT-0500 (Central Daylight Time),807942.4000000954,092_m_m_n_a.png,O,m,1117,10,1,2143.4000000953674,805799.0,7784,NNB,C,8
3,test,4,0.0,2-Back,0.0,m,Fri Mar 27 2026 13:22:01 GMT-0500 (Central Daylight Time),810975.2000000477,031_y_m_n_a.png,O,None,2016,11,1,3026.7000000476837,807948.5,7784,NNB,C,9
3,test,4,0.0,2-Back,0.0,m,Fri Mar 27 2026 13:22:01 GMT-0500 (Central Daylight Time),812906.9000000954,130_o_f_n_a.png,O,z,902,12,1,1922.4000000953674,810984.5,7784,NNB,C,10
4,test,4,0.0,2-Back,1.0,m,Fri Mar 27 2026 13:22:01 GMT-0500 (Central Daylight Time),815223.9000000954,057_y_m_n_a.png,O,m,1298,13,1,2311.2999999523163,812912.600000143,7784,NNB,C,11
5,test,4,1.0,2-Back,1.0,z,Fri Mar 27 2026 13:22:01 GMT-0500 (Central Daylight Time),817406.2000000477,130_o_f_n_a.png,O,z,1150,14,1,2177.0999999046326,815229.100000143,7784,NNB,C,12
5,test,4,1.0,2-Back,0.0,z,Fri Mar 27 2026 13:22:01 GMT-0500 (Central Daylight Time),820439.600000143,057_y_m_n_a.png,O,None,2016,15,1,3025.100000143051,817414.5,7784,NNB,C,13
5,test,4,0.0,2-Back,0.0,m,Fri Mar 27 2026 13:22:01 GMT-0500 (Central Daylight Time),823471.0,082_m_m_n_a.png,O,None,2015,16,1,3024.0,820447.0,7784,NNB,C,14
6,test,4,0.0,2-Back,1.0,m,Fri Mar 27 2026 13:22:01 GMT-0500 (Central Daylight Time),825603.7000000477,093_m_f_n_a.png,O,m,1101,17,1,2125.7999999523163,823477.9000000954,7784,NNB,C,15
7,test,4,1.0,2-Back,1.0,z,Fri Mar 27 2026 13:22:01 GMT-0500 (Central Daylight Time),827637.8000001907,082_m_m_n_a.png,O,z,1001,18,1,2027.7000000476837,825610.100000143,7784,NNB,C,16
0,test,5,1.0,2-Back,,,Fri Mar 27 2026 13:22:01 GMT-0500 (Central Daylight Time),827637.8000001907,057_y_m_n_a.png,O,space,1438,1,1,2027.7000000476837,825610.100000143,7784,NNB,C,0
0,test,5,1.0,2-Back,,,Fri Mar 27 2026 13:22:01 GMT-0500 (Central Daylight Time),827637.8000001907,093_m_f_n_a.png,O,space,1438,2,1,2027.7000000476837,825610.100000143,7784,NNB,C,0
1,test,5,1.0,2-Back,1.0,z,Fri Mar 27 2026 13:22:01 GMT-0500 (Central Daylight Time),836199.3000001907,057_y_m_n_a.png,O,z,1065,3,1,2074.300000190735,834125.0,7784,NNB,C,1
2,test,5,1.0,2-Back,1.0,z,Fri Mar 27 2026 13:22:01 GMT-0500 (Central Daylight Time),838265.8000001907,093_m_f_n_a.png,O,z,1037,4,1,2061.9000000953674,836203.9000000954,7784,NNB,C,2
3,test,5,0.0,2-Back,1.0,m,Fri Mar 27 2026 13:22:01 GMT-0500 (Central Daylight Time),840350.100000143,130_o_f_n_a.png,O,m,1067,5,1,2077.600000143051,838272.5,7784,NNB,C,3
3,test,5,0.0,2-Back,0.0,m,Fri Mar 27 2026 13:22:01 GMT-0500 (Central Daylight Time),843382.0,057_y_m_n_a.png,O,None,2017,6,1,3024.699999809265,840357.3000001907,7784,NNB,C,4
3,test,5,0.0,2-Back,0.0,m,Fri Mar 27 2026 13:22:01 GMT-0500 (Central Daylight Time),846414.600000143,028_y_f_n_a.png,O,None,2016,7,1,3025.9000000953674,843388.7000000477,7784,NNB,C,5
3,test,5,0.0,2-Back,0.0,m,Fri Mar 27 2026 13:22:01 GMT-0500 (Central Daylight Time),848345.600000143,130_o_f_n_a.png,O,z,903,8,1,1924.9000000953674,846420.7000000477,7784,NNB,C,6
3,test,5,1.0,2-Back,0.0,z,Fri Mar 27 2026 13:22:01 GMT-0500 (Central Daylight Time),851368.3000001907,028_y_f_n_a.png,O,None,2005,9,1,3016.0,848352.3000001907,7784,NNB,C,7
3,test,5,0.0,2-Back,0.0,m,Fri Mar 27 2026 13:22:01 GMT-0500 (Central Daylight Time),854394.100000143,146_o_m_n_a.png,O,None,2016,10,1,3023.0,851371.100000143,7784,NNB,C,8
4,test,5,0.0,2-Back,1.0,m,Fri Mar 27 2026 13:22:01 GMT-0500 (Central Daylight Time),856660.3000001907,006_m_f_n_a.png,O,m,1234,11,1,2262.2000000476837,854398.100000143,7784,NNB,C,9
4,test,5,0.0,2-Back,0.0,m,Fri Mar 27 2026 13:22:01 GMT-0500 (Central Daylight Time),858626.3000001907,092_m_m_n_a.png,O,z,943,12,1,1959.1000001430511,856667.2000000477,7784,NNB,C,10
4,test,5,0.0,2-Back,0.0,m,Fri Mar 27 2026 13:22:01 GMT-0500 (Central Daylight Time),861659.0,146_o_m_n_a.png,O,None,2017,13,1,3030.0999999046326,858628.9000000954,7784,NNB,C,11
4,test,5,1.0,2-Back,0.0,z,Fri Mar 27 2026 13:22:01 GMT-0500 (Central Daylight Time),864691.600000143,092_m_m_n_a.png,O,None,2015,14,1,3025.7000000476837,861665.9000000954,7784,NNB,C,12
4,test,5,0.0,2-Back,0.0,m,Fri Mar 27 2026 13:22:01 GMT-0500 (Central Daylight Time),867723.100000143,098_y_f_n_a.png,O,None,2015,15,1,3025.7999999523163,864697.3000001907,7784,NNB,C,13
5,test,5,0.0,2-Back,1.0,m,Fri Mar 27 2026 13:22:01 GMT-0500 (Central Daylight Time),870389.4000000954,059_o_m_n_a.png,O,m,1633,16,1,2660.0999999046326,867729.3000001907,7784,NNB,C,14
5,test,5,0.0,2-Back,0.0,m,Fri Mar 27 2026 13:22:01 GMT-0500 (Central Daylight Time),873421.100000143,006_m_f_n_a.png,O,None,2016,17,1,3024.7000000476837,870396.4000000954,7784,NNB,C,15
5,test,5,1.0,2-Back,0.0,z,Fri Mar 27 2026 13:22:01 GMT-0500 (Central Daylight Time),876453.8000001907,059_o_m_n_a.png,O,None,2016,18,1,3025.300000190735,873428.5,7784,NNB,C,16
