block_c,block_dur,condition,countdown,datetime,endtime,list,multichar_response,project,response,response_time,session_number,start_end,starttime,subject_id,task,task_vers,trial
,,,,Fri Mar 27 2026 14:11:24 GMT-0500 (Central Daylight Time),,,,O,space,770,1,,,7784,WL,C,
prac,,0,,Fri Mar 27 2026 14:11:24 GMT-0500 (Central Daylight Time),,NA,b,O,b,3089,1,,,7784,WL,C,1.0
prac,,0,,Fri Mar 27 2026 14:11:24 GMT-0500 (Central Daylight Time),,NA,bo,O,o,393,1,,,7784,WL,C,1.0
prac,,0,,Fri Mar 27 2026 14:11:24 GMT-0500 (Central Daylight Time),,NA,boo,O,o,123,1,,,7784,WL,C,1.0
prac,,0,,Fri Mar 27 2026 14:11:24 GMT-0500 (Central Daylight Time),,NA,bood,O,d,269,1,,,7784,WL,C,1.0
prac,,0,,Fri Mar 27 2026 14:11:24 GMT-0500 (Central Daylight Time),,NA,boo,O,backspace,697,1,,,7784,WL,C,1.0
prac,,0,,Fri Mar 27 2026 14:11:24 GMT-0500 (Central Daylight Time),,NA,boos,O,s,293,1,,,7784,WL,C,1.0
prac,,0,,Fri Mar 27 2026 14:11:24 GMT-0500 (Central Daylight Time),,NA,boost,O,t,294,1,,,7784,WL,C,1.0
prac,,0,,Fri Mar 27 2026 14:11:24 GMT-0500 (Central Daylight Time),,NA,boostenter,O,enter,3283,1,,,7784,WL,C,1.0
1,2.2829999923706055,learn,57717.000007629395,Fri Mar 27 2026 14:11:24 GMT-0500 (Central Daylight Time),163874.10000014305,A,b,O,b,2277,1,2283.2999999523163,161590.80000019073,7784,WL,C,1.0
1,3.0159997940063477,learn,56984.00020599365,Fri Mar 27 2026 14:11:24 GMT-0500 (Central Daylight Time),164606.60000014305,A,bo,O,o,711,1,3015.7999999523163,161590.80000019073,7784,WL,C,1.0
1,3.4149999618530273,learn,56585.00003814697,Fri Mar 27 2026 14:11:24 GMT-0500 (Central Daylight Time),165006.30000019073,A,boy,O,y,378,1,3415.5,161590.80000019073,7784,WL,C,1.0
1,4.414999961853027,learn,55585.00003814697,Fri Mar 27 2026 14:11:24 GMT-0500 (Central Daylight Time),166006.0,A,boyt,O,t,987,1,4415.199999809265,161590.80000019073,7784,WL,C,1.0
1,5.579999923706055,learn,54420.000076293945,Fri Mar 27 2026 14:11:24 GMT-0500 (Central Daylight Time),167171.10000014305,A,boyto,O,o,1157,1,5580.299999952316,161590.80000019073,7784,WL,C,1.0
1,16.76099991798401,learn,43239.00008201599,Fri Mar 27 2026 14:11:24 GMT-0500 (Central Daylight Time),178352.0,A,boyt,O,backspace,11170,1,16761.199999809265,161590.80000019073,7784,WL,C,1.0
1,16.944999933242798,learn,43055.0000667572,Fri Mar 27 2026 14:11:24 GMT-0500 (Central Daylight Time),178535.5,A,boy,O,backspace,162,1,16944.699999809265,161590.80000019073,7784,WL,C,1.0
1,18.0939998626709,learn,41906.0001373291,Fri Mar 27 2026 14:11:24 GMT-0500 (Central Daylight Time),179684.90000009537,A,boyenter,O,enter,1137,1,18094.099999904633,161590.80000019073,7784,WL,C,1.0
1,19.793999910354614,learn,40206.000089645386,Fri Mar 27 2026 14:11:24 GMT-0500 (Central Daylight Time),181384.60000014305,A,t,O,t,1686,1,1699.2999999523163,179685.30000019073,7784,WL,C,2.0
1,20.026999950408936,learn,39973.000049591064,Fri Mar 27 2026 14:11:24 GMT-0500 (Central Daylight Time),181618.20000004768,A,to,O,o,228,1,1932.8999998569489,179685.30000019073,7784,WL,C,2.0
1,20.607999801635742,learn,39392.00019836426,Fri Mar 27 2026 14:11:24 GMT-0500 (Central Daylight Time),182198.80000019073,A,tow,O,w,565,1,2513.5,179685.30000019073,7784,WL,C,2.0
1,20.858999967575073,learn,39141.00003242493,Fri Mar 27 2026 14:11:24 GMT-0500 (Central Daylight Time),182450.30000019073,A,towe,O,e,232,1,2765.0,179685.30000019073,7784,WL,C,2.0
1,21.074999809265137,learn,38925.00019073486,Fri Mar 27 2026 14:11:24 GMT-0500 (Central Daylight Time),182666.40000009537,A,tower,O,r,211,1,2981.0999999046326,179685.30000019073,7784,WL,C,2.0
1,22.276000022888184,learn,37723.99997711182,Fri Mar 27 2026 14:11:24 GMT-0500 (Central Daylight Time),183866.70000004768,A,towerenter,O,enter,1185,1,4181.399999856949,179685.30000019073,7784,WL,C,2.0
1,23.890999794006348,learn,36109.00020599365,Fri Mar 27 2026 14:11:24 GMT-0500 (Central Daylight Time),185482.40000009537,A,c,O,c,1600,1,1615.4000000953674,183867.0,7784,WL,C,3.0
1,24.276000022888184,learn,35723.99997711182,Fri Mar 27 2026 14:11:24 GMT-0500 (Central Daylight Time),185867.20000004768,A,ca,O,a,379,1,2000.2000000476837,183867.0,7784,WL,C,3.0
1,24.70799994468689,learn,35292.00005531311,Fri Mar 27 2026 14:11:24 GMT-0500 (Central Daylight Time),186299.30000019073,A,cat,O,t,415,1,2432.300000190735,183867.0,7784,WL,C,3.0
1,24.825999975204468,learn,35174.00002479553,Fri Mar 27 2026 14:11:24 GMT-0500 (Central Daylight Time),186416.80000019073,A,catt,O,t,111,1,2549.800000190735,183867.0,7784,WL,C,3.0
1,25.125999927520752,learn,34874.00007247925,Fri Mar 27 2026 14:11:24 GMT-0500 (Central Daylight Time),186716.60000014305,A,cattl,O,l,281,1,2849.600000143051,183867.0,7784,WL,C,3.0
1,25.426999807357788,learn,34573.00019264221,Fri Mar 27 2026 14:11:24 GMT-0500 (Central Daylight Time),187017.70000004768,A,cattle,O,e,278,1,3150.7000000476837,183867.0,7784,WL,C,3.0
1,25.823999881744385,learn,34176.000118255615,Fri Mar 27 2026 14:11:24 GMT-0500 (Central Daylight Time),187414.70000004768,A,cattled,O,d,383,1,3547.7000000476837,183867.0,7784,WL,C,3.0
1,26.107999801635742,learn,33892.00019836426,Fri Mar 27 2026 14:11:24 GMT-0500 (Central Daylight Time),187699.10000014305,A,cattledo,O,o,266,1,3832.100000143051,183867.0,7784,WL,C,3.0
1,26.407999992370605,learn,33592.000007629395,Fri Mar 27 2026 14:11:24 GMT-0500 (Central Daylight Time),187999.30000019073,A,cattledoc,O,c,277,1,4132.300000190735,183867.0,7784,WL,C,3.0
1,26.69099998474121,learn,33309.00001525879,Fri Mar 27 2026 14:11:24 GMT-0500 (Central Daylight Time),188282.10000014305,A,cattledoct,O,t,267,1,4415.100000143051,183867.0,7784,WL,C,3.0
1,26.93999981880188,learn,33060.00018119812,Fri Mar 27 2026 14:11:24 GMT-0500 (Central Daylight Time),188531.5,A,cattledocto,O,o,233,1,4664.5,183867.0,7784,WL,C,3.0
1,27.207000017166138,learn,32792.99998283386,Fri Mar 27 2026 14:11:24 GMT-0500 (Central Daylight Time),188798.40000009537,A,cattledoctor,O,r,248,1,4931.400000095367,183867.0,7784,WL,C,3.0
1,27.95799994468689,learn,32042.00005531311,Fri Mar 27 2026 14:11:24 GMT-0500 (Central Daylight Time),189549.10000014305,A,cattledoctorenter,O,enter,731,1,5682.100000143051,183867.0,7784,WL,C,3.0
1,29.740999937057495,learn,30259.000062942505,Fri Mar 27 2026 14:11:24 GMT-0500 (Central Daylight Time),191332.0,A,q,O,q,1774,1,1782.5,189549.5,7784,WL,C,4.0
1,30.039999961853027,learn,29960.000038146973,Fri Mar 27 2026 14:11:24 GMT-0500 (Central Daylight Time),191631.20000004768,A,qu,O,u,277,1,2081.7000000476837,189549.5,7784,WL,C,4.0
1,30.406999826431274,learn,29593.000173568726,Fri Mar 27 2026 14:11:24 GMT-0500 (Central Daylight Time),191997.60000014305,A,que,O,e,346,1,2448.100000143051,189549.5,7784,WL,C,4.0
1,30.555999994277954,learn,29444.000005722046,Fri Mar 27 2026 14:11:24 GMT-0500 (Central Daylight Time),192147.0,A,quee,O,e,131,1,2597.5,189549.5,7784,WL,C,4.0
1,30.890999794006348,learn,29109.000205993652,Fri Mar 27 2026 14:11:24 GMT-0500 (Central Daylight Time),192481.5,A,queen,O,n,326,1,2932.0,189549.5,7784,WL,C,4.0
1,31.457000017166138,learn,28542.999982833862,Fri Mar 27 2026 14:11:24 GMT-0500 (Central Daylight Time),193047.80000019073,A,queenenter,O,enter,546,1,3498.300000190735,189549.5,7784,WL,C,4.0
1,33.52199983596802,learn,26478.000164031982,Fri Mar 27 2026 14:11:24 GMT-0500 (Central Daylight Time),195113.10000014305,A,s,O,s,2050,1,2065.0,193048.10000014305,7784,WL,C,5.0
1,33.82099986076355,learn,26179.00013923645,Fri Mar 27 2026 14:11:24 GMT-0500 (Central Daylight Time),195412.10000014305,A,sh,O,h,282,1,2364.0,193048.10000014305,7784,WL,C,5.0
1,34.17199993133545,learn,25828.00006866455,Fri Mar 27 2026 14:11:24 GMT-0500 (Central Daylight Time),195763.30000019073,A,sho,O,o,335,1,2715.2000000476837,193048.10000014305,7784,WL,C,5.0
1,34.65499997138977,learn,25345.00002861023,Fri Mar 27 2026 14:11:24 GMT-0500 (Central Daylight Time),196245.90000009537,A,shor,O,r,470,1,3197.7999999523163,193048.10000014305,7784,WL,C,5.0
1,34.92199993133545,learn,25078.00006866455,Fri Mar 27 2026 14:11:24 GMT-0500 (Central Daylight Time),196513.10000014305,A,shore,O,e,261,1,3465.0,193048.10000014305,7784,WL,C,5.0
1,35.55499982833862,learn,24445.000171661377,Fri Mar 27 2026 14:11:24 GMT-0500 (Central Daylight Time),197145.80000019073,A,shoreenter,O,enter,627,1,4097.700000047684,193048.10000014305,7784,WL,C,5.0
1,36.50399994850159,learn,23496.000051498413,Fri Mar 27 2026 14:11:24 GMT-0500 (Central Daylight Time),198095.40000009537,A,l,O,l,928,1,949.2999999523163,197146.10000014305,7784,WL,C,6.0
1,36.788999795913696,learn,23211.000204086304,Fri Mar 27 2026 14:11:24 GMT-0500 (Central Daylight Time),198380.20000004768,A,le,O,e,276,1,1234.0999999046326,197146.10000014305,7784,WL,C,6.0
1,37.10599994659424,learn,22894.00005340576,Fri Mar 27 2026 14:11:24 GMT-0500 (Central Daylight Time),198696.90000009537,A,let,O,t,304,1,1550.7999999523163,197146.10000014305,7784,WL,C,6.0
1,37.23799991607666,learn,22762.00008392334,Fri Mar 27 2026 14:11:24 GMT-0500 (Central Daylight Time),198828.5,A,lett,O,t,122,1,1682.3999998569489,197146.10000014305,7784,WL,C,6.0
1,37.58799982070923,learn,22412.00017929077,Fri Mar 27 2026 14:11:24 GMT-0500 (Central Daylight Time),199179.5,A,lette,O,e,327,1,2033.3999998569489,197146.10000014305,7784,WL,C,6.0
1,37.83699989318848,learn,22163.000106811523,Fri Mar 27 2026 14:11:24 GMT-0500 (Central Daylight Time),199427.60000014305,A,letter,O,r,238,1,2281.5,197146.10000014305,7784,WL,C,6.0
1,39.15299987792969,learn,20847.000122070312,Fri Mar 27 2026 14:11:24 GMT-0500 (Central Daylight Time),200744.40000009537,A,letterenter,O,enter,1311,1,3598.2999999523163,197146.10000014305,7784,WL,C,6.0
1,44.901999950408936,learn,15098.000049591064,Fri Mar 27 2026 14:11:24 GMT-0500 (Central Daylight Time),206493.10000014305,A,w,O,w,5731,1,5748.400000095367,200744.70000004768,7784,WL,C,7.0
1,45.2189998626709,learn,14781.000137329102,Fri Mar 27 2026 14:11:24 GMT-0500 (Central Daylight Time),206810.20000004768,A,wh,O,h,302,1,6065.5,200744.70000004768,7784,WL,C,7.0
1,45.484999895095825,learn,14515.000104904175,Fri Mar 27 2026 14:11:24 GMT-0500 (Central Daylight Time),207075.60000014305,A,whe,O,e,247,1,6330.900000095367,200744.70000004768,7784,WL,C,7.0
1,45.76799988746643,learn,14232.00011253357,Fri Mar 27 2026 14:11:24 GMT-0500 (Central Daylight Time),207358.60000014305,A,whea,O,a,268,1,6613.900000095367,200744.70000004768,7784,WL,C,7.0
1,46.20099997520447,learn,13799.000024795532,Fri Mar 27 2026 14:11:24 GMT-0500 (Central Daylight Time),207791.90000009537,A,wheat,O,t,419,1,7047.200000047684,200744.70000004768,7784,WL,C,7.0
1,46.68499994277954,learn,13315.000057220459,Fri Mar 27 2026 14:11:24 GMT-0500 (Central Daylight Time),208275.70000004768,A,wheatenter,O,enter,467,1,7531.0,200744.70000004768,7784,WL,C,7.0
1,60.01300001144409,learn,-13.000011444091797,Fri Mar 27 2026 14:11:24 GMT-0500 (Central Daylight Time),221604.40000009537,A,None,O,None,13323,1,13328.5,208275.90000009537,7784,WL,C,8.0
2,0.8829998970031738,learn,59117.000102996826,Fri Mar 27 2026 14:11:24 GMT-0500 (Central Daylight Time),292015.10000014305,A,n,O,n,871,1,882.6000001430511,291132.5,7784,WL,C,1.0
2,1.183000087738037,learn,58816.99991226196,Fri Mar 27 2026 14:11:24 GMT-0500 (Central Daylight Time),292315.5,A,na,O,a,284,1,1183.0,291132.5,7784,WL,C,1.0
2,1.500999927520752,learn,58499.00007247925,Fri Mar 27 2026 14:11:24 GMT-0500 (Central Daylight Time),292632.7000000477,A,nai,O,i,305,1,1500.2000000476837,291132.5,7784,WL,C,1.0
2,2.134000062942505,learn,57865.999937057495,Fri Mar 27 2026 14:11:24 GMT-0500 (Central Daylight Time),293266.80000019073,A,nail,O,l,617,1,2134.300000190735,291132.5,7784,WL,C,1.0
2,3.0,learn,57000.0,Fri Mar 27 2026 14:11:24 GMT-0500 (Central Daylight Time),294132.60000014305,A,nailenter,O,enter,845,1,3000.100000143051,291132.5,7784,WL,C,1.0
2,4.615999937057495,learn,55384.000062942505,Fri Mar 27 2026 14:11:24 GMT-0500 (Central Daylight Time),295748.10000014305,A,f,O,f,1598,1,1615.1000001430511,294133.0,7784,WL,C,2.0
2,4.9670000076293945,learn,55032.999992370605,Fri Mar 27 2026 14:11:24 GMT-0500 (Central Daylight Time),296098.80000019073,A,fl,O,l,335,1,1965.8000001907349,294133.0,7784,WL,C,2.0
2,5.315000057220459,learn,54684.99994277954,Fri Mar 27 2026 14:11:24 GMT-0500 (Central Daylight Time),296447.60000014305,A,fla,O,a,336,1,2314.600000143051,294133.0,7784,WL,C,2.0
2,5.747999906539917,learn,54252.00009346008,Fri Mar 27 2026 14:11:24 GMT-0500 (Central Daylight Time),296880.40000009537,A,flag,O,g,428,1,2747.4000000953674,294133.0,7784,WL,C,2.0
2,6.33299994468689,learn,53667.00005531311,Fri Mar 27 2026 14:11:24 GMT-0500 (Central Daylight Time),297465.30000019073,A,flagenter,O,enter,579,1,3332.300000190735,294133.0,7784,WL,C,2.0
2,9.414000034332275,learn,50585.999965667725,Fri Mar 27 2026 14:11:24 GMT-0500 (Central Daylight Time),300546.60000014305,A,t,O,t,3066,1,3081.0,297465.60000014305,7784,WL,C,3.0
2,10.180999994277954,learn,49819.000005722046,Fri Mar 27 2026 14:11:24 GMT-0500 (Central Daylight Time),301313.7000000477,A,to,O,o,761,1,3848.0999999046326,297465.60000014305,7784,WL,C,3.0
2,10.530999898910522,learn,49469.00010108948,Fri Mar 27 2026 14:11:24 GMT-0500 (Central Daylight Time),301663.5,A,tow,O,w,326,1,4197.899999856949,297465.60000014305,7784,WL,C,3.0
2,10.746999979019165,learn,49253.000020980835,Fri Mar 27 2026 14:11:24 GMT-0500 (Central Daylight Time),301879.30000019073,A,towe,O,e,203,1,4413.700000047684,297465.60000014305,7784,WL,C,3.0
2,10.980999946594238,learn,49019.00005340576,Fri Mar 27 2026 14:11:24 GMT-0500 (Central Daylight Time),302112.90000009537,A,tower,O,r,222,1,4647.299999952316,297465.60000014305,7784,WL,C,3.0
2,11.54699993133545,learn,48453.00006866455,Fri Mar 27 2026 14:11:24 GMT-0500 (Central Daylight Time),302679.10000014305,A,towerenter,O,enter,546,1,5213.5,297465.60000014305,7784,WL,C,3.0
2,12.348000049591064,learn,47651.999950408936,Fri Mar 27 2026 14:11:24 GMT-0500 (Central Daylight Time),303479.90000009537,A,q,O,q,780,1,800.5,302679.40000009537,7784,WL,C,4.0
2,12.648000001907349,learn,47351.99999809265,Fri Mar 27 2026 14:11:24 GMT-0500 (Central Daylight Time),303780.30000019073,A,qu,O,u,294,1,1100.9000000953674,302679.40000009537,7784,WL,C,4.0
2,13.013999938964844,learn,46986.000061035156,Fri Mar 27 2026 14:11:24 GMT-0500 (Central Daylight Time),304146.2000000477,A,que,O,e,359,1,1466.7999999523163,302679.40000009537,7784,WL,C,4.0
2,13.180000066757202,learn,46819.9999332428,Fri Mar 27 2026 14:11:24 GMT-0500 (Central Daylight Time),304312.7000000477,A,quee,O,e,160,1,1633.2999999523163,302679.40000009537,7784,WL,C,4.0
2,13.496999979019165,learn,46503.000020980835,Fri Mar 27 2026 14:11:24 GMT-0500 (Central Daylight Time),304629.0,A,queen,O,n,299,1,1949.5999999046326,302679.40000009537,7784,WL,C,4.0
2,14.196000099182129,learn,45803.99990081787,Fri Mar 27 2026 14:11:24 GMT-0500 (Central Daylight Time),305328.60000014305,A,queenenter,O,enter,686,1,2649.2000000476837,302679.40000009537,7784,WL,C,4.0
2,14.745000123977661,learn,45254.99987602234,Fri Mar 27 2026 14:11:24 GMT-0500 (Central Daylight Time),305877.40000009537,A,s,O,s,529,1,548.5,305328.90000009537,7784,WL,C,5.0
2,15.046000003814697,learn,44953.9999961853,Fri Mar 27 2026 14:11:24 GMT-0500 (Central Daylight Time),306178.5,A,su,O,u,285,1,849.5999999046326,305328.90000009537,7784,WL,C,5.0
2,15.411999940872192,learn,44588.00005912781,Fri Mar 27 2026 14:11:24 GMT-0500 (Central Daylight Time),306544.7000000477,A,sug,O,g,345,1,1215.7999999523163,305328.90000009537,7784,WL,C,5.0
2,15.79699993133545,learn,44203.00006866455,Fri Mar 27 2026 14:11:24 GMT-0500 (Central Daylight Time),306928.80000019073,A,suga,O,a,376,1,1599.9000000953674,305328.90000009537,7784,WL,C,5.0
2,16.14400005340576,learn,43855.99994659424,Fri Mar 27 2026 14:11:24 GMT-0500 (Central Daylight Time),307276.5,A,sugar,O,r,337,1,1947.5999999046326,305328.90000009537,7784,WL,C,5.0
2,16.413000106811523,learn,43586.99989318848,Fri Mar 27 2026 14:11:24 GMT-0500 (Central Daylight Time),307545.2000000477,A,sugarenter,O,enter,262,1,2216.2999999523163,305328.90000009537,7784,WL,C,5.0
2,22.009000062942505,learn,37990.999937057495,Fri Mar 27 2026 14:11:24 GMT-0500 (Central Daylight Time),313141.7000000477,A,h,O,h,5586,1,5596.299999952316,307545.40000009537,7784,WL,C,6.0
2,22.526000022888184,learn,37473.99997711182,Fri Mar 27 2026 14:11:24 GMT-0500 (Central Daylight Time),313658.10000014305,A,ho,O,o,501,1,6112.700000047684,307545.40000009537,7784,WL,C,6.0
2,22.9760000705719,learn,37023.9999294281,Fri Mar 27 2026 14:11:24 GMT-0500 (Central Daylight Time),314108.40000009537,A,hom,O,m,432,1,6563.0,307545.40000009537,7784,WL,C,6.0
2,23.444000005722046,learn,36555.999994277954,Fri Mar 27 2026 14:11:24 GMT-0500 (Central Daylight Time),314575.90000009537,A,home,O,e,455,1,7030.5,307545.40000009537,7784,WL,C,6.0
2,24.9760000705719,learn,35023.9999294281,Fri Mar 27 2026 14:11:24 GMT-0500 (Central Daylight Time),316107.80000019073,A,homeenter,O,enter,1516,1,8562.400000095367,307545.40000009537,7784,WL,C,6.0
2,31.124000072479248,learn,28875.999927520752,Fri Mar 27 2026 14:11:24 GMT-0500 (Central Daylight Time),322256.2000000477,A,l,O,l,6129,1,6148.299999952316,316107.90000009537,7784,WL,C,7.0
2,31.5239999294281,learn,28476.0000705719,Fri Mar 27 2026 14:11:24 GMT-0500 (Central Daylight Time),322656.2000000477,A,le,O,e,386,1,6548.299999952316,316107.90000009537,7784,WL,C,7.0
2,31.872999906539917,learn,28127.000093460083,Fri Mar 27 2026 14:11:24 GMT-0500 (Central Daylight Time),323005.30000019073,A,let,O,t,330,1,6897.400000095367,316107.90000009537,7784,WL,C,7.0
2,32.02300000190735,learn,27976.99999809265,Fri Mar 27 2026 14:11:24 GMT-0500 (Central Daylight Time),323155.60000014305,A,lett,O,t,140,1,7047.700000047684,316107.90000009537,7784,WL,C,7.0
2,32.33999991416931,learn,27660.00008583069,Fri Mar 27 2026 14:11:24 GMT-0500 (Central Daylight Time),323472.0,A,lette,O,e,294,1,7364.099999904633,316107.90000009537,7784,WL,C,7.0
2,32.57299995422363,learn,27427.000045776367,Fri Mar 27 2026 14:11:24 GMT-0500 (Central Daylight Time),323705.10000014305,A,letter,O,r,224,1,7597.200000047684,316107.90000009537,7784,WL,C,7.0
2,33.23900008201599,learn,26760.99991798401,Fri Mar 27 2026 14:11:24 GMT-0500 (Central Daylight Time),324371.40000009537,A,letterenter,O,enter,655,1,8263.5,316107.90000009537,7784,WL,C,7.0
2,44.20300006866455,learn,15796.99993133545,Fri Mar 27 2026 14:11:24 GMT-0500 (Central Daylight Time),335335.60000014305,A,w,O,w,10944,1,10964.0,324371.60000014305,7784,WL,C,8.0
2,44.668999910354614,learn,15331.000089645386,Fri Mar 27 2026 14:11:24 GMT-0500 (Central Daylight Time),335801.40000009537,A,wh,O,h,449,1,11429.799999952316,324371.60000014305,7784,WL,C,8.0
2,44.985000133514404,learn,15014.999866485596,Fri Mar 27 2026 14:11:24 GMT-0500 (Central Daylight Time),336117.7000000477,A,whe,O,e,305,1,11746.099999904633,324371.60000014305,7784,WL,C,8.0
2,45.269999980926514,learn,14730.000019073486,Fri Mar 27 2026 14:11:24 GMT-0500 (Central Daylight Time),336402.0,A,whea,O,a,275,1,12030.399999856949,324371.60000014305,7784,WL,C,8.0
2,45.6029999256134,learn,14397.000074386597,Fri Mar 27 2026 14:11:24 GMT-0500 (Central Daylight Time),336735.40000009537,A,wheat,O,t,319,1,12363.799999952316,324371.60000014305,7784,WL,C,8.0
2,45.93499994277954,learn,14065.000057220459,Fri Mar 27 2026 14:11:24 GMT-0500 (Central Daylight Time),337067.40000009537,A,wheatenter,O,enter,315,1,12695.799999952316,324371.60000014305,7784,WL,C,8.0
2,55.848999977111816,learn,4151.000022888184,Fri Mar 27 2026 14:11:24 GMT-0500 (Central Daylight Time),346981.10000014305,A,s,O,s,9895,1,9913.400000095367,337067.7000000477,7784,WL,C,9.0
2,56.13100004196167,learn,3868.99995803833,Fri Mar 27 2026 14:11:24 GMT-0500 (Central Daylight Time),347263.10000014305,A,sh,O,h,275,1,10195.400000095367,337067.7000000477,7784,WL,C,9.0
2,56.49900007247925,learn,3500.999927520752,Fri Mar 27 2026 14:11:24 GMT-0500 (Central Daylight Time),347630.90000009537,A,sho,O,o,342,1,10563.200000047684,337067.7000000477,7784,WL,C,9.0
2,56.88199996948242,learn,3118.000030517578,Fri Mar 27 2026 14:11:24 GMT-0500 (Central Daylight Time),348014.2000000477,A,shor,O,r,363,1,10946.5,337067.7000000477,7784,WL,C,9.0
2,57.098999977111816,learn,2901.0000228881836,Fri Mar 27 2026 14:11:24 GMT-0500 (Central Daylight Time),348231.40000009537,A,shore,O,e,196,1,11163.700000047684,337067.7000000477,7784,WL,C,9.0
2,57.38199996948242,learn,2618.000030517578,Fri Mar 27 2026 14:11:24 GMT-0500 (Central Daylight Time),348514.5,A,shoreenter,O,enter,266,1,11446.799999952316,337067.7000000477,7784,WL,C,9.0
2,60.015000104904175,learn,-15.000104904174805,Fri Mar 27 2026 14:11:24 GMT-0500 (Central Daylight Time),351147.5,A,None,O,None,2627,1,2632.7999999523163,348514.7000000477,7784,WL,C,10.0
3,0.6500000953674316,learn,59349.99990463257,Fri Mar 27 2026 14:11:24 GMT-0500 (Central Daylight Time),427404.2000000477,A,d,O,d,641,1,649.7999999523163,426754.40000009537,7784,WL,C,1.0
3,1.0150001049041748,learn,58984.999895095825,Fri Mar 27 2026 14:11:24 GMT-0500 (Central Daylight Time),427769.7000000477,A,do,O,o,351,1,1015.2999999523163,426754.40000009537,7784,WL,C,1.0
3,1.4479999542236328,learn,58552.00004577637,Fri Mar 27 2026 14:11:24 GMT-0500 (Central Daylight Time),428202.60000014305,A,doc,O,c,417,1,1448.2000000476837,426754.40000009537,7784,WL,C,1.0
3,1.7980000972747803,learn,58201.99990272522,Fri Mar 27 2026 14:11:24 GMT-0500 (Central Daylight Time),428552.40000009537,A,doct,O,t,334,1,1798.0,426754.40000009537,7784,WL,C,1.0
3,2.13100004196167,learn,57868.99995803833,Fri Mar 27 2026 14:11:24 GMT-0500 (Central Daylight Time),428885.5,A,docto,O,o,322,1,2131.0999999046326,426754.40000009537,7784,WL,C,1.0
3,2.447999954223633,learn,57552.00004577637,Fri Mar 27 2026 14:11:24 GMT-0500 (Central Daylight Time),429202.2000000477,A,doctor,O,r,301,1,2447.7999999523163,426754.40000009537,7784,WL,C,1.0
3,3.3480000495910645,learn,56651.999950408936,Fri Mar 27 2026 14:11:24 GMT-0500 (Central Daylight Time),430102.80000019073,A,doctorenter,O,enter,882,1,3348.4000000953674,426754.40000009537,7784,WL,C,1.0
3,12.831000089645386,learn,47168.999910354614,Fri Mar 27 2026 14:11:24 GMT-0500 (Central Daylight Time),439585.2000000477,A,d,O,d,9462,1,9482.200000047684,430103.0,7784,WL,C,2.0
3,13.864000082015991,learn,46135.99991798401,Fri Mar 27 2026 14:11:24 GMT-0500 (Central Daylight Time),440618.40000009537,A,do,O,o,1027,1,10515.400000095367,430103.0,7784,WL,C,2.0
3,14.348000049591064,learn,45651.999950408936,Fri Mar 27 2026 14:11:24 GMT-0500 (Central Daylight Time),441102.2000000477,A,doc,O,c,463,1,10999.200000047684,430103.0,7784,WL,C,2.0
3,14.667999982833862,learn,45332.00001716614,Fri Mar 27 2026 14:11:24 GMT-0500 (Central Daylight Time),441422.2000000477,A,doct,O,t,300,1,11319.200000047684,430103.0,7784,WL,C,2.0
3,14.900000095367432,learn,45099.99990463257,Fri Mar 27 2026 14:11:24 GMT-0500 (Central Daylight Time),441654.5,A,docto,O,o,220,1,11551.5,430103.0,7784,WL,C,2.0
3,15.147000074386597,learn,44852.9999256134,Fri Mar 27 2026 14:11:24 GMT-0500 (Central Daylight Time),441901.7000000477,A,doctor,O,r,237,1,11798.700000047684,430103.0,7784,WL,C,2.0
3,15.664000034332275,learn,44335.999965667725,Fri Mar 27 2026 14:11:24 GMT-0500 (Central Daylight Time),442418.10000014305,A,doctorenter,O,enter,502,1,12315.100000143051,430103.0,7784,WL,C,2.0
3,16.878999948501587,learn,43121.00005149841,Fri Mar 27 2026 14:11:24 GMT-0500 (Central Daylight Time),443633.7000000477,A,c,O,c,1201,1,1215.2999999523163,442418.40000009537,7784,WL,C,3.0
3,17.146000146865845,learn,42853.999853134155,Fri Mar 27 2026 14:11:24 GMT-0500 (Central Daylight Time),443900.60000014305,A,co,O,o,250,1,1482.2000000476837,442418.40000009537,7784,WL,C,3.0
3,17.49500012397766,learn,42504.99987602234,Fri Mar 27 2026 14:11:24 GMT-0500 (Central Daylight Time),444249.10000014305,A,cor,O,r,342,1,1830.7000000476837,442418.40000009537,7784,WL,C,3.0
3,18.045000076293945,learn,41954.999923706055,Fri Mar 27 2026 14:11:24 GMT-0500 (Central Daylight Time),444799.90000009537,A,corn,O,n,538,1,2381.5,442418.40000009537,7784,WL,C,3.0
3,18.727999925613403,learn,41272.0000743866,Fri Mar 27 2026 14:11:24 GMT-0500 (Central Daylight Time),445482.60000014305,A,cornenter,O,enter,665,1,3064.2000000476837,442418.40000009537,7784,WL,C,3.0
3,19.115000009536743,learn,40884.99999046326,Fri Mar 27 2026 14:11:24 GMT-0500 (Central Daylight Time),445869.10000014305,A,c,O,c,379,1,386.2000000476837,445482.90000009537,7784,WL,C,4.0
3,19.528000116348267,learn,40471.99988365173,Fri Mar 27 2026 14:11:24 GMT-0500 (Central Daylight Time),446282.7000000477,A,ca,O,a,393,1,799.7999999523163,445482.90000009537,7784,WL,C,4.0
3,20.161999940872192,learn,39838.00005912781,Fri Mar 27 2026 14:11:24 GMT-0500 (Central Daylight Time),446916.2000000477,A,cam,O,m,615,1,1433.2999999523163,445482.90000009537,7784,WL,C,4.0
3,20.477999925613403,learn,39522.0000743866,Fri Mar 27 2026 14:11:24 GMT-0500 (Central Daylight Time),447232.80000019073,A,camp,O,p,302,1,1749.9000000953674,445482.90000009537,7784,WL,C,4.0
3,21.41100001335144,learn,38588.99998664856,Fri Mar 27 2026 14:11:24 GMT-0500 (Central Daylight Time),448165.5,A,campenter,O,enter,923,1,2682.5999999046326,445482.90000009537,7784,WL,C,4.0
3,22.694999933242798,learn,37305.0000667572,Fri Mar 27 2026 14:11:24 GMT-0500 (Central Daylight Time),449449.10000014305,A,f,O,f,1269,1,1283.4000000953674,448165.7000000477,7784,WL,C,5.0
3,23.026999950408936,learn,36973.000049591064,Fri Mar 27 2026 14:11:24 GMT-0500 (Central Daylight Time),449781.10000014305,A,fl,O,l,322,1,1615.4000000953674,448165.7000000477,7784,WL,C,5.0
3,23.344000101089478,learn,36655.99989891052,Fri Mar 27 2026 14:11:24 GMT-0500 (Central Daylight Time),450098.0,A,fla,O,a,310,1,1932.2999999523163,448165.7000000477,7784,WL,C,5.0
3,24.05999994277954,learn,35940.00005722046,Fri Mar 27 2026 14:11:24 GMT-0500 (Central Daylight Time),450814.7000000477,A,flag,O,g,704,1,2649.0,448165.7000000477,7784,WL,C,5.0
3,24.39300012588501,learn,35606.99987411499,Fri Mar 27 2026 14:11:24 GMT-0500 (Central Daylight Time),451147.60000014305,A,flagenter,O,enter,315,1,2981.9000000953674,448165.7000000477,7784,WL,C,5.0
3,25.47699999809265,learn,34523.00000190735,Fri Mar 27 2026 14:11:24 GMT-0500 (Central Daylight Time),452231.90000009537,A,c,O,c,1064,1,1084.0999999046326,451147.80000019073,7784,WL,C,6.0
3,25.792999982833862,learn,34207.00001716614,Fri Mar 27 2026 14:11:24 GMT-0500 (Central Daylight Time),452548.0,A,ca,O,a,307,1,1400.1999998092651,451147.80000019073,7784,WL,C,6.0
3,26.193000078201294,learn,33806.999921798706,Fri Mar 27 2026 14:11:24 GMT-0500 (Central Daylight Time),452947.5,A,cat,O,t,381,1,1799.6999998092651,451147.80000019073,7784,WL,C,6.0
3,26.342999935150146,learn,33657.00006484985,Fri Mar 27 2026 14:11:24 GMT-0500 (Central Daylight Time),453097.40000009537,A,catt,O,t,136,1,1949.5999999046326,451147.80000019073,7784,WL,C,6.0
3,26.759999990463257,learn,33240.00000953674,Fri Mar 27 2026 14:11:24 GMT-0500 (Central Daylight Time),453515.0,A,cattl,O,l,395,1,2367.199999809265,451147.80000019073,7784,WL,C,6.0
3,27.075999975204468,learn,32924.00002479553,Fri Mar 27 2026 14:11:24 GMT-0500 (Central Daylight Time),453830.10000014305,A,cattle,O,e,295,1,2682.2999999523163,451147.80000019073,7784,WL,C,6.0
3,27.41000008583069,learn,32589.99991416931,Fri Mar 27 2026 14:11:24 GMT-0500 (Central Daylight Time),454164.30000019073,A,cattleenter,O,enter,328,1,3016.5,451147.80000019073,7784,WL,C,6.0
3,28.27500009536743,learn,31724.99990463257,Fri Mar 27 2026 14:11:24 GMT-0500 (Central Daylight Time),455029.5,A,q,O,q,855,1,865.0,454164.5,7784,WL,C,7.0
3,28.575999975204468,learn,31424.000024795532,Fri Mar 27 2026 14:11:24 GMT-0500 (Central Daylight Time),455330.7000000477,A,qu,O,u,284,1,1166.2000000476837,454164.5,7784,WL,C,7.0
3,28.89199995994568,learn,31108.00004005432,Fri Mar 27 2026 14:11:24 GMT-0500 (Central Daylight Time),455646.90000009537,A,que,O,e,295,1,1482.4000000953674,454164.5,7784,WL,C,7.0
3,29.174999952316284,learn,30825.000047683716,Fri Mar 27 2026 14:11:24 GMT-0500 (Central Daylight Time),455929.30000019073,A,quee,O,e,261,1,1764.8000001907349,454164.5,7784,WL,C,7.0
3,29.508000135421753,learn,30491.999864578247,Fri Mar 27 2026 14:11:24 GMT-0500 (Central Daylight Time),456262.30000019073,A,queen,O,n,319,1,2097.800000190735,454164.5,7784,WL,C,7.0
3,30.29100012779236,learn,29708.99987220764,Fri Mar 27 2026 14:11:24 GMT-0500 (Central Daylight Time),457045.2000000477,A,queenenter,O,enter,774,1,2880.7000000476837,454164.5,7784,WL,C,7.0
3,30.77500009536743,learn,29224.99990463257,Fri Mar 27 2026 14:11:24 GMT-0500 (Central Daylight Time),457529.2000000477,A,w,O,w,462,1,483.59999990463257,457045.60000014305,7784,WL,C,8.0
3,31.04100012779236,learn,28958.99987220764,Fri Mar 27 2026 14:11:24 GMT-0500 (Central Daylight Time),457795.40000009537,A,wh,O,h,243,1,749.7999999523163,457045.60000014305,7784,WL,C,8.0
3,31.242000102996826,learn,28757.999897003174,Fri Mar 27 2026 14:11:24 GMT-0500 (Central Daylight Time),457996.2000000477,A,whe,O,e,184,1,950.5999999046326,457045.60000014305,7784,WL,C,8.0
3,31.54100012779236,learn,28458.99987220764,Fri Mar 27 2026 14:11:24 GMT-0500 (Central Daylight Time),458295.40000009537,A,whea,O,a,278,1,1249.7999999523163,457045.60000014305,7784,WL,C,8.0
3,31.99500012397766,learn,28004.99987602234,Fri Mar 27 2026 14:11:24 GMT-0500 (Central Daylight Time),458749.2000000477,A,wheat,O,t,444,1,1703.5999999046326,457045.60000014305,7784,WL,C,8.0
3,32.259000062942505,learn,27740.999937057495,Fri Mar 27 2026 14:11:24 GMT-0500 (Central Daylight Time),459013.0,A,wheatenter,O,enter,255,1,1967.3999998569489,457045.60000014305,7784,WL,C,8.0
3,34.125,learn,25875.0,Fri Mar 27 2026 14:11:24 GMT-0500 (Central Daylight Time),460879.2000000477,A,t,O,t,1854,1,1865.8999998569489,459013.30000019073,7784,WL,C,9.0
3,34.82299995422363,learn,25177.000045776367,Fri Mar 27 2026 14:11:24 GMT-0500 (Central Daylight Time),461577.40000009537,A,to,O,o,681,1,2564.0999999046326,459013.30000019073,7784,WL,C,9.0
3,35.29100012779236,learn,24708.99987220764,Fri Mar 27 2026 14:11:24 GMT-0500 (Central Daylight Time),462045.5,A,tow,O,w,459,1,3032.199999809265,459013.30000019073,7784,WL,C,9.0
3,35.52300000190735,learn,24476.99999809265,Fri Mar 27 2026 14:11:24 GMT-0500 (Central Daylight Time),462278.0,A,towe,O,e,222,1,3264.699999809265,459013.30000019073,7784,WL,C,9.0
3,35.75699996948242,learn,24243.000030517578,Fri Mar 27 2026 14:11:24 GMT-0500 (Central Daylight Time),462511.40000009537,A,tower,O,r,224,1,3498.0999999046326,459013.30000019073,7784,WL,C,9.0
3,36.10700011253357,learn,23892.99988746643,Fri Mar 27 2026 14:11:24 GMT-0500 (Central Daylight Time),462861.80000019073,A,towerenter,O,enter,330,1,3848.5,459013.30000019073,7784,WL,C,9.0
3,37.50600004196167,learn,22493.99995803833,Fri Mar 27 2026 14:11:24 GMT-0500 (Central Daylight Time),464260.30000019073,A,b,O,b,1389,1,1398.3000001907349,462862.0,7784,WL,C,10.0
3,37.99000000953674,learn,22009.999990463257,Fri Mar 27 2026 14:11:24 GMT-0500 (Central Daylight Time),464744.40000009537,A,bo,O,o,464,1,1882.4000000953674,462862.0,7784,WL,C,10.0
3,38.454999923706055,learn,21545.000076293945,Fri Mar 27 2026 14:11:24 GMT-0500 (Central Daylight Time),465209.2000000477,A,boy,O,y,446,1,2347.2000000476837,462862.0,7784,WL,C,10.0
3,40.25500011444092,learn,19744.999885559082,Fri Mar 27 2026 14:11:24 GMT-0500 (Central Daylight Time),467009.0,A,boyenter,O,enter,1781,1,4147.0,462862.0,7784,WL,C,10.0
3,43.354000091552734,learn,16645.999908447266,Fri Mar 27 2026 14:11:24 GMT-0500 (Central Daylight Time),470109.0,A,n,O,n,3090,1,3099.699999809265,467009.30000019073,7784,WL,C,11.0
3,43.687000036239624,learn,16312.999963760376,Fri Mar 27 2026 14:11:24 GMT-0500 (Central Daylight Time),470441.80000019073,A,na,O,a,328,1,3432.5,467009.30000019073,7784,WL,C,11.0
3,43.92199993133545,learn,16078.00006866455,Fri Mar 27 2026 14:11:24 GMT-0500 (Central Daylight Time),470676.0,A,nai,O,i,225,1,3666.699999809265,467009.30000019073,7784,WL,C,11.0
3,44.3050000667572,learn,15694.999933242798,Fri Mar 27 2026 14:11:24 GMT-0500 (Central Daylight Time),471059.2000000477,A,nail,O,l,361,1,4049.899999856949,467009.30000019073,7784,WL,C,11.0
3,44.63700008392334,learn,15362.99991607666,Fri Mar 27 2026 14:11:24 GMT-0500 (Central Daylight Time),471391.40000009537,A,nailenter,O,enter,319,1,4382.099999904633,467009.30000019073,7784,WL,C,11.0
3,48.38499999046326,learn,11615.000009536743,Fri Mar 27 2026 14:11:24 GMT-0500 (Central Daylight Time),475139.90000009537,A,l,O,l,3740,1,3748.2999999523163,471391.60000014305,7784,WL,C,12.0
3,48.71799993515015,learn,11282.000064849854,Fri Mar 27 2026 14:11:24 GMT-0500 (Central Daylight Time),475472.80000019073,A,le,O,e,319,1,4081.2000000476837,471391.60000014305,7784,WL,C,12.0
3,49.01900005340576,learn,10980.999946594238,Fri Mar 27 2026 14:11:24 GMT-0500 (Central Daylight Time),475773.40000009537,A,let,O,t,291,1,4381.799999952316,471391.60000014305,7784,WL,C,12.0
3,49.16799998283386,learn,10832.000017166138,Fri Mar 27 2026 14:11:24 GMT-0500 (Central Daylight Time),475923.0,A,lett,O,t,134,1,4531.399999856949,471391.60000014305,7784,WL,C,12.0
3,49.4520001411438,learn,10547.999858856201,Fri Mar 27 2026 14:11:24 GMT-0500 (Central Daylight Time),476206.30000019073,A,lette,O,e,272,1,4814.700000047684,471391.60000014305,7784,WL,C,12.0
3,49.68400001525879,learn,10315.999984741211,Fri Mar 27 2026 14:11:24 GMT-0500 (Central Daylight Time),476438.5,A,letter,O,r,222,1,5046.899999856949,471391.60000014305,7784,WL,C,12.0
3,49.93499994277954,learn,10065.000057220459,Fri Mar 27 2026 14:11:24 GMT-0500 (Central Daylight Time),476689.2000000477,A,letterenter,O,enter,247,1,5297.599999904633,471391.60000014305,7784,WL,C,12.0
3,59.13100004196167,learn,868.9999580383301,Fri Mar 27 2026 14:11:24 GMT-0500 (Central Daylight Time),485885.80000019073,A,c,O,c,9178,1,9196.400000095367,476689.40000009537,7784,WL,C,13.0
3,59.515000104904175,learn,484.9998950958252,Fri Mar 27 2026 14:11:24 GMT-0500 (Central Daylight Time),486270.0,A,ca,O,a,374,1,9580.599999904633,476689.40000009537,7784,WL,C,13.0
3,60.015000104904175,learn,-15.000104904174805,Fri Mar 27 2026 14:11:24 GMT-0500 (Central Daylight Time),486770.0,A,caNone,O,None,497,1,10080.599999904633,476689.40000009537,7784,WL,C,13.0
4,1.5509998798370361,learn,58449.000120162964,Fri Mar 27 2026 14:11:24 GMT-0500 (Central Daylight Time),557497.5,A,b,O,b,1535,1,1550.3999998569489,555947.100000143,7784,WL,C,1.0
4,1.816999912261963,learn,58183.00008773804,Fri Mar 27 2026 14:11:24 GMT-0500 (Central Daylight Time),557763.9000000954,A,bo,O,o,250,1,1816.7999999523163,555947.100000143,7784,WL,C,1.0
4,2.1999998092651367,learn,57800.00019073486,Fri Mar 27 2026 14:11:24 GMT-0500 (Central Daylight Time),558146.8000001907,A,bod,O,d,368,1,2199.7000000476837,555947.100000143,7784,WL,C,1.0
4,2.5339999198913574,learn,57466.00008010864,Fri Mar 27 2026 14:11:24 GMT-0500 (Central Daylight Time),558481.0,A,body,O,y,329,1,2533.899999856949,555947.100000143,7784,WL,C,1.0
4,3.186999797821045,learn,56813.000202178955,Fri Mar 27 2026 14:11:24 GMT-0500 (Central Daylight Time),559134.0,A,bodyenter,O,enter,633,1,3186.899999856949,555947.100000143,7784,WL,C,1.0
4,4.432999849319458,learn,55567.00015068054,Fri Mar 27 2026 14:11:24 GMT-0500 (Central Daylight Time),560379.9000000954,A,b,O,b,1231,1,1245.7000000476837,559134.2000000477,7784,WL,C,2.0
4,4.767999887466431,learn,55232.00011253357,Fri Mar 27 2026 14:11:24 GMT-0500 (Central Daylight Time),560714.4000000954,A,bo,O,o,327,1,1580.2000000476837,559134.2000000477,7784,WL,C,2.0
4,5.182999849319458,learn,54817.00015068054,Fri Mar 27 2026 14:11:24 GMT-0500 (Central Daylight Time),561129.600000143,A,boy,O,y,398,1,1995.4000000953674,559134.2000000477,7784,WL,C,2.0
4,5.765999794006348,learn,54234.00020599365,Fri Mar 27 2026 14:11:24 GMT-0500 (Central Daylight Time),561712.8000001907,A,boyc,O,c,569,1,2578.600000143051,559134.2000000477,7784,WL,C,2.0
4,6.065999984741211,learn,53934.00001525879,Fri Mar 27 2026 14:11:24 GMT-0500 (Central Daylight Time),562013.2000000477,A,boyca,O,a,292,1,2879.0,559134.2000000477,7784,WL,C,2.0
4,6.398999929428101,learn,53601.0000705719,Fri Mar 27 2026 14:11:24 GMT-0500 (Central Daylight Time),562345.9000000954,A,boycan,O,n,326,1,3211.7000000476837,559134.2000000477,7784,WL,C,2.0
4,7.614999771118164,learn,52385.000228881836,Fri Mar 27 2026 14:11:24 GMT-0500 (Central Daylight Time),563562.0,A,boyca,O,backspace,1209,1,4427.799999952316,559134.2000000477,7784,WL,C,2.0
4,8.015999794006348,learn,51984.00020599365,Fri Mar 27 2026 14:11:24 GMT-0500 (Central Daylight Time),563962.7000000477,A,boycam,O,m,387,1,4828.5,559134.2000000477,7784,WL,C,2.0
4,8.498999834060669,learn,51501.00016593933,Fri Mar 27 2026 14:11:24 GMT-0500 (Central Daylight Time),564446.100000143,A,boycamp,O,p,464,1,5311.900000095367,559134.2000000477,7784,WL,C,2.0
4,8.98199987411499,learn,51018.00012588501,Fri Mar 27 2026 14:11:24 GMT-0500 (Central Daylight Time),564928.600000143,A,boycampenter,O,enter,467,1,5794.400000095367,559134.2000000477,7784,WL,C,2.0
4,9.964999914169312,learn,50035.00008583069,Fri Mar 27 2026 14:11:24 GMT-0500 (Central Daylight Time),565911.8000001907,A,c,O,c,972,1,982.9000000953674,564928.9000000954,7784,WL,C,3.0
4,10.297999858856201,learn,49702.0001411438,Fri Mar 27 2026 14:11:24 GMT-0500 (Central Daylight Time),566245.100000143,A,ca,O,a,323,1,1316.2000000476837,564928.9000000954,7784,WL,C,3.0
4,10.730999946594238,learn,49269.00005340576,Fri Mar 27 2026 14:11:24 GMT-0500 (Central Daylight Time),566677.600000143,A,cat,O,t,412,1,1748.7000000476837,564928.9000000954,7784,WL,C,3.0
4,10.88099980354309,learn,49119.00019645691,Fri Mar 27 2026 14:11:24 GMT-0500 (Central Daylight Time),566827.600000143,A,catt,O,t,133,1,1898.7000000476837,564928.9000000954,7784,WL,C,3.0
4,11.346999883651733,learn,48653.00011634827,Fri Mar 27 2026 14:11:24 GMT-0500 (Central Daylight Time),567293.3000001907,A,cattl,O,l,446,1,2364.4000000953674,564928.9000000954,7784,WL,C,3.0
4,11.71399998664856,learn,48286.00001335144,Fri Mar 27 2026 14:11:24 GMT-0500 (Central Daylight Time),567660.7000000477,A,cattle,O,e,349,1,2731.7999999523163,564928.9000000954,7784,WL,C,3.0
4,12.413999795913696,learn,47586.000204086304,Fri Mar 27 2026 14:11:24 GMT-0500 (Central Daylight Time),568360.600000143,A,cattleenter,O,enter,693,1,3431.7000000476837,564928.9000000954,7784,WL,C,3.0
4,13.396999835968018,learn,46603.00016403198,Fri Mar 27 2026 14:11:24 GMT-0500 (Central Daylight Time),569343.8000001907,A,d,O,d,962,1,983.0,568360.8000001907,7784,WL,C,4.0
4,13.712999820709229,learn,46287.00017929077,Fri Mar 27 2026 14:11:24 GMT-0500 (Central Daylight Time),569659.3000001907,A,do,O,o,300,1,1298.5,568360.8000001907,7784,WL,C,4.0
4,14.179999828338623,learn,45820.00017166138,Fri Mar 27 2026 14:11:24 GMT-0500 (Central Daylight Time),570126.8000001907,A,doc,O,c,457,1,1766.0,568360.8000001907,7784,WL,C,4.0
4,14.54699993133545,learn,45453.00006866455,Fri Mar 27 2026 14:11:24 GMT-0500 (Central Daylight Time),570493.4000000954,A,doct,O,t,347,1,2132.5999999046326,568360.8000001907,7784,WL,C,4.0
4,14.77999997138977,learn,45220.00002861023,Fri Mar 27 2026 14:11:24 GMT-0500 (Central Daylight Time),570726.7000000477,A,docto,O,o,220,1,2365.899999856949,568360.8000001907,7784,WL,C,4.0
4,15.129999876022339,learn,44870.00012397766,Fri Mar 27 2026 14:11:24 GMT-0500 (Central Daylight Time),571076.4000000954,A,doctor,O,r,333,1,2715.5999999046326,568360.8000001907,7784,WL,C,4.0
4,17.92899990081787,learn,42071.00009918213,Fri Mar 27 2026 14:11:24 GMT-0500 (Central Daylight Time),573875.9000000954,A,doctorenter,O,enter,2787,1,5515.099999904633,568360.8000001907,7784,WL,C,4.0
4,18.661999940872192,learn,41338.00005912781,Fri Mar 27 2026 14:11:24 GMT-0500 (Central Daylight Time),574608.4000000954,A,c,O,c,719,1,732.2000000476837,573876.2000000477,7784,WL,C,5.0
4,18.92899990081787,learn,41071.00009918213,Fri Mar 27 2026 14:11:24 GMT-0500 (Central Daylight Time),574875.8000001907,A,co,O,o,264,1,999.6000001430511,573876.2000000477,7784,WL,C,5.0
4,19.26199984550476,learn,40738.00015449524,Fri Mar 27 2026 14:11:24 GMT-0500 (Central Daylight Time),575208.3000001907,A,cor,O,r,309,1,1332.1000001430511,573876.2000000477,7784,WL,C,5.0
4,19.578999996185303,learn,40421.0000038147,Fri Mar 27 2026 14:11:24 GMT-0500 (Central Daylight Time),575525.3000001907,A,corn,O,n,304,1,1649.1000001430511,573876.2000000477,7784,WL,C,5.0
4,19.961999893188477,learn,40038.00010681152,Fri Mar 27 2026 14:11:24 GMT-0500 (Central Daylight Time),575908.600000143,A,cornenter,O,enter,366,1,2032.4000000953674,573876.2000000477,7784,WL,C,5.0
4,22.794999837875366,learn,37205.000162124634,Fri Mar 27 2026 14:11:24 GMT-0500 (Central Daylight Time),578741.9000000954,A,t,O,t,2815,1,2833.0,575908.9000000954,7784,WL,C,6.0
4,23.459999799728394,learn,36540.00020027161,Fri Mar 27 2026 14:11:24 GMT-0500 (Central Daylight Time),579407.2000000477,A,to,O,o,651,1,3498.2999999523163,575908.9000000954,7784,WL,C,6.0
4,23.876999855041504,learn,36123.000144958496,Fri Mar 27 2026 14:11:24 GMT-0500 (Central Daylight Time),579823.600000143,A,tow,O,w,403,1,3914.7000000476837,575908.9000000954,7784,WL,C,6.0
4,24.126999855041504,learn,35873.000144958496,Fri Mar 27 2026 14:11:24 GMT-0500 (Central Daylight Time),580074.100000143,A,towe,O,e,243,1,4165.200000047684,575908.9000000954,7784,WL,C,6.0
4,24.393999814987183,learn,35606.00018501282,Fri Mar 27 2026 14:11:24 GMT-0500 (Central Daylight Time),580340.2000000477,A,tower,O,r,258,1,4431.299999952316,575908.9000000954,7784,WL,C,6.0
4,24.676999807357788,learn,35323.00019264221,Fri Mar 27 2026 14:11:24 GMT-0500 (Central Daylight Time),580623.5,A,towerenter,O,enter,268,1,4714.599999904633,575908.9000000954,7784,WL,C,6.0
4,25.276999950408936,learn,34723.000049591064,Fri Mar 27 2026 14:11:24 GMT-0500 (Central Daylight Time),581223.9000000954,A,q,O,q,588,1,600.2000000476837,580623.7000000477,7784,WL,C,7.0
4,25.64299988746643,learn,34357.00011253357,Fri Mar 27 2026 14:11:24 GMT-0500 (Central Daylight Time),581589.7000000477,A,qu,O,u,346,1,966.0,580623.7000000477,7784,WL,C,7.0
4,26.14299988746643,learn,33857.00011253357,Fri Mar 27 2026 14:11:24 GMT-0500 (Central Daylight Time),582089.4000000954,A,que,O,e,493,1,1465.7000000476837,580623.7000000477,7784,WL,C,7.0
4,26.30899977684021,learn,33691.00022315979,Fri Mar 27 2026 14:11:24 GMT-0500 (Central Daylight Time),582255.8000001907,A,quee,O,e,151,1,1632.1000001430511,580623.7000000477,7784,WL,C,7.0
4,26.592999935150146,learn,33407.00006484985,Fri Mar 27 2026 14:11:24 GMT-0500 (Central Daylight Time),582539.3000001907,A,queen,O,n,268,1,1915.6000001430511,580623.7000000477,7784,WL,C,7.0
4,26.994999885559082,learn,33005.00011444092,Fri Mar 27 2026 14:11:24 GMT-0500 (Central Daylight Time),582941.600000143,A,queenenter,O,enter,393,1,2317.9000000953674,580623.7000000477,7784,WL,C,7.0
4,27.625,learn,32375.0,Fri Mar 27 2026 14:11:24 GMT-0500 (Central Daylight Time),583571.8000001907,A,n,O,n,612,1,629.9000000953674,582941.9000000954,7784,WL,C,8.0
4,27.95799994468689,learn,32042.00005531311,Fri Mar 27 2026 14:11:24 GMT-0500 (Central Daylight Time),583905.0,A,na,O,a,320,1,963.0999999046326,582941.9000000954,7784,WL,C,8.0
4,28.425999879837036,learn,31574.000120162964,Fri Mar 27 2026 14:11:24 GMT-0500 (Central Daylight Time),584373.100000143,A,nai,O,i,461,1,1431.2000000476837,582941.9000000954,7784,WL,C,8.0
4,28.943999767303467,learn,31056.000232696533,Fri Mar 27 2026 14:11:24 GMT-0500 (Central Daylight Time),584890.3000001907,A,nail,O,l,509,1,1948.4000000953674,582941.9000000954,7784,WL,C,8.0
4,29.591999769210815,learn,30408.000230789185,Fri Mar 27 2026 14:11:24 GMT-0500 (Central Daylight Time),585538.3000001907,A,nailenter,O,enter,639,1,2596.4000000953674,582941.9000000954,7784,WL,C,8.0
4,30.45799994468689,learn,29542.00005531311,Fri Mar 27 2026 14:11:24 GMT-0500 (Central Daylight Time),586405.100000143,A,s,O,s,857,1,866.5,585538.600000143,7784,WL,C,9.0
4,30.757999897003174,learn,29242.000102996826,Fri Mar 27 2026 14:11:24 GMT-0500 (Central Daylight Time),586705.2000000477,A,sh,O,h,294,1,1166.5999999046326,585538.600000143,7784,WL,C,9.0
4,31.108999967575073,learn,28891.000032424927,Fri Mar 27 2026 14:11:24 GMT-0500 (Central Daylight Time),587055.8000001907,A,sho,O,o,327,1,1517.2000000476837,585538.600000143,7784,WL,C,9.0
4,31.774999856948853,learn,28225.000143051147,Fri Mar 27 2026 14:11:24 GMT-0500 (Central Daylight Time),587721.4000000954,A,shor,O,r,659,1,2182.7999999523163,585538.600000143,7784,WL,C,9.0
4,32.04099988937378,learn,27959.00011062622,Fri Mar 27 2026 14:11:24 GMT-0500 (Central Daylight Time),587987.8000001907,A,shore,O,e,248,1,2449.2000000476837,585538.600000143,7784,WL,C,9.0
4,32.30799984931946,learn,27692.000150680542,Fri Mar 27 2026 14:11:24 GMT-0500 (Central Daylight Time),588254.600000143,A,shoreenter,O,enter,256,1,2716.0,585538.600000143,7784,WL,C,9.0
4,41.121999979019165,learn,18878.000020980835,Fri Mar 27 2026 14:11:24 GMT-0500 (Central Daylight Time),597069.3000001907,A,s,O,s,8793,1,8814.400000095367,588254.9000000954,7784,WL,C,10.0
4,41.55499982833862,learn,18445.000171661377,Fri Mar 27 2026 14:11:24 GMT-0500 (Central Daylight Time),597502.2000000477,A,su,O,u,413,1,9247.299999952316,588254.9000000954,7784,WL,C,10.0
4,42.08799982070923,learn,17912.00017929077,Fri Mar 27 2026 14:11:24 GMT-0500 (Central Daylight Time),598034.5,A,sug,O,g,524,1,9779.599999904633,588254.9000000954,7784,WL,C,10.0
4,42.520999908447266,learn,17479.000091552734,Fri Mar 27 2026 14:11:24 GMT-0500 (Central Daylight Time),598468.4000000954,A,suga,O,a,415,1,10213.5,588254.9000000954,7784,WL,C,10.0
4,42.937999963760376,learn,17062.000036239624,Fri Mar 27 2026 14:11:24 GMT-0500 (Central Daylight Time),598884.5,A,sugar,O,r,407,1,10629.599999904633,588254.9000000954,7784,WL,C,10.0
4,43.287999868392944,learn,16712.000131607056,Fri Mar 27 2026 14:11:24 GMT-0500 (Central Daylight Time),599234.4000000954,A,sugarenter,O,enter,335,1,10979.5,588254.9000000954,7784,WL,C,10.0
4,48.43899989128113,learn,11561.000108718872,Fri Mar 27 2026 14:11:24 GMT-0500 (Central Daylight Time),604385.5,A,c,O,c,5146,1,5150.899999856949,599234.600000143,7784,WL,C,11.0
4,48.78499984741211,learn,11215.00015258789,Fri Mar 27 2026 14:11:24 GMT-0500 (Central Daylight Time),604732.3000001907,A,ca,O,a,338,1,5497.700000047684,599234.600000143,7784,WL,C,11.0
4,49.26899981498718,learn,10731.000185012817,Fri Mar 27 2026 14:11:24 GMT-0500 (Central Daylight Time),605215.600000143,A,cam,O,m,471,1,5981.0,599234.600000143,7784,WL,C,11.0
4,49.61999988555908,learn,10380.000114440918,Fri Mar 27 2026 14:11:24 GMT-0500 (Central Daylight Time),605566.600000143,A,camp,O,p,338,1,6332.0,599234.600000143,7784,WL,C,11.0
4,50.18399977684021,learn,9816.00022315979,Fri Mar 27 2026 14:11:24 GMT-0500 (Central Daylight Time),606131.100000143,A,campenter,O,enter,555,1,6896.5,599234.600000143,7784,WL,C,11.0
4,54.984999895095825,learn,5015.000104904175,Fri Mar 27 2026 14:11:24 GMT-0500 (Central Daylight Time),610932.0,A,h,O,h,4785,1,4800.599999904633,606131.4000000954,7784,WL,C,12.0
4,55.367999792099,learn,4632.000207901001,Fri Mar 27 2026 14:11:24 GMT-0500 (Central Daylight Time),611314.4000000954,A,ho,O,o,365,1,5183.0,606131.4000000954,7784,WL,C,12.0
4,55.68299984931946,learn,4317.000150680542,Fri Mar 27 2026 14:11:24 GMT-0500 (Central Daylight Time),611630.3000001907,A,hom,O,m,295,1,5498.900000095367,606131.4000000954,7784,WL,C,12.0
4,55.95099997520447,learn,4049.000024795532,Fri Mar 27 2026 14:11:24 GMT-0500 (Central Daylight Time),611897.4000000954,A,home,O,e,254,1,5766.0,606131.4000000954,7784,WL,C,12.0
4,56.16799998283386,learn,3832.0000171661377,Fri Mar 27 2026 14:11:24 GMT-0500 (Central Daylight Time),612114.600000143,A,homeenter,O,enter,211,1,5983.200000047684,606131.4000000954,7784,WL,C,12.0
4,60.014999866485596,learn,-14.999866485595703,Fri Mar 27 2026 14:11:24 GMT-0500 (Central Daylight Time),615961.9000000954,A,None,O,None,3841,1,3847.0,612114.9000000954,7784,WL,C,13.0
5,0.9649999141693115,learn,60000.0,Fri Mar 27 2026 14:11:24 GMT-0500 (Central Daylight Time),684507.9000000954,A,c,O,c,947,1,964.5999999046326,683543.3000001907,7784,WL,C,1.0
5,1.313999891281128,learn,60000.0,Fri Mar 27 2026 14:11:24 GMT-0500 (Central Daylight Time),684856.9000000954,A,ca,O,a,340,1,1313.5999999046326,683543.3000001907,7784,WL,C,1.0
5,1.7819998264312744,learn,60000.0,Fri Mar 27 2026 14:11:24 GMT-0500 (Central Daylight Time),685324.8000001907,A,cat,O,t,449,1,1781.5,683543.3000001907,7784,WL,C,1.0
5,1.929999828338623,learn,60000.0,Fri Mar 27 2026 14:11:24 GMT-0500 (Central Daylight Time),685473.3000001907,A,catt,O,t,133,1,1930.0,683543.3000001907,7784,WL,C,1.0
5,2.13100004196167,learn,60000.0,Fri Mar 27 2026 14:11:24 GMT-0500 (Central Daylight Time),685673.5,A,cattl,O,l,183,1,2130.199999809265,683543.3000001907,7784,WL,C,1.0
5,2.429999828338623,learn,60000.0,Fri Mar 27 2026 14:11:24 GMT-0500 (Central Daylight Time),685973.100000143,A,cattle,O,e,279,1,2429.7999999523163,683543.3000001907,7784,WL,C,1.0
5,2.9129998683929443,learn,60000.0,Fri Mar 27 2026 14:11:24 GMT-0500 (Central Daylight Time),686456.4000000954,A,cattleenter,O,enter,469,1,2913.0999999046326,683543.3000001907,7784,WL,C,1.0
5,3.697000026702881,learn,60000.0,Fri Mar 27 2026 14:11:24 GMT-0500 (Central Daylight Time),687240.2000000477,A,b,O,b,779,1,783.5,686456.7000000477,7784,WL,C,2.0
5,4.113999843597412,learn,60000.0,Fri Mar 27 2026 14:11:24 GMT-0500 (Central Daylight Time),687657.0,A,bo,O,o,413,1,1200.2999999523163,686456.7000000477,7784,WL,C,2.0
5,4.645999908447266,learn,60000.0,Fri Mar 27 2026 14:11:24 GMT-0500 (Central Daylight Time),688189.5,A,bod,O,d,521,1,1732.7999999523163,686456.7000000477,7784,WL,C,2.0
5,5.294999837875366,learn,60000.0,Fri Mar 27 2026 14:11:24 GMT-0500 (Central Daylight Time),688838.5,A,body,O,y,627,1,2381.7999999523163,686456.7000000477,7784,WL,C,2.0
5,6.2129998207092285,learn,60000.0,Fri Mar 27 2026 14:11:24 GMT-0500 (Central Daylight Time),689755.600000143,A,bodyenter,O,enter,908,1,3298.9000000953674,686456.7000000477,7784,WL,C,2.0
5,6.628000020980835,learn,60000.0,Fri Mar 27 2026 14:11:24 GMT-0500 (Central Daylight Time),690171.4000000954,A,s,O,s,400,1,415.7000000476837,689755.7000000477,7784,WL,C,3.0
5,6.912999868392944,learn,60000.0,Fri Mar 27 2026 14:11:24 GMT-0500 (Central Daylight Time),690456.0,A,sh,O,h,262,1,700.2999999523163,689755.7000000477,7784,WL,C,3.0
5,7.244999885559082,learn,60000.0,Fri Mar 27 2026 14:11:24 GMT-0500 (Central Daylight Time),690788.5,A,sho,O,o,322,1,1032.7999999523163,689755.7000000477,7784,WL,C,3.0
5,7.744999885559082,learn,60000.0,Fri Mar 27 2026 14:11:24 GMT-0500 (Central Daylight Time),691288.3000001907,A,shor,O,r,494,1,1532.6000001430511,689755.7000000477,7784,WL,C,3.0
5,8.029000043869019,learn,60000.0,Fri Mar 27 2026 14:11:24 GMT-0500 (Central Daylight Time),691571.8000001907,A,shore,O,e,262,1,1816.1000001430511,689755.7000000477,7784,WL,C,3.0
5,8.779000043869019,learn,60000.0,Fri Mar 27 2026 14:11:24 GMT-0500 (Central Daylight Time),692322.2000000477,A,shoreenter,O,enter,742,1,2566.5,689755.7000000477,7784,WL,C,3.0
5,11.210999965667725,learn,60000.0,Fri Mar 27 2026 14:11:24 GMT-0500 (Central Daylight Time),694754.3000001907,A,t,O,t,2417,1,2431.9000000953674,692322.4000000954,7784,WL,C,4.0
5,11.49399995803833,learn,60000.0,Fri Mar 27 2026 14:11:24 GMT-0500 (Central Daylight Time),695036.8000001907,A,tp,O,p,274,1,2714.4000000953674,692322.4000000954,7784,WL,C,4.0
5,12.360999822616577,learn,60000.0,Fri Mar 27 2026 14:11:24 GMT-0500 (Central Daylight Time),695903.600000143,A,t,O,backspace,842,1,3581.2000000476837,692322.4000000954,7784,WL,C,4.0
5,12.726999998092651,learn,60000.0,Fri Mar 27 2026 14:11:24 GMT-0500 (Central Daylight Time),696269.8000001907,A,to,O,o,346,1,3947.4000000953674,692322.4000000954,7784,WL,C,4.0
5,13.243000030517578,learn,60000.0,Fri Mar 27 2026 14:11:24 GMT-0500 (Central Daylight Time),696786.4000000954,A,tow,O,w,500,1,4464.0,692322.4000000954,7784,WL,C,4.0
5,13.477999925613403,learn,60000.0,Fri Mar 27 2026 14:11:24 GMT-0500 (Central Daylight Time),697020.600000143,A,towe,O,e,213,1,4698.200000047684,692322.4000000954,7784,WL,C,4.0
5,13.710000038146973,learn,60000.0,Fri Mar 27 2026 14:11:24 GMT-0500 (Central Daylight Time),697253.5,A,tower,O,r,218,1,4931.099999904633,692322.4000000954,7784,WL,C,4.0
5,14.72599983215332,learn,60000.0,Fri Mar 27 2026 14:11:24 GMT-0500 (Central Daylight Time),698269.3000001907,A,towerenter,O,enter,1001,1,5946.900000095367,692322.4000000954,7784,WL,C,4.0
5,16.394999980926514,learn,60000.0,Fri Mar 27 2026 14:11:24 GMT-0500 (Central Daylight Time),699938.0,A,c,O,c,1664,1,1668.3999998569489,698269.600000143,7784,WL,C,5.0
5,17.026000022888184,learn,60000.0,Fri Mar 27 2026 14:11:24 GMT-0500 (Central Daylight Time),700568.9000000954,A,co,O,o,623,1,2299.2999999523163,698269.600000143,7784,WL,C,5.0
5,17.47499990463257,learn,60000.0,Fri Mar 27 2026 14:11:24 GMT-0500 (Central Daylight Time),701018.0,A,cor,O,r,438,1,2748.399999856949,698269.600000143,7784,WL,C,5.0
5,17.89199995994568,learn,60000.0,Fri Mar 27 2026 14:11:24 GMT-0500 (Central Daylight Time),701434.8000001907,A,corn,O,n,399,1,3165.2000000476837,698269.600000143,7784,WL,C,5.0
5,18.907999992370605,learn,60000.0,Fri Mar 27 2026 14:11:24 GMT-0500 (Central Daylight Time),702451.3000001907,A,cornenter,O,enter,1006,1,4181.700000047684,698269.600000143,7784,WL,C,5.0
5,19.674999952316284,learn,60000.0,Fri Mar 27 2026 14:11:24 GMT-0500 (Central Daylight Time),703217.8000001907,A,b,O,b,760,1,766.2000000476837,702451.600000143,7784,WL,C,6.0
5,20.155999898910522,learn,60000.0,Fri Mar 27 2026 14:11:24 GMT-0500 (Central Daylight Time),703699.3000001907,A,bo,O,o,471,1,1247.7000000476837,702451.600000143,7784,WL,C,6.0
5,20.905999898910522,learn,60000.0,Fri Mar 27 2026 14:11:24 GMT-0500 (Central Daylight Time),704449.4000000954,A,boy,O,y,745,1,1997.7999999523163,702451.600000143,7784,WL,C,6.0
5,22.406999826431274,learn,60000.0,Fri Mar 27 2026 14:11:24 GMT-0500 (Central Daylight Time),705950.4000000954,A,boyenter,O,enter,1483,1,3498.7999999523163,702451.600000143,7784,WL,C,6.0
5,22.907999992370605,learn,60000.0,Fri Mar 27 2026 14:11:24 GMT-0500 (Central Daylight Time),706450.5,A,c,O,c,478,1,499.89999985694885,705950.600000143,7784,WL,C,7.0
5,23.240000009536743,learn,60000.0,Fri Mar 27 2026 14:11:24 GMT-0500 (Central Daylight Time),706783.4000000954,A,ca,O,a,319,1,832.7999999523163,705950.600000143,7784,WL,C,7.0
5,23.840999841690063,learn,60000.0,Fri Mar 27 2026 14:11:24 GMT-0500 (Central Daylight Time),707384.0,A,cam,O,m,578,1,1433.3999998569489,705950.600000143,7784,WL,C,7.0
5,24.639999866485596,learn,60000.0,Fri Mar 27 2026 14:11:24 GMT-0500 (Central Daylight Time),708183.3000001907,A,camp,O,p,788,1,2232.7000000476837,705950.600000143,7784,WL,C,7.0
5,25.622999906539917,learn,60000.0,Fri Mar 27 2026 14:11:24 GMT-0500 (Central Daylight Time),709165.8000001907,A,campenter,O,enter,971,1,3215.2000000476837,705950.600000143,7784,WL,C,7.0
5,27.15499997138977,learn,60000.0,Fri Mar 27 2026 14:11:24 GMT-0500 (Central Daylight Time),710698.4000000954,A,h,O,h,1519,1,1532.2999999523163,709166.100000143,7784,WL,C,8.0
5,27.57200002670288,learn,60000.0,Fri Mar 27 2026 14:11:24 GMT-0500 (Central Daylight Time),711115.2000000477,A,ho,O,o,409,1,1949.0999999046326,709166.100000143,7784,WL,C,8.0
5,27.957000017166138,learn,60000.0,Fri Mar 27 2026 14:11:24 GMT-0500 (Central Daylight Time),711499.9000000954,A,hom,O,m,367,1,2333.7999999523163,709166.100000143,7784,WL,C,8.0
5,28.35599994659424,learn,60000.0,Fri Mar 27 2026 14:11:24 GMT-0500 (Central Daylight Time),711899.2000000477,A,home,O,e,377,1,2733.0999999046326,709166.100000143,7784,WL,C,8.0
5,28.58899998664856,learn,60000.0,Fri Mar 27 2026 14:11:24 GMT-0500 (Central Daylight Time),712131.8000001907,A,homeenter,O,enter,225,1,2965.7000000476837,709166.100000143,7784,WL,C,8.0
5,30.503999948501587,learn,60000.0,Fri Mar 27 2026 14:11:24 GMT-0500 (Central Daylight Time),714047.5,A,s,O,s,1903,1,1915.5,712132.0,7784,WL,C,9.0
5,30.871999979019165,learn,60000.0,Fri Mar 27 2026 14:11:24 GMT-0500 (Central Daylight Time),714414.7000000477,A,su,O,u,346,1,2282.7000000476837,712132.0,7784,WL,C,9.0
5,31.287999868392944,learn,60000.0,Fri Mar 27 2026 14:11:24 GMT-0500 (Central Daylight Time),714831.0,A,sug,O,g,395,1,2699.0,712132.0,7784,WL,C,9.0
5,31.671000003814697,learn,60000.0,Fri Mar 27 2026 14:11:24 GMT-0500 (Central Daylight Time),715213.9000000954,A,suga,O,a,365,1,3081.9000000953674,712132.0,7784,WL,C,9.0
5,32.08699989318848,learn,60000.0,Fri Mar 27 2026 14:11:24 GMT-0500 (Central Daylight Time),715630.600000143,A,sugar,O,r,395,1,3498.600000143051,712132.0,7784,WL,C,9.0
5,32.53699994087219,learn,60000.0,Fri Mar 27 2026 14:11:24 GMT-0500 (Central Daylight Time),716080.3000001907,A,sugarenter,O,enter,427,1,3948.300000190735,712132.0,7784,WL,C,9.0
5,32.9539999961853,learn,60000.0,Fri Mar 27 2026 14:11:24 GMT-0500 (Central Daylight Time),716497.100000143,A,q,O,q,411,1,416.5,716080.600000143,7784,WL,C,10.0
5,33.32099986076355,learn,60000.0,Fri Mar 27 2026 14:11:24 GMT-0500 (Central Daylight Time),716864.5,A,qu,O,u,344,1,783.8999998569489,716080.600000143,7784,WL,C,10.0
5,33.669999837875366,learn,60000.0,Fri Mar 27 2026 14:11:24 GMT-0500 (Central Daylight Time),717213.4000000954,A,que,O,e,338,1,1132.7999999523163,716080.600000143,7784,WL,C,10.0
5,33.80499982833862,learn,60000.0,Fri Mar 27 2026 14:11:24 GMT-0500 (Central Daylight Time),717347.8000001907,A,quee,O,e,129,1,1267.2000000476837,716080.600000143,7784,WL,C,10.0
5,34.003000020980835,learn,60000.0,Fri Mar 27 2026 14:11:24 GMT-0500 (Central Daylight Time),717546.4000000954,A,queen,O,n,182,1,1465.7999999523163,716080.600000143,7784,WL,C,10.0
5,34.97099995613098,learn,60000.0,Fri Mar 27 2026 14:11:24 GMT-0500 (Central Daylight Time),718514.0,A,queenenter,O,enter,953,1,2433.399999856949,716080.600000143,7784,WL,C,10.0
5,38.35199999809265,learn,60000.0,Fri Mar 27 2026 14:11:24 GMT-0500 (Central Daylight Time),721895.5,A,f,O,f,3361,1,3381.2999999523163,718514.2000000477,7784,WL,C,11.0
5,38.63699984550476,learn,60000.0,Fri Mar 27 2026 14:11:24 GMT-0500 (Central Daylight Time),722179.7000000477,A,fl,O,l,276,1,3665.5,718514.2000000477,7784,WL,C,11.0
5,38.9689998626709,learn,60000.0,Fri Mar 27 2026 14:11:24 GMT-0500 (Central Daylight Time),722512.4000000954,A,fla,O,a,310,1,3998.2000000476837,718514.2000000477,7784,WL,C,11.0
5,39.45299983024597,learn,60000.0,Fri Mar 27 2026 14:11:24 GMT-0500 (Central Daylight Time),722996.100000143,A,flag,O,g,468,1,4481.900000095367,718514.2000000477,7784,WL,C,11.0
5,39.835999965667725,learn,60000.0,Fri Mar 27 2026 14:11:24 GMT-0500 (Central Daylight Time),723378.8000001907,A,flagenter,O,enter,368,1,4864.600000143051,718514.2000000477,7784,WL,C,11.0
5,44.01699995994568,learn,60000.0,Fri Mar 27 2026 14:11:24 GMT-0500 (Central Daylight Time),727560.100000143,A,n,O,n,4160,1,4181.0,723379.100000143,7784,WL,C,12.0
5,44.33399987220764,learn,60000.0,Fri Mar 27 2026 14:11:24 GMT-0500 (Central Daylight Time),727877.0,A,na,O,a,305,1,4497.899999856949,723379.100000143,7784,WL,C,12.0
5,44.61899995803833,learn,60000.0,Fri Mar 27 2026 14:11:24 GMT-0500 (Central Daylight Time),728161.600000143,A,nai,O,i,271,1,4782.5,723379.100000143,7784,WL,C,12.0
5,45.06699991226196,learn,60000.0,Fri Mar 27 2026 14:11:24 GMT-0500 (Central Daylight Time),728609.9000000954,A,nail,O,l,441,1,5230.799999952316,723379.100000143,7784,WL,C,12.0
5,45.43299984931946,learn,60000.0,Fri Mar 27 2026 14:11:24 GMT-0500 (Central Daylight Time),728976.2000000477,A,nailenter,O,enter,351,1,5597.099999904633,723379.100000143,7784,WL,C,12.0
5,78.65599989891052,learn,60000.0,Fri Mar 27 2026 14:11:24 GMT-0500 (Central Daylight Time),762199.2000000477,A,enter,O,enter,33203,1,33222.700000047684,728976.5,7784,WL,C,13.0
6,2.0490000247955322,distr,57950.99997520447,Fri Mar 27 2026 14:11:24 GMT-0500 (Central Daylight Time),839558.600000143,B,c,O,c,2029,1,2049.0,837509.600000143,7784,WL,C,1.0
6,2.383000135421753,distr,57616.99986457825,Fri Mar 27 2026 14:11:24 GMT-0500 (Central Daylight Time),839891.9000000954,B,ch,O,h,326,1,2382.2999999523163,837509.600000143,7784,WL,C,1.0
6,2.815000057220459,distr,57184.99994277954,Fri Mar 27 2026 14:11:24 GMT-0500 (Central Daylight Time),840324.0,B,chr,O,r,415,1,2814.399999856949,837509.600000143,7784,WL,C,1.0
6,3.1000001430511475,distr,56899.99985694885,Fri Mar 27 2026 14:11:24 GMT-0500 (Central Daylight Time),840609.100000143,B,chri,O,i,261,1,3099.5,837509.600000143,7784,WL,C,1.0
6,3.3489999771118164,distr,56651.00002288818,Fri Mar 27 2026 14:11:24 GMT-0500 (Central Daylight Time),840857.9000000954,B,chris,O,s,233,1,3348.2999999523163,837509.600000143,7784,WL,C,1.0
6,3.682000160217285,distr,56317.999839782715,Fri Mar 27 2026 14:11:24 GMT-0500 (Central Daylight Time),841191.4000000954,B,christ,O,t,310,1,3681.7999999523163,837509.600000143,7784,WL,C,1.0
6,4.499000072479248,distr,55500.99992752075,Fri Mar 27 2026 14:11:24 GMT-0500 (Central Daylight Time),842007.9000000954,B,christm,O,m,795,1,4498.299999952316,837509.600000143,7784,WL,C,1.0
6,4.781000137329102,distr,55218.9998626709,Fri Mar 27 2026 14:11:24 GMT-0500 (Central Daylight Time),842289.9000000954,B,christma,O,a,265,1,4780.299999952316,837509.600000143,7784,WL,C,1.0
6,5.04800009727478,distr,54951.99990272522,Fri Mar 27 2026 14:11:24 GMT-0500 (Central Daylight Time),842557.7000000477,B,christmas,O,s,252,1,5048.099999904633,837509.600000143,7784,WL,C,1.0
6,5.614000082015991,distr,54385.99991798401,Fri Mar 27 2026 14:11:24 GMT-0500 (Central Daylight Time),843123.3000001907,B,christmasenter,O,enter,557,1,5613.700000047684,837509.600000143,7784,WL,C,1.0
6,6.564000129699707,distr,53435.99987030029,Fri Mar 27 2026 14:11:24 GMT-0500 (Central Daylight Time),844073.2000000477,B,m,O,m,937,1,949.7000000476837,843123.5,7784,WL,C,2.0
6,6.914000034332275,distr,53085.999965667725,Fri Mar 27 2026 14:11:24 GMT-0500 (Central Daylight Time),844423.4000000954,B,mo,O,o,330,1,1299.9000000953674,843123.5,7784,WL,C,2.0
6,7.248000144958496,distr,52751.999855041504,Fri Mar 27 2026 14:11:24 GMT-0500 (Central Daylight Time),844757.0,B,mot,O,t,322,1,1633.5,843123.5,7784,WL,C,2.0
6,7.413000106811523,distr,52586.99989318848,Fri Mar 27 2026 14:11:24 GMT-0500 (Central Daylight Time),844922.3000001907,B,moth,O,h,147,1,1798.8000001907349,843123.5,7784,WL,C,2.0
6,7.647000074386597,distr,52352.9999256134,Fri Mar 27 2026 14:11:24 GMT-0500 (Central Daylight Time),845156.8000001907,B,mothe,O,e,214,1,2033.3000001907349,843123.5,7784,WL,C,2.0
6,7.930999994277954,distr,52069.000005722046,Fri Mar 27 2026 14:11:24 GMT-0500 (Central Daylight Time),845439.9000000954,B,mother,O,r,263,1,2316.4000000953674,843123.5,7784,WL,C,2.0
6,8.430000066757202,distr,51569.9999332428,Fri Mar 27 2026 14:11:24 GMT-0500 (Central Daylight Time),845939.100000143,B,motherenter,O,enter,483,1,2815.600000143051,843123.5,7784,WL,C,2.0
6,9.111999988555908,distr,50888.00001144409,Fri Mar 27 2026 14:11:24 GMT-0500 (Central Daylight Time),846621.7000000477,B,v,O,v,673,1,682.2999999523163,845939.4000000954,7784,WL,C,3.0
6,9.479000091552734,distr,50520.999908447266,Fri Mar 27 2026 14:11:24 GMT-0500 (Central Daylight Time),846988.3000001907,B,va,O,a,356,1,1048.9000000953674,845939.4000000954,7784,WL,C,3.0
6,9.796000003814697,distr,50203.9999961853,Fri Mar 27 2026 14:11:24 GMT-0500 (Central Daylight Time),847305.7000000477,B,val,O,l,302,1,1366.2999999523163,845939.4000000954,7784,WL,C,3.0
6,9.948000192642212,distr,50051.99980735779,Fri Mar 27 2026 14:11:24 GMT-0500 (Central Daylight Time),847457.600000143,B,vall,O,l,147,1,1518.2000000476837,845939.4000000954,7784,WL,C,3.0
6,10.296000003814697,distr,49703.9999961853,Fri Mar 27 2026 14:11:24 GMT-0500 (Central Daylight Time),847805.0,B,valle,O,e,330,1,1865.5999999046326,845939.4000000954,7784,WL,C,3.0
6,10.713000059127808,distr,49286.99994087219,Fri Mar 27 2026 14:11:24 GMT-0500 (Central Daylight Time),848222.2000000477,B,valley,O,y,398,1,2282.7999999523163,845939.4000000954,7784,WL,C,3.0
6,14.74400019645691,distr,45255.99980354309,Fri Mar 27 2026 14:11:24 GMT-0500 (Central Daylight Time),852253.600000143,B,valleyenter,O,enter,4013,1,6314.200000047684,845939.4000000954,7784,WL,C,3.0
6,20.193000078201294,distr,39806.999921798706,Fri Mar 27 2026 14:11:24 GMT-0500 (Central Daylight Time),857702.0,B,h,O,h,5438,1,5448.199999809265,852253.8000001907,7784,WL,C,4.0
6,20.677000045776367,distr,39322.99995422363,Fri Mar 27 2026 14:11:24 GMT-0500 (Central Daylight Time),858186.100000143,B,ho,O,o,470,1,5932.299999952316,852253.8000001907,7784,WL,C,4.0
6,21.12600016593933,distr,38873.99983406067,Fri Mar 27 2026 14:11:24 GMT-0500 (Central Daylight Time),858635.5,B,hot,O,t,433,1,6381.699999809265,852253.8000001907,7784,WL,C,4.0
6,21.493000030517578,distr,38506.99996948242,Fri Mar 27 2026 14:11:24 GMT-0500 (Central Daylight Time),859002.5,B,hote,O,e,361,1,6748.699999809265,852253.8000001907,7784,WL,C,4.0
6,23.407999992370605,distr,36592.000007629395,Fri Mar 27 2026 14:11:24 GMT-0500 (Central Daylight Time),860917.100000143,B,hoteenter,O,enter,1895,1,8663.299999952316,852253.8000001907,7784,WL,C,4.0
6,24.04100012779236,distr,35958.99987220764,Fri Mar 27 2026 14:11:24 GMT-0500 (Central Daylight Time),861550.600000143,B,m,O,m,613,1,633.2999999523163,860917.3000001907,7784,WL,C,5.0
6,24.35700011253357,distr,35642.99988746643,Fri Mar 27 2026 14:11:24 GMT-0500 (Central Daylight Time),861866.8000001907,B,mo,O,o,308,1,949.5,860917.3000001907,7784,WL,C,5.0
6,24.676000118255615,distr,35323.999881744385,Fri Mar 27 2026 14:11:24 GMT-0500 (Central Daylight Time),862185.4000000954,B,mon,O,n,313,1,1268.0999999046326,860917.3000001907,7784,WL,C,5.0
6,25.04100012779236,distr,34958.99987220764,Fri Mar 27 2026 14:11:24 GMT-0500 (Central Daylight Time),862550.3000001907,B,mone,O,e,344,1,1633.0,860917.3000001907,7784,WL,C,5.0
6,25.359000205993652,distr,34640.99979400635,Fri Mar 27 2026 14:11:24 GMT-0500 (Central Daylight Time),862868.0,B,money,O,y,309,1,1950.6999998092651,860917.3000001907,7784,WL,C,5.0
6,26.391000032424927,distr,33608.99996757507,Fri Mar 27 2026 14:11:24 GMT-0500 (Central Daylight Time),863900.2000000477,B,moneyenter,O,enter,1022,1,2982.899999856949,860917.3000001907,7784,WL,C,5.0
6,27.657000064849854,distr,32342.999935150146,Fri Mar 27 2026 14:11:24 GMT-0500 (Central Daylight Time),865166.3000001907,B,w,O,w,1246,1,1265.9000000953674,863900.4000000954,7784,WL,C,6.0
6,27.957000017166138,distr,32042.999982833862,Fri Mar 27 2026 14:11:24 GMT-0500 (Central Daylight Time),865466.5,B,wi,O,i,294,1,1566.0999999046326,863900.4000000954,7784,WL,C,6.0
6,28.207000017166138,distr,31792.999982833862,Fri Mar 27 2026 14:11:24 GMT-0500 (Central Daylight Time),865716.4000000954,B,win,O,n,234,1,1816.0,863900.4000000954,7784,WL,C,6.0
6,28.539000034332275,distr,31460.999965667725,Fri Mar 27 2026 14:11:24 GMT-0500 (Central Daylight Time),866048.4000000954,B,wint,O,t,325,1,2148.0,863900.4000000954,7784,WL,C,6.0
6,28.83899998664856,distr,31161.00001335144,Fri Mar 27 2026 14:11:24 GMT-0500 (Central Daylight Time),866348.8000001907,B,winte,O,e,291,1,2448.4000000953674,863900.4000000954,7784,WL,C,6.0
6,29.10700011253357,distr,30892.99988746643,Fri Mar 27 2026 14:11:24 GMT-0500 (Central Daylight Time),866615.8000001907,B,winter,O,r,253,1,2715.4000000953674,863900.4000000954,7784,WL,C,6.0
6,29.324000120162964,distr,30675.999879837036,Fri Mar 27 2026 14:11:24 GMT-0500 (Central Daylight Time),866833.2000000477,B,winterenter,O,enter,212,1,2932.7999999523163,863900.4000000954,7784,WL,C,6.0
6,46.23699998855591,distr,13763.000011444092,Fri Mar 27 2026 14:11:24 GMT-0500 (Central Daylight Time),883746.0,B,enter,O,enter,16906,1,16912.599999904633,866833.4000000954,7784,WL,C,7.0
6,47.884000062942505,distr,12115.999937057495,Fri Mar 27 2026 14:11:24 GMT-0500 (Central Daylight Time),885393.0,B,enter,O,enter,1641,1,1646.6999998092651,883746.3000001907,7784,WL,C,8.0
6,51.16600012779236,distr,8833.999872207642,Fri Mar 27 2026 14:11:24 GMT-0500 (Central Daylight Time),888674.9000000954,B,enter,O,enter,3275,1,3281.5999999046326,885393.3000001907,7784,WL,C,9.0
6,51.65000009536743,distr,8349.999904632568,Fri Mar 27 2026 14:11:24 GMT-0500 (Central Daylight Time),889158.9000000954,B,enter,O,enter,465,1,483.7000000476837,888675.2000000477,7784,WL,C,10.0
6,60.01400017738342,distr,-14.000177383422852,Fri Mar 27 2026 14:11:24 GMT-0500 (Central Daylight Time),897523.9000000954,B,None,O,None,8360,1,8364.799999952316,889159.100000143,7784,WL,C,11.0
7,3.1649999618530273,immed,56835.00003814697,Fri Mar 27 2026 14:11:24 GMT-0500 (Central Daylight Time),911702.100000143,A,t,O,t,3146,1,3164.7000000476837,908537.4000000954,7784,WL,C,1.0
7,3.4660000801086426,immed,56533.99991989136,Fri Mar 27 2026 14:11:24 GMT-0500 (Central Daylight Time),912003.100000143,A,to,O,o,295,1,3465.7000000476837,908537.4000000954,7784,WL,C,1.0
7,4.082000017166138,immed,55917.99998283386,Fri Mar 27 2026 14:11:24 GMT-0500 (Central Daylight Time),912619.3000001907,A,tow,O,w,598,1,4081.9000000953674,908537.4000000954,7784,WL,C,1.0
7,4.297999858856201,immed,55702.0001411438,Fri Mar 27 2026 14:11:24 GMT-0500 (Central Daylight Time),912835.100000143,A,towe,O,e,207,1,4297.700000047684,908537.4000000954,7784,WL,C,1.0
7,4.547999858856201,immed,55452.0001411438,Fri Mar 27 2026 14:11:24 GMT-0500 (Central Daylight Time),913085.100000143,A,tower,O,r,239,1,4547.700000047684,908537.4000000954,7784,WL,C,1.0
7,5.162999868392944,immed,54837.000131607056,Fri Mar 27 2026 14:11:24 GMT-0500 (Central Daylight Time),913700.0,A,towerenter,O,enter,605,1,5162.599999904633,908537.4000000954,7784,WL,C,1.0
7,5.829999923706055,immed,54170.000076293945,Fri Mar 27 2026 14:11:24 GMT-0500 (Central Daylight Time),914367.5,A,q,O,q,647,1,667.2999999523163,913700.2000000477,7784,WL,C,2.0
7,6.19599986076355,immed,53804.00013923645,Fri Mar 27 2026 14:11:24 GMT-0500 (Central Daylight Time),914733.0,A,qu,O,u,355,1,1032.7999999523163,913700.2000000477,7784,WL,C,2.0
7,6.730000019073486,immed,53269.999980926514,Fri Mar 27 2026 14:11:24 GMT-0500 (Central Daylight Time),915267.5,A,que,O,e,527,1,1567.2999999523163,913700.2000000477,7784,WL,C,2.0
7,6.881999969482422,immed,53118.00003051758,Fri Mar 27 2026 14:11:24 GMT-0500 (Central Daylight Time),915419.0,A,quee,O,e,141,1,1718.7999999523163,913700.2000000477,7784,WL,C,2.0
7,7.230000019073486,immed,52769.999980926514,Fri Mar 27 2026 14:11:24 GMT-0500 (Central Daylight Time),915767.8000001907,A,queen,O,n,326,1,2067.600000143051,913700.2000000477,7784,WL,C,2.0
7,7.63100004196167,immed,52368.99995803833,Fri Mar 27 2026 14:11:24 GMT-0500 (Central Daylight Time),916168.100000143,A,queenenter,O,enter,378,1,2467.9000000953674,913700.2000000477,7784,WL,C,2.0
7,8.763000011444092,immed,51236.99998855591,Fri Mar 27 2026 14:11:24 GMT-0500 (Central Daylight Time),917300.7000000477,A,f,O,f,1116,1,1132.5,916168.2000000477,7784,WL,C,3.0
7,9.045000076293945,immed,50954.999923706055,Fri Mar 27 2026 14:11:24 GMT-0500 (Central Daylight Time),917582.0,A,fl,O,l,261,1,1413.7999999523163,916168.2000000477,7784,WL,C,3.0
7,9.41100001335144,immed,50588.99998664856,Fri Mar 27 2026 14:11:24 GMT-0500 (Central Daylight Time),917948.7000000477,A,fla,O,a,350,1,1780.5,916168.2000000477,7784,WL,C,3.0
7,10.54699993133545,immed,49453.00006866455,Fri Mar 27 2026 14:11:24 GMT-0500 (Central Daylight Time),919084.3000001907,A,flag,O,g,1115,1,2916.100000143051,916168.2000000477,7784,WL,C,3.0
7,11.129999876022339,immed,48870.00012397766,Fri Mar 27 2026 14:11:24 GMT-0500 (Central Daylight Time),919667.0,A,flagenter,O,enter,560,1,3498.7999999523163,916168.2000000477,7784,WL,C,3.0
7,11.777999877929688,immed,48222.00012207031,Fri Mar 27 2026 14:11:24 GMT-0500 (Central Daylight Time),920315.4000000954,A,h,O,h,632,1,648.2999999523163,919667.100000143,7784,WL,C,4.0
7,12.128999948501587,immed,47871.00005149841,Fri Mar 27 2026 14:11:24 GMT-0500 (Central Daylight Time),920667.0,A,ho,O,o,341,1,999.8999998569489,919667.100000143,7784,WL,C,4.0
7,12.477999925613403,immed,47522.0000743866,Fri Mar 27 2026 14:11:24 GMT-0500 (Central Daylight Time),921015.3000001907,A,hom,O,m,331,1,1348.2000000476837,919667.100000143,7784,WL,C,4.0
7,12.82800006866455,immed,47171.99993133545,Fri Mar 27 2026 14:11:24 GMT-0500 (Central Daylight Time),921365.2000000477,A,home,O,e,341,1,1698.0999999046326,919667.100000143,7784,WL,C,4.0
7,13.17799997329712,immed,46822.00002670288,Fri Mar 27 2026 14:11:24 GMT-0500 (Central Daylight Time),921715.3000001907,A,homeenter,O,enter,331,1,2048.2000000476837,919667.100000143,7784,WL,C,4.0
7,13.694000005722046,immed,46305.999994277954,Fri Mar 27 2026 14:11:24 GMT-0500 (Central Daylight Time),922231.8000001907,A,b,O,b,504,1,516.2000000476837,921715.600000143,7784,WL,C,5.0
7,14.027999877929688,immed,45972.00012207031,Fri Mar 27 2026 14:11:24 GMT-0500 (Central Daylight Time),922565.100000143,A,bo,O,o,323,1,849.5,921715.600000143,7784,WL,C,5.0
7,14.410000085830688,immed,45589.99991416931,Fri Mar 27 2026 14:11:24 GMT-0500 (Central Daylight Time),922947.8000001907,A,bod,O,d,363,1,1232.2000000476837,921715.600000143,7784,WL,C,5.0
7,14.726999998092651,immed,45273.00000190735,Fri Mar 27 2026 14:11:24 GMT-0500 (Central Daylight Time),923264.9000000954,A,body,O,y,297,1,1549.2999999523163,921715.600000143,7784,WL,C,5.0
7,15.644000053405762,immed,44355.99994659424,Fri Mar 27 2026 14:11:24 GMT-0500 (Central Daylight Time),924181.0,A,bodyenter,O,enter,893,1,2465.399999856949,921715.600000143,7784,WL,C,5.0
7,17.625,immed,42375.0,Fri Mar 27 2026 14:11:24 GMT-0500 (Central Daylight Time),926162.600000143,A,n,O,n,1966,1,1981.4000000953674,924181.2000000477,7784,WL,C,6.0
7,18.009000062942505,immed,41990.999937057495,Fri Mar 27 2026 14:11:24 GMT-0500 (Central Daylight Time),926546.3000001907,A,na,O,a,364,1,2365.100000143051,924181.2000000477,7784,WL,C,6.0
7,18.342999935150146,immed,41657.00006484985,Fri Mar 27 2026 14:11:24 GMT-0500 (Central Daylight Time),926880.3000001907,A,nai,O,i,325,1,2699.100000143051,924181.2000000477,7784,WL,C,6.0
7,18.874000072479248,immed,41125.99992752075,Fri Mar 27 2026 14:11:24 GMT-0500 (Central Daylight Time),927411.600000143,A,nail,O,l,523,1,3230.4000000953674,924181.2000000477,7784,WL,C,6.0
7,19.292999982833862,immed,40707.00001716614,Fri Mar 27 2026 14:11:24 GMT-0500 (Central Daylight Time),927830.0,A,nailenter,O,enter,409,1,3648.7999999523163,924181.2000000477,7784,WL,C,6.0
7,19.741999864578247,immed,40258.00013542175,Fri Mar 27 2026 14:11:24 GMT-0500 (Central Daylight Time),928279.5,A,c,O,c,429,1,449.2999999523163,927830.2000000477,7784,WL,C,7.0
7,20.024999856948853,immed,39975.00014305115,Fri Mar 27 2026 14:11:24 GMT-0500 (Central Daylight Time),928562.5,A,ca,O,a,270,1,732.2999999523163,927830.2000000477,7784,WL,C,7.0
7,20.47499990463257,immed,39525.00009536743,Fri Mar 27 2026 14:11:24 GMT-0500 (Central Daylight Time),929012.600000143,A,cat,O,t,436,1,1182.4000000953674,927830.2000000477,7784,WL,C,7.0
7,20.625,immed,39375.0,Fri Mar 27 2026 14:11:24 GMT-0500 (Central Daylight Time),929162.4000000954,A,catt,O,t,141,1,1332.2000000476837,927830.2000000477,7784,WL,C,7.0
7,20.875,immed,39125.0,Fri Mar 27 2026 14:11:24 GMT-0500 (Central Daylight Time),929412.3000001907,A,cattl,O,l,227,1,1582.1000001430511,927830.2000000477,7784,WL,C,7.0
7,21.175999879837036,immed,38824.000120162964,Fri Mar 27 2026 14:11:24 GMT-0500 (Central Daylight Time),929713.4000000954,A,cattle,O,e,285,1,1883.2000000476837,927830.2000000477,7784,WL,C,7.0
7,21.473999977111816,immed,38526.00002288818,Fri Mar 27 2026 14:11:24 GMT-0500 (Central Daylight Time),930011.5,A,cattleenter,O,enter,281,1,2181.2999999523163,927830.2000000477,7784,WL,C,7.0
7,23.075000047683716,immed,36924.999952316284,Fri Mar 27 2026 14:11:24 GMT-0500 (Central Daylight Time),931612.5,A,s,O,s,1593,1,1600.5999999046326,930011.9000000954,7784,WL,C,8.0
7,23.44099998474121,immed,36559.00001525879,Fri Mar 27 2026 14:11:24 GMT-0500 (Central Daylight Time),931978.5,A,su,O,u,356,1,1966.5999999046326,930011.9000000954,7784,WL,C,8.0
7,23.842000007629395,immed,36157.999992370605,Fri Mar 27 2026 14:11:24 GMT-0500 (Central Daylight Time),932379.100000143,A,sug,O,g,392,1,2367.2000000476837,930011.9000000954,7784,WL,C,8.0
7,24.22499990463257,immed,35775.00009536743,Fri Mar 27 2026 14:11:24 GMT-0500 (Central Daylight Time),932762.2000000477,A,suga,O,a,373,1,2750.2999999523163,930011.9000000954,7784,WL,C,8.0
7,24.60800004005432,immed,35391.99995994568,Fri Mar 27 2026 14:11:24 GMT-0500 (Central Daylight Time),933145.600000143,A,sugar,O,r,357,1,3133.7000000476837,930011.9000000954,7784,WL,C,8.0
7,24.889999866485596,immed,35110.000133514404,Fri Mar 27 2026 14:11:24 GMT-0500 (Central Daylight Time),933427.600000143,A,sugarenter,O,enter,263,1,3415.7000000476837,930011.9000000954,7784,WL,C,8.0
7,28.00499987602234,immed,31995.00012397766,Fri Mar 27 2026 14:11:24 GMT-0500 (Central Daylight Time),936542.5,A,f,O,f,3103,1,3114.5999999046326,933427.9000000954,7784,WL,C,9.0
7,28.522000074386597,immed,31477.999925613403,Fri Mar 27 2026 14:11:24 GMT-0500 (Central Daylight Time),937059.600000143,A,fl,O,l,504,1,3631.7000000476837,933427.9000000954,7784,WL,C,9.0
7,28.805999994277954,immed,31194.000005722046,Fri Mar 27 2026 14:11:24 GMT-0500 (Central Daylight Time),937343.3000001907,A,fla,O,a,265,1,3915.4000000953674,933427.9000000954,7784,WL,C,9.0
7,29.240000009536743,immed,30759.999990463257,Fri Mar 27 2026 14:11:24 GMT-0500 (Central Daylight Time),937777.600000143,A,flag,O,g,407,1,4349.700000047684,933427.9000000954,7784,WL,C,9.0
7,29.48900008201599,immed,30510.99991798401,Fri Mar 27 2026 14:11:24 GMT-0500 (Central Daylight Time),938026.2000000477,A,flagenter,O,enter,230,1,4598.299999952316,933427.9000000954,7784,WL,C,9.0
7,36.97000002861023,immed,23029.99997138977,Fri Mar 27 2026 14:11:24 GMT-0500 (Central Daylight Time),945507.3000001907,A,s,O,s,7466,1,7481.0,938026.3000001907,7784,WL,C,10.0
7,37.30299997329712,immed,22697.00002670288,Fri Mar 27 2026 14:11:24 GMT-0500 (Central Daylight Time),945840.8000001907,A,sh,O,h,314,1,7814.5,938026.3000001907,7784,WL,C,10.0
7,37.60199999809265,immed,22398.00000190735,Fri Mar 27 2026 14:11:24 GMT-0500 (Central Daylight Time),946139.4000000954,A,sho,O,o,288,1,8113.099999904633,938026.3000001907,7784,WL,C,10.0
7,37.9539999961853,immed,22046.000003814697,Fri Mar 27 2026 14:11:24 GMT-0500 (Central Daylight Time),946491.600000143,A,shor,O,r,334,1,8465.299999952316,938026.3000001907,7784,WL,C,10.0
7,38.20300006866455,immed,21796.99993133545,Fri Mar 27 2026 14:11:24 GMT-0500 (Central Daylight Time),946740.3000001907,A,shore,O,e,232,1,8714.0,938026.3000001907,7784,WL,C,10.0
7,38.45300006866455,immed,21546.99993133545,Fri Mar 27 2026 14:11:24 GMT-0500 (Central Daylight Time),946990.0,A,shoreenter,O,enter,224,1,8963.699999809265,938026.3000001907,7784,WL,C,10.0
7,46.049999952316284,immed,13950.000047683716,Fri Mar 27 2026 14:11:24 GMT-0500 (Central Daylight Time),954587.7000000477,A,b,O,b,7578,1,7597.5,946990.2000000477,7784,WL,C,11.0
7,46.33500003814697,immed,13664.999961853027,Fri Mar 27 2026 14:11:24 GMT-0500 (Central Daylight Time),954872.2000000477,A,bo,O,o,262,1,7882.0,946990.2000000477,7784,WL,C,11.0
7,46.698999881744385,immed,13301.000118255615,Fri Mar 27 2026 14:11:24 GMT-0500 (Central Daylight Time),955236.7000000477,A,boy,O,y,354,1,8246.5,946990.2000000477,7784,WL,C,11.0
7,47.83299994468689,immed,12167.00005531311,Fri Mar 27 2026 14:11:24 GMT-0500 (Central Daylight Time),956370.8000001907,A,boyenter,O,enter,1129,1,9380.600000143051,946990.2000000477,7784,WL,C,11.0
7,52.680999994277954,immed,7319.000005722046,Fri Mar 27 2026 14:11:24 GMT-0500 (Central Daylight Time),961218.9000000954,A,c,O,c,4832,1,4847.799999952316,956371.100000143,7784,WL,C,12.0
7,53.03200006484985,immed,6967.9999351501465,Fri Mar 27 2026 14:11:24 GMT-0500 (Central Daylight Time),961569.600000143,A,ca,O,a,344,1,5198.5,956371.100000143,7784,WL,C,12.0
7,53.48099994659424,immed,6519.000053405762,Fri Mar 27 2026 14:11:24 GMT-0500 (Central Daylight Time),962018.600000143,A,cam,O,m,440,1,5647.5,956371.100000143,7784,WL,C,12.0
7,53.84999990463257,immed,6150.000095367432,Fri Mar 27 2026 14:11:24 GMT-0500 (Central Daylight Time),962387.8000001907,A,camp,O,p,352,1,6016.700000047684,956371.100000143,7784,WL,C,12.0
7,54.331000089645386,immed,5668.999910354614,Fri Mar 27 2026 14:11:24 GMT-0500 (Central Daylight Time),962868.4000000954,A,campenter,O,enter,469,1,6497.299999952316,956371.100000143,7784,WL,C,12.0
7,56.89800000190735,immed,3101.9999980926514,Fri Mar 27 2026 14:11:24 GMT-0500 (Central Daylight Time),965435.5,A,c,O,c,2550,1,2566.7999999523163,962868.7000000477,7784,WL,C,13.0
7,57.23199987411499,immed,2768.0001258850098,Fri Mar 27 2026 14:11:24 GMT-0500 (Central Daylight Time),965769.100000143,A,co,O,o,328,1,2900.4000000953674,962868.7000000477,7784,WL,C,13.0
7,57.66499996185303,immed,2335.0000381469727,Fri Mar 27 2026 14:11:24 GMT-0500 (Central Daylight Time),966202.2000000477,A,cor,O,r,424,1,3333.5,962868.7000000477,7784,WL,C,13.0
7,58.12999987602234,immed,1870.0001239776611,Fri Mar 27 2026 14:11:24 GMT-0500 (Central Daylight Time),966667.600000143,A,corn,O,n,448,1,3798.9000000953674,962868.7000000477,7784,WL,C,13.0
7,58.513999938964844,immed,1486.0000610351562,Fri Mar 27 2026 14:11:24 GMT-0500 (Central Daylight Time),967051.0,A,cornenter,O,enter,375,1,4182.299999952316,962868.7000000477,7784,WL,C,13.0
7,60.013999938964844,immed,-13.99993896484375,Fri Mar 27 2026 14:11:24 GMT-0500 (Central Daylight Time),968551.8000001907,A,None,O,None,1496,1,1500.6000001430511,967051.2000000477,7784,WL,C,14.0
