block_c,block_dur,condition,countdown,datetime,endtime,list,multichar_response,project,response,response_time,session_number,start_end,starttime,subject_id,task,task_vers,trial
,,,,Wed Aug 14 2024 17:05:15 GMT-0500 (Central Daylight Time),,,,O,space,768,1,,,7013,WL,C,
prac,,0,,Wed Aug 14 2024 17:05:15 GMT-0500 (Central Daylight Time),,NA,b,O,b,10874,1,,,7013,WL,C,1.0
prac,,0,,Wed Aug 14 2024 17:05:15 GMT-0500 (Central Daylight Time),,NA,bo,O,o,1210,1,,,7013,WL,C,1.0
prac,,0,,Wed Aug 14 2024 17:05:15 GMT-0500 (Central Daylight Time),,NA,boo,O,o,116,1,,,7013,WL,C,1.0
prac,,0,,Wed Aug 14 2024 17:05:15 GMT-0500 (Central Daylight Time),,NA,boos,O,s,119,1,,,7013,WL,C,1.0
prac,,0,,Wed Aug 14 2024 17:05:15 GMT-0500 (Central Daylight Time),,NA,boost,O,t,122,1,,,7013,WL,C,1.0
prac,,0,,Wed Aug 14 2024 17:05:15 GMT-0500 (Central Daylight Time),,NA,boostenter,O,enter,2469,1,,,7013,WL,C,1.0
1,1.0329999923706055,learn,58967.000007629395,Wed Aug 14 2024 17:05:15 GMT-0500 (Central Daylight Time),135821.59999999404,A,t,O,t,1009,1,1031.0,134790.59999999404,7013,WL,C,1.0
1,1.133000135421753,learn,58866.99986457825,Wed Aug 14 2024 17:05:15 GMT-0500 (Central Daylight Time),135921.5,A,to,O,o,90,1,1130.9000000059605,134790.59999999404,7013,WL,C,1.0
1,1.2330000400543213,learn,58766.99995994568,Wed Aug 14 2024 17:05:15 GMT-0500 (Central Daylight Time),136021.59999999404,A,tow,O,w,86,1,1231.0,134790.59999999404,7013,WL,C,1.0
1,1.3330001831054688,learn,58666.99981689453,Wed Aug 14 2024 17:05:15 GMT-0500 (Central Daylight Time),136121.39999997616,A,towe,O,e,90,1,1330.7999999821186,134790.59999999404,7013,WL,C,1.0
1,1.4830000400543213,learn,58516.99995994568,Wed Aug 14 2024 17:05:15 GMT-0500 (Central Daylight Time),136271.39999997616,A,tower,O,r,134,1,1480.7999999821186,134790.59999999404,7013,WL,C,1.0
1,1.999000072479248,learn,58000.99992752075,Wed Aug 14 2024 17:05:15 GMT-0500 (Central Daylight Time),136787.69999998808,A,towerenter,O,enter,496,1,1997.0999999940395,134790.59999999404,7013,WL,C,1.0
1,2.56600022315979,learn,57433.99977684021,Wed Aug 14 2024 17:05:15 GMT-0500 (Central Daylight Time),137354.29999998212,A,w,O,w,556,1,566.0,136788.29999998212,7013,WL,C,2.0
1,2.6490001678466797,learn,57350.99983215332,Wed Aug 14 2024 17:05:15 GMT-0500 (Central Daylight Time),137437.29999998212,A,wh,O,h,77,1,649.0,136788.29999998212,7013,WL,C,2.0
1,2.699000120162964,learn,57300.999879837036,Wed Aug 14 2024 17:05:15 GMT-0500 (Central Daylight Time),137487.79999998212,A,whe,O,e,43,1,699.5,136788.29999998212,7013,WL,C,2.0
1,2.8990001678466797,learn,57100.99983215332,Wed Aug 14 2024 17:05:15 GMT-0500 (Central Daylight Time),137687.5,A,whea,O,a,192,1,899.2000000178814,136788.29999998212,7013,WL,C,2.0
1,2.999000072479248,learn,57000.99992752075,Wed Aug 14 2024 17:05:15 GMT-0500 (Central Daylight Time),137787.59999999404,A,wheat,O,t,78,1,999.3000000119209,136788.29999998212,7013,WL,C,2.0
1,3.5820000171661377,learn,56417.99998283386,Wed Aug 14 2024 17:05:15 GMT-0500 (Central Daylight Time),138370.29999998212,A,wheatenter,O,enter,572,1,1582.0,136788.29999998212,7013,WL,C,2.0
1,4.865000009536743,learn,55134.99999046326,Wed Aug 14 2024 17:05:15 GMT-0500 (Central Daylight Time),139653.39999997616,A,q,O,q,1278,1,1282.7999999821186,138370.59999999404,7013,WL,C,3.0
1,4.965000152587891,learn,55034.99984741211,Wed Aug 14 2024 17:05:15 GMT-0500 (Central Daylight Time),139753.59999999404,A,qu,O,u,83,1,1383.0,138370.59999999404,7013,WL,C,3.0
1,5.04800009727478,learn,54951.99990272522,Wed Aug 14 2024 17:05:15 GMT-0500 (Central Daylight Time),139836.89999997616,A,que,O,e,79,1,1466.2999999821186,138370.59999999404,7013,WL,C,3.0
1,5.198000192642212,learn,54801.99980735779,Wed Aug 14 2024 17:05:15 GMT-0500 (Central Daylight Time),139987.09999999404,A,quee,O,e,139,1,1616.5,138370.59999999404,7013,WL,C,3.0
1,5.382000207901001,learn,54617.999792099,Wed Aug 14 2024 17:05:15 GMT-0500 (Central Daylight Time),140170.09999999404,A,queen,O,n,165,1,1799.5,138370.59999999404,7013,WL,C,3.0
1,5.748000144958496,learn,54251.999855041504,Wed Aug 14 2024 17:05:15 GMT-0500 (Central Daylight Time),140536.59999999404,A,queenenter,O,enter,357,1,2166.0,138370.59999999404,7013,WL,C,3.0
1,6.264000177383423,learn,53735.99982261658,Wed Aug 14 2024 17:05:15 GMT-0500 (Central Daylight Time),141052.89999997616,A,b,O,b,503,1,515.8999999761581,140537.0,7013,WL,C,4.0
1,6.365000009536743,learn,53634.99999046326,Wed Aug 14 2024 17:05:15 GMT-0500 (Central Daylight Time),141153.09999999404,A,bo,O,o,83,1,616.0999999940395,140537.0,7013,WL,C,4.0
1,6.514000177383423,learn,53485.99982261658,Wed Aug 14 2024 17:05:15 GMT-0500 (Central Daylight Time),141303.0,A,boy,O,y,135,1,766.0,140537.0,7013,WL,C,4.0
1,6.864000082015991,learn,53135.99991798401,Wed Aug 14 2024 17:05:15 GMT-0500 (Central Daylight Time),141652.89999997616,A,boyenter,O,enter,344,1,1115.8999999761581,140537.0,7013,WL,C,4.0
1,7.114000082015991,learn,52885.99991798401,Wed Aug 14 2024 17:05:15 GMT-0500 (Central Daylight Time),141903.0,A,s,O,s,243,1,249.80000001192093,141653.19999998808,7013,WL,C,5.0
1,7.331000089645386,learn,52668.999910354614,Wed Aug 14 2024 17:05:15 GMT-0500 (Central Daylight Time),142119.59999999404,A,sw,O,w,209,1,466.40000000596046,141653.19999998808,7013,WL,C,5.0
1,7.46399998664856,learn,52536.00001335144,Wed Aug 14 2024 17:05:15 GMT-0500 (Central Daylight Time),142252.59999999404,A,swe,O,e,120,1,599.4000000059605,141653.19999998808,7013,WL,C,5.0
1,7.63100004196167,learn,52368.99995803833,Wed Aug 14 2024 17:05:15 GMT-0500 (Central Daylight Time),142419.59999999404,A,swee,O,e,155,1,766.4000000059605,141653.19999998808,7013,WL,C,5.0
1,7.797000169754028,learn,52202.99983024597,Wed Aug 14 2024 17:05:15 GMT-0500 (Central Daylight Time),142586.09999999404,A,sweet,O,t,147,1,932.9000000059605,141653.19999998808,7013,WL,C,5.0
1,7.947000026702881,learn,52052.99997329712,Wed Aug 14 2024 17:05:15 GMT-0500 (Central Daylight Time),142735.89999997616,A,sweetenter,O,enter,134,1,1082.699999988079,141653.19999998808,7013,WL,C,5.0
1,8.430999994277954,learn,51569.000005722046,Wed Aug 14 2024 17:05:15 GMT-0500 (Central Daylight Time),143219.19999998808,A,c,O,c,464,1,482.90000000596046,142736.29999998212,7013,WL,C,6.0
1,8.514000177383423,learn,51485.99982261658,Wed Aug 14 2024 17:05:15 GMT-0500 (Central Daylight Time),143302.5,A,co,O,o,77,1,566.2000000178814,142736.29999998212,7013,WL,C,6.0
1,8.680000066757202,learn,51319.9999332428,Wed Aug 14 2024 17:05:15 GMT-0500 (Central Daylight Time),143469.0,A,cor,O,r,154,1,732.7000000178814,142736.29999998212,7013,WL,C,6.0
1,8.797000169754028,learn,51202.99983024597,Wed Aug 14 2024 17:05:15 GMT-0500 (Central Daylight Time),143585.59999999404,A,corn,O,n,107,1,849.3000000119209,142736.29999998212,7013,WL,C,6.0
1,9.630000114440918,learn,50369.99988555908,Wed Aug 14 2024 17:05:15 GMT-0500 (Central Daylight Time),144418.39999997616,A,cornenter,O,enter,814,1,1682.0999999940395,142736.29999998212,7013,WL,C,6.0
1,10.047000169754028,learn,49952.99983024597,Wed Aug 14 2024 17:05:15 GMT-0500 (Central Daylight Time),144835.29999998212,A,w,O,w,397,1,416.59999999403954,144418.69999998808,7013,WL,C,7.0
1,10.130000114440918,learn,49869.99988555908,Wed Aug 14 2024 17:05:15 GMT-0500 (Central Daylight Time),144918.59999999404,A,wh,O,h,76,1,499.90000000596046,144418.69999998808,7013,WL,C,7.0
1,10.213000059127808,learn,49786.99994087219,Wed Aug 14 2024 17:05:15 GMT-0500 (Central Daylight Time),145001.79999998212,A,whe,O,e,65,1,583.0999999940395,144418.69999998808,7013,WL,C,7.0
1,10.330000162124634,learn,49669.999837875366,Wed Aug 14 2024 17:05:15 GMT-0500 (Central Daylight Time),145118.5,A,whea,O,a,102,1,699.8000000119209,144418.69999998808,7013,WL,C,7.0
1,10.446000099182129,learn,49553.99990081787,Wed Aug 14 2024 17:05:15 GMT-0500 (Central Daylight Time),145235.09999999404,A,wheat,O,t,106,1,816.4000000059605,144418.69999998808,7013,WL,C,7.0
1,10.84600019454956,learn,49153.99980545044,Wed Aug 14 2024 17:05:15 GMT-0500 (Central Daylight Time),145635.09999999404,A,wheatenter,O,enter,381,1,1216.4000000059605,144418.69999998808,7013,WL,C,7.0
1,18.74400019645691,learn,41255.99980354309,Wed Aug 14 2024 17:05:15 GMT-0500 (Central Daylight Time),153532.59999999404,A,f,O,f,7885,1,7897.200000017881,145635.39999997616,7013,WL,C,8.0
1,18.860000133514404,learn,41139.999866485596,Wed Aug 14 2024 17:05:15 GMT-0500 (Central Daylight Time),153649.09999999404,A,fi,O,i,99,1,8013.700000017881,145635.39999997616,7013,WL,C,8.0
1,18.99400019645691,learn,41005.99980354309,Wed Aug 14 2024 17:05:15 GMT-0500 (Central Daylight Time),153782.59999999404,A,fie,O,e,127,1,8147.200000017881,145635.39999997616,7013,WL,C,8.0
1,19.094000101089478,learn,40905.99989891052,Wed Aug 14 2024 17:05:15 GMT-0500 (Central Daylight Time),153882.5,A,fiel,O,l,81,1,8247.100000023842,145635.39999997616,7013,WL,C,8.0
1,19.211000204086304,learn,40788.999795913696,Wed Aug 14 2024 17:05:15 GMT-0500 (Central Daylight Time),153999.09999999404,A,field,O,d,110,1,8363.700000017881,145635.39999997616,7013,WL,C,8.0
1,19.344000101089478,learn,40655.99989891052,Wed Aug 14 2024 17:05:15 GMT-0500 (Central Daylight Time),154132.69999998808,A,fieldenter,O,enter,120,1,8497.300000011921,145635.39999997616,7013,WL,C,8.0
1,25.242000102996826,learn,34757.999897003174,Wed Aug 14 2024 17:05:15 GMT-0500 (Central Daylight Time),160030.79999998212,A,c,O,c,5883,1,5897.4000000059605,154133.39999997616,7013,WL,C,9.0
1,25.392000198364258,learn,34607.99980163574,Wed Aug 14 2024 17:05:15 GMT-0500 (Central Daylight Time),160180.79999998212,A,ca,O,a,137,1,6047.4000000059605,154133.39999997616,7013,WL,C,9.0
1,26.391000032424927,learn,33608.99996757507,Wed Aug 14 2024 17:05:15 GMT-0500 (Central Daylight Time),161180.09999999404,A,cam,O,m,988,1,7046.700000017881,154133.39999997616,7013,WL,C,9.0
1,26.54200005531311,learn,33457.99994468689,Wed Aug 14 2024 17:05:15 GMT-0500 (Central Daylight Time),161330.09999999404,A,camp,O,p,132,1,7196.700000017881,154133.39999997616,7013,WL,C,9.0
1,26.925000190734863,learn,33074.99980926514,Wed Aug 14 2024 17:05:15 GMT-0500 (Central Daylight Time),161713.19999998808,A,campenter,O,enter,366,1,7579.800000011921,154133.39999997616,7013,WL,C,9.0
1,30.19000005722046,learn,29809.99994277954,Wed Aug 14 2024 17:05:15 GMT-0500 (Central Daylight Time),164978.79999998212,A,s,O,s,3247,1,3265.199999988079,161713.59999999404,7013,WL,C,10.0
1,30.290000200271606,learn,29709.999799728394,Wed Aug 14 2024 17:05:15 GMT-0500 (Central Daylight Time),165078.89999997616,A,sh,O,h,84,1,3365.2999999821186,161713.59999999404,7013,WL,C,10.0
1,30.390000104904175,learn,29609.999895095825,Wed Aug 14 2024 17:05:15 GMT-0500 (Central Daylight Time),165178.79999998212,A,sho,O,o,89,1,3465.199999988079,161713.59999999404,7013,WL,C,10.0
1,30.557000160217285,learn,29442.999839782715,Wed Aug 14 2024 17:05:15 GMT-0500 (Central Daylight Time),165345.59999999404,A,shor,O,r,157,1,3632.0,161713.59999999404,7013,WL,C,10.0
1,30.640000104904175,learn,29359.999895095825,Wed Aug 14 2024 17:05:15 GMT-0500 (Central Daylight Time),165428.79999998212,A,shore,O,e,79,1,3715.199999988079,161713.59999999404,7013,WL,C,10.0
1,30.84000015258789,learn,29159.99984741211,Wed Aug 14 2024 17:05:15 GMT-0500 (Central Daylight Time),165628.89999997616,A,shoreenter,O,enter,179,1,3915.2999999821186,161713.59999999404,7013,WL,C,10.0
1,42.836000204086304,learn,17163.999795913696,Wed Aug 14 2024 17:05:15 GMT-0500 (Central Daylight Time),177624.89999997616,A,s,O,s,11979,1,11995.699999988079,165629.19999998808,7013,WL,C,11.0
1,43.03600001335144,learn,16963.99998664856,Wed Aug 14 2024 17:05:15 GMT-0500 (Central Daylight Time),177824.89999997616,A,sw,O,w,182,1,12195.699999988079,165629.19999998808,7013,WL,C,11.0
1,43.152000188827515,learn,16847.999811172485,Wed Aug 14 2024 17:05:15 GMT-0500 (Central Daylight Time),177941.29999998212,A,swe,O,e,112,1,12312.09999999404,165629.19999998808,7013,WL,C,11.0
1,43.319000005722046,learn,16680.999994277954,Wed Aug 14 2024 17:05:15 GMT-0500 (Central Daylight Time),178108.09999999404,A,swee,O,e,147,1,12478.90000000596,165629.19999998808,7013,WL,C,11.0
1,43.486000061035156,learn,16513.999938964844,Wed Aug 14 2024 17:05:15 GMT-0500 (Central Daylight Time),178274.89999997616,A,sweet,O,t,156,1,12645.699999988079,165629.19999998808,7013,WL,C,11.0
1,43.88600015640259,learn,16113.999843597412,Wed Aug 14 2024 17:05:15 GMT-0500 (Central Daylight Time),178674.69999998808,A,sweetenter,O,enter,390,1,13045.5,165629.19999998808,7013,WL,C,11.0
1,58.581000089645386,learn,1418.9999103546143,Wed Aug 14 2024 17:05:15 GMT-0500 (Central Daylight Time),193370.0,A,b,O,b,14678,1,14695.0,178675.0,7013,WL,C,12.0
1,58.94800019264221,learn,1051.999807357788,Wed Aug 14 2024 17:05:15 GMT-0500 (Central Daylight Time),193736.59999999404,A,be,O,e,350,1,15061.59999999404,178675.0,7013,WL,C,12.0
1,59.081000089645386,learn,918.9999103546143,Wed Aug 14 2024 17:05:15 GMT-0500 (Central Daylight Time),193869.89999997616,A,bea,O,a,120,1,15194.899999976158,178675.0,7013,WL,C,12.0
1,59.29700016975403,learn,702.9998302459717,Wed Aug 14 2024 17:05:15 GMT-0500 (Central Daylight Time),194086.5,A,beac,O,c,211,1,15411.5,178675.0,7013,WL,C,12.0
1,59.414000034332275,learn,585.9999656677246,Wed Aug 14 2024 17:05:15 GMT-0500 (Central Daylight Time),194203.0,A,beach,O,h,98,1,15528.0,178675.0,7013,WL,C,12.0
1,59.664000034332275,learn,335.9999656677246,Wed Aug 14 2024 17:05:15 GMT-0500 (Central Daylight Time),194452.89999997616,A,beachenter,O,enter,244,1,15777.899999976158,178675.0,7013,WL,C,12.0
1,60.01400017738342,learn,-14.000177383422852,Wed Aug 14 2024 17:05:15 GMT-0500 (Central Daylight Time),194803.29999998212,A,None,O,None,345,1,350.09999999403954,194453.19999998808,7013,WL,C,13.0
2,0.8670001029968262,learn,59132.999897003174,Wed Aug 14 2024 17:05:15 GMT-0500 (Central Daylight Time),265464.0,A,b,O,b,859,1,866.2000000178814,264597.7999999821,7013,WL,C,1.0
2,1.0499999523162842,learn,58950.000047683716,Wed Aug 14 2024 17:05:15 GMT-0500 (Central Daylight Time),265647.2999999821,A,bo,O,o,168,1,1049.5,264597.7999999821,7013,WL,C,1.0
2,1.2000000476837158,learn,58799.999952316284,Wed Aug 14 2024 17:05:15 GMT-0500 (Central Daylight Time),265797.09999999404,A,boy,O,y,145,1,1199.300000011921,264597.7999999821,7013,WL,C,1.0
2,1.5,learn,58500.0,Wed Aug 14 2024 17:05:15 GMT-0500 (Central Daylight Time),266097.09999999404,A,boyenter,O,enter,291,1,1499.300000011921,264597.7999999821,7013,WL,C,1.0
2,1.7999999523162842,learn,58200.000047683716,Wed Aug 14 2024 17:05:15 GMT-0500 (Central Daylight Time),266397.0,A,b,O,b,295,1,299.5,266097.5,7013,WL,C,2.0
2,1.9160001277923584,learn,58083.99987220764,Wed Aug 14 2024 17:05:15 GMT-0500 (Central Daylight Time),266513.5,A,bo,O,o,108,1,416.0,266097.5,7013,WL,C,2.0
2,2.0999999046325684,learn,57900.00009536743,Wed Aug 14 2024 17:05:15 GMT-0500 (Central Daylight Time),266697.1999999881,A,bod,O,d,175,1,599.6999999880791,266097.5,7013,WL,C,2.0
2,2.25,learn,57750.0,Wed Aug 14 2024 17:05:15 GMT-0500 (Central Daylight Time),266846.89999997616,A,body,O,y,135,1,749.3999999761581,266097.5,7013,WL,C,2.0
2,2.5,learn,57500.0,Wed Aug 14 2024 17:05:15 GMT-0500 (Central Daylight Time),267097.0,A,bodyenter,O,enter,232,1,999.5,266097.5,7013,WL,C,2.0
2,2.7829999923706055,learn,57217.000007629395,Wed Aug 14 2024 17:05:15 GMT-0500 (Central Daylight Time),267380.1999999881,A,t,O,t,271,1,282.80000001192093,267097.39999997616,7013,WL,C,3.0
2,2.9000000953674316,learn,57099.99990463257,Wed Aug 14 2024 17:05:15 GMT-0500 (Central Daylight Time),267496.7999999821,A,to,O,o,100,1,399.40000000596046,267097.39999997616,7013,WL,C,3.0
2,2.9830000400543213,learn,57016.99995994568,Wed Aug 14 2024 17:05:15 GMT-0500 (Central Daylight Time),267580.0,A,tow,O,w,71,1,482.60000002384186,267097.39999997616,7013,WL,C,3.0
2,3.065999984741211,learn,56934.00001525879,Wed Aug 14 2024 17:05:15 GMT-0500 (Central Daylight Time),267663.39999997616,A,towe,O,e,76,1,566.0,267097.39999997616,7013,WL,C,3.0
2,3.199000120162964,learn,56800.999879837036,Wed Aug 14 2024 17:05:15 GMT-0500 (Central Daylight Time),267796.6999999881,A,tower,O,r,121,1,699.3000000119209,267097.39999997616,7013,WL,C,3.0
2,3.4160001277923584,learn,56583.99987220764,Wed Aug 14 2024 17:05:15 GMT-0500 (Central Daylight Time),268013.39999997616,A,towerenter,O,enter,204,1,916.0,267097.39999997616,7013,WL,C,3.0
2,3.6489999294281006,learn,56351.0000705719,Wed Aug 14 2024 17:05:15 GMT-0500 (Central Daylight Time),268246.59999999404,A,w,O,w,219,1,233.0,268013.59999999404,7013,WL,C,4.0
2,3.7330000400543213,learn,56266.99995994568,Wed Aug 14 2024 17:05:15 GMT-0500 (Central Daylight Time),268329.7999999821,A,we,O,e,74,1,316.19999998807907,268013.59999999404,7013,WL,C,4.0
2,4.7820000648498535,learn,55217.99993515015,Wed Aug 14 2024 17:05:15 GMT-0500 (Central Daylight Time),269379.59999999404,A,w,O,backspace,1031,1,1366.0,268013.59999999404,7013,WL,C,4.0
2,5.082000017166138,learn,54917.99998283386,Wed Aug 14 2024 17:05:15 GMT-0500 (Central Daylight Time),269679.5,A,wh,O,h,293,1,1665.9000000059605,268013.59999999404,7013,WL,C,4.0
2,5.199000120162964,learn,54800.999879837036,Wed Aug 14 2024 17:05:15 GMT-0500 (Central Daylight Time),269796.0,A,whe,O,e,104,1,1782.4000000059605,268013.59999999404,7013,WL,C,4.0
2,5.2820000648498535,learn,54717.99993515015,Wed Aug 14 2024 17:05:15 GMT-0500 (Central Daylight Time),269879.59999999404,A,whea,O,a,68,1,1866.0,268013.59999999404,7013,WL,C,4.0
2,5.431999921798706,learn,54568.000078201294,Wed Aug 14 2024 17:05:15 GMT-0500 (Central Daylight Time),270029.39999997616,A,wheat,O,t,137,1,2015.7999999821186,268013.59999999404,7013,WL,C,4.0
2,5.615999937057495,learn,54384.000062942505,Wed Aug 14 2024 17:05:15 GMT-0500 (Central Daylight Time),270212.7999999821,A,wheatenter,O,enter,163,1,2199.199999988079,268013.59999999404,7013,WL,C,4.0
2,5.947999954223633,learn,54052.00004577637,Wed Aug 14 2024 17:05:15 GMT-0500 (Central Daylight Time),270545.6999999881,A,q,O,q,316,1,332.5,270213.1999999881,7013,WL,C,5.0
2,6.04800009727478,learn,53951.99990272522,Wed Aug 14 2024 17:05:15 GMT-0500 (Central Daylight Time),270645.5,A,qu,O,u,87,1,432.30000001192093,270213.1999999881,7013,WL,C,5.0
2,6.164999961853027,learn,53835.00003814697,Wed Aug 14 2024 17:05:15 GMT-0500 (Central Daylight Time),270762.39999997616,A,que,O,e,99,1,549.1999999880791,270213.1999999881,7013,WL,C,5.0
2,6.315000057220459,learn,53684.99994277954,Wed Aug 14 2024 17:05:15 GMT-0500 (Central Daylight Time),270912.5,A,quee,O,e,133,1,699.3000000119209,270213.1999999881,7013,WL,C,5.0
2,6.4649999141693115,learn,53535.00008583069,Wed Aug 14 2024 17:05:15 GMT-0500 (Central Daylight Time),271062.39999997616,A,queen,O,n,142,1,849.1999999880791,270213.1999999881,7013,WL,C,5.0
2,7.230999946594238,learn,52769.00005340576,Wed Aug 14 2024 17:05:15 GMT-0500 (Central Daylight Time),271828.59999999404,A,queenenter,O,enter,754,1,1615.4000000059605,270213.1999999881,7013,WL,C,5.0
2,7.615000009536743,learn,52384.99999046326,Wed Aug 14 2024 17:05:15 GMT-0500 (Central Daylight Time),272211.89999997616,A,d,O,d,372,1,382.89999997615814,271829.0,7013,WL,C,6.0
2,7.730999946594238,learn,52269.00005340576,Wed Aug 14 2024 17:05:15 GMT-0500 (Central Daylight Time),272328.59999999404,A,do,O,o,109,1,499.59999999403954,271829.0,7013,WL,C,6.0
2,7.8480000495910645,learn,52151.999950408936,Wed Aug 14 2024 17:05:15 GMT-0500 (Central Daylight Time),272445.2999999821,A,doc,O,c,104,1,616.2999999821186,271829.0,7013,WL,C,6.0
2,8.065000057220459,learn,51934.99994277954,Wed Aug 14 2024 17:05:15 GMT-0500 (Central Daylight Time),272662.09999999404,A,doct,O,t,203,1,833.0999999940395,271829.0,7013,WL,C,6.0
2,8.180999994277954,learn,51819.000005722046,Wed Aug 14 2024 17:05:15 GMT-0500 (Central Daylight Time),272778.59999999404,A,docto,O,o,99,1,949.5999999940395,271829.0,7013,WL,C,6.0
2,8.263999938964844,learn,51736.000061035156,Wed Aug 14 2024 17:05:15 GMT-0500 (Central Daylight Time),272861.5,A,doctor,O,r,78,1,1032.5,271829.0,7013,WL,C,6.0
2,8.992000102996826,learn,51007.999897003174,Wed Aug 14 2024 17:05:15 GMT-0500 (Central Daylight Time),273589.6999999881,A,doctorenter,O,enter,723,1,1760.699999988079,271829.0,7013,WL,C,6.0
2,9.21399998664856,learn,50786.00001335144,Wed Aug 14 2024 17:05:15 GMT-0500 (Central Daylight Time),273811.6999999881,A,s,O,s,202,1,221.59999999403954,273590.09999999404,7013,WL,C,7.0
2,9.331000089645386,learn,50668.999910354614,Wed Aug 14 2024 17:05:15 GMT-0500 (Central Daylight Time),273928.2999999821,A,sh,O,h,109,1,338.19999998807907,273590.09999999404,7013,WL,C,7.0
2,9.414000034332275,learn,50585.999965667725,Wed Aug 14 2024 17:05:15 GMT-0500 (Central Daylight Time),274011.39999997616,A,sho,O,o,72,1,421.2999999821186,273590.09999999404,7013,WL,C,7.0
2,9.530999898910522,learn,50469.00010108948,Wed Aug 14 2024 17:05:15 GMT-0500 (Central Daylight Time),274127.89999997616,A,shor,O,r,108,1,537.7999999821186,273590.09999999404,7013,WL,C,7.0
2,9.664000034332275,learn,50335.999965667725,Wed Aug 14 2024 17:05:15 GMT-0500 (Central Daylight Time),274261.39999997616,A,shore,O,e,121,1,671.2999999821186,273590.09999999404,7013,WL,C,7.0
2,10.414000034332275,learn,49585.999965667725,Wed Aug 14 2024 17:05:15 GMT-0500 (Central Daylight Time),275011.0,A,shoreenter,O,enter,731,1,1420.9000000059605,273590.09999999404,7013,WL,C,7.0
2,10.77999997138977,learn,49220.00002861023,Wed Aug 14 2024 17:05:15 GMT-0500 (Central Daylight Time),275377.6999999881,A,s,O,s,349,1,366.30000001192093,275011.39999997616,7013,WL,C,8.0
2,10.94700002670288,learn,49052.99997329712,Wed Aug 14 2024 17:05:15 GMT-0500 (Central Daylight Time),275544.1999999881,A,sw,O,w,158,1,532.8000000119209,275011.39999997616,7013,WL,C,8.0
2,11.04699993133545,learn,48953.00006866455,Wed Aug 14 2024 17:05:15 GMT-0500 (Central Daylight Time),275644.1999999881,A,swe,O,e,88,1,632.8000000119209,275011.39999997616,7013,WL,C,8.0
2,11.21399998664856,learn,48786.00001335144,Wed Aug 14 2024 17:05:15 GMT-0500 (Central Daylight Time),275810.89999997616,A,swee,O,e,156,1,799.5,275011.39999997616,7013,WL,C,8.0
2,11.397000074386597,learn,48602.9999256134,Wed Aug 14 2024 17:05:15 GMT-0500 (Central Daylight Time),275994.5,A,sweet,O,t,165,1,983.1000000238419,275011.39999997616,7013,WL,C,8.0
2,11.496999979019165,learn,48503.000020980835,Wed Aug 14 2024 17:05:15 GMT-0500 (Central Daylight Time),276094.0,A,sweetenter,O,enter,94,1,1082.6000000238419,275011.39999997616,7013,WL,C,8.0
2,11.847000122070312,learn,48152.99987792969,Wed Aug 14 2024 17:05:15 GMT-0500 (Central Daylight Time),276443.89999997616,A,c,O,c,338,1,349.5,276094.39999997616,7013,WL,C,9.0
2,11.94700002670288,learn,48052.99997329712,Wed Aug 14 2024 17:05:15 GMT-0500 (Central Daylight Time),276543.89999997616,A,co,O,o,84,1,449.5,276094.39999997616,7013,WL,C,9.0
2,12.079999923706055,learn,47920.000076293945,Wed Aug 14 2024 17:05:15 GMT-0500 (Central Daylight Time),276677.1999999881,A,cor,O,r,129,1,582.8000000119209,276094.39999997616,7013,WL,C,9.0
2,12.19700002670288,learn,47802.99997329712,Wed Aug 14 2024 17:05:15 GMT-0500 (Central Daylight Time),276794.0,A,corn,O,n,108,1,699.6000000238419,276094.39999997616,7013,WL,C,9.0
2,13.27999997138977,learn,46720.00002861023,Wed Aug 14 2024 17:05:15 GMT-0500 (Central Daylight Time),277876.89999997616,A,cornenter,O,enter,1071,1,1782.5,276094.39999997616,7013,WL,C,9.0
2,14.696000099182129,learn,45303.99990081787,Wed Aug 14 2024 17:05:15 GMT-0500 (Central Daylight Time),279293.1999999881,A,f,O,f,1404,1,1416.0,277877.1999999881,7013,WL,C,10.0
2,14.796000003814697,learn,45203.9999961853,Wed Aug 14 2024 17:05:15 GMT-0500 (Central Daylight Time),279393.09999999404,A,fi,O,i,91,1,1515.9000000059605,277877.1999999881,7013,WL,C,10.0
2,14.895999908447266,learn,45104.000091552734,Wed Aug 14 2024 17:05:15 GMT-0500 (Central Daylight Time),279492.89999997616,A,fie,O,e,95,1,1615.699999988079,277877.1999999881,7013,WL,C,10.0
2,15.01200008392334,learn,44987.99991607666,Wed Aug 14 2024 17:05:15 GMT-0500 (Central Daylight Time),279609.59999999404,A,fiel,O,l,108,1,1732.4000000059605,277877.1999999881,7013,WL,C,10.0
2,15.111999988555908,learn,44888.00001144409,Wed Aug 14 2024 17:05:15 GMT-0500 (Central Daylight Time),279709.5,A,field,O,d,94,1,1832.300000011921,277877.1999999881,7013,WL,C,10.0
2,15.395999908447266,learn,44604.000091552734,Wed Aug 14 2024 17:05:15 GMT-0500 (Central Daylight Time),279992.6999999881,A,fieldenter,O,enter,274,1,2115.5,277877.1999999881,7013,WL,C,10.0
2,19.710999965667725,learn,40289.000034332275,Wed Aug 14 2024 17:05:15 GMT-0500 (Central Daylight Time),284308.1999999881,A,c,O,c,4304,1,4315.0999999940395,279993.09999999404,7013,WL,C,11.0
2,19.960999965667725,learn,40039.000034332275,Wed Aug 14 2024 17:05:15 GMT-0500 (Central Daylight Time),284558.0,A,ca,O,a,236,1,4564.9000000059605,279993.09999999404,7013,WL,C,11.0
2,20.094000101089478,learn,39905.99989891052,Wed Aug 14 2024 17:05:15 GMT-0500 (Central Daylight Time),284691.39999997616,A,cam,O,m,115,1,4698.299999982119,279993.09999999404,7013,WL,C,11.0
2,20.278000116348267,learn,39721.99988365173,Wed Aug 14 2024 17:05:15 GMT-0500 (Central Daylight Time),284874.7999999821,A,camp,O,p,173,1,4881.699999988079,279993.09999999404,7013,WL,C,11.0
2,20.82699990272522,learn,39173.00009727478,Wed Aug 14 2024 17:05:15 GMT-0500 (Central Daylight Time),285424.59999999404,A,campenter,O,enter,534,1,5431.5,279993.09999999404,7013,WL,C,11.0
2,24.842999935150146,learn,35157.00006484985,Wed Aug 14 2024 17:05:15 GMT-0500 (Central Daylight Time),289439.89999997616,A,l,O,l,4000,1,4015.0999999940395,285424.7999999821,7013,WL,C,12.0
2,24.95900011062622,learn,35040.99988937378,Wed Aug 14 2024 17:05:15 GMT-0500 (Central Daylight Time),289556.59999999404,A,le,O,e,105,1,4131.800000011921,285424.7999999821,7013,WL,C,12.0
2,25.14300012588501,learn,34856.99987411499,Wed Aug 14 2024 17:05:15 GMT-0500 (Central Daylight Time),289739.7999999821,A,let,O,t,163,1,4315.0,285424.7999999821,7013,WL,C,12.0
2,25.276000022888184,learn,34723.99997711182,Wed Aug 14 2024 17:05:15 GMT-0500 (Central Daylight Time),289873.0,A,lett,O,t,117,1,4448.200000017881,285424.7999999821,7013,WL,C,12.0
2,25.39199995994568,learn,34608.00004005432,Wed Aug 14 2024 17:05:15 GMT-0500 (Central Daylight Time),289989.59999999404,A,lette,O,e,103,1,4564.800000011921,285424.7999999821,7013,WL,C,12.0
2,25.526000022888184,learn,34473.99997711182,Wed Aug 14 2024 17:05:15 GMT-0500 (Central Daylight Time),290123.0,A,letter,O,r,115,1,4698.200000017881,285424.7999999821,7013,WL,C,12.0
2,25.776000022888184,learn,34223.99997711182,Wed Aug 14 2024 17:05:15 GMT-0500 (Central Daylight Time),290373.0,A,letterenter,O,enter,229,1,4948.200000017881,285424.7999999821,7013,WL,C,12.0
2,26.674999952316284,learn,33325.000047683716,Wed Aug 14 2024 17:05:15 GMT-0500 (Central Daylight Time),291272.6999999881,A,n,O,n,883,1,899.3000000119209,290373.39999997616,7013,WL,C,13.0
2,26.808000087738037,learn,33191.99991226196,Wed Aug 14 2024 17:05:15 GMT-0500 (Central Daylight Time),291405.6999999881,A,na,O,a,128,1,1032.300000011921,290373.39999997616,7013,WL,C,13.0
2,26.924999952316284,learn,33075.000047683716,Wed Aug 14 2024 17:05:15 GMT-0500 (Central Daylight Time),291522.5,A,nai,O,i,99,1,1149.1000000238419,290373.39999997616,7013,WL,C,13.0
2,26.992000102996826,learn,33007.999897003174,Wed Aug 14 2024 17:05:15 GMT-0500 (Central Daylight Time),291589.0,A,nail,O,l,62,1,1215.6000000238419,290373.39999997616,7013,WL,C,13.0
2,28.008000135421753,learn,31991.999864578247,Wed Aug 14 2024 17:05:15 GMT-0500 (Central Daylight Time),292605.6999999881,A,nailenter,O,enter,1004,1,2232.300000011921,290373.39999997616,7013,WL,C,13.0
2,37.28800010681152,learn,22711.999893188477,Wed Aug 14 2024 17:05:15 GMT-0500 (Central Daylight Time),301885.7999999821,A,q,O,q,9275,1,9279.699999988079,292606.09999999404,7013,WL,C,14.0
2,37.40499997138977,learn,22595.00002861023,Wed Aug 14 2024 17:05:15 GMT-0500 (Central Daylight Time),302002.39999997616,A,qu,O,u,107,1,9396.299999982119,292606.09999999404,7013,WL,C,14.0
2,37.621999979019165,learn,22378.000020980835,Wed Aug 14 2024 17:05:15 GMT-0500 (Central Daylight Time),302219.1999999881,A,que,O,e,206,1,9613.09999999404,292606.09999999404,7013,WL,C,14.0
2,37.7720000743866,learn,22227.999925613403,Wed Aug 14 2024 17:05:15 GMT-0500 (Central Daylight Time),302369.1999999881,A,quee,O,e,142,1,9763.09999999404,292606.09999999404,7013,WL,C,14.0
2,37.88800001144409,learn,22111.99998855591,Wed Aug 14 2024 17:05:15 GMT-0500 (Central Daylight Time),302485.7999999821,A,queen,O,n,103,1,9879.699999988079,292606.09999999404,7013,WL,C,14.0
2,38.22200012207031,learn,21777.999877929688,Wed Aug 14 2024 17:05:15 GMT-0500 (Central Daylight Time),302819.1999999881,A,queenenter,O,enter,323,1,10213.09999999404,292606.09999999404,7013,WL,C,14.0
2,60.015000104904175,learn,-15.000104904174805,Wed Aug 14 2024 17:05:15 GMT-0500 (Central Daylight Time),324612.2999999821,A,None,O,None,21788,1,21792.79999998212,302819.5,7013,WL,C,15.0
3,0.5340001583099365,learn,59465.99984169006,Wed Aug 14 2024 17:05:15 GMT-0500 (Central Daylight Time),406836.39999997616,A,t,O,t,513,1,533.1999999880791,406303.1999999881,7013,WL,C,1.0
3,0.6670000553131104,learn,59332.99994468689,Wed Aug 14 2024 17:05:15 GMT-0500 (Central Daylight Time),406969.7999999821,A,to,O,o,124,1,666.5999999940395,406303.1999999881,7013,WL,C,1.0
3,0.75,learn,59250.0,Wed Aug 14 2024 17:05:15 GMT-0500 (Central Daylight Time),407053.0,A,tow,O,w,71,1,749.8000000119209,406303.1999999881,7013,WL,C,1.0
3,0.8500001430511475,learn,59149.99985694885,Wed Aug 14 2024 17:05:15 GMT-0500 (Central Daylight Time),407153.0,A,towe,O,e,92,1,849.8000000119209,406303.1999999881,7013,WL,C,1.0
3,0.9500000476837158,learn,59049.999952316284,Wed Aug 14 2024 17:05:15 GMT-0500 (Central Daylight Time),407253.09999999404,A,tower,O,r,96,1,949.9000000059605,406303.1999999881,7013,WL,C,1.0
3,1.25,learn,58750.0,Wed Aug 14 2024 17:05:15 GMT-0500 (Central Daylight Time),407552.7999999821,A,towerenter,O,enter,284,1,1249.5999999940395,406303.1999999881,7013,WL,C,1.0
3,1.5329999923706055,learn,58467.000007629395,Wed Aug 14 2024 17:05:15 GMT-0500 (Central Daylight Time),407835.89999997616,A,w,O,w,263,1,282.7999999821186,407553.09999999404,7013,WL,C,2.0
3,1.633000135421753,learn,58366.99986457825,Wed Aug 14 2024 17:05:15 GMT-0500 (Central Daylight Time),407936.09999999404,A,wh,O,h,93,1,383.0,407553.09999999404,7013,WL,C,2.0
3,1.6660001277923584,learn,58333.99987220764,Wed Aug 14 2024 17:05:15 GMT-0500 (Central Daylight Time),407969.1999999881,A,whe,O,e,25,1,416.09999999403954,407553.09999999404,7013,WL,C,2.0
3,1.8000001907348633,learn,58199.99980926514,Wed Aug 14 2024 17:05:15 GMT-0500 (Central Daylight Time),408102.89999997616,A,whea,O,a,120,1,549.7999999821186,407553.09999999404,7013,WL,C,2.0
3,1.9160001277923584,learn,58083.99987220764,Wed Aug 14 2024 17:05:15 GMT-0500 (Central Daylight Time),408219.09999999404,A,wheat,O,t,98,1,666.0,407553.09999999404,7013,WL,C,2.0
3,2.366000175476074,learn,57633.999824523926,Wed Aug 14 2024 17:05:15 GMT-0500 (Central Daylight Time),408669.0,A,wheatenter,O,enter,445,1,1115.9000000059605,407553.09999999404,7013,WL,C,2.0
3,3.366000175476074,learn,56633.999824523926,Wed Aug 14 2024 17:05:15 GMT-0500 (Central Daylight Time),409668.89999997616,A,q,O,q,995,1,999.5999999940395,408669.2999999821,7013,WL,C,3.0
3,3.5160000324249268,learn,56483.99996757507,Wed Aug 14 2024 17:05:15 GMT-0500 (Central Daylight Time),409818.7999999821,A,qu,O,u,140,1,1149.5,408669.2999999821,7013,WL,C,3.0
3,3.634000062942505,learn,56365.999937057495,Wed Aug 14 2024 17:05:15 GMT-0500 (Central Daylight Time),409936.5,A,que,O,e,110,1,1267.2000000178814,408669.2999999821,7013,WL,C,3.0
3,3.7820000648498535,learn,56217.99993515015,Wed Aug 14 2024 17:05:15 GMT-0500 (Central Daylight Time),410085.1999999881,A,quee,O,e,144,1,1415.9000000059605,408669.2999999821,7013,WL,C,3.0
3,3.9160001277923584,learn,56083.99987220764,Wed Aug 14 2024 17:05:15 GMT-0500 (Central Daylight Time),410218.89999997616,A,queen,O,n,116,1,1549.5999999940395,408669.2999999821,7013,WL,C,3.0
3,4.799000024795532,learn,55200.99997520447,Wed Aug 14 2024 17:05:15 GMT-0500 (Central Daylight Time),411101.5,A,queenenter,O,enter,878,1,2432.2000000178814,408669.2999999821,7013,WL,C,3.0
3,6.065000057220459,learn,53934.99994277954,Wed Aug 14 2024 17:05:15 GMT-0500 (Central Daylight Time),412367.89999997616,A,n,O,n,1259,1,1266.199999988079,411101.6999999881,7013,WL,C,4.0
3,6.232000112533569,learn,53767.99988746643,Wed Aug 14 2024 17:05:15 GMT-0500 (Central Daylight Time),412534.7999999821,A,na,O,a,153,1,1433.0999999940395,411101.6999999881,7013,WL,C,4.0
3,6.332000017166138,learn,53667.99998283386,Wed Aug 14 2024 17:05:15 GMT-0500 (Central Daylight Time),412634.7999999821,A,nai,O,i,90,1,1533.0999999940395,411101.6999999881,7013,WL,C,4.0
3,6.4150002002716064,learn,53584.99979972839,Wed Aug 14 2024 17:05:15 GMT-0500 (Central Daylight Time),412717.89999997616,A,nail,O,l,70,1,1616.199999988079,411101.6999999881,7013,WL,C,4.0
3,6.698000192642212,learn,53301.99980735779,Wed Aug 14 2024 17:05:15 GMT-0500 (Central Daylight Time),413001.09999999404,A,nailenter,O,enter,267,1,1899.4000000059605,411101.6999999881,7013,WL,C,4.0
3,6.9150002002716064,learn,53084.99979972839,Wed Aug 14 2024 17:05:15 GMT-0500 (Central Daylight Time),413218.0,A,s,O,s,199,1,216.5,413001.5,7013,WL,C,5.0
3,7.015000104904175,learn,52984.999895095825,Wed Aug 14 2024 17:05:15 GMT-0500 (Central Daylight Time),413317.7999999821,A,sh,O,h,87,1,316.2999999821186,413001.5,7013,WL,C,5.0
3,7.0980000495910645,learn,52901.999950408936,Wed Aug 14 2024 17:05:15 GMT-0500 (Central Daylight Time),413400.89999997616,A,sho,O,o,67,1,399.39999997615814,413001.5,7013,WL,C,5.0
3,7.265000104904175,learn,52734.999895095825,Wed Aug 14 2024 17:05:15 GMT-0500 (Central Daylight Time),413567.6999999881,A,shor,O,r,151,1,566.1999999880791,413001.5,7013,WL,C,5.0
3,7.364000082015991,learn,52635.99991798401,Wed Aug 14 2024 17:05:15 GMT-0500 (Central Daylight Time),413667.5,A,shore,O,e,89,1,666.0,413001.5,7013,WL,C,5.0
3,7.914000034332275,learn,52085.999965667725,Wed Aug 14 2024 17:05:15 GMT-0500 (Central Daylight Time),414217.39999997616,A,shoreenter,O,enter,533,1,1215.8999999761581,413001.5,7013,WL,C,5.0
3,8.248000144958496,learn,51751.999855041504,Wed Aug 14 2024 17:05:15 GMT-0500 (Central Daylight Time),414550.59999999404,A,d,O,d,327,1,332.90000000596046,414217.6999999881,7013,WL,C,6.0
3,8.364000082015991,learn,51635.99991798401,Wed Aug 14 2024 17:05:15 GMT-0500 (Central Daylight Time),414667.5,A,do,O,o,98,1,449.80000001192093,414217.6999999881,7013,WL,C,6.0
3,8.46399998664856,learn,51536.00001335144,Wed Aug 14 2024 17:05:15 GMT-0500 (Central Daylight Time),414767.1999999881,A,doc,O,c,93,1,549.5,414217.6999999881,7013,WL,C,6.0
3,8.779000043869019,learn,51220.99995613098,Wed Aug 14 2024 17:05:15 GMT-0500 (Central Daylight Time),415082.39999997616,A,doco,O,o,310,1,864.6999999880791,414217.6999999881,7013,WL,C,6.0
3,8.847000122070312,learn,51152.99987792969,Wed Aug 14 2024 17:05:15 GMT-0500 (Central Daylight Time),415150.39999997616,A,docor,O,r,53,1,932.6999999880791,414217.6999999881,7013,WL,C,6.0
3,9.314000129699707,learn,50685.99987030029,Wed Aug 14 2024 17:05:15 GMT-0500 (Central Daylight Time),415617.09999999404,A,doco,O,backspace,457,1,1399.4000000059605,414217.6999999881,7013,WL,C,6.0
3,9.481000185012817,learn,50518.99981498718,Wed Aug 14 2024 17:05:15 GMT-0500 (Central Daylight Time),415783.7999999821,A,doc,O,backspace,151,1,1566.0999999940395,414217.6999999881,7013,WL,C,6.0
3,9.63100004196167,learn,50368.99995803833,Wed Aug 14 2024 17:05:15 GMT-0500 (Central Daylight Time),415933.7999999821,A,doct,O,t,137,1,1716.0999999940395,414217.6999999881,7013,WL,C,6.0
3,9.781000137329102,learn,50218.9998626709,Wed Aug 14 2024 17:05:15 GMT-0500 (Central Daylight Time),416083.6999999881,A,docto,O,o,139,1,1866.0,414217.6999999881,7013,WL,C,6.0
3,9.864000082015991,learn,50135.99991798401,Wed Aug 14 2024 17:05:15 GMT-0500 (Central Daylight Time),416166.59999999404,A,doctor,O,r,76,1,1948.9000000059605,414217.6999999881,7013,WL,C,6.0
3,10.064000129699707,learn,49935.99987030029,Wed Aug 14 2024 17:05:15 GMT-0500 (Central Daylight Time),416366.59999999404,A,doctorenter,O,enter,194,1,2148.9000000059605,414217.6999999881,7013,WL,C,6.0
3,10.680000066757202,learn,49319.9999332428,Wed Aug 14 2024 17:05:15 GMT-0500 (Central Daylight Time),416983.09999999404,A,b,O,b,610,1,616.0999999940395,416367.0,7013,WL,C,7.0
3,10.797000169754028,learn,49202.99983024597,Wed Aug 14 2024 17:05:15 GMT-0500 (Central Daylight Time),417099.89999997616,A,bo,O,o,105,1,732.8999999761581,416367.0,7013,WL,C,7.0
3,10.94700002670288,learn,49052.99997329712,Wed Aug 14 2024 17:05:15 GMT-0500 (Central Daylight Time),417249.7999999821,A,boy,O,y,141,1,882.7999999821186,416367.0,7013,WL,C,7.0
3,11.330000162124634,learn,48669.999837875366,Wed Aug 14 2024 17:05:15 GMT-0500 (Central Daylight Time),417633.0,A,boyenter,O,enter,367,1,1266.0,416367.0,7013,WL,C,7.0
3,11.630000114440918,learn,48369.99988555908,Wed Aug 14 2024 17:05:15 GMT-0500 (Central Daylight Time),417932.7999999821,A,b,O,b,288,1,299.5,417633.2999999821,7013,WL,C,8.0
3,11.731000185012817,learn,48268.99981498718,Wed Aug 14 2024 17:05:15 GMT-0500 (Central Daylight Time),418033.89999997616,A,bo,O,o,84,1,400.59999999403954,417633.2999999821,7013,WL,C,8.0
3,11.946000099182129,learn,48053.99990081787,Wed Aug 14 2024 17:05:15 GMT-0500 (Central Daylight Time),418249.39999997616,A,bod,O,d,199,1,616.0999999940395,417633.2999999821,7013,WL,C,8.0
3,12.046000003814697,learn,47953.9999961853,Wed Aug 14 2024 17:05:15 GMT-0500 (Central Daylight Time),418349.2999999821,A,body,O,y,95,1,716.0,417633.2999999821,7013,WL,C,8.0
3,12.396000146865845,learn,47603.999853134155,Wed Aug 14 2024 17:05:15 GMT-0500 (Central Daylight Time),418699.1999999881,A,bodyenter,O,enter,339,1,1065.9000000059605,417633.2999999821,7013,WL,C,8.0
3,12.69700002670288,learn,47302.99997329712,Wed Aug 14 2024 17:05:15 GMT-0500 (Central Daylight Time),418999.59999999404,A,h,O,h,285,1,300.0,418699.59999999404,7013,WL,C,9.0
3,12.763000011444092,learn,47236.99998855591,Wed Aug 14 2024 17:05:15 GMT-0500 (Central Daylight Time),419065.89999997616,A,ho,O,o,57,1,366.2999999821186,418699.59999999404,7013,WL,C,9.0
3,12.946000099182129,learn,47053.99990081787,Wed Aug 14 2024 17:05:15 GMT-0500 (Central Daylight Time),419249.0,A,hom,O,m,167,1,549.4000000059605,418699.59999999404,7013,WL,C,9.0
3,13.263000011444092,learn,46736.99998855591,Wed Aug 14 2024 17:05:15 GMT-0500 (Central Daylight Time),419565.7999999821,A,home,O,e,304,1,866.1999999880791,418699.59999999404,7013,WL,C,9.0
3,13.59600019454956,learn,46403.99980545044,Wed Aug 14 2024 17:05:15 GMT-0500 (Central Daylight Time),419898.7999999821,A,homeenter,O,enter,315,1,1199.199999988079,418699.59999999404,7013,WL,C,9.0
3,13.861999988555908,learn,46138.00001144409,Wed Aug 14 2024 17:05:15 GMT-0500 (Central Daylight Time),420165.39999997616,A,s,O,s,246,1,266.2999999821186,419899.09999999404,7013,WL,C,10.0
3,13.962000131607056,learn,46037.999868392944,Wed Aug 14 2024 17:05:15 GMT-0500 (Central Daylight Time),420265.59999999404,A,su,O,u,91,1,366.5,419899.09999999404,7013,WL,C,10.0
3,14.078999996185303,learn,45921.0000038147,Wed Aug 14 2024 17:05:15 GMT-0500 (Central Daylight Time),420382.1999999881,A,sug,O,g,103,1,483.09999999403954,419899.09999999404,7013,WL,C,10.0
3,14.212000131607056,learn,45787.999868392944,Wed Aug 14 2024 17:05:15 GMT-0500 (Central Daylight Time),420515.39999997616,A,suga,O,a,114,1,616.2999999821186,419899.09999999404,7013,WL,C,10.0
3,14.312000036239624,learn,45687.999963760376,Wed Aug 14 2024 17:05:15 GMT-0500 (Central Daylight Time),420615.39999997616,A,sugar,O,r,85,1,716.2999999821186,419899.09999999404,7013,WL,C,10.0
3,14.546000003814697,learn,45453.9999961853,Wed Aug 14 2024 17:05:15 GMT-0500 (Central Daylight Time),420848.89999997616,A,sugarenter,O,enter,217,1,949.7999999821186,419899.09999999404,7013,WL,C,10.0
3,14.861999988555908,learn,45138.00001144409,Wed Aug 14 2024 17:05:15 GMT-0500 (Central Daylight Time),421165.09999999404,A,c,O,c,296,1,315.90000000596046,420849.1999999881,7013,WL,C,11.0
3,14.979000091552734,learn,45020.999908447266,Wed Aug 14 2024 17:05:15 GMT-0500 (Central Daylight Time),421282.0,A,co,O,o,107,1,432.80000001192093,420849.1999999881,7013,WL,C,11.0
3,15.111999988555908,learn,44888.00001144409,Wed Aug 14 2024 17:05:15 GMT-0500 (Central Daylight Time),421415.0,A,cor,O,r,118,1,565.8000000119209,420849.1999999881,7013,WL,C,11.0
3,15.26200008392334,learn,44737.99991607666,Wed Aug 14 2024 17:05:15 GMT-0500 (Central Daylight Time),421565.0,A,corn,O,n,137,1,715.8000000119209,420849.1999999881,7013,WL,C,11.0
3,16.861999988555908,learn,43138.00001144409,Wed Aug 14 2024 17:05:15 GMT-0500 (Central Daylight Time),423164.7999999821,A,cornenter,O,enter,1580,1,2315.5999999940395,420849.1999999881,7013,WL,C,11.0
3,17.978000164031982,learn,42021.99983596802,Wed Aug 14 2024 17:05:15 GMT-0500 (Central Daylight Time),424280.89999997616,A,c,O,c,1107,1,1115.699999988079,423165.1999999881,7013,WL,C,12.0
3,18.16100001335144,learn,41838.99998664856,Wed Aug 14 2024 17:05:15 GMT-0500 (Central Daylight Time),424464.1999999881,A,ca,O,a,176,1,1299.0,423165.1999999881,7013,WL,C,12.0
3,18.261000156402588,learn,41738.99984359741,Wed Aug 14 2024 17:05:15 GMT-0500 (Central Daylight Time),424563.89999997616,A,cat,O,t,88,1,1398.699999988079,423165.1999999881,7013,WL,C,12.0
3,18.4280002117157,learn,41571.9997882843,Wed Aug 14 2024 17:05:15 GMT-0500 (Central Daylight Time),424730.89999997616,A,catt,O,t,156,1,1565.699999988079,423165.1999999881,7013,WL,C,12.0
3,18.511000156402588,learn,41488.99984359741,Wed Aug 14 2024 17:05:15 GMT-0500 (Central Daylight Time),424813.7999999821,A,cattl,O,l,78,1,1648.5999999940395,423165.1999999881,7013,WL,C,12.0
3,18.628000020980835,learn,41371.999979019165,Wed Aug 14 2024 17:05:15 GMT-0500 (Central Daylight Time),424930.7999999821,A,cattle,O,e,107,1,1765.5999999940395,423165.1999999881,7013,WL,C,12.0
3,18.82800006866455,learn,41171.99993133545,Wed Aug 14 2024 17:05:15 GMT-0500 (Central Daylight Time),425130.6999999881,A,cattleenter,O,enter,182,1,1965.5,423165.1999999881,7013,WL,C,12.0
3,19.094000101089478,learn,40905.99989891052,Wed Aug 14 2024 17:05:15 GMT-0500 (Central Daylight Time),425397.1999999881,A,n,O,n,254,1,266.09999999403954,425131.09999999404,7013,WL,C,13.0
3,19.194000005722046,learn,40805.999994277954,Wed Aug 14 2024 17:05:15 GMT-0500 (Central Daylight Time),425497.0,A,na,O,a,91,1,365.90000000596046,425131.09999999404,7013,WL,C,13.0
3,19.311000108718872,learn,40688.99989128113,Wed Aug 14 2024 17:05:15 GMT-0500 (Central Daylight Time),425613.7999999821,A,nai,O,i,103,1,482.69999998807907,425131.09999999404,7013,WL,C,13.0
3,19.377000093460083,learn,40622.99990653992,Wed Aug 14 2024 17:05:15 GMT-0500 (Central Daylight Time),425680.5,A,nail,O,l,51,1,549.4000000059605,425131.09999999404,7013,WL,C,13.0
3,19.694000005722046,learn,40305.999994277954,Wed Aug 14 2024 17:05:15 GMT-0500 (Central Daylight Time),425997.2999999821,A,nailenter,O,enter,303,1,866.1999999880791,425131.09999999404,7013,WL,C,13.0
3,25.54200005531311,learn,34457.99994468689,Wed Aug 14 2024 17:05:15 GMT-0500 (Central Daylight Time),431845.09999999404,A,l,O,l,5843,1,5847.5,425997.59999999404,7013,WL,C,14.0
3,25.675000190734863,learn,34324.99980926514,Wed Aug 14 2024 17:05:15 GMT-0500 (Central Daylight Time),431978.39999997616,A,le,O,e,123,1,5980.799999982119,425997.59999999404,7013,WL,C,14.0
3,25.859000205993652,learn,34140.99979400635,Wed Aug 14 2024 17:05:15 GMT-0500 (Central Daylight Time),432161.7999999821,A,let,O,t,166,1,6164.199999988079,425997.59999999404,7013,WL,C,14.0
3,25.975000143051147,learn,34024.99985694885,Wed Aug 14 2024 17:05:15 GMT-0500 (Central Daylight Time),432278.1999999881,A,lett,O,t,111,1,6280.5999999940395,425997.59999999404,7013,WL,C,14.0
3,26.092000007629395,learn,33907.999992370605,Wed Aug 14 2024 17:05:15 GMT-0500 (Central Daylight Time),432395.0,A,lette,O,e,98,1,6397.4000000059605,425997.59999999404,7013,WL,C,14.0
3,26.20900011062622,learn,33790.99988937378,Wed Aug 14 2024 17:05:15 GMT-0500 (Central Daylight Time),432511.6999999881,A,letter,O,r,101,1,6514.0999999940395,425997.59999999404,7013,WL,C,14.0
3,26.342000007629395,learn,33657.999992370605,Wed Aug 14 2024 17:05:15 GMT-0500 (Central Daylight Time),432645.0,A,letterenter,O,enter,129,1,6647.4000000059605,425997.59999999404,7013,WL,C,14.0
3,60.015000104904175,learn,-15.000104904174805,Wed Aug 14 2024 17:05:15 GMT-0500 (Central Daylight Time),466317.6999999881,A,None,O,None,33669,1,33672.40000000596,432645.2999999821,7013,WL,C,15.0
4,0.6670000553131104,learn,59332.99994468689,Wed Aug 14 2024 17:05:15 GMT-0500 (Central Daylight Time),533763.1999999881,A,t,O,t,648,1,666.4000000059605,533096.7999999821,7013,WL,C,1.0
4,0.7670001983642578,learn,59232.99980163574,Wed Aug 14 2024 17:05:15 GMT-0500 (Central Daylight Time),533863.1999999881,A,to,O,o,92,1,766.4000000059605,533096.7999999821,7013,WL,C,1.0
4,0.8330001831054688,learn,59166.99981689453,Wed Aug 14 2024 17:05:15 GMT-0500 (Central Daylight Time),533929.7999999821,A,tow,O,w,50,1,833.0,533096.7999999821,7013,WL,C,1.0
4,0.9160001277923584,learn,59083.99987220764,Wed Aug 14 2024 17:05:15 GMT-0500 (Central Daylight Time),534012.7999999821,A,towe,O,e,79,1,916.0,533096.7999999821,7013,WL,C,1.0
4,1.0170001983642578,learn,58982.99980163574,Wed Aug 14 2024 17:05:15 GMT-0500 (Central Daylight Time),534113.1999999881,A,tower,O,r,84,1,1016.4000000059605,533096.7999999821,7013,WL,C,1.0
4,1.25,learn,58750.0,Wed Aug 14 2024 17:05:15 GMT-0500 (Central Daylight Time),534346.2999999821,A,towerenter,O,enter,223,1,1249.5,533096.7999999821,7013,WL,C,1.0
4,1.5340001583099365,learn,58465.99984169006,Wed Aug 14 2024 17:05:15 GMT-0500 (Central Daylight Time),534630.6999999881,A,w,O,w,278,1,284.0,534346.6999999881,7013,WL,C,2.0
4,1.6500000953674316,learn,58349.99990463257,Wed Aug 14 2024 17:05:15 GMT-0500 (Central Daylight Time),534746.099999994,A,wh,O,h,98,1,399.40000000596046,534346.6999999881,7013,WL,C,2.0
4,1.7160000801086426,learn,58283.99991989136,Wed Aug 14 2024 17:05:15 GMT-0500 (Central Daylight Time),534812.8999999762,A,whe,O,e,46,1,466.19999998807907,534346.6999999881,7013,WL,C,2.0
4,1.8340001106262207,learn,58165.99988937378,Wed Aug 14 2024 17:05:15 GMT-0500 (Central Daylight Time),534930.6999999881,A,whea,O,a,108,1,584.0,534346.6999999881,7013,WL,C,2.0
4,1.9500000476837158,learn,58049.999952316284,Wed Aug 14 2024 17:05:15 GMT-0500 (Central Daylight Time),535046.0,A,wheat,O,t,101,1,699.3000000119209,534346.6999999881,7013,WL,C,2.0
4,2.1500000953674316,learn,57849.99990463257,Wed Aug 14 2024 17:05:15 GMT-0500 (Central Daylight Time),535246.099999994,A,wheatenter,O,enter,187,1,899.4000000059605,534346.6999999881,7013,WL,C,2.0
4,2.81600022315979,learn,57183.99977684021,Wed Aug 14 2024 17:05:15 GMT-0500 (Central Daylight Time),535912.6999999881,A,q,O,q,650,1,666.1999999880791,535246.5,7013,WL,C,3.0
4,2.933000087738037,learn,57066.99991226196,Wed Aug 14 2024 17:05:15 GMT-0500 (Central Daylight Time),536029.0,A,qu,O,u,104,1,782.5,535246.5,7013,WL,C,3.0
4,2.999000072479248,learn,57000.99992752075,Wed Aug 14 2024 17:05:15 GMT-0500 (Central Daylight Time),536095.7999999821,A,que,O,e,60,1,849.2999999821186,535246.5,7013,WL,C,3.0
4,3.133000135421753,learn,56866.99986457825,Wed Aug 14 2024 17:05:15 GMT-0500 (Central Daylight Time),536229.099999994,A,quee,O,e,129,1,982.5999999940395,535246.5,7013,WL,C,3.0
4,3.2990000247955322,learn,56700.99997520447,Wed Aug 14 2024 17:05:15 GMT-0500 (Central Daylight Time),536396.0,A,queen,O,n,156,1,1149.5,535246.5,7013,WL,C,3.0
4,3.5990002155303955,learn,56400.999784469604,Wed Aug 14 2024 17:05:15 GMT-0500 (Central Daylight Time),536695.599999994,A,queenenter,O,enter,284,1,1449.0999999940395,535246.5,7013,WL,C,3.0
4,3.9160001277923584,learn,56083.99987220764,Wed Aug 14 2024 17:05:15 GMT-0500 (Central Daylight Time),537012.0,A,s,O,s,305,1,316.0,536696.0,7013,WL,C,4.0
4,4.049000024795532,learn,55950.99997520447,Wed Aug 14 2024 17:05:15 GMT-0500 (Central Daylight Time),537145.2999999821,A,su,O,u,117,1,449.2999999821186,536696.0,7013,WL,C,4.0
4,4.116000175476074,learn,55883.999824523926,Wed Aug 14 2024 17:05:15 GMT-0500 (Central Daylight Time),537212.1999999881,A,sug,O,g,55,1,516.1999999880791,536696.0,7013,WL,C,4.0
4,4.232000112533569,learn,55767.99988746643,Wed Aug 14 2024 17:05:15 GMT-0500 (Central Daylight Time),537328.7999999821,A,suga,O,a,108,1,632.7999999821186,536696.0,7013,WL,C,4.0
4,4.3490002155303955,learn,55650.999784469604,Wed Aug 14 2024 17:05:15 GMT-0500 (Central Daylight Time),537445.2999999821,A,sugar,O,r,112,1,749.2999999821186,536696.0,7013,WL,C,4.0
4,4.616000175476074,learn,55383.999824523926,Wed Aug 14 2024 17:05:15 GMT-0500 (Central Daylight Time),537712.0,A,sugarenter,O,enter,251,1,1016.0,536696.0,7013,WL,C,4.0
4,4.949000120162964,learn,55050.999879837036,Wed Aug 14 2024 17:05:15 GMT-0500 (Central Daylight Time),538045.099999994,A,h,O,h,329,1,332.80000001192093,537712.2999999821,7013,WL,C,5.0
4,5.049000024795532,learn,54950.99997520447,Wed Aug 14 2024 17:05:15 GMT-0500 (Central Daylight Time),538145.2999999821,A,ho,O,o,92,1,433.0,537712.2999999821,7013,WL,C,5.0
4,5.182000160217285,learn,54817.999839782715,Wed Aug 14 2024 17:05:15 GMT-0500 (Central Daylight Time),538278.599999994,A,hom,O,m,119,1,566.3000000119209,537712.2999999821,7013,WL,C,5.0
4,5.3490002155303955,learn,54650.999784469604,Wed Aug 14 2024 17:05:15 GMT-0500 (Central Daylight Time),538445.099999994,A,home,O,e,154,1,732.8000000119209,537712.2999999821,7013,WL,C,5.0
4,5.549000024795532,learn,54450.99997520447,Wed Aug 14 2024 17:05:15 GMT-0500 (Central Daylight Time),538645.0,A,homeenter,O,enter,187,1,932.7000000178814,537712.2999999821,7013,WL,C,5.0
4,5.9150002002716064,learn,54084.99979972839,Wed Aug 14 2024 17:05:15 GMT-0500 (Central Daylight Time),539011.7999999821,A,b,O,b,348,1,366.5,538645.2999999821,7013,WL,C,6.0
4,5.998000144958496,learn,54001.999855041504,Wed Aug 14 2024 17:05:15 GMT-0500 (Central Daylight Time),539094.8999999762,A,bo,O,o,77,1,449.59999999403954,538645.2999999821,7013,WL,C,6.0
4,6.1650002002716064,learn,53834.99979972839,Wed Aug 14 2024 17:05:15 GMT-0500 (Central Daylight Time),539261.8999999762,A,boy,O,y,154,1,616.5999999940395,538645.2999999821,7013,WL,C,6.0
4,6.565000057220459,learn,53434.99994277954,Wed Aug 14 2024 17:05:15 GMT-0500 (Central Daylight Time),539661.5,A,boyenter,O,enter,379,1,1016.2000000178814,538645.2999999821,7013,WL,C,6.0
4,6.88100004196167,learn,53118.99995803833,Wed Aug 14 2024 17:05:15 GMT-0500 (Central Daylight Time),539977.8999999762,A,b,O,b,307,1,316.09999999403954,539661.7999999821,7013,WL,C,7.0
4,6.965000152587891,learn,53034.99984741211,Wed Aug 14 2024 17:05:15 GMT-0500 (Central Daylight Time),540061.099999994,A,bo,O,o,79,1,399.30000001192093,539661.7999999821,7013,WL,C,7.0
4,7.182000160217285,learn,52817.999839782715,Wed Aug 14 2024 17:05:15 GMT-0500 (Central Daylight Time),540278.7999999821,A,bod,O,d,211,1,617.0,539661.7999999821,7013,WL,C,7.0
4,7.332000017166138,learn,52667.99998283386,Wed Aug 14 2024 17:05:15 GMT-0500 (Central Daylight Time),540428.099999994,A,body,O,y,129,1,766.3000000119209,539661.7999999821,7013,WL,C,7.0
4,7.765000104904175,learn,52234.999895095825,Wed Aug 14 2024 17:05:15 GMT-0500 (Central Daylight Time),540861.099999994,A,bodyenter,O,enter,413,1,1199.300000011921,539661.7999999821,7013,WL,C,7.0
4,8.664000034332275,learn,51335.999965667725,Wed Aug 14 2024 17:05:15 GMT-0500 (Central Daylight Time),541760.599999994,A,d,O,d,891,1,899.3000000119209,540861.2999999821,7013,WL,C,8.0
4,8.781000137329102,learn,51218.9998626709,Wed Aug 14 2024 17:05:15 GMT-0500 (Central Daylight Time),541877.099999994,A,do,O,o,112,1,1015.8000000119209,540861.2999999821,7013,WL,C,8.0
4,8.88100004196167,learn,51118.99995803833,Wed Aug 14 2024 17:05:15 GMT-0500 (Central Daylight Time),541977.1999999881,A,doc,O,c,84,1,1115.9000000059605,540861.2999999821,7013,WL,C,8.0
4,9.031000137329102,learn,50968.9998626709,Wed Aug 14 2024 17:05:15 GMT-0500 (Central Daylight Time),542127.1999999881,A,doct,O,t,135,1,1265.9000000059605,540861.2999999821,7013,WL,C,8.0
4,9.13100004196167,learn,50868.99995803833,Wed Aug 14 2024 17:05:15 GMT-0500 (Central Daylight Time),542227.1999999881,A,docto,O,o,82,1,1365.9000000059605,540861.2999999821,7013,WL,C,8.0
4,9.214000225067139,learn,50785.99977493286,Wed Aug 14 2024 17:05:15 GMT-0500 (Central Daylight Time),542310.6999999881,A,doctor,O,r,77,1,1449.4000000059605,540861.2999999821,7013,WL,C,8.0
4,9.397000074386597,learn,50602.9999256134,Wed Aug 14 2024 17:05:15 GMT-0500 (Central Daylight Time),542493.8999999762,A,doctorenter,O,enter,170,1,1632.5999999940395,540861.2999999821,7013,WL,C,8.0
4,9.69700002670288,learn,50302.99997329712,Wed Aug 14 2024 17:05:15 GMT-0500 (Central Daylight Time),542793.5,A,c,O,c,283,1,299.2000000178814,542494.2999999821,7013,WL,C,9.0
4,9.814000129699707,learn,50185.99987030029,Wed Aug 14 2024 17:05:15 GMT-0500 (Central Daylight Time),542910.599999994,A,ca,O,a,103,1,416.30000001192093,542494.2999999821,7013,WL,C,9.0
4,9.88100004196167,learn,50118.99995803833,Wed Aug 14 2024 17:05:15 GMT-0500 (Central Daylight Time),542976.8999999762,A,cam,O,m,50,1,482.59999999403954,542494.2999999821,7013,WL,C,9.0
4,9.997000217437744,learn,50002.999782562256,Wed Aug 14 2024 17:05:15 GMT-0500 (Central Daylight Time),543093.6999999881,A,camp,O,p,104,1,599.4000000059605,542494.2999999821,7013,WL,C,9.0
4,10.480000019073486,learn,49519.999980926514,Wed Aug 14 2024 17:05:15 GMT-0500 (Central Daylight Time),543576.8999999762,A,campenter,O,enter,475,1,1082.5999999940395,542494.2999999821,7013,WL,C,9.0
4,12.246000051498413,learn,47753.99994850159,Wed Aug 14 2024 17:05:15 GMT-0500 (Central Daylight Time),545343.0,A,f,O,f,1752,1,1765.800000011921,543577.1999999881,7013,WL,C,10.0
4,12.330000162124634,learn,47669.999837875366,Wed Aug 14 2024 17:05:15 GMT-0500 (Central Daylight Time),545426.099999994,A,fl,O,l,65,1,1848.9000000059605,543577.1999999881,7013,WL,C,10.0
4,12.463000059127808,learn,47536.99994087219,Wed Aug 14 2024 17:05:15 GMT-0500 (Central Daylight Time),545559.599999994,A,fla,O,a,119,1,1982.4000000059605,543577.1999999881,7013,WL,C,10.0
4,12.563000202178955,learn,47436.999797821045,Wed Aug 14 2024 17:05:15 GMT-0500 (Central Daylight Time),545659.3999999762,A,flag,O,g,81,1,2082.199999988079,543577.1999999881,7013,WL,C,10.0
4,12.730000019073486,learn,47269.999980926514,Wed Aug 14 2024 17:05:15 GMT-0500 (Central Daylight Time),545826.0,A,flagenter,O,enter,149,1,2248.800000011921,543577.1999999881,7013,WL,C,10.0
4,13.146000146865845,learn,46853.999853134155,Wed Aug 14 2024 17:05:15 GMT-0500 (Central Daylight Time),546242.6999999881,A,l,O,l,407,1,416.40000000596046,545826.2999999821,7013,WL,C,11.0
4,13.230000019073486,learn,46769.999980926514,Wed Aug 14 2024 17:05:15 GMT-0500 (Central Daylight Time),546326.8999999762,A,le,O,e,78,1,500.59999999403954,545826.2999999821,7013,WL,C,11.0
4,13.396000146865845,learn,46603.999853134155,Wed Aug 14 2024 17:05:15 GMT-0500 (Central Daylight Time),546492.599999994,A,let,O,t,145,1,666.3000000119209,545826.2999999821,7013,WL,C,11.0
4,13.53000020980835,learn,46469.99979019165,Wed Aug 14 2024 17:05:15 GMT-0500 (Central Daylight Time),546626.0,A,lett,O,t,116,1,799.7000000178814,545826.2999999821,7013,WL,C,11.0
4,13.59600019454956,learn,46403.99980545044,Wed Aug 14 2024 17:05:15 GMT-0500 (Central Daylight Time),546692.3999999762,A,lette,O,e,55,1,866.0999999940395,545826.2999999821,7013,WL,C,11.0
4,13.713000059127808,learn,46286.99994087219,Wed Aug 14 2024 17:05:15 GMT-0500 (Central Daylight Time),546809.1999999881,A,letter,O,r,108,1,982.9000000059605,545826.2999999821,7013,WL,C,11.0
4,13.84600019454956,learn,46153.99980545044,Wed Aug 14 2024 17:05:15 GMT-0500 (Central Daylight Time),546942.2999999821,A,letterenter,O,enter,128,1,1116.0,545826.2999999821,7013,WL,C,11.0
4,14.34600019454956,learn,45653.99980545044,Wed Aug 14 2024 17:05:15 GMT-0500 (Central Daylight Time),547442.1999999881,A,c,O,c,490,1,499.5,546942.6999999881,7013,WL,C,12.0
4,14.529000043869019,learn,45470.99995613098,Wed Aug 14 2024 17:05:15 GMT-0500 (Central Daylight Time),547625.5,A,ca,O,a,174,1,682.8000000119209,546942.6999999881,7013,WL,C,12.0
4,14.646000146865845,learn,45353.999853134155,Wed Aug 14 2024 17:05:15 GMT-0500 (Central Daylight Time),547741.8999999762,A,cat,O,t,111,1,799.1999999880791,546942.6999999881,7013,WL,C,12.0
4,14.796000003814697,learn,45203.9999961853,Wed Aug 14 2024 17:05:15 GMT-0500 (Central Daylight Time),547892.099999994,A,catt,O,t,139,1,949.4000000059605,546942.6999999881,7013,WL,C,12.0
4,14.896000146865845,learn,45103.999853134155,Wed Aug 14 2024 17:05:15 GMT-0500 (Central Daylight Time),547992.0,A,cattl,O,l,92,1,1049.300000011921,546942.6999999881,7013,WL,C,12.0
4,15.029000043869019,learn,44970.99995613098,Wed Aug 14 2024 17:05:15 GMT-0500 (Central Daylight Time),548125.1999999881,A,cattle,O,e,129,1,1182.5,546942.6999999881,7013,WL,C,12.0
4,15.84500002861023,learn,44154.99997138977,Wed Aug 14 2024 17:05:15 GMT-0500 (Central Daylight Time),548941.599999994,A,cattleenter,O,enter,804,1,1998.9000000059605,546942.6999999881,7013,WL,C,12.0
4,18.045000076293945,learn,41954.999923706055,Wed Aug 14 2024 17:05:15 GMT-0500 (Central Daylight Time),551141.099999994,A,d,O,d,2195,1,2199.0999999940395,548942.0,7013,WL,C,13.0
4,18.1780002117157,learn,41821.9997882843,Wed Aug 14 2024 17:05:15 GMT-0500 (Central Daylight Time),551274.2999999821,A,do,O,o,115,1,2332.2999999821186,548942.0,7013,WL,C,13.0
4,18.294000148773193,learn,41705.99985122681,Wed Aug 14 2024 17:05:15 GMT-0500 (Central Daylight Time),551390.8999999762,A,doc,O,c,102,1,2448.899999976158,548942.0,7013,WL,C,13.0
4,18.461000204086304,learn,41538.999795913696,Wed Aug 14 2024 17:05:15 GMT-0500 (Central Daylight Time),551557.3999999762,A,doct,O,t,162,1,2615.399999976158,548942.0,7013,WL,C,13.0
4,18.57800006866455,learn,41421.99993133545,Wed Aug 14 2024 17:05:15 GMT-0500 (Central Daylight Time),551674.099999994,A,docto,O,o,107,1,2732.0999999940395,548942.0,7013,WL,C,13.0
4,18.695000171661377,learn,41304.99982833862,Wed Aug 14 2024 17:05:15 GMT-0500 (Central Daylight Time),551791.099999994,A,doctor,O,r,103,1,2849.0999999940395,548942.0,7013,WL,C,13.0
4,19.427000045776367,learn,40572.99995422363,Wed Aug 14 2024 17:05:15 GMT-0500 (Central Daylight Time),552524.0,A,doctorenter,O,enter,722,1,3582.0,548942.0,7013,WL,C,13.0
4,22.04300022125244,learn,37956.99977874756,Wed Aug 14 2024 17:05:15 GMT-0500 (Central Daylight Time),555139.7999999821,A,n,O,n,2605,1,2615.5999999940395,552524.1999999881,7013,WL,C,14.0
4,22.14400005340576,learn,37855.99994659424,Wed Aug 14 2024 17:05:15 GMT-0500 (Central Daylight Time),555240.0,A,na,O,a,93,1,2715.800000011921,552524.1999999881,7013,WL,C,14.0
4,22.260000228881836,learn,37739.999771118164,Wed Aug 14 2024 17:05:15 GMT-0500 (Central Daylight Time),555356.599999994,A,nai,O,i,105,1,2832.4000000059605,552524.1999999881,7013,WL,C,14.0
4,22.3270001411438,learn,37672.9998588562,Wed Aug 14 2024 17:05:15 GMT-0500 (Central Daylight Time),555423.099999994,A,nail,O,l,60,1,2898.9000000059605,552524.1999999881,7013,WL,C,14.0
4,22.64300012588501,learn,37356.99987411499,Wed Aug 14 2024 17:05:15 GMT-0500 (Central Daylight Time),555739.5,A,nailenter,O,enter,306,1,3215.300000011921,552524.1999999881,7013,WL,C,14.0
4,22.927000045776367,learn,37072.99995422363,Wed Aug 14 2024 17:05:15 GMT-0500 (Central Daylight Time),556023.1999999881,A,l,O,l,277,1,283.40000000596046,555739.7999999821,7013,WL,C,15.0
4,23.23800015449524,learn,36761.99984550476,Wed Aug 14 2024 17:05:15 GMT-0500 (Central Daylight Time),556334.2999999821,A,le,O,e,161,1,594.5,555739.7999999821,7013,WL,C,15.0
4,23.243000030517578,learn,36756.99996948242,Wed Aug 14 2024 17:05:15 GMT-0500 (Central Daylight Time),556339.8999999762,A,let,O,t,0,1,600.0999999940395,555739.7999999821,7013,WL,C,15.0
4,23.312000036239624,learn,36687.999963760376,Wed Aug 14 2024 17:05:15 GMT-0500 (Central Daylight Time),556408.5,A,lett,O,t,49,1,668.7000000178814,555739.7999999821,7013,WL,C,15.0
4,23.426000118255615,learn,36573.999881744385,Wed Aug 14 2024 17:05:15 GMT-0500 (Central Daylight Time),556522.8999999762,A,lette,O,e,96,1,783.0999999940395,555739.7999999821,7013,WL,C,15.0
4,23.54300022125244,learn,36456.99977874756,Wed Aug 14 2024 17:05:15 GMT-0500 (Central Daylight Time),556639.2999999821,A,letter,O,r,109,1,899.5,555739.7999999821,7013,WL,C,15.0
4,23.776000022888184,learn,36223.99997711182,Wed Aug 14 2024 17:05:15 GMT-0500 (Central Daylight Time),556872.599999994,A,letterenter,O,enter,217,1,1132.800000011921,555739.7999999821,7013,WL,C,15.0
5,0.5160000324249268,learn,60000.0,Wed Aug 14 2024 17:05:15 GMT-0500 (Central Daylight Time),624601.5,A,t,O,t,508,1,516.1000000238419,624085.3999999762,7013,WL,C,1.0
5,0.6159999370574951,learn,60000.0,Wed Aug 14 2024 17:05:15 GMT-0500 (Central Daylight Time),624701.3999999762,A,to,O,o,79,1,616.0,624085.3999999762,7013,WL,C,1.0
5,0.6659998893737793,learn,60000.0,Wed Aug 14 2024 17:05:15 GMT-0500 (Central Daylight Time),624751.3999999762,A,tow,O,w,43,1,666.0,624085.3999999762,7013,WL,C,1.0
5,0.7990000247955322,learn,60000.0,Wed Aug 14 2024 17:05:15 GMT-0500 (Central Daylight Time),624884.5,A,towe,O,e,114,1,799.1000000238419,624085.3999999762,7013,WL,C,1.0
5,0.8829998970031738,learn,60000.0,Wed Aug 14 2024 17:05:15 GMT-0500 (Central Daylight Time),624967.7999999821,A,tower,O,r,76,1,882.4000000059605,624085.3999999762,7013,WL,C,1.0
5,1.0999999046325684,learn,60000.0,Wed Aug 14 2024 17:05:15 GMT-0500 (Central Daylight Time),625184.599999994,A,towerenter,O,enter,209,1,1099.2000000178814,624085.3999999762,7013,WL,C,1.0
5,1.3659999370574951,learn,60000.0,Wed Aug 14 2024 17:05:15 GMT-0500 (Central Daylight Time),625451.0,A,w,O,w,248,1,266.10000002384186,625184.8999999762,7013,WL,C,2.0
5,1.4500000476837158,learn,60000.0,Wed Aug 14 2024 17:05:15 GMT-0500 (Central Daylight Time),625534.599999994,A,wh,O,h,70,1,349.7000000178814,625184.8999999762,7013,WL,C,2.0
5,1.5,learn,60000.0,Wed Aug 14 2024 17:05:15 GMT-0500 (Central Daylight Time),625584.8999999762,A,whe,O,e,42,1,400.0,625184.8999999762,7013,WL,C,2.0
5,1.6329998970031738,learn,60000.0,Wed Aug 14 2024 17:05:15 GMT-0500 (Central Daylight Time),625717.7999999821,A,whea,O,a,120,1,532.9000000059605,625184.8999999762,7013,WL,C,2.0
5,1.749000072479248,learn,60000.0,Wed Aug 14 2024 17:05:15 GMT-0500 (Central Daylight Time),625834.1999999881,A,wheat,O,t,99,1,649.3000000119209,625184.8999999762,7013,WL,C,2.0
5,1.9489998817443848,learn,60000.0,Wed Aug 14 2024 17:05:15 GMT-0500 (Central Daylight Time),626034.2999999821,A,wheatenter,O,enter,182,1,849.4000000059605,625184.8999999762,7013,WL,C,2.0
5,2.3989999294281006,learn,60000.0,Wed Aug 14 2024 17:05:15 GMT-0500 (Central Daylight Time),626483.7999999821,A,q,O,q,438,1,449.19999998807907,626034.599999994,7013,WL,C,3.0
5,2.5160000324249268,learn,60000.0,Wed Aug 14 2024 17:05:15 GMT-0500 (Central Daylight Time),626600.8999999762,A,qu,O,u,100,1,566.2999999821186,626034.599999994,7013,WL,C,3.0
5,2.74399995803833,learn,60000.0,Wed Aug 14 2024 17:05:15 GMT-0500 (Central Daylight Time),626829.0,A,que,O,e,80,1,794.4000000059605,626034.599999994,7013,WL,C,3.0
5,2.8910000324249268,learn,60000.0,Wed Aug 14 2024 17:05:15 GMT-0500 (Central Daylight Time),626976.2999999821,A,quee,O,e,2,1,941.6999999880791,626034.599999994,7013,WL,C,3.0
5,2.9149999618530273,learn,60000.0,Wed Aug 14 2024 17:05:15 GMT-0500 (Central Daylight Time),627000.2999999821,A,queen,O,n,16,1,965.6999999880791,626034.599999994,7013,WL,C,3.0
5,3.315999984741211,learn,60000.0,Wed Aug 14 2024 17:05:15 GMT-0500 (Central Daylight Time),627400.5,A,queenenter,O,enter,384,1,1365.9000000059605,626034.599999994,7013,WL,C,3.0
5,3.5490000247955322,learn,60000.0,Wed Aug 14 2024 17:05:15 GMT-0500 (Central Daylight Time),627633.5,A,s,O,s,216,1,232.60000002384186,627400.8999999762,7013,WL,C,4.0
5,3.631999969482422,learn,60000.0,Wed Aug 14 2024 17:05:15 GMT-0500 (Central Daylight Time),627717.0,A,su,O,u,79,1,316.10000002384186,627400.8999999762,7013,WL,C,4.0
5,3.7319998741149902,learn,60000.0,Wed Aug 14 2024 17:05:15 GMT-0500 (Central Daylight Time),627817.0,A,sug,O,g,84,1,416.10000002384186,627400.8999999762,7013,WL,C,4.0
5,3.865000009536743,learn,60000.0,Wed Aug 14 2024 17:05:15 GMT-0500 (Central Daylight Time),627950.3999999762,A,suga,O,a,120,1,549.5,627400.8999999762,7013,WL,C,4.0
5,3.9819998741149902,learn,60000.0,Wed Aug 14 2024 17:05:15 GMT-0500 (Central Daylight Time),628066.8999999762,A,sugar,O,r,98,1,666.0,627400.8999999762,7013,WL,C,4.0
5,4.247999906539917,learn,60000.0,Wed Aug 14 2024 17:05:15 GMT-0500 (Central Daylight Time),628333.2999999821,A,sugarenter,O,enter,262,1,932.4000000059605,627400.8999999762,7013,WL,C,4.0
5,4.565000057220459,learn,60000.0,Wed Aug 14 2024 17:05:15 GMT-0500 (Central Daylight Time),628650.1999999881,A,c,O,c,307,1,316.59999999403954,628333.599999994,7013,WL,C,5.0
5,4.648000001907349,learn,60000.0,Wed Aug 14 2024 17:05:15 GMT-0500 (Central Daylight Time),628733.2999999821,A,co,O,o,78,1,399.69999998807907,628333.599999994,7013,WL,C,5.0
5,4.815000057220459,learn,60000.0,Wed Aug 14 2024 17:05:15 GMT-0500 (Central Daylight Time),628900.099999994,A,cor,O,r,156,1,566.5,628333.599999994,7013,WL,C,5.0
5,4.914999961853027,learn,60000.0,Wed Aug 14 2024 17:05:15 GMT-0500 (Central Daylight Time),628999.6999999881,A,corn,O,n,92,1,666.0999999940395,628333.599999994,7013,WL,C,5.0
5,5.664999961853027,learn,60000.0,Wed Aug 14 2024 17:05:15 GMT-0500 (Central Daylight Time),629749.599999994,A,cornenter,O,enter,745,1,1416.0,628333.599999994,7013,WL,C,5.0
5,6.247999906539917,learn,60000.0,Wed Aug 14 2024 17:05:15 GMT-0500 (Central Daylight Time),630333.1999999881,A,b,O,b,563,1,583.4000000059605,629749.7999999821,7013,WL,C,6.0
5,6.299000024795532,learn,60000.0,Wed Aug 14 2024 17:05:15 GMT-0500 (Central Daylight Time),630383.5,A,bo,O,o,44,1,633.7000000178814,629749.7999999821,7013,WL,C,6.0
5,6.4649999141693115,learn,60000.0,Wed Aug 14 2024 17:05:15 GMT-0500 (Central Daylight Time),630549.5,A,boy,O,y,161,1,799.7000000178814,629749.7999999821,7013,WL,C,6.0
5,6.763999938964844,learn,60000.0,Wed Aug 14 2024 17:05:15 GMT-0500 (Central Daylight Time),630849.2999999821,A,boyenter,O,enter,283,1,1099.5,629749.7999999821,7013,WL,C,6.0
5,6.997999906539917,learn,60000.0,Wed Aug 14 2024 17:05:15 GMT-0500 (Central Daylight Time),631082.7999999821,A,b,O,b,215,1,233.19999998807907,630849.599999994,7013,WL,C,7.0
5,7.080999851226807,learn,60000.0,Wed Aug 14 2024 17:05:15 GMT-0500 (Central Daylight Time),631165.7999999821,A,bo,O,o,78,1,316.19999998807907,630849.599999994,7013,WL,C,7.0
5,7.247999906539917,learn,60000.0,Wed Aug 14 2024 17:05:15 GMT-0500 (Central Daylight Time),631332.6999999881,A,bod,O,d,155,1,483.09999999403954,630849.599999994,7013,WL,C,7.0
5,7.38100004196167,learn,60000.0,Wed Aug 14 2024 17:05:15 GMT-0500 (Central Daylight Time),631465.7999999821,A,body,O,y,116,1,616.1999999880791,630849.599999994,7013,WL,C,7.0
5,7.797999858856201,learn,60000.0,Wed Aug 14 2024 17:05:15 GMT-0500 (Central Daylight Time),631882.5,A,bodyenter,O,enter,407,1,1032.9000000059605,630849.599999994,7013,WL,C,7.0
5,8.21399998664856,learn,60000.0,Wed Aug 14 2024 17:05:15 GMT-0500 (Central Daylight Time),632299.0,A,d,O,d,397,1,416.0,631883.0,7013,WL,C,8.0
5,8.29699993133545,learn,60000.0,Wed Aug 14 2024 17:05:15 GMT-0500 (Central Daylight Time),632382.099999994,A,do,O,o,78,1,499.09999999403954,631883.0,7013,WL,C,8.0
5,8.397000074386597,learn,60000.0,Wed Aug 14 2024 17:05:15 GMT-0500 (Central Daylight Time),632482.1999999881,A,doc,O,c,91,1,599.1999999880791,631883.0,7013,WL,C,8.0
5,8.579999923706055,learn,60000.0,Wed Aug 14 2024 17:05:15 GMT-0500 (Central Daylight Time),632665.3999999762,A,doct,O,t,167,1,782.3999999761581,631883.0,7013,WL,C,8.0
5,8.680000066757202,learn,60000.0,Wed Aug 14 2024 17:05:15 GMT-0500 (Central Daylight Time),632765.2999999821,A,docto,O,o,95,1,882.2999999821186,631883.0,7013,WL,C,8.0
5,8.77999997138977,learn,60000.0,Wed Aug 14 2024 17:05:15 GMT-0500 (Central Daylight Time),632865.3999999762,A,doctor,O,r,92,1,982.3999999761581,631883.0,7013,WL,C,8.0
5,9.730000019073486,learn,60000.0,Wed Aug 14 2024 17:05:15 GMT-0500 (Central Daylight Time),633815.0,A,doctorenter,O,enter,935,1,1932.0,631883.0,7013,WL,C,8.0
5,11.662999868392944,learn,60000.0,Wed Aug 14 2024 17:05:15 GMT-0500 (Central Daylight Time),635748.099999994,A,n,O,n,1922,1,1932.800000011921,633815.2999999821,7013,WL,C,9.0
5,11.763000011444092,learn,60000.0,Wed Aug 14 2024 17:05:15 GMT-0500 (Central Daylight Time),635847.7999999821,A,na,O,a,92,1,2032.5,633815.2999999821,7013,WL,C,9.0
5,11.879999876022339,learn,60000.0,Wed Aug 14 2024 17:05:15 GMT-0500 (Central Daylight Time),635964.599999994,A,nai,O,i,97,1,2149.300000011921,633815.2999999821,7013,WL,C,9.0
5,11.94599986076355,learn,60000.0,Wed Aug 14 2024 17:05:15 GMT-0500 (Central Daylight Time),636031.0,A,nail,O,l,52,1,2215.7000000178814,633815.2999999821,7013,WL,C,9.0
5,12.228999853134155,learn,60000.0,Wed Aug 14 2024 17:05:15 GMT-0500 (Central Daylight Time),636314.2999999821,A,nailenter,O,enter,273,1,2499.0,633815.2999999821,7013,WL,C,9.0
5,13.36299991607666,learn,60000.0,Wed Aug 14 2024 17:05:15 GMT-0500 (Central Daylight Time),637447.5,A,f,O,f,1126,1,1132.9000000059605,636314.599999994,7013,WL,C,10.0
5,13.44599986076355,learn,60000.0,Wed Aug 14 2024 17:05:15 GMT-0500 (Central Daylight Time),637530.6999999881,A,fl,O,l,73,1,1216.0999999940395,636314.599999994,7013,WL,C,10.0
5,13.595999956130981,learn,60000.0,Wed Aug 14 2024 17:05:15 GMT-0500 (Central Daylight Time),637680.599999994,A,fla,O,a,134,1,1366.0,636314.599999994,7013,WL,C,10.0
5,13.69599986076355,learn,60000.0,Wed Aug 14 2024 17:05:15 GMT-0500 (Central Daylight Time),637780.6999999881,A,flag,O,g,80,1,1466.0999999940395,636314.599999994,7013,WL,C,10.0
5,13.895999908447266,learn,60000.0,Wed Aug 14 2024 17:05:15 GMT-0500 (Central Daylight Time),637980.5,A,flagenter,O,enter,188,1,1665.9000000059605,636314.599999994,7013,WL,C,10.0
5,14.213000059127808,learn,60000.0,Wed Aug 14 2024 17:05:15 GMT-0500 (Central Daylight Time),638297.8999999762,A,l,O,l,308,1,317.09999999403954,637980.7999999821,7013,WL,C,11.0
5,14.296000003814697,learn,60000.0,Wed Aug 14 2024 17:05:15 GMT-0500 (Central Daylight Time),638380.599999994,A,le,O,e,63,1,399.80000001192093,637980.7999999821,7013,WL,C,11.0
5,14.428999900817871,learn,60000.0,Wed Aug 14 2024 17:05:15 GMT-0500 (Central Daylight Time),638513.8999999762,A,let,O,t,124,1,533.0999999940395,637980.7999999821,7013,WL,C,11.0
5,14.562000036239624,learn,60000.0,Wed Aug 14 2024 17:05:15 GMT-0500 (Central Daylight Time),638646.8999999762,A,lett,O,t,119,1,666.0999999940395,637980.7999999821,7013,WL,C,11.0
5,14.644999980926514,learn,60000.0,Wed Aug 14 2024 17:05:15 GMT-0500 (Central Daylight Time),638730.3999999762,A,lette,O,e,74,1,749.5999999940395,637980.7999999821,7013,WL,C,11.0
5,14.76199984550476,learn,60000.0,Wed Aug 14 2024 17:05:15 GMT-0500 (Central Daylight Time),638846.7999999821,A,letter,O,r,110,1,866.0,637980.7999999821,7013,WL,C,11.0
5,14.894999980926514,learn,60000.0,Wed Aug 14 2024 17:05:15 GMT-0500 (Central Daylight Time),638980.1999999881,A,letterenter,O,enter,122,1,999.4000000059605,637980.7999999821,7013,WL,C,11.0
5,15.57800006866455,learn,60000.0,Wed Aug 14 2024 17:05:15 GMT-0500 (Central Daylight Time),639663.1999999881,A,c,O,c,668,1,682.6999999880791,638980.5,7013,WL,C,12.0
5,15.744999885559082,learn,60000.0,Wed Aug 14 2024 17:05:15 GMT-0500 (Central Daylight Time),639829.6999999881,A,ca,O,a,154,1,849.1999999880791,638980.5,7013,WL,C,12.0
5,15.861999988555908,learn,60000.0,Wed Aug 14 2024 17:05:15 GMT-0500 (Central Daylight Time),639946.599999994,A,cat,O,t,99,1,966.0999999940395,638980.5,7013,WL,C,12.0
5,16.01199984550476,learn,60000.0,Wed Aug 14 2024 17:05:15 GMT-0500 (Central Daylight Time),640096.6999999881,A,catt,O,t,134,1,1116.199999988079,638980.5,7013,WL,C,12.0
5,16.09500002861023,learn,60000.0,Wed Aug 14 2024 17:05:15 GMT-0500 (Central Daylight Time),640179.8999999762,A,cattl,O,l,64,1,1199.3999999761581,638980.5,7013,WL,C,12.0
5,16.227999925613403,learn,60000.0,Wed Aug 14 2024 17:05:15 GMT-0500 (Central Daylight Time),640313.099999994,A,cattle,O,e,117,1,1332.5999999940395,638980.5,7013,WL,C,12.0
5,17.277999877929688,learn,60000.0,Wed Aug 14 2024 17:05:15 GMT-0500 (Central Daylight Time),641362.7999999821,A,cattleenter,O,enter,1031,1,2382.2999999821186,638980.5,7013,WL,C,12.0
5,20.359999895095825,learn,60000.0,Wed Aug 14 2024 17:05:15 GMT-0500 (Central Daylight Time),644445.3999999762,A,c,O,c,3062,1,3082.2999999821186,641363.099999994,7013,WL,C,13.0
5,20.47699999809265,learn,60000.0,Wed Aug 14 2024 17:05:15 GMT-0500 (Central Daylight Time),644561.6999999881,A,ca,O,a,107,1,3198.5999999940395,641363.099999994,7013,WL,C,13.0
5,20.609999895095825,learn,60000.0,Wed Aug 14 2024 17:05:15 GMT-0500 (Central Daylight Time),644695.0,A,cam,O,m,119,1,3331.9000000059605,641363.099999994,7013,WL,C,13.0
5,20.759999990463257,learn,60000.0,Wed Aug 14 2024 17:05:15 GMT-0500 (Central Daylight Time),644845.0,A,camp,O,p,138,1,3481.9000000059605,641363.099999994,7013,WL,C,13.0
5,21.842999935150146,learn,60000.0,Wed Aug 14 2024 17:05:15 GMT-0500 (Central Daylight Time),645927.8999999762,A,campenter,O,enter,1076,1,4564.799999982119,641363.099999994,7013,WL,C,13.0
5,23.092999935150146,learn,60000.0,Wed Aug 14 2024 17:05:15 GMT-0500 (Central Daylight Time),647177.599999994,A,f,O,f,1241,1,1249.4000000059605,645928.1999999881,7013,WL,C,14.0
5,23.175999879837036,learn,60000.0,Wed Aug 14 2024 17:05:15 GMT-0500 (Central Daylight Time),647261.0,A,fl,O,l,79,1,1332.800000011921,645928.1999999881,7013,WL,C,14.0
5,23.2260000705719,learn,60000.0,Wed Aug 14 2024 17:05:15 GMT-0500 (Central Daylight Time),647310.7999999821,A,fla,O,a,44,1,1382.5999999940395,645928.1999999881,7013,WL,C,14.0
5,23.375999927520752,learn,60000.0,Wed Aug 14 2024 17:05:15 GMT-0500 (Central Daylight Time),647461.099999994,A,flag,O,g,138,1,1532.9000000059605,645928.1999999881,7013,WL,C,14.0
5,23.575999975204468,learn,60000.0,Wed Aug 14 2024 17:05:15 GMT-0500 (Central Daylight Time),647661.0,A,flagenter,O,enter,179,1,1732.800000011921,645928.1999999881,7013,WL,C,14.0
5,29.924000024795532,learn,60000.0,Wed Aug 14 2024 17:05:15 GMT-0500 (Central Daylight Time),654008.7999999821,A,c,O,c,6329,1,6347.5,647661.2999999821,7013,WL,C,15.0
5,30.056999921798706,learn,60000.0,Wed Aug 14 2024 17:05:15 GMT-0500 (Central Daylight Time),654142.1999999881,A,co,O,o,120,1,6480.9000000059605,647661.2999999821,7013,WL,C,15.0
5,30.2739999294281,learn,60000.0,Wed Aug 14 2024 17:05:15 GMT-0500 (Central Daylight Time),654358.7999999821,A,cor,O,r,210,1,6697.5,647661.2999999821,7013,WL,C,15.0
5,30.374000072479248,learn,60000.0,Wed Aug 14 2024 17:05:15 GMT-0500 (Central Daylight Time),654458.6999999881,A,corn,O,n,82,1,6797.4000000059605,647661.2999999821,7013,WL,C,15.0
5,30.58999991416931,learn,60000.0,Wed Aug 14 2024 17:05:15 GMT-0500 (Central Daylight Time),654675.099999994,A,cornenter,O,enter,206,1,7013.800000011921,647661.2999999821,7013,WL,C,15.0
6,1.1679999828338623,distr,58832.00001716614,Wed Aug 14 2024 17:05:15 GMT-0500 (Central Daylight Time),724671.0,B,m,O,m,1162,1,1167.300000011921,723503.6999999881,7013,WL,C,1.0
6,1.25,distr,58750.0,Wed Aug 14 2024 17:05:15 GMT-0500 (Central Daylight Time),724753.1999999881,B,mo,O,o,65,1,1249.5,723503.6999999881,7013,WL,C,1.0
6,1.3499999046325684,distr,58650.00009536743,Wed Aug 14 2024 17:05:15 GMT-0500 (Central Daylight Time),724853.099999994,B,mon,O,n,80,1,1349.4000000059605,723503.6999999881,7013,WL,C,1.0
6,1.5499999523162842,distr,58450.000047683716,Wed Aug 14 2024 17:05:15 GMT-0500 (Central Daylight Time),725053.099999994,B,mone,O,e,196,1,1549.4000000059605,723503.6999999881,7013,WL,C,1.0
6,1.6329998970031738,distr,58367.000102996826,Wed Aug 14 2024 17:05:15 GMT-0500 (Central Daylight Time),725136.3999999762,B,money,O,y,76,1,1632.699999988079,723503.6999999881,7013,WL,C,1.0
6,1.866999864578247,distr,58133.00013542175,Wed Aug 14 2024 17:05:15 GMT-0500 (Central Daylight Time),725369.7999999821,B,moneyenter,O,enter,216,1,1866.0999999940395,723503.6999999881,7013,WL,C,1.0
6,2.0329999923706055,distr,57967.000007629395,Wed Aug 14 2024 17:05:15 GMT-0500 (Central Daylight Time),725536.5,B,d,O,d,151,1,166.5,725370.0,7013,WL,C,2.0
6,2.132999897003174,distr,57867.000102996826,Wed Aug 14 2024 17:05:15 GMT-0500 (Central Daylight Time),725636.3999999762,B,di,O,i,80,1,266.39999997615814,725370.0,7013,WL,C,2.0
6,2.200000047683716,distr,57799.999952316284,Wed Aug 14 2024 17:05:15 GMT-0500 (Central Daylight Time),725703.2999999821,B,dia,O,a,60,1,333.2999999821186,725370.0,7013,WL,C,2.0
6,2.316999912261963,distr,57683.00008773804,Wed Aug 14 2024 17:05:15 GMT-0500 (Central Daylight Time),725819.8999999762,B,diam,O,m,106,1,449.89999997615814,725370.0,7013,WL,C,2.0
6,2.4170000553131104,distr,57582.99994468689,Wed Aug 14 2024 17:05:15 GMT-0500 (Central Daylight Time),725919.8999999762,B,diamo,O,o,85,1,549.8999999761581,725370.0,7013,WL,C,2.0
6,2.5,distr,57500.0,Wed Aug 14 2024 17:05:15 GMT-0500 (Central Daylight Time),726002.8999999762,B,diamon,O,n,65,1,632.8999999761581,725370.0,7013,WL,C,2.0
6,2.5999999046325684,distr,57400.00009536743,Wed Aug 14 2024 17:05:15 GMT-0500 (Central Daylight Time),726102.6999999881,B,diamond,O,d,94,1,732.6999999880791,725370.0,7013,WL,C,2.0
6,3.4660000801086426,distr,56533.99991989136,Wed Aug 14 2024 17:05:15 GMT-0500 (Central Daylight Time),726969.1999999881,B,diamondenter,O,enter,858,1,1599.199999988079,725370.0,7013,WL,C,2.0
6,3.865999937057495,distr,56134.000062942505,Wed Aug 14 2024 17:05:15 GMT-0500 (Central Daylight Time),727369.2999999821,B,h,O,h,383,1,399.7999999821186,726969.5,7013,WL,C,3.0
6,3.933000087738037,distr,56066.99991226196,Wed Aug 14 2024 17:05:15 GMT-0500 (Central Daylight Time),727435.7999999821,B,ho,O,o,55,1,466.2999999821186,726969.5,7013,WL,C,3.0
6,3.999000072479248,distr,56000.99992752075,Wed Aug 14 2024 17:05:15 GMT-0500 (Central Daylight Time),727502.5,B,hot,O,t,61,1,533.0,726969.5,7013,WL,C,3.0
6,4.115999937057495,distr,55884.000062942505,Wed Aug 14 2024 17:05:15 GMT-0500 (Central Daylight Time),727619.2999999821,B,hote,O,e,98,1,649.7999999821186,726969.5,7013,WL,C,3.0
6,4.233000040054321,distr,55766.99995994568,Wed Aug 14 2024 17:05:15 GMT-0500 (Central Daylight Time),727735.8999999762,B,hotel,O,l,110,1,766.3999999761581,726969.5,7013,WL,C,3.0
6,4.881999969482422,distr,55118.00003051758,Wed Aug 14 2024 17:05:15 GMT-0500 (Central Daylight Time),728385.3999999762,B,hotelenter,O,enter,631,1,1415.8999999761581,726969.5,7013,WL,C,3.0
6,5.216000080108643,distr,54783.99991989136,Wed Aug 14 2024 17:05:15 GMT-0500 (Central Daylight Time),728718.599999994,B,m,O,m,319,1,332.80000001192093,728385.7999999821,7013,WL,C,4.0
6,5.264999866485596,distr,54735.000133514404,Wed Aug 14 2024 17:05:15 GMT-0500 (Central Daylight Time),728768.5,B,mo,O,o,42,1,382.7000000178814,728385.7999999821,7013,WL,C,4.0
6,5.365000009536743,distr,54634.99999046326,Wed Aug 14 2024 17:05:15 GMT-0500 (Central Daylight Time),728868.599999994,B,mot,O,t,80,1,482.80000001192093,728385.7999999821,7013,WL,C,4.0
6,5.466000080108643,distr,54533.99991989136,Wed Aug 14 2024 17:05:15 GMT-0500 (Central Daylight Time),728968.7999999821,B,moth,O,h,84,1,583.0,728385.7999999821,7013,WL,C,4.0
6,5.565000057220459,distr,54434.99994277954,Wed Aug 14 2024 17:05:15 GMT-0500 (Central Daylight Time),729068.5,B,mothe,O,e,79,1,682.7000000178814,728385.7999999821,7013,WL,C,4.0
6,5.664999961853027,distr,54335.00003814697,Wed Aug 14 2024 17:05:15 GMT-0500 (Central Daylight Time),729168.5,B,mother,O,r,92,1,782.7000000178814,728385.7999999821,7013,WL,C,4.0
6,5.764999866485596,distr,54235.000133514404,Wed Aug 14 2024 17:05:15 GMT-0500 (Central Daylight Time),729268.3999999762,B,motherenter,O,enter,79,1,882.5999999940395,728385.7999999821,7013,WL,C,4.0
6,5.948999881744385,distr,54051.000118255615,Wed Aug 14 2024 17:05:15 GMT-0500 (Central Daylight Time),729451.6999999881,B,c,O,c,173,1,182.90000000596046,729268.7999999821,7013,WL,C,5.0
6,6.014999866485596,distr,53985.000133514404,Wed Aug 14 2024 17:05:15 GMT-0500 (Central Daylight Time),729518.5,B,ch,O,h,61,1,249.7000000178814,729268.7999999821,7013,WL,C,5.0
6,6.115000009536743,distr,53884.99999046326,Wed Aug 14 2024 17:05:15 GMT-0500 (Central Daylight Time),729618.099999994,B,chr,O,r,90,1,349.30000001192093,729268.7999999821,7013,WL,C,5.0
6,6.2149999141693115,distr,53785.00008583069,Wed Aug 14 2024 17:05:15 GMT-0500 (Central Daylight Time),729718.5,B,chri,O,i,86,1,449.7000000178814,729268.7999999821,7013,WL,C,5.0
6,6.2820000648498535,distr,53717.99993515015,Wed Aug 14 2024 17:05:15 GMT-0500 (Central Daylight Time),729785.1999999881,B,chris,O,s,58,1,516.4000000059605,729268.7999999821,7013,WL,C,5.0
6,6.381999969482422,distr,53618.00003051758,Wed Aug 14 2024 17:05:15 GMT-0500 (Central Daylight Time),729885.2999999821,B,christ,O,t,95,1,616.5,729268.7999999821,7013,WL,C,5.0
6,6.5320000648498535,distr,53467.99993515015,Wed Aug 14 2024 17:05:15 GMT-0500 (Central Daylight Time),730034.6999999881,B,christm,O,m,140,1,765.9000000059605,729268.7999999821,7013,WL,C,5.0
6,6.631999969482422,distr,53368.00003051758,Wed Aug 14 2024 17:05:15 GMT-0500 (Central Daylight Time),730134.7999999821,B,christma,O,a,94,1,866.0,729268.7999999821,7013,WL,C,5.0
6,6.747999906539917,distr,53252.00009346008,Wed Aug 14 2024 17:05:15 GMT-0500 (Central Daylight Time),730251.599999994,B,christmas,O,s,106,1,982.8000000119209,729268.7999999821,7013,WL,C,5.0
6,7.297999858856201,distr,52702.0001411438,Wed Aug 14 2024 17:05:15 GMT-0500 (Central Daylight Time),730801.3999999762,B,christmasenter,O,enter,541,1,1532.5999999940395,729268.7999999821,7013,WL,C,5.0
6,8.831000089645386,distr,51168.999910354614,Wed Aug 14 2024 17:05:15 GMT-0500 (Central Daylight Time),732334.099999994,B,s,O,s,1527,1,1532.4000000059605,730801.6999999881,7013,WL,C,6.0
6,8.898000001907349,distr,51101.99999809265,Wed Aug 14 2024 17:05:15 GMT-0500 (Central Daylight Time),732400.7999999821,B,sk,O,k,58,1,1599.0999999940395,730801.6999999881,7013,WL,C,6.0
6,9.063999891281128,distr,50936.00010871887,Wed Aug 14 2024 17:05:15 GMT-0500 (Central Daylight Time),732567.2999999821,B,sky,O,y,160,1,1765.5999999940395,730801.6999999881,7013,WL,C,6.0
6,9.480999946594238,distr,50519.00005340576,Wed Aug 14 2024 17:05:15 GMT-0500 (Central Daylight Time),732984.0,B,skyenter,O,enter,402,1,2182.300000011921,730801.6999999881,7013,WL,C,6.0
6,9.730999946594238,distr,50269.00005340576,Wed Aug 14 2024 17:05:15 GMT-0500 (Central Daylight Time),733234.0,B,v,O,v,241,1,249.7000000178814,732984.2999999821,7013,WL,C,7.0
6,9.897000074386597,distr,50102.9999256134,Wed Aug 14 2024 17:05:15 GMT-0500 (Central Daylight Time),733400.2999999821,B,va,O,a,159,1,416.0,732984.2999999821,7013,WL,C,7.0
6,10.013999938964844,distr,49986.000061035156,Wed Aug 14 2024 17:05:15 GMT-0500 (Central Daylight Time),733517.0,B,val,O,l,104,1,532.7000000178814,732984.2999999821,7013,WL,C,7.0
6,10.13100004196167,distr,49868.99995803833,Wed Aug 14 2024 17:05:15 GMT-0500 (Central Daylight Time),733634.0,B,vall,O,l,108,1,649.7000000178814,732984.2999999821,7013,WL,C,7.0
6,10.38100004196167,distr,49618.99995803833,Wed Aug 14 2024 17:05:15 GMT-0500 (Central Daylight Time),733883.6999999881,B,valle,O,e,231,1,899.4000000059605,732984.2999999821,7013,WL,C,7.0
6,10.480999946594238,distr,49519.00005340576,Wed Aug 14 2024 17:05:15 GMT-0500 (Central Daylight Time),733983.6999999881,B,valley,O,y,93,1,999.4000000059605,732984.2999999821,7013,WL,C,7.0
6,10.879999876022339,distr,49120.00012397766,Wed Aug 14 2024 17:05:15 GMT-0500 (Central Daylight Time),734383.599999994,B,valleyenter,O,enter,385,1,1399.300000011921,732984.2999999821,7013,WL,C,7.0
6,11.079999923706055,distr,48920.000076293945,Wed Aug 14 2024 17:05:15 GMT-0500 (Central Daylight Time),734583.5,B,f,O,f,193,1,199.5,734384.0,7013,WL,C,8.0
6,11.629999876022339,distr,48370.00012397766,Wed Aug 14 2024 17:05:15 GMT-0500 (Central Daylight Time),735133.3999999762,B,fo,O,o,529,1,749.3999999761581,734384.0,7013,WL,C,8.0
6,11.763999938964844,distr,48236.000061035156,Wed Aug 14 2024 17:05:15 GMT-0500 (Central Daylight Time),735266.6999999881,B,for,O,r,123,1,882.6999999880791,734384.0,7013,WL,C,8.0
6,11.829999923706055,distr,48170.000076293945,Wed Aug 14 2024 17:05:15 GMT-0500 (Central Daylight Time),735333.2999999821,B,fore,O,e,62,1,949.2999999821186,734384.0,7013,WL,C,8.0
6,11.94700002670288,distr,48052.99997329712,Wed Aug 14 2024 17:05:15 GMT-0500 (Central Daylight Time),735449.7999999821,B,fores,O,s,107,1,1065.7999999821186,734384.0,7013,WL,C,8.0
6,12.096999883651733,distr,47903.00011634827,Wed Aug 14 2024 17:05:15 GMT-0500 (Central Daylight Time),735599.6999999881,B,forest,O,t,142,1,1215.699999988079,734384.0,7013,WL,C,8.0
6,12.79699993133545,distr,47203.00006866455,Wed Aug 14 2024 17:05:15 GMT-0500 (Central Daylight Time),736299.7999999821,B,forestenter,O,enter,681,1,1915.7999999821186,734384.0,7013,WL,C,8.0
6,14.19599986076355,distr,45804.00013923645,Wed Aug 14 2024 17:05:15 GMT-0500 (Central Daylight Time),737699.1999999881,B,p,O,p,1389,1,1399.0,736300.1999999881,7013,WL,C,9.0
6,14.395999908447266,distr,45604.000091552734,Wed Aug 14 2024 17:05:15 GMT-0500 (Central Daylight Time),737899.099999994,B,pl,O,l,182,1,1598.9000000059605,736300.1999999881,7013,WL,C,9.0
6,14.479000091552734,distr,45520.999908447266,Wed Aug 14 2024 17:05:15 GMT-0500 (Central Daylight Time),737982.5,B,pla,O,a,69,1,1682.300000011921,736300.1999999881,7013,WL,C,9.0
6,14.578999996185303,distr,45421.0000038147,Wed Aug 14 2024 17:05:15 GMT-0500 (Central Daylight Time),738082.1999999881,B,plan,O,n,82,1,1782.0,736300.1999999881,7013,WL,C,9.0
6,14.69599986076355,distr,45304.00013923645,Wed Aug 14 2024 17:05:15 GMT-0500 (Central Daylight Time),738199.099999994,B,plant,O,t,111,1,1898.9000000059605,736300.1999999881,7013,WL,C,9.0
6,14.911999940872192,distr,45088.00005912781,Wed Aug 14 2024 17:05:15 GMT-0500 (Central Daylight Time),738415.6999999881,B,plantenter,O,enter,209,1,2115.5,736300.1999999881,7013,WL,C,9.0
6,22.07699990272522,distr,37923.00009727478,Wed Aug 14 2024 17:05:15 GMT-0500 (Central Daylight Time),745579.7999999821,B,t,O,t,7145,1,7163.799999982119,738416.0,7013,WL,C,10.0
6,22.210000038146973,distr,37789.99996185303,Wed Aug 14 2024 17:05:15 GMT-0500 (Central Daylight Time),745713.1999999881,B,to,O,o,117,1,7297.199999988079,738416.0,7013,WL,C,10.0
6,22.32699990272522,distr,37673.00009727478,Wed Aug 14 2024 17:05:15 GMT-0500 (Central Daylight Time),745829.7999999821,B,too,O,o,111,1,7413.799999982119,738416.0,7013,WL,C,10.0
6,22.509999990463257,distr,37490.00000953674,Wed Aug 14 2024 17:05:15 GMT-0500 (Central Daylight Time),746013.1999999881,B,tool,O,l,179,1,7597.199999988079,738416.0,7013,WL,C,10.0
6,22.743000030517578,distr,37256.99996948242,Wed Aug 14 2024 17:05:15 GMT-0500 (Central Daylight Time),746246.5,B,toolenter,O,enter,228,1,7830.5,738416.0,7013,WL,C,10.0
6,60.014999866485596,distr,-14.999866485595703,Wed Aug 14 2024 17:05:15 GMT-0500 (Central Daylight Time),783518.599999994,B,None,O,None,37267,1,37271.70000001788,746246.8999999762,7013,WL,C,11.0
7,1.065999984741211,immed,58934.00001525879,Wed Aug 14 2024 17:05:15 GMT-0500 (Central Daylight Time),799829.6999999881,A,t,O,t,1054,1,1066.199999988079,798763.5,7013,WL,C,1.0
7,1.249000072479248,immed,58750.99992752075,Wed Aug 14 2024 17:05:15 GMT-0500 (Central Daylight Time),800012.8999999762,A,to,O,o,162,1,1249.3999999761581,798763.5,7013,WL,C,1.0
7,1.3489999771118164,immed,58651.00002288818,Wed Aug 14 2024 17:05:15 GMT-0500 (Central Daylight Time),800113.0,A,tow,O,w,92,1,1349.5,798763.5,7013,WL,C,1.0
7,1.4830000400543213,immed,58516.99995994568,Wed Aug 14 2024 17:05:15 GMT-0500 (Central Daylight Time),800246.1999999881,A,towe,O,e,128,1,1482.699999988079,798763.5,7013,WL,C,1.0
7,1.5820000171661377,immed,58417.99998283386,Wed Aug 14 2024 17:05:15 GMT-0500 (Central Daylight Time),800346.099999994,A,tower,O,r,82,1,1582.5999999940395,798763.5,7013,WL,C,1.0
7,1.8659999370574951,immed,58134.000062942505,Wed Aug 14 2024 17:05:15 GMT-0500 (Central Daylight Time),800629.3999999762,A,towerenter,O,enter,279,1,1865.8999999761581,798763.5,7013,WL,C,1.0
7,2.115999937057495,immed,57884.000062942505,Wed Aug 14 2024 17:05:15 GMT-0500 (Central Daylight Time),800879.2999999821,A,w,O,w,236,1,249.59999999403954,800629.6999999881,7013,WL,C,2.0
7,2.2319998741149902,immed,57768.00012588501,Wed Aug 14 2024 17:05:15 GMT-0500 (Central Daylight Time),800996.099999994,A,wh,O,h,97,1,366.40000000596046,800629.6999999881,7013,WL,C,2.0
7,2.381999969482422,immed,57618.00003051758,Wed Aug 14 2024 17:05:15 GMT-0500 (Central Daylight Time),801145.8999999762,A,whe,O,e,141,1,516.1999999880791,800629.6999999881,7013,WL,C,2.0
7,2.565999984741211,immed,57434.00001525879,Wed Aug 14 2024 17:05:15 GMT-0500 (Central Daylight Time),801329.1999999881,A,whea,O,a,175,1,699.5,800629.6999999881,7013,WL,C,2.0
7,2.7319998741149902,immed,57268.00012588501,Wed Aug 14 2024 17:05:15 GMT-0500 (Central Daylight Time),801496.0,A,wheat,O,t,151,1,866.3000000119209,800629.6999999881,7013,WL,C,2.0
7,3.1989998817443848,immed,56801.000118255615,Wed Aug 14 2024 17:05:15 GMT-0500 (Central Daylight Time),801962.2999999821,A,wheatenter,O,enter,449,1,1332.5999999940395,800629.6999999881,7013,WL,C,2.0
7,3.499000072479248,immed,56500.99992752075,Wed Aug 14 2024 17:05:15 GMT-0500 (Central Daylight Time),802262.2999999821,A,q,O,q,286,1,299.69999998807907,801962.599999994,7013,WL,C,3.0
7,3.631999969482422,immed,56368.00003051758,Wed Aug 14 2024 17:05:15 GMT-0500 (Central Daylight Time),802395.599999994,A,qu,O,u,122,1,433.0,801962.599999994,7013,WL,C,3.0
7,3.7649998664855957,immed,56235.000133514404,Wed Aug 14 2024 17:05:15 GMT-0500 (Central Daylight Time),802529.099999994,A,que,O,e,125,1,566.5,801962.599999994,7013,WL,C,3.0
7,3.9149999618530273,immed,56085.00003814697,Wed Aug 14 2024 17:05:15 GMT-0500 (Central Daylight Time),802678.7999999821,A,quee,O,e,136,1,716.1999999880791,801962.599999994,7013,WL,C,3.0
7,4.164999961853027,immed,55835.00003814697,Wed Aug 14 2024 17:05:15 GMT-0500 (Central Daylight Time),802928.6999999881,A,queen,O,n,234,1,966.0999999940395,801962.599999994,7013,WL,C,3.0
7,5.247999906539917,immed,54752.00009346008,Wed Aug 14 2024 17:05:15 GMT-0500 (Central Daylight Time),804011.599999994,A,queenenter,O,enter,1063,1,2049.0,801962.599999994,7013,WL,C,3.0
7,6.398000001907349,immed,53601.99999809265,Wed Aug 14 2024 17:05:15 GMT-0500 (Central Daylight Time),805161.2999999821,A,b,O,b,1133,1,1149.5,804011.7999999821,7013,WL,C,4.0
7,6.46399998664856,immed,53536.00001335144,Wed Aug 14 2024 17:05:15 GMT-0500 (Central Daylight Time),805227.7999999821,A,bo,O,o,47,1,1216.0,804011.7999999821,7013,WL,C,4.0
7,6.5980000495910645,immed,53401.999950408936,Wed Aug 14 2024 17:05:15 GMT-0500 (Central Daylight Time),805361.3999999762,A,boy,O,y,125,1,1349.5999999940395,804011.7999999821,7013,WL,C,4.0
7,6.8480000495910645,immed,53151.999950408936,Wed Aug 14 2024 17:05:15 GMT-0500 (Central Daylight Time),805611.1999999881,A,boyenter,O,enter,239,1,1599.4000000059605,804011.7999999821,7013,WL,C,4.0
7,7.0980000495910645,immed,52901.999950408936,Wed Aug 14 2024 17:05:15 GMT-0500 (Central Daylight Time),805861.2999999821,A,b,O,b,237,1,249.7999999821186,805611.5,7013,WL,C,5.0
7,7.197999954223633,immed,52802.00004577637,Wed Aug 14 2024 17:05:15 GMT-0500 (Central Daylight Time),805961.1999999881,A,bo,O,o,91,1,349.69999998807907,805611.5,7013,WL,C,5.0
7,7.364000082015991,immed,52635.99991798401,Wed Aug 14 2024 17:05:15 GMT-0500 (Central Daylight Time),806127.6999999881,A,bod,O,d,159,1,516.1999999880791,805611.5,7013,WL,C,5.0
7,7.513999938964844,immed,52486.000061035156,Wed Aug 14 2024 17:05:15 GMT-0500 (Central Daylight Time),806277.599999994,A,body,O,y,136,1,666.0999999940395,805611.5,7013,WL,C,5.0
7,7.796999931335449,immed,52203.00006866455,Wed Aug 14 2024 17:05:15 GMT-0500 (Central Daylight Time),806560.8999999762,A,bodyenter,O,enter,275,1,949.3999999761581,805611.5,7013,WL,C,5.0
7,8.147000074386597,immed,51852.9999256134,Wed Aug 14 2024 17:05:15 GMT-0500 (Central Daylight Time),806910.8999999762,A,d,O,d,343,1,349.39999997615814,806561.5,7013,WL,C,6.0
7,8.579999923706055,immed,51420.000076293945,Wed Aug 14 2024 17:05:15 GMT-0500 (Central Daylight Time),807344.0,A,do,O,o,426,1,782.5,806561.5,7013,WL,C,6.0
7,8.746999979019165,immed,51253.000020980835,Wed Aug 14 2024 17:05:15 GMT-0500 (Central Daylight Time),807510.599999994,A,doc,O,c,152,1,949.0999999940395,806561.5,7013,WL,C,6.0
7,8.94700002670288,immed,51052.99997329712,Wed Aug 14 2024 17:05:15 GMT-0500 (Central Daylight Time),807710.6999999881,A,doct,O,t,194,1,1149.199999988079,806561.5,7013,WL,C,6.0
7,9.063999891281128,immed,50936.00010871887,Wed Aug 14 2024 17:05:15 GMT-0500 (Central Daylight Time),807827.2999999821,A,docto,O,o,106,1,1265.7999999821186,806561.5,7013,WL,C,6.0
7,9.162999868392944,immed,50837.000131607056,Wed Aug 14 2024 17:05:15 GMT-0500 (Central Daylight Time),807927.0,A,doctor,O,r,93,1,1365.5,806561.5,7013,WL,C,6.0
7,9.345999956130981,immed,50654.00004386902,Wed Aug 14 2024 17:05:15 GMT-0500 (Central Daylight Time),808110.0,A,doctorenter,O,enter,178,1,1548.5,806561.5,7013,WL,C,6.0
7,9.61299991607666,immed,50387.00008392334,Wed Aug 14 2024 17:05:15 GMT-0500 (Central Daylight Time),808376.8999999762,A,c,O,c,259,1,266.69999998807907,808110.1999999881,7013,WL,C,7.0
7,9.730000019073486,immed,50269.999980926514,Wed Aug 14 2024 17:05:15 GMT-0500 (Central Daylight Time),808493.599999994,A,ca,O,a,112,1,383.40000000596046,808110.1999999881,7013,WL,C,7.0
7,9.829999923706055,immed,50170.000076293945,Wed Aug 14 2024 17:05:15 GMT-0500 (Central Daylight Time),808593.6999999881,A,cam,O,m,83,1,483.5,808110.1999999881,7013,WL,C,7.0
7,9.947999954223633,immed,50052.00004577637,Wed Aug 14 2024 17:05:15 GMT-0500 (Central Daylight Time),808711.1999999881,A,camp,O,p,111,1,601.0,808110.1999999881,7013,WL,C,7.0
7,10.263000011444092,immed,49736.99998855591,Wed Aug 14 2024 17:05:15 GMT-0500 (Central Daylight Time),809026.7999999821,A,campenter,O,enter,297,1,916.5999999940395,808110.1999999881,7013,WL,C,7.0
7,10.52999997138977,immed,49470.00002861023,Wed Aug 14 2024 17:05:15 GMT-0500 (Central Daylight Time),809293.5,A,f,O,f,246,1,266.40000000596046,809027.099999994,7013,WL,C,8.0
7,10.629999876022339,immed,49370.00012397766,Wed Aug 14 2024 17:05:15 GMT-0500 (Central Daylight Time),809393.1999999881,A,fl,O,l,91,1,366.09999999403954,809027.099999994,7013,WL,C,8.0
7,10.746000051498413,immed,49253.99994850159,Wed Aug 14 2024 17:05:15 GMT-0500 (Central Daylight Time),809509.8999999762,A,fla,O,a,112,1,482.7999999821186,809027.099999994,7013,WL,C,8.0
7,10.912999868392944,immed,49087.000131607056,Wed Aug 14 2024 17:05:15 GMT-0500 (Central Daylight Time),809676.599999994,A,flag,O,g,155,1,649.5,809027.099999994,7013,WL,C,8.0
7,12.029000043869019,immed,47970.99995613098,Wed Aug 14 2024 17:05:15 GMT-0500 (Central Daylight Time),810792.8999999762,A,flagenter,O,enter,1100,1,1765.7999999821186,809027.099999994,7013,WL,C,8.0
7,12.878999948501587,immed,47121.00005149841,Wed Aug 14 2024 17:05:15 GMT-0500 (Central Daylight Time),811642.8999999762,A,s,O,s,832,1,849.6999999880791,810793.1999999881,7013,WL,C,9.0
7,13.111999988555908,immed,46888.00001144409,Wed Aug 14 2024 17:05:15 GMT-0500 (Central Daylight Time),811875.8999999762,A,su,O,u,222,1,1082.699999988079,810793.1999999881,7013,WL,C,9.0
7,13.229000091552734,immed,46770.999908447266,Wed Aug 14 2024 17:05:15 GMT-0500 (Central Daylight Time),811992.7999999821,A,sug,O,g,108,1,1199.5999999940395,810793.1999999881,7013,WL,C,9.0
7,13.395999908447266,immed,46604.000091552734,Wed Aug 14 2024 17:05:15 GMT-0500 (Central Daylight Time),812159.1999999881,A,suga,O,a,160,1,1366.0,810793.1999999881,7013,WL,C,9.0
7,13.578999996185303,immed,46421.0000038147,Wed Aug 14 2024 17:05:15 GMT-0500 (Central Daylight Time),812342.3999999762,A,sugar,O,r,170,1,1549.199999988079,810793.1999999881,7013,WL,C,9.0
7,13.944999933242798,immed,46055.0000667572,Wed Aug 14 2024 17:05:15 GMT-0500 (Central Daylight Time),812708.7999999821,A,sugarenter,O,enter,354,1,1915.5999999940395,810793.1999999881,7013,WL,C,9.0
7,14.295000076293945,immed,45704.999923706055,Wed Aug 14 2024 17:05:15 GMT-0500 (Central Daylight Time),813059.0,A,c,O,c,332,1,350.0,812709.0,7013,WL,C,10.0
7,14.378000020980835,immed,45621.999979019165,Wed Aug 14 2024 17:05:15 GMT-0500 (Central Daylight Time),813142.0,A,co,O,o,77,1,433.0,812709.0,7013,WL,C,10.0
7,14.529000043869019,immed,45470.99995613098,Wed Aug 14 2024 17:05:15 GMT-0500 (Central Daylight Time),813292.1999999881,A,cor,O,r,131,1,583.1999999880791,812709.0,7013,WL,C,10.0
7,14.628999948501587,immed,45371.00005149841,Wed Aug 14 2024 17:05:15 GMT-0500 (Central Daylight Time),813392.2999999821,A,corn,O,n,92,1,683.2999999821186,812709.0,7013,WL,C,10.0
7,15.227999925613403,immed,44772.0000743866,Wed Aug 14 2024 17:05:15 GMT-0500 (Central Daylight Time),813991.8999999762,A,cornenter,O,enter,584,1,1282.8999999761581,812709.0,7013,WL,C,10.0
7,15.810999870300293,immed,44189.00012969971,Wed Aug 14 2024 17:05:15 GMT-0500 (Central Daylight Time),814575.0,A,c,O,c,577,1,582.8000000119209,813992.1999999881,7013,WL,C,11.0
7,16.01200008392334,immed,43987.99991607666,Wed Aug 14 2024 17:05:15 GMT-0500 (Central Daylight Time),814776.0,A,ca,O,a,194,1,783.8000000119209,813992.1999999881,7013,WL,C,11.0
7,16.111000061035156,immed,43888.999938964844,Wed Aug 14 2024 17:05:15 GMT-0500 (Central Daylight Time),814874.7999999821,A,cat,O,t,81,1,882.5999999940395,813992.1999999881,7013,WL,C,11.0
7,16.277999877929688,immed,43722.00012207031,Wed Aug 14 2024 17:05:15 GMT-0500 (Central Daylight Time),815041.5,A,catt,O,t,150,1,1049.300000011921,813992.1999999881,7013,WL,C,11.0
7,16.491999864578247,immed,43508.00013542175,Wed Aug 14 2024 17:05:15 GMT-0500 (Central Daylight Time),815255.8999999762,A,cattl,O,l,210,1,1263.699999988079,813992.1999999881,7013,WL,C,11.0
7,16.51099991798401,immed,43489.00008201599,Wed Aug 14 2024 17:05:15 GMT-0500 (Central Daylight Time),815274.3999999762,A,cattle,O,e,9,1,1282.199999988079,813992.1999999881,7013,WL,C,11.0
7,17.51099991798401,immed,42489.00008201599,Wed Aug 14 2024 17:05:15 GMT-0500 (Central Daylight Time),816274.5,A,cattleenter,O,enter,983,1,2282.300000011921,813992.1999999881,7013,WL,C,11.0
7,20.41000008583069,immed,39589.99991416931,Wed Aug 14 2024 17:05:15 GMT-0500 (Central Daylight Time),819173.5,A,l,O,l,2894,1,2898.7000000178814,816274.7999999821,7013,WL,C,12.0
7,20.526999950408936,immed,39473.000049591064,Wed Aug 14 2024 17:05:15 GMT-0500 (Central Daylight Time),819290.2999999821,A,le,O,e,99,1,3015.5,816274.7999999821,7013,WL,C,12.0
7,20.693000078201294,immed,39306.999921798706,Wed Aug 14 2024 17:05:15 GMT-0500 (Central Daylight Time),819457.099999994,A,let,O,t,151,1,3182.300000011921,816274.7999999821,7013,WL,C,12.0
7,20.825999975204468,immed,39174.00002479553,Wed Aug 14 2024 17:05:15 GMT-0500 (Central Daylight Time),819590.0,A,lett,O,t,128,1,3315.2000000178814,816274.7999999821,7013,WL,C,12.0
7,20.925999879837036,immed,39074.000120162964,Wed Aug 14 2024 17:05:15 GMT-0500 (Central Daylight Time),819690.0,A,lette,O,e,91,1,3415.2000000178814,816274.7999999821,7013,WL,C,12.0
7,21.042999982833862,immed,38957.00001716614,Wed Aug 14 2024 17:05:15 GMT-0500 (Central Daylight Time),819806.7999999821,A,letter,O,r,111,1,3532.0,816274.7999999821,7013,WL,C,12.0
7,21.276000022888184,immed,38723.99997711182,Wed Aug 14 2024 17:05:15 GMT-0500 (Central Daylight Time),820040.0,A,letterenter,O,enter,226,1,3765.2000000178814,816274.7999999821,7013,WL,C,12.0
7,21.792999982833862,immed,38207.00001716614,Wed Aug 14 2024 17:05:15 GMT-0500 (Central Daylight Time),820556.599999994,A,n,O,n,496,1,516.4000000059605,820040.1999999881,7013,WL,C,13.0
