acc_sum,block,block_c,change,condition,correct,correct_response,datetime,endtime,face,project,response,response_time,row_sel,session_number,start_end,starttime,subject_id,task,task_vers,trial
0,prac,1,,1-Back,,,Tue Mar 10 2026 13:59:42 GMT-0500 (Central Daylight Time),,050_m_f_n_a.png,O,space,13833,1,1,,,7775,NNB,A,0
1,prac,1,0.0,1-Back,1.0,m,Tue Mar 10 2026 13:59:42 GMT-0500 (Central Daylight Time),202521.90000000596,063_y_f_n_a.png,O,m,722,2,1,1523.2000000029802,200998.70000000298,7775,NNB,A,1
2,prac,1,1.0,1-Back,1.0,z,Tue Mar 10 2026 13:59:42 GMT-0500 (Central Daylight Time),204437.90000000596,063_y_f_n_a.png,O,z,1137,3,1,1909.1000000089407,202528.79999999702,7775,NNB,A,2
3,prac,1,0.0,1-Back,1.0,m,Tue Mar 10 2026 13:59:42 GMT-0500 (Central Daylight Time),206220.60000000894,053_o_m_n_a.png,O,m,969,4,1,1775.6000000089407,204445.0,7775,NNB,A,3
4,prac,1,0.0,1-Back,1.0,m,Tue Mar 10 2026 13:59:42 GMT-0500 (Central Daylight Time),208406.10000000894,058_m_m_n_a.png,O,m,1388,5,1,2178.6000000089407,206227.5,7775,NNB,A,4
5,prac,1,1.0,1-Back,1.0,z,Tue Mar 10 2026 13:59:42 GMT-0500 (Central Daylight Time),210152.40000000596,058_m_m_n_a.png,O,z,955,6,1,1738.2999999970198,208414.10000000894,7775,NNB,A,5
6,prac,1,0.0,1-Back,1.0,m,Tue Mar 10 2026 13:59:42 GMT-0500 (Central Daylight Time),212102.0,047_o_f_n_a.png,O,m,1113,7,1,1942.7000000029802,210159.29999999702,7775,NNB,A,6
7,prac,1,0.0,1-Back,1.0,m,Tue Mar 10 2026 13:59:42 GMT-0500 (Central Daylight Time),214134.60000000894,045_m_m_n_a.png,O,m,1220,8,1,2026.2000000029802,212108.40000000596,7775,NNB,A,7
8,prac,1,0.0,1-Back,1.0,m,Tue Mar 10 2026 13:59:42 GMT-0500 (Central Daylight Time),216200.79999999702,050_m_f_n_a.png,O,m,1284,9,1,2059.3999999910593,214141.40000000596,7775,NNB,A,8
9,prac,1,1.0,1-Back,1.0,z,Tue Mar 10 2026 13:59:42 GMT-0500 (Central Daylight Time),218616.5,050_m_f_n_a.png,O,z,1627,10,1,2409.3999999910593,216207.10000000894,7775,NNB,A,9
10,prac,1,0.0,1-Back,1.0,m,Tue Mar 10 2026 13:59:42 GMT-0500 (Central Daylight Time),220549.29999999702,053_o_m_n_a.png,O,m,1154,11,1,1926.0999999940395,218623.20000000298,7775,NNB,A,10
11,prac,1,0.0,1-Back,1.0,m,Tue Mar 10 2026 13:59:42 GMT-0500 (Central Daylight Time),222715.29999999702,010_y_f_n_a.png,O,m,1329,12,1,2158.8999999910593,220556.40000000596,7775,NNB,A,11
0,test,1,0.0,1-Back,,,Tue Mar 10 2026 13:59:42 GMT-0500 (Central Daylight Time),222715.29999999702,063_y_f_n_a.png,O,space,5064,1,1,2158.8999999910593,220556.40000000596,7775,NNB,A,0
1,test,1,0.0,1-Back,1.0,m,Tue Mar 10 2026 13:59:42 GMT-0500 (Central Daylight Time),238660.5,043_m_f_n_a.png,O,m,1830,2,1,2844.5999999940395,235815.90000000596,7775,NNB,A,1
2,test,1,0.0,1-Back,1.0,m,Tue Mar 10 2026 13:59:42 GMT-0500 (Central Daylight Time),241509.5,010_y_f_n_a.png,O,m,1821,3,1,2845.3999999910593,238664.10000000894,7775,NNB,A,2
3,test,1,1.0,1-Back,1.0,z,Tue Mar 10 2026 13:59:42 GMT-0500 (Central Daylight Time),243408.79999999702,010_y_f_n_a.png,O,z,876,4,1,1895.7999999970198,241513.0,7775,NNB,A,3
4,test,1,0.0,1-Back,1.0,m,Tue Mar 10 2026 13:59:42 GMT-0500 (Central Daylight Time),245491.5,043_m_f_n_a.png,O,m,1065,5,1,2078.8999999910593,243412.60000000894,7775,NNB,A,4
5,test,1,0.0,1-Back,1.0,m,Tue Mar 10 2026 13:59:42 GMT-0500 (Central Daylight Time),247257.70000000298,053_o_m_n_a.png,O,m,749,6,1,1761.7999999970198,245495.90000000596,7775,NNB,A,5
6,test,1,1.0,1-Back,1.0,z,Tue Mar 10 2026 13:59:42 GMT-0500 (Central Daylight Time),248957.10000000894,053_o_m_n_a.png,O,z,672,7,1,1694.800000011921,247262.29999999702,7775,NNB,A,6
7,test,1,0.0,1-Back,1.0,m,Tue Mar 10 2026 13:59:42 GMT-0500 (Central Daylight Time),250806.40000000596,058_m_m_n_a.png,O,m,828,8,1,1845.2999999970198,248961.10000000894,7775,NNB,A,7
8,test,1,0.0,1-Back,1.0,m,Tue Mar 10 2026 13:59:42 GMT-0500 (Central Daylight Time),252905.79999999702,047_o_f_n_a.png,O,m,1075,9,1,2094.7999999970198,250811.0,7775,NNB,A,8
9,test,1,0.0,1-Back,1.0,m,Tue Mar 10 2026 13:59:42 GMT-0500 (Central Daylight Time),254988.5,058_m_m_n_a.png,O,m,1063,10,1,2078.2000000029802,252910.29999999702,7775,NNB,A,9
10,test,1,0.0,1-Back,1.0,m,Tue Mar 10 2026 13:59:42 GMT-0500 (Central Daylight Time),256821.20000000298,041_y_m_n_a.png,O,m,805,11,1,1828.0999999940395,254993.10000000894,7775,NNB,A,10
11,test,1,1.0,1-Back,1.0,z,Tue Mar 10 2026 13:59:42 GMT-0500 (Central Daylight Time),258803.79999999702,041_y_m_n_a.png,O,z,956,12,1,1978.8999999910593,256824.90000000596,7775,NNB,A,11
12,test,1,0.0,1-Back,1.0,m,Tue Mar 10 2026 13:59:42 GMT-0500 (Central Daylight Time),260653.60000000894,044_o_f_n_a.png,O,m,821,13,1,1845.6000000089407,258808.0,7775,NNB,A,12
13,test,1,1.0,1-Back,1.0,z,Tue Mar 10 2026 13:59:42 GMT-0500 (Central Daylight Time),262735.90000000596,044_o_f_n_a.png,O,z,1060,14,1,2077.7999999970198,260658.10000000894,7775,NNB,A,13
14,test,1,0.0,1-Back,1.0,m,Tue Mar 10 2026 13:59:42 GMT-0500 (Central Daylight Time),264635.299999997,008_y_m_n_a.png,O,m,881,15,1,1894.5,262740.799999997,7775,NNB,A,14
15,test,1,0.0,1-Back,1.0,m,Tue Mar 10 2026 13:59:42 GMT-0500 (Central Daylight Time),266818.0,050_m_f_n_a.png,O,m,1166,16,1,2178.5,264639.5,7775,NNB,A,15
16,test,1,0.0,1-Back,1.0,m,Tue Mar 10 2026 13:59:42 GMT-0500 (Central Daylight Time),269067.5,046_o_m_n_a.png,O,m,1230,17,1,2245.2000000029802,266822.299999997,7775,NNB,A,16
17,test,1,0.0,1-Back,1.0,m,Tue Mar 10 2026 13:59:42 GMT-0500 (Central Daylight Time),271483.10000000894,050_m_f_n_a.png,O,m,1389,18,1,2412.0,269071.10000000894,7775,NNB,A,17
0,test,2,0.0,1-Back,,,Tue Mar 10 2026 13:59:42 GMT-0500 (Central Daylight Time),271483.10000000894,058_m_m_n_a.png,O,space,5837,1,1,2412.0,269071.10000000894,7775,NNB,A,0
1,test,2,0.0,1-Back,1.0,m,Tue Mar 10 2026 13:59:42 GMT-0500 (Central Daylight Time),281180.40000000596,043_m_f_n_a.png,O,m,814,2,1,1827.1000000089407,279353.299999997,7775,NNB,A,1
2,test,2,1.0,1-Back,1.0,z,Tue Mar 10 2026 13:59:42 GMT-0500 (Central Daylight Time),282996.60000000894,043_m_f_n_a.png,O,z,789,3,1,1811.300000011921,281185.299999997,7775,NNB,A,2
3,test,2,0.0,1-Back,1.0,m,Tue Mar 10 2026 13:59:42 GMT-0500 (Central Daylight Time),284796.0,058_m_m_n_a.png,O,m,772,4,1,1794.3999999910593,283001.60000000894,7775,NNB,A,3
4,test,2,0.0,1-Back,1.0,m,Tue Mar 10 2026 13:59:42 GMT-0500 (Central Daylight Time),287161.90000000596,041_y_m_n_a.png,O,m,1332,5,1,2361.6000000089407,284800.299999997,7775,NNB,A,4
5,test,2,0.0,1-Back,1.0,m,Tue Mar 10 2026 13:59:42 GMT-0500 (Central Daylight Time),289394.10000000894,063_y_f_n_a.png,O,m,1214,6,1,2228.800000011921,287165.299999997,7775,NNB,A,5
6,test,2,1.0,1-Back,1.0,z,Tue Mar 10 2026 13:59:42 GMT-0500 (Central Daylight Time),291177.200000003,063_y_f_n_a.png,O,z,750,7,1,1778.5,289398.700000003,7775,NNB,A,6
7,test,2,0.0,1-Back,1.0,m,Tue Mar 10 2026 13:59:42 GMT-0500 (Central Daylight Time),293093.200000003,041_y_m_n_a.png,O,m,895,8,1,1911.7999999970198,291181.40000000596,7775,NNB,A,7
8,test,2,0.0,1-Back,1.0,m,Tue Mar 10 2026 13:59:42 GMT-0500 (Central Daylight Time),294926.0,044_o_f_n_a.png,O,m,804,9,1,1827.7999999970198,293098.200000003,7775,NNB,A,8
9,test,2,0.0,1-Back,1.0,m,Tue Mar 10 2026 13:59:42 GMT-0500 (Central Daylight Time),296892.200000003,045_m_m_n_a.png,O,m,938,10,1,1961.7000000029802,294930.5,7775,NNB,A,9
10,test,2,1.0,1-Back,1.0,z,Tue Mar 10 2026 13:59:42 GMT-0500 (Central Daylight Time),298758.299999997,045_m_m_n_a.png,O,z,837,11,1,1861.699999988079,296896.60000000894,7775,NNB,A,10
11,test,2,0.0,1-Back,1.0,m,Tue Mar 10 2026 13:59:42 GMT-0500 (Central Daylight Time),300524.40000000596,044_o_f_n_a.png,O,m,747,12,1,1762.0,298762.40000000596,7775,NNB,A,11
12,test,2,0.0,1-Back,1.0,m,Tue Mar 10 2026 13:59:42 GMT-0500 (Central Daylight Time),302436.799999997,047_o_f_n_a.png,O,m,836,13,1,1908.199999988079,300528.60000000894,7775,NNB,A,12
13,test,2,0.0,1-Back,1.0,m,Tue Mar 10 2026 13:59:42 GMT-0500 (Central Daylight Time),304457.5,053_o_m_n_a.png,O,m,984,14,1,2016.2000000029802,302441.299999997,7775,NNB,A,13
14,test,2,0.0,1-Back,1.0,m,Tue Mar 10 2026 13:59:42 GMT-0500 (Central Daylight Time),306456.90000000596,046_o_m_n_a.png,O,m,968,15,1,1994.4000000059605,304462.5,7775,NNB,A,14
15,test,2,1.0,1-Back,1.0,z,Tue Mar 10 2026 13:59:42 GMT-0500 (Central Daylight Time),308455.10000000894,046_o_m_n_a.png,O,z,970,16,1,1994.0,306461.10000000894,7775,NNB,A,15
16,test,2,0.0,1-Back,1.0,m,Tue Mar 10 2026 13:59:42 GMT-0500 (Central Daylight Time),310487.90000000596,008_y_m_n_a.png,O,m,1002,17,1,2028.4000000059605,308459.5,7775,NNB,A,16
17,test,2,1.0,1-Back,1.0,z,Tue Mar 10 2026 13:59:42 GMT-0500 (Central Daylight Time),312303.90000000596,008_y_m_n_a.png,O,z,794,18,1,1812.2000000029802,310491.700000003,7775,NNB,A,17
0,test,3,1.0,1-Back,,,Tue Mar 10 2026 13:59:42 GMT-0500 (Central Daylight Time),312303.90000000596,010_y_f_n_a.png,O,space,3041,1,1,1812.2000000029802,310491.700000003,7775,NNB,A,0
1,test,3,0.0,1-Back,1.0,m,Tue Mar 10 2026 13:59:42 GMT-0500 (Central Daylight Time),319068.60000000894,046_o_m_n_a.png,O,m,630,2,1,1643.1000000089407,317425.5,7775,NNB,A,1
2,test,3,1.0,1-Back,1.0,z,Tue Mar 10 2026 13:59:42 GMT-0500 (Central Daylight Time),321151.200000003,046_o_m_n_a.png,O,z,1061,3,1,2078.9000000059605,319072.299999997,7775,NNB,A,2
3,test,3,0.0,1-Back,1.0,m,Tue Mar 10 2026 13:59:42 GMT-0500 (Central Daylight Time),323200.40000000596,050_m_f_n_a.png,O,m,1016,4,1,2044.7999999970198,321155.60000000894,7775,NNB,A,3
4,test,3,1.0,1-Back,1.0,z,Tue Mar 10 2026 13:59:42 GMT-0500 (Central Daylight Time),326144.60000000894,050_m_f_n_a.png,O,z,1927,5,1,2939.800000011921,323204.799999997,7775,NNB,A,4
5,test,3,0.0,1-Back,1.0,m,Tue Mar 10 2026 13:59:42 GMT-0500 (Central Daylight Time),327948.90000000596,044_o_f_n_a.png,O,m,772,6,1,1799.2000000029802,326149.700000003,7775,NNB,A,5
6,test,3,0.0,1-Back,1.0,m,Tue Mar 10 2026 13:59:42 GMT-0500 (Central Daylight Time),329815.10000000894,041_y_m_n_a.png,O,m,837,7,1,1862.300000011921,327952.799999997,7775,NNB,A,6
7,test,3,0.0,1-Back,1.0,m,Tue Mar 10 2026 13:59:42 GMT-0500 (Central Daylight Time),331731.10000000894,044_o_f_n_a.png,O,m,898,8,1,1911.4000000059605,329819.700000003,7775,NNB,A,7
8,test,3,0.0,1-Back,1.0,m,Tue Mar 10 2026 13:59:42 GMT-0500 (Central Daylight Time),333514.0,008_y_m_n_a.png,O,m,757,9,1,1778.5999999940395,331735.40000000596,7775,NNB,A,8
9,test,3,1.0,1-Back,1.0,z,Tue Mar 10 2026 13:59:42 GMT-0500 (Central Daylight Time),335180.10000000894,008_y_m_n_a.png,O,z,647,10,1,1662.1000000089407,333518.0,7775,NNB,A,9
10,test,3,0.0,1-Back,1.0,m,Tue Mar 10 2026 13:59:42 GMT-0500 (Central Daylight Time),337312.799999997,043_m_f_n_a.png,O,m,1100,11,1,2128.2999999970198,335184.5,7775,NNB,A,10
11,test,3,0.0,1-Back,1.0,m,Tue Mar 10 2026 13:59:42 GMT-0500 (Central Daylight Time),339545.5,063_y_f_n_a.png,O,m,1200,12,1,2228.0,337317.5,7775,NNB,A,11
12,test,3,1.0,1-Back,1.0,z,Tue Mar 10 2026 13:59:42 GMT-0500 (Central Daylight Time),341611.700000003,063_y_f_n_a.png,O,z,1040,13,1,2061.4000000059605,339550.299999997,7775,NNB,A,12
13,test,3,0.0,1-Back,1.0,m,Tue Mar 10 2026 13:59:42 GMT-0500 (Central Daylight Time),343477.5,043_m_f_n_a.png,O,m,846,14,1,1861.2000000029802,341616.299999997,7775,NNB,A,13
14,test,3,0.0,1-Back,1.0,m,Tue Mar 10 2026 13:59:42 GMT-0500 (Central Daylight Time),345443.200000003,058_m_m_n_a.png,O,m,948,15,1,1960.5999999940395,343482.60000000894,7775,NNB,A,14
15,test,3,1.0,1-Back,1.0,z,Tue Mar 10 2026 13:59:42 GMT-0500 (Central Daylight Time),347376.10000000894,058_m_m_n_a.png,O,z,909,16,1,1928.7000000029802,345447.40000000596,7775,NNB,A,15
16,test,3,0.0,1-Back,1.0,m,Tue Mar 10 2026 13:59:42 GMT-0500 (Central Daylight Time),349225.299999997,047_o_f_n_a.png,O,m,816,17,1,1844.699999988079,347380.60000000894,7775,NNB,A,16
17,test,3,1.0,1-Back,1.0,z,Tue Mar 10 2026 13:59:42 GMT-0500 (Central Daylight Time),351574.799999997,047_o_f_n_a.png,O,z,1319,18,1,2345.5,349229.299999997,7775,NNB,A,17
0,test,4,1.0,1-Back,,,Tue Mar 10 2026 13:59:42 GMT-0500 (Central Daylight Time),351574.799999997,050_m_f_n_a.png,O,space,2890,1,1,2345.5,349229.299999997,7775,NNB,A,0
1,test,4,0.0,1-Back,1.0,m,Tue Mar 10 2026 13:59:42 GMT-0500 (Central Daylight Time),358289.60000000894,046_o_m_n_a.png,O,m,767,2,1,1794.6000000089407,356495.0,7775,NNB,A,1
2,test,4,0.0,1-Back,1.0,m,Tue Mar 10 2026 13:59:42 GMT-0500 (Central Daylight Time),360455.40000000596,050_m_f_n_a.png,O,m,1135,3,1,2161.5,358293.90000000596,7775,NNB,A,2
3,test,4,0.0,1-Back,1.0,m,Tue Mar 10 2026 13:59:42 GMT-0500 (Central Daylight Time),362339.40000000596,044_o_f_n_a.png,O,m,865,4,1,1880.5,360458.90000000596,7775,NNB,A,3
4,test,4,1.0,1-Back,1.0,z,Tue Mar 10 2026 13:59:42 GMT-0500 (Central Daylight Time),364304.60000000894,044_o_f_n_a.png,O,z,936,5,1,1961.1000000089407,362343.5,7775,NNB,A,4
5,test,4,0.0,1-Back,1.0,m,Tue Mar 10 2026 13:59:42 GMT-0500 (Central Daylight Time),366203.799999997,063_y_f_n_a.png,O,m,872,6,1,1894.8999999910593,364308.90000000596,7775,NNB,A,5
6,test,4,0.0,1-Back,1.0,m,Tue Mar 10 2026 13:59:42 GMT-0500 (Central Daylight Time),368003.0,041_y_m_n_a.png,O,m,782,7,1,1793.7999999970198,366209.200000003,7775,NNB,A,6
7,test,4,1.0,1-Back,1.0,z,Tue Mar 10 2026 13:59:42 GMT-0500 (Central Daylight Time),369919.200000003,041_y_m_n_a.png,O,z,894,8,1,1912.0,368007.200000003,7775,NNB,A,7
8,test,4,0.0,1-Back,1.0,m,Tue Mar 10 2026 13:59:42 GMT-0500 (Central Daylight Time),371918.799999997,063_y_f_n_a.png,O,m,978,9,1,1996.0,369922.799999997,7775,NNB,A,8
9,test,4,0.0,1-Back,1.0,m,Tue Mar 10 2026 13:59:42 GMT-0500 (Central Daylight Time),374101.299999997,045_m_m_n_a.png,O,m,1161,10,1,2178.2999999970198,371923.0,7775,NNB,A,9
10,test,4,1.0,1-Back,1.0,z,Tue Mar 10 2026 13:59:42 GMT-0500 (Central Daylight Time),375900.799999997,045_m_m_n_a.png,O,z,780,11,1,1795.7999999970198,374105.0,7775,NNB,A,10
11,test,4,0.0,1-Back,1.0,m,Tue Mar 10 2026 13:59:42 GMT-0500 (Central Daylight Time),377616.799999997,047_o_f_n_a.png,O,m,693,12,1,1712.2999999970198,375904.5,7775,NNB,A,11
12,test,4,0.0,1-Back,1.0,m,Tue Mar 10 2026 13:59:42 GMT-0500 (Central Daylight Time),379433.200000003,053_o_m_n_a.png,O,m,793,13,1,1811.5999999940395,377621.60000000894,7775,NNB,A,12
13,test,4,0.0,1-Back,1.0,m,Tue Mar 10 2026 13:59:42 GMT-0500 (Central Daylight Time),381482.299999997,047_o_f_n_a.png,O,m,1024,14,1,2043.699999988079,379438.60000000894,7775,NNB,A,13
14,test,4,0.0,1-Back,1.0,m,Tue Mar 10 2026 13:59:42 GMT-0500 (Central Daylight Time),383548.10000000894,010_y_f_n_a.png,O,m,1039,15,1,2061.6000000089407,381486.5,7775,NNB,A,14
15,test,4,1.0,1-Back,1.0,z,Tue Mar 10 2026 13:59:42 GMT-0500 (Central Daylight Time),386014.299999997,010_y_f_n_a.png,O,z,1445,16,1,2461.5999999940395,383552.700000003,7775,NNB,A,15
16,test,4,0.0,1-Back,1.0,m,Tue Mar 10 2026 13:59:42 GMT-0500 (Central Daylight Time),387963.5,043_m_f_n_a.png,O,m,931,17,1,1945.7000000029802,386017.799999997,7775,NNB,A,16
17,test,4,1.0,1-Back,1.0,z,Tue Mar 10 2026 13:59:42 GMT-0500 (Central Daylight Time),390179.5,043_m_f_n_a.png,O,z,1197,18,1,2212.2000000029802,387967.299999997,7775,NNB,A,17
0,test,5,1.0,1-Back,,,Tue Mar 10 2026 13:59:42 GMT-0500 (Central Daylight Time),390179.5,053_o_m_n_a.png,O,space,2685,1,1,2212.2000000029802,387967.299999997,7775,NNB,A,0
1,test,5,1.0,1-Back,1.0,z,Tue Mar 10 2026 13:59:42 GMT-0500 (Central Daylight Time),396888.90000000596,053_o_m_n_a.png,O,z,977,2,1,1989.1000000089407,394899.799999997,7775,NNB,A,1
2,test,5,0.0,1-Back,1.0,m,Tue Mar 10 2026 13:59:42 GMT-0500 (Central Daylight Time),398976.799999997,063_y_f_n_a.png,O,m,1050,3,1,2083.5,396893.299999997,7775,NNB,A,2
3,test,5,0.0,1-Back,1.0,m,Tue Mar 10 2026 13:59:42 GMT-0500 (Central Daylight Time),400726.299999997,041_y_m_n_a.png,O,m,728,4,1,1745.2999999970198,398981.0,7775,NNB,A,3
4,test,5,0.0,1-Back,1.0,m,Tue Mar 10 2026 13:59:42 GMT-0500 (Central Daylight Time),403108.799999997,063_y_f_n_a.png,O,m,1354,5,1,2378.0999999940395,400730.700000003,7775,NNB,A,4
5,test,5,0.0,1-Back,1.0,m,Tue Mar 10 2026 13:59:42 GMT-0500 (Central Daylight Time),405074.5,058_m_m_n_a.png,O,m,949,6,1,1961.2999999970198,403113.200000003,7775,NNB,A,5
6,test,5,1.0,1-Back,1.0,z,Tue Mar 10 2026 13:59:42 GMT-0500 (Central Daylight Time),406807.700000003,058_m_m_n_a.png,O,z,702,7,1,1729.5999999940395,405078.10000000894,7775,NNB,A,6
7,test,5,0.0,1-Back,1.0,m,Tue Mar 10 2026 13:59:42 GMT-0500 (Central Daylight Time),409007.0,010_y_f_n_a.png,O,m,1169,8,1,2195.0999999940395,406811.90000000596,7775,NNB,A,7
8,test,5,0.0,1-Back,1.0,m,Tue Mar 10 2026 13:59:42 GMT-0500 (Central Daylight Time),410739.799999997,008_y_m_n_a.png,O,m,714,9,1,1728.7999999970198,409011.0,7775,NNB,A,8
9,test,5,0.0,1-Back,1.0,m,Tue Mar 10 2026 13:59:42 GMT-0500 (Central Daylight Time),412655.799999997,010_y_f_n_a.png,O,m,886,10,1,1911.5,410744.299999997,7775,NNB,A,9
10,test,5,0.0,1-Back,1.0,m,Tue Mar 10 2026 13:59:42 GMT-0500 (Central Daylight Time),414538.299999997,047_o_f_n_a.png,O,m,865,11,1,1878.3999999910593,412659.90000000596,7775,NNB,A,10
11,test,5,1.0,1-Back,1.0,z,Tue Mar 10 2026 13:59:42 GMT-0500 (Central Daylight Time),416938.0,047_o_f_n_a.png,O,z,1375,12,1,2396.0999999940395,414541.90000000596,7775,NNB,A,11
12,test,5,0.0,1-Back,1.0,m,Tue Mar 10 2026 13:59:42 GMT-0500 (Central Daylight Time),418804.0,046_o_m_n_a.png,O,m,847,13,1,1862.0,416942.0,7775,NNB,A,12
13,test,5,0.0,1-Back,1.0,m,Tue Mar 10 2026 13:59:42 GMT-0500 (Central Daylight Time),420836.60000000894,050_m_f_n_a.png,O,m,1005,14,1,2029.1000000089407,418807.5,7775,NNB,A,13
14,test,5,1.0,1-Back,1.0,z,Tue Mar 10 2026 13:59:42 GMT-0500 (Central Daylight Time),423385.700000003,050_m_f_n_a.png,O,z,1524,15,1,2545.5,420840.200000003,7775,NNB,A,14
15,test,5,0.0,1-Back,1.0,m,Tue Mar 10 2026 13:59:42 GMT-0500 (Central Daylight Time),425068.60000000894,046_o_m_n_a.png,O,m,655,16,1,1679.0,423389.60000000894,7775,NNB,A,15
16,test,5,0.0,1-Back,1.0,m,Tue Mar 10 2026 13:59:42 GMT-0500 (Central Daylight Time),426884.799999997,043_m_f_n_a.png,O,m,797,17,1,1812.2999999970198,425072.5,7775,NNB,A,16
17,test,5,0.0,1-Back,1.0,m,Tue Mar 10 2026 13:59:42 GMT-0500 (Central Daylight Time),428800.799999997,045_m_m_n_a.png,O,m,892,18,1,1912.0,426888.799999997,7775,NNB,A,17
0,prac,1,0.0,2-Back,,,Tue Mar 10 2026 13:59:42 GMT-0500 (Central Daylight Time),428800.799999997,008_y_m_n_a.png,O,space,6609,1,1,1912.0,426888.799999997,7775,NNB,A,0
0,prac,1,0.0,2-Back,,,Tue Mar 10 2026 13:59:42 GMT-0500 (Central Daylight Time),428800.799999997,043_m_f_n_a.png,O,space,6609,2,1,1912.0,426888.799999997,7775,NNB,A,0
0,prac,1,1.0,2-Back,0.0,m,Tue Mar 10 2026 13:59:42 GMT-0500 (Central Daylight Time),582153.0,046_o_m_n_a.png,O,None,2001,3,1,2792.0999999940395,579360.900000006,7775,NNB,A,1
1,prac,1,0.0,2-Back,1.0,m,Tue Mar 10 2026 13:59:42 GMT-0500 (Central Daylight Time),584752.200000003,047_o_f_n_a.png,O,m,1768,4,1,2592.2000000029802,582160.0,7775,NNB,A,2
2,prac,1,0.0,2-Back,1.0,z,Tue Mar 10 2026 13:59:42 GMT-0500 (Central Daylight Time),586701.5,046_o_m_n_a.png,O,z,1163,5,1,1942.5,584759.0,7775,NNB,A,3
2,prac,1,1.0,2-Back,0.0,z,Tue Mar 10 2026 13:59:42 GMT-0500 (Central Daylight Time),589017.5,047_o_f_n_a.png,O,m,1533,6,1,2309.0999999940395,586708.400000006,7775,NNB,A,4
3,prac,1,0.0,2-Back,1.0,m,Tue Mar 10 2026 13:59:42 GMT-0500 (Central Daylight Time),591416.700000003,045_m_m_n_a.png,O,m,1586,7,1,2392.4000000059605,589024.299999997,7775,NNB,A,5
3,prac,1,0.0,2-Back,0.0,m,Tue Mar 10 2026 13:59:42 GMT-0500 (Central Daylight Time),594232.400000006,053_o_m_n_a.png,O,None,2016,8,1,2807.7999999970198,591424.6000000089,7775,NNB,A,6
3,prac,1,0.0,2-Back,0.0,m,Tue Mar 10 2026 13:59:42 GMT-0500 (Central Daylight Time),597065.0,010_y_f_n_a.png,O,None,2005,9,1,2825.3999999910593,594239.6000000089,7775,NNB,A,7
3,prac,1,1.0,2-Back,0.0,z,Tue Mar 10 2026 13:59:42 GMT-0500 (Central Daylight Time),599847.200000003,053_o_m_n_a.png,O,None,2009,10,1,2775.4000000059605,597071.799999997,7775,NNB,A,8
4,prac,1,0.0,2-Back,1.0,m,Tue Mar 10 2026 13:59:42 GMT-0500 (Central Daylight Time),602330.1000000089,063_y_f_n_a.png,O,m,1673,11,1,2475.800000011921,599854.299999997,7775,NNB,A,9
4,prac,1,0.0,2-Back,0.0,m,Tue Mar 10 2026 13:59:42 GMT-0500 (Central Daylight Time),604613.400000006,045_m_m_n_a.png,O,z,1505,12,1,2276.4000000059605,602337.0,7775,NNB,A,10
0,test,1,0.0,2-Back,,,Tue Mar 10 2026 13:59:42 GMT-0500 (Central Daylight Time),604613.400000006,041_y_m_n_a.png,O,space,4215,1,1,2276.4000000059605,602337.0,7775,NNB,A,0
0,test,1,0.0,2-Back,,,Tue Mar 10 2026 13:59:42 GMT-0500 (Central Daylight Time),604613.400000006,041_y_m_n_a.png,O,space,4215,2,1,2276.4000000059605,602337.0,7775,NNB,A,0
1,test,1,0.0,2-Back,1.0,m,Tue Mar 10 2026 13:59:42 GMT-0500 (Central Daylight Time),650332.700000003,047_o_f_n_a.png,O,m,783,3,1,1795.9000000059605,648536.799999997,7775,NNB,A,1
1,test,1,0.0,2-Back,0.0,m,Tue Mar 10 2026 13:59:42 GMT-0500 (Central Daylight Time),653364.1000000089,058_m_m_n_a.png,O,None,2015,4,1,3026.9000000059605,650337.200000003,7775,NNB,A,2
2,test,1,1.0,2-Back,1.0,z,Tue Mar 10 2026 13:59:42 GMT-0500 (Central Daylight Time),655713.400000006,047_o_f_n_a.png,O,z,1316,5,1,2345.9000000059605,653367.5,7775,NNB,A,3
2,test,1,0.0,2-Back,0.0,m,Tue Mar 10 2026 13:59:42 GMT-0500 (Central Daylight Time),658745.700000003,063_y_f_n_a.png,O,None,2016,6,1,3028.2000000029802,655717.5,7775,NNB,A,4
3,test,1,0.0,2-Back,1.0,m,Tue Mar 10 2026 13:59:42 GMT-0500 (Central Daylight Time),661644.700000003,058_m_m_n_a.png,O,m,1872,7,1,2894.7000000029802,658750.0,7775,NNB,A,5
4,test,1,1.0,2-Back,1.0,z,Tue Mar 10 2026 13:59:42 GMT-0500 (Central Daylight Time),663911.900000006,063_y_f_n_a.png,O,z,1244,8,1,2262.9000000059605,661649.0,7775,NNB,A,6
4,test,1,0.0,2-Back,0.0,m,Tue Mar 10 2026 13:59:42 GMT-0500 (Central Daylight Time),666943.299999997,008_y_m_n_a.png,O,None,2016,9,1,3027.7999999970198,663915.5,7775,NNB,A,7
5,test,1,0.0,2-Back,1.0,m,Tue Mar 10 2026 13:59:42 GMT-0500 (Central Daylight Time),669025.900000006,044_o_f_n_a.png,O,m,1049,10,1,2078.6000000089407,666947.299999997,7775,NNB,A,8
6,test,1,1.0,2-Back,1.0,z,Tue Mar 10 2026 13:59:42 GMT-0500 (Central Daylight Time),670993.0,008_y_m_n_a.png,O,z,936,11,1,1962.7999999970198,669030.200000003,7775,NNB,A,9
7,test,1,0.0,2-Back,1.0,m,Tue Mar 10 2026 13:59:42 GMT-0500 (Central Daylight Time),673291.200000003,043_m_f_n_a.png,O,m,1274,12,1,2294.4000000059605,670996.799999997,7775,NNB,A,10
8,test,1,0.0,2-Back,1.0,m,Tue Mar 10 2026 13:59:42 GMT-0500 (Central Daylight Time),675773.400000006,043_m_f_n_a.png,O,m,1453,13,1,2478.7000000029802,673294.700000003,7775,NNB,A,11
9,test,1,0.0,2-Back,1.0,m,Tue Mar 10 2026 13:59:42 GMT-0500 (Central Daylight Time),678106.299999997,046_o_m_n_a.png,O,m,1316,14,1,2328.0999999940395,675778.200000003,7775,NNB,A,12
10,test,1,0.0,2-Back,1.0,m,Tue Mar 10 2026 13:59:42 GMT-0500 (Central Daylight Time),680539.900000006,044_o_f_n_a.png,O,m,1415,15,1,2429.9000000059605,678110.0,7775,NNB,A,13
11,test,1,1.0,2-Back,1.0,z,Tue Mar 10 2026 13:59:42 GMT-0500 (Central Daylight Time),682304.799999997,046_o_m_n_a.png,O,z,742,16,1,1760.3999999910593,680544.400000006,7775,NNB,A,14
12,test,1,0.0,2-Back,1.0,m,Tue Mar 10 2026 13:59:42 GMT-0500 (Central Daylight Time),684420.799999997,050_m_f_n_a.png,O,m,1089,17,1,2112.199999988079,682308.6000000089,7775,NNB,A,15
13,test,1,0.0,2-Back,1.0,m,Tue Mar 10 2026 13:59:42 GMT-0500 (Central Daylight Time),687036.6000000089,045_m_m_n_a.png,O,m,1596,18,1,2611.6000000089407,684425.0,7775,NNB,A,16
0,test,2,0.0,2-Back,,,Tue Mar 10 2026 13:59:42 GMT-0500 (Central Daylight Time),687036.6000000089,045_m_m_n_a.png,O,space,9461,1,1,2611.6000000089407,684425.0,7775,NNB,A,0
0,test,2,0.0,2-Back,,,Tue Mar 10 2026 13:59:42 GMT-0500 (Central Daylight Time),687036.6000000089,010_y_f_n_a.png,O,space,9461,2,1,2611.6000000089407,684425.0,7775,NNB,A,0
1,test,2,1.0,2-Back,1.0,z,Tue Mar 10 2026 13:59:42 GMT-0500 (Central Daylight Time),703464.900000006,045_m_m_n_a.png,O,z,833,3,1,1862.0,701602.900000006,7775,NNB,A,1
2,test,2,0.0,2-Back,1.0,m,Tue Mar 10 2026 13:59:42 GMT-0500 (Central Daylight Time),705531.1000000089,050_m_f_n_a.png,O,m,1039,4,1,2062.5,703468.6000000089,7775,NNB,A,2
2,test,2,0.0,2-Back,0.0,m,Tue Mar 10 2026 13:59:42 GMT-0500 (Central Daylight Time),707780.299999997,010_y_f_n_a.png,O,z,1230,5,1,2245.199999988079,705535.1000000089,7775,NNB,A,3
3,test,2,0.0,2-Back,1.0,m,Tue Mar 10 2026 13:59:42 GMT-0500 (Central Daylight Time),709964.200000003,046_o_m_n_a.png,O,m,1157,6,1,2179.7000000029802,707784.5,7775,NNB,A,4
3,test,2,0.0,2-Back,0.0,m,Tue Mar 10 2026 13:59:42 GMT-0500 (Central Daylight Time),712862.0,063_y_f_n_a.png,O,z,1878,7,1,2893.5999999940395,709968.400000006,7775,NNB,A,5
3,test,2,1.0,2-Back,0.0,z,Tue Mar 10 2026 13:59:42 GMT-0500 (Central Daylight Time),715894.299999997,046_o_m_n_a.png,O,None,2015,8,1,3026.8999999910593,712867.400000006,7775,NNB,A,6
4,test,2,0.0,2-Back,1.0,m,Tue Mar 10 2026 13:59:42 GMT-0500 (Central Daylight Time),717993.700000003,008_y_m_n_a.png,O,m,1075,9,1,2095.4000000059605,715898.299999997,7775,NNB,A,7
5,test,2,0.0,2-Back,1.0,m,Tue Mar 10 2026 13:59:42 GMT-0500 (Central Daylight Time),720444.1000000089,008_y_m_n_a.png,O,m,1432,10,1,2446.7000000029802,717997.400000006,7775,NNB,A,8
6,test,2,0.0,2-Back,1.0,m,Tue Mar 10 2026 13:59:42 GMT-0500 (Central Daylight Time),722859.400000006,043_m_f_n_a.png,O,m,1391,11,1,2411.1000000089407,720448.299999997,7775,NNB,A,9
7,test,2,0.0,2-Back,1.0,m,Tue Mar 10 2026 13:59:42 GMT-0500 (Central Daylight Time),725326.0,010_y_f_n_a.png,O,m,1437,12,1,2462.7999999970198,722863.200000003,7775,NNB,A,10
8,test,2,1.0,2-Back,1.0,z,Tue Mar 10 2026 13:59:42 GMT-0500 (Central Daylight Time),727257.400000006,043_m_f_n_a.png,O,z,900,13,1,1927.7999999970198,725329.6000000089,7775,NNB,A,11
9,test,2,0.0,2-Back,1.0,m,Tue Mar 10 2026 13:59:42 GMT-0500 (Central Daylight Time),729423.299999997,053_o_m_n_a.png,O,m,1144,14,1,2162.199999988079,727261.1000000089,7775,NNB,A,12
10,test,2,0.0,2-Back,1.0,m,Tue Mar 10 2026 13:59:42 GMT-0500 (Central Daylight Time),732222.5,053_o_m_n_a.png,O,m,1778,15,1,2795.5999999940395,729426.900000006,7775,NNB,A,13
11,test,2,0.0,2-Back,1.0,m,Tue Mar 10 2026 13:59:42 GMT-0500 (Central Daylight Time),734188.700000003,044_o_f_n_a.png,O,m,939,16,1,1962.2999999970198,732226.400000006,7775,NNB,A,14
12,test,2,0.0,2-Back,1.0,m,Tue Mar 10 2026 13:59:42 GMT-0500 (Central Daylight Time),736471.299999997,058_m_m_n_a.png,O,m,1253,17,1,2278.2999999970198,734193.0,7775,NNB,A,15
13,test,2,1.0,2-Back,1.0,z,Tue Mar 10 2026 13:59:42 GMT-0500 (Central Daylight Time),738220.799999997,044_o_f_n_a.png,O,z,730,18,1,1745.5999999940395,736475.200000003,7775,NNB,A,16
0,test,3,1.0,2-Back,,,Tue Mar 10 2026 13:59:42 GMT-0500 (Central Daylight Time),738220.799999997,041_y_m_n_a.png,O,space,7885,1,1,1745.5999999940395,736475.200000003,7775,NNB,A,0
0,test,3,1.0,2-Back,,,Tue Mar 10 2026 13:59:42 GMT-0500 (Central Daylight Time),738220.799999997,041_y_m_n_a.png,O,space,7885,2,1,1745.5999999940395,736475.200000003,7775,NNB,A,0
1,test,3,0.0,2-Back,1.0,m,Tue Mar 10 2026 13:59:42 GMT-0500 (Central Daylight Time),752915.900000006,044_o_f_n_a.png,O,m,714,3,1,1728.2000000029802,751187.700000003,7775,NNB,A,1
2,test,3,0.0,2-Back,1.0,m,Tue Mar 10 2026 13:59:42 GMT-0500 (Central Daylight Time),755481.900000006,045_m_m_n_a.png,O,m,1541,4,1,2562.4000000059605,752919.5,7775,NNB,A,2
3,test,3,1.0,2-Back,1.0,z,Tue Mar 10 2026 13:59:42 GMT-0500 (Central Daylight Time),757148.299999997,044_o_f_n_a.png,O,z,647,5,1,1662.3999999910593,755485.900000006,7775,NNB,A,3
4,test,3,0.0,2-Back,1.0,m,Tue Mar 10 2026 13:59:42 GMT-0500 (Central Daylight Time),759264.200000003,008_y_m_n_a.png,O,m,1085,6,1,2112.0,757152.200000003,7775,NNB,A,4
4,test,3,0.0,2-Back,0.0,m,Tue Mar 10 2026 13:59:42 GMT-0500 (Central Daylight Time),760913.900000006,045_m_m_n_a.png,O,z,625,7,1,1645.7000000029802,759268.200000003,7775,NNB,A,5
4,test,3,1.0,2-Back,0.0,z,Tue Mar 10 2026 13:59:42 GMT-0500 (Central Daylight Time),763712.799999997,008_y_m_n_a.png,O,m,1768,8,1,2794.8999999910593,760917.900000006,7775,NNB,A,6
5,test,3,0.0,2-Back,1.0,m,Tue Mar 10 2026 13:59:42 GMT-0500 (Central Daylight Time),765878.799999997,010_y_f_n_a.png,O,m,1136,9,1,2161.8999999910593,763716.900000006,7775,NNB,A,7
6,test,3,0.0,2-Back,1.0,m,Tue Mar 10 2026 13:59:42 GMT-0500 (Central Daylight Time),767811.400000006,058_m_m_n_a.png,O,m,907,10,1,1929.1000000089407,765882.299999997,7775,NNB,A,8
7,test,3,1.0,2-Back,1.0,z,Tue Mar 10 2026 13:59:42 GMT-0500 (Central Daylight Time),769827.6000000089,010_y_f_n_a.png,O,z,991,11,1,2011.800000011921,767815.799999997,7775,NNB,A,9
8,test,3,1.0,2-Back,1.0,z,Tue Mar 10 2026 13:59:42 GMT-0500 (Central Daylight Time),772226.6000000089,058_m_m_n_a.png,O,z,1382,12,1,2394.9000000059605,769831.700000003,7775,NNB,A,10
9,test,3,0.0,2-Back,1.0,m,Tue Mar 10 2026 13:59:42 GMT-0500 (Central Daylight Time),774442.6000000089,044_o_f_n_a.png,O,m,1191,13,1,2212.0,772230.6000000089,7775,NNB,A,11
10,test,3,0.0,2-Back,1.0,m,Tue Mar 10 2026 13:59:42 GMT-0500 (Central Daylight Time),776375.400000006,050_m_f_n_a.png,O,m,903,14,1,1929.2000000029802,774446.200000003,7775,NNB,A,12
11,test,3,0.0,2-Back,1.0,m,Tue Mar 10 2026 13:59:42 GMT-0500 (Central Daylight Time),778374.799999997,046_o_m_n_a.png,O,m,970,15,1,1995.5999999940395,776379.200000003,7775,NNB,A,13
11,test,3,1.0,2-Back,0.0,z,Tue Mar 10 2026 13:59:42 GMT-0500 (Central Daylight Time),781407.5,050_m_f_n_a.png,O,None,2016,16,1,3028.7999999970198,778378.700000003,7775,NNB,A,14
12,test,3,0.0,2-Back,1.0,m,Tue Mar 10 2026 13:59:42 GMT-0500 (Central Daylight Time),783190.1000000089,047_o_f_n_a.png,O,m,762,17,1,1778.6000000089407,781411.5,7775,NNB,A,15
13,test,3,0.0,2-Back,1.0,m,Tue Mar 10 2026 13:59:42 GMT-0500 (Central Daylight Time),786205.900000006,047_o_f_n_a.png,O,m,1995,18,1,3011.7000000029802,783194.200000003,7775,NNB,A,16
0,test,4,0.0,2-Back,,,Tue Mar 10 2026 13:59:42 GMT-0500 (Central Daylight Time),786205.900000006,053_o_m_n_a.png,O,space,6180,1,1,3011.7000000029802,783194.200000003,7775,NNB,A,0
0,test,4,0.0,2-Back,,,Tue Mar 10 2026 13:59:42 GMT-0500 (Central Daylight Time),786205.900000006,063_y_f_n_a.png,O,space,6180,2,1,3011.7000000029802,783194.200000003,7775,NNB,A,0
1,test,4,1.0,2-Back,1.0,z,Tue Mar 10 2026 13:59:42 GMT-0500 (Central Daylight Time),799751.6000000089,053_o_m_n_a.png,O,z,1236,3,1,2252.4000000059605,797499.200000003,7775,NNB,A,1
2,test,4,1.0,2-Back,1.0,z,Tue Mar 10 2026 13:59:42 GMT-0500 (Central Daylight Time),801801.1000000089,063_y_f_n_a.png,O,z,1026,4,1,2045.2000000029802,799755.900000006,7775,NNB,A,2
3,test,4,0.0,2-Back,1.0,m,Tue Mar 10 2026 13:59:42 GMT-0500 (Central Daylight Time),803733.700000003,044_o_f_n_a.png,O,m,912,5,1,1928.5999999940395,801805.1000000089,7775,NNB,A,3
4,test,4,0.0,2-Back,1.0,m,Tue Mar 10 2026 13:59:42 GMT-0500 (Central Daylight Time),806349.400000006,044_o_f_n_a.png,O,m,1587,6,1,2611.7000000029802,803737.700000003,7775,NNB,A,4
5,test,4,0.0,2-Back,1.0,m,Tue Mar 10 2026 13:59:42 GMT-0500 (Central Daylight Time),808282.0,043_m_f_n_a.png,O,m,900,7,1,1928.3999999910593,806353.6000000089,7775,NNB,A,5
6,test,4,0.0,2-Back,1.0,m,Tue Mar 10 2026 13:59:42 GMT-0500 (Central Daylight Time),810281.6000000089,008_y_m_n_a.png,O,m,967,8,1,1995.6000000089407,808286.0,7775,NNB,A,6
7,test,4,1.0,2-Back,1.0,z,Tue Mar 10 2026 13:59:42 GMT-0500 (Central Daylight Time),812247.6000000089,043_m_f_n_a.png,O,z,944,9,1,1962.1000000089407,810285.5,7775,NNB,A,7
8,test,4,0.0,2-Back,1.0,m,Tue Mar 10 2026 13:59:42 GMT-0500 (Central Daylight Time),814546.900000006,058_m_m_n_a.png,O,m,1282,10,1,2295.4000000059605,812251.5,7775,NNB,A,8
8,test,4,0.0,2-Back,0.0,m,Tue Mar 10 2026 13:59:42 GMT-0500 (Central Daylight Time),817579.200000003,008_y_m_n_a.png,O,None,2016,11,1,3027.9000000059605,814551.299999997,7775,NNB,A,9
9,test,4,0.0,2-Back,1.0,m,Tue Mar 10 2026 13:59:42 GMT-0500 (Central Daylight Time),819878.5,047_o_f_n_a.png,O,m,1270,12,1,2295.0999999940395,817583.400000006,7775,NNB,A,10
10,test,4,0.0,2-Back,1.0,m,Tue Mar 10 2026 13:59:42 GMT-0500 (Central Daylight Time),822129.0,041_y_m_n_a.png,O,m,1205,13,1,2246.2999999970198,819882.700000003,7775,NNB,A,11
11,test,4,1.0,2-Back,1.0,z,Tue Mar 10 2026 13:59:42 GMT-0500 (Central Daylight Time),823927.200000003,047_o_f_n_a.png,O,z,770,14,1,1794.0999999940395,822133.1000000089,7775,NNB,A,12
12,test,4,1.0,2-Back,1.0,z,Tue Mar 10 2026 13:59:42 GMT-0500 (Central Daylight Time),826526.6000000089,041_y_m_n_a.png,O,z,1578,15,1,2595.300000011921,823931.299999997,7775,NNB,A,13
13,test,4,0.0,2-Back,1.0,m,Tue Mar 10 2026 13:59:42 GMT-0500 (Central Daylight Time),828642.400000006,045_m_m_n_a.png,O,m,1099,16,1,2110.7999999970198,826531.6000000089,7775,NNB,A,14
14,test,4,0.0,2-Back,1.0,m,Tue Mar 10 2026 13:59:42 GMT-0500 (Central Daylight Time),830941.700000003,050_m_f_n_a.png,O,m,1270,17,1,2295.2999999970198,828646.400000006,7775,NNB,A,15
15,test,4,1.0,2-Back,1.0,z,Tue Mar 10 2026 13:59:42 GMT-0500 (Central Daylight Time),832625.5,045_m_m_n_a.png,O,z,660,18,1,1679.7999999970198,830945.700000003,7775,NNB,A,16
0,test,5,1.0,2-Back,,,Tue Mar 10 2026 13:59:42 GMT-0500 (Central Daylight Time),832625.5,041_y_m_n_a.png,O,space,6760,1,1,1679.7999999970198,830945.700000003,7775,NNB,A,0
0,test,5,1.0,2-Back,,,Tue Mar 10 2026 13:59:42 GMT-0500 (Central Daylight Time),832625.5,050_m_f_n_a.png,O,space,6760,2,1,1679.7999999970198,830945.700000003,7775,NNB,A,0
1,test,5,1.0,2-Back,1.0,z,Tue Mar 10 2026 13:59:42 GMT-0500 (Central Daylight Time),845970.1000000089,041_y_m_n_a.png,O,z,499,3,1,1513.800000011921,844456.299999997,7775,NNB,A,1
1,test,5,1.0,2-Back,0.0,z,Tue Mar 10 2026 13:59:42 GMT-0500 (Central Daylight Time),847736.700000003,050_m_f_n_a.png,O,m,735,4,1,1763.2000000029802,845973.5,7775,NNB,A,2
1,test,5,0.0,2-Back,0.0,m,Tue Mar 10 2026 13:59:42 GMT-0500 (Central Daylight Time),850769.1000000089,047_o_f_n_a.png,O,None,2016,5,1,3028.7000000029802,847740.400000006,7775,NNB,A,3
2,test,5,0.0,2-Back,1.0,m,Tue Mar 10 2026 13:59:42 GMT-0500 (Central Daylight Time),853568.200000003,041_y_m_n_a.png,O,m,1776,6,1,2795.0,850773.200000003,7775,NNB,A,4
3,test,5,0.0,2-Back,1.0,m,Tue Mar 10 2026 13:59:42 GMT-0500 (Central Daylight Time),855667.1000000089,010_y_f_n_a.png,O,m,1081,7,1,2094.7000000029802,853572.400000006,7775,NNB,A,5
3,test,5,0.0,2-Back,0.0,m,Tue Mar 10 2026 13:59:42 GMT-0500 (Central Daylight Time),857750.1000000089,047_o_f_n_a.png,O,z,1054,8,1,2078.5,855671.6000000089,7775,NNB,A,6
4,test,5,1.0,2-Back,1.0,z,Tue Mar 10 2026 13:59:42 GMT-0500 (Central Daylight Time),859667.299999997,010_y_f_n_a.png,O,z,892,9,1,1913.5999999940395,857753.700000003,7775,NNB,A,7
5,test,5,0.0,2-Back,1.0,m,Tue Mar 10 2026 13:59:42 GMT-0500 (Central Daylight Time),862665.400000006,046_o_m_n_a.png,O,m,1967,10,1,2994.5,859670.900000006,7775,NNB,A,8
6,test,5,0.0,2-Back,1.0,m,Tue Mar 10 2026 13:59:42 GMT-0500 (Central Daylight Time),864831.299999997,043_m_f_n_a.png,O,m,1144,11,1,2161.2999999970198,862670.0,7775,NNB,A,9
7,test,5,0.0,2-Back,1.0,m,Tue Mar 10 2026 13:59:42 GMT-0500 (Central Daylight Time),866830.5,058_m_m_n_a.png,O,m,970,12,1,1995.2999999970198,864835.200000003,7775,NNB,A,10
7,test,5,0.0,2-Back,0.0,m,Tue Mar 10 2026 13:59:42 GMT-0500 (Central Daylight Time),868363.0,046_o_m_n_a.png,O,z,506,13,1,1528.2999999970198,866834.700000003,7775,NNB,A,11
8,test,5,1.0,2-Back,1.0,z,Tue Mar 10 2026 13:59:42 GMT-0500 (Central Daylight Time),870979.0,058_m_m_n_a.png,O,z,1598,14,1,2612.3999999910593,868366.6000000089,7775,NNB,A,12
9,test,5,0.0,2-Back,1.0,m,Tue Mar 10 2026 13:59:42 GMT-0500 (Central Daylight Time),873578.200000003,063_y_f_n_a.png,O,m,1582,15,1,2595.2000000029802,870983.0,7775,NNB,A,13
10,test,5,0.0,2-Back,1.0,m,Tue Mar 10 2026 13:59:42 GMT-0500 (Central Daylight Time),875411.200000003,053_o_m_n_a.png,O,m,815,16,1,1827.9000000059605,873583.299999997,7775,NNB,A,14
11,test,5,0.0,2-Back,1.0,m,Tue Mar 10 2026 13:59:42 GMT-0500 (Central Daylight Time),877377.299999997,043_m_f_n_a.png,O,m,934,17,1,1962.3999999910593,875414.900000006,7775,NNB,A,15
12,test,5,1.0,2-Back,1.0,z,Tue Mar 10 2026 13:59:42 GMT-0500 (Central Daylight Time),879626.5,053_o_m_n_a.png,O,z,1217,18,1,2245.2000000029802,877381.299999997,7775,NNB,A,16
