acc_sum,block,block_c,condition,correct,correct_response,datetime,endtime,flanker,jitter,project,response,response_test_buffer_response,response_test_target_response,response_time,response_time_test_buffer_response,response_time_test_target_response,row_sel,session_number,start_end,starttime,subject_id,target,task,task_vers,time_test_buffer,time_test_buffer_response,time_test_constants,time_test_flanker,time_test_jitter,time_test_logger,time_test_target,time_test_target_response,time_test_variables,trial
1,prac,1,inc,1,m,Mon Mar 23 2026 12:47:57 GMT-0400 (Eastern Daylight Time),188878.69999998808,plum,1100,I,m,,,505,,,16,1,2907.599999964237,185971.10000002384,9053,lead,NF,C,,,,,,,,,,1
2,prac,1,inc,1,m,Mon Mar 23 2026 12:47:57 GMT-0400 (Eastern Daylight Time),191695.10000002384,raisin,1100,I,m,,,405,,,12,1,2806.900000035763,188888.19999998808,9053,cobalt,NF,C,,,,,,,,,,2
2,prac,1,con,0,z,Mon Mar 23 2026 12:47:57 GMT-0400 (Eastern Daylight Time),194328.19999998808,kiwi,1000,I,m,,,328,,,7,1,2623.699999988079,191704.5,9053,kiwi,NF,C,,,,,,,,,,3
2,prac,1,con,0,m,Mon Mar 23 2026 12:47:57 GMT-0400 (Eastern Daylight Time),196794.89999997616,gold,800,I,z,,,359,,,13,1,2457.099999964237,194337.80000001192,9053,gold,NF,C,,,,,,,,,,4
2,prac,1,inc,0,z,Mon Mar 23 2026 12:47:57 GMT-0400 (Eastern Daylight Time),199445.10000002384,iron,900,I,m,,,432,,,6,1,2641.400000035763,196803.69999998808,9053,pear,NF,C,,,,,,,,,,5
3,prac,1,inc,1,m,Mon Mar 23 2026 12:47:57 GMT-0400 (Eastern Daylight Time),203144.89999997616,pear,900,I,m,,,1494,,,14,1,3690.0,199454.89999997616,9053,iron,NF,C,,,,,,,,,,6
4,prac,1,inc,1,z,Mon Mar 23 2026 12:47:57 GMT-0400 (Eastern Daylight Time),205745.0,copper,900,I,z,,,386,,,2,1,2591.5,203153.5,9053,cherry,NF,C,,,,,,,,,,7
5,prac,1,con,1,m,Mon Mar 23 2026 12:47:57 GMT-0400 (Eastern Daylight Time),207911.69999998808,bronze,800,I,m,,,63,,,9,1,2157.399999976158,205754.30000001192,9053,bronze,NF,C,,,,,,,,,,8
5,prac,1,con,0,z,Mon Mar 23 2026 12:47:57 GMT-0400 (Eastern Daylight Time),210878.30000001192,orange,1000,I,m,,,656,,,3,1,2958.100000023842,207920.19999998808,9053,orange,NF,C,,,,,,,,,,9
6,prac,1,inc,1,z,Mon Mar 23 2026 12:47:57 GMT-0400 (Eastern Daylight Time),213844.89999997616,cobalt,1100,I,z,,,549,,,4,1,2957.399999976158,210887.5,9053,raisin,NF,C,,,,,,,,,,10
6,prac,1,con,0,z,Mon Mar 23 2026 12:47:57 GMT-0400 (Eastern Daylight Time),215994.89999997616,lime,800,I,m,,,43,,,5,1,2140.5,213854.39999997616,9053,lime,NF,C,,,,,,,,,,11
6,prac,1,con,0,m,Mon Mar 23 2026 12:47:57 GMT-0400 (Eastern Daylight Time),221061.60000002384,zinc,1000,I,None,,,1799,,,15,1,5057.900000035763,216003.69999998808,9053,zinc,NF,C,,,,,,,,,,12
6,prac,1,con,0,z,Mon Mar 23 2026 12:47:57 GMT-0400 (Eastern Daylight Time),224428.19999998808,banana,800,I,m,,,1258,,,1,1,3356.300000011921,221071.89999997616,9053,banana,NF,C,,,,,,,,,,13
6,prac,1,con,0,m,Mon Mar 23 2026 12:47:57 GMT-0400 (Eastern Daylight Time),229494.89999997616,silver,1000,I,None,,,1799,,,11,1,5058.0,224436.89999997616,9053,silver,NF,C,,,,,,,,,,14
6,prac,1,inc,0,z,Mon Mar 23 2026 12:47:57 GMT-0400 (Eastern Daylight Time),234661.5,lead,1100,I,None,,,1799,,,8,1,5157.100000023842,229504.39999997616,9053,plum,NF,C,,,,,,,,,,15
6,prac,1,inc,0,m,Mon Mar 23 2026 12:47:57 GMT-0400 (Eastern Daylight Time),239628.19999998808,cherry,900,I,None,,,1799,,,10,1,4957.099999964237,234671.10000002384,9053,copper,NF,C,,,,,,,,,,16
0,prac,2,con,0,m,Mon Mar 23 2026 12:47:57 GMT-0400 (Eastern Daylight Time),249611.5,bronze,800,I,z,,,342,,,9,1,2441.300000011921,247170.19999998808,9053,bronze,NF,C,,,,,,,,,,1
0,prac,2,inc,0,z,Mon Mar 23 2026 12:47:57 GMT-0400 (Eastern Daylight Time),252128.19999998808,lead,1100,I,m,,,105,,,8,1,2507.399999976158,249620.80000001192,9053,plum,NF,C,,,,,,,,,,2
0,prac,2,inc,0,z,Mon Mar 23 2026 12:47:57 GMT-0400 (Eastern Daylight Time),255894.89999997616,copper,900,I,m,,,1563,,,2,1,3758.199999988079,252136.69999998808,9053,cherry,NF,C,,,,,,,,,,3
0,prac,2,con,0,m,Mon Mar 23 2026 12:47:57 GMT-0400 (Eastern Daylight Time),258311.60000002384,zinc,1000,I,z,,,115,,,15,1,2408.600000023842,255903.0,9053,zinc,NF,C,,,,,,,,,,4
0,prac,2,con,0,z,Mon Mar 23 2026 12:47:57 GMT-0400 (Eastern Daylight Time),261511.39999997616,orange,1000,I,m,,,897,,,3,1,3191.0,258320.39999997616,9053,orange,NF,C,,,,,,,,,,5
0,prac,2,inc,0,m,Mon Mar 23 2026 12:47:57 GMT-0400 (Eastern Daylight Time),266478.10000002384,cherry,900,I,None,,,1800,,,10,1,4957.900000035763,261520.19999998808,9053,copper,NF,C,,,,,,,,,,6
1,prac,2,con,1,z,Mon Mar 23 2026 12:47:57 GMT-0400 (Eastern Daylight Time),269161.60000002384,lime,800,I,z,,,577,,,5,1,2675.2000000476837,266486.39999997616,9053,lime,NF,C,,,,,,,,,,7
1,prac,2,inc,0,m,Mon Mar 23 2026 12:47:57 GMT-0400 (Eastern Daylight Time),272278.10000002384,plum,1100,I,z,,,714,,,16,1,3108.400000035763,269169.6999999881,9053,lead,NF,C,,,,,,,,,,8
1,prac,2,inc,0,m,Mon Mar 23 2026 12:47:57 GMT-0400 (Eastern Daylight Time),277444.6999999881,raisin,1100,I,None,,,1799,,,12,1,5157.800000011921,272286.89999997616,9053,cobalt,NF,C,,,,,,,,,,9
2,prac,2,con,1,z,Mon Mar 23 2026 12:47:57 GMT-0400 (Eastern Daylight Time),280478.3000000119,kiwi,1000,I,z,,,722,,,7,1,3023.800000011921,277454.5,9053,kiwi,NF,C,,,,,,,,,,10
2,prac,2,inc,0,z,Mon Mar 23 2026 12:47:57 GMT-0400 (Eastern Daylight Time),283828.10000002384,iron,900,I,m,,,1133,,,6,1,3341.400000035763,280486.6999999881,9053,pear,NF,C,,,,,,,,,,11
2,prac,2,con,0,m,Mon Mar 23 2026 12:47:57 GMT-0400 (Eastern Daylight Time),286461.39999997616,gold,800,I,z,,,523,,,13,1,2624.7999999523163,283836.60000002384,9053,gold,NF,C,,,,,,,,,,12
3,prac,2,inc,1,z,Mon Mar 23 2026 12:47:57 GMT-0400 (Eastern Daylight Time),289344.8000000119,cobalt,1100,I,z,,,471,,,4,1,2868.600000023842,286476.1999999881,9053,raisin,NF,C,,,,,,,,,,13
4,prac,2,inc,1,m,Mon Mar 23 2026 12:47:57 GMT-0400 (Eastern Daylight Time),293011.5,pear,900,I,m,,,1450,,,14,1,3657.699999988079,289353.8000000119,9053,iron,NF,C,,,,,,,,,,14
5,prac,2,con,1,z,Mon Mar 23 2026 12:47:57 GMT-0400 (Eastern Daylight Time),295661.5,banana,800,I,z,,,541,,,1,1,2640.800000011921,293020.6999999881,9053,banana,NF,C,,,,,,,,,,15
6,prac,2,con,1,m,Mon Mar 23 2026 12:47:57 GMT-0400 (Eastern Daylight Time),298394.89999997616,silver,1000,I,m,,,427,,,11,1,2723.2999999523163,295671.60000002384,9053,silver,NF,C,,,,,,,,,,16
0,test,1,inc,0,m,Mon Mar 23 2026 12:47:57 GMT-0400 (Eastern Daylight Time),324711.1999999881,cherry,900,I,z,z,None,647,448.0,199.0,70,1,2075.199999988079,322636.0,9053,bronze,NF,C,318534,318534,316908,317817,316908,318983,318334,318334,318983,1
0,test,1,con,0,z,Mon Mar 23 2026 12:47:57 GMT-0400 (Eastern Daylight Time),326544.6999999881,raisin,1000,I,m,m,None,288,88.0,200.0,27,1,1824.699999988079,324720.0,9053,raisin,NF,C,320717,320718,318992,320001,318992,320817,320517,320517,320817,2
1,test,1,inc,1,m,Mon Mar 23 2026 12:47:57 GMT-0400 (Eastern Daylight Time),328744.5,kiwi,1000,I,m,m,None,663,463.0,200.0,127,1,2189.899999976158,326554.60000002384,9053,lead,NF,C,322551,322551,320827,321834,320827,323017,322350,322350,323017,3
2,test,1,con,1,m,Mon Mar 23 2026 12:47:57 GMT-0400 (Eastern Daylight Time),330661.39999997616,bronze,900,I,m,m,None,467,267.0,200.0,66,1,1908.3999999761581,328753.0,9053,bronze,NF,C,324651,324651,323025,323934,323025,324933,324450,324450,324933,4
3,test,1,con,1,m,Mon Mar 23 2026 12:47:57 GMT-0400 (Eastern Daylight Time),332777.89999997616,silver,1100,I,m,m,None,479,279.0,200.0,84,1,2108.5,330669.39999997616,9053,silver,NF,C,326767,326767,324941,326050,324942,327050,326567,326567,327050,5
3,test,1,inc,0,m,Mon Mar 23 2026 12:47:57 GMT-0400 (Eastern Daylight Time),334461.1999999881,pear,900,I,z,z,None,241,42.0,199.0,102,1,1672.0,332789.1999999881,9053,gold,NF,C,328684,328684,327061,327967,327062,328733,328484,328484,328733,6
4,test,1,con,1,m,Mon Mar 23 2026 12:47:57 GMT-0400 (Eastern Daylight Time),336528.0,bronze,1100,I,m,m,None,423,223.0,200.0,68,1,2057.600000023842,334470.39999997616,9053,bronze,NF,C,330567,330567,328742,329850,328743,330800,330367,330367,330800,7
4,test,1,inc,0,z,Mon Mar 23 2026 12:47:57 GMT-0400 (Eastern Daylight Time),338628.0,cobalt,1100,I,m,m,None,451,252.0,199.0,16,1,2091.600000023842,336536.39999997616,9053,cherry,NF,C,332634,332634,330808,331917,330809,332900,332434,332434,332900,8
4,test,1,inc,0,m,Mon Mar 23 2026 12:47:57 GMT-0400 (Eastern Daylight Time),342161.39999997616,kiwi,1000,I,None,None,None,1799,1799.0,199.0,111,1,3521.199999988079,338640.1999999881,9053,iron,NF,C,334634,334634,332912,333917,332913,336433,334434,334434,336433,9
5,test,1,con,1,m,Mon Mar 23 2026 12:47:57 GMT-0400 (Eastern Daylight Time),343877.89999997616,bronze,800,I,m,m,None,366,167.0,199.0,65,1,1708.2999999523163,342169.60000002384,9053,bronze,NF,C,337967,337967,336442,337250,336442,338150,337767,337767,338150,10
6,test,1,con,1,m,Mon Mar 23 2026 12:47:57 GMT-0400 (Eastern Daylight Time),345761.3000000119,zinc,900,I,m,m,None,437,238.0,199.0,114,1,1872.4000000357628,343888.89999997616,9053,zinc,NF,C,339784,339784,338161,339067,338161,340033,339584,339584,340033,11
6,test,1,inc,0,m,Mon Mar 23 2026 12:47:57 GMT-0400 (Eastern Daylight Time),347644.6999999881,cherry,900,I,z,z,None,442,243.0,199.0,94,1,1874.8999999761581,345769.8000000119,9053,cobalt,NF,C,341667,341667,340042,340950,340042,341917,341467,341467,341917,12
6,test,1,inc,0,z,Mon Mar 23 2026 12:47:57 GMT-0400 (Eastern Daylight Time),349677.8000000119,cobalt,1100,I,m,m,None,392,192.0,200.0,32,1,2022.5,347655.3000000119,9053,raisin,NF,C,343750,343750,341927,343034,341928,343950,343550,343550,343950,13
7,test,1,con,1,z,Mon Mar 23 2026 12:47:57 GMT-0400 (Eastern Daylight Time),352194.60000002384,orange,1100,I,z,z,None,870,671.0,199.0,20,1,2507.600000023842,349687.0,9053,orange,NF,C,345784,345784,343959,345067,343959,346467,345584,345584,346467,14
7,test,1,con,0,z,Mon Mar 23 2026 12:47:57 GMT-0400 (Eastern Daylight Time),355728.0,kiwi,1000,I,None,None,None,1799,1799.0,200.0,51,1,3524.300000011921,352203.6999999881,9053,kiwi,NF,C,348201,348201,346476,347484,346476,350000,348000,348000,350000,15
7,test,1,inc,0,z,Mon Mar 23 2026 12:47:57 GMT-0400 (Eastern Daylight Time),357411.3000000119,lead,1100,I,m,None,m,36,1799.0,36.0,56,1,1675.5,355735.8000000119,9053,kiwi,NF,C,348201,348201,350008,351117,350008,351683,351634,351634,351683,16
7,test,1,con,0,z,Mon Mar 23 2026 12:47:57 GMT-0400 (Eastern Daylight Time),360944.6999999881,orange,1000,I,None,None,None,1799,1799.0,200.0,19,1,3525.099999964237,357419.60000002384,9053,orange,NF,C,353417,353417,351692,352700,351692,355217,353217,353217,355217,17
8,test,1,con,1,m,Mon Mar 23 2026 12:47:57 GMT-0400 (Eastern Daylight Time),362827.8000000119,lead,1000,I,m,m,None,343,143.0,200.0,123,1,1875.5,360952.3000000119,9053,lead,NF,C,356950,356951,355224,356234,355225,357100,356750,356750,357100,18
8,test,1,con,0,z,Mon Mar 23 2026 12:47:57 GMT-0400 (Eastern Daylight Time),366361.1999999881,plum,1000,I,None,None,None,1799,1799.0,199.0,59,1,3524.599999964237,362836.60000002384,9053,plum,NF,C,358834,358834,357109,358117,357109,360633,358634,358634,360633,19
8,test,1,inc,0,z,Mon Mar 23 2026 12:47:57 GMT-0400 (Eastern Daylight Time),369694.60000002384,bronze,800,I,None,None,None,1800,1800.0,199.0,29,1,3324.600000023842,366370.0,9053,raisin,NF,C,362167,362167,360642,361450,360642,363967,361967,361967,363967,20
8,test,1,inc,0,z,Mon Mar 23 2026 12:47:57 GMT-0400 (Eastern Daylight Time),373327.89999997616,cobalt,1100,I,None,None,None,1799,1799.0,200.0,8,1,3624.199999988079,369703.6999999881,9053,banana,NF,C,365801,365801,363976,365084,363976,367600,365600,365600,367600,21
9,test,1,con,1,m,Mon Mar 23 2026 12:47:57 GMT-0400 (Eastern Daylight Time),375027.8000000119,gold,900,I,m,m,None,251,52.0,199.0,98,1,1691.5,373336.3000000119,9053,gold,NF,C,369234,369234,367608,368517,367609,369300,369034,369034,369300,22
10,test,1,inc,1,m,Mon Mar 23 2026 12:47:57 GMT-0400 (Eastern Daylight Time),377078.3000000119,pear,900,I,m,m,None,615,416.0,199.0,110,1,2041.4000000357628,375036.89999997616,9053,iron,NF,C,370934,370934,369309,370217,369309,371350,370734,370734,371350,23
11,test,1,con,1,m,Mon Mar 23 2026 12:47:57 GMT-0400 (Eastern Daylight Time),379061.1999999881,zinc,1100,I,m,m,None,333,134.0,199.0,116,1,1970.5999999642372,377090.60000002384,9053,zinc,NF,C,373184,373184,371363,372467,371363,373333,372984,372984,373333,24
12,test,1,con,1,m,Mon Mar 23 2026 12:47:57 GMT-0400 (Eastern Daylight Time),381011.1999999881,bronze,1000,I,m,m,None,402,203.0,199.0,67,1,1941.3999999761581,379069.8000000119,9053,bronze,NF,C,375067,375067,373342,374350,373342,375283,374867,374867,375283,25
13,test,1,inc,1,m,Mon Mar 23 2026 12:47:57 GMT-0400 (Eastern Daylight Time),383327.89999997616,raisin,1100,I,m,m,None,672,473.0,199.0,72,1,2307.699999988079,381020.1999999881,9053,bronze,NF,C,377117,377117,375292,376400,375292,377600,376917,376917,377600,26
13,test,1,con,0,z,Mon Mar 23 2026 12:47:57 GMT-0400 (Eastern Daylight Time),386661.3000000119,lime,800,I,None,None,None,1799,1799.0,199.0,33,1,3324.400000035763,383336.89999997616,9053,lime,NF,C,379134,379134,377609,378417,377609,380933,378934,378934,380933,27
13,test,1,con,0,z,Mon Mar 23 2026 12:47:57 GMT-0400 (Eastern Daylight Time),390094.60000002384,cherry,900,I,None,None,None,1800,1800.0,200.0,10,1,3424.900000035763,386669.6999999881,9053,cherry,NF,C,382567,382567,380942,381850,380942,384367,382367,382367,384367,28
14,test,1,inc,1,m,Mon Mar 23 2026 12:47:57 GMT-0400 (Eastern Daylight Time),392311.89999997616,kiwi,1000,I,m,m,None,682,482.0,200.0,119,1,2209.2999999523163,390102.60000002384,9053,zinc,NF,C,386100,386100,384375,385384,384375,386584,385900,385900,386584,29
15,test,1,con,1,m,Mon Mar 23 2026 12:47:57 GMT-0400 (Eastern Daylight Time),394211.3000000119,zinc,1000,I,m,m,None,352,153.0,199.0,115,1,1890.199999988079,392321.10000002384,9053,zinc,NF,C,388317,388317,386593,387600,386593,388483,388117,388117,388483,30
15,test,1,inc,0,z,Mon Mar 23 2026 12:47:57 GMT-0400 (Eastern Daylight Time),396061.1999999881,gold,800,I,m,m,None,509,309.0,200.0,61,1,1841.0,394220.1999999881,9053,plum,NF,C,390017,390017,388492,389300,388493,390333,389817,389817,390333,31
16,test,1,con,1,m,Mon Mar 23 2026 12:47:57 GMT-0400 (Eastern Daylight Time),397910.89999997616,copper,1000,I,m,m,None,314,115.0,199.0,75,1,1840.5,396070.39999997616,9053,copper,NF,C,392067,392067,390342,391350,390343,392183,391867,391867,392183,32
17,test,1,con,1,m,Mon Mar 23 2026 12:47:57 GMT-0400 (Eastern Daylight Time),399577.8000000119,lead,800,I,m,m,None,328,129.0,199.0,121,1,1657.699999988079,397920.10000002384,9053,lead,NF,C,393717,393717,392192,393000,392192,393850,393517,393517,393850,33
17,test,1,inc,0,z,Mon Mar 23 2026 12:47:57 GMT-0400 (Eastern Daylight Time),401461.1999999881,zinc,1000,I,m,m,None,333,134.0,199.0,63,1,1873.5999999642372,399587.60000002384,9053,plum,NF,C,395584,395584,393860,394867,393860,395733,395384,395384,395733,34
17,test,1,inc,0,z,Mon Mar 23 2026 12:47:57 GMT-0400 (Eastern Daylight Time),403227.89999997616,copper,900,I,m,m,None,326,127.0,199.0,22,1,1753.0999999642372,401474.8000000119,9053,orange,NF,C,397367,397367,395747,396650,395747,397500,397167,397167,397500,35
17,test,1,inc,0,z,Mon Mar 23 2026 12:47:57 GMT-0400 (Eastern Daylight Time),405127.5,silver,1000,I,m,m,None,363,164.0,199.0,15,1,1889.1000000238419,403238.39999997616,9053,cherry,NF,C,399234,399234,397510,398517,397511,399400,399034,399034,399400,36
18,test,1,con,1,m,Mon Mar 23 2026 12:47:57 GMT-0400 (Eastern Daylight Time),406927.8000000119,iron,900,I,m,m,None,355,156.0,199.0,106,1,1791.0,405136.8000000119,9053,iron,NF,C,401034,401034,399409,400317,399409,401200,400834,400834,401200,37
18,test,1,inc,0,m,Mon Mar 23 2026 12:47:57 GMT-0400 (Eastern Daylight Time),410561.3000000119,plum,1100,I,None,None,None,1799,1799.0,199.0,112,1,3624.900000035763,406936.39999997616,9053,iron,NF,C,403034,403034,401208,402317,401209,404833,402834,402834,404833,38
19,test,1,inc,1,m,Mon Mar 23 2026 12:47:57 GMT-0400 (Eastern Daylight Time),412427.8000000119,kiwi,1000,I,m,m,None,327,127.0,200.0,103,1,1857.5,410570.3000000119,9053,gold,NF,C,406567,406567,404842,405850,404843,406700,406367,406367,406700,39
19,test,1,con,0,z,Mon Mar 23 2026 12:47:57 GMT-0400 (Eastern Daylight Time),415761.1999999881,orange,800,I,None,None,None,1799,1799.0,199.0,17,1,3325.0,412436.1999999881,9053,orange,NF,C,408234,408234,406708,407517,406709,410033,408034,408034,410033,40
19,test,1,inc,0,z,Mon Mar 23 2026 12:47:57 GMT-0400 (Eastern Daylight Time),417427.8000000119,gold,800,I,m,m,None,318,119.0,199.0,53,1,1658.4000000357628,415769.39999997616,9053,kiwi,NF,C,411567,411567,410041,410850,410042,411700,411367,411367,411700,41
19,test,1,inc,0,m,Mon Mar 23 2026 12:47:57 GMT-0400 (Eastern Daylight Time),420961.3000000119,orange,1000,I,None,None,None,1799,1799.0,199.0,79,1,3524.199999988079,417437.10000002384,9053,copper,NF,C,413434,413434,411709,412717,411709,415233,413233,413234,415233,42
19,test,1,inc,0,z,Mon Mar 23 2026 12:47:57 GMT-0400 (Eastern Daylight Time),424394.39999997616,iron,900,I,None,None,None,1799,1799.0,199.0,62,1,3425.7999999523163,420968.60000002384,9053,plum,NF,C,416867,416867,415241,416150,415241,418667,416667,416667,418666,43
20,test,1,con,1,m,Mon Mar 23 2026 12:47:57 GMT-0400 (Eastern Daylight Time),426294.39999997616,iron,1000,I,m,m,None,350,150.0,200.0,107,1,1891.7999999523163,424402.60000002384,9053,iron,NF,C,420400,420400,418675,419683,418675,420567,420200,420200,420566,44
21,test,1,con,1,m,Mon Mar 23 2026 12:47:57 GMT-0400 (Eastern Daylight Time),428594.5,silver,1000,I,m,m,None,754,554.0,200.0,83,1,2288.300000011921,426306.1999999881,9053,silver,NF,C,422300,422300,420578,421584,420579,422867,422100,422100,422867,45
21,test,1,inc,0,m,Mon Mar 23 2026 12:47:57 GMT-0400 (Eastern Daylight Time),431927.6999999881,lime,800,I,None,None,None,1800,1800.0,200.0,125,1,3318.800000011921,428608.89999997616,9053,lead,NF,C,424400,424400,422881,423684,422881,426200,424200,424200,426200,46
21,test,1,inc,0,z,Mon Mar 23 2026 12:47:57 GMT-0400 (Eastern Daylight Time),435461.1999999881,silver,1000,I,None,None,None,1799,1799.0,200.0,23,1,3524.699999988079,431936.5,9053,orange,NF,C,427934,427934,426209,427217,426209,429733,427733,427733,429733,47
21,test,1,inc,0,z,Mon Mar 23 2026 12:47:57 GMT-0400 (Eastern Daylight Time),438811.10000002384,gold,800,I,None,None,None,1799,1799.0,200.0,45,1,3334.800000011921,435476.3000000119,9053,pear,NF,C,431284,431284,429748,430566,429750,433083,431083,431083,433083,48
21,test,1,inc,0,z,Mon Mar 23 2026 12:47:57 GMT-0400 (Eastern Daylight Time),442244.60000002384,iron,900,I,None,None,None,1799,1799.0,199.0,46,1,3425.400000035763,438819.1999999881,9053,pear,NF,C,434717,434717,433091,434000,433092,436517,434517,434517,436517,49
21,test,1,inc,0,z,Mon Mar 23 2026 12:47:57 GMT-0400 (Eastern Daylight Time),445777.89999997616,zinc,1000,I,None,None,None,1800,1800.0,200.0,39,1,3525.399999976158,442252.5,9053,lime,NF,C,438250,438250,436524,437534,436525,440050,438050,438050,440050,50
21,test,1,inc,0,z,Mon Mar 23 2026 12:47:57 GMT-0400 (Eastern Daylight Time),449311.1999999881,silver,1000,I,None,None,None,1799,1799.0,199.0,31,1,3525.5,445785.6999999881,9053,raisin,NF,C,441784,441784,440058,441067,440058,443583,441584,441584,443583,51
21,test,1,con,0,z,Mon Mar 23 2026 12:47:57 GMT-0400 (Eastern Daylight Time),452944.3000000119,lime,1100,I,None,None,None,1799,1799.0,199.0,36,1,3624.900000035763,449319.39999997616,9053,lime,NF,C,445417,445417,443591,444700,443592,447216,445217,445217,447216,52
21,test,1,con,0,z,Mon Mar 23 2026 12:47:57 GMT-0400 (Eastern Daylight Time),456377.89999997616,plum,900,I,None,None,None,1800,1800.0,200.0,58,1,3425.199999988079,452952.6999999881,9053,plum,NF,C,448850,448850,447225,448133,447225,450650,448650,448650,450650,53
21,test,1,con,0,z,Mon Mar 23 2026 12:47:57 GMT-0400 (Eastern Daylight Time),459911.10000002384,lime,1000,I,None,None,None,1799,1799.0,199.0,35,1,3525.5,456385.60000002384,9053,lime,NF,C,452384,452384,450658,451667,450658,454183,452184,452184,454183,54
21,test,1,con,0,m,Mon Mar 23 2026 12:47:57 GMT-0400 (Eastern Daylight Time),463244.5,gold,800,I,None,None,None,1799,1799.0,199.0,97,1,3325.699999988079,459918.8000000119,9053,gold,NF,C,455717,455717,454191,455000,454191,457517,455517,455517,457516,55
22,test,1,con,1,m,Mon Mar 23 2026 12:47:57 GMT-0400 (Eastern Daylight Time),465144.1999999881,copper,900,I,m,m,None,464,264.0,200.0,74,1,1891.800000011921,463252.39999997616,9053,copper,NF,C,459150,459150,457524,458434,457525,459416,458950,458950,459416,56
23,test,1,inc,1,m,Mon Mar 23 2026 12:47:57 GMT-0400 (Eastern Daylight Time),467094.39999997616,pear,900,I,m,m,None,516,316.0,200.0,118,1,1941.199999988079,465153.1999999881,9053,zinc,NF,C,461050,461050,459425,460333,459425,461367,460850,460850,461366,57
23,test,1,con,0,z,Mon Mar 23 2026 12:47:57 GMT-0400 (Eastern Daylight Time),470627.8000000119,cherry,1000,I,None,None,None,1800,1800.0,200.0,11,1,3525.5,467102.3000000119,9053,cherry,NF,C,463100,463100,461374,462383,461375,464900,462900,462900,464900,58
24,test,1,inc,1,m,Mon Mar 23 2026 12:47:57 GMT-0400 (Eastern Daylight Time),472394.39999997616,cherry,900,I,m,m,None,327,128.0,199.0,78,1,1755.8999999761581,470638.5,9053,copper,NF,C,466534,466534,464911,465817,464911,466666,466334,466334,466666,59
24,test,1,inc,0,z,Mon Mar 23 2026 12:47:57 GMT-0400 (Eastern Daylight Time),475727.8000000119,gold,800,I,None,None,None,1800,1800.0,200.0,37,1,3324.199999988079,472403.60000002384,9053,lime,NF,C,468200,468200,466676,467483,466676,470000,468000,468000,470000,60
24,test,1,con,0,z,Mon Mar 23 2026 12:47:57 GMT-0400 (Eastern Daylight Time),477611.10000002384,pear,1000,I,m,m,None,343,144.0,199.0,43,1,1875.2000000476837,475735.89999997616,9053,pear,NF,C,471734,471734,470008,471017,470008,471883,471534,471534,471883,61
24,test,1,inc,0,m,Mon Mar 23 2026 12:47:57 GMT-0400 (Eastern Daylight Time),481044.5,pear,900,I,None,None,None,1799,1799.0,199.0,126,1,3424.800000011921,477619.6999999881,9053,lead,NF,C,473517,473517,471892,472800,471892,475317,473317,473317,475316,62
24,test,1,con,0,z,Mon Mar 23 2026 12:47:57 GMT-0400 (Eastern Daylight Time),482994.39999997616,orange,900,I,m,m,None,504,304.0,200.0,18,1,1938.2999999523163,481056.10000002384,9053,orange,NF,C,476950,476950,475328,476233,475328,477266,476750,476750,477266,63
24,test,1,con,0,z,Mon Mar 23 2026 12:47:57 GMT-0400 (Eastern Daylight Time),486427.8000000119,pear,900,I,None,None,None,1800,1800.0,200.0,42,1,3424.600000023842,483003.1999999881,9053,pear,NF,C,478900,478900,477275,478184,477275,480700,478700,478700,480700,64
25,test,1,con,1,m,Mon Mar 23 2026 12:47:57 GMT-0400 (Eastern Daylight Time),488144.10000002384,cobalt,800,I,m,m,None,370,171.0,199.0,89,1,1708.300000011921,486435.8000000119,9053,cobalt,NF,C,482234,482234,480708,481517,480708,482416,482033,482034,482416,65
25,test,1,con,0,z,Mon Mar 23 2026 12:47:57 GMT-0400 (Eastern Daylight Time),489977.6999999881,banana,900,I,m,m,None,396,196.0,200.0,2,1,1826.300000011921,488151.39999997616,9053,banana,NF,C,484050,484050,482423,483333,482424,484250,483850,483850,484250,66
26,test,1,inc,1,m,Mon Mar 23 2026 12:47:57 GMT-0400 (Eastern Daylight Time),492127.8000000119,orange,1000,I,m,m,None,605,406.0,199.0,95,1,2141.400000035763,489986.39999997616,9053,cobalt,NF,C,485984,485984,484258,485267,484259,486400,485784,485784,486400,67
26,test,1,inc,0,z,Mon Mar 23 2026 12:47:57 GMT-0400 (Eastern Daylight Time),494277.6999999881,lead,1100,I,m,m,None,499,300.0,199.0,40,1,2138.5,492139.1999999881,9053,lime,NF,C,488234,488234,486411,487517,486412,488550,488034,488034,488550,68
26,test,1,inc,0,m,Mon Mar 23 2026 12:47:57 GMT-0400 (Eastern Daylight Time),497911.10000002384,plum,1100,I,None,None,None,1799,1799.0,200.0,120,1,3624.400000035763,494286.6999999881,9053,zinc,NF,C,490384,490384,488559,489667,488559,492183,490183,490183,492183,69
26,test,1,inc,0,z,Mon Mar 23 2026 12:47:57 GMT-0400 (Eastern Daylight Time),501244.5,bronze,800,I,None,None,None,1799,1799.0,199.0,5,1,3325.100000023842,497919.39999997616,9053,banana,NF,C,493717,493717,492191,493000,492192,495517,493517,493517,495516,70
26,test,1,con,0,z,Mon Mar 23 2026 12:47:57 GMT-0400 (Eastern Daylight Time),504877.8000000119,raisin,1100,I,None,None,None,1800,1800.0,200.0,28,1,3622.800000011921,501255.0,9053,raisin,NF,C,497350,497350,495527,496633,495527,499150,497150,497150,499150,71
26,test,1,con,0,z,Mon Mar 23 2026 12:47:57 GMT-0400 (Eastern Daylight Time),508311.1999999881,kiwi,900,I,None,None,None,1800,1800.0,200.0,50,1,3419.599999964237,504891.60000002384,9053,kiwi,NF,C,500783,500783,499164,500067,499164,502583,500583,500583,502583,72
26,test,1,inc,0,z,Mon Mar 23 2026 12:47:57 GMT-0400 (Eastern Daylight Time),511744.39999997616,iron,900,I,None,None,None,1799,1799.0,199.0,38,1,3419.599999964237,508324.8000000119,9053,lime,NF,C,504217,504217,502597,503500,502598,506016,504017,504017,506016,73
26,test,1,inc,0,z,Mon Mar 23 2026 12:47:57 GMT-0400 (Eastern Daylight Time),515377.8000000119,lead,1100,I,None,None,None,1800,1800.0,200.0,64,1,3622.5,511755.3000000119,9053,plum,NF,C,507850,507850,506027,507133,506028,509650,507650,507650,509650,74
26,test,1,con,0,z,Mon Mar 23 2026 12:47:57 GMT-0400 (Eastern Daylight Time),518811.10000002384,lime,900,I,None,None,None,1799,1799.0,200.0,34,1,3425.600000023842,515385.5,9053,lime,NF,C,511284,511284,509658,510567,509658,513083,511083,511083,513083,75
26,test,1,con,0,z,Mon Mar 23 2026 12:47:57 GMT-0400 (Eastern Daylight Time),522444.39999997616,plum,1100,I,None,None,None,1799,1799.0,199.0,60,1,3625.599999964237,518818.8000000119,9053,plum,NF,C,514917,514917,513091,514200,513091,516717,514717,514717,516716,76
27,test,1,inc,1,m,Mon Mar 23 2026 12:47:57 GMT-0400 (Eastern Daylight Time),524377.6999999881,banana,800,I,m,m,None,596,396.0,200.0,69,1,1921.5999999642372,522456.10000002384,9053,bronze,NF,C,518250,518250,516728,517533,516728,518650,518050,518050,518650,77
27,test,1,inc,0,z,Mon Mar 23 2026 12:47:57 GMT-0400 (Eastern Daylight Time),526461.0,lead,1100,I,m,m,None,442,242.0,200.0,48,1,2074.800000011921,524386.1999999881,9053,pear,NF,C,520484,520484,518658,519767,518659,520733,520283,520283,520733,78
27,test,1,inc,0,z,Mon Mar 23 2026 12:47:57 GMT-0400 (Eastern Daylight Time),530094.3000000119,cobalt,1100,I,None,None,None,1799,1799.0,199.0,24,1,3624.300000011921,526470.0,9053,orange,NF,C,522567,522567,520742,521851,520742,524366,522367,522367,524366,79
27,test,1,inc,0,z,Mon Mar 23 2026 12:47:57 GMT-0400 (Eastern Daylight Time),531661.3000000119,bronze,800,I,m,m,None,226,26.0,200.0,21,1,1559.4000000357628,530101.8999999762,9053,orange,NF,C,525900,525900,524374,525183,524374,525933,525700,525700,525933,80
28,test,1,inc,1,m,Mon Mar 23 2026 12:47:57 GMT-0400 (Eastern Daylight Time),533827.5,raisin,1100,I,m,m,None,517,318.0,199.0,80,1,2157.0,531670.5,9053,copper,NF,C,527767,527767,525943,527050,525943,528100,527567,527567,528100,81
28,test,1,inc,0,z,Mon Mar 23 2026 12:47:57 GMT-0400 (Eastern Daylight Time),537261.0,iron,900,I,None,None,None,1799,1799.0,200.0,54,1,3421.800000011921,533839.1999999881,9053,kiwi,NF,C,529733,529734,528111,529017,528112,531533,529533,529533,531533,82
28,test,1,con,0,z,Mon Mar 23 2026 12:47:57 GMT-0400 (Eastern Daylight Time),540594.3000000119,banana,800,I,None,None,None,1799,1799.0,199.0,1,1,3322.600000023842,537271.6999999881,9053,banana,NF,C,533067,533067,531544,532350,531544,534866,532867,532867,534866,83
29,test,1,inc,1,m,Mon Mar 23 2026 12:47:57 GMT-0400 (Eastern Daylight Time),542927.6999999881,orange,1000,I,m,m,None,789,590.0,199.0,71,1,2324.800000011921,540602.8999999762,9053,bronze,NF,C,536600,536600,534875,535883,534875,537200,536400,536400,537200,84
29,test,1,con,0,z,Mon Mar 23 2026 12:47:57 GMT-0400 (Eastern Daylight Time),546261.1000000238,plum,800,I,None,None,None,1799,1799.0,200.0,57,1,3325.300000011921,542935.8000000119,9053,plum,NF,C,538734,538734,537208,538017,537208,540533,538533,538533,540533,85
29,test,1,con,0,m,Mon Mar 23 2026 12:47:57 GMT-0400 (Eastern Daylight Time),549894.3999999762,lead,1100,I,None,None,None,1800,1800.0,199.0,124,1,3625.099999964237,546269.3000000119,9053,lead,NF,C,542366,542366,540541,541650,540542,544166,542167,542167,544166,86
30,test,1,con,1,m,Mon Mar 23 2026 12:47:57 GMT-0400 (Eastern Daylight Time),552010.8999999762,lead,900,I,m,m,None,678,478.0,200.0,122,1,2108.5,549902.3999999762,9053,lead,NF,C,545800,545800,544174,545083,544175,546283,545600,545600,546283,87
31,test,1,con,1,m,Mon Mar 23 2026 12:47:57 GMT-0400 (Eastern Daylight Time),553844.1000000238,copper,800,I,m,m,None,483,284.0,199.0,73,1,1821.7000000476837,552022.3999999762,9053,copper,NF,C,547817,547817,546294,547100,546295,548116,547617,547617,548116,88
32,test,1,inc,1,m,Mon Mar 23 2026 12:47:57 GMT-0400 (Eastern Daylight Time),556344.1000000238,plum,1100,I,m,m,None,864,664.0,200.0,128,1,2491.400000035763,553852.6999999881,9053,lead,NF,C,549950,549950,548125,549233,548125,550616,549750,549750,550616,89
32,test,1,con,0,z,Mon Mar 23 2026 12:47:57 GMT-0400 (Eastern Daylight Time),559677.5,raisin,800,I,None,None,None,1799,1799.0,200.0,25,1,3325.199999988079,556352.3000000119,9053,raisin,NF,C,552150,552150,550624,551433,550625,553950,551950,551950,553950,90
32,test,1,con,0,z,Mon Mar 23 2026 12:47:57 GMT-0400 (Eastern Daylight Time),563311.1000000238,kiwi,1100,I,None,None,None,1800,1800.0,200.0,52,1,3625.900000035763,559685.1999999881,9053,kiwi,NF,C,555783,555783,553957,555067,553958,557583,555583,555583,557583,91
32,test,1,con,0,m,Mon Mar 23 2026 12:47:57 GMT-0400 (Eastern Daylight Time),566944.3000000119,iron,1100,I,None,None,None,1799,1799.0,199.0,108,1,3624.900000035763,563319.3999999762,9053,iron,NF,C,559417,559417,557591,558700,557592,561216,559217,559217,561216,92
33,test,1,inc,1,m,Mon Mar 23 2026 12:47:57 GMT-0400 (Eastern Daylight Time),569078.1000000238,plum,1100,I,m,m,None,500,300.0,200.0,104,1,2125.0,566953.1000000238,9053,gold,NF,C,563050,563050,561225,562333,561226,563350,562850,562850,563350,93
33,test,1,con,0,z,Mon Mar 23 2026 12:47:57 GMT-0400 (Eastern Daylight Time),572411.0,cherry,800,I,None,None,None,1800,1800.0,200.0,9,1,3324.699999988079,569086.3000000119,9053,cherry,NF,C,564883,564883,563358,564167,563359,566683,564683,564683,566683,94
34,test,1,inc,1,m,Mon Mar 23 2026 12:47:57 GMT-0400 (Eastern Daylight Time),574444.3000000119,banana,800,I,m,m,None,692,493.0,199.0,93,1,2024.5,572419.8000000119,9053,cobalt,NF,C,568217,568217,566692,567500,566692,568716,568017,568017,568716,95
35,test,1,inc,1,m,Mon Mar 23 2026 12:47:57 GMT-0400 (Eastern Daylight Time),577560.8000000119,lime,800,I,m,m,None,1780,1580.0,200.0,101,1,3107.199999988079,574453.6000000238,9053,gold,NF,C,570250,570250,568726,569533,568726,571833,570050,570050,571833,96
35,test,1,inc,0,z,Mon Mar 23 2026 12:47:57 GMT-0400 (Eastern Daylight Time),581094.3000000119,zinc,1000,I,None,None,None,1799,1799.0,199.0,55,1,3525.100000023842,577569.1999999881,9053,kiwi,NF,C,573567,573567,571841,572850,571841,575366,573367,573367,575366,97
36,test,1,inc,1,m,Mon Mar 23 2026 12:47:57 GMT-0400 (Eastern Daylight Time),582844.1999999881,lime,800,I,m,m,None,410,210.0,200.0,109,1,1741.5999999642372,581102.6000000238,9053,iron,NF,C,576900,576900,575375,576183,575375,577116,576700,576700,577116,98
37,test,1,inc,1,m,Mon Mar 23 2026 12:47:57 GMT-0400 (Eastern Daylight Time),584844.1999999881,banana,800,I,m,m,None,660,461.0,199.0,77,1,1991.300000011921,582852.8999999762,9053,copper,NF,C,578650,578650,577125,577933,577125,579116,578450,578450,579116,99
37,test,1,con,0,z,Mon Mar 23 2026 12:47:57 GMT-0400 (Eastern Daylight Time),588277.5,raisin,900,I,None,None,None,1799,1799.0,200.0,26,1,3424.699999988079,584852.8000000119,9053,raisin,NF,C,580750,580750,579125,580033,579125,582550,580550,580550,582550,100
38,test,1,con,1,m,Mon Mar 23 2026 12:47:57 GMT-0400 (Eastern Daylight Time),590510.8000000119,cobalt,1000,I,m,m,None,689,489.0,200.0,91,1,2225.100000023842,588285.6999999881,9053,cobalt,NF,C,584284,584284,582558,583567,582558,584783,584083,584083,584783,101
38,test,1,con,0,z,Mon Mar 23 2026 12:47:57 GMT-0400 (Eastern Daylight Time),593844.1999999881,kiwi,800,I,None,None,None,1799,1799.0,200.0,49,1,3324.300000011921,590519.8999999762,9053,kiwi,NF,C,586317,586317,584792,585600,584792,588116,586116,586116,588116,102
38,test,1,inc,0,z,Mon Mar 23 2026 12:47:57 GMT-0400 (Eastern Daylight Time),595560.8000000119,copper,900,I,m,m,None,279,80.0,199.0,6,1,1706.699999988079,593854.1000000238,9053,banana,NF,C,589750,589750,588126,589033,588126,589833,589550,589550,589833,103
38,test,1,inc,0,m,Mon Mar 23 2026 12:47:57 GMT-0400 (Eastern Daylight Time),599194.3000000119,raisin,1100,I,None,None,None,1799,1799.0,199.0,88,1,3622.199999988079,595572.1000000238,9053,silver,NF,C,591667,591667,589844,590950,589844,593466,591467,591467,593466,104
39,test,1,inc,1,m,Mon Mar 23 2026 12:47:57 GMT-0400 (Eastern Daylight Time),601261.0,cherry,900,I,m,m,None,625,426.0,199.0,86,1,2056.600000023842,599204.3999999762,9053,silver,NF,C,595100,595100,593476,594383,593477,595533,594900,594900,595533,105
40,test,1,con,1,m,Mon Mar 23 2026 12:47:57 GMT-0400 (Eastern Daylight Time),603044.0,iron,800,I,m,m,None,433,234.0,199.0,105,1,1775.0,601269.0,9053,iron,NF,C,597067,597067,595541,596350,595541,597316,596867,596867,597316,106
41,test,1,con,1,m,Mon Mar 23 2026 12:47:57 GMT-0400 (Eastern Daylight Time),605194.1999999881,gold,1000,I,m,m,None,612,412.0,200.0,99,1,2144.899999976158,603049.3000000119,9053,gold,NF,C,599050,599050,597321,598333,597322,599466,598850,598850,599466,107
42,test,1,con,1,m,Mon Mar 23 2026 12:47:57 GMT-0400 (Eastern Daylight Time),607160.8000000119,gold,1100,I,m,m,None,330,130.0,200.0,100,1,1957.699999988079,605203.1000000238,9053,gold,NF,C,601300,601300,599475,600583,599475,601433,601100,601100,601433,108
42,test,1,con,0,z,Mon Mar 23 2026 12:47:57 GMT-0400 (Eastern Daylight Time),609044.3000000119,banana,1000,I,m,m,None,333,134.0,199.0,3,1,1875.1000000238419,607169.1999999881,9053,banana,NF,C,603167,603167,601441,602450,601442,603316,602967,602967,603316,109
42,test,1,inc,0,z,Mon Mar 23 2026 12:47:57 GMT-0400 (Eastern Daylight Time),612477.5,copper,900,I,None,None,None,1799,1799.0,199.0,14,1,3424.5,609053.0,9053,cherry,NF,C,604950,604950,603325,604233,603325,606750,604750,604750,606750,110
42,test,1,inc,0,z,Mon Mar 23 2026 12:47:57 GMT-0400 (Eastern Daylight Time),614327.3000000119,bronze,800,I,m,m,None,514,314.0,200.0,13,1,1839.800000011921,612487.5,9053,cherry,NF,C,608283,608283,606760,607567,606760,608599,608083,608083,608599,111
42,test,1,con,0,z,Mon Mar 23 2026 12:47:57 GMT-0400 (Eastern Daylight Time),617660.8999999762,pear,800,I,None,None,None,1800,1800.0,200.0,41,1,3325.199999988079,614335.6999999881,9053,pear,NF,C,610133,610133,608608,609416,608608,611933,609933,609933,611933,112
43,test,1,inc,1,m,Mon Mar 23 2026 12:47:57 GMT-0400 (Eastern Daylight Time),619577.3999999762,raisin,1100,I,m,m,None,277,78.0,199.0,96,1,1905.0999999642372,617672.3000000119,9053,cobalt,NF,C,613767,613767,611944,613050,611945,613849,613567,613567,613849,113
44,test,1,inc,1,m,Mon Mar 23 2026 12:47:57 GMT-0400 (Eastern Daylight Time),621494.3000000119,orange,1000,I,m,m,None,383,183.0,200.0,87,1,1908.6000000238419,619585.6999999881,9053,silver,NF,C,615583,615583,613858,614867,613858,615766,615383,615383,615766,114
45,test,1,con,1,m,Mon Mar 23 2026 12:47:57 GMT-0400 (Eastern Daylight Time),623510.6000000238,copper,1100,I,m,m,None,381,182.0,199.0,76,1,2009.0,621501.6000000238,9053,copper,NF,C,617600,617600,615774,616883,615774,617783,617400,617400,617783,115
45,test,1,inc,0,z,Mon Mar 23 2026 12:47:57 GMT-0400 (Eastern Daylight Time),625494.1000000238,zinc,1000,I,m,m,None,448,249.0,199.0,47,1,1975.5,623518.6000000238,9053,pear,NF,C,619517,619517,617791,618800,617791,619766,619317,619317,619766,116
46,test,1,con,1,m,Mon Mar 23 2026 12:47:57 GMT-0400 (Eastern Daylight Time),627494.1999999881,cobalt,1100,I,m,m,None,365,166.0,199.0,92,1,1992.300000011921,625501.8999999762,9053,cobalt,NF,C,621600,621600,619774,620883,619774,621766,621400,621400,621766,117
46,test,1,inc,0,z,Mon Mar 23 2026 12:47:57 GMT-0400 (Eastern Daylight Time),630927.5,copper,900,I,None,None,None,1799,1799.0,199.0,30,1,3425.399999976158,627502.1000000238,9053,raisin,NF,C,623400,623400,621774,622683,621774,625200,623200,623200,625200,118
46,test,1,con,0,z,Mon Mar 23 2026 12:47:57 GMT-0400 (Eastern Daylight Time),633027.3999999762,cherry,1100,I,m,m,None,453,253.0,200.0,12,1,2091.7999999523163,630935.6000000238,9053,cherry,NF,C,627033,627033,625208,626317,625208,627300,626833,626833,627299,119
47,test,1,con,1,m,Mon Mar 23 2026 12:47:57 GMT-0400 (Eastern Daylight Time),634810.8000000119,zinc,800,I,m,m,None,445,245.0,200.0,113,1,1774.1000000238419,633036.6999999881,9053,zinc,NF,C,628833,628833,627309,628116,627309,629083,628633,628633,629083,120
47,test,1,inc,0,m,Mon Mar 23 2026 12:47:57 GMT-0400 (Eastern Daylight Time),638144.3000000119,lime,800,I,None,None,None,1799,1799.0,199.0,117,1,3323.5,634820.8000000119,9053,zinc,NF,C,630617,630617,629093,629900,629093,632416,630417,630417,632416,121
47,test,1,con,0,m,Mon Mar 23 2026 12:47:57 GMT-0400 (Eastern Daylight Time),641577.3999999762,silver,900,I,None,None,None,1799,1799.0,199.0,82,1,3424.899999976158,638152.5,9053,silver,NF,C,634050,634050,632425,633333,632425,635849,633850,633850,635849,122
48,test,1,con,1,m,Mon Mar 23 2026 12:47:57 GMT-0400 (Eastern Daylight Time),643860.8000000119,cobalt,900,I,m,m,None,834,634.0,200.0,90,1,2276.0,641584.8000000119,9053,cobalt,NF,C,637483,637483,635857,636766,635857,638133,637283,637283,638133,123
48,test,1,con,0,z,Mon Mar 23 2026 12:47:57 GMT-0400 (Eastern Daylight Time),647494.1000000238,pear,1100,I,None,None,None,1799,1799.0,199.0,44,1,3623.5,643870.6000000238,9053,pear,NF,C,639967,639967,638143,639250,638143,641766,639767,639767,641766,124
48,test,1,con,0,z,Mon Mar 23 2026 12:47:57 GMT-0400 (Eastern Daylight Time),651127.6000000238,banana,1100,I,None,None,None,1799,1799.0,199.0,4,1,3625.600000023842,647502.0,9053,banana,NF,C,643600,643600,641774,642883,641774,645400,643400,643400,645399,125
49,test,1,con,1,m,Mon Mar 23 2026 12:47:57 GMT-0400 (Eastern Daylight Time),653194.1000000238,silver,800,I,m,m,None,728,528.0,200.0,81,1,2058.800000011921,651135.3000000119,9053,silver,NF,C,646933,646933,645407,646217,645408,647466,646733,646733,647466,126
50,test,1,inc,1,m,Mon Mar 23 2026 12:47:57 GMT-0400 (Eastern Daylight Time),655210.8000000119,banana,800,I,m,m,None,676,477.0,199.0,85,1,2007.199999988079,653203.6000000238,9053,silver,NF,C,649000,649000,647476,648283,647476,649483,648800,648800,649483,127
50,test,1,inc,0,z,Mon Mar 23 2026 12:47:57 GMT-0400 (Eastern Daylight Time),658744.1999999881,silver,1000,I,None,None,None,1799,1799.0,200.0,7,1,3522.199999988079,655222.0,9053,banana,NF,C,651217,651217,649494,650500,649494,653016,651016,651016,653016,128
