acc_sum,block_c,block_dur,condition,correct,correct_response,countdown,datetime,endtime,project,response,response_time,response_time_test1_response,response_time_test2_response,row_sel,same,session_number,start_end,starttime,stim1,stim2,subject_id,task,task_vers,time_test1,time_test2,trial
1,1,0.0,prac,1,m,30000.0,Tue Sep 30 2025 11:38:21 GMT-0500 (Central Daylight Time),36618.19999998808,O,m,2825,,,4,no,1,4329.0,32289.19999998808,practrial4.png,practrial4b.png,7220,PC,B,,,1
2,1,0.0,prac,1,z,30000.0,Tue Sep 30 2025 11:38:21 GMT-0500 (Central Daylight Time),40598.80000001192,O,z,2458,,,5,yes,1,3975.100000023842,36623.69999998808,practrial5.png,practrial5.png,7220,PC,B,,,2
3,1,0.0,prac,1,z,30000.0,Tue Sep 30 2025 11:38:21 GMT-0500 (Central Daylight Time),44932.09999996424,O,z,2805,,,3,yes,1,4328.0,40604.09999996424,practrial3.png,practrial3.png,7220,PC,B,,,3
4,1,0.0,prac,1,m,30000.0,Tue Sep 30 2025 11:38:21 GMT-0500 (Central Daylight Time),48063.39999997616,O,m,1600,,,6,no,1,3125.300000011921,44938.09999996424,practrial6.png,practrial6b.png,7220,PC,B,,,4
5,1,0.0,prac,1,z,30000.0,Tue Sep 30 2025 11:38:21 GMT-0500 (Central Daylight Time),50912.80000001192,O,z,1341,,,1,yes,1,2845.2000000476837,48067.59999996424,practrial1.png,practrial1.png,7220,PC,B,,,5
6,1,0.0,prac,1,m,30000.0,Tue Sep 30 2025 11:38:21 GMT-0500 (Central Daylight Time),54111.5,O,m,1669,,,2,no,1,3195.100000023842,50916.39999997616,practrial2.png,practrial2b.png,7220,PC,B,,,6
1,1,1.7809998989105225,test,1,z,28219.000101089478,Tue Sep 30 2025 11:38:21 GMT-0500 (Central Daylight Time),61208.59999996424,O,z,1769,1769,,1,yes,1,1777.7999999523163,59430.80000001192,test1trial1.png,test1trial1.png,7220,PC,B,55910,,1
2,1,3.0299999713897705,test,1,m,26970.00002861023,Tue Sep 30 2025 11:38:21 GMT-0500 (Central Daylight Time),62457.80000001192,O,m,1230,1230,,2,no,1,1246.2000000476837,61211.59999996424,test1trial2.png,test1trial2b.png,7220,PC,B,57690,,2
3,1,4.466000080108643,test,1,z,25533.999919891357,Tue Sep 30 2025 11:38:21 GMT-0500 (Central Daylight Time),63893.0,O,z,1429,1429,,3,yes,1,1432.4000000357628,62460.59999996424,test1trial3.png,test1trial3.png,7220,PC,B,58939,,3
4,1,6.478999853134155,test,1,m,23521.000146865845,Tue Sep 30 2025 11:38:21 GMT-0500 (Central Daylight Time),65906.80000001192,O,m,1996,1996,,4,no,1,2011.9000000357628,63894.89999997616,test1trial4.png,test1trial4b.png,7220,PC,B,60374,,4
5,1,8.227999925613403,test,1,z,21772.000074386597,Tue Sep 30 2025 11:38:21 GMT-0500 (Central Daylight Time),67655.59999996424,O,z,1730,1730,,5,yes,1,1745.699999988079,65909.89999997616,test1trial5.png,test1trial5.png,7220,PC,B,62389,,5
6,1,10.211999893188477,test,1,m,19788.000106811523,Tue Sep 30 2025 11:38:21 GMT-0500 (Central Daylight Time),69639.80000001192,O,m,1975,1975,,6,no,1,1982.1000000238419,67657.69999998808,test1trial6.png,test1trial6b.png,7220,PC,B,64136,,6
7,1,11.529000043869019,test,1,z,18470.99995613098,Tue Sep 30 2025 11:38:21 GMT-0500 (Central Daylight Time),70956.19999998808,O,z,1298,1298,,7,yes,1,1314.3999999761581,69641.80000001192,test1trial7.png,test1trial7.png,7220,PC,B,66121,,7
8,1,13.726999998092651,test,1,m,16273.000001907349,Tue Sep 30 2025 11:38:21 GMT-0500 (Central Daylight Time),73154.5,O,m,2180,2180,,8,no,1,2195.199999988079,70959.30000001192,test1trial8.png,test1trial8b.png,7220,PC,B,67438,,8
9,1,15.16100001335144,test,1,z,14838.99998664856,Tue Sep 30 2025 11:38:21 GMT-0500 (Central Daylight Time),74588.0,O,z,1413,1413,,9,yes,1,1429.5,73158.5,test1trial9.png,test1trial9.png,7220,PC,B,69637,,9
10,1,16.32800006866455,test,1,m,13671.99993133545,Tue Sep 30 2025 11:38:21 GMT-0500 (Central Daylight Time),75755.59999996424,O,m,1145,1145,,10,no,1,1163.0999999642372,74592.5,test1trial10.png,test1trial10b.png,7220,PC,B,71072,,10
11,1,17.64299988746643,test,1,z,12357.00011253357,Tue Sep 30 2025 11:38:21 GMT-0500 (Central Daylight Time),77070.39999997616,O,z,1296,1296,,11,yes,1,1310.5,75759.89999997616,test1trial11.png,test1trial11.png,7220,PC,B,72239,,11
12,1,19.325999975204468,test,1,m,10674.000024795532,Tue Sep 30 2025 11:38:21 GMT-0500 (Central Daylight Time),78753.5,O,m,1670,1670,,12,no,1,1679.1000000238419,77074.39999997616,test1trial12.png,test1trial12b.png,7220,PC,B,73554,,12
13,1,20.524999856948853,test,1,m,9475.000143051147,Tue Sep 30 2025 11:38:21 GMT-0500 (Central Daylight Time),79953.0,O,m,1187,1187,,13,no,1,1195.4000000357628,78757.59999996424,test1trial13.png,test1trial13b.png,7220,PC,B,75237,,13
14,1,21.657999992370605,test,1,m,8342.000007629395,Tue Sep 30 2025 11:38:21 GMT-0500 (Central Daylight Time),81085.69999998808,O,m,1125,1125,,14,no,1,1129.5,79956.19999998808,test1trial14.png,test1trial14b.png,7220,PC,B,76435,,14
15,1,26.19000005722046,test,1,z,3809.999942779541,Tue Sep 30 2025 11:38:21 GMT-0500 (Central Daylight Time),85617.59999996424,O,z,4522,4522,,15,yes,1,4529.199999988079,81088.39999997616,test1trial15.png,test1trial15.png,7220,PC,B,77567,,15
16,1,27.655999898910522,test,1,m,2344.0001010894775,Tue Sep 30 2025 11:38:21 GMT-0500 (Central Daylight Time),87083.0,O,m,1452,1452,,16,no,1,1463.300000011921,85619.69999998808,test1trial16.png,test1trial16b.png,7220,PC,B,82099,,16
16,1,30.00499987602234,test,0,z,-4.999876022338867,Tue Sep 30 2025 11:38:21 GMT-0500 (Central Daylight Time),89432.59999996424,O,None,2347,2347,,17,yes,1,2347.7999999523163,87084.80000001192,test1trial17.png,test1trial17.png,7220,PC,B,83563,,17
1,2,2.3320000171661377,test,1,m,27667.999982833862,Tue Sep 30 2025 11:38:21 GMT-0500 (Central Daylight Time),95514.80000001192,O,m,2313,,2313.0,1,no,1,8430.0,87084.80000001192,test2trial1.png,test2trial1b.png,7220,PC,B,,89664.0,1
2,2,3.4810001850128174,test,1,m,26518.999814987183,Tue Sep 30 2025 11:38:21 GMT-0500 (Central Daylight Time),96664.30000001192,O,m,1130,,1130.0,2,no,1,9579.5,87084.80000001192,test2trial2.png,test2trial2b.png,7220,PC,B,,91998.0,2
3,2,4.614000082015991,test,1,z,25385.99991798401,Tue Sep 30 2025 11:38:21 GMT-0500 (Central Daylight Time),97796.59999996424,O,z,1112,,1112.0,3,yes,1,10711.799999952316,87084.80000001192,test2trial3.png,test2trial3.png,7220,PC,B,,93151.0,3
4,2,5.648000001907349,test,1,z,24351.99999809265,Tue Sep 30 2025 11:38:21 GMT-0500 (Central Daylight Time),98830.09999996424,O,z,1017,,1017.0,4,yes,1,11745.299999952316,87084.80000001192,test2trial4.png,test2trial4.png,7220,PC,B,,94278.0,4
5,2,6.6650002002716064,test,1,z,23334.999799728394,Tue Sep 30 2025 11:38:21 GMT-0500 (Central Daylight Time),99847.09999996424,O,z,999,,999.0,5,yes,1,12762.299999952316,87084.80000001192,test2trial5.png,test2trial5.png,7220,PC,B,,95312.0,5
6,2,7.832000017166138,test,1,z,22167.999982833862,Tue Sep 30 2025 11:38:21 GMT-0500 (Central Daylight Time),101014.59999996424,O,z,1151,,1151.0,6,yes,1,13929.799999952316,87084.80000001192,test2trial6.png,test2trial6.png,7220,PC,B,,96330.0,6
6,2,8.680000066757202,test,0,m,21319.999933242798,Tue Sep 30 2025 11:38:21 GMT-0500 (Central Daylight Time),101862.80000001192,O,z,838,,838.0,7,no,1,14778.0,87084.80000001192,test2trial7.png,test2trial7b.png,7220,PC,B,,97498.0,7
7,2,9.92900013923645,test,1,m,20070.99986076355,Tue Sep 30 2025 11:38:21 GMT-0500 (Central Daylight Time),103111.89999997616,O,m,1230,,1230.0,8,no,1,16027.099999964237,87084.80000001192,test2trial8.png,test2trial8b.png,7220,PC,B,,98345.0,8
8,2,11.279000043869019,test,1,z,18720.99995613098,Tue Sep 30 2025 11:38:21 GMT-0500 (Central Daylight Time),104461.39999997616,O,z,1335,,1335.0,9,yes,1,17376.599999964237,87084.80000001192,test2trial9.png,test2trial9.png,7220,PC,B,,99592.0,9
9,2,12.07800006866455,test,1,z,17921.99993133545,Tue Sep 30 2025 11:38:21 GMT-0500 (Central Daylight Time),105260.89999997616,O,z,793,,793.0,10,yes,1,18176.099999964237,87084.80000001192,test2trial10.png,test2trial10.png,7220,PC,B,,100942.0,10
10,2,13.34500002861023,test,1,m,16654.99997138977,Tue Sep 30 2025 11:38:21 GMT-0500 (Central Daylight Time),106527.09999996424,O,m,1259,,1259.0,11,no,1,19442.299999952316,87084.80000001192,test2trial11.png,test2trial11b.png,7220,PC,B,,101741.0,11
11,2,14.978000164031982,test,1,m,15021.999835968018,Tue Sep 30 2025 11:38:21 GMT-0500 (Central Daylight Time),108160.69999998808,O,m,1622,,1622.0,12,no,1,21075.899999976158,87084.80000001192,test2trial12.png,test2trial12b.png,7220,PC,B,,103009.0,12
12,2,16.044000148773193,test,1,z,13955.999851226807,Tue Sep 30 2025 11:38:21 GMT-0500 (Central Daylight Time),109226.5,O,z,1048,,1048.0,13,yes,1,22141.69999998808,87084.80000001192,test2trial13.png,test2trial13.png,7220,PC,B,,104643.0,13
13,2,17.277000188827515,test,1,m,12722.999811172485,Tue Sep 30 2025 11:38:21 GMT-0500 (Central Daylight Time),110459.09999996424,O,m,1211,,1211.0,14,no,1,23374.299999952316,87084.80000001192,test2trial14.png,test2trial14b.png,7220,PC,B,,105710.0,14
14,2,18.210000038146973,test,1,m,11789.999961853027,Tue Sep 30 2025 11:38:21 GMT-0500 (Central Daylight Time),111392.30000001192,O,m,924,,924.0,15,no,1,24307.5,87084.80000001192,test2trial15.png,test2trial15b.png,7220,PC,B,,106940.0,15
15,2,19.176000118255615,test,1,m,10823.999881744385,Tue Sep 30 2025 11:38:21 GMT-0500 (Central Daylight Time),112358.5,O,m,957,,957.0,16,no,1,25273.69999998808,87084.80000001192,test2trial16.png,test2trial16b.png,7220,PC,B,,107874.0,16
16,2,20.242000102996826,test,1,z,9757.999897003174,Tue Sep 30 2025 11:38:21 GMT-0500 (Central Daylight Time),113424.69999998808,O,z,1047,,1047.0,17,yes,1,26339.899999976158,87084.80000001192,test2trial17.png,test2trial17.png,7220,PC,B,,108840.0,17
17,2,21.66000008583069,test,1,z,8339.999914169312,Tue Sep 30 2025 11:38:21 GMT-0500 (Central Daylight Time),114842.30000001192,O,z,1406,,1406.0,18,yes,1,27757.5,87084.80000001192,test2trial18.png,test2trial18.png,7220,PC,B,,109906.0,18
18,2,23.055999994277954,test,1,z,6944.000005722046,Tue Sep 30 2025 11:38:21 GMT-0500 (Central Daylight Time),116238.89999997616,O,z,1386,,1386.0,19,yes,1,29154.099999964237,87084.80000001192,test2trial19.png,test2trial19.png,7220,PC,B,,111325.0,19
19,2,27.42300009727478,test,1,z,2576.9999027252197,Tue Sep 30 2025 11:38:21 GMT-0500 (Central Daylight Time),120605.80000001192,O,z,4351,,4351.0,20,yes,1,33521.0,87084.80000001192,test2trial20.png,test2trial20.png,7220,PC,B,,112721.0,20
19,2,30.007000207901,test,0,z,-7.000207901000977,Tue Sep 30 2025 11:38:21 GMT-0500 (Central Daylight Time),123189.89999997616,O,None,2579,,2579.0,21,yes,1,36105.09999996424,87084.80000001192,test2trial21.png,test2trial21.png,7220,PC,B,,117089.0,21
