Q,Q1,Q2,Q3,Q4,acc_sum,block,block_c,correct,correct_response,datetime,endtime,project,response,response_time,row_sel,session_number,squiggle1,squiggle1x,squiggle1y,squiggle2,squiggle2x,squiggle2y,squiggle3,squiggle3x,squiggle3y,squiggle4,squiggle4x,squiggle4y,start_end,starttime,subject_id,target_congruent,task,task_vers,testsquiggle,testsquigglex,testsquiggley,time_practice_delay,time_practice_fixation,time_practice_stimuli,time_practice_study,time_test_delay,time_test_fixation,time_test_stimuli,time_test_study,trial
1,1,0,0,0,0,prac,1,0,z,Tue May 27 2025 18:29:06 GMT-0500 (Central Daylight Time),130816.5,I,m,1304,1,1,116.bmp,-120,-120,117.bmp,120,-120,118.bmp,-120,120,119.bmp,120,120,10125.5,120691.0,8052,yes,SM,A,116.bmp,-120,-120,125052,119019,127064,121031,,,,,1
3,0,0,1,0,0,prac,1,0,m,Tue May 27 2025 18:29:06 GMT-0500 (Central Daylight Time),141029.5,I,z,1395,2,1,120.bmp,-120,-120,121.bmp,120,-120,122.bmp,-120,120,123.bmp,120,120,10209.0,130820.5,8052,no,SM,A,123.bmp,-120,120,135176,129149,137189,131160,,,,,2
4,0,0,0,1,1,prac,1,1,m,Tue May 27 2025 18:29:06 GMT-0500 (Central Daylight Time),151593.19999998808,I,m,1738,3,1,124.bmp,-120,-120,125.bmp,120,-120,126.bmp,-120,120,127.bmp,120,120,10559.800000011921,141033.39999997616,8052,no,SM,A,124.bmp,120,120,145391,139362,147406,141374,,,,,3
2,0,1,0,0,2,prac,1,1,z,Tue May 27 2025 18:29:06 GMT-0500 (Central Daylight Time),162389.39999997616,I,z,1967,4,1,128.bmp,-120,-120,129.bmp,120,-120,130.bmp,-120,120,131.bmp,120,120,10793.399999976158,151596.0,8052,yes,SM,A,129.bmp,120,-120,155952,149924,157969,151938,,,,,4
3,0,0,1,0,3,prac,1,1,z,Tue May 27 2025 18:29:06 GMT-0500 (Central Daylight Time),172984.80000001192,I,z,1769,5,1,132.bmp,-120,-120,133.bmp,120,-120,134.bmp,-120,120,135.bmp,120,120,10591.200000047684,162393.59999996424,8052,yes,SM,A,134.bmp,-120,120,166750,160722,168766,162733,,,,,5
1,1,0,0,0,4,prac,1,1,m,Tue May 27 2025 18:29:06 GMT-0500 (Central Daylight Time),183165.80000001192,I,m,1359,6,1,136.bmp,-120,-120,137.bmp,120,-120,138.bmp,-120,120,139.bmp,120,120,10178.600000023842,172987.19999998808,8052,no,SM,A,139.bmp,-120,-120,177346,171315,179361,173330,,,,,6
2,0,1,0,0,5,prac,1,1,m,Tue May 27 2025 18:29:06 GMT-0500 (Central Daylight Time),193095.5,I,m,1101,7,1,140.bmp,-120,-120,141.bmp,120,-120,142.bmp,-120,120,143.bmp,120,120,9924.900000035763,183170.59999996424,8052,no,SM,A,140.bmp,120,-120,187525,181499,189542,183509,,,,,7
4,0,0,0,1,6,prac,1,1,z,Tue May 27 2025 18:29:06 GMT-0500 (Central Daylight Time),203476.59999996424,I,z,1568,8,1,144.bmp,-120,-120,145.bmp,120,-120,146.bmp,-120,120,147.bmp,120,120,10378.0,193098.59999996424,8052,yes,SM,A,147.bmp,120,120,197453,191427,199471,193440,,,,,8
4,0,0,0,1,0,test,1,0,m,Tue May 27 2025 18:29:06 GMT-0500 (Central Daylight Time),226704.89999997616,I,z,1234,1,1,148.bmp,-120,-120,149.bmp,120,-120,150.bmp,-120,120,143.bmp,120,120,9278.0,217426.89999997616,8052,no,SM,A,150.bmp,120,120,197453,191427,199471,193440,221783.0,215755.0,223798.0,217767.0,1
2,0,1,0,0,0,test,1,0,m,Tue May 27 2025 18:29:06 GMT-0500 (Central Daylight Time),236366.69999998808,I,z,1611,2,1,101.bmp,-120,-120,102.bmp,120,-120,103.bmp,-120,120,104.bmp,120,120,9657.0,226709.69999998808,8052,no,SM,A,103.bmp,120,-120,197453,191427,199471,193440,231062.0,225038.0,233078.0,227047.0,2
1,1,0,0,0,0,test,1,0,z,Tue May 27 2025 18:29:06 GMT-0500 (Central Daylight Time),246414.89999997616,I,None,2003,3,1,105.bmp,-120,-120,106.bmp,120,-120,107.bmp,-120,120,108.bmp,120,120,10044.399999976158,236370.5,8052,yes,SM,A,105.bmp,-120,-120,197453,191427,199471,193440,240724.0,234699.0,242740.0,236708.0,3
3,0,0,1,0,1,test,1,1,m,Tue May 27 2025 18:29:06 GMT-0500 (Central Daylight Time),255426.5,I,m,955,4,1,109.bmp,-120,-120,110.bmp,120,-120,111.bmp,-120,120,112.bmp,120,120,9002.100000023842,246424.39999997616,8052,no,SM,A,109.bmp,-120,120,197453,191427,199471,193440,250773.0,244753.0,252789.0,246756.0,4
2,0,1,0,0,2,test,1,1,z,Tue May 27 2025 18:29:06 GMT-0500 (Central Daylight Time),264923.5,I,z,1436,5,1,113.bmp,-120,-120,114.bmp,120,-120,115.bmp,-120,120,116.bmp,120,120,9493.0,255430.5,8052,yes,SM,A,114.bmp,120,-120,197453,191427,199471,193440,259788.0,253759.0,261803.0,255771.0,5
3,0,0,1,0,3,test,1,1,z,Tue May 27 2025 18:29:06 GMT-0500 (Central Daylight Time),274755.5,I,z,1783,6,1,117.bmp,-120,-120,118.bmp,120,-120,119.bmp,-120,120,120.bmp,120,120,9829.400000035763,264926.09999996424,8052,yes,SM,A,119.bmp,-120,120,197453,191427,199471,193440,269283.0,263254.0,271300.0,265268.0,6
4,0,0,0,1,4,test,1,1,z,Tue May 27 2025 18:29:06 GMT-0500 (Central Daylight Time),284167.09999996424,I,z,1348,7,1,121.bmp,-120,-120,122.bmp,120,-120,123.bmp,-120,120,124.bmp,120,120,9408.199999988079,274758.89999997616,8052,yes,SM,A,124.bmp,120,120,197453,191427,199471,193440,279113.0,273087.0,281131.0,275098.0,7
2,0,1,0,0,4,test,1,0,m,Tue May 27 2025 18:29:06 GMT-0500 (Central Daylight Time),294231.09999996424,I,None,2017,8,1,125.bmp,-120,-120,126.bmp,120,-120,127.bmp,-120,120,128.bmp,120,120,10060.299999952316,284170.8000000119,8052,no,SM,A,125.bmp,120,-120,197453,191427,199471,193440,288526.0,282499.0,290542.0,284513.0,8
3,0,0,1,0,5,test,1,1,m,Tue May 27 2025 18:29:06 GMT-0500 (Central Daylight Time),303495.5,I,m,1209,9,1,129.bmp,-120,-120,130.bmp,120,-120,131.bmp,-120,120,132.bmp,120,120,9260.400000035763,294235.09999996424,8052,no,SM,A,130.bmp,-120,120,197453,191427,199471,193440,298592.0,292563.0,300606.0,294574.0,9
4,0,0,0,1,6,test,1,1,z,Tue May 27 2025 18:29:06 GMT-0500 (Central Daylight Time),312524.0,I,z,976,10,1,137.bmp,-120,-120,138.bmp,120,-120,139.bmp,-120,120,140.bmp,120,120,9025.199999988079,303498.8000000119,8052,yes,SM,A,140.bmp,120,120,197453,191427,199471,193440,307854.0,301827.0,309872.0,303838.0,10
3,0,0,1,0,6,test,1,0,z,Tue May 27 2025 18:29:06 GMT-0500 (Central Daylight Time),321921.59999996424,I,m,1347,11,1,133.bmp,-120,-120,134.bmp,120,-120,135.bmp,-120,120,136.bmp,120,120,9393.699999988079,312527.89999997616,8052,yes,SM,A,135.bmp,-120,120,197453,191427,199471,193440,316885.0,310856.0,318901.0,312871.0,11
2,0,1,0,0,7,test,1,1,m,Tue May 27 2025 18:29:06 GMT-0500 (Central Daylight Time),331051.89999997616,I,m,1070,12,1,141.bmp,-120,-120,142.bmp,120,-120,143.bmp,-120,120,144.bmp,120,120,9123.5,321928.39999997616,8052,no,SM,A,141.bmp,120,-120,197453,191427,199471,193440,326281.0,320257.0,328298.0,322266.0,12
3,0,0,1,0,7,test,1,0,m,Tue May 27 2025 18:29:06 GMT-0500 (Central Daylight Time),341115.8000000119,I,None,2016,13,1,145.bmp,-120,-120,146.bmp,120,-120,147.bmp,-120,120,148.bmp,120,120,10058.200000047684,331057.59999996424,8052,no,SM,A,146.bmp,-120,120,197453,191427,199471,193440,335412.0,329386.0,337428.0,331397.0,13
1,1,0,0,0,7,test,1,0,z,Tue May 27 2025 18:29:06 GMT-0500 (Central Daylight Time),351178.6999999881,I,None,2015,14,1,149.bmp,-120,-120,150.bmp,120,-120,104.bmp,-120,120,101.bmp,120,120,10057.899999976158,341120.8000000119,8052,yes,SM,A,149.bmp,-120,-120,197453,191427,199471,193440,345475.0,339449.0,347492.0,341459.0,14
4,0,0,0,1,8,test,1,1,m,Tue May 27 2025 18:29:06 GMT-0500 (Central Daylight Time),360557.8000000119,I,m,1316,15,1,110.bmp,-120,-120,111.bmp,120,-120,112.bmp,-120,120,113.bmp,120,120,9374.900000035763,351182.89999997616,8052,no,SM,A,111.bmp,120,120,197453,191427,199471,193440,355538.0,349511.0,357555.0,351523.0,15
1,1,0,0,0,9,test,1,1,m,Tue May 27 2025 18:29:06 GMT-0500 (Central Daylight Time),369857.0,I,m,1249,16,1,102.bmp,-120,-120,103.bmp,120,-120,104.bmp,-120,120,105.bmp,120,120,9294.5,360562.5,8052,no,SM,A,105.bmp,-120,-120,197453,191427,199471,193440,364919.0,358891.0,366935.0,360904.0,16
3,0,0,1,0,10,test,1,1,m,Tue May 27 2025 18:29:06 GMT-0500 (Central Daylight Time),379055.09999996424,I,m,1133,17,1,122.bmp,-120,-120,123.bmp,120,-120,124.bmp,-120,120,125.bmp,120,120,9193.599999964237,369861.5,8052,no,SM,A,122.bmp,-120,120,197453,191427,199471,193440,374216.0,368190.0,376234.0,370202.0,17
1,1,0,0,0,11,test,1,1,z,Tue May 27 2025 18:29:06 GMT-0500 (Central Daylight Time),388733.39999997616,I,z,1642,18,1,106.bmp,-120,-120,107.bmp,120,-120,108.bmp,-120,120,109.bmp,120,120,9674.300000011921,379059.09999996424,8052,yes,SM,A,106.bmp,-120,-120,197453,191427,199471,193440,383412.0,377387.0,385414.0,379399.0,18
2,0,1,0,0,12,test,1,1,z,Tue May 27 2025 18:29:06 GMT-0500 (Central Daylight Time),397779.5,I,z,995,19,1,126.bmp,-120,-120,127.bmp,120,-120,128.bmp,-120,120,129.bmp,120,120,9042.900000035763,388736.59999996424,8052,yes,SM,A,127.bmp,120,-120,197453,191427,199471,193440,393094.0,387065.0,395109.0,389077.0,19
3,0,0,1,0,12,test,1,0,z,Tue May 27 2025 18:29:06 GMT-0500 (Central Daylight Time),407846.39999997616,I,None,2017,20,1,130.bmp,-120,-120,131.bmp,120,-120,132.bmp,-120,120,133.bmp,120,120,10064.0,397782.39999997616,8052,yes,SM,A,132.bmp,-120,120,197453,191427,199471,193440,402140.0,396111.0,404157.0,398125.0,20
1,1,0,0,0,13,test,1,1,m,Tue May 27 2025 18:29:06 GMT-0500 (Central Daylight Time),416874.09999996424,I,m,972,21,1,114.bmp,-120,-120,115.bmp,120,-120,116.bmp,-120,120,117.bmp,120,120,9024.699999988079,407849.39999997616,8052,no,SM,A,116.bmp,-120,-120,197453,191427,199471,193440,412205.0,406178.0,414220.0,408190.0,21
4,0,0,0,1,14,test,1,1,z,Tue May 27 2025 18:29:06 GMT-0500 (Central Daylight Time),425987.8000000119,I,z,1052,22,1,118.bmp,-120,-120,119.bmp,120,-120,120.bmp,-120,120,121.bmp,120,120,9110.400000035763,416877.39999997616,8052,yes,SM,A,121.bmp,120,120,197453,191427,199471,193440,421234.0,415206.0,423252.0,417219.0,22
1,1,0,0,0,15,test,1,1,m,Tue May 27 2025 18:29:06 GMT-0500 (Central Daylight Time),435019.3000000119,I,m,971,23,1,134.bmp,-120,-120,135.bmp,120,-120,136.bmp,-120,120,137.bmp,120,120,9028.100000023842,425991.1999999881,8052,no,SM,A,137.bmp,-120,-120,197453,191427,199471,193440,430349.0,424319.0,432365.0,426334.0,23
2,0,1,0,0,16,test,1,1,z,Tue May 27 2025 18:29:06 GMT-0500 (Central Daylight Time),444383.59999996424,I,z,1300,24,1,142.bmp,-120,-120,143.bmp,120,-120,144.bmp,-120,120,145.bmp,120,120,9360.0,435023.59999996424,8052,yes,SM,A,143.bmp,120,-120,197453,191427,199471,193440,439379.0,433352.0,441395.0,435364.0,24
4,0,0,0,1,17,test,1,1,m,Tue May 27 2025 18:29:06 GMT-0500 (Central Daylight Time),453778.89999997616,I,m,1361,25,1,146.bmp,-120,-120,147.bmp,120,-120,148.bmp,-120,120,149.bmp,120,120,9391.300000011921,444387.59999996424,8052,no,SM,A,148.bmp,120,120,197453,191427,199471,193440,448742.0,442716.0,450744.0,444728.0,25
1,1,0,0,0,18,test,1,1,z,Tue May 27 2025 18:29:06 GMT-0500 (Central Daylight Time),463242.8000000119,I,z,1405,26,1,138.bmp,-120,-120,139.bmp,120,-120,140.bmp,-120,120,141.bmp,120,120,9461.200000047684,453781.59999996424,8052,yes,SM,A,138.bmp,-120,-120,197453,191427,199471,193440,458140.0,452110.0,460155.0,454124.0,26
4,0,0,0,1,19,test,1,1,z,Tue May 27 2025 18:29:06 GMT-0500 (Central Daylight Time),472624.89999997616,I,z,1332,27,1,150.bmp,-120,-120,111.bmp,120,-120,101.bmp,-120,120,102.bmp,120,120,9379.699999988079,463245.1999999881,8052,yes,SM,A,102.bmp,120,120,197453,191427,199471,193440,467602.0,461573.0,469620.0,463588.0,27
3,0,0,1,0,20,test,1,1,m,Tue May 27 2025 18:29:06 GMT-0500 (Central Daylight Time),481786.8000000119,I,m,1103,28,1,103.bmp,-120,-120,104.bmp,120,-120,105.bmp,-120,120,106.bmp,120,120,9158.100000023842,472628.6999999881,8052,no,SM,A,103.bmp,-120,120,197453,191427,199471,193440,476982.0,470957.0,479001.0,472969.0,28
2,0,1,0,0,21,test,1,1,z,Tue May 27 2025 18:29:06 GMT-0500 (Central Daylight Time),491633.8000000119,I,z,1789,29,1,107.bmp,-120,-120,108.bmp,120,-120,109.bmp,-120,120,110.bmp,120,120,9843.700000047684,481790.09999996424,8052,yes,SM,A,108.bmp,120,-120,197453,191427,199471,193440,486146.0,480118.0,488163.0,482133.0,29
3,0,0,1,0,22,test,1,1,z,Tue May 27 2025 18:29:06 GMT-0500 (Central Daylight Time),501447.39999997616,I,z,1758,30,1,111.bmp,-120,-120,112.bmp,120,-120,113.bmp,-120,120,114.bmp,120,120,9809.300000011921,491638.09999996424,8052,yes,SM,A,113.bmp,-120,120,197453,191427,199471,193440,495993.0,489966.0,498010.0,491978.0,30
1,1,0,0,0,23,test,1,1,z,Tue May 27 2025 18:29:06 GMT-0500 (Central Daylight Time),511193.59999996424,I,z,1687,31,1,115.bmp,-120,-120,116.bmp,120,-120,117.bmp,-120,120,118.bmp,120,120,9743.299999952316,501450.3000000119,8052,yes,SM,A,115.bmp,-120,-120,197453,191427,199471,193440,505807.0,499779.0,507824.0,501792.0,31
2,0,1,0,0,24,test,1,1,m,Tue May 27 2025 18:29:06 GMT-0500 (Central Daylight Time),520257.09999996424,I,m,1005,32,1,119.bmp,-120,-120,120.bmp,120,-120,121.bmp,-120,120,122.bmp,120,120,9060.599999964237,511196.5,8052,no,SM,A,119.bmp,120,-120,197453,191427,199471,193440,515554.0,509525.0,517571.0,511539.0,32
4,0,0,0,1,25,test,1,1,z,Tue May 27 2025 18:29:06 GMT-0500 (Central Daylight Time),529307.6999999881,I,z,985,33,1,131.bmp,-120,-120,132.bmp,120,-120,133.bmp,-120,120,134.bmp,120,120,9045.800000011921,520261.89999997616,8052,yes,SM,A,134.bmp,120,120,197453,191427,199471,193440,524618.0,518590.0,526634.0,520603.0,33
2,0,1,0,0,26,test,1,1,z,Tue May 27 2025 18:29:06 GMT-0500 (Central Daylight Time),538368.3999999762,I,z,1030,34,1,123.bmp,-120,-120,124.bmp,120,-120,125.bmp,-120,120,126.bmp,120,120,9057.300000011921,529311.0999999642,8052,yes,SM,A,124.bmp,120,-120,197453,191427,199471,193440,533664.0,527639.0,535666.0,529649.0,34
4,0,0,0,1,27,test,1,1,m,Tue May 27 2025 18:29:06 GMT-0500 (Central Daylight Time),547549.6999999881,I,m,1118,35,1,127.bmp,-120,-120,128.bmp,120,-120,129.bmp,-120,120,130.bmp,120,120,9179.399999976158,538370.3000000119,8052,no,SM,A,129.bmp,120,120,197453,191427,199471,193440,542730.0,536699.0,544745.0,538714.0,35
3,0,0,1,0,28,test,1,1,m,Tue May 27 2025 18:29:06 GMT-0500 (Central Daylight Time),556578.6999999881,I,m,995,36,1,135.bmp,-120,-120,136.bmp,120,-120,137.bmp,-120,120,138.bmp,120,120,9024.199999988079,547554.5,8052,no,SM,A,135.bmp,-120,120,197453,191427,199471,193440,551907.0,545883.0,553909.0,547895.0,36
1,1,0,0,0,29,test,1,1,m,Tue May 27 2025 18:29:06 GMT-0500 (Central Daylight Time),565693.5999999642,I,m,1067,37,1,139.bmp,-120,-120,140.bmp,120,-120,141.bmp,-120,120,142.bmp,120,120,9110.399999976158,556583.1999999881,8052,no,SM,A,140.bmp,-120,-120,197453,191427,199471,193440,560937.0,554912.0,562941.0,556924.0,37
2,0,1,0,0,29,test,1,0,m,Tue May 27 2025 18:29:06 GMT-0500 (Central Daylight Time),575757.8000000119,I,None,2014,38,1,143.bmp,-120,-120,144.bmp,120,-120,145.bmp,-120,120,146.bmp,120,120,10059.5,565698.3000000119,8052,no,SM,A,145.bmp,120,-120,197453,191427,199471,193440,570054.0,564027.0,572072.0,566039.0,38
4,0,0,0,1,30,test,1,1,z,Tue May 27 2025 18:29:06 GMT-0500 (Central Daylight Time),584737.1999999881,I,z,929,39,1,147.bmp,-120,-120,148.bmp,120,-120,149.bmp,-120,120,150.bmp,120,120,8972.399999976158,575764.8000000119,8052,yes,SM,A,150.bmp,120,120,197453,191427,199471,193440,580117.0,574093.0,582134.0,576102.0,39
3,0,0,1,0,31,test,1,1,m,Tue May 27 2025 18:29:06 GMT-0500 (Central Daylight Time),593866.6999999881,I,m,1078,40,1,104.bmp,-120,-120,105.bmp,120,-120,106.bmp,-120,120,107.bmp,120,120,9124.0,584742.6999999881,8052,no,SM,A,105.bmp,-120,120,197453,191427,199471,193440,589097.0,583071.0,591114.0,585083.0,40
1,1,0,0,0,32,test,1,1,z,Tue May 27 2025 18:29:06 GMT-0500 (Central Daylight Time),603882.0999999642,I,z,1956,41,1,108.bmp,-120,-120,109.bmp,120,-120,110.bmp,-120,120,111.bmp,120,120,10009.899999976158,593872.1999999881,8052,yes,SM,A,108.bmp,-120,-120,197453,191427,199471,193440,598227.0,592200.0,600244.0,594213.0,41
4,0,0,0,1,33,test,1,1,z,Tue May 27 2025 18:29:06 GMT-0500 (Central Daylight Time),613776.8999999762,I,z,1847,42,1,112.bmp,-120,-120,113.bmp,120,-120,114.bmp,-120,120,115.bmp,120,120,9890.800000011921,603886.0999999642,8052,yes,SM,A,115.bmp,120,120,197453,191427,199471,193440,608242.0,602214.0,610258.0,604226.0,42
1,1,0,0,0,33,test,1,0,z,Tue May 27 2025 18:29:06 GMT-0500 (Central Daylight Time),623843.0999999642,I,None,2018,43,1,116.bmp,-120,-120,117.bmp,120,-120,118.bmp,-120,120,119.bmp,120,120,10063.199999988079,613779.8999999762,8052,yes,SM,A,116.bmp,-120,-120,197453,191427,199471,193440,618137.0,612108.0,620153.0,614123.0,43
4,0,0,0,1,34,test,1,1,m,Tue May 27 2025 18:29:06 GMT-0500 (Central Daylight Time),633022.3000000119,I,m,1116,44,1,104.bmp,-120,-120,101.bmp,120,-120,102.bmp,-120,120,103.bmp,120,120,9176.200000047684,623846.0999999642,8052,no,SM,A,104.bmp,120,120,197453,191427,199471,193440,628202.0,622174.0,630219.0,624186.0,44
1,1,0,0,0,35,test,1,1,m,Tue May 27 2025 18:29:06 GMT-0500 (Central Daylight Time),642153.0,I,m,1065,45,1,128.bmp,-120,-120,129.bmp,120,-120,130.bmp,-120,120,131.bmp,120,120,9127.400000035763,633025.5999999642,8052,no,SM,A,131.bmp,-120,-120,197453,191427,199471,193440,637383.0,631354.0,639400.0,633367.0,45
1,1,0,0,0,35,test,1,0,m,Tue May 27 2025 18:29:06 GMT-0500 (Central Daylight Time),652199.5999999642,I,None,2017,46,1,120.bmp,-120,-120,121.bmp,120,-120,122.bmp,-120,120,123.bmp,120,120,10042.799999952316,642156.8000000119,8052,no,SM,A,121.bmp,-120,-120,197453,191427,199471,193440,646497.0,640485.0,648511.0,642494.0,46
3,0,0,1,0,36,test,1,1,z,Tue May 27 2025 18:29:06 GMT-0500 (Central Daylight Time),662130.3999999762,I,z,1899,47,1,124.bmp,-120,-120,125.bmp,120,-120,126.bmp,-120,120,127.bmp,120,120,9928.099999964237,652202.3000000119,8052,yes,SM,A,126.bmp,-120,120,197453,191427,199471,193440,656558.0,650531.0,658559.0,652544.0,47
3,0,0,1,0,37,test,1,1,z,Tue May 27 2025 18:29:06 GMT-0500 (Central Daylight Time),671127.0999999642,I,z,942,48,1,140.bmp,-120,-120,141.bmp,120,-120,142.bmp,-120,120,143.bmp,120,120,8992.899999976158,662134.1999999881,8052,yes,SM,A,142.bmp,-120,120,197453,191427,199471,193440,666490.0,660462.0,668506.0,662475.0,48
2,0,1,0,0,38,test,1,1,z,Tue May 27 2025 18:29:06 GMT-0500 (Central Daylight Time),680407.1999999881,I,z,1224,49,1,136.bmp,-120,-120,137.bmp,120,-120,138.bmp,-120,120,139.bmp,120,120,9276.600000023842,671130.5999999642,8052,yes,SM,A,137.bmp,120,-120,197453,191427,199471,193440,675487.0,669459.0,677504.0,671471.0,49
3,0,0,1,0,38,test,1,0,m,Tue May 27 2025 18:29:06 GMT-0500 (Central Daylight Time),690471.3000000119,I,None,2015,50,1,132.bmp,-120,-120,133.bmp,120,-120,134.bmp,-120,120,135.bmp,120,120,10057.800000011921,680413.5,8052,no,SM,A,132.bmp,-120,120,197453,191427,199471,193440,684769.0,678742.0,686784.0,680754.0,50
2,0,1,0,0,39,test,1,1,z,Tue May 27 2025 18:29:06 GMT-0500 (Central Daylight Time),699998.6999999881,I,z,1481,51,1,144.bmp,-120,-120,145.bmp,120,-120,146.bmp,-120,120,147.bmp,120,120,9521.199999988079,690477.5,8052,yes,SM,A,145.bmp,120,-120,197453,191427,199471,193440,694830.0,688806.0,696846.0,690816.0,51
4,0,0,0,1,40,test,1,1,m,Tue May 27 2025 18:29:06 GMT-0500 (Central Daylight Time),709813.5,I,m,1749,52,1,148.bmp,-120,-120,149.bmp,120,-120,150.bmp,-120,120,131.bmp,120,120,9812.800000011921,700000.6999999881,8052,no,SM,A,148.bmp,120,120,197453,191427,199471,193440,704361.0,698329.0,706378.0,700347.0,52
3,0,0,1,0,41,test,1,1,z,Tue May 27 2025 18:29:06 GMT-0500 (Central Daylight Time),718994.1999999881,I,z,1128,53,1,101.bmp,-120,-120,102.bmp,120,-120,103.bmp,-120,120,104.bmp,120,120,9177.0,709817.1999999881,8052,yes,SM,A,103.bmp,-120,120,197453,191427,199471,193440,714174.0,708145.0,716192.0,710158.0,53
1,1,0,0,0,41,test,1,0,m,Tue May 27 2025 18:29:06 GMT-0500 (Central Daylight Time),728340.3000000119,I,z,1283,54,1,105.bmp,-120,-120,106.bmp,120,-120,107.bmp,-120,120,108.bmp,120,120,9342.300000011921,718998.0,8052,no,SM,A,107.bmp,-120,-120,197453,191427,199471,193440,723355.0,717326.0,725372.0,719338.0,54
4,0,0,0,1,41,test,1,0,z,Tue May 27 2025 18:29:06 GMT-0500 (Central Daylight Time),738388.1999999881,I,None,2014,55,1,109.bmp,-120,-120,110.bmp,120,-120,111.bmp,-120,120,112.bmp,120,120,10043.899999976158,728344.3000000119,8052,yes,SM,A,112.bmp,120,120,197453,191427,199471,193440,732700.0,726673.0,734702.0,728686.0,55
2,0,1,0,0,42,test,1,1,m,Tue May 27 2025 18:29:06 GMT-0500 (Central Daylight Time),747668.6999999881,I,m,1218,56,1,113.bmp,-120,-120,114.bmp,120,-120,115.bmp,-120,120,116.bmp,120,120,9276.100000023842,738392.5999999642,8052,no,SM,A,113.bmp,120,-120,197453,191427,199471,193440,742750.0,736721.0,744765.0,738734.0,56
4,0,0,0,1,43,test,1,1,m,Tue May 27 2025 18:29:06 GMT-0500 (Central Daylight Time),756783.0999999642,I,m,1050,57,1,117.bmp,-120,-120,118.bmp,120,-120,119.bmp,-120,120,120.bmp,120,120,9110.699999988079,747672.3999999762,8052,no,SM,A,118.bmp,120,120,197453,191427,199471,193440,752029.0,746001.0,754045.0,748011.0,57
3,0,0,1,0,44,test,1,1,z,Tue May 27 2025 18:29:06 GMT-0500 (Central Daylight Time),766812.8000000119,I,z,1968,58,1,121.bmp,-120,-120,122.bmp,120,-120,123.bmp,-120,120,124.bmp,120,120,10025.700000047684,756787.0999999642,8052,yes,SM,A,123.bmp,-120,120,197453,191427,199471,193440,761143.0,755115.0,763159.0,757128.0,58
2,0,1,0,0,45,test,1,1,m,Tue May 27 2025 18:29:06 GMT-0500 (Central Daylight Time),775959.5999999642,I,m,1088,59,1,125.bmp,-120,-120,126.bmp,120,-120,127.bmp,-120,120,128.bmp,120,120,9142.699999988079,766816.8999999762,8052,no,SM,A,128.bmp,120,-120,197453,191427,199471,193440,771173.0,765145.0,773191.0,767157.0,59
1,1,0,0,0,46,test,1,1,z,Tue May 27 2025 18:29:06 GMT-0500 (Central Daylight Time),785024.3000000119,I,z,1015,60,1,129.bmp,-120,-120,130.bmp,120,-120,131.bmp,-120,120,132.bmp,120,120,9062.0,775962.3000000119,8052,yes,SM,A,129.bmp,-120,-120,197453,191427,199471,193440,780320.0,774291.0,782337.0,776305.0,60
2,0,1,0,0,46,test,1,0,z,Tue May 27 2025 18:29:06 GMT-0500 (Central Daylight Time),794987.0,I,m,1912,61,1,133.bmp,-120,-120,134.bmp,120,-120,135.bmp,-120,120,136.bmp,120,120,9960.699999988079,785026.3000000119,8052,yes,SM,A,134.bmp,120,-120,197453,191427,199471,193440,789385.0,783354.0,791401.0,785370.0,61
4,0,0,0,1,47,test,1,1,z,Tue May 27 2025 18:29:06 GMT-0500 (Central Daylight Time),804417.0999999642,I,z,1368,62,1,141.bmp,-120,-120,142.bmp,120,-120,143.bmp,-120,120,144.bmp,120,120,9425.0,794992.0999999642,8052,yes,SM,A,144.bmp,120,120,197453,191427,199471,193440,799345.0,793320.0,801364.0,795334.0,62
1,1,0,0,0,48,test,1,1,m,Tue May 27 2025 18:29:06 GMT-0500 (Central Daylight Time),814331.6999999881,I,m,1851,63,1,145.bmp,-120,-120,146.bmp,120,-120,147.bmp,-120,120,148.bmp,120,120,9909.300000011921,804422.3999999762,8052,no,SM,A,145.bmp,-120,120,197453,191427,199471,193440,808778.0,802751.0,810796.0,804761.0,63
2,0,1,0,0,49,test,1,1,z,Tue May 27 2025 18:29:06 GMT-0500 (Central Daylight Time),823594.3999999762,I,z,1214,64,1,149.bmp,-120,-120,150.bmp,120,-120,112.bmp,-120,120,101.bmp,120,120,9258.300000011921,814336.0999999642,8052,yes,SM,A,150.bmp,120,-120,197453,191427,199471,193440,818692.0,812664.0,820708.0,814677.0,64
4,0,0,0,1,49,test,1,0,m,Tue May 27 2025 18:29:06 GMT-0500 (Central Daylight Time),833658.0999999642,I,None,2016,65,1,102.bmp,-120,-120,103.bmp,120,-120,104.bmp,-120,120,105.bmp,120,120,10056.599999964237,823601.5,8052,no,SM,A,104.bmp,120,120,197453,191427,199471,193440,827954.0,821930.0,829970.0,823939.0,65
3,0,0,1,0,50,test,1,1,m,Tue May 27 2025 18:29:06 GMT-0500 (Central Daylight Time),842789.3000000119,I,m,1078,66,1,106.bmp,-120,-120,107.bmp,120,-120,108.bmp,-120,120,109.bmp,120,120,9125.200000047684,833664.0999999642,8052,no,SM,A,109.bmp,-120,120,197453,191427,199471,193440,838018.0,831992.0,840034.0,834002.0,66
2,0,1,0,0,51,test,1,1,m,Tue May 27 2025 18:29:06 GMT-0500 (Central Daylight Time),852752.1999999881,I,m,1907,67,1,137.bmp,-120,-120,138.bmp,120,-120,139.bmp,-120,120,140.bmp,120,120,9959.0,842793.1999999881,8052,no,SM,A,139.bmp,120,-120,197453,191427,199471,193440,847149.0,841121.0,849165.0,843133.0,67
3,0,0,1,0,52,test,1,1,z,Tue May 27 2025 18:29:06 GMT-0500 (Central Daylight Time),861981.5999999642,I,z,1166,68,1,110.bmp,-120,-120,111.bmp,120,-120,112.bmp,-120,120,113.bmp,120,120,9226.199999988079,852755.3999999762,8052,yes,SM,A,112.bmp,-120,120,197453,191427,199471,193440,857112.0,851084.0,859129.0,853097.0,68
1,1,0,0,0,53,test,1,1,m,Tue May 27 2025 18:29:06 GMT-0500 (Central Daylight Time),871512.8999999762,I,m,1465,69,1,114.bmp,-120,-120,115.bmp,120,-120,116.bmp,-120,120,117.bmp,120,120,9527.399999976158,861985.5,8052,no,SM,A,115.bmp,-120,-120,197453,191427,199471,193440,866343.0,860314.0,868359.0,862328.0,69
2,0,1,0,0,54,test,1,1,m,Tue May 27 2025 18:29:06 GMT-0500 (Central Daylight Time),880709.1999999881,I,m,1143,70,1,118.bmp,-120,-120,119.bmp,120,-120,120.bmp,-120,120,121.bmp,120,120,9191.800000011921,871517.3999999762,8052,no,SM,A,120.bmp,120,-120,197453,191427,199471,193440,875873.0,869846.0,877889.0,871859.0,70
4,0,0,0,1,55,test,1,1,z,Tue May 27 2025 18:29:06 GMT-0500 (Central Daylight Time),889940.3000000119,I,z,1177,71,1,122.bmp,-120,-120,123.bmp,120,-120,124.bmp,-120,120,125.bmp,120,120,9227.600000023842,880712.6999999881,8052,yes,SM,A,125.bmp,120,120,197453,191427,199471,193440,885070.0,879041.0,887087.0,881055.0,71
1,1,0,0,0,56,test,1,1,z,Tue May 27 2025 18:29:06 GMT-0500 (Central Daylight Time),898986.5999999642,I,z,994,72,1,126.bmp,-120,-120,127.bmp,120,-120,128.bmp,-120,120,129.bmp,120,120,9043.0,889943.5999999642,8052,yes,SM,A,126.bmp,-120,-120,197453,191427,199471,193440,894299.0,888272.0,896317.0,890284.0,72
2,0,1,0,0,57,test,1,1,z,Tue May 27 2025 18:29:06 GMT-0500 (Central Daylight Time),908302.0,I,z,1251,73,1,130.bmp,-120,-120,131.bmp,120,-120,132.bmp,-120,120,133.bmp,120,120,9310.400000035763,898991.5999999642,8052,yes,SM,A,131.bmp,120,-120,197453,191427,199471,193440,903347.0,897320.0,905364.0,899332.0,73
4,0,0,0,1,58,test,1,1,m,Tue May 27 2025 18:29:06 GMT-0500 (Central Daylight Time),917581.5999999642,I,m,1218,74,1,134.bmp,-120,-120,135.bmp,120,-120,136.bmp,-120,120,137.bmp,120,120,9275.899999976158,908305.6999999881,8052,no,SM,A,136.bmp,120,120,197453,191427,199471,193440,912661.0,906634.0,914677.0,908647.0,74
2,0,1,0,0,59,test,1,1,m,Tue May 27 2025 18:29:06 GMT-0500 (Central Daylight Time),927228.3000000119,I,m,1601,75,1,138.bmp,-120,-120,139.bmp,120,-120,140.bmp,-120,120,141.bmp,120,120,9643.800000011921,917584.5,8052,no,SM,A,141.bmp,120,-120,197453,191427,199471,193440,921939.0,915913.0,923942.0,917928.0,75
1,1,0,0,0,60,test,1,1,z,Tue May 27 2025 18:29:06 GMT-0500 (Central Daylight Time),936924.8999999762,I,z,1642,76,1,142.bmp,-120,-120,143.bmp,120,-120,144.bmp,-120,120,145.bmp,120,120,9693.199999988079,927231.6999999881,8052,yes,SM,A,142.bmp,-120,-120,197453,191427,199471,193440,931589.0,925560.0,933605.0,927574.0,76
3,0,0,1,0,61,test,1,1,z,Tue May 27 2025 18:29:06 GMT-0500 (Central Daylight Time),946538.1999999881,I,z,1554,77,1,150.bmp,-120,-120,111.bmp,120,-120,101.bmp,-120,120,102.bmp,120,120,9607.600000023842,936930.5999999642,8052,yes,SM,A,101.bmp,-120,120,197453,191427,199471,193440,941285.0,935259.0,943302.0,937270.0,77
1,1,0,0,0,62,test,1,1,m,Tue May 27 2025 18:29:06 GMT-0500 (Central Daylight Time),955817.6999999881,I,m,1216,78,1,146.bmp,-120,-120,147.bmp,120,-120,148.bmp,-120,120,149.bmp,120,120,9274.800000011921,946542.8999999762,8052,no,SM,A,147.bmp,-120,-120,197453,191427,199471,193440,950899.0,944871.0,952916.0,946885.0,78
4,0,0,0,1,62,test,1,0,m,Tue May 27 2025 18:29:06 GMT-0500 (Central Daylight Time),965548.6999999881,I,z,1676,79,1,107.bmp,-120,-120,108.bmp,120,-120,109.bmp,-120,120,110.bmp,120,120,9725.899999976158,955822.8000000119,8052,no,SM,A,107.bmp,120,120,197453,191427,199471,193440,960178.0,954151.0,962195.0,956164.0,79
3,0,0,1,0,63,test,1,1,m,Tue May 27 2025 18:29:06 GMT-0500 (Central Daylight Time),974729.1999999881,I,m,1121,80,1,103.bmp,-120,-120,104.bmp,120,-120,105.bmp,-120,120,106.bmp,120,120,9176.199999988079,965553.0,8052,no,SM,A,106.bmp,-120,120,197453,191427,199471,193440,969909.0,963881.0,971926.0,965894.0,80
