acc_sum,block,block_c,condition,correct,correct_response,datetime,endtime,flanker,jitter,project,response,response_test_buffer_response,response_test_target_response,response_time,response_time_test_buffer_response,response_time_test_target_response,row_sel,session_number,start_end,starttime,subject_id,target,task,task_vers,time_test_buffer,time_test_buffer_response,time_test_constants,time_test_flanker,time_test_jitter,time_test_logger,time_test_target,time_test_target_response,time_test_variables,trial
0,prac,1,con,0,m,Wed Oct 29 2025 10:58:56 GMT-0500 (Central Daylight Time),120164.90000009537,bronze,800,I,None,,,1799,,,9,1,4875.900000095367,115289.0,7703,bronze,NF,C,,,,,,,,,,1
0,prac,1,inc,0,z,Wed Oct 29 2025 10:58:56 GMT-0500 (Central Daylight Time),125147.40000009537,iron,900,I,None,,,1815,,,6,1,4976.0,120171.40000009537,7703,pear,NF,C,,,,,,,,,,2
0,prac,1,con,0,z,Wed Oct 29 2025 10:58:56 GMT-0500 (Central Daylight Time),130229.80000019073,kiwi,1000,I,None,,,1815,,,7,1,5076.800000190735,125153.0,7703,kiwi,NF,C,,,,,,,,,,3
0,prac,1,con,0,z,Wed Oct 29 2025 10:58:56 GMT-0500 (Central Daylight Time),135094.0,lime,800,I,None,,,1800,,,5,1,4857.799999952316,130236.20000004768,7703,lime,NF,C,,,,,,,,,,4
1,prac,1,inc,1,z,Wed Oct 29 2025 10:58:56 GMT-0500 (Central Daylight Time),138492.80000019073,lead,1100,I,z,,,995,,,8,1,3392.9000000953674,135099.90000009537,7703,plum,NF,C,,,,,,,,,,5
2,prac,1,inc,1,m,Wed Oct 29 2025 10:58:56 GMT-0500 (Central Daylight Time),141557.70000004768,pear,900,I,m,,,852,,,14,1,3059.5,138498.20000004768,7703,iron,NF,C,,,,,,,,,,6
2,prac,1,inc,0,m,Wed Oct 29 2025 10:58:56 GMT-0500 (Central Daylight Time),144242.10000014305,plum,1100,I,z,,,274,,,16,1,2678.9000000953674,141563.20000004768,7703,lead,NF,C,,,,,,,,,,7
3,prac,1,con,1,m,Wed Oct 29 2025 10:58:56 GMT-0500 (Central Daylight Time),146991.10000014305,silver,1000,I,m,,,444,,,11,1,2743.2999999523163,144247.80000019073,7703,silver,NF,C,,,,,,,,,,8
4,prac,1,inc,1,m,Wed Oct 29 2025 10:58:56 GMT-0500 (Central Daylight Time),150105.0,cherry,900,I,m,,,899,,,10,1,3108.399999856949,146996.60000014305,7703,copper,NF,C,,,,,,,,,,9
5,prac,1,con,1,z,Wed Oct 29 2025 10:58:56 GMT-0500 (Central Daylight Time),152821.5,banana,800,I,z,,,611,,,1,1,2707.899999856949,150113.60000014305,7703,banana,NF,C,,,,,,,,,,10
6,prac,1,con,1,m,Wed Oct 29 2025 10:58:56 GMT-0500 (Central Daylight Time),155987.0,zinc,1000,I,m,,,863,,,15,1,3157.899999856949,152829.10000014305,7703,zinc,NF,C,,,,,,,,,,11
7,prac,1,con,1,m,Wed Oct 29 2025 10:58:56 GMT-0500 (Central Daylight Time),158619.30000019073,gold,800,I,m,,,520,,,13,1,2625.600000143051,155993.70000004768,7703,gold,NF,C,,,,,,,,,,12
8,prac,1,inc,1,z,Wed Oct 29 2025 10:58:56 GMT-0500 (Central Daylight Time),161687.10000014305,cobalt,1100,I,z,,,677,,,4,1,3061.7000000476837,158625.40000009537,7703,raisin,NF,C,,,,,,,,,,13
9,prac,1,inc,1,z,Wed Oct 29 2025 10:58:56 GMT-0500 (Central Daylight Time),164467.70000004768,copper,900,I,z,,,595,,,2,1,2775.7999999523163,161691.90000009537,7703,cherry,NF,C,,,,,,,,,,14
10,prac,1,inc,1,m,Wed Oct 29 2025 10:58:56 GMT-0500 (Central Daylight Time),167566.40000009537,raisin,1100,I,m,,,694,,,12,1,3092.2000000476837,164474.20000004768,7703,cobalt,NF,C,,,,,,,,,,15
11,prac,1,con,1,z,Wed Oct 29 2025 10:58:56 GMT-0500 (Central Daylight Time),170384.10000014305,orange,1000,I,z,,,510,,,3,1,2814.7000000476837,167569.40000009537,7703,orange,NF,C,,,,,,,,,,16
1,prac,2,inc,1,z,Wed Oct 29 2025 10:58:56 GMT-0500 (Central Daylight Time),179546.20000004768,lead,1100,I,z,,,780,,,8,1,3157.399999856949,176388.80000019073,7703,plum,NF,C,,,,,,,,,,1
2,prac,2,con,1,z,Wed Oct 29 2025 10:58:56 GMT-0500 (Central Daylight Time),182428.20000004768,orange,1000,I,z,,,571,,,3,1,2874.899999856949,179553.30000019073,7703,orange,NF,C,,,,,,,,,,2
3,prac,2,inc,1,z,Wed Oct 29 2025 10:58:56 GMT-0500 (Central Daylight Time),185412.0,cobalt,1100,I,z,,,565,,,4,1,2977.0999999046326,182434.90000009537,7703,raisin,NF,C,,,,,,,,,,3
4,prac,2,inc,1,m,Wed Oct 29 2025 10:58:56 GMT-0500 (Central Daylight Time),188325.60000014305,plum,1100,I,m,,,509,,,16,1,2909.0,185416.60000014305,7703,lead,NF,C,,,,,,,,,,4
5,prac,2,inc,1,m,Wed Oct 29 2025 10:58:56 GMT-0500 (Central Daylight Time),191208.70000004768,raisin,1100,I,m,,,466,,,12,1,2879.2999999523163,188329.40000009537,7703,cobalt,NF,C,,,,,,,,,,5
6,prac,2,inc,1,m,Wed Oct 29 2025 10:58:56 GMT-0500 (Central Daylight Time),194041.80000019073,pear,900,I,m,,,616,,,14,1,2826.9000000953674,191214.90000009537,7703,iron,NF,C,,,,,,,,,,6
7,prac,2,con,1,z,Wed Oct 29 2025 10:58:56 GMT-0500 (Central Daylight Time),196823.40000009537,lime,800,I,z,,,667,,,5,1,2776.7000000476837,194046.70000004768,7703,lime,NF,C,,,,,,,,,,7
7,prac,2,con,0,z,Wed Oct 29 2025 10:58:56 GMT-0500 (Central Daylight Time),199388.70000004768,banana,800,I,m,,,451,,,1,1,2557.7000000476837,196831.0,7703,banana,NF,C,,,,,,,,,,8
8,prac,2,con,1,m,Wed Oct 29 2025 10:58:56 GMT-0500 (Central Daylight Time),202122.30000019073,zinc,1000,I,m,,,414,,,15,1,2728.300000190735,199394.0,7703,zinc,NF,C,,,,,,,,,,9
8,prac,2,con,0,m,Wed Oct 29 2025 10:58:56 GMT-0500 (Central Daylight Time),204955.40000009537,silver,1000,I,z,,,516,,,11,1,2824.2000000476837,202131.20000004768,7703,silver,NF,C,,,,,,,,,,10
9,prac,2,inc,1,z,Wed Oct 29 2025 10:58:56 GMT-0500 (Central Daylight Time),207788.20000004768,iron,900,I,z,,,621,,,6,1,2826.399999856949,204961.80000019073,7703,pear,NF,C,,,,,,,,,,11
10,prac,2,con,1,z,Wed Oct 29 2025 10:58:56 GMT-0500 (Central Daylight Time),210753.70000004768,kiwi,1000,I,z,,,658,,,7,1,2961.5999999046326,207792.10000014305,7703,kiwi,NF,C,,,,,,,,,,12
11,prac,2,inc,1,z,Wed Oct 29 2025 10:58:56 GMT-0500 (Central Daylight Time),213469.60000014305,copper,900,I,z,,,504,,,2,1,2711.600000143051,210758.0,7703,cherry,NF,C,,,,,,,,,,13
12,prac,2,con,1,m,Wed Oct 29 2025 10:58:56 GMT-0500 (Central Daylight Time),216102.60000014305,bronze,800,I,m,,,534,,,9,1,2628.7000000476837,213473.90000009537,7703,bronze,NF,C,,,,,,,,,,14
13,prac,2,inc,1,m,Wed Oct 29 2025 10:58:56 GMT-0500 (Central Daylight Time),218934.40000009537,cherry,900,I,m,,,621,,,10,1,2826.9000000953674,216107.5,7703,copper,NF,C,,,,,,,,,,15
14,prac,2,con,1,m,Wed Oct 29 2025 10:58:56 GMT-0500 (Central Daylight Time),221549.20000004768,gold,800,I,m,,,520,,,13,1,2609.0999999046326,218940.10000014305,7703,gold,NF,C,,,,,,,,,,16
1,test,1,inc,1,m,Wed Oct 29 2025 10:58:56 GMT-0500 (Central Daylight Time),236079.10000014305,orange,1000,I,m,m,None,598,398.0,200.0,79,1,2129.100000143051,233950.0,7703,copper,NF,C,231666,231667,229938,230952,229938,232067,231466,231466,232067,1
2,test,1,inc,1,m,Wed Oct 29 2025 10:58:56 GMT-0500 (Central Daylight Time),237961.70000004768,lime,800,I,m,m,None,541,326.0,215.0,109,1,1877.5999999046326,236084.10000014305,7703,iron,NF,C,233617,233617,232072,232883,232072,233950,233401,233401,233950,2
3,test,1,inc,1,m,Wed Oct 29 2025 10:58:56 GMT-0500 (Central Daylight Time),239877.80000019073,pear,900,I,m,m,None,481,282.0,199.0,110,1,1911.1000001430511,237966.70000004768,7703,iron,NF,C,235581,235581,233955,234865,233955,235866,235382,235382,235866,3
4,test,1,con,1,z,Wed Oct 29 2025 10:58:56 GMT-0500 (Central Daylight Time),241942.40000009537,orange,1100,I,z,z,None,421,222.0,199.0,20,1,2058.0,239884.40000009537,7703,orange,NF,C,237697,237697,235872,236981,235873,237930,237498,237498,237930,4
5,test,1,con,1,m,Wed Oct 29 2025 10:58:56 GMT-0500 (Central Daylight Time),244025.5,iron,1100,I,m,m,None,444,244.0,200.0,108,1,2079.2999999523163,241946.20000004768,7703,iron,NF,C,239764,239764,237934,239048,237934,240014,239564,239564,240013,5
6,test,1,con,1,z,Wed Oct 29 2025 10:58:56 GMT-0500 (Central Daylight Time),245943.60000014305,plum,900,I,z,z,None,470,256.0,214.0,58,1,1914.2000000476837,244029.40000009537,7703,plum,NF,C,241663,241663,240017,240930,240018,241932,241449,241449,241932,6
7,test,1,inc,1,m,Wed Oct 29 2025 10:58:56 GMT-0500 (Central Daylight Time),248091.90000009537,plum,1100,I,m,m,None,516,317.0,199.0,112,1,2142.2999999523163,245949.60000014305,7703,iron,NF,C,243763,243763,241938,243048,241938,244080,243564,243564,244080,7
7,test,1,inc,0,z,Wed Oct 29 2025 10:58:56 GMT-0500 (Central Daylight Time),249971.90000009537,gold,800,I,m,m,None,537,338.0,199.0,37,1,1874.7999999523163,248097.10000014305,7703,lime,NF,C,245612,245612,244085,244897,244085,245960,245412,245412,245960,8
8,test,1,inc,1,z,Wed Oct 29 2025 10:58:56 GMT-0500 (Central Daylight Time),251772.90000009537,gold,800,I,z,z,None,455,255.0,200.0,53,1,1797.2999999523163,249975.60000014305,7703,kiwi,NF,C,247496,247496,245964,246779,245964,247761,247295,247295,247761,9
9,test,1,inc,1,m,Wed Oct 29 2025 10:58:56 GMT-0500 (Central Daylight Time),253655.90000009537,lime,800,I,m,m,None,535,336.0,199.0,125,1,1879.2000000476837,251776.70000004768,7703,lead,NF,C,249294,249294,247765,248578,247765,249644,249095,249095,249644,10
10,test,1,con,1,m,Wed Oct 29 2025 10:58:56 GMT-0500 (Central Daylight Time),255871.5,lead,1000,I,m,m,None,669,470.0,199.0,123,1,2211.699999809265,253659.80000019073,7703,lead,NF,C,251377,251377,249648,250660,249648,251860,251177,251177,251860,11
11,test,1,con,1,m,Wed Oct 29 2025 10:58:56 GMT-0500 (Central Daylight Time),257588.0,bronze,800,I,m,m,None,397,198.0,199.0,65,1,1712.5999999046326,255875.40000009537,7703,bronze,NF,C,253377,253377,251863,252676,251864,253576,253177,253177,253576,12
11,test,1,inc,0,m,Wed Oct 29 2025 10:58:56 GMT-0500 (Central Daylight Time),259455.10000014305,cherry,900,I,z,z,None,445,231.0,214.0,86,1,1863.7000000476837,257591.40000009537,7703,silver,NF,C,255208,255208,253579,254492,253580,255443,254994,254994,255443,13
12,test,1,con,1,m,Wed Oct 29 2025 10:58:56 GMT-0500 (Central Daylight Time),261485.90000009537,gold,800,I,m,m,None,695,495.0,200.0,97,1,2024.7999999523163,259461.10000014305,7703,gold,NF,C,256976,256976,255449,256259,255450,257474,256775,256775,257474,14
13,test,1,con,1,z,Wed Oct 29 2025 10:58:56 GMT-0500 (Central Daylight Time),263553.40000009537,pear,1000,I,z,z,None,519,319.0,200.0,43,1,2061.5999999046326,261491.80000019073,7703,pear,NF,C,259208,259208,257480,258492,257480,259541,259008,259008,259541,15
14,test,1,con,1,m,Wed Oct 29 2025 10:58:56 GMT-0500 (Central Daylight Time),265418.5,lead,800,I,m,m,None,524,324.0,200.0,121,1,1860.0,263558.5,7703,lead,NF,C,261075,261075,259547,260358,259547,261407,260874,260874,261406,16
15,test,1,con,1,z,Wed Oct 29 2025 10:58:56 GMT-0500 (Central Daylight Time),267401.30000019073,cherry,900,I,z,z,None,543,342.0,201.0,10,1,1976.4000000953674,265424.90000009537,7703,cherry,NF,C,263041,263041,261413,262323,261413,263389,262840,262840,263389,17
16,test,1,inc,1,z,Wed Oct 29 2025 10:58:56 GMT-0500 (Central Daylight Time),269633.7000000477,cobalt,1100,I,z,z,None,583,384.0,199.0,16,1,2227.2999999523163,267406.40000009537,7703,cherry,NF,C,265223,265223,263394,264506,263395,265622,265023,265023,265622,18
16,test,1,con,0,m,Wed Oct 29 2025 10:58:56 GMT-0500 (Central Daylight Time),271416.60000014305,copper,800,I,z,z,None,441,227.0,214.0,73,1,1776.1000001430511,269640.5,7703,copper,NF,C,267172,267172,265629,266441,265629,267405,266957,266957,267405,19
17,test,1,con,1,z,Wed Oct 29 2025 10:58:56 GMT-0500 (Central Daylight Time),273631.90000009537,raisin,1000,I,z,z,None,668,466.0,202.0,27,1,2209.4000000953674,271422.5,7703,raisin,NF,C,269140,269140,267411,268422,267411,269620,268938,268938,269620,20
18,test,1,con,1,z,Wed Oct 29 2025 10:58:56 GMT-0500 (Central Daylight Time),275530.7000000477,pear,900,I,z,z,None,464,263.0,201.0,42,1,1895.8999998569489,273634.80000019073,7703,pear,NF,C,271239,271239,269623,270536,269623,271519,271038,271038,271519,21
19,test,1,inc,1,z,Wed Oct 29 2025 10:58:56 GMT-0500 (Central Daylight Time),277664.90000009537,silver,1000,I,z,z,None,585,383.0,202.0,31,1,2130.4000000953674,275534.5,7703,raisin,NF,C,273256,273256,271523,272538,271523,273653,273053,273053,273653,22
20,test,1,inc,1,m,Wed Oct 29 2025 10:58:56 GMT-0500 (Central Daylight Time),279598.0,cherry,900,I,m,m,None,497,298.0,199.0,94,1,1927.6999998092651,277670.30000019073,7703,cobalt,NF,C,275286,275286,273658,274570,273659,275586,275087,275087,275586,23
20,test,1,con,0,m,Wed Oct 29 2025 10:58:56 GMT-0500 (Central Daylight Time),281513.40000009537,zinc,900,I,z,z,None,467,267.0,200.0,114,1,1909.7000000476837,279603.7000000477,7703,zinc,NF,C,277219,277219,275592,276502,275592,277501,277018,277018,277501,24
21,test,1,inc,1,m,Wed Oct 29 2025 10:58:56 GMT-0500 (Central Daylight Time),283496.7000000477,cherry,900,I,m,m,None,543,342.0,201.0,78,1,1980.5,281516.2000000477,7703,copper,NF,C,279137,279137,277504,278419,277504,279485,278934,278935,279485,25
22,test,1,inc,1,z,Wed Oct 29 2025 10:58:56 GMT-0500 (Central Daylight Time),285562.30000019073,silver,1000,I,z,z,None,526,327.0,199.0,15,1,2060.4000000953674,283501.90000009537,7703,cherry,NF,C,281216,281216,279490,280501,279490,281550,281017,281017,281550,26
23,test,1,con,1,z,Wed Oct 29 2025 10:58:56 GMT-0500 (Central Daylight Time),287462.10000014305,pear,800,I,z,z,None,555,356.0,199.0,41,1,1895.0,285567.10000014305,7703,pear,NF,C,283083,283083,281555,282367,281556,283450,282883,282883,283450,27
24,test,1,inc,1,m,Wed Oct 29 2025 10:58:56 GMT-0500 (Central Daylight Time),289478.10000014305,pear,900,I,m,m,None,569,356.0,213.0,102,1,2010.6000001430511,287467.5,7703,gold,NF,C,285099,285099,283456,284367,283456,285466,284886,284886,285466,28
25,test,1,inc,1,z,Wed Oct 29 2025 10:58:56 GMT-0500 (Central Daylight Time),291443.40000009537,copper,900,I,z,z,None,538,324.0,214.0,22,1,1959.2000000476837,289484.2000000477,7703,orange,NF,C,287099,287099,285472,286381,285473,287431,286884,286884,287431,29
26,test,1,con,1,m,Wed Oct 29 2025 10:58:56 GMT-0500 (Central Daylight Time),293741.80000019073,zinc,1100,I,m,m,None,653,453.0,200.0,116,1,2291.800000190735,291450.0,7703,zinc,NF,C,289265,289265,287438,288548,287438,289730,289064,289064,289730,30
27,test,1,con,1,m,Wed Oct 29 2025 10:58:56 GMT-0500 (Central Daylight Time),295625.90000009537,iron,800,I,m,m,None,558,359.0,199.0,105,1,1881.2999999523163,293744.60000014305,7703,iron,NF,C,291248,291248,289733,290534,289733,291614,291048,291048,291614,31
28,test,1,con,1,m,Wed Oct 29 2025 10:58:56 GMT-0500 (Central Daylight Time),297441.7000000477,silver,800,I,m,m,None,467,268.0,199.0,81,1,1811.7999999523163,295629.90000009537,7703,silver,NF,C,293146,293147,291618,292430,291618,293430,292947,292947,293430,32
29,test,1,con,1,z,Wed Oct 29 2025 10:58:56 GMT-0500 (Central Daylight Time),299607.60000014305,kiwi,1000,I,z,z,None,619,403.0,216.0,51,1,2159.600000143051,297448.0,7703,kiwi,NF,C,295180,295180,293436,294447,293436,295596,294964,294964,295596,33
30,test,1,inc,1,m,Wed Oct 29 2025 10:58:56 GMT-0500 (Central Daylight Time),301524.30000019073,banana,800,I,m,m,None,572,373.0,199.0,69,1,1912.7000000476837,299611.60000014305,7703,bronze,NF,C,297130,297130,295600,296412,295600,297512,296930,296930,297512,34
31,test,1,con,1,m,Wed Oct 29 2025 10:58:56 GMT-0500 (Central Daylight Time),303508.60000014305,cobalt,900,I,m,m,None,558,359.0,199.0,90,1,1979.7999999523163,301528.80000019073,7703,cobalt,NF,C,299128,299128,297517,298427,297517,299497,298928,298928,299497,35
32,test,1,con,1,z,Wed Oct 29 2025 10:58:56 GMT-0500 (Central Daylight Time),305374.10000014305,plum,800,I,z,z,None,532,331.0,201.0,57,1,1861.5,303512.60000014305,7703,plum,NF,C,301029,301029,299501,300311,299501,301362,300828,300828,301362,36
33,test,1,con,1,m,Wed Oct 29 2025 10:58:56 GMT-0500 (Central Daylight Time),307255.10000014305,silver,900,I,m,m,None,446,245.0,201.0,82,1,1875.2000000476837,305379.90000009537,7703,silver,NF,C,302994,302994,301368,302282,301368,303243,302793,302793,303243,37
33,test,1,inc,0,z,Wed Oct 29 2025 10:58:56 GMT-0500 (Central Daylight Time),309438.60000014305,cobalt,1100,I,m,m,None,540,340.0,200.0,32,1,2180.7999999523163,307257.80000019073,7703,raisin,NF,C,305075,305075,303246,304359,303246,305427,304875,304875,305427,38
33,test,1,con,0,z,Wed Oct 29 2025 10:58:56 GMT-0500 (Central Daylight Time),311436.60000014305,banana,1000,I,m,m,None,456,256.0,200.0,3,1,1993.5,309443.10000014305,7703,banana,NF,C,307159,307159,305431,306443,305431,307425,306959,306959,307425,39
34,test,1,inc,1,z,Wed Oct 29 2025 10:58:56 GMT-0500 (Central Daylight Time),313669.5,lead,1100,I,z,z,None,596,395.0,201.0,56,1,2228.0,311441.5,7703,kiwi,NF,C,309259,309259,307430,308542,307430,309658,309058,309058,309658,40
35,test,1,con,1,z,Wed Oct 29 2025 10:58:56 GMT-0500 (Central Daylight Time),315702.5,orange,900,I,z,z,None,611,412.0,199.0,18,1,2029.5,313673.0,7703,orange,NF,C,311275,311275,309661,310575,309661,311691,311076,311076,311691,41
36,test,1,con,1,z,Wed Oct 29 2025 10:58:56 GMT-0500 (Central Daylight Time),317951.40000009537,lime,1100,I,z,z,None,601,402.0,199.0,36,1,2245.7000000476837,315705.7000000477,7703,lime,NF,C,313524,313524,311694,312808,311694,313939,313324,313324,313939,42
37,test,1,inc,1,m,Wed Oct 29 2025 10:58:56 GMT-0500 (Central Daylight Time),319851.7000000477,lime,800,I,m,m,None,566,367.0,199.0,117,1,1896.5,317955.2000000477,7703,zinc,NF,C,315473,315473,313943,314756,313944,315840,315274,315274,315840,43
38,test,1,inc,1,z,Wed Oct 29 2025 10:58:56 GMT-0500 (Central Daylight Time),322033.80000019073,silver,1000,I,z,z,None,635,436.0,199.0,7,1,2177.300000190735,319856.5,7703,banana,NF,C,317571,317571,315845,316856,315845,318022,317372,317372,318022,44
39,test,1,con,1,z,Wed Oct 29 2025 10:58:56 GMT-0500 (Central Daylight Time),324232.60000014305,kiwi,1100,I,z,z,None,550,351.0,199.0,52,1,2195.100000143051,322037.5,7703,kiwi,NF,C,319856,319856,318026,319140,318026,320221,319656,319656,320221,45
40,test,1,inc,1,z,Wed Oct 29 2025 10:58:56 GMT-0500 (Central Daylight Time),326165.5,copper,900,I,z,z,None,485,272.0,213.0,14,1,1927.3999998569489,324238.10000014305,7703,cherry,NF,C,321871,321871,320226,321138,320226,322154,321657,321657,322154,46
41,test,1,con,1,z,Wed Oct 29 2025 10:58:56 GMT-0500 (Central Daylight Time),328064.90000009537,raisin,900,I,z,z,None,450,251.0,199.0,26,1,1895.0999999046326,326169.80000019073,7703,raisin,NF,C,323788,323788,322158,323070,322158,324053,323588,323588,324053,47
42,test,1,con,1,z,Wed Oct 29 2025 10:58:56 GMT-0500 (Central Daylight Time),329915.5,lime,800,I,z,z,None,500,300.0,200.0,33,1,1846.6999998092651,328068.80000019073,7703,lime,NF,C,325587,325587,324057,324872,324057,325904,325387,325387,325904,48
43,test,1,inc,1,z,Wed Oct 29 2025 10:58:56 GMT-0500 (Central Daylight Time),331898.60000014305,iron,900,I,z,z,None,557,342.0,215.0,54,1,1979.2999999523163,329919.30000019073,7703,kiwi,NF,C,327537,327537,325907,326819,325908,327887,327321,327321,327887,49
44,test,1,con,1,m,Wed Oct 29 2025 10:58:56 GMT-0500 (Central Daylight Time),333997.60000014305,bronze,1000,I,m,m,None,564,365.0,199.0,67,1,2094.5,331903.10000014305,7703,bronze,NF,C,329619,329619,327891,328904,327891,329986,329420,329420,329986,50
45,test,1,inc,1,m,Wed Oct 29 2025 10:58:56 GMT-0500 (Central Daylight Time),335914.30000019073,banana,800,I,m,m,None,575,376.0,199.0,85,1,1912.0,334002.30000019073,7703,silver,NF,C,331519,331519,329990,330803,329990,331902,331319,331319,331902,51
46,test,1,inc,1,m,Wed Oct 29 2025 10:58:56 GMT-0500 (Central Daylight Time),337762.10000014305,banana,800,I,m,m,None,502,302.0,200.0,77,1,1844.2000000476837,335917.90000009537,7703,copper,NF,C,333434,333434,331906,332717,331906,333750,333234,333234,333750,52
47,test,1,inc,1,z,Wed Oct 29 2025 10:58:56 GMT-0500 (Central Daylight Time),339644.60000014305,gold,800,I,z,z,None,547,347.0,200.0,45,1,1878.0,337766.60000014305,7703,pear,NF,C,335284,335284,333755,334567,333755,335633,335083,335083,335633,53
47,test,1,inc,0,z,Wed Oct 29 2025 10:58:56 GMT-0500 (Central Daylight Time),341743.0,lead,1100,I,m,m,None,452,251.0,201.0,40,1,2094.899999856949,339648.10000014305,7703,lime,NF,C,337467,337467,335636,336749,335636,337731,337266,337266,337731,54
47,test,1,inc,0,m,Wed Oct 29 2025 10:58:56 GMT-0500 (Central Daylight Time),343893.90000009537,kiwi,1000,I,z,z,None,606,406.0,200.0,111,1,2147.2999999523163,341746.60000014305,7703,iron,NF,C,339465,339465,337735,338749,337735,339882,339265,339265,339882,55
47,test,1,con,0,z,Wed Oct 29 2025 10:58:56 GMT-0500 (Central Daylight Time),345959.7000000477,lime,1000,I,m,m,None,519,320.0,199.0,35,1,2062.5999999046326,343897.10000014305,7703,lime,NF,C,341615,341615,339885,340899,339885,341948,341416,341416,341948,56
48,test,1,con,1,z,Wed Oct 29 2025 10:58:56 GMT-0500 (Central Daylight Time),348242.10000014305,kiwi,900,I,z,z,None,835,634.0,201.0,50,1,2278.600000143051,345963.5,7703,kiwi,NF,C,343580,343580,341952,342864,341952,344230,343379,343379,344230,57
49,test,1,inc,1,z,Wed Oct 29 2025 10:58:56 GMT-0500 (Central Daylight Time),350277.2000000477,iron,900,I,z,z,None,591,391.0,200.0,38,1,2030.8999998569489,348246.30000019073,7703,lime,NF,C,345864,345864,344234,345149,344235,346265,345663,345663,346265,58
50,test,1,con,1,z,Wed Oct 29 2025 10:58:56 GMT-0500 (Central Daylight Time),352207.80000019073,kiwi,800,I,z,z,None,585,370.0,215.0,49,1,1927.5,350280.30000019073,7703,kiwi,NF,C,347813,347813,346268,347080,346269,348196,347597,347597,348196,59
51,test,1,con,1,z,Wed Oct 29 2025 10:58:56 GMT-0500 (Central Daylight Time),354007.0,cherry,800,I,z,z,None,475,262.0,213.0,9,1,1795.2999999523163,352211.7000000477,7703,cherry,NF,C,349729,349729,348200,349012,348200,349995,349515,349515,349995,60
52,test,1,inc,1,m,Wed Oct 29 2025 10:58:56 GMT-0500 (Central Daylight Time),356158.0,raisin,1100,I,m,m,None,518,317.0,201.0,88,1,2147.0999999046326,354010.90000009537,7703,silver,NF,C,351829,351829,349999,351112,349999,352146,351628,351628,352146,61
53,test,1,con,1,z,Wed Oct 29 2025 10:58:56 GMT-0500 (Central Daylight Time),357923.5,orange,800,I,z,z,None,434,233.0,201.0,17,1,1760.2999999523163,356163.2000000477,7703,orange,NF,C,353678,353678,352151,352961,352151,353912,353477,353477,353912,62
54,test,1,con,1,m,Wed Oct 29 2025 10:58:56 GMT-0500 (Central Daylight Time),359872.7000000477,bronze,900,I,m,m,None,503,304.0,199.0,66,1,1945.0,357927.7000000477,7703,bronze,NF,C,355543,355543,353916,354828,353916,355861,355344,355344,355861,63
55,test,1,inc,1,m,Wed Oct 29 2025 10:58:56 GMT-0500 (Central Daylight Time),361887.60000014305,cherry,900,I,m,m,None,569,354.0,215.0,70,1,2010.7999999523163,359876.80000019073,7703,bronze,NF,C,357509,357509,355865,356777,355865,357876,357294,357294,357876,64
56,test,1,inc,1,m,Wed Oct 29 2025 10:58:56 GMT-0500 (Central Daylight Time),364054.0,kiwi,1000,I,m,m,None,621,422.0,199.0,103,1,2161.699999809265,361892.30000019073,7703,gold,NF,C,359609,359609,357880,358893,357881,360042,359409,359410,360042,65
57,test,1,con,1,m,Wed Oct 29 2025 10:58:56 GMT-0500 (Central Daylight Time),366169.80000019073,zinc,1000,I,m,m,None,575,375.0,200.0,115,1,2111.800000190735,364058.0,7703,zinc,NF,C,361775,361775,360046,361059,360046,362158,361575,361575,362158,66
58,test,1,inc,1,m,Wed Oct 29 2025 10:58:56 GMT-0500 (Central Daylight Time),368285.60000014305,kiwi,1000,I,m,m,None,570,354.0,216.0,127,1,2112.100000143051,366173.5,7703,lead,NF,C,363908,363909,362162,363175,362162,364274,363692,363692,364274,67
59,test,1,inc,1,z,Wed Oct 29 2025 10:58:56 GMT-0500 (Central Daylight Time),370386.80000019073,zinc,1000,I,z,z,None,568,367.0,201.0,39,1,2096.5,368290.30000019073,7703,lime,NF,C,365992,365992,364278,365290,364279,366375,365791,365791,366375,68
60,test,1,con,1,z,Wed Oct 29 2025 10:58:56 GMT-0500 (Central Daylight Time),372236.7000000477,lime,900,I,z,z,None,408,209.0,199.0,34,1,1845.7999999523163,370390.90000009537,7703,lime,NF,C,368006,368006,366379,367290,366379,368225,367807,367807,368225,69
61,test,1,inc,1,m,Wed Oct 29 2025 10:58:56 GMT-0500 (Central Daylight Time),374233.80000019073,banana,800,I,m,m,None,657,457.0,200.0,93,1,1991.1000001430511,372242.7000000477,7703,cobalt,NF,C,369758,369758,368231,369041,368231,370222,369557,369557,370222,70
62,test,1,con,1,m,Wed Oct 29 2025 10:58:56 GMT-0500 (Central Daylight Time),376249.90000009537,copper,900,I,m,m,None,576,375.0,201.0,74,1,2012.9000000953674,374237.0,7703,copper,NF,C,371856,371856,370225,371140,370225,372238,371655,371655,372238,71
63,test,1,inc,1,z,Wed Oct 29 2025 10:58:56 GMT-0500 (Central Daylight Time),378282.80000019073,zinc,1000,I,z,z,None,490,291.0,199.0,47,1,2029.0,376253.80000019073,7703,pear,NF,C,373971,373971,372242,373255,372242,374271,373772,373772,374271,72
64,test,1,inc,1,z,Wed Oct 29 2025 10:58:56 GMT-0500 (Central Daylight Time),380148.60000014305,iron,900,I,z,z,None,447,232.0,215.0,46,1,1861.7000000476837,378286.90000009537,7703,pear,NF,C,375904,375904,374275,375187,374275,376137,375689,375689,376137,73
65,test,1,inc,1,z,Wed Oct 29 2025 10:58:56 GMT-0500 (Central Daylight Time),381965.10000014305,bronze,800,I,z,z,None,472,273.0,199.0,5,1,1813.1000001430511,380152.0,7703,banana,NF,C,377670,377670,376140,376954,376140,377953,377470,377470,377953,74
66,test,1,inc,1,m,Wed Oct 29 2025 10:58:56 GMT-0500 (Central Daylight Time),383913.40000009537,pear,900,I,m,m,None,499,300.0,199.0,126,1,1945.0,381968.40000009537,7703,lead,NF,C,379586,379586,377956,378870,377957,379901,379387,379387,379901,75
67,test,1,inc,1,m,Wed Oct 29 2025 10:58:56 GMT-0500 (Central Daylight Time),386047.7000000477,orange,1000,I,m,m,None,596,391.0,205.0,87,1,2130.2999999523163,383917.40000009537,7703,silver,NF,C,381640,381640,379905,380919,379906,382036,381435,381435,382036,76
68,test,1,con,1,m,Wed Oct 29 2025 10:58:56 GMT-0500 (Central Daylight Time),388066.2000000477,silver,1000,I,m,m,None,478,272.0,206.0,83,1,2011.0,386055.2000000477,7703,silver,NF,C,383774,383774,382043,383051,382043,384054,383568,383568,384054,77
69,test,1,con,1,m,Wed Oct 29 2025 10:58:56 GMT-0500 (Central Daylight Time),389928.60000014305,gold,900,I,m,m,None,426,211.0,215.0,98,1,1857.7999999523163,388070.80000019073,7703,gold,NF,C,385700,385700,384059,384967,384059,385917,385485,385485,385917,78
70,test,1,inc,1,m,Wed Oct 29 2025 10:58:56 GMT-0500 (Central Daylight Time),392228.0,plum,1100,I,m,m,None,664,464.0,200.0,128,1,2292.5,389935.5,7703,lead,NF,C,387751,387751,385924,387033,385924,388216,387550,387550,388216,79
71,test,1,inc,1,z,Wed Oct 29 2025 10:58:56 GMT-0500 (Central Daylight Time),394278.30000019073,iron,900,I,z,z,None,614,414.0,200.0,62,1,2042.7000000476837,392235.60000014305,7703,plum,NF,C,389849,389849,388224,389134,388224,390266,389649,389649,390266,80
72,test,1,con,1,z,Wed Oct 29 2025 10:58:56 GMT-0500 (Central Daylight Time),396410.10000014305,raisin,1100,I,z,z,None,483,284.0,199.0,28,1,2127.600000143051,394282.5,7703,raisin,NF,C,392098,392099,390271,391382,390271,392398,391899,391899,392398,81
73,test,1,con,1,m,Wed Oct 29 2025 10:58:56 GMT-0500 (Central Daylight Time),398609.0,copper,1100,I,m,m,None,558,358.0,200.0,76,1,2189.699999809265,396419.30000019073,7703,copper,NF,C,394232,394232,392407,393515,392408,394597,394031,394031,394597,82
74,test,1,con,1,z,Wed Oct 29 2025 10:58:56 GMT-0500 (Central Daylight Time),400858.5,cherry,1100,I,z,z,None,615,416.0,199.0,12,1,2241.899999856949,398616.60000014305,7703,cherry,NF,C,396430,396430,394605,395714,394605,396847,396231,396231,396847,83
75,test,1,inc,1,m,Wed Oct 29 2025 10:58:56 GMT-0500 (Central Daylight Time),403075.30000019073,raisin,1100,I,m,m,None,567,368.0,199.0,96,1,2213.2000000476837,400862.10000014305,7703,cobalt,NF,C,398680,398680,396850,397964,396850,399063,398480,398480,399063,84
76,test,1,con,1,z,Wed Oct 29 2025 10:58:56 GMT-0500 (Central Daylight Time),404957.40000009537,banana,800,I,z,z,None,563,363.0,200.0,1,1,1874.9000000953674,403082.5,7703,banana,NF,C,400580,400580,399071,399879,399071,400946,400380,400380,400945,85
77,test,1,con,1,m,Wed Oct 29 2025 10:58:56 GMT-0500 (Central Daylight Time),406923.30000019073,lead,900,I,m,m,None,517,317.0,200.0,122,1,1958.2000000476837,404965.10000014305,7703,lead,NF,C,402578,402578,400953,401862,400953,402911,402378,402378,402911,86
78,test,1,inc,1,z,Wed Oct 29 2025 10:58:56 GMT-0500 (Central Daylight Time),408955.90000009537,silver,1000,I,z,z,None,491,290.0,201.0,23,1,2026.4000000953674,406929.5,7703,orange,NF,C,404645,404645,402918,403928,402918,404944,404444,404444,404944,87
79,test,1,inc,1,z,Wed Oct 29 2025 10:58:56 GMT-0500 (Central Daylight Time),410889.90000009537,copper,900,I,z,z,None,493,293.0,200.0,6,1,1927.7000000476837,408962.2000000477,7703,banana,NF,C,406578,406578,404950,405862,404950,406878,406377,406377,406878,88
80,test,1,con,1,z,Wed Oct 29 2025 10:58:56 GMT-0500 (Central Daylight Time),412954.60000014305,plum,1100,I,z,z,None,423,208.0,215.0,60,1,2059.100000143051,410895.5,7703,plum,NF,C,408727,408727,406884,407994,406884,408943,408511,408511,408943,89
80,test,1,inc,0,m,Wed Oct 29 2025 10:58:56 GMT-0500 (Central Daylight Time),414720.60000014305,lime,800,I,z,z,None,426,225.0,201.0,101,1,1758.4000000953674,412962.2000000477,7703,gold,NF,C,410478,410478,408950,409759,408951,410709,410276,410276,410709,90
81,test,1,inc,1,z,Wed Oct 29 2025 10:58:56 GMT-0500 (Central Daylight Time),416770.60000014305,zinc,1000,I,z,z,None,524,324.0,200.0,63,1,2041.5,414729.10000014305,7703,plum,NF,C,412426,412426,410717,411725,410717,412759,412226,412226,412759,91
82,test,1,inc,1,z,Wed Oct 29 2025 10:58:56 GMT-0500 (Central Daylight Time),418869.0,cobalt,1100,I,z,z,None,479,280.0,199.0,24,1,2095.0999999046326,416773.90000009537,7703,orange,NF,C,414575,414575,412762,413874,412762,414857,414375,414375,414857,92
83,test,1,inc,1,m,Wed Oct 29 2025 10:58:56 GMT-0500 (Central Daylight Time),420836.30000019073,orange,1000,I,m,m,None,448,232.0,216.0,71,1,1962.8000001907349,418873.5,7703,bronze,NF,C,416591,416591,414861,415874,414862,416824,416375,416375,416824,93
84,test,1,inc,1,z,Wed Oct 29 2025 10:58:56 GMT-0500 (Central Daylight Time),422951.80000019073,lead,1100,I,z,z,None,468,269.0,199.0,48,1,2110.4000000953674,420841.40000009537,7703,pear,NF,C,418657,418657,416829,417940,416830,418940,418458,418458,418940,94
85,test,1,inc,1,z,Wed Oct 29 2025 10:58:56 GMT-0500 (Central Daylight Time),424750.90000009537,bronze,800,I,z,z,None,462,262.0,200.0,29,1,1795.4000000953674,422955.5,7703,raisin,NF,C,420473,420473,418944,419758,418944,420739,420273,420273,420739,95
86,test,1,inc,1,m,Wed Oct 29 2025 10:58:56 GMT-0500 (Central Daylight Time),426833.5,kiwi,1000,I,m,m,None,533,334.0,199.0,119,1,2075.7999999523163,424757.7000000477,7703,zinc,NF,C,422473,422473,420746,421756,420746,422822,422273,422273,422821,96
87,test,1,inc,1,z,Wed Oct 29 2025 10:58:56 GMT-0500 (Central Daylight Time),428966.5,lead,1100,I,z,z,None,496,297.0,199.0,64,1,2126.2999999523163,426840.2000000477,7703,plum,NF,C,424655,424655,422828,423939,422828,424955,424456,424456,424954,97
88,test,1,con,1,m,Wed Oct 29 2025 10:58:56 GMT-0500 (Central Daylight Time),431083.30000019073,cobalt,1100,I,m,m,None,492,292.0,200.0,92,1,2111.2000000476837,428972.10000014305,7703,cobalt,NF,C,426771,426771,424960,426070,424960,427071,426571,426571,427071,98
88,test,1,con,0,m,Wed Oct 29 2025 10:58:56 GMT-0500 (Central Daylight Time),432948.10000014305,zinc,800,I,z,z,None,522,307.0,215.0,113,1,1861.2000000476837,431086.90000009537,7703,zinc,NF,C,428620,428620,427075,427887,427075,428936,428405,428405,428936,99
88,test,1,con,0,m,Wed Oct 29 2025 10:58:56 GMT-0500 (Central Daylight Time),435100.60000014305,bronze,1100,I,z,z,None,509,310.0,199.0,68,1,2146.5,432954.10000014305,7703,bronze,NF,C,430770,430770,428942,430054,428942,431089,430570,430570,431089,100
89,test,1,inc,1,z,Wed Oct 29 2025 10:58:56 GMT-0500 (Central Daylight Time),437030.7000000477,bronze,800,I,z,z,None,587,388.0,199.0,13,1,1923.7000000476837,435107.0,7703,cherry,NF,C,432619,432619,431095,431903,431095,433019,432419,432419,433019,101
90,test,1,con,1,m,Wed Oct 29 2025 10:58:56 GMT-0500 (Central Daylight Time),439347.0,silver,1100,I,m,m,None,674,475.0,199.0,84,1,2312.0,437035.0,7703,silver,NF,C,434852,434852,433023,434135,433023,435335,434652,434652,435335,102
91,test,1,con,1,z,Wed Oct 29 2025 10:58:56 GMT-0500 (Central Daylight Time),441429.10000014305,plum,1000,I,z,z,None,549,349.0,200.0,59,1,2077.7999999523163,439351.30000019073,7703,plum,NF,C,437068,437068,435339,436351,435339,437417,436868,436868,437417,103
92,test,1,inc,1,z,Wed Oct 29 2025 10:58:56 GMT-0500 (Central Daylight Time),443228.2000000477,bronze,800,I,z,z,None,449,250.0,199.0,21,1,1793.7999999523163,441434.40000009537,7703,orange,NF,C,438951,438951,437422,438235,437423,439216,438751,438751,439216,104
93,test,1,inc,1,z,Wed Oct 29 2025 10:58:56 GMT-0500 (Central Daylight Time),445294.60000014305,cobalt,1100,I,z,z,None,420,221.0,199.0,8,1,2061.4000000953674,443233.2000000477,7703,banana,NF,C,441050,441050,439221,440335,439221,441283,440850,440850,441283,105
94,test,1,con,1,m,Wed Oct 29 2025 10:58:56 GMT-0500 (Central Daylight Time),447411.5,gold,1000,I,m,m,None,575,374.0,201.0,99,1,2112.399999856949,445299.10000014305,7703,gold,NF,C,443017,443017,441287,442299,441287,443400,442816,442816,443400,106
95,test,1,inc,1,z,Wed Oct 29 2025 10:58:56 GMT-0500 (Central Daylight Time),449562.90000009537,zinc,1000,I,z,z,None,602,386.0,216.0,55,1,2148.2000000476837,447414.7000000477,7703,kiwi,NF,C,445149,445149,443403,444416,443403,445551,444933,444933,445551,107
96,test,1,con,1,m,Wed Oct 29 2025 10:58:56 GMT-0500 (Central Daylight Time),451678.5,cobalt,1000,I,m,m,None,574,374.0,200.0,91,1,2112.7999999523163,449565.7000000477,7703,cobalt,NF,C,447281,447281,445554,446565,445554,447667,447081,447081,447667,108
97,test,1,con,1,z,Wed Oct 29 2025 10:58:56 GMT-0500 (Central Daylight Time),453725.10000014305,orange,1000,I,z,z,None,512,297.0,215.0,19,1,2042.2999999523163,451682.80000019073,7703,orange,NF,C,449414,449414,447671,448681,447671,449713,449199,449199,449713,109
98,test,1,con,1,z,Wed Oct 29 2025 10:58:56 GMT-0500 (Central Daylight Time),455642.7000000477,banana,900,I,z,z,None,485,284.0,201.0,2,1,1913.5,453729.2000000477,7703,banana,NF,C,451347,451347,449717,450631,449717,451631,451146,451146,451631,110
99,test,1,con,1,z,Wed Oct 29 2025 10:58:56 GMT-0500 (Central Daylight Time),457507.2000000477,raisin,800,I,z,z,None,523,308.0,215.0,25,1,1860.7000000476837,455646.5,7703,raisin,NF,C,453179,453179,451635,452446,451635,453495,452964,452964,453495,111
100,test,1,con,1,m,Wed Oct 29 2025 10:58:56 GMT-0500 (Central Daylight Time),459439.60000014305,cobalt,800,I,m,m,None,586,386.0,200.0,89,1,1927.0,457512.60000014305,7703,cobalt,NF,C,455028,455028,453501,454312,453501,455428,454827,454827,455428,112
100,test,1,con,0,z,Wed Oct 29 2025 10:58:56 GMT-0500 (Central Daylight Time),461588.90000009537,pear,1100,I,m,m,None,504,303.0,201.0,44,1,2145.2000000476837,459443.7000000477,7703,pear,NF,C,457264,457264,455432,456546,455432,457577,457061,457062,457577,113
101,test,1,inc,1,m,Wed Oct 29 2025 10:58:56 GMT-0500 (Central Daylight Time),463822.90000009537,raisin,1100,I,m,m,None,589,388.0,201.0,80,1,2230.5,461592.40000009537,7703,copper,NF,C,459411,459411,457580,458695,457581,459811,459210,459210,459811,114
102,test,1,con,1,m,Wed Oct 29 2025 10:58:56 GMT-0500 (Central Daylight Time),465904.60000014305,iron,1000,I,m,m,None,537,335.0,202.0,107,1,2077.7000000476837,463826.90000009537,7703,iron,NF,C,461544,461544,459815,460827,459815,461893,461342,461342,461893,115
103,test,1,con,1,z,Wed Oct 29 2025 10:58:56 GMT-0500 (Central Daylight Time),467838.30000019073,cherry,1000,I,z,z,None,399,199.0,200.0,11,1,1931.0,465907.30000019073,7703,cherry,NF,C,463625,463625,461895,462910,461895,463826,463425,463425,463826,116
104,test,1,inc,1,m,Wed Oct 29 2025 10:58:56 GMT-0500 (Central Daylight Time),470003.80000019073,plum,1100,I,m,m,None,533,333.0,200.0,104,1,2161.7000000476837,467842.10000014305,7703,gold,NF,C,465658,465658,463830,464943,463830,465992,465458,465458,465992,117
105,test,1,inc,1,m,Wed Oct 29 2025 10:58:56 GMT-0500 (Central Daylight Time),472103.7000000477,orange,1000,I,m,m,None,578,363.0,215.0,95,1,2096.399999856949,470007.30000019073,7703,cobalt,NF,C,467725,467725,465995,467008,465996,468092,467509,467509,468092,118
106,test,1,con,1,m,Wed Oct 29 2025 10:58:56 GMT-0500 (Central Daylight Time),474318.80000019073,lead,1100,I,m,m,None,570,370.0,200.0,124,1,2210.7000000476837,472108.10000014305,7703,lead,NF,C,469924,469924,468096,469210,468096,470307,469724,469724,470307,119
107,test,1,inc,1,m,Wed Oct 29 2025 10:58:56 GMT-0500 (Central Daylight Time),476469.2000000477,plum,1100,I,m,m,None,507,306.0,201.0,120,1,2147.2999999523163,474321.90000009537,7703,zinc,NF,C,472141,472141,470310,471424,470310,472457,471939,471939,472457,120
108,test,1,con,1,z,Wed Oct 29 2025 10:58:56 GMT-0500 (Central Daylight Time),478517.40000009537,banana,1100,I,z,z,None,413,214.0,199.0,4,1,2044.5,476472.90000009537,7703,banana,NF,C,474289,474289,472461,473573,472461,474505,474089,474089,474505,121
109,test,1,con,1,m,Wed Oct 29 2025 10:58:56 GMT-0500 (Central Daylight Time),480633.0,gold,1100,I,m,m,None,476,275.0,201.0,100,1,2109.5999999046326,478523.40000009537,7703,gold,NF,C,476340,476340,474511,475622,474512,476621,476138,476138,476621,122
110,test,1,inc,1,m,Wed Oct 29 2025 10:58:56 GMT-0500 (Central Daylight Time),482833.2000000477,raisin,1100,I,m,m,None,550,337.0,213.0,72,1,2196.5999999046326,480636.60000014305,7703,bronze,NF,C,478469,478469,476625,477738,476625,478821,478256,478256,478821,123
111,test,1,inc,1,m,Wed Oct 29 2025 10:58:56 GMT-0500 (Central Daylight Time),484782.60000014305,pear,900,I,m,m,None,529,330.0,199.0,118,1,1946.7999999523163,482835.80000019073,7703,zinc,NF,C,480437,480437,478824,479737,478824,480771,480238,480238,480771,124
112,test,1,con,1,m,Wed Oct 29 2025 10:58:56 GMT-0500 (Central Daylight Time),486798.0,iron,900,I,m,m,None,581,381.0,200.0,106,1,2011.5999999046326,484786.40000009537,7703,iron,NF,C,482403,482403,480774,481687,480775,482786,482203,482203,482786,125
113,test,1,inc,1,z,Wed Oct 29 2025 10:58:56 GMT-0500 (Central Daylight Time),488547.80000019073,gold,800,I,z,z,None,406,206.0,200.0,61,1,1744.7000000476837,486803.10000014305,7703,plum,NF,C,484321,484321,482791,483603,482791,484536,484120,484120,484536,126
114,test,1,con,1,m,Wed Oct 29 2025 10:58:56 GMT-0500 (Central Daylight Time),490579.5,copper,1000,I,m,m,None,489,274.0,215.0,75,1,2028.6999998092651,488550.80000019073,7703,copper,NF,C,486284,486284,484539,485553,484539,486568,486069,486069,486568,127
115,test,1,inc,1,z,Wed Oct 29 2025 10:58:56 GMT-0500 (Central Daylight Time),492496.30000019073,copper,900,I,z,z,None,477,278.0,199.0,30,1,1914.4000000953674,490581.90000009537,7703,raisin,NF,C,488201,488201,486570,487485,486570,488484,488002,488002,488484,128
