acc_sum,block,block_c,condition,correct,correct_response,datetime,endtime,flanker,jitter,project,response,response_test_buffer_response,response_test_target_response,response_time,response_time_test_buffer_response,response_time_test_target_response,row_sel,session_number,start_end,starttime,subject_id,target,task,task_vers,time_test_buffer,time_test_buffer_response,time_test_constants,time_test_flanker,time_test_jitter,time_test_logger,time_test_target,time_test_target_response,time_test_variables,trial
1,prac,1,con,1,z,Tue Feb 24 2026 11:43:03 GMT-0600 (Central Standard Time),117229.10000002384,rage,1000,O,z,,,701,,,15,1,3011.5,114217.60000002384,7749,rage,AF,B,,,,,,,,,,1
2,prac,1,con,1,z,Tue Feb 24 2026 11:43:03 GMT-0600 (Central Standard Time),120044.20000001788,brutal,800,O,z,,,711,,,13,1,2808.800000011921,117235.40000000596,7749,brutal,AF,B,,,,,,,,,,2
3,prac,1,inc,1,m,Tue Feb 24 2026 11:43:03 GMT-0600 (Central Standard Time),122960.20000001788,brutal,1100,O,m,,,508,,,8,1,2910.9000000059605,120049.30000001192,7749,window,AF,B,,,,,,,,,,3
4,prac,1,con,1,m,Tue Feb 24 2026 11:43:03 GMT-0600 (Central Standard Time),125543.10000002384,jacket,800,O,m,,,469,,,5,1,2578.7000000178814,122964.40000000596,7749,jacket,AF,B,,,,,,,,,,4
5,prac,1,inc,1,m,Tue Feb 24 2026 11:43:03 GMT-0600 (Central Standard Time),128341.90000000596,kind,900,O,m,,,585,,,2,1,2794.0999999940395,125547.80000001192,7749,rock,AF,B,,,,,,,,,,5
6,prac,1,inc,1,m,Tue Feb 24 2026 11:43:03 GMT-0600 (Central Standard Time),131124.0,elated,900,O,m,,,595,,,6,1,2777.399999976158,128346.60000002384,7749,napkin,AF,B,,,,,,,,,,6
7,prac,1,inc,1,m,Tue Feb 24 2026 11:43:03 GMT-0600 (Central Standard Time),134134.90000000596,hate,1100,O,m,,,597,,,4,1,3006.199999988079,131128.70000001788,7749,film,AF,B,,,,,,,,,,7
8,prac,1,inc,1,z,Tue Feb 24 2026 11:43:03 GMT-0600 (Central Standard Time),137090.20000001788,window,1100,O,z,,,533,,,16,1,2949.800000011921,134140.40000000596,7749,temper,AF,B,,,,,,,,,,8
8,prac,1,inc,0,z,Tue Feb 24 2026 11:43:03 GMT-0600 (Central Standard Time),139871.30000001192,film,900,O,m,,,575,,,14,1,2776.699999988079,137094.60000002384,7749,hate,AF,B,,,,,,,,,,9
9,prac,1,con,1,m,Tue Feb 24 2026 11:43:03 GMT-0600 (Central Standard Time),143138.0,remote,1000,O,m,,,957,,,7,1,3261.899999976158,139876.10000002384,7749,remote,AF,B,,,,,,,,,,10
10,prac,1,con,1,z,Tue Feb 24 2026 11:43:03 GMT-0600 (Central Standard Time),145953.0,love,1000,O,z,,,508,,,11,1,2809.699999988079,143143.30000001192,7749,love,AF,B,,,,,,,,,,11
11,prac,1,con,1,z,Tue Feb 24 2026 11:43:03 GMT-0600 (Central Standard Time),148535.60000002384,elated,800,O,z,,,475,,,9,1,2578.100000023842,145957.5,7749,elated,AF,B,,,,,,,,,,12
12,prac,1,con,1,m,Tue Feb 24 2026 11:43:03 GMT-0600 (Central Standard Time),151251.30000001192,step,800,O,m,,,612,,,1,1,2711.300000011921,148540.0,7749,step,AF,B,,,,,,,,,,13
13,prac,1,inc,1,z,Tue Feb 24 2026 11:43:03 GMT-0600 (Central Standard Time),154017.20000001788,rock,900,O,z,,,548,,,10,1,2761.5999999940395,151255.60000002384,7749,kind,AF,B,,,,,,,,,,14
14,prac,1,inc,1,z,Tue Feb 24 2026 11:43:03 GMT-0600 (Central Standard Time),157049.70000001788,napkin,1100,O,z,,,632,,,12,1,3028.300000011921,154021.40000000596,7749,friend,AF,B,,,,,,,,,,15
15,prac,1,con,1,m,Tue Feb 24 2026 11:43:03 GMT-0600 (Central Standard Time),160083.10000002384,bell,1000,O,m,,,723,,,3,1,3029.100000023842,157054.0,7749,bell,AF,B,,,,,,,,,,16
1,test,1,inc,1,m,Tue Feb 24 2026 11:43:03 GMT-0600 (Central Standard Time),189622.80000001192,brutal,900,O,m,m,None,652,453.0,199.0,110,1,2095.0999999940395,187527.70000001788,7749,napkin,AF,B,185609,185610,183981,184893,183981,186076,185410,185410,186076,1
2,test,1,con,1,m,Tue Feb 24 2026 11:43:03 GMT-0600 (Central Standard Time),191605.20000001788,step,1000,O,m,m,None,437,238.0,199.0,67,1,1977.4000000059605,189627.80000001192,7749,step,AF,B,187809,187809,186081,187092,186081,188058,187609,187609,188058,2
3,test,1,con,1,z,Tue Feb 24 2026 11:43:03 GMT-0600 (Central Standard Time),193637.80000001192,hate,900,O,z,z,None,594,395.0,199.0,42,1,2027.4000000059605,191610.40000000596,7749,hate,AF,B,189691,189692,188063,188975,188064,190091,189492,189492,190091,3
4,test,1,inc,1,m,Tue Feb 24 2026 11:43:03 GMT-0600 (Central Standard Time),195788.30000001192,hate,1100,O,m,m,None,515,315.0,200.0,80,1,2146.0999999940395,193642.20000001788,7749,rock,AF,B,191924,191924,190095,191207,190096,192241,191724,191724,192241,4
5,test,1,con,1,m,Tue Feb 24 2026 11:43:03 GMT-0600 (Central Standard Time),197803.0,bell,800,O,m,m,None,671,472.0,199.0,81,1,2010.5,195792.5,7749,bell,AF,B,193773,193774,192246,193057,192246,194256,193574,193574,194256,5
5,test,1,con,0,z,Tue Feb 24 2026 11:43:03 GMT-0600 (Central Standard Time),199736.20000001788,rage,900,O,m,m,None,494,294.0,200.0,50,1,1928.7000000178814,197807.5,7749,rage,AF,B,195890,195890,194261,195173,194261,196189,195689,195689,196189,6
6,test,1,con,1,m,Tue Feb 24 2026 11:43:03 GMT-0600 (Central Standard Time),201702.0,rock,900,O,m,m,None,529,329.0,200.0,74,1,1961.5999999940395,199740.40000000596,7749,rock,AF,B,197822,197822,196193,197106,196194,198155,197622,197622,198155,7
7,test,1,inc,1,z,Tue Feb 24 2026 11:43:03 GMT-0600 (Central Standard Time),203668.40000000596,remote,1000,O,z,z,None,423,223.0,200.0,31,1,1962.4000000059605,201706.0,7749,friend,AF,B,199888,199888,198159,199172,198159,200121,199688,199688,200121,8
8,test,1,inc,1,m,Tue Feb 24 2026 11:43:03 GMT-0600 (Central Standard Time),205650.80000001192,elated,800,O,m,m,None,645,432.0,213.0,109,1,1978.0999999940395,203672.70000001788,7749,napkin,AF,B,201671,201671,200126,200938,200126,202104,201458,201458,202104,9
9,test,1,con,1,z,Tue Feb 24 2026 11:43:03 GMT-0600 (Central Standard Time),207733.60000002384,temper,900,O,z,z,None,645,446.0,199.0,58,1,2079.100000023842,205654.5,7749,temper,AF,B,203737,203737,202108,203021,202108,204187,203538,203538,204187,10
10,test,1,inc,1,m,Tue Feb 24 2026 11:43:03 GMT-0600 (Central Standard Time),209982.80000001192,friend,1100,O,m,m,None,602,403.0,199.0,112,1,2244.5999999940395,207738.20000001788,7749,napkin,AF,B,206020,206020,204191,205303,204191,206436,205820,205820,206436,11
10,test,1,inc,0,m,Tue Feb 24 2026 11:43:03 GMT-0600 (Central Standard Time),211865.5,elated,800,O,z,z,None,534,334.0,200.0,117,1,1877.8999999761581,209987.60000002384,7749,remote,AF,B,207969,207969,206441,207253,206441,208319,207769,207769,208319,12
11,test,1,inc,1,z,Tue Feb 24 2026 11:43:03 GMT-0600 (Central Standard Time),214065.0,film,1100,O,z,z,None,550,351.0,199.0,24,1,2195.699999988079,211869.30000001192,7749,love,AF,B,210152,210152,208322,209437,208323,210518,209952,209952,210518,13
12,test,1,con,1,m,Tue Feb 24 2026 11:43:03 GMT-0600 (Central Standard Time),216314.10000002384,bell,1100,O,m,m,None,623,424.0,199.0,84,1,2245.100000023842,214069.0,7749,bell,AF,B,212334,212334,210522,211634,210522,212767,212135,212135,212767,14
13,test,1,inc,1,m,Tue Feb 24 2026 11:43:03 GMT-0600 (Central Standard Time),218313.80000001192,elated,800,O,m,m,None,674,475.0,199.0,125,1,1995.0,216318.80000001192,7749,window,AF,B,214284,214284,212772,213584,212772,214767,214085,214085,214767,15
14,test,1,inc,1,z,Tue Feb 24 2026 11:43:03 GMT-0600 (Central Standard Time),220263.20000001788,step,800,O,z,z,None,602,403.0,199.0,13,1,1944.300000011921,218318.90000000596,7749,kind,AF,B,216300,216300,214772,215583,214772,216716,216100,216100,216716,16
15,test,1,con,1,z,Tue Feb 24 2026 11:43:03 GMT-0600 (Central Standard Time),222446.0,elated,1100,O,z,z,None,537,337.0,200.0,4,1,2177.699999988079,220268.30000001192,7749,elated,AF,B,218550,218550,216721,217833,216722,218899,218350,218350,218899,17
16,test,1,con,1,m,Tue Feb 24 2026 11:43:03 GMT-0600 (Central Standard Time),224461.60000002384,film,900,O,m,m,None,594,378.0,216.0,90,1,2011.1000000238419,222450.5,7749,film,AF,B,220533,220533,218904,219815,218904,220915,220317,220317,220915,18
17,test,1,con,1,z,Tue Feb 24 2026 11:43:03 GMT-0600 (Central Standard Time),226377.80000001192,love,800,O,z,z,None,575,375.0,200.0,17,1,1912.0,224465.80000001192,7749,love,AF,B,222448,222448,220919,221732,220919,222831,222248,222248,222831,19
18,test,1,inc,1,z,Tue Feb 24 2026 11:43:03 GMT-0600 (Central Standard Time),228593.5,window,1100,O,z,z,None,567,367.0,200.0,64,1,2211.7999999821186,226381.70000001788,7749,temper,AF,B,224664,224664,222835,223948,222835,225047,224464,224464,225046,20
19,test,1,con,1,z,Tue Feb 24 2026 11:43:03 GMT-0600 (Central Standard Time),230743.10000002384,elated,1000,O,z,z,None,611,411.0,200.0,3,1,2145.300000011921,228597.80000001192,7749,elated,AF,B,226780,226780,225051,226063,225051,227196,226580,226580,227196,21
20,test,1,con,1,m,Tue Feb 24 2026 11:43:03 GMT-0600 (Central Standard Time),232759.20000001788,napkin,900,O,m,m,None,568,369.0,199.0,106,1,2010.800000011921,230748.40000000596,7749,napkin,AF,B,228829,228829,227201,228113,227202,229212,228630,228630,229212,22
21,test,1,con,1,m,Tue Feb 24 2026 11:43:03 GMT-0600 (Central Standard Time),234791.90000000596,rock,1000,O,m,m,None,494,294.0,200.0,75,1,2027.7999999821186,232764.10000002384,7749,rock,AF,B,230945,230945,229217,230229,229217,231245,230745,230745,231245,23
22,test,1,inc,1,z,Tue Feb 24 2026 11:43:03 GMT-0600 (Central Standard Time),236824.80000001192,jacket,800,O,z,z,None,685,485.0,200.0,61,1,2028.5,234796.30000001192,7749,temper,AF,B,232778,232778,231249,232061,231250,233278,232578,232578,233278,24
23,test,1,inc,1,m,Tue Feb 24 2026 11:43:03 GMT-0600 (Central Standard Time),239057.40000000596,hate,1100,O,m,m,None,591,392.0,199.0,96,1,2226.9000000059605,236830.5,7749,film,AF,B,235110,235111,233284,234394,233284,235510,234911,234911,235510,25
24,test,1,inc,1,z,Tue Feb 24 2026 11:43:03 GMT-0600 (Central Standard Time),241106.5,bell,1000,O,z,z,None,516,316.0,200.0,23,1,2044.8999999761581,239061.60000002384,7749,love,AF,B,237243,237243,235515,236527,235515,237560,237043,237043,237560,26
25,test,1,inc,1,z,Tue Feb 24 2026 11:43:03 GMT-0600 (Central Standard Time),243139.0,rock,900,O,z,z,None,597,382.0,215.0,46,1,2028.3999999761581,241110.60000002384,7749,hate,AF,B,239209,239209,237564,238476,237564,239592,238994,238994,239592,27
26,test,1,inc,1,m,Tue Feb 24 2026 11:43:03 GMT-0600 (Central Standard Time),245288.40000000596,love,1000,O,m,m,None,599,400.0,199.0,95,1,2145.2999999821186,243143.10000002384,7749,film,AF,B,241326,241326,239596,240609,239596,241741,241126,241126,241741,28
27,test,1,con,1,m,Tue Feb 24 2026 11:43:03 GMT-0600 (Central Standard Time),247504.5,step,1100,O,m,m,None,568,367.0,201.0,68,1,2211.899999976158,245292.60000002384,7749,step,AF,B,243576,243576,241746,242858,241746,243958,243375,243375,243958,29
28,test,1,inc,1,m,Tue Feb 24 2026 11:43:03 GMT-0600 (Central Standard Time),249538.80000001192,kind,900,O,m,m,None,583,384.0,199.0,78,1,2029.9000000059605,247508.90000000596,7749,rock,AF,B,245591,245591,243962,244874,243962,245992,245391,245391,245992,30
29,test,1,con,1,m,Tue Feb 24 2026 11:43:03 GMT-0600 (Central Standard Time),251569.80000001192,jacket,800,O,m,m,None,692,492.0,200.0,97,1,2027.300000011921,249542.5,7749,jacket,AF,B,247523,247523,245996,246807,245996,248023,247323,247323,248023,31
30,test,1,inc,1,m,Tue Feb 24 2026 11:43:03 GMT-0600 (Central Standard Time),253702.60000002384,temper,1000,O,m,m,None,587,387.0,200.0,111,1,2128.100000023842,251574.5,7749,napkin,AF,B,249756,249756,248028,249040,248028,250156,249556,249556,250156,32
31,test,1,con,1,m,Tue Feb 24 2026 11:43:03 GMT-0600 (Central Standard Time),255768.70000001788,film,800,O,m,m,None,726,525.0,201.0,89,1,2062.4000000059605,253706.30000001192,7749,film,AF,B,251690,251690,250159,250972,250160,252222,251489,251489,252222,33
32,test,1,con,1,m,Tue Feb 24 2026 11:43:03 GMT-0600 (Central Standard Time),257718.0,napkin,800,O,m,m,None,604,404.0,200.0,105,1,1945.3999999761581,255772.60000002384,7749,napkin,AF,B,253755,253755,252226,253038,252226,254171,253555,253555,254171,34
33,test,1,con,1,m,Tue Feb 24 2026 11:43:03 GMT-0600 (Central Standard Time),259818.90000000596,window,1000,O,m,m,None,558,359.0,199.0,123,1,2096.7999999821186,257722.10000002384,7749,window,AF,B,255904,255904,254175,255188,254175,256272,255705,255705,256272,35
34,test,1,con,1,z,Tue Feb 24 2026 11:43:03 GMT-0600 (Central Standard Time),261866.5,love,900,O,z,z,None,598,399.0,199.0,18,1,2043.699999988079,259822.80000001192,7749,love,AF,B,257904,257904,256276,257187,256276,258320,257704,257704,258320,36
35,test,1,inc,1,z,Tue Feb 24 2026 11:43:03 GMT-0600 (Central Standard Time),263766.3000000119,rock,900,O,z,z,None,454,254.0,200.0,22,1,1895.5999999940395,261870.70000001788,7749,love,AF,B,259953,259953,258324,259236,258324,260219,259753,259753,260219,37
36,test,1,inc,1,z,Tue Feb 24 2026 11:43:03 GMT-0600 (Central Standard Time),265848.8000000119,rock,900,O,z,z,None,641,442.0,199.0,54,1,2078.300000011921,263770.5,7749,rage,AF,B,261852,261852,260224,261136,260224,262302,261652,261653,262302,38
37,test,1,con,1,z,Tue Feb 24 2026 11:43:03 GMT-0600 (Central Standard Time),267664.7000000179,rage,800,O,z,z,None,467,268.0,199.0,49,1,1811.7000000178814,265853.0,7749,rage,AF,B,263835,263835,262306,263120,262306,264118,263635,263635,264118,39
38,test,1,con,1,z,Tue Feb 24 2026 11:43:03 GMT-0600 (Central Standard Time),269831.0,temper,1100,O,z,z,None,528,328.0,200.0,60,1,2162.199999988079,267668.8000000119,7749,temper,AF,B,265951,265951,264122,265235,264122,266284,265751,265751,266284,40
39,test,1,inc,1,m,Tue Feb 24 2026 11:43:03 GMT-0600 (Central Standard Time),271947.0,temper,1000,O,m,m,None,589,374.0,215.0,119,1,2111.5999999940395,269835.40000000596,7749,remote,AF,B,268017,268017,266288,267301,266289,268400,267802,267802,268400,41
40,test,1,inc,1,m,Tue Feb 24 2026 11:43:03 GMT-0600 (Central Standard Time),274063.0,temper,1000,O,m,m,None,569,369.0,200.0,103,1,2111.699999988079,271951.3000000119,7749,jacket,AF,B,270133,270133,268404,269416,268405,270516,269933,269933,270516,42
41,test,1,con,1,m,Tue Feb 24 2026 11:43:03 GMT-0600 (Central Standard Time),276112.2000000179,napkin,1000,O,m,m,None,501,217.0,284.0,107,1,2045.5,274066.7000000179,7749,napkin,AF,B,272334,272334,270520,271533,270520,272565,272049,272049,272565,43
42,test,1,con,1,m,Tue Feb 24 2026 11:43:03 GMT-0600 (Central Standard Time),278211.7000000179,remote,800,O,m,m,None,778,564.0,214.0,113,1,2095.800000011921,276115.90000000596,7749,remote,AF,B,274099,274099,272569,273382,272569,274665,273884,273884,274665,44
43,test,1,con,1,z,Tue Feb 24 2026 11:43:03 GMT-0600 (Central Standard Time),280094.2000000179,hate,800,O,z,z,None,536,337.0,199.0,41,1,1878.5,278215.7000000179,7749,hate,AF,B,276198,276198,274669,275482,274669,276547,275998,275998,276547,45
44,test,1,con,1,m,Tue Feb 24 2026 11:43:03 GMT-0600 (Central Standard Time),281994.2000000179,window,900,O,m,m,None,466,267.0,199.0,122,1,1896.2000000178814,280098.0,7749,window,AF,B,278180,278180,276551,277464,276551,278447,277981,277981,278447,46
45,test,1,con,1,m,Tue Feb 24 2026 11:43:03 GMT-0600 (Central Standard Time),284093.0,rock,1100,O,m,m,None,455,255.0,200.0,76,1,2094.0999999940395,281998.90000000596,7749,rock,AF,B,280280,280280,278452,279563,278452,280546,280080,280080,280546,47
46,test,1,inc,1,m,Tue Feb 24 2026 11:43:03 GMT-0600 (Central Standard Time),286375.8000000119,friend,1100,O,m,m,None,635,436.0,199.0,104,1,2278.9000000059605,284096.90000000596,7749,jacket,AF,B,282379,282379,280550,281663,280550,282829,282180,282180,282829,48
47,test,1,inc,1,z,Tue Feb 24 2026 11:43:03 GMT-0600 (Central Standard Time),288541.40000000596,bell,1000,O,z,z,None,619,420.0,199.0,15,1,2161.699999988079,286379.7000000179,7749,kind,AF,B,284562,284562,282833,283845,282833,284994,284362,284362,284994,49
48,test,1,con,1,z,Tue Feb 24 2026 11:43:03 GMT-0600 (Central Standard Time),290457.7000000179,kind,900,O,z,z,None,476,276.0,200.0,10,1,1911.800000011921,288545.90000000596,7749,kind,AF,B,286628,286628,284999,285911,284999,286911,286428,286428,286911,50
49,test,1,con,1,z,Tue Feb 24 2026 11:43:03 GMT-0600 (Central Standard Time),292590.60000002384,kind,1100,O,z,z,None,486,287.0,199.0,12,1,2128.600000023842,290462.0,7749,kind,AF,B,288744,288744,286915,288027,286915,289044,288544,288544,289044,51
50,test,1,inc,1,z,Tue Feb 24 2026 11:43:03 GMT-0600 (Central Standard Time),294823.2000000179,film,1100,O,z,z,None,584,369.0,215.0,48,1,2228.4000000059605,292594.8000000119,7749,hate,AF,B,290893,290893,289048,290160,289048,291276,290678,290678,291276,52
51,test,1,inc,1,m,Tue Feb 24 2026 11:43:03 GMT-0600 (Central Standard Time),297255.7000000179,friend,1100,O,m,m,None,794,594.0,200.0,120,1,2428.7000000178814,294827.0,7749,remote,AF,B,293109,293109,291280,292393,291280,293709,292909,292909,293709,53
52,test,1,inc,1,m,Tue Feb 24 2026 11:43:03 GMT-0600 (Central Standard Time),299288.2000000179,rage,800,O,m,m,None,683,484.0,199.0,77,1,2028.5,297259.7000000179,7749,rock,AF,B,295242,295242,293713,294525,293713,295741,295042,295042,295741,54
53,test,1,inc,1,z,Tue Feb 24 2026 11:43:03 GMT-0600 (Central Standard Time),301404.40000000596,napkin,900,O,z,z,None,671,472.0,199.0,30,1,2112.0999999940395,299292.3000000119,7749,friend,AF,B,297375,297375,295745,296658,295746,297857,297175,297175,297857,55
54,test,1,inc,1,m,Tue Feb 24 2026 11:43:03 GMT-0600 (Central Standard Time),303520.5,brutal,900,O,m,m,None,692,493.0,199.0,118,1,2112.0,301408.5,7749,remote,AF,B,299474,299474,297862,298774,297862,299974,299275,299275,299973,56
55,test,1,con,1,m,Tue Feb 24 2026 11:43:03 GMT-0600 (Central Standard Time),305837.60000002384,remote,1100,O,m,m,None,679,480.0,199.0,116,1,2313.2000000178814,303524.40000000596,7749,remote,AF,B,301806,301807,299977,301090,299978,302291,301607,301607,302291,57
56,test,1,inc,1,m,Tue Feb 24 2026 11:43:03 GMT-0600 (Central Standard Time),308069.0,hate,1100,O,m,m,None,597,397.0,200.0,88,1,2227.399999976158,305841.60000002384,7749,bell,AF,B,304122,304122,302295,303406,302295,304522,303922,303922,304522,58
57,test,1,con,1,z,Tue Feb 24 2026 11:43:03 GMT-0600 (Central Standard Time),310068.40000000596,brutal,900,O,z,z,None,556,356.0,200.0,34,1,1995.199999988079,308073.2000000179,7749,brutal,AF,B,306155,306155,304526,305439,304527,306521,305955,305955,306521,59
58,test,1,inc,1,m,Tue Feb 24 2026 11:43:03 GMT-0600 (Central Standard Time),312184.5,love,1000,O,m,m,None,576,377.0,199.0,87,1,2111.899999976158,310072.60000002384,7749,bell,AF,B,308255,308255,306526,307538,306526,308638,308055,308055,308638,60
59,test,1,inc,1,z,Tue Feb 24 2026 11:43:03 GMT-0600 (Central Standard Time),314433.60000002384,window,1100,O,z,z,None,608,409.0,199.0,8,1,2244.100000023842,312189.5,7749,elated,AF,B,310470,310470,308643,309754,308643,310887,310271,310271,310887,61
60,test,1,inc,1,z,Tue Feb 24 2026 11:43:03 GMT-0600 (Central Standard Time),316649.8000000119,bell,1000,O,z,z,None,664,450.0,214.0,55,1,2211.800000011921,314438.0,7749,rage,AF,B,312637,312637,310891,311903,310891,313103,312422,312422,313103,62
61,test,1,con,1,z,Tue Feb 24 2026 11:43:03 GMT-0600 (Central Standard Time),318699.0,love,1000,O,z,z,None,507,307.0,200.0,19,1,2045.199999988079,316653.8000000119,7749,love,AF,B,314836,314836,313107,314120,313107,315152,314636,314636,315152,63
62,test,1,inc,1,z,Tue Feb 24 2026 11:43:03 GMT-0600 (Central Standard Time),320915.3000000119,window,1100,O,z,z,None,574,374.0,200.0,32,1,2212.0999999940395,318703.2000000179,7749,friend,AF,B,316985,316985,315156,316268,315157,317368,316785,316785,317368,64
63,test,1,inc,1,m,Tue Feb 24 2026 11:43:03 GMT-0600 (Central Standard Time),323241.90000000596,love,1000,O,m,m,None,648,448.0,200.0,79,1,2322.5999999940395,320919.3000000119,7749,rock,AF,B,319101,319101,317372,318384,317373,319695,318901,318901,319695,65
64,test,1,inc,1,z,Tue Feb 24 2026 11:43:03 GMT-0600 (Central Standard Time),325463.40000000596,film,1100,O,z,z,None,576,377.0,199.0,56,1,2216.2999999821186,323247.10000002384,7749,rage,AF,B,321533,321534,319700,320817,319701,321916,321334,321334,321916,66
64,test,1,con,0,m,Tue Feb 24 2026 11:43:03 GMT-0600 (Central Standard Time),327679.5,film,1100,O,z,z,None,568,369.0,199.0,92,1,2212.0999999940395,325467.40000000596,7749,film,AF,B,323750,323750,321920,323033,321921,324133,323550,323550,324133,67
65,test,1,con,1,m,Tue Feb 24 2026 11:43:03 GMT-0600 (Central Standard Time),329579.0,step,900,O,m,m,None,448,249.0,199.0,66,1,1895.5,327683.5,7749,step,AF,B,325766,325766,324137,325049,324137,326032,325566,325566,326032,68
66,test,1,con,1,z,Tue Feb 24 2026 11:43:03 GMT-0600 (Central Standard Time),331895.10000002384,rage,1100,O,z,z,None,670,470.0,200.0,52,1,2312.100000023842,329583.0,7749,rage,AF,B,327865,327865,326036,327148,326036,328348,327665,327665,328348,69
67,test,1,con,1,z,Tue Feb 24 2026 11:43:03 GMT-0600 (Central Standard Time),333844.3000000119,friend,900,O,z,z,None,506,306.0,200.0,26,1,1945.0,331899.3000000119,7749,friend,AF,B,329981,329981,328352,329265,328353,330297,329781,329781,330297,70
68,test,1,inc,1,z,Tue Feb 24 2026 11:43:03 GMT-0600 (Central Standard Time),335743.7000000179,jacket,800,O,z,z,None,553,354.0,199.0,5,1,1895.300000011921,333848.40000000596,7749,elated,AF,B,331830,331830,330301,331114,330302,332197,331631,331631,332197,71
69,test,1,con,1,m,Tue Feb 24 2026 11:43:03 GMT-0600 (Central Standard Time),337876.10000002384,bell,900,O,m,m,None,696,497.0,199.0,82,1,2128.300000011921,335747.8000000119,7749,bell,AF,B,333830,333830,332201,333113,332201,334329,333630,333630,334329,72
70,test,1,inc,1,m,Tue Feb 24 2026 11:43:03 GMT-0600 (Central Standard Time),339742.40000000596,elated,800,O,m,m,None,527,328.0,199.0,101,1,1862.2999999821186,337880.10000002384,7749,jacket,AF,B,335863,335863,334333,335146,334333,336196,335663,335663,336195,73
71,test,1,con,1,z,Tue Feb 24 2026 11:43:03 GMT-0600 (Central Standard Time),341625.2000000179,brutal,800,O,z,z,None,541,342.0,199.0,33,1,1878.9000000059605,339746.3000000119,7749,brutal,AF,B,337729,337729,336199,337012,336200,338078,337529,337529,338078,74
72,test,1,con,1,m,Tue Feb 24 2026 11:43:03 GMT-0600 (Central Standard Time),343907.8000000119,window,1100,O,m,m,None,640,440.0,200.0,124,1,2278.9000000059605,341628.90000000596,7749,window,AF,B,339911,339911,338082,339195,338082,340361,339711,339711,340361,75
73,test,1,inc,1,z,Tue Feb 24 2026 11:43:03 GMT-0600 (Central Standard Time),345940.5,step,800,O,z,z,None,689,490.0,199.0,21,1,2028.7999999821186,343911.7000000179,7749,love,AF,B,341894,341894,340365,341177,340365,342394,341695,341695,342394,76
74,test,1,inc,1,z,Tue Feb 24 2026 11:43:03 GMT-0600 (Central Standard Time),348139.90000000596,window,1100,O,z,z,None,564,364.0,200.0,40,1,2195.4000000059605,345944.5,7749,brutal,AF,B,344227,344227,342398,343510,342398,344593,344027,344027,344593,77
75,test,1,con,1,m,Tue Feb 24 2026 11:43:03 GMT-0600 (Central Standard Time),350156.0,window,800,O,m,m,None,681,481.0,200.0,121,1,2012.0999999940395,348143.90000000596,7749,window,AF,B,346126,346126,344597,345410,344597,346609,345926,345926,346609,78
76,test,1,inc,1,z,Tue Feb 24 2026 11:43:03 GMT-0600 (Central Standard Time),352172.0,napkin,900,O,z,z,None,581,379.0,202.0,62,1,2012.2999999821186,350159.7000000179,7749,temper,AF,B,348244,348244,346613,347525,346613,348625,348042,348042,348625,79
77,test,1,con,1,z,Tue Feb 24 2026 11:43:03 GMT-0600 (Central Standard Time),354338.10000002384,friend,1100,O,z,z,None,525,324.0,201.0,28,1,2162.2000000178814,352175.90000000596,7749,friend,AF,B,350459,350459,348629,349742,348629,350791,350258,350258,350791,80
78,test,1,inc,1,m,Tue Feb 24 2026 11:43:03 GMT-0600 (Central Standard Time),356570.5,hate,1100,O,m,m,None,584,384.0,200.0,72,1,2228.199999988079,354342.3000000119,7749,step,AF,B,352624,352624,350795,351907,350795,353024,352424,352424,353024,81
79,test,1,inc,1,z,Tue Feb 24 2026 11:43:03 GMT-0600 (Central Standard Time),358586.60000002384,rock,900,O,z,z,None,573,374.0,199.0,14,1,2012.0,356574.60000002384,7749,kind,AF,B,354657,354657,353028,353940,353028,355040,354457,354457,355040,82
80,test,1,inc,1,z,Tue Feb 24 2026 11:43:03 GMT-0600 (Central Standard Time),360702.7000000179,bell,1000,O,z,z,None,569,370.0,199.0,47,1,2112.0,358590.7000000179,7749,hate,AF,B,356773,356773,355044,356056,355044,357156,356573,356573,357156,83
81,test,1,con,1,z,Tue Feb 24 2026 11:43:03 GMT-0600 (Central Standard Time),362785.10000002384,kind,1000,O,z,z,None,542,341.0,201.0,11,1,2078.300000011921,360706.8000000119,7749,kind,AF,B,358890,358890,357160,358172,357160,359238,358689,358689,359238,84
82,test,1,con,1,z,Tue Feb 24 2026 11:43:03 GMT-0600 (Central Standard Time),364784.90000000596,elated,800,O,z,z,None,659,459.0,200.0,1,1,1995.7999999821186,362789.10000002384,7749,elated,AF,B,360772,360772,359242,360055,359242,361238,360571,360571,361238,85
83,test,1,inc,1,z,Tue Feb 24 2026 11:43:03 GMT-0600 (Central Standard Time),366685.90000000596,step,800,O,z,z,None,564,364.0,200.0,53,1,1897.0,364788.90000000596,7749,rage,AF,B,362771,362771,361242,362054,361242,363139,362571,362571,363139,86
84,test,1,inc,1,m,Tue Feb 24 2026 11:43:03 GMT-0600 (Central Standard Time),368733.2000000179,love,1000,O,m,m,None,505,305.0,200.0,71,1,2043.2000000178814,366690.0,7749,step,AF,B,364870,364870,363143,364154,363143,365186,364670,364670,365186,87
85,test,1,con,1,m,Tue Feb 24 2026 11:43:03 GMT-0600 (Central Standard Time),370932.7000000179,bell,1000,O,m,m,None,609,397.0,212.0,83,1,2195.5999999940395,368737.10000002384,7749,bell,AF,B,366986,366986,365190,366203,365190,367386,366774,366774,367386,88
86,test,1,con,1,m,Tue Feb 24 2026 11:43:03 GMT-0600 (Central Standard Time),373065.2000000179,jacket,1100,O,m,m,None,492,292.0,200.0,100,1,2128.5,370936.7000000179,7749,jacket,AF,B,369219,369219,367390,368502,367390,369518,369019,369019,369518,89
87,test,1,con,1,m,Tue Feb 24 2026 11:43:03 GMT-0600 (Central Standard Time),375048.0,remote,900,O,m,m,None,534,335.0,199.0,114,1,1978.0999999940395,373069.90000000596,7749,remote,AF,B,371152,371152,369523,370435,369523,371501,370952,370952,371501,90
88,test,1,inc,1,z,Tue Feb 24 2026 11:43:03 GMT-0600 (Central Standard Time),377130.90000000596,remote,1000,O,z,z,None,541,341.0,200.0,7,1,2078.9000000059605,375052.0,7749,elated,AF,B,373234,373234,371505,372518,371505,373584,373034,373034,373584,91
89,test,1,inc,1,m,Tue Feb 24 2026 11:43:03 GMT-0600 (Central Standard Time),379130.2000000179,rage,800,O,m,m,None,657,458.0,199.0,69,1,1995.2000000178814,377135.0,7749,step,AF,B,375117,375117,373588,374401,373588,375583,374918,374918,375583,92
90,test,1,inc,1,z,Tue Feb 24 2026 11:43:03 GMT-0600 (Central Standard Time),381146.40000000596,jacket,800,O,z,z,None,674,474.0,200.0,29,1,2011.9000000059605,379134.5,7749,friend,AF,B,377116,377116,375588,376400,375588,377599,376916,376916,377599,93
91,test,1,inc,1,m,Tue Feb 24 2026 11:43:03 GMT-0600 (Central Standard Time),383278.8000000119,kind,900,O,m,m,None,693,478.0,215.0,70,1,2128.5999999940395,381150.2000000179,7749,step,AF,B,379249,379249,377603,378516,377603,379732,379034,379034,379732,94
92,test,1,con,1,m,Tue Feb 24 2026 11:43:03 GMT-0600 (Central Standard Time),385361.60000002384,jacket,1000,O,m,m,None,542,342.0,200.0,99,1,2079.2000000178814,383282.40000000596,7749,jacket,AF,B,381465,381465,379735,380748,379736,381815,381265,381265,381815,95
93,test,1,inc,1,z,Tue Feb 24 2026 11:43:03 GMT-0600 (Central Standard Time),387427.7000000179,napkin,900,O,z,z,None,622,423.0,199.0,6,1,2062.300000011921,385365.40000000596,7749,elated,AF,B,383448,383448,381818,382731,381819,383881,383248,383248,383881,96
94,test,1,inc,1,m,Tue Feb 24 2026 11:43:03 GMT-0600 (Central Standard Time),389460.3000000119,kind,900,O,m,m,None,596,397.0,199.0,86,1,2028.4000000059605,387431.90000000596,7749,bell,AF,B,385514,385514,383885,384797,383885,385913,385314,385314,385913,97
95,test,1,inc,1,z,Tue Feb 24 2026 11:43:03 GMT-0600 (Central Standard Time),391426.2000000179,step,800,O,z,z,None,630,414.0,216.0,45,1,1962.0,389464.2000000179,7749,hate,AF,B,387465,387465,385917,386730,385918,387879,387248,387248,387879,98
96,test,1,inc,1,z,Tue Feb 24 2026 11:43:03 GMT-0600 (Central Standard Time),393625.7000000179,remote,1000,O,z,z,None,658,459.0,199.0,63,1,2195.800000011921,391429.90000000596,7749,temper,AF,B,389612,389612,387883,388896,387883,390079,389413,389413,390079,99
97,test,1,con,1,m,Tue Feb 24 2026 11:43:03 GMT-0600 (Central Standard Time),395741.8000000119,remote,1000,O,m,m,None,579,379.0,200.0,115,1,2112.0999999940395,393629.7000000179,7749,remote,AF,B,391812,391812,390083,391095,390083,392195,391612,391612,392195,100
98,test,1,con,1,z,Tue Feb 24 2026 11:43:03 GMT-0600 (Central Standard Time),397524.60000002384,kind,800,O,z,z,None,447,247.0,200.0,9,1,1778.9000000059605,395745.7000000179,7749,kind,AF,B,393728,393728,392199,393011,392199,393978,393528,393528,393978,101
99,test,1,inc,1,m,Tue Feb 24 2026 11:43:03 GMT-0600 (Central Standard Time),399873.60000002384,friend,1100,O,m,m,None,699,500.0,199.0,128,1,2344.600000023842,397529.0,7749,window,AF,B,395810,395811,393982,395094,393982,396327,395611,395611,396327,102
100,test,1,con,1,m,Tue Feb 24 2026 11:43:03 GMT-0600 (Central Standard Time),401873.10000002384,film,1000,O,m,m,None,450,251.0,199.0,91,1,1995.6000000238419,399877.5,7749,film,AF,B,398060,398060,396331,397343,396331,398326,397860,397860,398326,103
101,test,1,inc,1,z,Tue Feb 24 2026 11:43:03 GMT-0600 (Central Standard Time),404022.5,film,1100,O,z,z,None,511,311.0,200.0,16,1,2145.5999999940395,401876.90000000596,7749,kind,AF,B,400160,400160,398330,399443,398330,400476,399959,399959,400476,104
102,test,1,inc,1,z,Tue Feb 24 2026 11:43:03 GMT-0600 (Central Standard Time),405971.90000000596,jacket,800,O,z,z,None,605,406.0,199.0,37,1,1945.2999999821186,404026.60000002384,7749,brutal,AF,B,402009,402009,400480,401292,400480,402425,401809,401809,402425,105
103,test,1,con,1,z,Tue Feb 24 2026 11:43:03 GMT-0600 (Central Standard Time),407871.2000000179,temper,800,O,z,z,None,562,362.0,200.0,57,1,1895.300000011921,405975.90000000596,7749,temper,AF,B,403958,403958,402429,403241,402429,404324,403758,403758,404324,106
104,test,1,inc,1,z,Tue Feb 24 2026 11:43:03 GMT-0600 (Central Standard Time),409988.0,remote,1000,O,z,z,None,574,374.0,200.0,39,1,2112.7999999821186,407875.2000000179,7749,brutal,AF,B,406058,406058,404328,405341,404328,406441,405857,405857,406441,107
105,test,1,con,1,m,Tue Feb 24 2026 11:43:03 GMT-0600 (Central Standard Time),411819.90000000596,rock,800,O,m,m,None,489,289.0,200.0,73,1,1828.0999999940395,409991.8000000119,7749,rock,AF,B,407974,407974,406445,407257,406445,408273,407773,407773,408273,108
105,test,1,con,0,z,Tue Feb 24 2026 11:43:03 GMT-0600 (Central Standard Time),413852.5,brutal,1000,O,m,m,None,489,289.0,200.0,35,1,2028.0999999940395,411824.40000000596,7749,brutal,AF,B,410006,410006,408277,409291,408278,410306,409806,409806,410306,109
106,test,1,con,1,z,Tue Feb 24 2026 11:43:03 GMT-0600 (Central Standard Time),416002.0,rage,1000,O,z,z,None,600,400.0,200.0,51,1,2145.5,413856.5,7749,rage,AF,B,412039,412039,410310,411322,410310,412455,411839,411839,412455,110
107,test,1,con,1,z,Tue Feb 24 2026 11:43:03 GMT-0600 (Central Standard Time),418151.5,hate,1000,O,z,z,None,614,403.0,211.0,43,1,2145.5999999940395,416005.90000000596,7749,hate,AF,B,414188,414188,412459,413472,412459,414605,413977,413977,414605,111
108,test,1,inc,1,m,Tue Feb 24 2026 11:43:03 GMT-0600 (Central Standard Time),420150.90000000596,brutal,900,O,m,m,None,552,353.0,199.0,102,1,1995.4000000059605,418155.5,7749,jacket,AF,B,416237,416238,414609,415521,414609,416604,416037,416038,416604,112
109,test,1,con,1,m,Tue Feb 24 2026 11:43:03 GMT-0600 (Central Standard Time),422050.10000002384,jacket,900,O,m,m,None,458,257.0,201.0,98,1,1895.4000000059605,420154.7000000179,7749,jacket,AF,B,418238,418238,416608,417520,416608,418503,418037,418037,418503,113
109,test,1,con,0,z,Tue Feb 24 2026 11:43:03 GMT-0600 (Central Standard Time),424216.2000000179,brutal,1100,O,m,m,None,519,319.0,200.0,36,1,2162.0999999940395,422054.10000002384,7749,brutal,AF,B,420336,420336,418507,419620,418507,420669,420136,420136,420669,114
110,test,1,inc,1,z,Tue Feb 24 2026 11:43:03 GMT-0600 (Central Standard Time),426298.8000000119,napkin,900,O,z,z,None,633,432.0,201.0,38,1,2078.5999999940395,424220.2000000179,7749,brutal,AF,B,422303,422303,420673,421586,420674,422752,422102,422102,422752,115
111,test,1,con,1,z,Tue Feb 24 2026 11:43:03 GMT-0600 (Central Standard Time),428464.8000000119,hate,1100,O,z,z,None,526,326.0,200.0,44,1,2162.0999999940395,426302.7000000179,7749,hate,AF,B,424585,424585,422756,423869,422756,424918,424385,424385,424918,116
112,test,1,inc,1,m,Tue Feb 24 2026 11:43:03 GMT-0600 (Central Standard Time),430414.10000002384,rage,800,O,m,m,None,604,404.0,200.0,93,1,1945.1000000238419,428469.0,7749,film,AF,B,426451,426451,424922,425735,424922,426867,426251,426251,426867,117
113,test,1,con,1,z,Tue Feb 24 2026 11:43:03 GMT-0600 (Central Standard Time),432630.2000000179,temper,1000,O,z,z,None,678,479.0,199.0,59,1,2212.2000000178814,430418.0,7749,temper,AF,B,428600,428600,426871,427884,426871,429083,428401,428401,429083,118
114,test,1,inc,1,m,Tue Feb 24 2026 11:43:03 GMT-0600 (Central Standard Time),434562.90000000596,rage,800,O,m,m,None,591,391.0,200.0,85,1,1928.699999988079,432634.2000000179,7749,bell,AF,B,430616,430616,429087,429900,429087,431016,430416,430416,431016,119
115,test,1,inc,1,m,Tue Feb 24 2026 11:43:03 GMT-0600 (Central Standard Time),436695.40000000596,temper,1000,O,m,m,None,594,394.0,200.0,127,1,2127.699999988079,434567.7000000179,7749,window,AF,B,432749,432749,431021,432033,431021,433148,432549,432549,433148,120
116,test,1,con,1,z,Tue Feb 24 2026 11:43:03 GMT-0600 (Central Standard Time),438978.3000000119,friend,1000,O,z,z,None,741,541.0,200.0,27,1,2279.0999999940395,436699.2000000179,7749,friend,AF,B,434882,434882,433152,434165,433152,435431,434682,434682,435431,121
117,test,1,con,1,z,Tue Feb 24 2026 11:43:03 GMT-0600 (Central Standard Time),441282.8000000119,love,1100,O,z,z,None,653,454.0,199.0,20,1,2300.699999988079,438982.10000002384,7749,love,AF,B,437264,437264,435435,436548,435436,437736,437065,437065,437736,122
118,test,1,con,1,z,Tue Feb 24 2026 11:43:03 GMT-0600 (Central Standard Time),443126.90000000596,friend,800,O,z,z,None,510,311.0,199.0,25,1,1839.699999988079,441287.2000000179,7749,friend,AF,B,439264,439264,437740,438547,437740,439580,439064,439064,439580,123
119,test,1,con,1,m,Tue Feb 24 2026 11:43:03 GMT-0600 (Central Standard Time),444944.40000000596,step,800,O,m,m,None,485,286.0,199.0,65,1,1813.2999999821186,443131.10000002384,7749,step,AF,B,441096,441096,439584,440396,439584,441397,440897,440897,441397,124
120,test,1,con,1,z,Tue Feb 24 2026 11:43:03 GMT-0600 (Central Standard Time),447042.60000002384,elated,900,O,z,z,None,666,466.0,200.0,2,1,2094.2000000178814,444948.40000000596,7749,elated,AF,B,443029,443029,441401,442313,441402,443496,442829,442829,443496,125
121,test,1,con,1,m,Tue Feb 24 2026 11:43:03 GMT-0600 (Central Standard Time),449191.90000000596,napkin,1100,O,m,m,None,511,311.0,200.0,108,1,2145.5999999940395,447046.3000000119,7749,napkin,AF,B,445328,445328,443499,444612,443500,445645,445128,445128,445645,126
122,test,1,inc,1,m,Tue Feb 24 2026 11:43:03 GMT-0600 (Central Standard Time),451274.3000000119,brutal,900,O,m,m,None,648,449.0,199.0,126,1,2078.4000000059605,449195.90000000596,7749,window,AF,B,447278,447278,445649,446561,445649,447727,447078,447078,447727,127
123,test,1,inc,1,m,Tue Feb 24 2026 11:43:03 GMT-0600 (Central Standard Time),453390.3000000119,kind,900,O,m,m,None,670,470.0,200.0,94,1,2112.0999999940395,451278.2000000179,7749,film,AF,B,449361,449361,447731,448644,447731,449843,449161,449161,449843,128
