block_c,block_dur,condition,countdown,datetime,endtime,list,multichar_response,project,response,response_time,session_number,start_end,starttime,subject_id,task,task_vers,trial
,,,,Tue Dec 16 2025 17:32:13 GMT-0600 (Central Standard Time),,,,O,space,855,1,,,7255,WL,A,
prac,,0,,Tue Dec 16 2025 17:32:13 GMT-0600 (Central Standard Time),,NA,b,O,b,1672,1,,,7255,WL,A,1.0
prac,,0,,Tue Dec 16 2025 17:32:13 GMT-0600 (Central Standard Time),,NA,bo,O,o,285,1,,,7255,WL,A,1.0
prac,,0,,Tue Dec 16 2025 17:32:13 GMT-0600 (Central Standard Time),,NA,boo,O,o,153,1,,,7255,WL,A,1.0
prac,,0,,Tue Dec 16 2025 17:32:13 GMT-0600 (Central Standard Time),,NA,boos,O,s,252,1,,,7255,WL,A,1.0
prac,,0,,Tue Dec 16 2025 17:32:13 GMT-0600 (Central Standard Time),,NA,boost,O,t,322,1,,,7255,WL,A,1.0
prac,,0,,Tue Dec 16 2025 17:32:13 GMT-0600 (Central Standard Time),,NA,boostenter,O,enter,1293,1,,,7255,WL,A,1.0
1,4.430999994277954,learn,55569.000005722046,Tue Dec 16 2025 17:32:13 GMT-0600 (Central Standard Time),137969.70000004768,A,r,O,r,4422,1,4431.100000023842,133538.60000002384,7255,WL,A,1.0
1,5.682000160217285,learn,54317.999839782715,Tue Dec 16 2025 17:32:13 GMT-0600 (Central Standard Time),139220.10000002384,A,ra,O,a,1229,1,5681.5,133538.60000002384,7255,WL,A,1.0
1,6.114000082015991,learn,53885.99991798401,Tue Dec 16 2025 17:32:13 GMT-0600 (Central Standard Time),139652.29999995232,A,rat,O,t,411,1,6113.699999928474,133538.60000002384,7255,WL,A,1.0
1,6.263999938964844,learn,53736.000061035156,Tue Dec 16 2025 17:32:13 GMT-0600 (Central Standard Time),139801.70000004768,A,ratt,O,t,136,1,6263.100000023842,133538.60000002384,7255,WL,A,1.0
1,6.496999979019165,learn,53503.000020980835,Tue Dec 16 2025 17:32:13 GMT-0600 (Central Standard Time),140035.20000004768,A,rattl,O,l,218,1,6496.600000023842,133538.60000002384,7255,WL,A,1.0
1,6.746999979019165,learn,53253.000020980835,Tue Dec 16 2025 17:32:13 GMT-0600 (Central Standard Time),140285.20000004768,A,rattle,O,e,226,1,6746.600000023842,133538.60000002384,7255,WL,A,1.0
1,7.413000106811523,learn,52586.99989318848,Tue Dec 16 2025 17:32:13 GMT-0600 (Central Standard Time),140951.39999997616,A,rattleenter,O,enter,648,1,7412.799999952316,133538.60000002384,7255,WL,A,1.0
1,13.144999980926514,learn,46855.000019073486,Tue Dec 16 2025 17:32:13 GMT-0600 (Central Standard Time),146683.29999995232,A,b,O,b,5719,1,5731.399999976158,140951.89999997616,7255,WL,A,2.0
1,13.394999980926514,learn,46605.000019073486,Tue Dec 16 2025 17:32:13 GMT-0600 (Central Standard Time),146933.60000002384,A,bo,O,o,242,1,5981.700000047684,140951.89999997616,7255,WL,A,2.0
1,13.578999996185303,learn,46421.0000038147,Tue Dec 16 2025 17:32:13 GMT-0600 (Central Standard Time),147117.29999995232,A,boo,O,o,157,1,6165.399999976158,140951.89999997616,7255,WL,A,2.0
1,13.710999965667725,learn,46289.000034332275,Tue Dec 16 2025 17:32:13 GMT-0600 (Central Standard Time),147249.39999997616,A,book,O,k,117,1,6297.5,140951.89999997616,7255,WL,A,2.0
1,14.228000164031982,learn,45771.99983596802,Tue Dec 16 2025 17:32:13 GMT-0600 (Central Standard Time),147766.0,A,bookenter,O,enter,507,1,6814.100000023842,140951.89999997616,7255,WL,A,2.0
1,17.41000008583069,learn,42589.99991416931,Tue Dec 16 2025 17:32:13 GMT-0600 (Central Standard Time),150947.70000004768,A,a,O,a,3160,1,3181.3000000715256,147766.39999997616,7255,WL,A,3.0
1,17.659000158309937,learn,42340.99984169006,Tue Dec 16 2025 17:32:13 GMT-0600 (Central Standard Time),151197.29999995232,A,ap,O,p,245,1,3430.899999976158,147766.39999997616,7255,WL,A,3.0
1,17.844000101089478,learn,42155.99989891052,Tue Dec 16 2025 17:32:13 GMT-0600 (Central Standard Time),151381.89999997616,A,app,O,p,171,1,3615.5,147766.39999997616,7255,WL,A,3.0
1,18.011000156402588,learn,41988.99984359741,Tue Dec 16 2025 17:32:13 GMT-0600 (Central Standard Time),151549.0,A,appl,O,l,153,1,3782.600000023842,147766.39999997616,7255,WL,A,3.0
1,18.261000156402588,learn,41738.99984359741,Tue Dec 16 2025 17:32:13 GMT-0600 (Central Standard Time),151799.20000004768,A,apple,O,e,242,1,4032.8000000715256,147766.39999997616,7255,WL,A,3.0
1,18.64300012588501,learn,41356.99987411499,Tue Dec 16 2025 17:32:13 GMT-0600 (Central Standard Time),152181.5,A,appleenter,O,enter,366,1,4415.100000023842,147766.39999997616,7255,WL,A,3.0
1,19.64400005340576,learn,40355.99994659424,Tue Dec 16 2025 17:32:13 GMT-0600 (Central Standard Time),153181.79999995232,A,r,O,r,985,1,1000.0,152181.79999995232,7255,WL,A,4.0
1,20.05900001525879,learn,39940.99998474121,Tue Dec 16 2025 17:32:13 GMT-0600 (Central Standard Time),153597.60000002384,A,ru,O,u,401,1,1415.8000000715256,152181.79999995232,7255,WL,A,4.0
1,20.426000118255615,learn,39573.999881744385,Tue Dec 16 2025 17:32:13 GMT-0600 (Central Standard Time),153964.20000004768,A,rug,O,g,359,1,1782.4000000953674,152181.79999995232,7255,WL,A,4.0
1,20.844000101089478,learn,39155.99989891052,Tue Dec 16 2025 17:32:13 GMT-0600 (Central Standard Time),154382.0,A,rugenter,O,enter,411,1,2200.2000000476837,152181.79999995232,7255,WL,A,4.0
1,21.659000158309937,learn,38340.99984169006,Tue Dec 16 2025 17:32:13 GMT-0600 (Central Standard Time),155197.20000004768,A,m,O,m,809,1,814.9000000953674,154382.29999995232,7255,WL,A,5.0
1,21.909000158309937,learn,38090.99984169006,Tue Dec 16 2025 17:32:13 GMT-0600 (Central Standard Time),155446.89999997616,A,me,O,e,232,1,1064.6000000238419,154382.29999995232,7255,WL,A,5.0
1,22.2260000705719,learn,37773.9999294281,Tue Dec 16 2025 17:32:13 GMT-0600 (Central Standard Time),155764.10000002384,A,mea,O,a,302,1,1381.8000000715256,154382.29999995232,7255,WL,A,5.0
1,22.4760000705719,learn,37523.9999294281,Tue Dec 16 2025 17:32:13 GMT-0600 (Central Standard Time),156014.39999997616,A,mead,O,d,225,1,1632.1000000238419,154382.29999995232,7255,WL,A,5.0
1,22.742000102996826,learn,37257.999897003174,Tue Dec 16 2025 17:32:13 GMT-0600 (Central Standard Time),156280.20000004768,A,meado,O,o,245,1,1897.9000000953674,154382.29999995232,7255,WL,A,5.0
1,22.942000150680542,learn,37057.99984931946,Tue Dec 16 2025 17:32:13 GMT-0600 (Central Standard Time),156479.79999995232,A,meadow,O,w,182,1,2097.5,154382.29999995232,7255,WL,A,5.0
1,23.325000047683716,learn,36674.999952316284,Tue Dec 16 2025 17:32:13 GMT-0600 (Central Standard Time),156863.29999995232,A,meadowenter,O,enter,365,1,2481.0,154382.29999995232,7255,WL,A,5.0
1,27.490999937057495,learn,32509.000062942505,Tue Dec 16 2025 17:32:13 GMT-0600 (Central Standard Time),161029.0,A,f,O,f,4142,1,4165.399999976158,156863.60000002384,7255,WL,A,6.0
1,27.789000034332275,learn,32210.999965667725,Tue Dec 16 2025 17:32:13 GMT-0600 (Central Standard Time),161326.89999997616,A,fl,O,l,280,1,4463.299999952316,156863.60000002384,7255,WL,A,6.0
1,27.98900008201599,learn,32010.99991798401,Tue Dec 16 2025 17:32:13 GMT-0600 (Central Standard Time),161527.29999995232,A,flo,O,o,193,1,4663.699999928474,156863.60000002384,7255,WL,A,6.0
1,28.19000005722046,learn,31809.99994277954,Tue Dec 16 2025 17:32:13 GMT-0600 (Central Standard Time),161727.79999995232,A,flow,O,w,193,1,4864.199999928474,156863.60000002384,7255,WL,A,6.0
1,28.44099998474121,learn,31559.00001525879,Tue Dec 16 2025 17:32:13 GMT-0600 (Central Standard Time),161979.29999995232,A,flowe,O,e,229,1,5115.699999928474,156863.60000002384,7255,WL,A,6.0
1,28.657000064849854,learn,31342.999935150146,Tue Dec 16 2025 17:32:13 GMT-0600 (Central Standard Time),162195.10000002384,A,flower,O,r,204,1,5331.5,156863.60000002384,7255,WL,A,6.0
1,29.138999938964844,learn,30861.000061035156,Tue Dec 16 2025 17:32:13 GMT-0600 (Central Standard Time),162676.89999997616,A,flowerenter,O,enter,468,1,5813.299999952316,156863.60000002384,7255,WL,A,6.0
1,33.105000019073486,learn,26894.999980926514,Tue Dec 16 2025 17:32:13 GMT-0600 (Central Standard Time),166643.5,A,g,O,g,3954,1,3966.2999999523163,162677.20000004768,7255,WL,A,7.0
1,33.35599994659424,learn,26644.00005340576,Tue Dec 16 2025 17:32:13 GMT-0600 (Central Standard Time),166893.70000004768,A,go,O,o,244,1,4216.5,162677.20000004768,7255,WL,A,7.0
1,33.555999994277954,learn,26444.000005722046,Tue Dec 16 2025 17:32:13 GMT-0600 (Central Standard Time),167093.89999997616,A,gol,O,l,195,1,4416.699999928474,162677.20000004768,7255,WL,A,7.0
1,33.705000162124634,learn,26294.999837875366,Tue Dec 16 2025 17:32:13 GMT-0600 (Central Standard Time),167243.29999995232,A,gold,O,d,125,1,4566.099999904633,162677.20000004768,7255,WL,A,7.0
1,34.105000019073486,learn,25894.999980926514,Tue Dec 16 2025 17:32:13 GMT-0600 (Central Standard Time),167643.20000004768,A,goldenter,O,enter,385,1,4966.0,162677.20000004768,7255,WL,A,7.0
1,38.15700006484985,learn,21842.999935150146,Tue Dec 16 2025 17:32:13 GMT-0600 (Central Standard Time),171695.20000004768,A,l,O,l,4036,1,4051.7000000476837,167643.5,7255,WL,A,8.0
1,38.37000012397766,learn,21629.99987602234,Tue Dec 16 2025 17:32:13 GMT-0600 (Central Standard Time),171908.60000002384,A,lo,O,o,192,1,4265.100000023842,167643.5,7255,WL,A,8.0
1,38.55400013923645,learn,21445.99986076355,Tue Dec 16 2025 17:32:13 GMT-0600 (Central Standard Time),172091.79999995232,A,log,O,g,173,1,4448.299999952316,167643.5,7255,WL,A,8.0
1,39.00399994850159,learn,20996.000051498413,Tue Dec 16 2025 17:32:13 GMT-0600 (Central Standard Time),172541.70000004768,A,logenter,O,enter,433,1,4898.200000047684,167643.5,7255,WL,A,8.0
1,52.865999937057495,learn,7134.000062942505,Tue Dec 16 2025 17:32:13 GMT-0600 (Central Standard Time),186404.20000004768,A,t,O,t,13851,1,13862.200000047684,172542.0,7255,WL,A,9.0
1,53.08200001716614,learn,6917.999982833862,Tue Dec 16 2025 17:32:13 GMT-0600 (Central Standard Time),186620.10000002384,A,tr,O,r,194,1,14078.100000023842,172542.0,7255,WL,A,9.0
1,53.532999992370605,learn,6467.0000076293945,Tue Dec 16 2025 17:32:13 GMT-0600 (Central Standard Time),187071.29999995232,A,tra,O,a,432,1,14529.299999952316,172542.0,7255,WL,A,9.0
1,53.848000049591064,learn,6151.999950408936,Tue Dec 16 2025 17:32:13 GMT-0600 (Central Standard Time),187386.79999995232,A,trai,O,i,305,1,14844.799999952316,172542.0,7255,WL,A,9.0
1,54.04900002479553,learn,5950.999975204468,Tue Dec 16 2025 17:32:13 GMT-0600 (Central Standard Time),187587.29999995232,A,train,O,n,189,1,15045.299999952316,172542.0,7255,WL,A,9.0
1,54.49900007247925,learn,5500.999927520752,Tue Dec 16 2025 17:32:13 GMT-0600 (Central Standard Time),188037.5,A,trainenter,O,enter,427,1,15495.5,172542.0,7255,WL,A,9.0
1,60.013999938964844,learn,-13.99993896484375,Tue Dec 16 2025 17:32:13 GMT-0600 (Central Standard Time),193552.29999995232,A,None,O,None,5509,1,5514.399999976158,188037.89999997616,7255,WL,A,10.0
2,1.9670000076293945,learn,58032.999992370605,Tue Dec 16 2025 17:32:13 GMT-0600 (Central Standard Time),263615.0,A,c,O,c,1958,1,1966.3999999761581,261648.60000002384,7255,WL,A,1.0
2,2.264000177383423,learn,57735.99982261658,Tue Dec 16 2025 17:32:13 GMT-0600 (Central Standard Time),263912.10000002384,A,ch,O,h,278,1,2263.5,261648.60000002384,7255,WL,A,1.0
2,2.5480000972747803,learn,57451.99990272522,Tue Dec 16 2025 17:32:13 GMT-0600 (Central Standard Time),264196.10000002384,A,chi,O,i,270,1,2547.5,261648.60000002384,7255,WL,A,1.0
2,3.064000129699707,learn,56935.99987030029,Tue Dec 16 2025 17:32:13 GMT-0600 (Central Standard Time),264711.7999999523,A,chim,O,m,508,1,3063.1999999284744,261648.60000002384,7255,WL,A,1.0
2,3.2810001373291016,learn,56718.9998626709,Tue Dec 16 2025 17:32:13 GMT-0600 (Central Standard Time),264928.2999999523,A,chimn,O,n,209,1,3279.6999999284744,261648.60000002384,7255,WL,A,1.0
2,3.7799999713897705,learn,56220.00002861023,Tue Dec 16 2025 17:32:13 GMT-0600 (Central Standard Time),265428.0,A,chimne,O,e,494,1,3779.399999976158,261648.60000002384,7255,WL,A,1.0
2,4.064000129699707,learn,55935.99987030029,Tue Dec 16 2025 17:32:13 GMT-0600 (Central Standard Time),265711.7000000477,A,chimney,O,y,270,1,4063.100000023842,261648.60000002384,7255,WL,A,1.0
2,4.5320000648498535,learn,55467.99993515015,Tue Dec 16 2025 17:32:13 GMT-0600 (Central Standard Time),266179.7000000477,A,chimneyenter,O,enter,447,1,4531.100000023842,261648.60000002384,7255,WL,A,1.0
2,4.930999994277954,learn,55069.000005722046,Tue Dec 16 2025 17:32:13 GMT-0600 (Central Standard Time),266578.7000000477,A,f,O,f,388,1,398.8000000715256,266179.89999997616,7255,WL,A,2.0
2,5.246999979019165,learn,54753.000020980835,Tue Dec 16 2025 17:32:13 GMT-0600 (Central Standard Time),266895.0,A,fi,O,i,300,1,715.1000000238419,266179.89999997616,7255,WL,A,2.0
2,5.515000104904175,learn,54484.999895095825,Tue Dec 16 2025 17:32:13 GMT-0600 (Central Standard Time),267162.39999997616,A,fin,O,n,248,1,982.5,266179.89999997616,7255,WL,A,2.0
2,5.766000032424927,learn,54233.99996757507,Tue Dec 16 2025 17:32:13 GMT-0600 (Central Standard Time),267413.39999997616,A,fing,O,g,245,1,1233.5,266179.89999997616,7255,WL,A,2.0
2,6.014000177383423,learn,53985.99982261658,Tue Dec 16 2025 17:32:13 GMT-0600 (Central Standard Time),267662.2000000477,A,finge,O,e,241,1,1482.3000000715256,266179.89999997616,7255,WL,A,2.0
2,6.21399998664856,learn,53786.00001335144,Tue Dec 16 2025 17:32:13 GMT-0600 (Central Standard Time),267861.39999997616,A,finger,O,r,175,1,1681.5,266179.89999997616,7255,WL,A,2.0
2,6.5980000495910645,learn,53401.999950408936,Tue Dec 16 2025 17:32:13 GMT-0600 (Central Standard Time),268245.5,A,fingerenter,O,enter,376,1,2065.600000023842,266179.89999997616,7255,WL,A,2.0
2,7.246000051498413,learn,52753.99994850159,Tue Dec 16 2025 17:32:13 GMT-0600 (Central Standard Time),268893.60000002384,A,l,O,l,634,1,647.8000000715256,268245.7999999523,7255,WL,A,3.0
2,7.463000059127808,learn,52536.99994087219,Tue Dec 16 2025 17:32:13 GMT-0600 (Central Standard Time),269111.10000002384,A,lo,O,o,211,1,865.3000000715256,268245.7999999523,7255,WL,A,3.0
2,7.680000066757202,learn,52319.9999332428,Tue Dec 16 2025 17:32:13 GMT-0600 (Central Standard Time),269328.10000002384,A,log,O,g,206,1,1082.3000000715256,268245.7999999523,7255,WL,A,3.0
2,8.080000162124634,learn,51919.999837875366,Tue Dec 16 2025 17:32:13 GMT-0600 (Central Standard Time),269727.60000002384,A,logenter,O,enter,382,1,1481.8000000715256,268245.7999999523,7255,WL,A,3.0
2,9.680999994277954,learn,50319.000005722046,Tue Dec 16 2025 17:32:13 GMT-0600 (Central Standard Time),271328.60000002384,A,r,O,r,1584,1,1600.7000000476837,269727.89999997616,7255,WL,A,4.0
2,10.111000061035156,learn,49888.999938964844,Tue Dec 16 2025 17:32:13 GMT-0600 (Central Standard Time),271759.10000002384,A,ra,O,a,422,1,2031.2000000476837,269727.89999997616,7255,WL,A,4.0
2,10.479000091552734,learn,49520.999908447266,Tue Dec 16 2025 17:32:13 GMT-0600 (Central Standard Time),272126.5,A,rat,O,t,353,1,2398.600000023842,269727.89999997616,7255,WL,A,4.0
2,10.611999988555908,learn,49388.00001144409,Tue Dec 16 2025 17:32:13 GMT-0600 (Central Standard Time),272259.2000000477,A,ratt,O,t,122,1,2531.3000000715256,269727.89999997616,7255,WL,A,4.0
2,10.861999988555908,learn,49138.00001144409,Tue Dec 16 2025 17:32:13 GMT-0600 (Central Standard Time),272509.39999997616,A,rattl,O,l,245,1,2781.5,269727.89999997616,7255,WL,A,4.0
2,11.045000076293945,learn,48954.999923706055,Tue Dec 16 2025 17:32:13 GMT-0600 (Central Standard Time),272692.60000002384,A,rattle,O,e,177,1,2964.7000000476837,269727.89999997616,7255,WL,A,4.0
2,11.479000091552734,learn,48520.999908447266,Tue Dec 16 2025 17:32:13 GMT-0600 (Central Standard Time),273126.39999997616,A,rattleenter,O,enter,418,1,3398.5,269727.89999997616,7255,WL,A,4.0
2,12.611000061035156,learn,47388.999938964844,Tue Dec 16 2025 17:32:13 GMT-0600 (Central Standard Time),274258.60000002384,A,b,O,b,1121,1,1131.8999999761581,273126.7000000477,7255,WL,A,5.0
2,13.045000076293945,learn,46954.999923706055,Tue Dec 16 2025 17:32:13 GMT-0600 (Central Standard Time),274692.60000002384,A,bo,O,o,415,1,1565.8999999761581,273126.7000000477,7255,WL,A,5.0
2,14.07800006866455,learn,45921.99993133545,Tue Dec 16 2025 17:32:13 GMT-0600 (Central Standard Time),275725.7999999523,A,boo,O,o,1018,1,2599.0999999046326,273126.7000000477,7255,WL,A,5.0
2,14.794000148773193,learn,45205.99985122681,Tue Dec 16 2025 17:32:13 GMT-0600 (Central Standard Time),276441.89999997616,A,book,O,k,706,1,3315.1999999284744,273126.7000000477,7255,WL,A,5.0
2,15.344000101089478,learn,44655.99989891052,Tue Dec 16 2025 17:32:13 GMT-0600 (Central Standard Time),276991.7000000477,A,bookenter,O,enter,534,1,3865.0,273126.7000000477,7255,WL,A,5.0
2,15.878000020980835,learn,44121.999979019165,Tue Dec 16 2025 17:32:13 GMT-0600 (Central Standard Time),277525.89999997616,A,t,O,t,519,1,533.8999999761581,276992.0,7255,WL,A,6.0
2,16.09500002861023,learn,43904.99997138977,Tue Dec 16 2025 17:32:13 GMT-0600 (Central Standard Time),277742.39999997616,A,tr,O,r,200,1,750.3999999761581,276992.0,7255,WL,A,6.0
2,16.61300015449524,learn,43386.99984550476,Tue Dec 16 2025 17:32:13 GMT-0600 (Central Standard Time),278260.5,A,tra,O,a,506,1,1268.5,276992.0,7255,WL,A,6.0
2,16.89400005340576,learn,43105.99994659424,Tue Dec 16 2025 17:32:13 GMT-0600 (Central Standard Time),278542.10000002384,A,trai,O,i,260,1,1550.1000000238419,276992.0,7255,WL,A,6.0
2,17.093000173568726,learn,42906.999826431274,Tue Dec 16 2025 17:32:13 GMT-0600 (Central Standard Time),278741.0,A,train,O,n,192,1,1749.0,276992.0,7255,WL,A,6.0
2,17.776000022888184,learn,42223.99997711182,Tue Dec 16 2025 17:32:13 GMT-0600 (Central Standard Time),279423.2999999523,A,trainenter,O,enter,664,1,2431.2999999523163,276992.0,7255,WL,A,6.0
2,23.175000190734863,learn,36824.99980926514,Tue Dec 16 2025 17:32:13 GMT-0600 (Central Standard Time),284823.10000002384,A,f,O,f,5385,1,5399.600000023842,279423.5,7255,WL,A,7.0
2,23.44000005722046,learn,36559.99994277954,Tue Dec 16 2025 17:32:13 GMT-0600 (Central Standard Time),285088.10000002384,A,fl,O,l,247,1,5664.600000023842,279423.5,7255,WL,A,7.0
2,23.625,learn,36375.0,Tue Dec 16 2025 17:32:13 GMT-0600 (Central Standard Time),285272.7000000477,A,flo,O,o,176,1,5849.200000047684,279423.5,7255,WL,A,7.0
2,23.776000022888184,learn,36223.99997711182,Tue Dec 16 2025 17:32:13 GMT-0600 (Central Standard Time),285423.7000000477,A,flow,O,w,144,1,6000.200000047684,279423.5,7255,WL,A,7.0
2,23.95900011062622,learn,36040.99988937378,Tue Dec 16 2025 17:32:13 GMT-0600 (Central Standard Time),285606.7000000477,A,flowe,O,e,167,1,6183.200000047684,279423.5,7255,WL,A,7.0
2,24.174000024795532,learn,35825.99997520447,Tue Dec 16 2025 17:32:13 GMT-0600 (Central Standard Time),285822.10000002384,A,flower,O,r,211,1,6398.600000023842,279423.5,7255,WL,A,7.0
2,24.610000133514404,learn,35389.999866485596,Tue Dec 16 2025 17:32:13 GMT-0600 (Central Standard Time),286257.2000000477,A,flowerenter,O,enter,417,1,6833.700000047684,279423.5,7255,WL,A,7.0
2,28.42300009727478,learn,31576.99990272522,Tue Dec 16 2025 17:32:13 GMT-0600 (Central Standard Time),290070.60000002384,A,a,O,a,3799,1,3812.600000023842,286258.0,7255,WL,A,8.0
2,29.956000089645386,learn,30043.999910354614,Tue Dec 16 2025 17:32:13 GMT-0600 (Central Standard Time),291603.7000000477,A,,O,backspace,1513,1,5345.700000047684,286258.0,7255,WL,A,8.0
2,30.472000122070312,learn,29527.999877929688,Tue Dec 16 2025 17:32:13 GMT-0600 (Central Standard Time),292120.10000002384,A,h,O,h,501,1,5862.100000023842,286258.0,7255,WL,A,8.0
2,30.67200016975403,learn,29327.99983024597,Tue Dec 16 2025 17:32:13 GMT-0600 (Central Standard Time),292319.60000002384,A,ha,O,a,189,1,6061.600000023842,286258.0,7255,WL,A,8.0
2,31.055000066757202,learn,28944.999933242798,Tue Dec 16 2025 17:32:13 GMT-0600 (Central Standard Time),292703.2000000477,A,har,O,r,367,1,6445.200000047684,286258.0,7255,WL,A,8.0
2,31.35700011253357,learn,28642.99988746643,Tue Dec 16 2025 17:32:13 GMT-0600 (Central Standard Time),293004.7000000477,A,harp,O,p,294,1,6746.700000047684,286258.0,7255,WL,A,8.0
2,31.871999979019165,learn,28128.000020980835,Tue Dec 16 2025 17:32:13 GMT-0600 (Central Standard Time),293519.7999999523,A,harps,O,s,497,1,7261.799999952316,286258.0,7255,WL,A,8.0
2,32.08899998664856,learn,27911.00001335144,Tue Dec 16 2025 17:32:13 GMT-0600 (Central Standard Time),293736.2000000477,A,harpsa,O,a,201,1,7478.200000047684,286258.0,7255,WL,A,8.0
2,32.2720000743866,learn,27727.999925613403,Tue Dec 16 2025 17:32:13 GMT-0600 (Central Standard Time),293919.39999997616,A,harpsal,O,l,175,1,7661.399999976158,286258.0,7255,WL,A,8.0
2,32.50500011444092,learn,27494.999885559082,Tue Dec 16 2025 17:32:13 GMT-0600 (Central Standard Time),294152.5,A,harpsalt,O,t,226,1,7894.5,286258.0,7255,WL,A,8.0
2,32.98800015449524,learn,27011.99984550476,Tue Dec 16 2025 17:32:13 GMT-0600 (Central Standard Time),294636.2000000477,A,harpsaltenter,O,enter,463,1,8378.200000047684,286258.0,7255,WL,A,8.0
2,34.57100009918213,learn,25428.99990081787,Tue Dec 16 2025 17:32:13 GMT-0600 (Central Standard Time),296219.10000002384,A,s,O,s,1563,1,1582.6000000238419,294636.5,7255,WL,A,9.0
2,34.7720000743866,learn,25227.999925613403,Tue Dec 16 2025 17:32:13 GMT-0600 (Central Standard Time),296419.39999997616,A,sa,O,a,179,1,1782.8999999761581,294636.5,7255,WL,A,9.0
2,34.9210000038147,learn,25078.999996185303,Tue Dec 16 2025 17:32:13 GMT-0600 (Central Standard Time),296568.7999999523,A,sal,O,l,140,1,1932.2999999523163,294636.5,7255,WL,A,9.0
2,35.271000146865845,learn,24728.999853134155,Tue Dec 16 2025 17:32:13 GMT-0600 (Central Standard Time),296918.7999999523,A,salt,O,t,344,1,2282.2999999523163,294636.5,7255,WL,A,9.0
2,35.604000091552734,learn,24395.999908447266,Tue Dec 16 2025 17:32:13 GMT-0600 (Central Standard Time),297252.2000000477,A,saltenter,O,enter,321,1,2615.7000000476837,294636.5,7255,WL,A,9.0
2,36.37000012397766,learn,23629.99987602234,Tue Dec 16 2025 17:32:13 GMT-0600 (Central Standard Time),298018.39999997616,A,h,O,h,757,1,765.8999999761581,297252.5,7255,WL,A,10.0
2,36.587000131607056,learn,23412.999868392944,Tue Dec 16 2025 17:32:13 GMT-0600 (Central Standard Time),298234.60000002384,A,ha,O,a,206,1,982.1000000238419,297252.5,7255,WL,A,10.0
2,36.85300016403198,learn,23146.999835968018,Tue Dec 16 2025 17:32:13 GMT-0600 (Central Standard Time),298500.7000000477,A,har,O,r,253,1,1248.2000000476837,297252.5,7255,WL,A,10.0
2,37.15400004386902,learn,22845.99995613098,Tue Dec 16 2025 17:32:13 GMT-0600 (Central Standard Time),298801.60000002384,A,harp,O,p,284,1,1549.1000000238419,297252.5,7255,WL,A,10.0
2,37.65300011634827,learn,22346.999883651733,Tue Dec 16 2025 17:32:13 GMT-0600 (Central Standard Time),299300.60000002384,A,harpenter,O,enter,493,1,2048.100000023842,297252.5,7255,WL,A,10.0
2,45.83400011062622,learn,14165.99988937378,Tue Dec 16 2025 17:32:13 GMT-0600 (Central Standard Time),307482.0,A,m,O,m,8171,1,8181.200000047684,299300.7999999523,7255,WL,A,11.0
2,46.08400011062622,learn,13915.99988937378,Tue Dec 16 2025 17:32:13 GMT-0600 (Central Standard Time),307732.5,A,me,O,e,238,1,8431.700000047684,299300.7999999523,7255,WL,A,11.0
2,46.568000078201294,learn,13431.999921798706,Tue Dec 16 2025 17:32:13 GMT-0600 (Central Standard Time),308215.89999997616,A,mea,O,a,475,1,8915.100000023842,299300.7999999523,7255,WL,A,11.0
2,46.80000019073486,learn,13199.999809265137,Tue Dec 16 2025 17:32:13 GMT-0600 (Central Standard Time),308448.60000002384,A,mead,O,d,214,1,9147.800000071526,299300.7999999523,7255,WL,A,11.0
2,47.08300018310547,learn,12916.999816894531,Tue Dec 16 2025 17:32:13 GMT-0600 (Central Standard Time),308730.60000002384,A,meado,O,o,269,1,9429.800000071526,299300.7999999523,7255,WL,A,11.0
2,47.348999977111816,learn,12651.000022888184,Tue Dec 16 2025 17:32:13 GMT-0600 (Central Standard Time),308997.5,A,meadow,O,w,259,1,9696.700000047684,299300.7999999523,7255,WL,A,11.0
2,47.76700019836426,learn,12232.999801635742,Tue Dec 16 2025 17:32:13 GMT-0600 (Central Standard Time),309415.39999997616,A,meadowenter,O,enter,401,1,10114.600000023842,299300.7999999523,7255,WL,A,11.0
2,53.21500015258789,learn,6784.999847412109,Tue Dec 16 2025 17:32:13 GMT-0600 (Central Standard Time),314862.60000002384,A,l,O,l,5433,1,5447.0,309415.60000002384,7255,WL,A,12.0
2,53.430999994277954,learn,6569.000005722046,Tue Dec 16 2025 17:32:13 GMT-0600 (Central Standard Time),315078.89999997616,A,lo,O,o,211,1,5663.299999952316,309415.60000002384,7255,WL,A,12.0
2,53.848000049591064,learn,6151.999950408936,Tue Dec 16 2025 17:32:13 GMT-0600 (Central Standard Time),315495.7000000477,A,log,O,g,401,1,6080.100000023842,309415.60000002384,7255,WL,A,12.0
2,54.265000104904175,learn,5734.999895095825,Tue Dec 16 2025 17:32:13 GMT-0600 (Central Standard Time),315912.89999997616,A,logenter,O,enter,402,1,6497.299999952316,309415.60000002384,7255,WL,A,12.0
2,60.01400017738342,learn,-14.000177383422852,Tue Dec 16 2025 17:32:13 GMT-0600 (Central Standard Time),321661.89999997616,A,None,O,None,5744,1,5748.799999952316,315913.10000002384,7255,WL,A,13.0
3,1.5,learn,58500.0,Tue Dec 16 2025 17:32:13 GMT-0600 (Central Standard Time),390955.0,A,g,O,g,1480,1,1499.3999999761581,389455.60000002384,7255,WL,A,1.0
3,1.7170000076293945,learn,58282.999992370605,Tue Dec 16 2025 17:32:13 GMT-0600 (Central Standard Time),391171.7999999523,A,go,O,o,194,1,1716.1999999284744,389455.60000002384,7255,WL,A,1.0
3,1.934000015258789,learn,58065.99998474121,Tue Dec 16 2025 17:32:13 GMT-0600 (Central Standard Time),391389.10000002384,A,gol,O,l,209,1,1933.5,389455.60000002384,7255,WL,A,1.0
3,2.132999897003174,learn,57867.000102996826,Tue Dec 16 2025 17:32:13 GMT-0600 (Central Standard Time),391588.0,A,gold,O,d,185,1,2132.399999976158,389455.60000002384,7255,WL,A,1.0
3,2.5160000324249268,learn,57483.99996757507,Tue Dec 16 2025 17:32:13 GMT-0600 (Central Standard Time),391971.60000002384,A,goldenter,O,enter,362,1,2516.0,389455.60000002384,7255,WL,A,1.0
3,2.998999834060669,learn,57001.00016593933,Tue Dec 16 2025 17:32:13 GMT-0600 (Central Standard Time),392454.39999997616,A,r,O,r,461,1,482.60000002384186,391971.7999999523,7255,WL,A,2.0
3,3.5149998664855957,learn,56485.000133514404,Tue Dec 16 2025 17:32:13 GMT-0600 (Central Standard Time),392970.2000000477,A,ra,O,a,495,1,998.4000000953674,391971.7999999523,7255,WL,A,2.0
3,3.8999998569488525,learn,56100.00014305115,Tue Dec 16 2025 17:32:13 GMT-0600 (Central Standard Time),393355.0,A,rat,O,t,367,1,1383.2000000476837,391971.7999999523,7255,WL,A,2.0
3,4.065999984741211,learn,55934.00001525879,Tue Dec 16 2025 17:32:13 GMT-0600 (Central Standard Time),393521.60000002384,A,ratt,O,t,143,1,1549.8000000715256,391971.7999999523,7255,WL,A,2.0
3,4.2159998416900635,learn,55784.00015830994,Tue Dec 16 2025 17:32:13 GMT-0600 (Central Standard Time),393670.89999997616,A,rattl,O,l,129,1,1699.1000000238419,391971.7999999523,7255,WL,A,2.0
3,4.484999895095825,learn,55515.000104904175,Tue Dec 16 2025 17:32:13 GMT-0600 (Central Standard Time),393940.2999999523,A,rattle,O,e,264,1,1968.5,391971.7999999523,7255,WL,A,2.0
3,4.932999849319458,learn,55067.00015068054,Tue Dec 16 2025 17:32:13 GMT-0600 (Central Standard Time),394388.60000002384,A,rattleenter,O,enter,426,1,2416.8000000715256,391971.7999999523,7255,WL,A,2.0
3,6.014999866485596,learn,53985.000133514404,Tue Dec 16 2025 17:32:13 GMT-0600 (Central Standard Time),395470.0,A,k,O,k,1067,1,1081.1000000238419,394388.89999997616,7255,WL,A,3.0
3,6.264999866485596,learn,53735.000133514404,Tue Dec 16 2025 17:32:13 GMT-0600 (Central Standard Time),395720.89999997616,A,ke,O,e,233,1,1332.0,394388.89999997616,7255,WL,A,3.0
3,6.580999851226807,learn,53419.00014877319,Tue Dec 16 2025 17:32:13 GMT-0600 (Central Standard Time),396036.7000000477,A,key,O,y,298,1,1647.8000000715256,394388.89999997616,7255,WL,A,3.0
3,6.980999946594238,learn,53019.00005340576,Tue Dec 16 2025 17:32:13 GMT-0600 (Central Standard Time),396436.10000002384,A,keyenter,O,enter,385,1,2047.2000000476837,394388.89999997616,7255,WL,A,3.0
3,8.21399998664856,learn,51786.00001335144,Tue Dec 16 2025 17:32:13 GMT-0600 (Central Standard Time),397669.2999999523,A,r,O,r,1227,1,1232.8999999761581,396436.39999997616,7255,WL,A,4.0
3,8.646999835968018,learn,51353.00016403198,Tue Dec 16 2025 17:32:13 GMT-0600 (Central Standard Time),398102.60000002384,A,ru,O,u,423,1,1666.2000000476837,396436.39999997616,7255,WL,A,4.0
3,9.047999858856201,learn,50952.0001411438,Tue Dec 16 2025 17:32:13 GMT-0600 (Central Standard Time),398503.7999999523,A,rug,O,g,393,1,2067.399999976158,396436.39999997616,7255,WL,A,4.0
3,9.480999946594238,learn,50519.00005340576,Tue Dec 16 2025 17:32:13 GMT-0600 (Central Standard Time),398936.60000002384,A,rugenter,O,enter,423,1,2500.2000000476837,396436.39999997616,7255,WL,A,4.0
3,15.711999893188477,learn,44288.00010681152,Tue Dec 16 2025 17:32:13 GMT-0600 (Central Standard Time),405167.2000000477,A,f,O,f,6224,1,6230.400000095367,398936.7999999523,7255,WL,A,5.0
3,16.02899980545044,learn,43971.00019454956,Tue Dec 16 2025 17:32:13 GMT-0600 (Central Standard Time),405483.89999997616,A,fi,O,i,294,1,6547.100000023842,398936.7999999523,7255,WL,A,5.0
3,16.328999996185303,learn,43671.0000038147,Tue Dec 16 2025 17:32:13 GMT-0600 (Central Standard Time),405784.0,A,fin,O,n,281,1,6847.200000047684,398936.7999999523,7255,WL,A,5.0
3,16.611999988555908,learn,43388.00001144409,Tue Dec 16 2025 17:32:13 GMT-0600 (Central Standard Time),406067.39999997616,A,fing,O,g,263,1,7130.600000023842,398936.7999999523,7255,WL,A,5.0
3,16.861999988555908,learn,43138.00001144409,Tue Dec 16 2025 17:32:13 GMT-0600 (Central Standard Time),406317.2000000477,A,finge,O,e,235,1,7380.400000095367,398936.7999999523,7255,WL,A,5.0
3,17.062000036239624,learn,42937.999963760376,Tue Dec 16 2025 17:32:13 GMT-0600 (Central Standard Time),406517.39999997616,A,finger,O,r,176,1,7580.600000023842,398936.7999999523,7255,WL,A,5.0
3,17.544999837875366,learn,42455.000162124634,Tue Dec 16 2025 17:32:13 GMT-0600 (Central Standard Time),407000.60000002384,A,fingerenter,O,enter,467,1,8063.800000071526,398936.7999999523,7255,WL,A,5.0
3,18.626999855041504,learn,41373.000144958496,Tue Dec 16 2025 17:32:13 GMT-0600 (Central Standard Time),408081.89999997616,A,l,O,l,1071,1,1081.0,407000.89999997616,7255,WL,A,6.0
3,18.82799983024597,learn,41172.00016975403,Tue Dec 16 2025 17:32:13 GMT-0600 (Central Standard Time),408283.89999997616,A,lo,O,o,190,1,1283.0,407000.89999997616,7255,WL,A,6.0
3,19.194999933242798,learn,40805.0000667572,Tue Dec 16 2025 17:32:13 GMT-0600 (Central Standard Time),408650.39999997616,A,log,O,g,356,1,1649.5,407000.89999997616,7255,WL,A,6.0
3,19.644999980926514,learn,40355.000019073486,Tue Dec 16 2025 17:32:13 GMT-0600 (Central Standard Time),409100.2000000477,A,logenter,O,enter,429,1,2099.3000000715256,407000.89999997616,7255,WL,A,6.0
3,20.128999948501587,learn,39871.00005149841,Tue Dec 16 2025 17:32:13 GMT-0600 (Central Standard Time),409583.89999997616,A,a,O,a,468,1,483.39999997615814,409100.5,7255,WL,A,7.0
3,20.543999910354614,learn,39456.000089645386,Tue Dec 16 2025 17:32:13 GMT-0600 (Central Standard Time),409999.7000000477,A,ap,O,p,399,1,899.2000000476837,409100.5,7255,WL,A,7.0
3,20.710000038146973,learn,39289.99996185303,Tue Dec 16 2025 17:32:13 GMT-0600 (Central Standard Time),410165.60000002384,A,app,O,p,151,1,1065.1000000238419,409100.5,7255,WL,A,7.0
3,20.893999814987183,learn,39106.00018501282,Tue Dec 16 2025 17:32:13 GMT-0600 (Central Standard Time),410349.39999997616,A,appl,O,l,177,1,1248.8999999761581,409100.5,7255,WL,A,7.0
3,21.176999807357788,learn,38823.00019264221,Tue Dec 16 2025 17:32:13 GMT-0600 (Central Standard Time),410632.7999999523,A,apple,O,e,275,1,1532.2999999523163,409100.5,7255,WL,A,7.0
3,21.5939998626709,learn,38406.0001373291,Tue Dec 16 2025 17:32:13 GMT-0600 (Central Standard Time),411049.0,A,appleenter,O,enter,405,1,1948.5,409100.5,7255,WL,A,7.0
3,23.109999895095825,learn,36890.000104904175,Tue Dec 16 2025 17:32:13 GMT-0600 (Central Standard Time),412565.7000000477,A,f,O,f,1511,1,1516.3000000715256,411049.39999997616,7255,WL,A,8.0
3,23.39299988746643,learn,36607.00011253357,Tue Dec 16 2025 17:32:13 GMT-0600 (Central Standard Time),412848.5,A,fl,O,l,271,1,1799.1000000238419,411049.39999997616,7255,WL,A,8.0
3,23.625999927520752,learn,36374.00007247925,Tue Dec 16 2025 17:32:13 GMT-0600 (Central Standard Time),413081.39999997616,A,flo,O,o,216,1,2032.0,411049.39999997616,7255,WL,A,8.0
3,23.82799983024597,learn,36172.00016975403,Tue Dec 16 2025 17:32:13 GMT-0600 (Central Standard Time),413283.39999997616,A,flow,O,w,183,1,2234.0,411049.39999997616,7255,WL,A,8.0
3,24.008999824523926,learn,35991.000175476074,Tue Dec 16 2025 17:32:13 GMT-0600 (Central Standard Time),413464.7000000477,A,flowe,O,e,171,1,2415.3000000715256,411049.39999997616,7255,WL,A,8.0
3,24.22599983215332,learn,35774.00016784668,Tue Dec 16 2025 17:32:13 GMT-0600 (Central Standard Time),413681.39999997616,A,flower,O,r,198,1,2632.0,411049.39999997616,7255,WL,A,8.0
3,24.625999927520752,learn,35374.00007247925,Tue Dec 16 2025 17:32:13 GMT-0600 (Central Standard Time),414081.2999999523,A,flowerenter,O,enter,388,1,3031.899999976158,411049.39999997616,7255,WL,A,8.0
3,25.359999895095825,learn,34640.000104904175,Tue Dec 16 2025 17:32:13 GMT-0600 (Central Standard Time),414815.60000002384,A,b,O,b,726,1,734.0,414081.60000002384,7255,WL,A,9.0
3,25.625999927520752,learn,34374.00007247925,Tue Dec 16 2025 17:32:13 GMT-0600 (Central Standard Time),415081.2000000477,A,bo,O,o,249,1,999.6000000238419,414081.60000002384,7255,WL,A,9.0
3,25.79199981689453,learn,34208.00018310547,Tue Dec 16 2025 17:32:13 GMT-0600 (Central Standard Time),415247.7000000477,A,boo,O,o,147,1,1166.1000000238419,414081.60000002384,7255,WL,A,9.0
3,26.007999897003174,learn,33992.000102996826,Tue Dec 16 2025 17:32:13 GMT-0600 (Central Standard Time),415463.89999997616,A,book,O,k,201,1,1382.2999999523163,414081.60000002384,7255,WL,A,9.0
3,26.408999919891357,learn,33591.00008010864,Tue Dec 16 2025 17:32:13 GMT-0600 (Central Standard Time),415864.2000000477,A,bookenter,O,enter,383,1,1782.6000000238419,414081.60000002384,7255,WL,A,9.0
3,26.908999919891357,learn,33091.00008010864,Tue Dec 16 2025 17:32:13 GMT-0600 (Central Standard Time),416363.89999997616,A,t,O,t,488,1,499.5,415864.39999997616,7255,WL,A,10.0
3,27.074999809265137,learn,32925.00019073486,Tue Dec 16 2025 17:32:13 GMT-0600 (Central Standard Time),416530.2999999523,A,tr,O,r,153,1,665.8999999761581,415864.39999997616,7255,WL,A,10.0
3,27.54199981689453,learn,32458.00018310547,Tue Dec 16 2025 17:32:13 GMT-0600 (Central Standard Time),416997.0,A,tra,O,a,462,1,1132.6000000238419,415864.39999997616,7255,WL,A,10.0
3,27.85800004005432,learn,32141.99995994568,Tue Dec 16 2025 17:32:13 GMT-0600 (Central Standard Time),417313.60000002384,A,trai,O,i,305,1,1449.2000000476837,415864.39999997616,7255,WL,A,10.0
3,28.074999809265137,learn,31925.000190734863,Tue Dec 16 2025 17:32:13 GMT-0600 (Central Standard Time),417530.39999997616,A,train,O,n,197,1,1666.0,415864.39999997616,7255,WL,A,10.0
3,28.508999824523926,learn,31491.000175476074,Tue Dec 16 2025 17:32:13 GMT-0600 (Central Standard Time),417964.7000000477,A,trainenter,O,enter,420,1,2100.3000000715256,415864.39999997616,7255,WL,A,10.0
3,31.971999883651733,learn,28028.000116348267,Tue Dec 16 2025 17:32:13 GMT-0600 (Central Standard Time),421427.7999999523,A,t,O,t,3451,1,3462.899999976158,417964.89999997616,7255,WL,A,11.0
3,32.15599989891052,learn,27844.000101089478,Tue Dec 16 2025 17:32:13 GMT-0600 (Central Standard Time),421611.7000000477,A,tr,O,r,163,1,3646.8000000715256,417964.89999997616,7255,WL,A,11.0
3,32.639999866485596,learn,27360.000133514404,Tue Dec 16 2025 17:32:13 GMT-0600 (Central Standard Time),422095.89999997616,A,tra,O,a,476,1,4131.0,417964.89999997616,7255,WL,A,11.0
3,32.94099998474121,learn,27059.00001525879,Tue Dec 16 2025 17:32:13 GMT-0600 (Central Standard Time),422397.10000002384,A,trai,O,i,288,1,4432.200000047684,417964.89999997616,7255,WL,A,11.0
3,33.156999826431274,learn,26843.000173568726,Tue Dec 16 2025 17:32:13 GMT-0600 (Central Standard Time),422612.39999997616,A,train,O,n,194,1,4647.5,417964.89999997616,7255,WL,A,11.0
3,33.638999938964844,learn,26361.000061035156,Tue Dec 16 2025 17:32:13 GMT-0600 (Central Standard Time),423094.2999999523,A,trainenter,O,enter,477,1,5129.399999976158,417964.89999997616,7255,WL,A,11.0
3,36.37399983406067,learn,23626.00016593933,Tue Dec 16 2025 17:32:13 GMT-0600 (Central Standard Time),425829.89999997616,A,r,O,r,2722,1,2735.2999999523163,423094.60000002384,7255,WL,A,12.0
3,36.73799991607666,learn,23262.00008392334,Tue Dec 16 2025 17:32:13 GMT-0600 (Central Standard Time),426193.2999999523,A,ru,O,u,345,1,3098.6999999284744,423094.60000002384,7255,WL,A,12.0
3,36.97199988365173,learn,23028.000116348267,Tue Dec 16 2025 17:32:13 GMT-0600 (Central Standard Time),426427.39999997616,A,rug,O,g,223,1,3332.7999999523163,423094.60000002384,7255,WL,A,12.0
3,37.32299995422363,learn,22677.000045776367,Tue Dec 16 2025 17:32:13 GMT-0600 (Central Standard Time),426778.5,A,rugenter,O,enter,340,1,3683.899999976158,423094.60000002384,7255,WL,A,12.0
3,38.753000020980835,learn,21246.999979019165,Tue Dec 16 2025 17:32:13 GMT-0600 (Central Standard Time),428208.7999999523,A,g,O,g,1421,1,1430.0,426778.7999999523,7255,WL,A,13.0
3,38.98699998855591,learn,21013.00001144409,Tue Dec 16 2025 17:32:13 GMT-0600 (Central Standard Time),428442.7999999523,A,go,O,o,216,1,1664.0,426778.7999999523,7255,WL,A,13.0
3,39.22199988365173,learn,20778.000116348267,Tue Dec 16 2025 17:32:13 GMT-0600 (Central Standard Time),428677.5,A,gol,O,l,222,1,1898.7000000476837,426778.7999999523,7255,WL,A,13.0
3,39.38699984550476,learn,20613.00015449524,Tue Dec 16 2025 17:32:13 GMT-0600 (Central Standard Time),428842.89999997616,A,gold,O,d,154,1,2064.100000023842,426778.7999999523,7255,WL,A,13.0
3,39.75399994850159,learn,20246.000051498413,Tue Dec 16 2025 17:32:13 GMT-0600 (Central Standard Time),429209.5,A,goldenter,O,enter,347,1,2430.7000000476837,426778.7999999523,7255,WL,A,13.0
3,49.51799988746643,learn,10482.00011253357,Tue Dec 16 2025 17:32:13 GMT-0600 (Central Standard Time),438973.10000002384,A,b,O,b,9750,1,9763.300000071526,429209.7999999523,7255,WL,A,14.0
3,49.88699984550476,learn,10113.00015449524,Tue Dec 16 2025 17:32:13 GMT-0600 (Central Standard Time),439342.7000000477,A,bu,O,u,356,1,10132.900000095367,429209.7999999523,7255,WL,A,14.0
3,50.217000007629395,learn,9782.999992370605,Tue Dec 16 2025 17:32:13 GMT-0600 (Central Standard Time),439672.7999999523,A,but,O,t,320,1,10463.0,429209.7999999523,7255,WL,A,14.0
3,50.382999897003174,learn,9617.000102996826,Tue Dec 16 2025 17:32:13 GMT-0600 (Central Standard Time),439839.0,A,butt,O,t,151,1,10629.200000047684,429209.7999999523,7255,WL,A,14.0
3,50.51799988746643,learn,9482.00011253357,Tue Dec 16 2025 17:32:13 GMT-0600 (Central Standard Time),439973.39999997616,A,butto,O,o,129,1,10763.600000023842,429209.7999999523,7255,WL,A,14.0
3,50.83399987220764,learn,9166.000127792358,Tue Dec 16 2025 17:32:13 GMT-0600 (Central Standard Time),440289.7999999523,A,button,O,n,298,1,11080.0,429209.7999999523,7255,WL,A,14.0
3,51.21599984169006,learn,8784.000158309937,Tue Dec 16 2025 17:32:13 GMT-0600 (Central Standard Time),440671.89999997616,A,buttonenter,O,enter,367,1,11462.100000023842,429209.7999999523,7255,WL,A,14.0
3,60.01600003242493,learn,-16.000032424926758,Tue Dec 16 2025 17:32:13 GMT-0600 (Central Standard Time),449471.7999999523,A,None,O,None,8794,1,8799.699999928474,440672.10000002384,7255,WL,A,15.0
4,0.9800000190734863,learn,59019.999980926514,Tue Dec 16 2025 17:32:13 GMT-0600 (Central Standard Time),517114.89999997616,A,g,O,g,969,1,979.7999999523163,516135.10000002384,7255,WL,A,1.0
4,1.2300000190734863,learn,58769.999980926514,Tue Dec 16 2025 17:32:13 GMT-0600 (Central Standard Time),517365.2999999523,A,go,O,o,241,1,1230.1999999284744,516135.10000002384,7255,WL,A,1.0
4,1.4630000591278076,learn,58536.99994087219,Tue Dec 16 2025 17:32:13 GMT-0600 (Central Standard Time),517597.89999997616,A,gol,O,l,216,1,1462.7999999523163,516135.10000002384,7255,WL,A,1.0
4,1.6630001068115234,learn,58336.99989318848,Tue Dec 16 2025 17:32:13 GMT-0600 (Central Standard Time),517798.2999999523,A,gold,O,d,183,1,1663.1999999284744,516135.10000002384,7255,WL,A,1.0
4,2.0299999713897705,learn,57970.00002861023,Tue Dec 16 2025 17:32:13 GMT-0600 (Central Standard Time),518165.10000002384,A,goldenter,O,enter,340,1,2030.0,516135.10000002384,7255,WL,A,1.0
4,2.5980000495910645,learn,57401.999950408936,Tue Dec 16 2025 17:32:13 GMT-0600 (Central Standard Time),518732.39999997616,A,r,O,r,555,1,567.1000000238419,518165.2999999523,7255,WL,A,2.0
4,3.062999963760376,learn,56937.000036239624,Tue Dec 16 2025 17:32:13 GMT-0600 (Central Standard Time),519197.39999997616,A,ra,O,a,449,1,1032.1000000238419,518165.2999999523,7255,WL,A,2.0
4,3.4620001316070557,learn,56537.999868392944,Tue Dec 16 2025 17:32:13 GMT-0600 (Central Standard Time),519597.39999997616,A,rat,O,t,385,1,1432.1000000238419,518165.2999999523,7255,WL,A,2.0
4,3.63100004196167,learn,56368.99995803833,Tue Dec 16 2025 17:32:13 GMT-0600 (Central Standard Time),519765.39999997616,A,ratt,O,t,160,1,1600.1000000238419,518165.2999999523,7255,WL,A,2.0
4,3.7799999713897705,learn,56220.00002861023,Tue Dec 16 2025 17:32:13 GMT-0600 (Central Standard Time),519914.39999997616,A,rattl,O,l,137,1,1749.1000000238419,518165.2999999523,7255,WL,A,2.0
4,4.031000137329102,learn,55968.9998626709,Tue Dec 16 2025 17:32:13 GMT-0600 (Central Standard Time),520165.89999997616,A,rattle,O,e,236,1,2000.6000000238419,518165.2999999523,7255,WL,A,2.0
4,4.463000059127808,learn,55536.99994087219,Tue Dec 16 2025 17:32:13 GMT-0600 (Central Standard Time),520597.39999997616,A,rattleenter,O,enter,426,1,2432.100000023842,518165.2999999523,7255,WL,A,2.0
4,9.74399995803833,learn,50256.00004196167,Tue Dec 16 2025 17:32:13 GMT-0600 (Central Standard Time),525879.1000000238,A,h,O,h,5274,1,5281.5,520597.60000002384,7255,WL,A,3.0
4,9.91100001335144,learn,50088.99998664856,Tue Dec 16 2025 17:32:13 GMT-0600 (Central Standard Time),526045.8999999762,A,ha,O,a,160,1,5448.299999952316,520597.60000002384,7255,WL,A,3.0
4,10.295000076293945,learn,49704.999923706055,Tue Dec 16 2025 17:32:13 GMT-0600 (Central Standard Time),526430.0,A,har,O,r,360,1,5832.399999976158,520597.60000002384,7255,WL,A,3.0
4,10.627000093460083,learn,49372.99990653992,Tue Dec 16 2025 17:32:13 GMT-0600 (Central Standard Time),526762.3999999762,A,harp,O,p,313,1,6164.799999952316,520597.60000002384,7255,WL,A,3.0
4,11.226999998092651,learn,48773.00000190735,Tue Dec 16 2025 17:32:13 GMT-0600 (Central Standard Time),527361.3999999762,A,harpenter,O,enter,583,1,6763.799999952316,520597.60000002384,7255,WL,A,3.0
4,11.911999940872192,learn,48088.00005912781,Tue Dec 16 2025 17:32:13 GMT-0600 (Central Standard Time),528046.8999999762,A,f,O,f,670,1,685.1999999284744,527361.7000000477,7255,WL,A,4.0
4,12.210000038146973,learn,47789.99996185303,Tue Dec 16 2025 17:32:13 GMT-0600 (Central Standard Time),528345.2000000477,A,fi,O,i,291,1,983.5,527361.7000000477,7255,WL,A,4.0
4,12.444999933242798,learn,47555.0000667572,Tue Dec 16 2025 17:32:13 GMT-0600 (Central Standard Time),528579.7000000477,A,fin,O,n,221,1,1218.0,527361.7000000477,7255,WL,A,4.0
4,12.677000045776367,learn,47322.99995422363,Tue Dec 16 2025 17:32:13 GMT-0600 (Central Standard Time),528811.7000000477,A,fing,O,g,211,1,1450.0,527361.7000000477,7255,WL,A,4.0
4,12.926000118255615,learn,47073.999881744385,Tue Dec 16 2025 17:32:13 GMT-0600 (Central Standard Time),529061.3999999762,A,finge,O,e,234,1,1699.6999999284744,527361.7000000477,7255,WL,A,4.0
4,13.127000093460083,learn,46872.99990653992,Tue Dec 16 2025 17:32:13 GMT-0600 (Central Standard Time),529261.5,A,finger,O,r,184,1,1899.7999999523163,527361.7000000477,7255,WL,A,4.0
4,13.526999950408936,learn,46473.000049591064,Tue Dec 16 2025 17:32:13 GMT-0600 (Central Standard Time),529661.5,A,fingerenter,O,enter,388,1,2299.7999999523163,527361.7000000477,7255,WL,A,4.0
4,14.259000062942505,learn,45740.999937057495,Tue Dec 16 2025 17:32:13 GMT-0600 (Central Standard Time),530394.1000000238,A,h,O,h,722,1,732.2000000476837,529661.8999999762,7255,WL,A,5.0
4,14.493000030517578,learn,45506.99996948242,Tue Dec 16 2025 17:32:13 GMT-0600 (Central Standard Time),530627.7999999523,A,ha,O,a,214,1,965.8999999761581,529661.8999999762,7255,WL,A,5.0
4,14.776000022888184,learn,45223.99997711182,Tue Dec 16 2025 17:32:13 GMT-0600 (Central Standard Time),530911.3999999762,A,har,O,r,277,1,1249.5,529661.8999999762,7255,WL,A,5.0
4,15.193000078201294,learn,44806.999921798706,Tue Dec 16 2025 17:32:13 GMT-0600 (Central Standard Time),531328.0,A,harp,O,p,399,1,1666.1000000238419,529661.8999999762,7255,WL,A,5.0
4,15.809000015258789,learn,44190.99998474121,Tue Dec 16 2025 17:32:13 GMT-0600 (Central Standard Time),531943.7000000477,A,harpenter,O,enter,600,1,2281.8000000715256,529661.8999999762,7255,WL,A,5.0
4,17.95900011062622,learn,42040.99988937378,Tue Dec 16 2025 17:32:13 GMT-0600 (Central Standard Time),534093.8999999762,A,n,O,n,2135,1,2149.899999976158,531944.0,7255,WL,A,6.0
4,18.193000078201294,learn,41806.999921798706,Tue Dec 16 2025 17:32:13 GMT-0600 (Central Standard Time),534327.6000000238,A,ne,O,e,226,1,2383.600000023842,531944.0,7255,WL,A,6.0
4,18.4760000705719,learn,41523.9999294281,Tue Dec 16 2025 17:32:13 GMT-0600 (Central Standard Time),534611.0,A,nea,O,a,264,1,2667.0,531944.0,7255,WL,A,6.0
4,18.72499990463257,learn,41275.00009536743,Tue Dec 16 2025 17:32:13 GMT-0600 (Central Standard Time),534859.7000000477,A,nead,O,d,235,1,2915.7000000476837,531944.0,7255,WL,A,6.0
4,19.19099998474121,learn,40809.00001525879,Tue Dec 16 2025 17:32:13 GMT-0600 (Central Standard Time),535325.7999999523,A,neado,O,o,451,1,3381.7999999523163,531944.0,7255,WL,A,6.0
4,19.490999937057495,learn,40509.000062942505,Tue Dec 16 2025 17:32:13 GMT-0600 (Central Standard Time),535626.2999999523,A,neadow,O,w,282,1,3682.2999999523163,531944.0,7255,WL,A,6.0
4,19.874000072479248,learn,40125.99992752075,Tue Dec 16 2025 17:32:13 GMT-0600 (Central Standard Time),536009.0,A,neadowenter,O,enter,374,1,4065.0,531944.0,7255,WL,A,6.0
4,21.60800004005432,learn,38391.99995994568,Tue Dec 16 2025 17:32:13 GMT-0600 (Central Standard Time),537742.7000000477,A,b,O,b,1728,1,1733.4000000953674,536009.2999999523,7255,WL,A,7.0
4,22.00600004196167,learn,37993.99995803833,Tue Dec 16 2025 17:32:13 GMT-0600 (Central Standard Time),538141.7000000477,A,bu,O,u,391,1,2132.4000000953674,536009.2999999523,7255,WL,A,7.0
4,22.289999961853027,learn,37710.00003814697,Tue Dec 16 2025 17:32:13 GMT-0600 (Central Standard Time),538424.8999999762,A,but,O,t,273,1,2415.600000023842,536009.2999999523,7255,WL,A,7.0
4,22.457000017166138,learn,37542.99998283386,Tue Dec 16 2025 17:32:13 GMT-0600 (Central Standard Time),538592.2999999523,A,butt,O,t,163,1,2583.0,536009.2999999523,7255,WL,A,7.0
4,22.756999969482422,learn,37243.00003051758,Tue Dec 16 2025 17:32:13 GMT-0600 (Central Standard Time),538892.7000000477,A,butto,O,o,279,1,2883.4000000953674,536009.2999999523,7255,WL,A,7.0
4,23.055999994277954,learn,36944.000005722046,Tue Dec 16 2025 17:32:13 GMT-0600 (Central Standard Time),539191.7000000477,A,button,O,n,291,1,3182.4000000953674,536009.2999999523,7255,WL,A,7.0
4,23.556999921798706,learn,36443.000078201294,Tue Dec 16 2025 17:32:13 GMT-0600 (Central Standard Time),539691.7000000477,A,buttonenter,O,enter,480,1,3682.4000000953674,536009.2999999523,7255,WL,A,7.0
4,25.539000034332275,learn,34460.999965667725,Tue Dec 16 2025 17:32:13 GMT-0600 (Central Standard Time),541673.7999999523,A,b,O,b,1963,1,1981.7999999523163,539692.0,7255,WL,A,8.0
4,25.855000019073486,learn,34144.999980926514,Tue Dec 16 2025 17:32:13 GMT-0600 (Central Standard Time),541990.5,A,bo,O,o,301,1,2298.5,539692.0,7255,WL,A,8.0
4,26.005000114440918,learn,33994.99988555908,Tue Dec 16 2025 17:32:13 GMT-0600 (Central Standard Time),542140.2999999523,A,boo,O,o,136,1,2448.2999999523163,539692.0,7255,WL,A,8.0
4,26.222000122070312,learn,33777.99987792969,Tue Dec 16 2025 17:32:13 GMT-0600 (Central Standard Time),542356.7000000477,A,book,O,k,194,1,2664.7000000476837,539692.0,7255,WL,A,8.0
4,26.67300009727478,learn,33326.99990272522,Tue Dec 16 2025 17:32:13 GMT-0600 (Central Standard Time),542808.0,A,bookenter,O,enter,436,1,3116.0,539692.0,7255,WL,A,8.0
4,27.355000019073486,learn,32644.999980926514,Tue Dec 16 2025 17:32:13 GMT-0600 (Central Standard Time),543490.3999999762,A,t,O,t,663,1,682.1000000238419,542808.2999999523,7255,WL,A,9.0
4,27.536999940872192,learn,32463.000059127808,Tue Dec 16 2025 17:32:13 GMT-0600 (Central Standard Time),543672.2000000477,A,tr,O,r,163,1,863.9000000953674,542808.2999999523,7255,WL,A,9.0
4,27.986999988555908,learn,32013.00001144409,Tue Dec 16 2025 17:32:13 GMT-0600 (Central Standard Time),544122.2999999523,A,tra,O,a,440,1,1314.0,542808.2999999523,7255,WL,A,9.0
4,28.288000106811523,learn,31711.999893188477,Tue Dec 16 2025 17:32:13 GMT-0600 (Central Standard Time),544423.7000000477,A,trai,O,i,287,1,1615.4000000953674,542808.2999999523,7255,WL,A,9.0
4,28.520999908447266,learn,31479.000091552734,Tue Dec 16 2025 17:32:13 GMT-0600 (Central Standard Time),544656.5,A,train,O,n,216,1,1848.2000000476837,542808.2999999523,7255,WL,A,9.0
4,28.9060001373291,learn,31093.9998626709,Tue Dec 16 2025 17:32:13 GMT-0600 (Central Standard Time),545040.7000000477,A,trainenter,O,enter,376,1,2232.4000000953674,542808.2999999523,7255,WL,A,9.0
4,30.003999948501587,learn,29996.000051498413,Tue Dec 16 2025 17:32:13 GMT-0600 (Central Standard Time),546139.3999999762,A,f,O,f,1078,1,1098.3999999761581,545041.0,7255,WL,A,10.0
4,30.338000059127808,learn,29661.999940872192,Tue Dec 16 2025 17:32:13 GMT-0600 (Central Standard Time),546473.6000000238,A,fl,O,l,316,1,1432.6000000238419,545041.0,7255,WL,A,10.0
4,30.604000091552734,learn,29395.999908447266,Tue Dec 16 2025 17:32:13 GMT-0600 (Central Standard Time),546739.0,A,flo,O,o,252,1,1698.0,545041.0,7255,WL,A,10.0
4,30.80400013923645,learn,29195.99986076355,Tue Dec 16 2025 17:32:13 GMT-0600 (Central Standard Time),546939.1000000238,A,flow,O,w,188,1,1898.1000000238419,545041.0,7255,WL,A,10.0
4,31.036999940872192,learn,28963.000059127808,Tue Dec 16 2025 17:32:13 GMT-0600 (Central Standard Time),547171.8999999762,A,flowe,O,e,210,1,2130.899999976158,545041.0,7255,WL,A,10.0
4,31.253999948501587,learn,28746.000051498413,Tue Dec 16 2025 17:32:13 GMT-0600 (Central Standard Time),547389.1000000238,A,flower,O,r,210,1,2348.100000023842,545041.0,7255,WL,A,10.0
4,31.753999948501587,learn,28246.000051498413,Tue Dec 16 2025 17:32:13 GMT-0600 (Central Standard Time),547888.7999999523,A,flowerenter,O,enter,482,1,2847.7999999523163,545041.0,7255,WL,A,10.0
4,37.569000005722046,learn,22430.999994277954,Tue Dec 16 2025 17:32:13 GMT-0600 (Central Standard Time),553704.0,A,c,O,c,5793,1,5814.899999976158,547889.1000000238,7255,WL,A,11.0
4,37.88599991798401,learn,22114.00008201599,Tue Dec 16 2025 17:32:13 GMT-0600 (Central Standard Time),554021.2999999523,A,ch,O,h,295,1,6132.199999928474,547889.1000000238,7255,WL,A,11.0
4,38.20300006866455,learn,21796.99993133545,Tue Dec 16 2025 17:32:13 GMT-0600 (Central Standard Time),554337.8999999762,A,cho,O,o,306,1,6448.799999952316,547889.1000000238,7255,WL,A,11.0
4,38.217000007629395,learn,21782.999992370605,Tue Dec 16 2025 17:32:13 GMT-0600 (Central Standard Time),554352.2999999523,A,choi,O,i,1,1,6463.199999928474,547889.1000000238,7255,WL,A,11.0
4,39.93400001525879,learn,20065.99998474121,Tue Dec 16 2025 17:32:13 GMT-0600 (Central Standard Time),556069.6000000238,A,cho,O,backspace,1705,1,8180.5,547889.1000000238,7255,WL,A,11.0
4,40.13499999046326,learn,19865.000009536743,Tue Dec 16 2025 17:32:13 GMT-0600 (Central Standard Time),556270.7000000477,A,ch,O,backspace,185,1,8381.600000023842,547889.1000000238,7255,WL,A,11.0
4,40.967000007629395,learn,19032.999992370605,Tue Dec 16 2025 17:32:13 GMT-0600 (Central Standard Time),557102.3999999762,A,chi,O,i,815,1,9213.299999952316,547889.1000000238,7255,WL,A,11.0
4,41.23399996757507,learn,18766.000032424927,Tue Dec 16 2025 17:32:13 GMT-0600 (Central Standard Time),557369.2000000477,A,chin,O,n,251,1,9480.100000023842,547889.1000000238,7255,WL,A,11.0
4,41.75099992752075,learn,18249.000072479248,Tue Dec 16 2025 17:32:13 GMT-0600 (Central Standard Time),557886.1000000238,A,chinm,O,m,504,1,9997.0,547889.1000000238,7255,WL,A,11.0
4,42.41600012779236,learn,17583.99987220764,Tue Dec 16 2025 17:32:13 GMT-0600 (Central Standard Time),558551.5,A,chin,O,backspace,657,1,10662.399999976158,547889.1000000238,7255,WL,A,11.0
4,43.59999990463257,learn,16400.00009536743,Tue Dec 16 2025 17:32:13 GMT-0600 (Central Standard Time),559735.0,A,chi,O,backspace,1178,1,11845.899999976158,547889.1000000238,7255,WL,A,11.0
4,44.199000120162964,learn,15800.999879837036,Tue Dec 16 2025 17:32:13 GMT-0600 (Central Standard Time),560334.7000000477,A,chim,O,m,584,1,12445.600000023842,547889.1000000238,7255,WL,A,11.0
4,44.41700005531311,learn,15582.99994468689,Tue Dec 16 2025 17:32:13 GMT-0600 (Central Standard Time),560552.2000000477,A,chimn,O,n,214,1,12663.100000023842,547889.1000000238,7255,WL,A,11.0
4,44.73300004005432,learn,15266.999959945679,Tue Dec 16 2025 17:32:13 GMT-0600 (Central Standard Time),560868.2999999523,A,chimne,O,e,295,1,12979.199999928474,547889.1000000238,7255,WL,A,11.0
4,44.99900007247925,learn,15000.999927520752,Tue Dec 16 2025 17:32:13 GMT-0600 (Central Standard Time),561134.3999999762,A,chimney,O,y,258,1,13245.299999952316,547889.1000000238,7255,WL,A,11.0
4,45.681999921798706,learn,14318.000078201294,Tue Dec 16 2025 17:32:13 GMT-0600 (Central Standard Time),561817.0,A,chimneyenter,O,enter,674,1,13927.899999976158,547889.1000000238,7255,WL,A,11.0
4,47.56500005722046,learn,12434.999942779541,Tue Dec 16 2025 17:32:13 GMT-0600 (Central Standard Time),563700.6000000238,A,l,O,l,1863,1,1883.3999999761581,561817.2000000477,7255,WL,A,12.0
4,47.78200006484985,learn,12217.999935150146,Tue Dec 16 2025 17:32:13 GMT-0600 (Central Standard Time),563917.2000000477,A,lo,O,o,211,1,2100.0,561817.2000000477,7255,WL,A,12.0
4,47.99900007247925,learn,12000.999927520752,Tue Dec 16 2025 17:32:13 GMT-0600 (Central Standard Time),564134.7000000477,A,log,O,g,203,1,2317.5,561817.2000000477,7255,WL,A,12.0
4,48.21499991416931,learn,11785.000085830688,Tue Dec 16 2025 17:32:13 GMT-0600 (Central Standard Time),564350.3999999762,A,logenter,O,enter,199,1,2533.1999999284744,561817.2000000477,7255,WL,A,12.0
4,55.26200008392334,learn,4737.99991607666,Tue Dec 16 2025 17:32:13 GMT-0600 (Central Standard Time),571397.5,A,g,O,g,7034,1,7046.799999952316,564350.7000000477,7255,WL,A,13.0
4,55.49500012397766,learn,4504.999876022339,Tue Dec 16 2025 17:32:13 GMT-0600 (Central Standard Time),571630.2999999523,A,go,O,o,219,1,7279.599999904633,564350.7000000477,7255,WL,A,13.0
4,56.69600009918213,learn,3303.999900817871,Tue Dec 16 2025 17:32:13 GMT-0600 (Central Standard Time),572831.1000000238,A,g,O,backspace,1185,1,8480.399999976158,564350.7000000477,7255,WL,A,13.0
4,56.895999908447266,learn,3104.0000915527344,Tue Dec 16 2025 17:32:13 GMT-0600 (Central Standard Time),573031.6000000238,A,,O,backspace,184,1,8680.899999976158,564350.7000000477,7255,WL,A,13.0
4,60.01300001144409,learn,-13.000011444091797,Tue Dec 16 2025 17:32:13 GMT-0600 (Central Standard Time),576147.8999999762,A,None,O,None,3111,1,11797.199999928474,564350.7000000477,7255,WL,A,13.0
5,0.75,learn,60000.0,Tue Dec 16 2025 17:32:13 GMT-0600 (Central Standard Time),641192.2999999523,A,c,O,c,739,1,749.3999999761581,640442.8999999762,7255,WL,A,1.0
5,1.065999984741211,learn,60000.0,Tue Dec 16 2025 17:32:13 GMT-0600 (Central Standard Time),641508.7999999523,A,ch,O,h,304,1,1065.8999999761581,640442.8999999762,7255,WL,A,1.0
5,1.3500001430511475,learn,60000.0,Tue Dec 16 2025 17:32:13 GMT-0600 (Central Standard Time),641792.3999999762,A,chi,O,i,264,1,1349.5,640442.8999999762,7255,WL,A,1.0
5,1.8380000591278076,learn,60000.0,Tue Dec 16 2025 17:32:13 GMT-0600 (Central Standard Time),642280.3999999762,A,chim,O,m,464,1,1837.5,640442.8999999762,7255,WL,A,1.0
5,2.067000150680542,learn,60000.0,Tue Dec 16 2025 17:32:13 GMT-0600 (Central Standard Time),642509.5,A,chimn,O,n,209,1,2066.600000023842,640442.8999999762,7255,WL,A,1.0
5,2.3500001430511475,learn,60000.0,Tue Dec 16 2025 17:32:13 GMT-0600 (Central Standard Time),642792.3999999762,A,chimne,O,e,265,1,2349.5,640442.8999999762,7255,WL,A,1.0
5,2.633000135421753,learn,60000.0,Tue Dec 16 2025 17:32:13 GMT-0600 (Central Standard Time),643075.3999999762,A,chimney,O,y,270,1,2632.5,640442.8999999762,7255,WL,A,1.0
5,3.6480000019073486,learn,60000.0,Tue Dec 16 2025 17:32:13 GMT-0600 (Central Standard Time),644090.6000000238,A,chimneyenter,O,enter,996,1,3647.7000000476837,640442.8999999762,7255,WL,A,1.0
5,6.016000032424927,learn,60000.0,Tue Dec 16 2025 17:32:13 GMT-0600 (Central Standard Time),646458.1000000238,A,m,O,m,2350,1,2367.3000000715256,644090.7999999523,7255,WL,A,2.0
5,6.297000169754028,learn,60000.0,Tue Dec 16 2025 17:32:13 GMT-0600 (Central Standard Time),646740.0,A,me,O,e,269,1,2649.2000000476837,644090.7999999523,7255,WL,A,2.0
5,6.965000152587891,learn,60000.0,Tue Dec 16 2025 17:32:13 GMT-0600 (Central Standard Time),647407.1000000238,A,mea,O,a,650,1,3316.3000000715256,644090.7999999523,7255,WL,A,2.0
5,7.248000144958496,learn,60000.0,Tue Dec 16 2025 17:32:13 GMT-0600 (Central Standard Time),647690.0,A,mead,O,d,262,1,3599.2000000476837,644090.7999999523,7255,WL,A,2.0
5,7.664000034332275,learn,60000.0,Tue Dec 16 2025 17:32:13 GMT-0600 (Central Standard Time),648106.7000000477,A,meado,O,o,396,1,4015.9000000953674,644090.7999999523,7255,WL,A,2.0
5,7.89900016784668,learn,60000.0,Tue Dec 16 2025 17:32:13 GMT-0600 (Central Standard Time),648341.3999999762,A,meadow,O,w,212,1,4250.600000023842,644090.7999999523,7255,WL,A,2.0
5,8.332000017166138,learn,60000.0,Tue Dec 16 2025 17:32:13 GMT-0600 (Central Standard Time),648774.2000000477,A,meadowenter,O,enter,426,1,4683.400000095367,644090.7999999523,7255,WL,A,2.0
5,8.96500015258789,learn,60000.0,Tue Dec 16 2025 17:32:13 GMT-0600 (Central Standard Time),649407.1000000238,A,s,O,s,627,1,632.7000000476837,648774.3999999762,7255,WL,A,3.0
5,9.180000066757202,learn,60000.0,Tue Dec 16 2025 17:32:13 GMT-0600 (Central Standard Time),649622.8999999762,A,sa,O,a,200,1,848.5,648774.3999999762,7255,WL,A,3.0
5,9.547000169754028,learn,60000.0,Tue Dec 16 2025 17:32:13 GMT-0600 (Central Standard Time),649989.7999999523,A,sal,O,l,353,1,1215.3999999761581,648774.3999999762,7255,WL,A,3.0
5,9.88100004196167,learn,60000.0,Tue Dec 16 2025 17:32:13 GMT-0600 (Central Standard Time),650323.2000000477,A,salt,O,t,320,1,1548.8000000715256,648774.3999999762,7255,WL,A,3.0
5,10.28000020980835,learn,60000.0,Tue Dec 16 2025 17:32:13 GMT-0600 (Central Standard Time),650722.6000000238,A,saltenter,O,enter,380,1,1948.2000000476837,648774.3999999762,7255,WL,A,3.0
5,11.063000202178955,learn,60000.0,Tue Dec 16 2025 17:32:13 GMT-0600 (Central Standard Time),651505.2999999523,A,a,O,a,774,1,782.3999999761581,650722.8999999762,7255,WL,A,4.0
5,11.913000106811523,learn,60000.0,Tue Dec 16 2025 17:32:13 GMT-0600 (Central Standard Time),652355.5,A,ap,O,p,831,1,1632.6000000238419,650722.8999999762,7255,WL,A,4.0
5,12.097000122070312,learn,60000.0,Tue Dec 16 2025 17:32:13 GMT-0600 (Central Standard Time),652539.1000000238,A,app,O,p,163,1,1816.2000000476837,650722.8999999762,7255,WL,A,4.0
5,12.29800009727478,learn,60000.0,Tue Dec 16 2025 17:32:13 GMT-0600 (Central Standard Time),652740.3999999762,A,appl,O,l,180,1,2017.5,650722.8999999762,7255,WL,A,4.0
5,12.53000020980835,learn,60000.0,Tue Dec 16 2025 17:32:13 GMT-0600 (Central Standard Time),652972.2000000477,A,apple,O,e,218,1,2249.3000000715256,650722.8999999762,7255,WL,A,4.0
5,12.962000131607056,learn,60000.0,Tue Dec 16 2025 17:32:13 GMT-0600 (Central Standard Time),653404.7999999523,A,appleenter,O,enter,419,1,2681.899999976158,650722.8999999762,7255,WL,A,4.0
5,14.745000123977661,learn,60000.0,Tue Dec 16 2025 17:32:13 GMT-0600 (Central Standard Time),655187.6000000238,A,f,O,f,1770,1,1782.6000000238419,653405.0,7255,WL,A,5.0
5,15.013000011444092,learn,60000.0,Tue Dec 16 2025 17:32:13 GMT-0600 (Central Standard Time),655455.3999999762,A,fl,O,l,250,1,2050.399999976158,653405.0,7255,WL,A,5.0
5,15.228000164031982,learn,60000.0,Tue Dec 16 2025 17:32:13 GMT-0600 (Central Standard Time),655670.5,A,flo,O,o,197,1,2265.5,653405.0,7255,WL,A,5.0
5,15.479000091552734,learn,60000.0,Tue Dec 16 2025 17:32:13 GMT-0600 (Central Standard Time),655921.5,A,flow,O,w,232,1,2516.5,653405.0,7255,WL,A,5.0
5,15.67900013923645,learn,60000.0,Tue Dec 16 2025 17:32:13 GMT-0600 (Central Standard Time),656121.2999999523,A,flowe,O,e,188,1,2716.2999999523163,653405.0,7255,WL,A,5.0
5,15.896000146865845,learn,60000.0,Tue Dec 16 2025 17:32:13 GMT-0600 (Central Standard Time),656338.5,A,flower,O,r,197,1,2933.5,653405.0,7255,WL,A,5.0
5,16.26200008392334,learn,60000.0,Tue Dec 16 2025 17:32:13 GMT-0600 (Central Standard Time),656704.0,A,flowerenter,O,enter,347,1,3299.0,653405.0,7255,WL,A,5.0
5,19.1780002117157,learn,60000.0,Tue Dec 16 2025 17:32:13 GMT-0600 (Central Standard Time),659621.1000000238,A,g,O,g,2903,1,2916.8000000715256,656704.2999999523,7255,WL,A,6.0
5,19.41100001335144,learn,60000.0,Tue Dec 16 2025 17:32:13 GMT-0600 (Central Standard Time),659853.2999999523,A,go,O,o,217,1,3149.0,656704.2999999523,7255,WL,A,6.0
5,19.610000133514404,learn,60000.0,Tue Dec 16 2025 17:32:13 GMT-0600 (Central Standard Time),660052.5,A,gol,O,l,192,1,3348.2000000476837,656704.2999999523,7255,WL,A,6.0
5,19.794000148773193,learn,60000.0,Tue Dec 16 2025 17:32:13 GMT-0600 (Central Standard Time),660236.3999999762,A,gold,O,d,173,1,3532.100000023842,656704.2999999523,7255,WL,A,6.0
5,20.110000133514404,learn,60000.0,Tue Dec 16 2025 17:32:13 GMT-0600 (Central Standard Time),660552.5,A,goldenter,O,enter,305,1,3848.2000000476837,656704.2999999523,7255,WL,A,6.0
5,20.8270001411438,learn,60000.0,Tue Dec 16 2025 17:32:13 GMT-0600 (Central Standard Time),661269.2999999523,A,b,O,b,711,1,716.5,660552.7999999523,7255,WL,A,7.0
5,21.093000173568726,learn,60000.0,Tue Dec 16 2025 17:32:13 GMT-0600 (Central Standard Time),661535.6000000238,A,bo,O,o,260,1,982.8000000715256,660552.7999999523,7255,WL,A,7.0
5,21.259999990463257,learn,60000.0,Tue Dec 16 2025 17:32:13 GMT-0600 (Central Standard Time),661702.3999999762,A,boo,O,o,160,1,1149.6000000238419,660552.7999999523,7255,WL,A,7.0
5,21.461000204086304,learn,60000.0,Tue Dec 16 2025 17:32:13 GMT-0600 (Central Standard Time),661903.7000000477,A,book,O,k,183,1,1350.9000000953674,660552.7999999523,7255,WL,A,7.0
5,21.8270001411438,learn,60000.0,Tue Dec 16 2025 17:32:13 GMT-0600 (Central Standard Time),662270.2999999523,A,bookenter,O,enter,359,1,1717.5,660552.7999999523,7255,WL,A,7.0
5,22.62600016593933,learn,60000.0,Tue Dec 16 2025 17:32:13 GMT-0600 (Central Standard Time),663068.7999999523,A,t,O,t,786,1,798.2999999523163,662270.5,7255,WL,A,8.0
5,22.80900001525879,learn,60000.0,Tue Dec 16 2025 17:32:13 GMT-0600 (Central Standard Time),663252.0,A,tr,O,r,169,1,981.5,662270.5,7255,WL,A,8.0
5,23.27500009536743,learn,60000.0,Tue Dec 16 2025 17:32:13 GMT-0600 (Central Standard Time),663717.6000000238,A,tra,O,a,450,1,1447.1000000238419,662270.5,7255,WL,A,8.0
5,23.609000205993652,learn,60000.0,Tue Dec 16 2025 17:32:13 GMT-0600 (Central Standard Time),664051.2999999523,A,trai,O,i,322,1,1780.7999999523163,662270.5,7255,WL,A,8.0
5,23.925000190734863,learn,60000.0,Tue Dec 16 2025 17:32:13 GMT-0600 (Central Standard Time),664368.2000000477,A,train,O,n,301,1,2097.7000000476837,662270.5,7255,WL,A,8.0
5,24.342000007629395,learn,60000.0,Tue Dec 16 2025 17:32:13 GMT-0600 (Central Standard Time),664784.3999999762,A,trainenter,O,enter,404,1,2513.899999976158,662270.5,7255,WL,A,8.0
5,26.407999992370605,learn,60000.0,Tue Dec 16 2025 17:32:13 GMT-0600 (Central Standard Time),666850.6000000238,A,r,O,r,2047,1,2065.8000000715256,664784.7999999523,7255,WL,A,9.0
5,26.842000007629395,learn,60000.0,Tue Dec 16 2025 17:32:13 GMT-0600 (Central Standard Time),667284.3999999762,A,ru,O,u,412,1,2499.600000023842,664784.7999999523,7255,WL,A,9.0
5,27.04200005531311,learn,60000.0,Tue Dec 16 2025 17:32:13 GMT-0600 (Central Standard Time),667484.7999999523,A,rug,O,g,178,1,2700.0,664784.7999999523,7255,WL,A,9.0
5,27.425000190734863,learn,60000.0,Tue Dec 16 2025 17:32:13 GMT-0600 (Central Standard Time),667867.3999999762,A,rugenter,O,enter,369,1,3082.600000023842,664784.7999999523,7255,WL,A,9.0
5,28.359000205993652,learn,60000.0,Tue Dec 16 2025 17:32:13 GMT-0600 (Central Standard Time),668801.2999999523,A,h,O,h,925,1,933.5999999046326,667867.7000000477,7255,WL,A,10.0
5,28.66100001335144,learn,60000.0,Tue Dec 16 2025 17:32:13 GMT-0600 (Central Standard Time),669103.3999999762,A,ha,O,a,276,1,1235.6999999284744,667867.7000000477,7255,WL,A,10.0
5,28.924000024795532,learn,60000.0,Tue Dec 16 2025 17:32:13 GMT-0600 (Central Standard Time),669366.6000000238,A,har,O,r,258,1,1498.8999999761581,667867.7000000477,7255,WL,A,10.0
5,29.490000009536743,learn,60000.0,Tue Dec 16 2025 17:32:13 GMT-0600 (Central Standard Time),669933.2000000477,A,harp,O,p,552,1,2065.5,667867.7000000477,7255,WL,A,10.0
5,29.956000089645386,learn,60000.0,Tue Dec 16 2025 17:32:13 GMT-0600 (Central Standard Time),670398.7999999523,A,harpenter,O,enter,453,1,2531.0999999046326,667867.7000000477,7255,WL,A,10.0
5,31.54100012779236,learn,60000.0,Tue Dec 16 2025 17:32:13 GMT-0600 (Central Standard Time),671984.2000000477,A,b,O,b,1577,1,1585.2000000476837,670399.0,7255,WL,A,11.0
5,31.873000144958496,learn,60000.0,Tue Dec 16 2025 17:32:13 GMT-0600 (Central Standard Time),672315.7000000477,A,bu,O,u,309,1,1916.7000000476837,670399.0,7255,WL,A,11.0
5,32.10600018501282,learn,60000.0,Tue Dec 16 2025 17:32:13 GMT-0600 (Central Standard Time),672549.2000000477,A,but,O,t,213,1,2150.2000000476837,670399.0,7255,WL,A,11.0
5,32.24000000953674,learn,60000.0,Tue Dec 16 2025 17:32:13 GMT-0600 (Central Standard Time),672682.5,A,butt,O,t,123,1,2283.5,670399.0,7255,WL,A,11.0
5,32.55800008773804,learn,60000.0,Tue Dec 16 2025 17:32:13 GMT-0600 (Central Standard Time),673000.7000000477,A,butto,O,o,313,1,2601.7000000476837,670399.0,7255,WL,A,11.0
5,32.855000019073486,learn,60000.0,Tue Dec 16 2025 17:32:13 GMT-0600 (Central Standard Time),673298.1000000238,A,button,O,n,288,1,2899.100000023842,670399.0,7255,WL,A,11.0
5,33.27300000190735,learn,60000.0,Tue Dec 16 2025 17:32:13 GMT-0600 (Central Standard Time),673715.5,A,buttonenter,O,enter,397,1,3316.5,670399.0,7255,WL,A,11.0
5,33.9060001373291,learn,60000.0,Tue Dec 16 2025 17:32:13 GMT-0600 (Central Standard Time),674348.8999999762,A,a,O,a,630,1,633.1999999284744,673715.7000000477,7255,WL,A,12.0
5,34.35700011253357,learn,60000.0,Tue Dec 16 2025 17:32:13 GMT-0600 (Central Standard Time),674799.3999999762,A,ap,O,p,446,1,1083.6999999284744,673715.7000000477,7255,WL,A,12.0
5,34.5220000743866,learn,60000.0,Tue Dec 16 2025 17:32:13 GMT-0600 (Central Standard Time),674964.8999999762,A,app,O,p,161,1,1249.1999999284744,673715.7000000477,7255,WL,A,12.0
5,34.705000162124634,learn,60000.0,Tue Dec 16 2025 17:32:13 GMT-0600 (Central Standard Time),675148.1000000238,A,appl,O,l,171,1,1432.3999999761581,673715.7000000477,7255,WL,A,12.0
5,34.93900012969971,learn,60000.0,Tue Dec 16 2025 17:32:13 GMT-0600 (Central Standard Time),675381.6000000238,A,apple,O,e,229,1,1665.8999999761581,673715.7000000477,7255,WL,A,12.0
5,35.289000034332275,learn,60000.0,Tue Dec 16 2025 17:32:13 GMT-0600 (Central Standard Time),675731.7999999523,A,appleenter,O,enter,341,1,2016.0999999046326,673715.7000000477,7255,WL,A,12.0
5,55.08200001716614,learn,60000.0,Tue Dec 16 2025 17:32:13 GMT-0600 (Central Standard Time),695524.7000000477,A,l,O,l,19773,1,19792.600000023842,675732.1000000238,7255,WL,A,13.0
5,55.31599998474121,learn,60000.0,Tue Dec 16 2025 17:32:13 GMT-0600 (Central Standard Time),695758.7999999523,A,le,O,e,218,1,20026.699999928474,675732.1000000238,7255,WL,A,13.0
5,55.88100004196167,learn,60000.0,Tue Dec 16 2025 17:32:13 GMT-0600 (Central Standard Time),696324.2000000477,A,lem,O,m,545,1,20592.100000023842,675732.1000000238,7255,WL,A,13.0
5,56.08300018310547,learn,60000.0,Tue Dec 16 2025 17:32:13 GMT-0600 (Central Standard Time),696525.7000000477,A,lemo,O,o,195,1,20793.600000023842,675732.1000000238,7255,WL,A,13.0
5,56.31599998474121,learn,60000.0,Tue Dec 16 2025 17:32:13 GMT-0600 (Central Standard Time),696758.7999999523,A,lemon,O,n,228,1,21026.699999928474,675732.1000000238,7255,WL,A,13.0
5,56.64800000190735,learn,60000.0,Tue Dec 16 2025 17:32:13 GMT-0600 (Central Standard Time),697090.3999999762,A,lemonenter,O,enter,311,1,21358.299999952316,675732.1000000238,7255,WL,A,13.0
5,65.84600019454956,learn,60000.0,Tue Dec 16 2025 17:32:13 GMT-0600 (Central Standard Time),706288.5,A,l,O,l,9190,1,9197.899999976158,697090.6000000238,7255,WL,A,14.0
6,1.682999849319458,distr,58317.00015068054,Tue Dec 16 2025 17:32:13 GMT-0600 (Central Standard Time),776882.6000000238,B,b,O,b,1662,1,1682.7000000476837,775199.8999999762,7255,WL,A,1.0
6,2.1509997844696045,distr,57849.000215530396,Tue Dec 16 2025 17:32:13 GMT-0600 (Central Standard Time),777350.7000000477,B,bo,O,o,445,1,2150.8000000715256,775199.8999999762,7255,WL,A,1.0
6,2.6989998817443848,distr,57301.000118255615,Tue Dec 16 2025 17:32:13 GMT-0600 (Central Standard Time),777898.7000000477,B,bow,O,w,537,1,2698.8000000715256,775199.8999999762,7255,WL,A,1.0
6,3.1669998168945312,distr,56833.00018310547,Tue Dec 16 2025 17:32:13 GMT-0600 (Central Standard Time),778367.1000000238,B,bowl,O,l,460,1,3167.2000000476837,775199.8999999762,7255,WL,A,1.0
6,3.615000009536743,distr,56384.99999046326,Tue Dec 16 2025 17:32:13 GMT-0600 (Central Standard Time),778815.8999999762,B,bowlenter,O,enter,430,1,3616.0,775199.8999999762,7255,WL,A,1.0
6,4.748999834060669,distr,55251.00016593933,Tue Dec 16 2025 17:32:13 GMT-0600 (Central Standard Time),779949.8999999762,B,d,O,d,1129,1,1133.6999999284744,778816.2000000477,7255,WL,A,2.0
6,5.097999811172485,distr,54902.000188827515,Tue Dec 16 2025 17:32:13 GMT-0600 (Central Standard Time),780299.0,B,da,O,a,330,1,1482.7999999523163,778816.2000000477,7255,WL,A,2.0
6,5.348999977111816,distr,54651.00002288818,Tue Dec 16 2025 17:32:13 GMT-0600 (Central Standard Time),780549.6000000238,B,daw,O,w,228,1,1733.3999999761581,778816.2000000477,7255,WL,A,2.0
6,5.830999851226807,distr,54169.00014877319,Tue Dec 16 2025 17:32:13 GMT-0600 (Central Standard Time),781030.8999999762,B,dawn,O,n,465,1,2214.6999999284744,778816.2000000477,7255,WL,A,2.0
6,6.33299994468689,distr,53667.00005531311,Tue Dec 16 2025 17:32:13 GMT-0600 (Central Standard Time),781533.7000000477,B,dawnenter,O,enter,490,1,2717.5,778816.2000000477,7255,WL,A,2.0
6,6.865000009536743,distr,53134.99999046326,Tue Dec 16 2025 17:32:13 GMT-0600 (Central Standard Time),782065.1000000238,B,p,O,p,516,1,531.2000000476837,781533.8999999762,7255,WL,A,3.0
6,7.446999788284302,distr,52553.0002117157,Tue Dec 16 2025 17:32:13 GMT-0600 (Central Standard Time),782647.0,B,pe,O,e,577,1,1113.1000000238419,781533.8999999762,7255,WL,A,3.0
6,7.879999876022339,distr,52120.00012397766,Tue Dec 16 2025 17:32:13 GMT-0600 (Central Standard Time),783080.5,B,pea,O,a,414,1,1546.6000000238419,781533.8999999762,7255,WL,A,3.0
6,8.196999788284302,distr,51803.0002117157,Tue Dec 16 2025 17:32:13 GMT-0600 (Central Standard Time),783397.5,B,peac,O,c,302,1,1863.6000000238419,781533.8999999762,7255,WL,A,3.0
6,8.578999996185303,distr,51421.0000038147,Tue Dec 16 2025 17:32:13 GMT-0600 (Central Standard Time),783779.8999999762,B,peach,O,h,370,1,2246.0,781533.8999999762,7255,WL,A,3.0
6,9.09499979019165,distr,50905.00020980835,Tue Dec 16 2025 17:32:13 GMT-0600 (Central Standard Time),784295.6000000238,B,peachenter,O,enter,508,1,2761.7000000476837,781533.8999999762,7255,WL,A,3.0
6,11.111999988555908,distr,48888.00001144409,Tue Dec 16 2025 17:32:13 GMT-0600 (Central Standard Time),786312.2999999523,B,i,O,i,2000,1,2016.5,784295.7999999523,7255,WL,A,4.0
6,11.678999900817871,distr,48321.00009918213,Tue Dec 16 2025 17:32:13 GMT-0600 (Central Standard Time),786878.8999999762,B,in,O,n,561,1,2583.100000023842,784295.7999999523,7255,WL,A,4.0
6,12.162999868392944,distr,47837.000131607056,Tue Dec 16 2025 17:32:13 GMT-0600 (Central Standard Time),787363.2999999523,B,ins,O,s,464,1,3067.5,784295.7999999523,7255,WL,A,4.0
6,12.361999988555908,distr,47638.00001144409,Tue Dec 16 2025 17:32:13 GMT-0600 (Central Standard Time),787562.5,B,inse,O,e,186,1,3266.7000000476837,784295.7999999523,7255,WL,A,4.0
6,12.678999900817871,distr,47321.00009918213,Tue Dec 16 2025 17:32:13 GMT-0600 (Central Standard Time),787878.8999999762,B,insec,O,c,310,1,3583.100000023842,784295.7999999523,7255,WL,A,4.0
6,13.01199984550476,distr,46988.00015449524,Tue Dec 16 2025 17:32:13 GMT-0600 (Central Standard Time),788212.0,B,insect,O,t,319,1,3916.2000000476837,784295.7999999523,7255,WL,A,4.0
6,13.51199984550476,distr,46488.00015449524,Tue Dec 16 2025 17:32:13 GMT-0600 (Central Standard Time),788712.2999999523,B,insectenter,O,enter,485,1,4416.5,784295.7999999523,7255,WL,A,4.0
6,41.08699989318848,distr,18913.000106811523,Tue Dec 16 2025 17:32:13 GMT-0600 (Central Standard Time),816287.2000000477,B,l,O,l,27560,1,27574.700000047684,788712.5,7255,WL,A,5.0
6,41.620999813079834,distr,18379.000186920166,Tue Dec 16 2025 17:32:13 GMT-0600 (Central Standard Time),816821.5,B,le,O,e,521,1,28109.0,788712.5,7255,WL,A,5.0
6,42.23799991607666,distr,17762.00008392334,Tue Dec 16 2025 17:32:13 GMT-0600 (Central Standard Time),817438.3999999762,B,lem,O,m,594,1,28725.899999976158,788712.5,7255,WL,A,5.0
6,42.5719997882843,distr,17428.0002117157,Tue Dec 16 2025 17:32:13 GMT-0600 (Central Standard Time),817772.5,B,lemo,O,o,322,1,29060.0,788712.5,7255,WL,A,5.0
6,43.037999868392944,distr,16962.000131607056,Tue Dec 16 2025 17:32:13 GMT-0600 (Central Standard Time),818238.2000000477,B,lemon,O,n,442,1,29525.700000047684,788712.5,7255,WL,A,5.0
6,43.436999797821045,distr,16563.000202178955,Tue Dec 16 2025 17:32:13 GMT-0600 (Central Standard Time),818637.3999999762,B,lemonenter,O,enter,385,1,29924.899999976158,788712.5,7255,WL,A,5.0
6,60.013999938964844,distr,-13.99993896484375,Tue Dec 16 2025 17:32:13 GMT-0600 (Central Standard Time),835214.0,B,None,O,None,16572,1,16576.399999976158,818637.6000000238,7255,WL,A,6.0
7,5.5980000495910645,immed,54401.999950408936,Tue Dec 16 2025 17:32:13 GMT-0600 (Central Standard Time),843810.6000000238,A,b,O,b,5578,1,5597.700000047684,838212.8999999762,7255,WL,A,1.0
7,5.831000089645386,immed,54168.999910354614,Tue Dec 16 2025 17:32:13 GMT-0600 (Central Standard Time),844043.8999999762,A,bu,O,u,230,1,5831.0,838212.8999999762,7255,WL,A,1.0
7,6.199000120162964,immed,53800.999879837036,Tue Dec 16 2025 17:32:13 GMT-0600 (Central Standard Time),844412.0,A,but,O,t,358,1,6199.100000023842,838212.8999999762,7255,WL,A,1.0
7,6.348999977111816,immed,53651.00002288818,Tue Dec 16 2025 17:32:13 GMT-0600 (Central Standard Time),844561.7999999523,A,butt,O,t,132,1,6348.899999976158,838212.8999999762,7255,WL,A,1.0
7,6.549000024795532,immed,53450.99997520447,Tue Dec 16 2025 17:32:13 GMT-0600 (Central Standard Time),844761.8999999762,A,butto,O,o,182,1,6549.0,838212.8999999762,7255,WL,A,1.0
7,6.865999937057495,immed,53134.000062942505,Tue Dec 16 2025 17:32:13 GMT-0600 (Central Standard Time),845078.3999999762,A,button,O,n,303,1,6865.5,838212.8999999762,7255,WL,A,1.0
7,7.315999984741211,immed,52684.00001525879,Tue Dec 16 2025 17:32:13 GMT-0600 (Central Standard Time),845528.5,A,buttonenter,O,enter,432,1,7315.600000023842,838212.8999999762,7255,WL,A,1.0
7,9.663000106811523,immed,50336.99989318848,Tue Dec 16 2025 17:32:13 GMT-0600 (Central Standard Time),847875.8999999762,A,f,O,f,2334,1,2347.100000023842,845528.7999999523,7255,WL,A,2.0
7,9.914000034332275,immed,50085.999965667725,Tue Dec 16 2025 17:32:13 GMT-0600 (Central Standard Time),848126.6000000238,A,fl,O,l,236,1,2597.8000000715256,845528.7999999523,7255,WL,A,2.0
7,10.130000114440918,immed,49869.99988555908,Tue Dec 16 2025 17:32:13 GMT-0600 (Central Standard Time),848342.8999999762,A,flo,O,o,210,1,2814.100000023842,845528.7999999523,7255,WL,A,2.0
7,10.347000122070312,immed,49652.99987792969,Tue Dec 16 2025 17:32:13 GMT-0600 (Central Standard Time),848560.1000000238,A,flow,O,w,199,1,3031.3000000715256,845528.7999999523,7255,WL,A,2.0
7,10.580000162124634,immed,49419.999837875366,Tue Dec 16 2025 17:32:13 GMT-0600 (Central Standard Time),848793.1000000238,A,flowe,O,e,216,1,3264.3000000715256,845528.7999999523,7255,WL,A,2.0
7,10.763999938964844,immed,49236.000061035156,Tue Dec 16 2025 17:32:13 GMT-0600 (Central Standard Time),848976.3999999762,A,flower,O,r,175,1,3447.600000023842,845528.7999999523,7255,WL,A,2.0
7,11.213000059127808,immed,48786.99994087219,Tue Dec 16 2025 17:32:13 GMT-0600 (Central Standard Time),849425.5,A,flowerenter,O,enter,431,1,3896.7000000476837,845528.7999999523,7255,WL,A,2.0
7,12.213000059127808,immed,47786.99994087219,Tue Dec 16 2025 17:32:13 GMT-0600 (Central Standard Time),850426.1000000238,A,r,O,r,981,1,1000.3000000715256,849425.7999999523,7255,WL,A,3.0
7,12.529000043869019,immed,47470.99995613098,Tue Dec 16 2025 17:32:13 GMT-0600 (Central Standard Time),850742.0,A,ru,O,u,309,1,1316.2000000476837,849425.7999999523,7255,WL,A,3.0
7,12.713000059127808,immed,47286.99994087219,Tue Dec 16 2025 17:32:13 GMT-0600 (Central Standard Time),850925.7000000477,A,rug,O,g,167,1,1499.9000000953674,849425.7999999523,7255,WL,A,3.0
7,13.065000057220459,immed,46934.99994277954,Tue Dec 16 2025 17:32:13 GMT-0600 (Central Standard Time),851277.3999999762,A,rugenter,O,enter,348,1,1851.6000000238419,849425.7999999523,7255,WL,A,3.0
7,15.462000131607056,immed,44537.999868392944,Tue Dec 16 2025 17:32:13 GMT-0600 (Central Standard Time),853674.5,A,g,O,g,2377,1,2396.7999999523163,851277.7000000477,7255,WL,A,4.0
7,15.779000043869019,immed,44220.99995613098,Tue Dec 16 2025 17:32:13 GMT-0600 (Central Standard Time),853991.2999999523,A,go,O,o,308,1,2713.5999999046326,851277.7000000477,7255,WL,A,4.0
7,15.978000164031982,immed,44021.99983596802,Tue Dec 16 2025 17:32:13 GMT-0600 (Central Standard Time),854190.7000000477,A,gol,O,l,193,1,2913.0,851277.7000000477,7255,WL,A,4.0
7,16.144999980926514,immed,43855.000019073486,Tue Dec 16 2025 17:32:13 GMT-0600 (Central Standard Time),854357.7999999523,A,gold,O,d,151,1,3080.0999999046326,851277.7000000477,7255,WL,A,4.0
7,16.496000051498413,immed,43503.99994850159,Tue Dec 16 2025 17:32:13 GMT-0600 (Central Standard Time),854709.0,A,goldenter,O,enter,334,1,3431.2999999523163,851277.7000000477,7255,WL,A,4.0
7,23.926000118255615,immed,36073.999881744385,Tue Dec 16 2025 17:32:13 GMT-0600 (Central Standard Time),862138.8999999762,A,a,O,a,7411,1,7429.600000023842,854709.2999999523,7255,WL,A,5.0
7,24.358999967575073,immed,35641.00003242493,Tue Dec 16 2025 17:32:13 GMT-0600 (Central Standard Time),862571.8999999762,A,ap,O,p,420,1,7862.600000023842,854709.2999999523,7255,WL,A,5.0
7,24.542999982833862,immed,35457.00001716614,Tue Dec 16 2025 17:32:13 GMT-0600 (Central Standard Time),862755.2000000477,A,app,O,p,168,1,8045.900000095367,854709.2999999523,7255,WL,A,5.0
7,24.70900011062622,immed,35290.99988937378,Tue Dec 16 2025 17:32:13 GMT-0600 (Central Standard Time),862922.1000000238,A,appl,O,l,153,1,8212.800000071526,854709.2999999523,7255,WL,A,5.0
7,24.95900011062622,immed,35040.99988937378,Tue Dec 16 2025 17:32:13 GMT-0600 (Central Standard Time),863171.3999999762,A,apple,O,e,236,1,8462.100000023842,854709.2999999523,7255,WL,A,5.0
7,25.37600016593933,immed,34623.99983406067,Tue Dec 16 2025 17:32:13 GMT-0600 (Central Standard Time),863588.5,A,appleenter,O,enter,402,1,8879.200000047684,854709.2999999523,7255,WL,A,5.0
7,27.674999952316284,immed,32325.000047683716,Tue Dec 16 2025 17:32:13 GMT-0600 (Central Standard Time),865887.2000000477,A,m,O,m,2291,1,2298.5,863588.7000000477,7255,WL,A,6.0
7,27.990999937057495,immed,32009.000062942505,Tue Dec 16 2025 17:32:13 GMT-0600 (Central Standard Time),866204.1000000238,A,me,O,e,301,1,2615.399999976158,863588.7000000477,7255,WL,A,6.0
7,28.308000087738037,immed,31691.999912261963,Tue Dec 16 2025 17:32:13 GMT-0600 (Central Standard Time),866520.7999999523,A,mea,O,a,297,1,2932.0999999046326,863588.7000000477,7255,WL,A,6.0
7,28.54200005531311,immed,31457.99994468689,Tue Dec 16 2025 17:32:13 GMT-0600 (Central Standard Time),866754.2000000477,A,mead,O,d,212,1,3165.5,863588.7000000477,7255,WL,A,6.0
7,28.824000120162964,immed,31175.999879837036,Tue Dec 16 2025 17:32:13 GMT-0600 (Central Standard Time),867037.0,A,meado,O,o,274,1,3448.2999999523163,863588.7000000477,7255,WL,A,6.0
7,29.075000047683716,immed,30924.999952316284,Tue Dec 16 2025 17:32:13 GMT-0600 (Central Standard Time),867289.2999999523,A,meadow,O,w,233,1,3700.5999999046326,863588.7000000477,7255,WL,A,6.0
7,29.558000087738037,immed,30441.999912261963,Tue Dec 16 2025 17:32:13 GMT-0600 (Central Standard Time),867770.6000000238,A,meadowenter,O,enter,470,1,4181.899999976158,863588.7000000477,7255,WL,A,6.0
7,31.10700011253357,immed,28892.99988746643,Tue Dec 16 2025 17:32:13 GMT-0600 (Central Standard Time),869319.3999999762,A,h,O,h,1542,1,1548.6000000238419,867770.7999999523,7255,WL,A,7.0
7,31.34000015258789,immed,28659.99984741211,Tue Dec 16 2025 17:32:13 GMT-0600 (Central Standard Time),869552.7000000477,A,ha,O,a,214,1,1781.9000000953674,867770.7999999523,7255,WL,A,7.0
7,31.707000017166138,immed,28292.999982833862,Tue Dec 16 2025 17:32:13 GMT-0600 (Central Standard Time),869919.2000000477,A,har,O,r,356,1,2148.4000000953674,867770.7999999523,7255,WL,A,7.0
7,31.990999937057495,immed,28009.000062942505,Tue Dec 16 2025 17:32:13 GMT-0600 (Central Standard Time),870204.0,A,harp,O,p,262,1,2433.2000000476837,867770.7999999523,7255,WL,A,7.0
7,32.82299995422363,immed,27177.000045776367,Tue Dec 16 2025 17:32:13 GMT-0600 (Central Standard Time),871035.6000000238,A,harpenter,O,enter,810,1,3264.8000000715256,867770.7999999523,7255,WL,A,7.0
7,33.388999938964844,immed,26611.000061035156,Tue Dec 16 2025 17:32:13 GMT-0600 (Central Standard Time),871602.0,A,s,O,s,548,1,566.1000000238419,871035.8999999762,7255,WL,A,8.0
7,33.59100008010864,immed,26408.999919891357,Tue Dec 16 2025 17:32:13 GMT-0600 (Central Standard Time),871803.3999999762,A,sa,O,a,188,1,767.5,871035.8999999762,7255,WL,A,8.0
7,33.888999938964844,immed,26111.000061035156,Tue Dec 16 2025 17:32:13 GMT-0600 (Central Standard Time),872101.3999999762,A,sal,O,l,281,1,1065.5,871035.8999999762,7255,WL,A,8.0
7,34.18900012969971,immed,25810.999870300293,Tue Dec 16 2025 17:32:13 GMT-0600 (Central Standard Time),872401.8999999762,A,salt,O,t,281,1,1366.0,871035.8999999762,7255,WL,A,8.0
7,34.58899998664856,immed,25411.00001335144,Tue Dec 16 2025 17:32:13 GMT-0600 (Central Standard Time),872802.1000000238,A,saltenter,O,enter,380,1,1766.2000000476837,871035.8999999762,7255,WL,A,8.0
7,35.09000015258789,immed,24909.99984741211,Tue Dec 16 2025 17:32:13 GMT-0600 (Central Standard Time),873302.3999999762,A,t,O,t,479,1,500.0,872802.3999999762,7255,WL,A,9.0
7,35.2720000743866,immed,24727.999925613403,Tue Dec 16 2025 17:32:13 GMT-0600 (Central Standard Time),873484.7999999523,A,tr,O,r,161,1,682.3999999761581,872802.3999999762,7255,WL,A,9.0
7,35.73900008201599,immed,24260.99991798401,Tue Dec 16 2025 17:32:13 GMT-0600 (Central Standard Time),873951.2999999523,A,tra,O,a,457,1,1148.8999999761581,872802.3999999762,7255,WL,A,9.0
7,36.0220000743866,immed,23977.999925613403,Tue Dec 16 2025 17:32:13 GMT-0600 (Central Standard Time),874234.7999999523,A,trai,O,i,263,1,1432.3999999761581,872802.3999999762,7255,WL,A,9.0
7,36.25600004196167,immed,23743.99995803833,Tue Dec 16 2025 17:32:13 GMT-0600 (Central Standard Time),874468.3999999762,A,train,O,n,228,1,1666.0,872802.3999999762,7255,WL,A,9.0
7,36.638999938964844,immed,23361.000061035156,Tue Dec 16 2025 17:32:13 GMT-0600 (Central Standard Time),874851.6000000238,A,trainenter,O,enter,370,1,2049.2000000476837,872802.3999999762,7255,WL,A,9.0
7,38.337000131607056,immed,21662.999868392944,Tue Dec 16 2025 17:32:13 GMT-0600 (Central Standard Time),876550.0,A,c,O,c,1684,1,1698.2000000476837,874851.7999999523,7255,WL,A,10.0
7,38.5550000667572,immed,21444.999933242798,Tue Dec 16 2025 17:32:13 GMT-0600 (Central Standard Time),876767.6000000238,A,ch,O,h,201,1,1915.8000000715256,874851.7999999523,7255,WL,A,10.0
7,38.98800015449524,immed,21011.99984550476,Tue Dec 16 2025 17:32:13 GMT-0600 (Central Standard Time),877200.8999999762,A,chi,O,i,423,1,2349.100000023842,874851.7999999523,7255,WL,A,10.0
7,39.33800005912781,immed,20661.999940872192,Tue Dec 16 2025 17:32:13 GMT-0600 (Central Standard Time),877550.3999999762,A,chim,O,m,342,1,2698.600000023842,874851.7999999523,7255,WL,A,10.0
7,39.5550000667572,immed,20444.999933242798,Tue Dec 16 2025 17:32:13 GMT-0600 (Central Standard Time),877767.5,A,chimn,O,n,197,1,2915.7000000476837,874851.7999999523,7255,WL,A,10.0
7,39.82100009918213,immed,20178.99990081787,Tue Dec 16 2025 17:32:13 GMT-0600 (Central Standard Time),878033.3999999762,A,chimne,O,e,247,1,3181.600000023842,874851.7999999523,7255,WL,A,10.0
7,40.08800005912781,immed,19911.999940872192,Tue Dec 16 2025 17:32:13 GMT-0600 (Central Standard Time),878300.2999999523,A,chimney,O,y,250,1,3448.5,874851.7999999523,7255,WL,A,10.0
7,40.57100009918213,immed,19428.99990081787,Tue Dec 16 2025 17:32:13 GMT-0600 (Central Standard Time),878783.5,A,chimneyenter,O,enter,473,1,3931.7000000476837,874851.7999999523,7255,WL,A,10.0
7,44.78600001335144,immed,15213.99998664856,Tue Dec 16 2025 17:32:13 GMT-0600 (Central Standard Time),882998.6000000238,A,l,O,l,4201,1,4214.899999976158,878783.7000000477,7255,WL,A,11.0
7,44.98699998855591,immed,15013.000011444092,Tue Dec 16 2025 17:32:13 GMT-0600 (Central Standard Time),883199.3999999762,A,lo,O,o,187,1,4415.699999928474,878783.7000000477,7255,WL,A,11.0
7,45.253000020980835,immed,14746.999979019165,Tue Dec 16 2025 17:32:13 GMT-0600 (Central Standard Time),883465.6000000238,A,log,O,g,254,1,4681.899999976158,878783.7000000477,7255,WL,A,11.0
7,45.66900014877319,immed,14330.999851226807,Tue Dec 16 2025 17:32:13 GMT-0600 (Central Standard Time),883881.2999999523,A,logenter,O,enter,396,1,5097.599999904633,878783.7000000477,7255,WL,A,11.0
7,52.36800003051758,immed,7631.999969482422,Tue Dec 16 2025 17:32:13 GMT-0600 (Central Standard Time),890580.6000000238,A,a,O,a,6694,1,6699.0,883881.6000000238,7255,WL,A,12.0
7,52.66700005531311,immed,7332.99994468689,Tue Dec 16 2025 17:32:13 GMT-0600 (Central Standard Time),890879.6000000238,A,ap,O,p,285,1,6998.0,883881.6000000238,7255,WL,A,12.0
7,52.848999977111816,immed,7151.000022888184,Tue Dec 16 2025 17:32:13 GMT-0600 (Central Standard Time),891062.2000000477,A,app,O,p,175,1,7180.600000023842,883881.6000000238,7255,WL,A,12.0
7,53.0,immed,7000.0,Tue Dec 16 2025 17:32:13 GMT-0600 (Central Standard Time),891213.1000000238,A,appl,O,l,145,1,7331.5,883881.6000000238,7255,WL,A,12.0
7,53.23399996757507,immed,6766.000032424927,Tue Dec 16 2025 17:32:13 GMT-0600 (Central Standard Time),891446.5,A,apple,O,e,229,1,7564.899999976158,883881.6000000238,7255,WL,A,12.0
7,53.58200001716614,immed,6417.999982833862,Tue Dec 16 2025 17:32:13 GMT-0600 (Central Standard Time),891794.8999999762,A,appleenter,O,enter,328,1,7913.299999952316,883881.6000000238,7255,WL,A,12.0
7,60.013999938964844,immed,-13.99993896484375,Tue Dec 16 2025 17:32:13 GMT-0600 (Central Standard Time),898227.6000000238,A,None,O,None,6427,1,6432.5,891795.1000000238,7255,WL,A,13.0
