block_c,block_dur,condition,countdown,datetime,endtime,list,multichar_response,project,response,response_time,session_number,start_end,starttime,subject_id,task,task_vers,trial
,,,,Tue Nov 11 2025 18:27:38 GMT-0600 (Central Standard Time),,,,I,None,60012,,,,8053,WL,A,
prac,,0,,Tue Nov 11 2025 18:27:38 GMT-0600 (Central Standard Time),,NA,b,I,b,3781,,,,8053,WL,A,1.0
prac,,0,,Tue Nov 11 2025 18:27:38 GMT-0600 (Central Standard Time),,NA,bo,I,o,258,,,,8053,WL,A,1.0
prac,,0,,Tue Nov 11 2025 18:27:38 GMT-0600 (Central Standard Time),,NA,boo,I,o,176,,,,8053,WL,A,1.0
prac,,0,,Tue Nov 11 2025 18:27:38 GMT-0600 (Central Standard Time),,NA,boos,I,s,112,,,,8053,WL,A,1.0
prac,,0,,Tue Nov 11 2025 18:27:38 GMT-0600 (Central Standard Time),,NA,boost,I,t,243,,,,8053,WL,A,1.0
prac,,0,,Tue Nov 11 2025 18:27:38 GMT-0600 (Central Standard Time),,NA,boostenter,I,enter,1640,,,,8053,WL,A,1.0
1,4.931999921798706,learn,55068.000078201294,Tue Nov 11 2025 18:27:38 GMT-0600 (Central Standard Time),389180.5,A,b,I,b,4924,,4931.0,384249.5,8053,WL,A,1.0
1,5.299000024795532,learn,54700.99997520447,Tue Nov 11 2025 18:27:38 GMT-0600 (Central Standard Time),389547.2000000477,A,bo,I,o,351,,5297.700000047684,384249.5,8053,WL,A,1.0
1,5.514999866485596,learn,54485.000133514404,Tue Nov 11 2025 18:27:38 GMT-0600 (Central Standard Time),389763.60000002384,A,boo,I,o,200,,5514.100000023842,384249.5,8053,WL,A,1.0
1,5.7809998989105225,learn,54219.00010108948,Tue Nov 11 2025 18:27:38 GMT-0600 (Central Standard Time),390030.10000002384,A,book,I,k,257,,5780.600000023842,384249.5,8053,WL,A,1.0
1,6.23199987411499,learn,53768.00012588501,Tue Nov 11 2025 18:27:38 GMT-0600 (Central Standard Time),390480.3000000119,A,bookenter,I,enter,431,,6230.800000011921,384249.5,8053,WL,A,1.0
1,7.014999866485596,learn,52985.000133514404,Tue Nov 11 2025 18:27:38 GMT-0600 (Central Standard Time),391263.5,A,f,I,f,772,,782.7999999523163,390480.7000000477,8053,WL,A,2.0
1,7.915999889373779,learn,52084.00011062622,Tue Nov 11 2025 18:27:38 GMT-0600 (Central Standard Time),392164.10000002384,A,fl,I,l,878,,1683.3999999761581,390480.7000000477,8053,WL,A,2.0
1,8.197999954223633,learn,51802.00004577637,Tue Nov 11 2025 18:27:38 GMT-0600 (Central Standard Time),392446.40000003576,A,flo,I,o,273,,1965.699999988079,390480.7000000477,8053,WL,A,2.0
1,8.398000001907349,learn,51601.99999809265,Tue Nov 11 2025 18:27:38 GMT-0600 (Central Standard Time),392646.3000000119,A,flow,I,w,183,,2165.599999964237,390480.7000000477,8053,WL,A,2.0
1,8.71399998664856,learn,51286.00001335144,Tue Nov 11 2025 18:27:38 GMT-0600 (Central Standard Time),392963.0,A,flowe,I,e,304,,2482.2999999523163,390480.7000000477,8053,WL,A,2.0
1,9.030999898910522,learn,50969.00010108948,Tue Nov 11 2025 18:27:38 GMT-0600 (Central Standard Time),393279.5,A,flower,I,r,307,,2798.7999999523163,390480.7000000477,8053,WL,A,2.0
1,9.914000034332275,learn,50085.999965667725,Tue Nov 11 2025 18:27:38 GMT-0600 (Central Standard Time),394162.60000002384,A,flowerenter,I,enter,869,,3681.899999976158,390480.7000000477,8053,WL,A,2.0
1,10.530999898910522,learn,49469.00010108948,Tue Nov 11 2025 18:27:38 GMT-0600 (Central Standard Time),394779.10000002384,A,t,I,t,603,,616.0,394163.10000002384,8053,WL,A,3.0
1,10.829999923706055,learn,49170.000076293945,Tue Nov 11 2025 18:27:38 GMT-0600 (Central Standard Time),395079.0,A,tr,I,r,291,,915.8999999761581,394163.10000002384,8053,WL,A,3.0
1,11.063999891281128,learn,48936.00010871887,Tue Nov 11 2025 18:27:38 GMT-0600 (Central Standard Time),395312.3000000119,A,tra,I,a,214,,1149.199999988079,394163.10000002384,8053,WL,A,3.0
1,11.946000099182129,learn,48053.99990081787,Tue Nov 11 2025 18:27:38 GMT-0600 (Central Standard Time),396195.0,A,trai,I,i,876,,2031.8999999761581,394163.10000002384,8053,WL,A,3.0
1,12.263000011444092,learn,47736.99998855591,Tue Nov 11 2025 18:27:38 GMT-0600 (Central Standard Time),396511.8000000119,A,train,I,n,299,,2348.699999988079,394163.10000002384,8053,WL,A,3.0
1,12.796000003814697,learn,47203.9999961853,Tue Nov 11 2025 18:27:38 GMT-0600 (Central Standard Time),397045.0,A,trainenter,I,enter,518,,2881.899999976158,394163.10000002384,8053,WL,A,3.0
1,15.328999996185303,learn,44671.0000038147,Tue Nov 11 2025 18:27:38 GMT-0600 (Central Standard Time),399577.5,A,r,I,r,2521,,2532.099999964237,397045.40000003576,8053,WL,A,4.0
1,15.611999988555908,learn,44388.00001144409,Tue Nov 11 2025 18:27:38 GMT-0600 (Central Standard Time),399860.8000000119,A,ru,I,u,267,,2815.399999976158,397045.40000003576,8053,WL,A,4.0
1,15.828999996185303,learn,44171.0000038147,Tue Nov 11 2025 18:27:38 GMT-0600 (Central Standard Time),400077.5,A,rug,I,g,209,,3032.099999964237,397045.40000003576,8053,WL,A,4.0
1,16.562000036239624,learn,43437.999963760376,Tue Nov 11 2025 18:27:38 GMT-0600 (Central Standard Time),400810.5,A,rugenter,I,enter,712,,3765.099999964237,397045.40000003576,8053,WL,A,4.0
1,17.76099991798401,learn,42239.00008201599,Tue Nov 11 2025 18:27:38 GMT-0600 (Central Standard Time),402010.10000002384,A,w,I,w,1188,,1199.199999988079,400810.90000003576,8053,WL,A,5.0
1,18.310999870300293,learn,41689.00012969971,Tue Nov 11 2025 18:27:38 GMT-0600 (Central Standard Time),402560.0,A,wi,I,i,539,,1749.0999999642372,400810.90000003576,8053,WL,A,5.0
1,19.128000020980835,learn,40871.999979019165,Tue Nov 11 2025 18:27:38 GMT-0600 (Central Standard Time),403376.40000003576,A,w,I,backspace,806,,2565.5,400810.90000003576,8053,WL,A,5.0
1,19.344000101089478,learn,40655.99989891052,Tue Nov 11 2025 18:27:38 GMT-0600 (Central Standard Time),403592.8000000119,A,,I,backspace,198,,2781.899999976158,400810.90000003576,8053,WL,A,5.0
1,19.878000020980835,learn,40121.999979019165,Tue Nov 11 2025 18:27:38 GMT-0600 (Central Standard Time),404126.2000000477,A,m,I,m,525,,3315.300000011921,400810.90000003576,8053,WL,A,5.0
1,20.01099991798401,learn,39989.00008201599,Tue Nov 11 2025 18:27:38 GMT-0600 (Central Standard Time),404259.40000003576,A,me,I,e,113,,3448.5,400810.90000003576,8053,WL,A,5.0
1,20.57699990272522,learn,39423.00009727478,Tue Nov 11 2025 18:27:38 GMT-0600 (Central Standard Time),404826.0,A,mea,I,a,547,,4015.099999964237,400810.90000003576,8053,WL,A,5.0
1,21.07699990272522,learn,38923.00009727478,Tue Nov 11 2025 18:27:38 GMT-0600 (Central Standard Time),405325.7000000477,A,mead,I,d,492,,4514.800000011921,400810.90000003576,8053,WL,A,5.0
1,21.57699990272522,learn,38423.00009727478,Tue Nov 11 2025 18:27:38 GMT-0600 (Central Standard Time),405825.5,A,meado,I,o,489,,5014.599999964237,400810.90000003576,8053,WL,A,5.0
1,21.72699999809265,learn,38273.00000190735,Tue Nov 11 2025 18:27:38 GMT-0600 (Central Standard Time),405975.60000002384,A,meadow,I,w,132,,5164.699999988079,400810.90000003576,8053,WL,A,5.0
1,22.91000008583069,learn,37089.99991416931,Tue Nov 11 2025 18:27:38 GMT-0600 (Central Standard Time),407158.5,A,meadowenter,I,enter,1174,,6347.599999964237,400810.90000003576,8053,WL,A,5.0
1,25.691999912261963,learn,34308.00008773804,Tue Nov 11 2025 18:27:38 GMT-0600 (Central Standard Time),409940.8000000119,A,h,I,h,2775,,2781.899999976158,407158.90000003576,8053,WL,A,6.0
1,25.908999919891357,learn,34091.00008010864,Tue Nov 11 2025 18:27:38 GMT-0600 (Central Standard Time),410157.40000003576,A,ha,I,a,209,,2998.5,407158.90000003576,8053,WL,A,6.0
1,26.108999967575073,learn,33891.00003242493,Tue Nov 11 2025 18:27:38 GMT-0600 (Central Standard Time),410357.5,A,har,I,r,192,,3198.599999964237,407158.90000003576,8053,WL,A,6.0
1,26.625,learn,33375.0,Tue Nov 11 2025 18:27:38 GMT-0600 (Central Standard Time),410874.0,A,harp,I,p,504,,3715.099999964237,407158.90000003576,8053,WL,A,6.0
1,27.026000022888184,learn,32973.99997711182,Tue Nov 11 2025 18:27:38 GMT-0600 (Central Standard Time),411275.10000002384,A,harpenter,I,enter,388,,4116.199999988079,407158.90000003576,8053,WL,A,6.0
1,28.125,learn,31875.0,Tue Nov 11 2025 18:27:38 GMT-0600 (Central Standard Time),412373.60000002384,A,s,I,s,1082,,1098.199999988079,411275.40000003576,8053,WL,A,7.0
1,28.407999992370605,learn,31592.000007629395,Tue Nov 11 2025 18:27:38 GMT-0600 (Central Standard Time),412656.40000003576,A,sa,I,a,272,,1381.0,411275.40000003576,8053,WL,A,7.0
1,28.591000080108643,learn,31408.999919891357,Tue Nov 11 2025 18:27:38 GMT-0600 (Central Standard Time),412839.8000000119,A,sal,I,l,173,,1564.3999999761581,411275.40000003576,8053,WL,A,7.0
1,28.841000080108643,learn,31158.999919891357,Tue Nov 11 2025 18:27:38 GMT-0600 (Central Standard Time),413089.90000003576,A,salt,I,t,230,,1814.5,411275.40000003576,8053,WL,A,7.0
1,30.174000024795532,learn,29825.999975204468,Tue Nov 11 2025 18:27:38 GMT-0600 (Central Standard Time),414423.0,A,saltenter,I,enter,1324,,3147.599999964237,411275.40000003576,8053,WL,A,7.0
1,31.789999961853027,learn,28210.000038146973,Tue Nov 11 2025 18:27:38 GMT-0600 (Central Standard Time),416039.10000002384,A,f,I,f,1607,,1615.800000011921,414423.3000000119,8053,WL,A,8.0
1,32.00699996948242,learn,27993.000030517578,Tue Nov 11 2025 18:27:38 GMT-0600 (Central Standard Time),416255.8000000119,A,fi,I,i,199,,1832.5,414423.3000000119,8053,WL,A,8.0
1,32.32299995422363,learn,27677.000045776367,Tue Nov 11 2025 18:27:38 GMT-0600 (Central Standard Time),416572.0,A,fin,I,n,310,,2148.699999988079,414423.3000000119,8053,WL,A,8.0
1,33.10699987411499,learn,26893.00012588501,Tue Nov 11 2025 18:27:38 GMT-0600 (Central Standard Time),417355.3000000119,A,fing,I,g,771,,2932.0,414423.3000000119,8053,WL,A,8.0
1,33.67300009727478,learn,26326.99990272522,Tue Nov 11 2025 18:27:38 GMT-0600 (Central Standard Time),417921.8000000119,A,finge,I,e,546,,3498.5,414423.3000000119,8053,WL,A,8.0
1,34.18899989128113,learn,25811.000108718872,Tue Nov 11 2025 18:27:38 GMT-0600 (Central Standard Time),418438.3000000119,A,finger,I,r,509,,4015.0,414423.3000000119,8053,WL,A,8.0
1,35.855000019073486,learn,24144.999980926514,Tue Nov 11 2025 18:27:38 GMT-0600 (Central Standard Time),420104.2000000477,A,fingerenter,I,enter,1648,,5680.900000035763,414423.3000000119,8053,WL,A,8.0
1,37.15499997138977,learn,22845.00002861023,Tue Nov 11 2025 18:27:38 GMT-0600 (Central Standard Time),421404.2000000477,A,e,I,e,1286,,1299.6000000238419,420104.60000002384,8053,WL,A,9.0
1,37.4210000038147,learn,22578.999996185303,Tue Nov 11 2025 18:27:38 GMT-0600 (Central Standard Time),421670.5,A,ea,I,a,250,,1565.8999999761581,420104.60000002384,8053,WL,A,9.0
1,38.371999979019165,learn,21628.000020980835,Tue Nov 11 2025 18:27:38 GMT-0600 (Central Standard Time),422621.5,A,e,I,backspace,935,,2516.899999976158,420104.60000002384,8053,WL,A,9.0
1,38.5550000667572,learn,21444.999933242798,Tue Nov 11 2025 18:27:38 GMT-0600 (Central Standard Time),422804.60000002384,A,,I,backspace,177,,2700.0,420104.60000002384,8053,WL,A,9.0
1,39.00399994850159,learn,20996.000051498413,Tue Nov 11 2025 18:27:38 GMT-0600 (Central Standard Time),423253.3000000119,A,a,I,a,434,,3148.699999988079,420104.60000002384,8053,WL,A,9.0
1,39.270999908447266,learn,20729.000091552734,Tue Nov 11 2025 18:27:38 GMT-0600 (Central Standard Time),423520.10000002384,A,ap,I,p,249,,3415.5,420104.60000002384,8053,WL,A,9.0
1,39.4539999961853,learn,20546.000003814697,Tue Nov 11 2025 18:27:38 GMT-0600 (Central Standard Time),423703.2000000477,A,app,I,p,166,,3598.600000023842,420104.60000002384,8053,WL,A,9.0
1,39.72099995613098,learn,20279.00004386902,Tue Nov 11 2025 18:27:38 GMT-0600 (Central Standard Time),423969.8000000119,A,appl,I,l,246,,3865.199999988079,420104.60000002384,8053,WL,A,9.0
1,39.80399990081787,learn,20196.00009918213,Tue Nov 11 2025 18:27:38 GMT-0600 (Central Standard Time),424053.0,A,apple,I,e,69,,3948.399999976158,420104.60000002384,8053,WL,A,9.0
1,40.7039999961853,learn,19296.000003814697,Tue Nov 11 2025 18:27:38 GMT-0600 (Central Standard Time),424953.10000002384,A,appleenter,I,enter,881,,4848.5,420104.60000002384,8053,WL,A,9.0
1,43.8529999256134,learn,16147.000074386597,Tue Nov 11 2025 18:27:38 GMT-0600 (Central Standard Time),428101.8000000119,A,c,I,c,3141,,3148.300000011921,424953.5,8053,WL,A,10.0
1,44.61999988555908,learn,15380.000114440918,Tue Nov 11 2025 18:27:38 GMT-0600 (Central Standard Time),428869.40000003576,A,ch,I,h,761,,3915.900000035763,424953.5,8053,WL,A,10.0
1,44.918999910354614,learn,15081.000089645386,Tue Nov 11 2025 18:27:38 GMT-0600 (Central Standard Time),429168.3000000119,A,chi,I,i,289,,4214.800000011921,424953.5,8053,WL,A,10.0
1,45.50200009346008,learn,14497.999906539917,Tue Nov 11 2025 18:27:38 GMT-0600 (Central Standard Time),429751.5,A,chim,I,m,574,,4798.0,424953.5,8053,WL,A,10.0
1,46.78500008583069,learn,13214.999914169312,Tue Nov 11 2025 18:27:38 GMT-0600 (Central Standard Time),431034.2000000477,A,chimm,I,m,1271,,6080.700000047684,424953.5,8053,WL,A,10.0
1,47.58500003814697,learn,12414.999961853027,Tue Nov 11 2025 18:27:38 GMT-0600 (Central Standard Time),431834.10000002384,A,chim,I,backspace,787,,6880.600000023842,424953.5,8053,WL,A,10.0
1,48.33500003814697,learn,11664.999961853027,Tue Nov 11 2025 18:27:38 GMT-0600 (Central Standard Time),432583.90000003576,A,chimn,I,n,740,,7630.400000035763,424953.5,8053,WL,A,10.0
1,48.651000022888184,learn,11348.999977111816,Tue Nov 11 2025 18:27:38 GMT-0600 (Central Standard Time),432900.40000003576,A,chimne,I,e,303,,7946.900000035763,424953.5,8053,WL,A,10.0
1,48.86800003051758,learn,11131.999969482422,Tue Nov 11 2025 18:27:38 GMT-0600 (Central Standard Time),433117.0,A,chimney,I,y,201,,8163.5,424953.5,8053,WL,A,10.0
1,50.217000007629395,learn,9782.999992370605,Tue Nov 11 2025 18:27:38 GMT-0600 (Central Standard Time),434466.5,A,chimneyenter,I,enter,1328,,9513.0,424953.5,8053,WL,A,10.0
1,52.75,learn,7250.0,Tue Nov 11 2025 18:27:38 GMT-0600 (Central Standard Time),436999.10000002384,A,b,I,b,2524,,2532.100000023842,434467.0,8053,WL,A,11.0
1,53.09999990463257,learn,6900.000095367432,Tue Nov 11 2025 18:27:38 GMT-0600 (Central Standard Time),437349.3000000119,A,bu,I,u,335,,2882.300000011921,434467.0,8053,WL,A,11.0
1,53.41599988937378,learn,6584.000110626221,Tue Nov 11 2025 18:27:38 GMT-0600 (Central Standard Time),437665.5,A,but,I,t,305,,3198.5,434467.0,8053,WL,A,11.0
1,53.615999937057495,learn,6384.000062942505,Tue Nov 11 2025 18:27:38 GMT-0600 (Central Standard Time),437865.60000002384,A,butt,I,t,189,,3398.600000023842,434467.0,8053,WL,A,11.0
1,53.76600003242493,learn,6233.999967575073,Tue Nov 11 2025 18:27:38 GMT-0600 (Central Standard Time),438015.5,A,butto,I,o,133,,3548.5,434467.0,8053,WL,A,11.0
1,54.06599998474121,learn,5934.000015258789,Tue Nov 11 2025 18:27:38 GMT-0600 (Central Standard Time),438315.60000002384,A,button,I,n,280,,3848.600000023842,434467.0,8053,WL,A,11.0
1,55.08200001716614,learn,4917.999982833862,Tue Nov 11 2025 18:27:38 GMT-0600 (Central Standard Time),439331.5,A,buttonenter,I,enter,1011,,4864.5,434467.0,8053,WL,A,11.0
1,57.198999881744385,learn,2801.0001182556152,Tue Nov 11 2025 18:27:38 GMT-0600 (Central Standard Time),441447.8000000119,A,k,I,k,2099,,2115.899999976158,439331.90000003576,8053,WL,A,12.0
1,58.11500000953674,learn,1884.9999904632568,Tue Nov 11 2025 18:27:38 GMT-0600 (Central Standard Time),442364.0,A,ke,I,e,910,,3032.099999964237,439331.90000003576,8053,WL,A,12.0
1,58.36500000953674,learn,1634.9999904632568,Tue Nov 11 2025 18:27:38 GMT-0600 (Central Standard Time),442614.2000000477,A,key,I,y,235,,3282.300000011921,439331.90000003576,8053,WL,A,12.0
1,60.013999938964844,learn,-13.99993896484375,Tue Nov 11 2025 18:27:38 GMT-0600 (Central Standard Time),444263.40000003576,A,keyNone,I,None,1644,,4931.5,439331.90000003576,8053,WL,A,12.0
2,0.9000000953674316,learn,59099.99990463257,Tue Nov 11 2025 18:27:38 GMT-0600 (Central Standard Time),534218.8000000119,A,b,I,b,879,,899.3000000119209,533319.5,8053,WL,A,1.0
2,1.116999864578247,learn,58883.00013542175,Tue Nov 11 2025 18:27:38 GMT-0600 (Central Standard Time),534435.4000000358,A,bo,I,o,203,,1115.9000000357628,533319.5,8053,WL,A,1.0
2,1.2829999923706055,learn,58717.000007629395,Tue Nov 11 2025 18:27:38 GMT-0600 (Central Standard Time),534602.0,A,boo,I,o,155,,1282.5,533319.5,8053,WL,A,1.0
2,1.4830000400543213,learn,58516.99995994568,Tue Nov 11 2025 18:27:38 GMT-0600 (Central Standard Time),534802.1000000238,A,book,I,k,181,,1482.6000000238419,533319.5,8053,WL,A,1.0
2,1.7160000801086426,learn,58283.99991989136,Tue Nov 11 2025 18:27:38 GMT-0600 (Central Standard Time),535034.9000000358,A,bookenter,I,enter,228,,1715.4000000357628,533319.5,8053,WL,A,1.0
2,5.931999921798706,learn,54068.000078201294,Tue Nov 11 2025 18:27:38 GMT-0600 (Central Standard Time),539250.5,A,f,I,f,4196,,4215.399999976158,535035.1000000238,8053,WL,A,2.0
2,6.148000001907349,learn,53851.99999809265,Tue Nov 11 2025 18:27:38 GMT-0600 (Central Standard Time),539467.0,A,fl,I,l,212,,4431.899999976158,535035.1000000238,8053,WL,A,2.0
2,6.4649999141693115,learn,53535.00008583069,Tue Nov 11 2025 18:27:38 GMT-0600 (Central Standard Time),539783.9000000358,A,flo,I,o,300,,4748.800000011921,535035.1000000238,8053,WL,A,2.0
2,6.697999954223633,learn,53302.00004577637,Tue Nov 11 2025 18:27:38 GMT-0600 (Central Standard Time),540017.0,A,flow,I,w,223,,4981.899999976158,535035.1000000238,8053,WL,A,2.0
2,6.947999954223633,learn,53052.00004577637,Tue Nov 11 2025 18:27:38 GMT-0600 (Central Standard Time),540266.9000000358,A,flowe,I,e,229,,5231.800000011921,535035.1000000238,8053,WL,A,2.0
2,7.0309998989105225,learn,52969.00010108948,Tue Nov 11 2025 18:27:38 GMT-0600 (Central Standard Time),540350.1000000238,A,flower,I,r,76,,5315.0,535035.1000000238,8053,WL,A,2.0
2,7.38100004196167,learn,52618.99995803833,Tue Nov 11 2025 18:27:38 GMT-0600 (Central Standard Time),540700.1000000238,A,flowerenter,I,enter,336,,5665.0,535035.1000000238,8053,WL,A,2.0
2,10.44700002670288,learn,49552.99997329712,Tue Nov 11 2025 18:27:38 GMT-0600 (Central Standard Time),543765.6000000238,A,r,I,r,3058,,3065.199999988079,540700.4000000358,8053,WL,A,3.0
2,10.746999979019165,learn,49253.000020980835,Tue Nov 11 2025 18:27:38 GMT-0600 (Central Standard Time),544065.8000000119,A,ru,I,u,289,,3365.399999976158,540700.4000000358,8053,WL,A,3.0
2,10.980000019073486,learn,49019.999980926514,Tue Nov 11 2025 18:27:38 GMT-0600 (Central Standard Time),544298.8000000119,A,rug,I,g,213,,3598.399999976158,540700.4000000358,8053,WL,A,3.0
2,11.36299991607666,learn,48637.00008392334,Tue Nov 11 2025 18:27:38 GMT-0600 (Central Standard Time),544682.0,A,rugenter,I,enter,371,,3981.599999964237,540700.4000000358,8053,WL,A,3.0
2,13.546000003814697,learn,46453.9999961853,Tue Nov 11 2025 18:27:38 GMT-0600 (Central Standard Time),546864.8000000119,A,m,I,m,2164,,2182.599999964237,544682.2000000477,8053,WL,A,4.0
2,13.69599986076355,learn,46304.00013923645,Tue Nov 11 2025 18:27:38 GMT-0600 (Central Standard Time),547014.7000000477,A,me,I,e,142,,2332.5,544682.2000000477,8053,WL,A,4.0
2,13.86299991607666,learn,46137.00008392334,Tue Nov 11 2025 18:27:38 GMT-0600 (Central Standard Time),547181.4000000358,A,mea,I,a,160,,2499.199999988079,544682.2000000477,8053,WL,A,4.0
2,14.161999940872192,learn,45838.00005912781,Tue Nov 11 2025 18:27:38 GMT-0600 (Central Standard Time),547481.3000000119,A,mead,I,d,289,,2799.099999964237,544682.2000000477,8053,WL,A,4.0
2,14.428999900817871,learn,45571.00009918213,Tue Nov 11 2025 18:27:38 GMT-0600 (Central Standard Time),547747.8000000119,A,meado,I,o,254,,3065.599999964237,544682.2000000477,8053,WL,A,4.0
2,14.615999937057495,learn,45384.000062942505,Tue Nov 11 2025 18:27:38 GMT-0600 (Central Standard Time),547934.4000000358,A,meadow,I,w,182,,3252.199999988079,544682.2000000477,8053,WL,A,4.0
2,15.029000043869019,learn,44970.99995613098,Tue Nov 11 2025 18:27:38 GMT-0600 (Central Standard Time),548348.0,A,meadowenter,I,enter,400,,3665.7999999523163,544682.2000000477,8053,WL,A,4.0
2,16.128000020980835,learn,43871.999979019165,Tue Nov 11 2025 18:27:38 GMT-0600 (Central Standard Time),549447.3000000119,A,h,I,h,1083,,1099.0,548348.3000000119,8053,WL,A,5.0
2,16.295000076293945,learn,43704.999923706055,Tue Nov 11 2025 18:27:38 GMT-0600 (Central Standard Time),549613.7000000477,A,ha,I,a,151,,1265.4000000357628,548348.3000000119,8053,WL,A,5.0
2,16.444999933242798,learn,43555.0000667572,Tue Nov 11 2025 18:27:38 GMT-0600 (Central Standard Time),549763.7000000477,A,har,I,r,137,,1415.4000000357628,548348.3000000119,8053,WL,A,5.0
2,16.694999933242798,learn,43305.0000667572,Tue Nov 11 2025 18:27:38 GMT-0600 (Central Standard Time),550013.9000000358,A,harp,I,p,243,,1665.6000000238419,548348.3000000119,8053,WL,A,5.0
2,17.027999877929688,learn,42972.00012207031,Tue Nov 11 2025 18:27:38 GMT-0600 (Central Standard Time),550346.8000000119,A,harpenter,I,enter,321,,1998.5,548348.3000000119,8053,WL,A,5.0
2,18.310999870300293,learn,41689.00012969971,Tue Nov 11 2025 18:27:38 GMT-0600 (Central Standard Time),551630.0,A,s,I,s,1276,,1282.8999999761581,550347.1000000238,8053,WL,A,6.0
2,18.560999870300293,learn,41439.00012969971,Tue Nov 11 2025 18:27:38 GMT-0600 (Central Standard Time),551879.7000000477,A,sa,I,a,232,,1532.6000000238419,550347.1000000238,8053,WL,A,6.0
2,18.793999910354614,learn,41206.000089645386,Tue Nov 11 2025 18:27:38 GMT-0600 (Central Standard Time),552113.1000000238,A,sal,I,l,215,,1766.0,550347.1000000238,8053,WL,A,6.0
2,19.99399995803833,learn,40006.00004196167,Tue Nov 11 2025 18:27:38 GMT-0600 (Central Standard Time),553312.7000000477,A,salt,I,t,1189,,2965.600000023842,550347.1000000238,8053,WL,A,6.0
2,20.359999895095825,learn,39640.000104904175,Tue Nov 11 2025 18:27:38 GMT-0600 (Central Standard Time),553679.3000000119,A,saltenter,I,enter,358,,3332.199999988079,550347.1000000238,8053,WL,A,6.0
2,21.72699999809265,learn,38273.00000190735,Tue Nov 11 2025 18:27:38 GMT-0600 (Central Standard Time),555045.4000000358,A,f,I,f,1359,,1365.800000011921,553679.6000000238,8053,WL,A,7.0
2,21.877000093460083,learn,38122.99990653992,Tue Nov 11 2025 18:27:38 GMT-0600 (Central Standard Time),555195.5,A,fi,I,i,137,,1515.8999999761581,553679.6000000238,8053,WL,A,7.0
2,22.109999895095825,learn,37890.000104904175,Tue Nov 11 2025 18:27:38 GMT-0600 (Central Standard Time),555428.7000000477,A,fin,I,n,226,,1749.1000000238419,553679.6000000238,8053,WL,A,7.0
2,22.460000038146973,learn,37539.99996185303,Tue Nov 11 2025 18:27:38 GMT-0600 (Central Standard Time),555778.9000000358,A,fing,I,g,330,,2099.300000011921,553679.6000000238,8053,WL,A,7.0
2,22.675999879837036,learn,37324.000120162964,Tue Nov 11 2025 18:27:38 GMT-0600 (Central Standard Time),555995.3000000119,A,finge,I,e,196,,2315.699999988079,553679.6000000238,8053,WL,A,7.0
2,22.792999982833862,learn,37207.00001716614,Tue Nov 11 2025 18:27:38 GMT-0600 (Central Standard Time),556111.9000000358,A,finger,I,r,99,,2432.300000011921,553679.6000000238,8053,WL,A,7.0
2,23.39299988746643,learn,36607.00011253357,Tue Nov 11 2025 18:27:38 GMT-0600 (Central Standard Time),556711.6000000238,A,fingerenter,I,enter,583,,3032.0,553679.6000000238,8053,WL,A,7.0
2,25.358999967575073,learn,34641.00003242493,Tue Nov 11 2025 18:27:38 GMT-0600 (Central Standard Time),558677.8000000119,A,a,I,a,1959,,1965.800000011921,556712.0,8053,WL,A,8.0
2,25.575999975204468,learn,34424.00002479553,Tue Nov 11 2025 18:27:38 GMT-0600 (Central Standard Time),558894.5,A,ap,I,p,208,,2182.5,556712.0,8053,WL,A,8.0
2,25.741999864578247,learn,34258.00013542175,Tue Nov 11 2025 18:27:38 GMT-0600 (Central Standard Time),559060.8000000119,A,app,I,p,152,,2348.800000011921,556712.0,8053,WL,A,8.0
2,26.02500009536743,learn,33974.99990463257,Tue Nov 11 2025 18:27:38 GMT-0600 (Central Standard Time),559344.2000000477,A,appl,I,l,274,,2632.2000000476837,556712.0,8053,WL,A,8.0
2,26.10800004005432,learn,33891.99995994568,Tue Nov 11 2025 18:27:38 GMT-0600 (Central Standard Time),559427.2000000477,A,apple,I,e,79,,2715.2000000476837,556712.0,8053,WL,A,8.0
2,26.308000087738037,learn,33691.99991226196,Tue Nov 11 2025 18:27:38 GMT-0600 (Central Standard Time),559627.4000000358,A,appleenter,I,enter,179,,2915.400000035763,556712.0,8053,WL,A,8.0
2,28.558000087738037,learn,31441.999912261963,Tue Nov 11 2025 18:27:38 GMT-0600 (Central Standard Time),561876.7000000477,A,c,I,c,2235,,2249.0,559627.7000000477,8053,WL,A,9.0
2,28.740999937057495,learn,31259.000062942505,Tue Nov 11 2025 18:27:38 GMT-0600 (Central Standard Time),562059.7000000477,A,ch,I,h,178,,2432.0,559627.7000000477,8053,WL,A,9.0
2,28.973999977111816,learn,31026.000022888184,Tue Nov 11 2025 18:27:38 GMT-0600 (Central Standard Time),562293.4000000358,A,chi,I,i,227,,2665.699999988079,559627.7000000477,8053,WL,A,9.0
2,29.257999897003174,learn,30742.000102996826,Tue Nov 11 2025 18:27:38 GMT-0600 (Central Standard Time),562576.4000000358,A,chim,I,m,273,,2948.699999988079,559627.7000000477,8053,WL,A,9.0
2,30.407000064849854,learn,29592.999935150146,Tue Nov 11 2025 18:27:38 GMT-0600 (Central Standard Time),563725.8000000119,A,chimn,I,n,1133,,4098.099999964237,559627.7000000477,8053,WL,A,9.0
2,30.79099988937378,learn,29209.00011062622,Tue Nov 11 2025 18:27:38 GMT-0600 (Central Standard Time),564109.6000000238,A,chimne,I,e,369,,4481.899999976158,559627.7000000477,8053,WL,A,9.0
2,31.007999897003174,learn,28992.000102996826,Tue Nov 11 2025 18:27:38 GMT-0600 (Central Standard Time),564327.1000000238,A,chimney,I,y,209,,4699.399999976158,559627.7000000477,8053,WL,A,9.0
2,31.323999881744385,learn,28676.000118255615,Tue Nov 11 2025 18:27:38 GMT-0600 (Central Standard Time),564642.7000000477,A,chimneyenter,I,enter,295,,5015.0,559627.7000000477,8053,WL,A,9.0
2,32.19000005722046,learn,27809.99994277954,Tue Nov 11 2025 18:27:38 GMT-0600 (Central Standard Time),565508.9000000358,A,b,I,b,851,,865.9000000357628,564643.0,8053,WL,A,10.0
2,32.67400002479553,learn,27325.999975204468,Tue Nov 11 2025 18:27:38 GMT-0600 (Central Standard Time),565993.2000000477,A,bu,I,u,466,,1350.2000000476837,564643.0,8053,WL,A,10.0
2,32.99000000953674,learn,27009.999990463257,Tue Nov 11 2025 18:27:38 GMT-0600 (Central Standard Time),566308.6000000238,A,but,I,t,308,,1665.6000000238419,564643.0,8053,WL,A,10.0
2,33.19000005722046,learn,26809.99994277954,Tue Nov 11 2025 18:27:38 GMT-0600 (Central Standard Time),566508.6000000238,A,butt,I,t,186,,1865.6000000238419,564643.0,8053,WL,A,10.0
2,33.32299995422363,learn,26677.000045776367,Tue Nov 11 2025 18:27:38 GMT-0600 (Central Standard Time),566642.2000000477,A,butto,I,o,121,,1999.2000000476837,564643.0,8053,WL,A,10.0
2,33.53999996185303,learn,26460.000038146973,Tue Nov 11 2025 18:27:38 GMT-0600 (Central Standard Time),566858.6000000238,A,button,I,n,195,,2215.600000023842,564643.0,8053,WL,A,10.0
2,33.83999991416931,learn,26160.00008583069,Tue Nov 11 2025 18:27:38 GMT-0600 (Central Standard Time),567158.4000000358,A,buttonenter,I,enter,292,,2515.400000035763,564643.0,8053,WL,A,10.0
2,37.787999868392944,learn,22212.000131607056,Tue Nov 11 2025 18:27:38 GMT-0600 (Central Standard Time),571107.2000000477,A,l,I,l,3929,,3948.5,567158.7000000477,8053,WL,A,11.0
2,38.200000047683716,learn,21799.999952316284,Tue Nov 11 2025 18:27:38 GMT-0600 (Central Standard Time),571518.6000000238,A,lo,I,o,406,,4359.899999976158,567158.7000000477,8053,WL,A,11.0
2,38.75499987602234,learn,21245.00012397766,Tue Nov 11 2025 18:27:38 GMT-0600 (Central Standard Time),572073.7000000477,A,log,I,g,535,,4915.0,567158.7000000477,8053,WL,A,11.0
2,38.954999923706055,learn,21045.000076293945,Tue Nov 11 2025 18:27:38 GMT-0600 (Central Standard Time),572273.6000000238,A,logenter,I,enter,189,,5114.899999976158,567158.7000000477,8053,WL,A,11.0
2,39.63800001144409,learn,20361.99998855591,Tue Nov 11 2025 18:27:38 GMT-0600 (Central Standard Time),572956.7000000477,A,k,I,k,677,,682.8000000119209,572273.9000000358,8053,WL,A,12.0
2,39.9210000038147,learn,20078.999996185303,Tue Nov 11 2025 18:27:38 GMT-0600 (Central Standard Time),573239.9000000358,A,ke,I,e,266,,966.0,572273.9000000358,8053,WL,A,12.0
2,40.1710000038147,learn,19828.999996185303,Tue Nov 11 2025 18:27:38 GMT-0600 (Central Standard Time),573489.8000000119,A,key,I,y,231,,1215.8999999761581,572273.9000000358,8053,WL,A,12.0
2,40.83699989318848,learn,19163.000106811523,Tue Nov 11 2025 18:27:38 GMT-0600 (Central Standard Time),574156.0,A,keyenter,I,enter,661,,1882.0999999642372,572273.9000000358,8053,WL,A,12.0
2,42.05399990081787,learn,17946.00009918213,Tue Nov 11 2025 18:27:38 GMT-0600 (Central Standard Time),575372.6000000238,A,g,I,g,1211,,1216.300000011921,574156.3000000119,8053,WL,A,13.0
2,42.25399994850159,learn,17746.000051498413,Tue Nov 11 2025 18:27:38 GMT-0600 (Central Standard Time),575572.5,A,go,I,o,194,,1416.199999988079,574156.3000000119,8053,WL,A,13.0
2,42.48699998855591,learn,17513.00001144409,Tue Nov 11 2025 18:27:38 GMT-0600 (Central Standard Time),575805.8000000119,A,gol,I,l,218,,1649.5,574156.3000000119,8053,WL,A,13.0
2,42.58699989318848,learn,17413.000106811523,Tue Nov 11 2025 18:27:38 GMT-0600 (Central Standard Time),575905.8000000119,A,gold,I,d,81,,1749.5,574156.3000000119,8053,WL,A,13.0
2,42.8529999256134,learn,17147.000074386597,Tue Nov 11 2025 18:27:38 GMT-0600 (Central Standard Time),576172.3000000119,A,goldenter,I,enter,253,,2016.0,574156.3000000119,8053,WL,A,13.0
2,43.3529999256134,learn,16647.000074386597,Tue Nov 11 2025 18:27:38 GMT-0600 (Central Standard Time),576672.2000000477,A,r,I,r,482,,499.60000002384186,576172.6000000238,8053,WL,A,14.0
2,43.63599991798401,learn,16364.000082015991,Tue Nov 11 2025 18:27:38 GMT-0600 (Central Standard Time),576955.3000000119,A,ra,I,a,270,,782.6999999880791,576172.6000000238,8053,WL,A,14.0
2,44.51900005340576,learn,15480.999946594238,Tue Nov 11 2025 18:27:38 GMT-0600 (Central Standard Time),577838.2000000477,A,rat,I,t,874,,1665.6000000238419,576172.6000000238,8053,WL,A,14.0
2,44.90299987792969,learn,15097.000122070312,Tue Nov 11 2025 18:27:38 GMT-0600 (Central Standard Time),578221.7000000477,A,ratt,I,t,368,,2049.100000023842,576172.6000000238,8053,WL,A,14.0
2,45.168999910354614,learn,14831.000089645386,Tue Nov 11 2025 18:27:38 GMT-0600 (Central Standard Time),578488.3000000119,A,rattl,I,l,249,,2315.699999988079,576172.6000000238,8053,WL,A,14.0
2,45.30299997329712,learn,14697.00002670288,Tue Nov 11 2025 18:27:38 GMT-0600 (Central Standard Time),578621.5,A,rattle,I,e,118,,2448.899999976158,576172.6000000238,8053,WL,A,14.0
2,46.10199999809265,learn,13898.000001907349,Tue Nov 11 2025 18:27:38 GMT-0600 (Central Standard Time),579421.3000000119,A,rattleenter,I,enter,784,,3248.699999988079,576172.6000000238,8053,WL,A,14.0
2,58.86500000953674,learn,1134.9999904632568,Tue Nov 11 2025 18:27:38 GMT-0600 (Central Standard Time),592184.3000000119,A,t,I,t,12745,,12762.599999964237,579421.7000000477,8053,WL,A,15.0
2,59.14800000190735,learn,851.9999980926514,Tue Nov 11 2025 18:27:38 GMT-0600 (Central Standard Time),592467.0,A,tr,I,r,262,,13045.299999952316,579421.7000000477,8053,WL,A,15.0
2,59.53099989891052,learn,469.00010108947754,Tue Nov 11 2025 18:27:38 GMT-0600 (Central Standard Time),592850.0,A,tra,I,a,371,,13428.299999952316,579421.7000000477,8053,WL,A,15.0
2,59.698999881744385,learn,301.00011825561523,Tue Nov 11 2025 18:27:38 GMT-0600 (Central Standard Time),593017.4000000358,A,trai,I,i,148,,13595.699999988079,579421.7000000477,8053,WL,A,15.0
2,59.91499996185303,learn,85.00003814697266,Tue Nov 11 2025 18:27:38 GMT-0600 (Central Standard Time),593233.6000000238,A,train,I,n,204,,13811.899999976158,579421.7000000477,8053,WL,A,15.0
2,60.014999866485596,learn,-14.999866485595703,Tue Nov 11 2025 18:27:38 GMT-0600 (Central Standard Time),593333.5,A,trainNone,I,None,95,,13911.799999952316,579421.7000000477,8053,WL,A,15.0
3,0.5989999771118164,learn,59401.00002288818,Tue Nov 11 2025 18:27:38 GMT-0600 (Central Standard Time),663361.8000000119,A,b,I,b,589,,599.5,662762.3000000119,8053,WL,A,1.0
3,0.8159999847412109,learn,59184.00001525879,Tue Nov 11 2025 18:27:38 GMT-0600 (Central Standard Time),663578.3000000119,A,bo,I,o,196,,816.0,662762.3000000119,8053,WL,A,1.0
3,0.9829998016357422,learn,59017.00019836426,Tue Nov 11 2025 18:27:38 GMT-0600 (Central Standard Time),663744.9000000358,A,boo,I,o,156,,982.6000000238419,662762.3000000119,8053,WL,A,1.0
3,1.182999849319458,learn,58817.00015068054,Tue Nov 11 2025 18:27:38 GMT-0600 (Central Standard Time),663945.0,A,book,I,k,182,,1182.699999988079,662762.3000000119,8053,WL,A,1.0
3,1.7819998264312744,learn,58218.000173568726,Tue Nov 11 2025 18:27:38 GMT-0600 (Central Standard Time),664544.8000000119,A,bookenter,I,enter,591,,1782.5,662762.3000000119,8053,WL,A,1.0
3,2.2819998264312744,learn,57718.000173568726,Tue Nov 11 2025 18:27:38 GMT-0600 (Central Standard Time),665044.7000000477,A,f,I,f,486,,499.60000002384186,664545.1000000238,8053,WL,A,2.0
3,2.4649999141693115,learn,57535.00008583069,Tue Nov 11 2025 18:27:38 GMT-0600 (Central Standard Time),665227.7000000477,A,fl,I,l,170,,682.6000000238419,664545.1000000238,8053,WL,A,2.0
3,2.681999921798706,learn,57318.000078201294,Tue Nov 11 2025 18:27:38 GMT-0600 (Central Standard Time),665444.4000000358,A,flo,I,o,202,,899.3000000119209,664545.1000000238,8053,WL,A,2.0
3,2.7319998741149902,learn,57268.00012588501,Tue Nov 11 2025 18:27:38 GMT-0600 (Central Standard Time),665494.3000000119,A,flow,I,w,33,,949.1999999880791,664545.1000000238,8053,WL,A,2.0
3,2.9789998531341553,learn,57021.000146865845,Tue Nov 11 2025 18:27:38 GMT-0600 (Central Standard Time),665740.9000000358,A,flowe,I,e,242,,1195.800000011921,664545.1000000238,8053,WL,A,2.0
3,3.125999927520752,learn,56874.00007247925,Tue Nov 11 2025 18:27:38 GMT-0600 (Central Standard Time),665888.6000000238,A,flower,I,r,142,,1343.5,664545.1000000238,8053,WL,A,2.0
3,3.5319998264312744,learn,56468.000173568726,Tue Nov 11 2025 18:27:38 GMT-0600 (Central Standard Time),666294.1000000238,A,flowerenter,I,enter,390,,1749.0,664545.1000000238,8053,WL,A,2.0
3,3.797999858856201,learn,56202.0001411438,Tue Nov 11 2025 18:27:38 GMT-0600 (Central Standard Time),666560.7000000477,A,t,I,t,249,,266.30000001192093,666294.4000000358,8053,WL,A,3.0
3,4.06499981880188,learn,55935.00018119812,Tue Nov 11 2025 18:27:38 GMT-0600 (Central Standard Time),666827.3000000119,A,tr,I,r,262,,532.8999999761581,666294.4000000358,8053,WL,A,3.0
3,4.580999851226807,learn,55419.00014877319,Tue Nov 11 2025 18:27:38 GMT-0600 (Central Standard Time),667343.7000000477,A,tra,I,a,499,,1049.300000011921,666294.4000000358,8053,WL,A,3.0
3,4.7809998989105225,learn,55219.00010108948,Tue Nov 11 2025 18:27:38 GMT-0600 (Central Standard Time),667543.8000000119,A,trai,I,i,182,,1249.3999999761581,666294.4000000358,8053,WL,A,3.0
3,5.047999858856201,learn,54952.0001411438,Tue Nov 11 2025 18:27:38 GMT-0600 (Central Standard Time),667810.6000000238,A,train,I,n,255,,1516.199999988079,666294.4000000358,8053,WL,A,3.0
3,5.297999858856201,learn,54702.0001411438,Tue Nov 11 2025 18:27:38 GMT-0600 (Central Standard Time),668060.2000000477,A,trainenter,I,enter,236,,1765.800000011921,666294.4000000358,8053,WL,A,3.0
3,6.346999883651733,learn,53653.00011634827,Tue Nov 11 2025 18:27:38 GMT-0600 (Central Standard Time),669109.9000000358,A,r,I,r,1035,,1049.4000000357628,668060.5,8053,WL,A,4.0
3,6.646999835968018,learn,53353.00016403198,Tue Nov 11 2025 18:27:38 GMT-0600 (Central Standard Time),669409.8000000119,A,ru,I,u,289,,1349.300000011921,668060.5,8053,WL,A,4.0
3,6.863999843597412,learn,53136.00015640259,Tue Nov 11 2025 18:27:38 GMT-0600 (Central Standard Time),669626.3000000119,A,rug,I,g,205,,1565.800000011921,668060.5,8053,WL,A,4.0
3,7.296999931335449,learn,52703.00006866455,Tue Nov 11 2025 18:27:38 GMT-0600 (Central Standard Time),670059.3000000119,A,rugenter,I,enter,427,,1998.800000011921,668060.5,8053,WL,A,4.0
3,8.346999883651733,learn,51653.00011634827,Tue Nov 11 2025 18:27:38 GMT-0600 (Central Standard Time),671109.3000000119,A,m,I,m,1043,,1049.800000011921,670059.5,8053,WL,A,5.0
3,8.446999788284302,learn,51553.0002117157,Tue Nov 11 2025 18:27:38 GMT-0600 (Central Standard Time),671209.1000000238,A,me,I,e,89,,1149.6000000238419,670059.5,8053,WL,A,5.0
3,8.79699993133545,learn,51203.00006866455,Tue Nov 11 2025 18:27:38 GMT-0600 (Central Standard Time),671559.0,A,mea,I,a,341,,1499.5,670059.5,8053,WL,A,5.0
3,9.162999868392944,learn,50837.000131607056,Tue Nov 11 2025 18:27:38 GMT-0600 (Central Standard Time),671925.8000000119,A,mead,I,d,360,,1866.300000011921,670059.5,8053,WL,A,5.0
3,9.329999923706055,learn,50670.000076293945,Tue Nov 11 2025 18:27:38 GMT-0600 (Central Standard Time),672092.0,A,meado,I,o,161,,2032.5,670059.5,8053,WL,A,5.0
3,9.52999997138977,learn,50470.00002861023,Tue Nov 11 2025 18:27:38 GMT-0600 (Central Standard Time),672292.4000000358,A,meadow,I,w,187,,2232.900000035763,670059.5,8053,WL,A,5.0
3,9.77999997138977,learn,50220.00002861023,Tue Nov 11 2025 18:27:38 GMT-0600 (Central Standard Time),672542.3000000119,A,meadowenter,I,enter,242,,2482.800000011921,670059.5,8053,WL,A,5.0
3,11.078999996185303,learn,48921.0000038147,Tue Nov 11 2025 18:27:38 GMT-0600 (Central Standard Time),673841.5,A,s,I,s,1280,,1298.8999999761581,672542.6000000238,8053,WL,A,6.0
3,11.312999963760376,learn,48687.000036239624,Tue Nov 11 2025 18:27:38 GMT-0600 (Central Standard Time),674075.0,A,sa,I,a,213,,1532.3999999761581,672542.6000000238,8053,WL,A,6.0
3,11.495999813079834,learn,48504.000186920166,Tue Nov 11 2025 18:27:38 GMT-0600 (Central Standard Time),674258.3000000119,A,sal,I,l,162,,1715.699999988079,672542.6000000238,8053,WL,A,6.0
3,11.728999853134155,learn,48271.000146865845,Tue Nov 11 2025 18:27:38 GMT-0600 (Central Standard Time),674491.5,A,salt,I,t,220,,1948.8999999761581,672542.6000000238,8053,WL,A,6.0
3,12.013000011444092,learn,47986.99998855591,Tue Nov 11 2025 18:27:38 GMT-0600 (Central Standard Time),674774.9000000358,A,saltenter,I,enter,275,,2232.300000011921,672542.6000000238,8053,WL,A,6.0
3,13.678999900817871,learn,46321.00009918213,Tue Nov 11 2025 18:27:38 GMT-0600 (Central Standard Time),676441.0,A,f,I,f,1648,,1665.699999988079,674775.3000000119,8053,WL,A,7.0
3,13.84499979019165,learn,46155.00020980835,Tue Nov 11 2025 18:27:38 GMT-0600 (Central Standard Time),676607.8000000119,A,fi,I,i,149,,1832.5,674775.3000000119,8053,WL,A,7.0
3,14.061999797821045,learn,45938.000202178955,Tue Nov 11 2025 18:27:38 GMT-0600 (Central Standard Time),676824.0,A,fin,I,n,207,,2048.699999988079,674775.3000000119,8053,WL,A,7.0
3,14.34499979019165,learn,45655.00020980835,Tue Nov 11 2025 18:27:38 GMT-0600 (Central Standard Time),677107.2000000477,A,fing,I,g,278,,2331.900000035763,674775.3000000119,8053,WL,A,7.0
3,14.544999837875366,learn,45455.000162124634,Tue Nov 11 2025 18:27:38 GMT-0600 (Central Standard Time),677307.2000000477,A,finge,I,e,195,,2531.900000035763,674775.3000000119,8053,WL,A,7.0
3,14.644999980926514,learn,45355.000019073486,Tue Nov 11 2025 18:27:38 GMT-0600 (Central Standard Time),677407.2000000477,A,finger,I,r,92,,2631.900000035763,674775.3000000119,8053,WL,A,7.0
3,14.894999980926514,learn,45105.000019073486,Tue Nov 11 2025 18:27:38 GMT-0600 (Central Standard Time),677657.4000000358,A,fingerenter,I,enter,231,,2882.100000023842,674775.3000000119,8053,WL,A,7.0
3,15.59499979019165,learn,44405.00020980835,Tue Nov 11 2025 18:27:38 GMT-0600 (Central Standard Time),678357.0,A,a,I,a,693,,699.3999999761581,677657.6000000238,8053,WL,A,8.0
3,15.760999917984009,learn,44239.00008201599,Tue Nov 11 2025 18:27:38 GMT-0600 (Central Standard Time),678523.8000000119,A,ap,I,p,163,,866.1999999880791,677657.6000000238,8053,WL,A,8.0
3,15.944000005722046,learn,44055.999994277954,Tue Nov 11 2025 18:27:38 GMT-0600 (Central Standard Time),678706.8000000119,A,app,I,p,163,,1049.199999988079,677657.6000000238,8053,WL,A,8.0
3,16.17799997329712,learn,43822.00002670288,Tue Nov 11 2025 18:27:38 GMT-0600 (Central Standard Time),678939.9000000358,A,appl,I,l,219,,1282.300000011921,677657.6000000238,8053,WL,A,8.0
3,16.26099991798401,learn,43739.00008201599,Tue Nov 11 2025 18:27:38 GMT-0600 (Central Standard Time),679023.4000000358,A,apple,I,e,75,,1365.800000011921,677657.6000000238,8053,WL,A,8.0
3,16.526999950408936,learn,43473.000049591064,Tue Nov 11 2025 18:27:38 GMT-0600 (Central Standard Time),679289.8000000119,A,appleenter,I,enter,247,,1632.199999988079,677657.6000000238,8053,WL,A,8.0
3,17.276999950408936,learn,42723.000049591064,Tue Nov 11 2025 18:27:38 GMT-0600 (Central Standard Time),680039.7000000477,A,c,I,c,740,,749.8000000119209,679289.9000000358,8053,WL,A,9.0
3,17.42799997329712,learn,42572.00002670288,Tue Nov 11 2025 18:27:38 GMT-0600 (Central Standard Time),680189.8000000119,A,ch,I,h,135,,899.8999999761581,679289.9000000358,8053,WL,A,9.0
3,17.610999822616577,learn,42389.00017738342,Tue Nov 11 2025 18:27:38 GMT-0600 (Central Standard Time),680372.9000000358,A,chi,I,i,169,,1083.0,679289.9000000358,8053,WL,A,9.0
3,17.860999822616577,learn,42139.00017738342,Tue Nov 11 2025 18:27:38 GMT-0600 (Central Standard Time),680623.0,A,chim,I,m,242,,1333.0999999642372,679289.9000000358,8053,WL,A,9.0
3,18.259999990463257,learn,41740.00000953674,Tue Nov 11 2025 18:27:38 GMT-0600 (Central Standard Time),681022.8000000119,A,chimn,I,n,392,,1732.8999999761581,679289.9000000358,8053,WL,A,9.0
3,18.426999807357788,learn,41573.00019264221,Tue Nov 11 2025 18:27:38 GMT-0600 (Central Standard Time),681189.3000000119,A,chimne,I,e,152,,1899.3999999761581,679289.9000000358,8053,WL,A,9.0
3,19.07699990272522,learn,40923.00009727478,Tue Nov 11 2025 18:27:38 GMT-0600 (Central Standard Time),681839.2000000477,A,chimneu,I,u,633,,2549.300000011921,679289.9000000358,8053,WL,A,9.0
3,19.64299988746643,learn,40357.00011253357,Tue Nov 11 2025 18:27:38 GMT-0600 (Central Standard Time),682405.6000000238,A,chimne,I,backspace,560,,3115.699999988079,679289.9000000358,8053,WL,A,9.0
3,20.509999990463257,learn,39490.00000953674,Tue Nov 11 2025 18:27:38 GMT-0600 (Central Standard Time),683272.2000000477,A,chimney,I,y,849,,3982.300000011921,679289.9000000358,8053,WL,A,9.0
3,20.859999895095825,learn,39140.000104904175,Tue Nov 11 2025 18:27:38 GMT-0600 (Central Standard Time),683622.2000000477,A,chimneyenter,I,enter,342,,4332.300000011921,679289.9000000358,8053,WL,A,9.0
3,21.65999984741211,learn,38340.00015258789,Tue Nov 11 2025 18:27:38 GMT-0600 (Central Standard Time),684421.9000000358,A,b,I,b,785,,799.5,683622.4000000358,8053,WL,A,10.0
3,21.97599983215332,learn,38024.00016784668,Tue Nov 11 2025 18:27:38 GMT-0600 (Central Standard Time),684738.4000000358,A,bu,I,u,296,,1116.0,683622.4000000358,8053,WL,A,10.0
3,22.22599983215332,learn,37774.00016784668,Tue Nov 11 2025 18:27:38 GMT-0600 (Central Standard Time),684988.1000000238,A,but,I,t,244,,1365.699999988079,683622.4000000358,8053,WL,A,10.0
3,22.408999919891357,learn,37591.00008010864,Tue Nov 11 2025 18:27:38 GMT-0600 (Central Standard Time),685171.5,A,butt,I,t,178,,1549.0999999642372,683622.4000000358,8053,WL,A,10.0
3,22.575999975204468,learn,37424.00002479553,Tue Nov 11 2025 18:27:38 GMT-0600 (Central Standard Time),685338.0,A,butto,I,o,146,,1715.5999999642372,683622.4000000358,8053,WL,A,10.0
3,22.775999784469604,learn,37224.000215530396,Tue Nov 11 2025 18:27:38 GMT-0600 (Central Standard Time),685538.3000000119,A,button,I,n,180,,1915.8999999761581,683622.4000000358,8053,WL,A,10.0
3,23.025999784469604,learn,36974.000215530396,Tue Nov 11 2025 18:27:38 GMT-0600 (Central Standard Time),685787.9000000358,A,buttonenter,I,enter,236,,2165.5,683622.4000000358,8053,WL,A,10.0
3,24.108999967575073,learn,35891.00003242493,Tue Nov 11 2025 18:27:38 GMT-0600 (Central Standard Time),686871.1000000238,A,l,I,l,1067,,1083.0,685788.1000000238,8053,WL,A,11.0
3,24.30900001525879,learn,35690.99998474121,Tue Nov 11 2025 18:27:38 GMT-0600 (Central Standard Time),687070.9000000358,A,lo,I,o,191,,1282.800000011921,685788.1000000238,8053,WL,A,11.0
3,24.424999952316284,learn,35575.000047683716,Tue Nov 11 2025 18:27:38 GMT-0600 (Central Standard Time),687187.4000000358,A,log,I,g,104,,1399.300000011921,685788.1000000238,8053,WL,A,11.0
3,24.608999967575073,learn,35391.00003242493,Tue Nov 11 2025 18:27:38 GMT-0600 (Central Standard Time),687370.8000000119,A,logenter,I,enter,163,,1582.699999988079,685788.1000000238,8053,WL,A,11.0
3,25.407999992370605,learn,34592.000007629395,Tue Nov 11 2025 18:27:38 GMT-0600 (Central Standard Time),688170.6000000238,A,k,I,k,780,,799.3999999761581,687371.2000000477,8053,WL,A,12.0
3,25.557999849319458,learn,34442.00015068054,Tue Nov 11 2025 18:27:38 GMT-0600 (Central Standard Time),688320.3000000119,A,ke,I,e,132,,949.0999999642372,687371.2000000477,8053,WL,A,12.0
3,25.774999856948853,learn,34225.00014305115,Tue Nov 11 2025 18:27:38 GMT-0600 (Central Standard Time),688537.2000000477,A,key,I,y,198,,1166.0,687371.2000000477,8053,WL,A,12.0
3,26.140999794006348,learn,33859.00020599365,Tue Nov 11 2025 18:27:38 GMT-0600 (Central Standard Time),688903.7000000477,A,keyenter,I,enter,349,,1532.5,687371.2000000477,8053,WL,A,12.0
3,26.536999940872192,learn,33463.00005912781,Tue Nov 11 2025 18:27:38 GMT-0600 (Central Standard Time),689299.1000000238,A,r,I,r,391,,394.89999997615814,688904.2000000477,8053,WL,A,13.0
3,26.857999801635742,learn,33142.00019836426,Tue Nov 11 2025 18:27:38 GMT-0600 (Central Standard Time),689620.0,A,ra,I,a,306,,715.7999999523163,688904.2000000477,8053,WL,A,13.0
3,27.2739999294281,learn,32726.0000705719,Tue Nov 11 2025 18:27:38 GMT-0600 (Central Standard Time),690036.5,A,rat,I,t,412,,1132.2999999523163,688904.2000000477,8053,WL,A,13.0
3,27.473999977111816,learn,32526.000022888184,Tue Nov 11 2025 18:27:38 GMT-0600 (Central Standard Time),690236.2000000477,A,ratt,I,t,194,,1332.0,688904.2000000477,8053,WL,A,13.0
3,27.740999937057495,learn,32259.000062942505,Tue Nov 11 2025 18:27:38 GMT-0600 (Central Standard Time),690503.1000000238,A,rattl,I,l,258,,1598.8999999761581,688904.2000000477,8053,WL,A,13.0
3,27.87399983406067,learn,32126.00016593933,Tue Nov 11 2025 18:27:38 GMT-0600 (Central Standard Time),690636.4000000358,A,rattle,I,e,119,,1732.199999988079,688904.2000000477,8053,WL,A,13.0
3,28.04099988937378,learn,31959.00011062622,Tue Nov 11 2025 18:27:38 GMT-0600 (Central Standard Time),690803.0,A,rattleenter,I,enter,162,,1898.7999999523163,688904.2000000477,8053,WL,A,13.0
3,29.323999881744385,learn,30676.000118255615,Tue Nov 11 2025 18:27:38 GMT-0600 (Central Standard Time),692086.1000000238,A,g,I,g,1267,,1282.8999999761581,690803.2000000477,8053,WL,A,14.0
3,29.556999921798706,learn,30443.000078201294,Tue Nov 11 2025 18:27:38 GMT-0600 (Central Standard Time),692319.3000000119,A,go,I,o,217,,1516.0999999642372,690803.2000000477,8053,WL,A,14.0
3,29.7739999294281,learn,30226.0000705719,Tue Nov 11 2025 18:27:38 GMT-0600 (Central Standard Time),692535.9000000358,A,gol,I,l,199,,1732.699999988079,690803.2000000477,8053,WL,A,14.0
3,29.85699987411499,learn,30143.00012588501,Tue Nov 11 2025 18:27:38 GMT-0600 (Central Standard Time),692619.2000000477,A,gold,I,d,71,,1816.0,690803.2000000477,8053,WL,A,14.0
3,30.039999961853027,learn,29960.000038146973,Tue Nov 11 2025 18:27:38 GMT-0600 (Central Standard Time),692802.7000000477,A,goldenter,I,enter,163,,1999.5,690803.2000000477,8053,WL,A,14.0
3,57.89800000190735,learn,2101.9999980926514,Tue Nov 11 2025 18:27:38 GMT-0600 (Central Standard Time),720660.2000000477,A,enter,I,enter,27852,,27857.200000047684,692803.0,8053,WL,A,15.0
4,0.7829999923706055,learn,59217.000007629395,Tue Nov 11 2025 18:27:38 GMT-0600 (Central Standard Time),791172.7000000477,A,b,I,b,770,,782.7000000476837,790390.0,8053,WL,A,1.0
4,1.3480000495910645,learn,58651.999950408936,Tue Nov 11 2025 18:27:38 GMT-0600 (Central Standard Time),791738.2000000477,A,bo,I,o,553,,1348.2000000476837,790390.0,8053,WL,A,1.0
4,1.5150001049041748,learn,58484.999895095825,Tue Nov 11 2025 18:27:38 GMT-0600 (Central Standard Time),791904.6000000238,A,boo,I,o,156,,1514.6000000238419,790390.0,8053,WL,A,1.0
4,1.7150001525878906,learn,58284.99984741211,Tue Nov 11 2025 18:27:38 GMT-0600 (Central Standard Time),792104.7000000477,A,book,I,k,190,,1714.7000000476837,790390.0,8053,WL,A,1.0
4,2.0480000972747803,learn,57951.99990272522,Tue Nov 11 2025 18:27:38 GMT-0600 (Central Standard Time),792438.2000000477,A,bookenter,I,enter,319,,2048.2000000476837,790390.0,8053,WL,A,1.0
4,2.697999954223633,learn,57302.00004577637,Tue Nov 11 2025 18:27:38 GMT-0600 (Central Standard Time),793087.8000000119,A,f,I,f,641,,649.3000000119209,792438.5,8053,WL,A,2.0
4,2.865000009536743,learn,57134.99999046326,Tue Nov 11 2025 18:27:38 GMT-0600 (Central Standard Time),793254.4000000358,A,fl,I,l,151,,815.9000000357628,792438.5,8053,WL,A,2.0
4,3.0810000896453857,learn,56918.999910354614,Tue Nov 11 2025 18:27:38 GMT-0600 (Central Standard Time),793470.8000000119,A,flo,I,o,200,,1032.300000011921,792438.5,8053,WL,A,2.0
4,3.13100004196167,learn,56868.99995803833,Tue Nov 11 2025 18:27:38 GMT-0600 (Central Standard Time),793521.0,A,flow,I,w,32,,1082.5,792438.5,8053,WL,A,2.0
4,3.3310000896453857,learn,56668.999910354614,Tue Nov 11 2025 18:27:38 GMT-0600 (Central Standard Time),793720.8000000119,A,flowe,I,e,182,,1282.300000011921,792438.5,8053,WL,A,2.0
4,3.4160001277923584,learn,56583.99987220764,Tue Nov 11 2025 18:27:38 GMT-0600 (Central Standard Time),793805.4000000358,A,flower,I,r,78,,1366.9000000357628,792438.5,8053,WL,A,2.0
4,3.88100004196167,learn,56118.99995803833,Tue Nov 11 2025 18:27:38 GMT-0600 (Central Standard Time),794270.8000000119,A,flowerenter,I,enter,449,,1832.300000011921,792438.5,8053,WL,A,2.0
4,4.430999994277954,learn,55569.000005722046,Tue Nov 11 2025 18:27:38 GMT-0600 (Central Standard Time),794820.7000000477,A,t,I,t,536,,549.6000000238419,794271.1000000238,8053,WL,A,3.0
4,4.664000034332275,learn,55335.999965667725,Tue Nov 11 2025 18:27:38 GMT-0600 (Central Standard Time),795053.7000000477,A,tr,I,r,226,,782.6000000238419,794271.1000000238,8053,WL,A,3.0
4,4.864000082015991,learn,55135.99991798401,Tue Nov 11 2025 18:27:38 GMT-0600 (Central Standard Time),795253.8000000119,A,tra,I,a,193,,982.6999999880791,794271.1000000238,8053,WL,A,3.0
4,5.046999931335449,learn,54953.00006866455,Tue Nov 11 2025 18:27:38 GMT-0600 (Central Standard Time),795437.2000000477,A,trai,I,i,169,,1166.1000000238419,794271.1000000238,8053,WL,A,3.0
4,5.330000162124634,learn,54669.999837875366,Tue Nov 11 2025 18:27:38 GMT-0600 (Central Standard Time),795720.3000000119,A,train,I,n,263,,1449.199999988079,794271.1000000238,8053,WL,A,3.0
4,5.581000089645386,learn,54418.999910354614,Tue Nov 11 2025 18:27:38 GMT-0600 (Central Standard Time),795970.4000000358,A,trainenter,I,enter,230,,1699.300000011921,794271.1000000238,8053,WL,A,3.0
4,6.114000082015991,learn,53885.99991798401,Tue Nov 11 2025 18:27:38 GMT-0600 (Central Standard Time),796503.6000000238,A,r,I,r,524,,533.0,795970.6000000238,8053,WL,A,4.0
4,6.314000129699707,learn,53685.99987030029,Tue Nov 11 2025 18:27:38 GMT-0600 (Central Standard Time),796703.5,A,ru,I,u,191,,732.8999999761581,795970.6000000238,8053,WL,A,4.0
4,6.496999979019165,learn,53503.000020980835,Tue Nov 11 2025 18:27:38 GMT-0600 (Central Standard Time),796886.7000000477,A,rug,I,g,167,,916.1000000238419,795970.6000000238,8053,WL,A,4.0
4,6.713000059127808,learn,53286.99994087219,Tue Nov 11 2025 18:27:38 GMT-0600 (Central Standard Time),797103.2000000477,A,rugenter,I,enter,200,,1132.6000000238419,795970.6000000238,8053,WL,A,4.0
4,7.647000074386597,learn,52352.9999256134,Tue Nov 11 2025 18:27:38 GMT-0600 (Central Standard Time),798036.6000000238,A,m,I,m,928,,933.1000000238419,797103.5,8053,WL,A,5.0
4,7.730000019073486,learn,52269.999980926514,Tue Nov 11 2025 18:27:38 GMT-0600 (Central Standard Time),798119.5,A,me,I,e,66,,1016.0,797103.5,8053,WL,A,5.0
4,7.913000106811523,learn,52086.99989318848,Tue Nov 11 2025 18:27:38 GMT-0600 (Central Standard Time),798302.9000000358,A,mea,I,a,167,,1199.4000000357628,797103.5,8053,WL,A,5.0
4,8.146000146865845,learn,51853.999853134155,Tue Nov 11 2025 18:27:38 GMT-0600 (Central Standard Time),798536.0,A,mead,I,d,224,,1432.5,797103.5,8053,WL,A,5.0
4,8.312999963760376,learn,51687.000036239624,Tue Nov 11 2025 18:27:38 GMT-0600 (Central Standard Time),798702.7000000477,A,meado,I,o,151,,1599.2000000476837,797103.5,8053,WL,A,5.0
4,8.479000091552734,learn,51520.999908447266,Tue Nov 11 2025 18:27:38 GMT-0600 (Central Standard Time),798869.1000000238,A,meadow,I,w,160,,1765.6000000238419,797103.5,8053,WL,A,5.0
4,8.963000059127808,learn,51036.99994087219,Tue Nov 11 2025 18:27:38 GMT-0600 (Central Standard Time),799352.5,A,meadowenter,I,enter,465,,2249.0,797103.5,8053,WL,A,5.0
4,9.496000051498413,learn,50503.99994850159,Tue Nov 11 2025 18:27:38 GMT-0600 (Central Standard Time),799885.6000000238,A,h,I,h,518,,532.8000000119209,799352.8000000119,8053,WL,A,6.0
4,9.611999988555908,learn,50388.00001144409,Tue Nov 11 2025 18:27:38 GMT-0600 (Central Standard Time),800002.1000000238,A,ha,I,a,105,,649.3000000119209,799352.8000000119,8053,WL,A,6.0
4,10.111999988555908,learn,49888.00001144409,Tue Nov 11 2025 18:27:38 GMT-0600 (Central Standard Time),800502.1000000238,A,har,I,r,485,,1149.300000011921,799352.8000000119,8053,WL,A,6.0
4,10.413000106811523,learn,49586.99989318848,Tue Nov 11 2025 18:27:38 GMT-0600 (Central Standard Time),800802.4000000358,A,harp,I,p,280,,1449.6000000238419,799352.8000000119,8053,WL,A,6.0
4,10.745000123977661,learn,49254.99987602234,Tue Nov 11 2025 18:27:38 GMT-0600 (Central Standard Time),801135.2000000477,A,harpenter,I,enter,316,,1782.4000000357628,799352.8000000119,8053,WL,A,6.0
4,13.07800006866455,learn,46921.99993133545,Tue Nov 11 2025 18:27:38 GMT-0600 (Central Standard Time),803467.5,A,s,I,s,2328,,2331.899999976158,801135.6000000238,8053,WL,A,7.0
4,13.261000156402588,learn,46738.99984359741,Tue Nov 11 2025 18:27:38 GMT-0600 (Central Standard Time),803651.0,A,sl,I,l,179,,2515.399999976158,801135.6000000238,8053,WL,A,7.0
4,13.496000051498413,learn,46503.99994850159,Tue Nov 11 2025 18:27:38 GMT-0600 (Central Standard Time),803885.6000000238,A,sla,I,a,227,,2750.0,801135.6000000238,8053,WL,A,7.0
4,13.92799997329712,learn,46072.00002670288,Tue Nov 11 2025 18:27:38 GMT-0600 (Central Standard Time),804317.4000000358,A,sl,I,backspace,425,,3181.800000011921,801135.6000000238,8053,WL,A,7.0
4,14.111000061035156,learn,45888.999938964844,Tue Nov 11 2025 18:27:38 GMT-0600 (Central Standard Time),804501.0,A,s,I,backspace,169,,3365.399999976158,801135.6000000238,8053,WL,A,7.0
4,14.226999998092651,learn,45773.00000190735,Tue Nov 11 2025 18:27:38 GMT-0600 (Central Standard Time),804617.1000000238,A,sa,I,a,105,,3481.5,801135.6000000238,8053,WL,A,7.0
4,14.41100001335144,learn,45588.99998664856,Tue Nov 11 2025 18:27:38 GMT-0600 (Central Standard Time),804800.9000000358,A,sal,I,l,171,,3665.300000011921,801135.6000000238,8053,WL,A,7.0
4,15.127000093460083,learn,44872.99990653992,Tue Nov 11 2025 18:27:38 GMT-0600 (Central Standard Time),805516.9000000358,A,salt,I,t,710,,4381.300000011921,801135.6000000238,8053,WL,A,7.0
4,15.74399995803833,learn,44256.00004196167,Tue Nov 11 2025 18:27:38 GMT-0600 (Central Standard Time),806133.6000000238,A,saltenter,I,enter,602,,4998.0,801135.6000000238,8053,WL,A,7.0
4,16.360000133514404,learn,43639.999866485596,Tue Nov 11 2025 18:27:38 GMT-0600 (Central Standard Time),806750.3000000119,A,f,I,f,601,,616.3000000119209,806134.0,8053,WL,A,8.0
4,16.493000030517578,learn,43506.99996948242,Tue Nov 11 2025 18:27:38 GMT-0600 (Central Standard Time),806883.3000000119,A,fi,I,i,120,,749.3000000119209,806134.0,8053,WL,A,8.0
4,16.758000135421753,learn,43241.99986457825,Tue Nov 11 2025 18:27:38 GMT-0600 (Central Standard Time),807147.5,A,fin,I,n,259,,1013.5,806134.0,8053,WL,A,8.0
4,17.05999994277954,learn,42940.00005722046,Tue Nov 11 2025 18:27:38 GMT-0600 (Central Standard Time),807449.5,A,fing,I,g,290,,1315.5,806134.0,8053,WL,A,8.0
4,17.292999982833862,learn,42707.00001716614,Tue Nov 11 2025 18:27:38 GMT-0600 (Central Standard Time),807683.1000000238,A,finge,I,e,221,,1549.1000000238419,806134.0,8053,WL,A,8.0
4,17.377000093460083,learn,42622.99990653992,Tue Nov 11 2025 18:27:38 GMT-0600 (Central Standard Time),807766.4000000358,A,finger,I,r,68,,1632.4000000357628,806134.0,8053,WL,A,8.0
4,17.66000008583069,learn,42339.99991416931,Tue Nov 11 2025 18:27:38 GMT-0600 (Central Standard Time),808049.8000000119,A,fingerenter,I,enter,272,,1915.800000011921,806134.0,8053,WL,A,8.0
4,19.292999982833862,learn,40707.00001716614,Tue Nov 11 2025 18:27:38 GMT-0600 (Central Standard Time),809682.6000000238,A,c,I,c,1621,,1632.6000000238419,808050.0,8053,WL,A,9.0
4,19.492000102996826,learn,40507.999897003174,Tue Nov 11 2025 18:27:38 GMT-0600 (Central Standard Time),809882.3000000119,A,ch,I,h,180,,1832.300000011921,808050.0,8053,WL,A,9.0
4,19.70900011062622,learn,40290.99988937378,Tue Nov 11 2025 18:27:38 GMT-0600 (Central Standard Time),810099.1000000238,A,chi,I,i,204,,2049.100000023842,808050.0,8053,WL,A,9.0
4,20.009000062942505,learn,39990.999937057495,Tue Nov 11 2025 18:27:38 GMT-0600 (Central Standard Time),810399.0,A,chim,I,m,291,,2349.0,808050.0,8053,WL,A,9.0
4,21.05900001525879,learn,38940.99998474121,Tue Nov 11 2025 18:27:38 GMT-0600 (Central Standard Time),811448.6000000238,A,chimn,I,n,1040,,3398.600000023842,808050.0,8053,WL,A,9.0
4,21.242000102996826,learn,38757.999897003174,Tue Nov 11 2025 18:27:38 GMT-0600 (Central Standard Time),811632.0,A,chimne,I,e,174,,3582.0,808050.0,8053,WL,A,9.0
4,21.492000102996826,learn,38507.999897003174,Tue Nov 11 2025 18:27:38 GMT-0600 (Central Standard Time),811882.0,A,chimney,I,y,238,,3832.0,808050.0,8053,WL,A,9.0
4,22.192000150680542,learn,37807.99984931946,Tue Nov 11 2025 18:27:38 GMT-0600 (Central Standard Time),812581.6000000238,A,chimneyenter,I,enter,685,,4531.600000023842,808050.0,8053,WL,A,9.0
4,22.45799994468689,learn,37542.00005531311,Tue Nov 11 2025 18:27:38 GMT-0600 (Central Standard Time),812848.1000000238,A,b,I,b,257,,266.10000002384186,812582.0,8053,WL,A,10.0
4,22.64199995994568,learn,37358.00004005432,Tue Nov 11 2025 18:27:38 GMT-0600 (Central Standard Time),813031.4000000358,A,bu,I,u,167,,449.4000000357628,812582.0,8053,WL,A,10.0
4,22.907999992370605,learn,37092.000007629395,Tue Nov 11 2025 18:27:38 GMT-0600 (Central Standard Time),813298.3000000119,A,but,I,t,255,,716.3000000119209,812582.0,8053,WL,A,10.0
4,23.10800004005432,learn,36891.99995994568,Tue Nov 11 2025 18:27:38 GMT-0600 (Central Standard Time),813498.0,A,butt,I,t,188,,916.0,812582.0,8053,WL,A,10.0
4,23.242000102996826,learn,36757.999897003174,Tue Nov 11 2025 18:27:38 GMT-0600 (Central Standard Time),813631.3000000119,A,butto,I,o,125,,1049.300000011921,812582.0,8053,WL,A,10.0
4,23.490999937057495,learn,36509.000062942505,Tue Nov 11 2025 18:27:38 GMT-0600 (Central Standard Time),813881.1000000238,A,button,I,n,231,,1299.1000000238419,812582.0,8053,WL,A,10.0
4,23.808000087738037,learn,36191.99991226196,Tue Nov 11 2025 18:27:38 GMT-0600 (Central Standard Time),814197.9000000358,A,buttonenter,I,enter,302,,1615.9000000357628,812582.0,8053,WL,A,10.0
4,25.874000072479248,learn,34125.99992752075,Tue Nov 11 2025 18:27:38 GMT-0600 (Central Standard Time),816264.1000000238,A,l,I,l,2056,,2065.800000011921,814198.3000000119,8053,WL,A,11.0
4,26.074000120162964,learn,33925.999879837036,Tue Nov 11 2025 18:27:38 GMT-0600 (Central Standard Time),816463.8000000119,A,lo,I,o,191,,2265.5,814198.3000000119,8053,WL,A,11.0
4,26.240000009536743,learn,33759.99999046326,Tue Nov 11 2025 18:27:38 GMT-0600 (Central Standard Time),816630.2000000477,A,log,I,g,159,,2431.900000035763,814198.3000000119,8053,WL,A,11.0
4,26.457000017166138,learn,33542.99998283386,Tue Nov 11 2025 18:27:38 GMT-0600 (Central Standard Time),816847.0,A,logenter,I,enter,208,,2648.699999988079,814198.3000000119,8053,WL,A,11.0
4,28.17300009727478,learn,31826.99990272522,Tue Nov 11 2025 18:27:38 GMT-0600 (Central Standard Time),818563.2000000477,A,k,I,k,1696,,1715.800000011921,816847.4000000358,8053,WL,A,12.0
4,28.373000144958496,learn,31626.999855041504,Tue Nov 11 2025 18:27:38 GMT-0600 (Central Standard Time),818763.0,A,ke,I,e,188,,1915.5999999642372,816847.4000000358,8053,WL,A,12.0
4,28.557000160217285,learn,31442.999839782715,Tue Nov 11 2025 18:27:38 GMT-0600 (Central Standard Time),818946.3000000119,A,key,I,y,164,,2098.899999976158,816847.4000000358,8053,WL,A,12.0
4,28.973000049591064,learn,31026.999950408936,Tue Nov 11 2025 18:27:38 GMT-0600 (Central Standard Time),819362.9000000358,A,keyenter,I,enter,404,,2515.5,816847.4000000358,8053,WL,A,12.0
4,29.69000005722046,learn,30309.99994277954,Tue Nov 11 2025 18:27:38 GMT-0600 (Central Standard Time),820079.3000000119,A,r,I,r,708,,715.8999999761581,819363.4000000358,8053,WL,A,13.0
4,30.022000074386597,learn,29977.999925613403,Tue Nov 11 2025 18:27:38 GMT-0600 (Central Standard Time),820412.3000000119,A,ra,I,a,327,,1048.8999999761581,819363.4000000358,8053,WL,A,13.0
4,30.42300009727478,learn,29576.99990272522,Tue Nov 11 2025 18:27:38 GMT-0600 (Central Standard Time),820812.5,A,rat,I,t,386,,1449.0999999642372,819363.4000000358,8053,WL,A,13.0
4,30.638999938964844,learn,29361.000061035156,Tue Nov 11 2025 18:27:38 GMT-0600 (Central Standard Time),821028.9000000358,A,ratt,I,t,202,,1665.5,819363.4000000358,8053,WL,A,13.0
4,30.85599994659424,learn,29144.00005340576,Tue Nov 11 2025 18:27:38 GMT-0600 (Central Standard Time),821245.5,A,rattl,I,l,210,,1882.0999999642372,819363.4000000358,8053,WL,A,13.0
4,30.973000049591064,learn,29026.999950408936,Tue Nov 11 2025 18:27:38 GMT-0600 (Central Standard Time),821362.6000000238,A,rattle,I,e,105,,1999.199999988079,819363.4000000358,8053,WL,A,13.0
4,31.1560001373291,learn,28843.9998626709,Tue Nov 11 2025 18:27:38 GMT-0600 (Central Standard Time),821545.5,A,rattleenter,I,enter,172,,2182.099999964237,819363.4000000358,8053,WL,A,13.0
4,32.3050000667572,learn,27694.999933242798,Tue Nov 11 2025 18:27:38 GMT-0600 (Central Standard Time),822695.2000000477,A,g,I,g,1141,,1149.300000011921,821545.9000000358,8053,WL,A,14.0
4,32.455000162124634,learn,27544.999837875366,Tue Nov 11 2025 18:27:38 GMT-0600 (Central Standard Time),822844.8000000119,A,go,I,o,144,,1298.8999999761581,821545.9000000358,8053,WL,A,14.0
4,32.687999963760376,learn,27312.000036239624,Tue Nov 11 2025 18:27:38 GMT-0600 (Central Standard Time),823078.3000000119,A,gol,I,l,218,,1532.3999999761581,821545.9000000358,8053,WL,A,14.0
4,32.7720000743866,learn,27227.999925613403,Tue Nov 11 2025 18:27:38 GMT-0600 (Central Standard Time),823161.6000000238,A,gold,I,d,73,,1615.699999988079,821545.9000000358,8053,WL,A,14.0
4,32.98900008201599,learn,27010.99991798401,Tue Nov 11 2025 18:27:38 GMT-0600 (Central Standard Time),823378.5,A,goldenter,I,enter,197,,1832.5999999642372,821545.9000000358,8053,WL,A,14.0
4,33.42199993133545,learn,26578.00006866455,Tue Nov 11 2025 18:27:38 GMT-0600 (Central Standard Time),823811.7000000477,A,enter,I,enter,420,,433.0,823378.7000000477,8053,WL,A,15.0
5,1.3989999294281006,learn,60000.0,Tue Nov 11 2025 18:27:38 GMT-0600 (Central Standard Time),896972.0,A,b,I,b,1386,,1399.0999999642372,895572.9000000358,8053,WL,A,1.0
5,1.5989999771118164,learn,60000.0,Tue Nov 11 2025 18:27:38 GMT-0600 (Central Standard Time),897172.1000000238,A,bo,I,o,185,,1599.199999988079,895572.9000000358,8053,WL,A,1.0
5,1.7660000324249268,learn,60000.0,Tue Nov 11 2025 18:27:38 GMT-0600 (Central Standard Time),897339.2000000477,A,boo,I,o,147,,1766.300000011921,895572.9000000358,8053,WL,A,1.0
5,1.9649999141693115,learn,60000.0,Tue Nov 11 2025 18:27:38 GMT-0600 (Central Standard Time),897538.3000000119,A,book,I,k,188,,1965.3999999761581,895572.9000000358,8053,WL,A,1.0
5,2.2660000324249268,learn,60000.0,Tue Nov 11 2025 18:27:38 GMT-0600 (Central Standard Time),897838.6000000238,A,bookenter,I,enter,283,,2265.699999988079,895572.9000000358,8053,WL,A,1.0
5,3.447999954223633,learn,60000.0,Tue Nov 11 2025 18:27:38 GMT-0600 (Central Standard Time),899021.0,A,f,I,f,1168,,1182.199999988079,897838.8000000119,8053,WL,A,2.0
5,3.5809998512268066,learn,60000.0,Tue Nov 11 2025 18:27:38 GMT-0600 (Central Standard Time),899154.6000000238,A,fl,I,l,121,,1315.800000011921,897838.8000000119,8053,WL,A,2.0
5,3.7809998989105225,learn,60000.0,Tue Nov 11 2025 18:27:38 GMT-0600 (Central Standard Time),899354.5,A,flo,I,o,188,,1515.699999988079,897838.8000000119,8053,WL,A,2.0
5,3.813999891281128,learn,60000.0,Tue Nov 11 2025 18:27:38 GMT-0600 (Central Standard Time),899387.6000000238,A,flow,I,w,28,,1548.800000011921,897838.8000000119,8053,WL,A,2.0
5,4.047999858856201,learn,60000.0,Tue Nov 11 2025 18:27:38 GMT-0600 (Central Standard Time),899621.2000000477,A,flowe,I,e,220,,1782.4000000357628,897838.8000000119,8053,WL,A,2.0
5,4.148000001907349,learn,60000.0,Tue Nov 11 2025 18:27:38 GMT-0600 (Central Standard Time),899721.0,A,flower,I,r,90,,1882.199999988079,897838.8000000119,8053,WL,A,2.0
5,4.497999906539917,learn,60000.0,Tue Nov 11 2025 18:27:38 GMT-0600 (Central Standard Time),900071.1000000238,A,flowerenter,I,enter,333,,2232.300000011921,897838.8000000119,8053,WL,A,2.0
5,6.180000066757202,learn,60000.0,Tue Nov 11 2025 18:27:38 GMT-0600 (Central Standard Time),901753.8000000119,A,t,I,t,1672,,1682.3999999761581,900071.4000000358,8053,WL,A,3.0
5,6.813999891281128,learn,60000.0,Tue Nov 11 2025 18:27:38 GMT-0600 (Central Standard Time),902386.9000000358,A,tr,I,r,613,,2315.5,900071.4000000358,8053,WL,A,3.0
5,7.079999923706055,learn,60000.0,Tue Nov 11 2025 18:27:38 GMT-0600 (Central Standard Time),902653.6000000238,A,tra,I,a,252,,2582.199999988079,900071.4000000358,8053,WL,A,3.0
5,7.2799999713897705,learn,60000.0,Tue Nov 11 2025 18:27:38 GMT-0600 (Central Standard Time),902853.4000000358,A,trai,I,i,185,,2782.0,900071.4000000358,8053,WL,A,3.0
5,7.5299999713897705,learn,60000.0,Tue Nov 11 2025 18:27:38 GMT-0600 (Central Standard Time),903103.3000000119,A,train,I,n,241,,3031.899999976158,900071.4000000358,8053,WL,A,3.0
5,7.8459999561309814,learn,60000.0,Tue Nov 11 2025 18:27:38 GMT-0600 (Central Standard Time),903419.8000000119,A,trainenter,I,enter,303,,3348.399999976158,900071.4000000358,8053,WL,A,3.0
5,11.494999885559082,learn,60000.0,Tue Nov 11 2025 18:27:38 GMT-0600 (Central Standard Time),907068.5,A,r,I,r,3643,,3648.2999999523163,903420.2000000477,8053,WL,A,4.0
5,11.694999933242798,learn,60000.0,Tue Nov 11 2025 18:27:38 GMT-0600 (Central Standard Time),907268.4000000358,A,ru,I,u,194,,3848.199999988079,903420.2000000477,8053,WL,A,4.0
5,11.84500002861023,learn,60000.0,Tue Nov 11 2025 18:27:38 GMT-0600 (Central Standard Time),907418.8000000119,A,rug,I,g,137,,3998.599999964237,903420.2000000477,8053,WL,A,4.0
5,12.062000036239624,learn,60000.0,Tue Nov 11 2025 18:27:38 GMT-0600 (Central Standard Time),907635.1000000238,A,rugenter,I,enter,196,,4214.899999976158,903420.2000000477,8053,WL,A,4.0
5,13.727999925613403,learn,60000.0,Tue Nov 11 2025 18:27:38 GMT-0600 (Central Standard Time),909301.5,A,m,I,m,1660,,1666.0,907635.5,8053,WL,A,5.0
5,14.210999965667725,learn,60000.0,Tue Nov 11 2025 18:27:38 GMT-0600 (Central Standard Time),909784.6000000238,A,me,I,e,465,,2149.100000023842,907635.5,8053,WL,A,5.0
5,14.876999855041504,learn,60000.0,Tue Nov 11 2025 18:27:38 GMT-0600 (Central Standard Time),910450.9000000358,A,mea,I,a,654,,2815.400000035763,907635.5,8053,WL,A,5.0
5,15.210999965667725,learn,60000.0,Tue Nov 11 2025 18:27:38 GMT-0600 (Central Standard Time),910784.1000000238,A,mead,I,d,324,,3148.600000023842,907635.5,8053,WL,A,5.0
5,15.378000020980835,learn,60000.0,Tue Nov 11 2025 18:27:38 GMT-0600 (Central Standard Time),910951.1000000238,A,meado,I,o,151,,3315.600000023842,907635.5,8053,WL,A,5.0
5,15.560999870300293,learn,60000.0,Tue Nov 11 2025 18:27:38 GMT-0600 (Central Standard Time),911134.2000000477,A,meadow,I,w,167,,3498.7000000476837,907635.5,8053,WL,A,5.0
5,15.726999998092651,learn,60000.0,Tue Nov 11 2025 18:27:38 GMT-0600 (Central Standard Time),911300.7000000477,A,meadowenter,I,enter,160,,3665.2000000476837,907635.5,8053,WL,A,5.0
5,19.210000038146973,learn,60000.0,Tue Nov 11 2025 18:27:38 GMT-0600 (Central Standard Time),914783.0,A,h,I,h,3466,,3482.0,911301.0,8053,WL,A,6.0
5,19.325999975204468,learn,60000.0,Tue Nov 11 2025 18:27:38 GMT-0600 (Central Standard Time),914899.6000000238,A,ha,I,a,103,,3598.600000023842,911301.0,8053,WL,A,6.0
5,19.460000038146973,learn,60000.0,Tue Nov 11 2025 18:27:38 GMT-0600 (Central Standard Time),915033.1000000238,A,har,I,r,123,,3732.100000023842,911301.0,8053,WL,A,6.0
5,19.842999935150146,learn,60000.0,Tue Nov 11 2025 18:27:38 GMT-0600 (Central Standard Time),915416.1000000238,A,harp,I,p,374,,4115.100000023842,911301.0,8053,WL,A,6.0
5,20.158999919891357,learn,60000.0,Tue Nov 11 2025 18:27:38 GMT-0600 (Central Standard Time),915732.8000000119,A,harpenter,I,enter,303,,4431.800000011921,911301.0,8053,WL,A,6.0
5,22.55999994277954,learn,60000.0,Tue Nov 11 2025 18:27:38 GMT-0600 (Central Standard Time),918133.0,A,s,I,s,2394,,2399.899999976158,915733.1000000238,8053,WL,A,7.0
5,22.774999856948853,learn,60000.0,Tue Nov 11 2025 18:27:38 GMT-0600 (Central Standard Time),918348.6000000238,A,sa,I,a,201,,2615.5,915733.1000000238,8053,WL,A,7.0
5,22.97499990463257,learn,60000.0,Tue Nov 11 2025 18:27:38 GMT-0600 (Central Standard Time),918548.6000000238,A,sal,I,l,194,,2815.5,915733.1000000238,8053,WL,A,7.0
5,23.342000007629395,learn,60000.0,Tue Nov 11 2025 18:27:38 GMT-0600 (Central Standard Time),918915.2000000477,A,salt,I,t,346,,3182.100000023842,915733.1000000238,8053,WL,A,7.0
5,24.04200005531311,learn,60000.0,Tue Nov 11 2025 18:27:38 GMT-0600 (Central Standard Time),919615.0,A,saltenter,I,enter,683,,3881.899999976158,915733.1000000238,8053,WL,A,7.0
5,24.625,learn,60000.0,Tue Nov 11 2025 18:27:38 GMT-0600 (Central Standard Time),920198.0,A,f,I,f,576,,582.7999999523163,919615.2000000477,8053,WL,A,8.0
5,24.7739999294281,learn,60000.0,Tue Nov 11 2025 18:27:38 GMT-0600 (Central Standard Time),920347.6000000238,A,fi,I,i,145,,732.3999999761581,919615.2000000477,8053,WL,A,8.0
5,25.04099988937378,learn,60000.0,Tue Nov 11 2025 18:27:38 GMT-0600 (Central Standard Time),920614.4000000358,A,fin,I,n,251,,999.1999999880791,919615.2000000477,8053,WL,A,8.0
5,25.391000032424927,learn,60000.0,Tue Nov 11 2025 18:27:38 GMT-0600 (Central Standard Time),920964.6000000238,A,fing,I,g,336,,1349.3999999761581,919615.2000000477,8053,WL,A,8.0
5,25.624000072479248,learn,60000.0,Tue Nov 11 2025 18:27:38 GMT-0600 (Central Standard Time),921197.8000000119,A,finge,I,e,218,,1582.5999999642372,919615.2000000477,8053,WL,A,8.0
5,25.723999977111816,learn,60000.0,Tue Nov 11 2025 18:27:38 GMT-0600 (Central Standard Time),921297.7000000477,A,finger,I,r,81,,1682.5,919615.2000000477,8053,WL,A,8.0
5,25.94099998474121,learn,60000.0,Tue Nov 11 2025 18:27:38 GMT-0600 (Central Standard Time),921514.1000000238,A,fingerenter,I,enter,205,,1898.8999999761581,919615.2000000477,8053,WL,A,8.0
5,27.7739999294281,learn,60000.0,Tue Nov 11 2025 18:27:38 GMT-0600 (Central Standard Time),923347.2000000477,A,a,I,a,1813,,1832.800000011921,921514.4000000358,8053,WL,A,9.0
5,27.990000009536743,learn,60000.0,Tue Nov 11 2025 18:27:38 GMT-0600 (Central Standard Time),923563.6000000238,A,ap,I,p,203,,2049.199999988079,921514.4000000358,8053,WL,A,9.0
5,28.157000064849854,learn,60000.0,Tue Nov 11 2025 18:27:38 GMT-0600 (Central Standard Time),923730.1000000238,A,app,I,p,156,,2215.699999988079,921514.4000000358,8053,WL,A,9.0
5,28.389999866485596,learn,60000.0,Tue Nov 11 2025 18:27:38 GMT-0600 (Central Standard Time),923963.7000000477,A,appl,I,l,219,,2449.300000011921,921514.4000000358,8053,WL,A,9.0
5,28.506999969482422,learn,60000.0,Tue Nov 11 2025 18:27:38 GMT-0600 (Central Standard Time),924080.3000000119,A,apple,I,e,99,,2565.899999976158,921514.4000000358,8053,WL,A,9.0
5,28.6729998588562,learn,60000.0,Tue Nov 11 2025 18:27:38 GMT-0600 (Central Standard Time),924246.8000000119,A,appleenter,I,enter,158,,2732.399999976158,921514.4000000358,8053,WL,A,9.0
5,29.08999991416931,learn,60000.0,Tue Nov 11 2025 18:27:38 GMT-0600 (Central Standard Time),924663.0,A,c,I,c,399,,415.89999997615814,924247.1000000238,8053,WL,A,10.0
5,29.336999893188477,learn,60000.0,Tue Nov 11 2025 18:27:38 GMT-0600 (Central Standard Time),924910.6000000238,A,ch,I,h,243,,663.5,924247.1000000238,8053,WL,A,10.0
5,29.483999967575073,learn,60000.0,Tue Nov 11 2025 18:27:38 GMT-0600 (Central Standard Time),925057.8000000119,A,chi,I,i,142,,810.6999999880791,924247.1000000238,8053,WL,A,10.0
5,29.83999991416931,learn,60000.0,Tue Nov 11 2025 18:27:38 GMT-0600 (Central Standard Time),925413.0,A,chim,I,m,348,,1165.8999999761581,924247.1000000238,8053,WL,A,10.0
5,30.438999891281128,learn,60000.0,Tue Nov 11 2025 18:27:38 GMT-0600 (Central Standard Time),926012.7000000477,A,chimn,I,n,594,,1765.6000000238419,924247.1000000238,8053,WL,A,10.0
5,30.60599994659424,learn,60000.0,Tue Nov 11 2025 18:27:38 GMT-0600 (Central Standard Time),926179.3000000119,A,chimne,I,e,154,,1932.199999988079,924247.1000000238,8053,WL,A,10.0
5,31.42199993133545,learn,60000.0,Tue Nov 11 2025 18:27:38 GMT-0600 (Central Standard Time),926995.9000000358,A,chimney,I,y,803,,2748.800000011921,924247.1000000238,8053,WL,A,10.0
5,31.721999883651733,learn,60000.0,Tue Nov 11 2025 18:27:38 GMT-0600 (Central Standard Time),927295.8000000119,A,chimneyenter,I,enter,292,,3048.699999988079,924247.1000000238,8053,WL,A,10.0
5,32.5550000667572,learn,60000.0,Tue Nov 11 2025 18:27:38 GMT-0600 (Central Standard Time),928128.9000000358,A,b,I,b,815,,832.8000000119209,927296.1000000238,8053,WL,A,11.0
5,32.789000034332275,learn,60000.0,Tue Nov 11 2025 18:27:38 GMT-0600 (Central Standard Time),928362.0,A,bu,I,u,214,,1065.8999999761581,927296.1000000238,8053,WL,A,11.0
5,33.08899998664856,learn,60000.0,Tue Nov 11 2025 18:27:38 GMT-0600 (Central Standard Time),928662.0,A,but,I,t,292,,1365.8999999761581,927296.1000000238,8053,WL,A,11.0
5,33.3050000667572,learn,60000.0,Tue Nov 11 2025 18:27:38 GMT-0600 (Central Standard Time),928878.7000000477,A,butt,I,t,208,,1582.6000000238419,927296.1000000238,8053,WL,A,11.0
5,33.539000034332275,learn,60000.0,Tue Nov 11 2025 18:27:38 GMT-0600 (Central Standard Time),929112.0,A,butto,I,o,224,,1815.8999999761581,927296.1000000238,8053,WL,A,11.0
5,34.00499987602234,learn,60000.0,Tue Nov 11 2025 18:27:38 GMT-0600 (Central Standard Time),929578.2000000477,A,button,I,n,446,,2282.100000023842,927296.1000000238,8053,WL,A,11.0
5,34.2720000743866,learn,60000.0,Tue Nov 11 2025 18:27:38 GMT-0600 (Central Standard Time),929845.0,A,buttonenter,I,enter,253,,2548.899999976158,927296.1000000238,8053,WL,A,11.0
5,35.65400004386902,learn,60000.0,Tue Nov 11 2025 18:27:38 GMT-0600 (Central Standard Time),931227.9000000358,A,l,I,l,1370,,1382.6000000238419,929845.3000000119,8053,WL,A,12.0
5,36.037999868392944,learn,60000.0,Tue Nov 11 2025 18:27:38 GMT-0600 (Central Standard Time),931611.2000000477,A,lo,I,o,363,,1765.9000000357628,929845.3000000119,8053,WL,A,12.0
5,36.40400004386902,learn,60000.0,Tue Nov 11 2025 18:27:38 GMT-0600 (Central Standard Time),931977.4000000358,A,log,I,g,347,,2132.100000023842,929845.3000000119,8053,WL,A,12.0
5,36.58699989318848,learn,60000.0,Tue Nov 11 2025 18:27:38 GMT-0600 (Central Standard Time),932160.9000000358,A,logenter,I,enter,165,,2315.600000023842,929845.3000000119,8053,WL,A,12.0
5,37.38699984550476,learn,60000.0,Tue Nov 11 2025 18:27:38 GMT-0600 (Central Standard Time),932960.7000000477,A,k,I,k,790,,799.6000000238419,932161.1000000238,8053,WL,A,13.0
5,37.603999853134155,learn,60000.0,Tue Nov 11 2025 18:27:38 GMT-0600 (Central Standard Time),933177.1000000238,A,ke,I,e,206,,1016.0,932161.1000000238,8053,WL,A,13.0
5,37.769999980926514,learn,60000.0,Tue Nov 11 2025 18:27:38 GMT-0600 (Central Standard Time),933343.9000000358,A,key,I,y,150,,1182.800000011921,932161.1000000238,8053,WL,A,13.0
5,38.11999988555908,learn,60000.0,Tue Nov 11 2025 18:27:38 GMT-0600 (Central Standard Time),933693.9000000358,A,keyenter,I,enter,335,,1532.800000011921,932161.1000000238,8053,WL,A,13.0
5,38.519999980926514,learn,60000.0,Tue Nov 11 2025 18:27:38 GMT-0600 (Central Standard Time),934093.6000000238,A,r,I,r,393,,399.39999997615814,933694.2000000477,8053,WL,A,14.0
5,38.78699994087219,learn,60000.0,Tue Nov 11 2025 18:27:38 GMT-0600 (Central Standard Time),934360.5,A,ra,I,a,257,,666.2999999523163,933694.2000000477,8053,WL,A,14.0
5,39.11999988555908,learn,60000.0,Tue Nov 11 2025 18:27:38 GMT-0600 (Central Standard Time),934693.5,A,rat,I,t,318,,999.2999999523163,933694.2000000477,8053,WL,A,14.0
5,39.30299997329712,learn,60000.0,Tue Nov 11 2025 18:27:38 GMT-0600 (Central Standard Time),934876.7000000477,A,ratt,I,t,177,,1182.5,933694.2000000477,8053,WL,A,14.0
5,39.47000002861023,learn,60000.0,Tue Nov 11 2025 18:27:38 GMT-0600 (Central Standard Time),935043.3000000119,A,rattl,I,l,162,,1349.0999999642372,933694.2000000477,8053,WL,A,14.0
5,39.58699989318848,learn,60000.0,Tue Nov 11 2025 18:27:38 GMT-0600 (Central Standard Time),935160.1000000238,A,rattle,I,e,107,,1465.8999999761581,933694.2000000477,8053,WL,A,14.0
5,39.88699984550476,learn,60000.0,Tue Nov 11 2025 18:27:38 GMT-0600 (Central Standard Time),935459.9000000358,A,rattleenter,I,enter,287,,1765.699999988079,933694.2000000477,8053,WL,A,14.0
5,41.86899995803833,learn,60000.0,Tue Nov 11 2025 18:27:38 GMT-0600 (Central Standard Time),937442.7000000477,A,g,I,g,1971,,1982.5,935460.2000000477,8053,WL,A,15.0
5,42.11899995803833,learn,60000.0,Tue Nov 11 2025 18:27:38 GMT-0600 (Central Standard Time),937692.1000000238,A,go,I,o,244,,2231.899999976158,935460.2000000477,8053,WL,A,15.0
5,42.38599991798401,learn,60000.0,Tue Nov 11 2025 18:27:38 GMT-0600 (Central Standard Time),937959.2000000477,A,gol,I,l,251,,2499.0,935460.2000000477,8053,WL,A,15.0
5,42.585999965667725,learn,60000.0,Tue Nov 11 2025 18:27:38 GMT-0600 (Central Standard Time),938159.1000000238,A,gold,I,d,183,,2698.899999976158,935460.2000000477,8053,WL,A,15.0
5,43.236000061035156,learn,60000.0,Tue Nov 11 2025 18:27:38 GMT-0600 (Central Standard Time),938809.2000000477,A,goldenter,I,enter,641,,3349.0,935460.2000000477,8053,WL,A,15.0
6,2.376999855041504,distr,57623.000144958496,Tue Nov 11 2025 18:27:38 GMT-0600 (Central Standard Time),1019179.4000000358,B,b,I,b,2374,,2378.0,1016801.4000000358,8053,WL,A,1.0
6,2.697999954223633,distr,57302.00004577637,Tue Nov 11 2025 18:27:38 GMT-0600 (Central Standard Time),1019500.3000000119,B,bo,I,o,306,,2698.899999976158,1016801.4000000358,8053,WL,A,1.0
6,3.2309999465942383,distr,56769.00005340576,Tue Nov 11 2025 18:27:38 GMT-0600 (Central Standard Time),1020033.5,B,bow,I,w,514,,3232.099999964237,1016801.4000000358,8053,WL,A,1.0
6,3.680999994277954,distr,56319.000005722046,Tue Nov 11 2025 18:27:38 GMT-0600 (Central Standard Time),1020483.3000000119,B,bowl,I,l,429,,3681.899999976158,1016801.4000000358,8053,WL,A,1.0
6,4.763999938964844,distr,55236.000061035156,Tue Nov 11 2025 18:27:38 GMT-0600 (Central Standard Time),1021566.5,B,bowlenter,I,enter,1067,,4765.099999964237,1016801.4000000358,8053,WL,A,1.0
6,6.662999868392944,distr,53337.000131607056,Tue Nov 11 2025 18:27:38 GMT-0600 (Central Standard Time),1023465.5,B,d,I,d,1880,,1898.7999999523163,1021566.7000000477,8053,WL,A,2.0
6,6.94599986076355,distr,53054.00013923645,Tue Nov 11 2025 18:27:38 GMT-0600 (Central Standard Time),1023748.9000000358,B,do,I,o,269,,2182.199999988079,1021566.7000000477,8053,WL,A,2.0
6,7.378999948501587,distr,52621.00005149841,Tue Nov 11 2025 18:27:38 GMT-0600 (Central Standard Time),1024182.0,B,d,I,backspace,425,,2615.2999999523163,1021566.7000000477,8053,WL,A,2.0
6,7.480000019073486,distr,52519.999980926514,Tue Nov 11 2025 18:27:38 GMT-0600 (Central Standard Time),1024282.3000000119,B,da,I,a,80,,2715.599999964237,1021566.7000000477,8053,WL,A,2.0
6,7.69599986076355,distr,52304.00013923645,Tue Nov 11 2025 18:27:38 GMT-0600 (Central Standard Time),1024498.6000000238,B,daw,I,w,204,,2931.899999976158,1021566.7000000477,8053,WL,A,2.0
6,7.978999853134155,distr,52021.000146865845,Tue Nov 11 2025 18:27:38 GMT-0600 (Central Standard Time),1024781.8000000119,B,dawn,I,n,268,,3215.099999964237,1021566.7000000477,8053,WL,A,2.0
6,8.961999893188477,distr,51038.00010681152,Tue Nov 11 2025 18:27:38 GMT-0600 (Central Standard Time),1025765.0,B,dawnenter,I,enter,977,,4198.299999952316,1021566.7000000477,8053,WL,A,2.0
6,18.675999879837036,distr,41324.000120162964,Tue Nov 11 2025 18:27:38 GMT-0600 (Central Standard Time),1035478.4000000358,B,f,I,f,9698,,9713.100000023842,1025765.3000000119,8053,WL,A,3.0
6,18.924999952316284,distr,41075.000047683716,Tue Nov 11 2025 18:27:38 GMT-0600 (Central Standard Time),1035728.1000000238,B,fl,I,l,232,,9962.800000011921,1025765.3000000119,8053,WL,A,3.0
6,19.14199995994568,distr,40858.00004005432,Tue Nov 11 2025 18:27:38 GMT-0600 (Central Standard Time),1035945.2000000477,B,fli,I,i,198,,10179.900000035763,1025765.3000000119,8053,WL,A,3.0
6,19.259000062942505,distr,40740.999937057495,Tue Nov 11 2025 18:27:38 GMT-0600 (Central Standard Time),1036061.7000000477,B,flig,I,g,109,,10296.400000035763,1025765.3000000119,8053,WL,A,3.0
6,19.408999919891357,distr,40591.00008010864,Tue Nov 11 2025 18:27:38 GMT-0600 (Central Standard Time),1036211.7000000477,B,fligh,I,h,145,,10446.400000035763,1025765.3000000119,8053,WL,A,3.0
6,20.47499990463257,distr,39525.00009536743,Tue Nov 11 2025 18:27:38 GMT-0600 (Central Standard Time),1037278.0,B,flig,I,backspace,1051,,11512.699999988079,1025765.3000000119,8053,WL,A,3.0
6,20.64199995994568,distr,39358.00004005432,Tue Nov 11 2025 18:27:38 GMT-0600 (Central Standard Time),1037444.3000000119,B,fli,I,backspace,162,,11679.0,1025765.3000000119,8053,WL,A,3.0
6,20.825000047683716,distr,39174.999952316284,Tue Nov 11 2025 18:27:38 GMT-0600 (Central Standard Time),1037628.0,B,fl,I,backspace,163,,11862.699999988079,1025765.3000000119,8053,WL,A,3.0
6,20.991999864578247,distr,39008.00013542175,Tue Nov 11 2025 18:27:38 GMT-0600 (Central Standard Time),1037794.7000000477,B,f,I,backspace,147,,12029.400000035763,1025765.3000000119,8053,WL,A,3.0
6,21.157999992370605,distr,38842.000007629395,Tue Nov 11 2025 18:27:38 GMT-0600 (Central Standard Time),1037961.2000000477,B,,I,backspace,156,,12195.900000035763,1025765.3000000119,8053,WL,A,3.0
6,21.257999897003174,distr,38742.000102996826,Tue Nov 11 2025 18:27:38 GMT-0600 (Central Standard Time),1038060.8000000119,B,,I,backspace,95,,12295.5,1025765.3000000119,8053,WL,A,3.0
6,21.691999912261963,distr,38308.00008773804,Tue Nov 11 2025 18:27:38 GMT-0600 (Central Standard Time),1038494.5,B,p,I,p,418,,12729.199999988079,1025765.3000000119,8053,WL,A,3.0
6,21.97499990463257,distr,38025.00009536743,Tue Nov 11 2025 18:27:38 GMT-0600 (Central Standard Time),1038777.6000000238,B,pl,I,l,272,,13012.300000011921,1025765.3000000119,8053,WL,A,3.0
6,22.141000032424927,distr,37858.99996757507,Tue Nov 11 2025 18:27:38 GMT-0600 (Central Standard Time),1038944.0,B,pla,I,a,149,,13178.699999988079,1025765.3000000119,8053,WL,A,3.0
6,22.874000072479248,distr,37125.99992752075,Tue Nov 11 2025 18:27:38 GMT-0600 (Central Standard Time),1039677.2000000477,B,plan,I,n,726,,13911.900000035763,1025765.3000000119,8053,WL,A,3.0
6,23.473999977111816,distr,36526.00002288818,Tue Nov 11 2025 18:27:38 GMT-0600 (Central Standard Time),1040277.0,B,plane,I,e,586,,14511.699999988079,1025765.3000000119,8053,WL,A,3.0
6,23.79099988937378,distr,36209.00011062622,Tue Nov 11 2025 18:27:38 GMT-0600 (Central Standard Time),1040593.5,B,planeenter,I,enter,306,,14828.199999988079,1025765.3000000119,8053,WL,A,3.0
6,24.407000064849854,distr,35592.99993515015,Tue Nov 11 2025 18:27:38 GMT-0600 (Central Standard Time),1041210.1000000238,B,g,I,g,597,,616.3000000119209,1040593.8000000119,8053,WL,A,4.0
6,24.624000072479248,distr,35375.99992752075,Tue Nov 11 2025 18:27:38 GMT-0600 (Central Standard Time),1041426.7000000477,B,gr,I,r,196,,832.9000000357628,1040593.8000000119,8053,WL,A,4.0
6,24.823999881744385,distr,35176.000118255615,Tue Nov 11 2025 18:27:38 GMT-0600 (Central Standard Time),1041626.8000000119,B,gra,I,a,188,,1033.0,1040593.8000000119,8053,WL,A,4.0
6,25.056999921798706,distr,34943.000078201294,Tue Nov 11 2025 18:27:38 GMT-0600 (Central Standard Time),1041859.7000000477,B,gran,I,n,221,,1265.9000000357628,1040593.8000000119,8053,WL,A,4.0
6,25.289999961853027,distr,34710.00003814697,Tue Nov 11 2025 18:27:38 GMT-0600 (Central Standard Time),1042093.1000000238,B,grant,I,t,220,,1499.300000011921,1040593.8000000119,8053,WL,A,4.0
6,27.205999851226807,distr,32794.00014877319,Tue Nov 11 2025 18:27:38 GMT-0600 (Central Standard Time),1044009.2000000477,B,grantenter,I,enter,1899,,3415.400000035763,1040593.8000000119,8053,WL,A,4.0
6,27.77300000190735,distr,32226.99999809265,Tue Nov 11 2025 18:27:38 GMT-0600 (Central Standard Time),1044575.8000000119,B,s,I,s,549,,566.3000000119209,1044009.5,8053,WL,A,5.0
6,28.322999954223633,distr,31677.000045776367,Tue Nov 11 2025 18:27:38 GMT-0600 (Central Standard Time),1045125.8000000119,B,,I,backspace,536,,1116.300000011921,1044009.5,8053,WL,A,5.0
6,28.572999954223633,distr,31427.000045776367,Tue Nov 11 2025 18:27:38 GMT-0600 (Central Standard Time),1045375.6000000238,B,i,I,i,241,,1366.1000000238419,1044009.5,8053,WL,A,5.0
6,28.85599994659424,distr,31144.00005340576,Tue Nov 11 2025 18:27:38 GMT-0600 (Central Standard Time),1045658.7000000477,B,in,I,n,263,,1649.2000000476837,1044009.5,8053,WL,A,5.0
6,29.055999994277954,distr,30944.000005722046,Tue Nov 11 2025 18:27:38 GMT-0600 (Central Standard Time),1045858.3000000119,B,ins,I,s,188,,1848.800000011921,1044009.5,8053,WL,A,5.0
6,29.305999994277954,distr,30694.000005722046,Tue Nov 11 2025 18:27:38 GMT-0600 (Central Standard Time),1046108.6000000238,B,inse,I,e,244,,2099.100000023842,1044009.5,8053,WL,A,5.0
6,29.621999979019165,distr,30378.000020980835,Tue Nov 11 2025 18:27:38 GMT-0600 (Central Standard Time),1046425.0,B,inset,I,t,306,,2415.5,1044009.5,8053,WL,A,5.0
6,30.688999891281128,distr,29311.000108718872,Tue Nov 11 2025 18:27:38 GMT-0600 (Central Standard Time),1047491.5,B,inse,I,backspace,1046,,3482.0,1044009.5,8053,WL,A,5.0
6,30.82200002670288,distr,29177.99997329712,Tue Nov 11 2025 18:27:38 GMT-0600 (Central Standard Time),1047624.7000000477,B,insec,I,c,115,,3615.2000000476837,1044009.5,8053,WL,A,5.0
6,31.07200002670288,distr,28927.99997329712,Tue Nov 11 2025 18:27:38 GMT-0600 (Central Standard Time),1047874.7000000477,B,insect,I,t,230,,3865.2000000476837,1044009.5,8053,WL,A,5.0
6,31.888000011444092,distr,28111.99998855591,Tue Nov 11 2025 18:27:38 GMT-0600 (Central Standard Time),1048691.2000000477,B,insectenter,I,enter,796,,4681.700000047684,1044009.5,8053,WL,A,5.0
6,36.88699984550476,distr,23113.00015449524,Tue Nov 11 2025 18:27:38 GMT-0600 (Central Standard Time),1053689.7000000477,B,s,I,s,4988,,4998.200000047684,1048691.5,8053,WL,A,6.0
6,37.55299997329712,distr,22447.00002670288,Tue Nov 11 2025 18:27:38 GMT-0600 (Central Standard Time),1054356.1000000238,B,se,I,e,653,,5664.600000023842,1048691.5,8053,WL,A,6.0
6,37.753000020980835,distr,22246.999979019165,Tue Nov 11 2025 18:27:38 GMT-0600 (Central Standard Time),1054555.7000000477,B,see,I,e,195,,5864.200000047684,1048691.5,8053,WL,A,6.0
6,37.97000002861023,distr,22029.99997138977,Tue Nov 11 2025 18:27:38 GMT-0600 (Central Standard Time),1054772.4000000358,B,seed,I,d,211,,6080.900000035763,1048691.5,8053,WL,A,6.0
6,39.40299987792969,distr,20597.000122070312,Tue Nov 11 2025 18:27:38 GMT-0600 (Central Standard Time),1056205.4000000358,B,seeds,I,s,1427,,7513.900000035763,1048691.5,8053,WL,A,6.0
6,39.819000005722046,distr,20180.999994277954,Tue Nov 11 2025 18:27:38 GMT-0600 (Central Standard Time),1056622.0,B,seedsenter,I,enter,409,,7930.5,1048691.5,8053,WL,A,6.0
6,41.501999855041504,distr,18498.000144958496,Tue Nov 11 2025 18:27:38 GMT-0600 (Central Standard Time),1058304.800000012,B,b,I,b,1673,,1682.3999999761581,1056622.4000000358,8053,WL,A,7.0
6,41.751999855041504,distr,18248.000144958496,Tue Nov 11 2025 18:27:38 GMT-0600 (Central Standard Time),1058554.7000000477,B,bo,I,o,238,,1932.300000011921,1056622.4000000358,8053,WL,A,7.0
6,42.08500003814697,distr,17914.999961853027,Tue Nov 11 2025 18:27:38 GMT-0600 (Central Standard Time),1058887.7000000477,B,bot,I,t,324,,2265.300000011921,1056622.4000000358,8053,WL,A,7.0
6,42.28499984741211,distr,17715.00015258789,Tue Nov 11 2025 18:27:38 GMT-0600 (Central Standard Time),1059087.800000012,B,bott,I,t,183,,2465.399999976158,1056622.4000000358,8053,WL,A,7.0
6,42.501999855041504,distr,17498.000144958496,Tue Nov 11 2025 18:27:38 GMT-0600 (Central Standard Time),1059304.6000000238,B,bottl,I,l,207,,2682.199999988079,1056622.4000000358,8053,WL,A,7.0
6,43.318000078201294,distr,16681.999921798706,Tue Nov 11 2025 18:27:38 GMT-0600 (Central Standard Time),1060121.2000000477,B,bottle,I,e,798,,3498.800000011921,1056622.4000000358,8053,WL,A,7.0
6,43.58500003814697,distr,16414.999961853027,Tue Nov 11 2025 18:27:38 GMT-0600 (Central Standard Time),1060387.5,B,bottleenter,I,enter,253,,3765.099999964237,1056622.4000000358,8053,WL,A,7.0
6,44.28399991989136,distr,15716.000080108643,Tue Nov 11 2025 18:27:38 GMT-0600 (Central Standard Time),1061087.1000000238,B,g,I,g,683,,699.3000000119209,1060387.800000012,8053,WL,A,8.0
6,44.46799993515015,distr,15532.000064849854,Tue Nov 11 2025 18:27:38 GMT-0600 (Central Standard Time),1061270.5,B,go,I,o,167,,882.6999999880791,1060387.800000012,8053,WL,A,8.0
6,44.800999879837036,distr,15199.000120162964,Tue Nov 11 2025 18:27:38 GMT-0600 (Central Standard Time),1061603.800000012,B,goa,I,a,320,,1216.0,1060387.800000012,8053,WL,A,8.0
6,45.25099992752075,distr,14749.000072479248,Tue Nov 11 2025 18:27:38 GMT-0600 (Central Standard Time),1062053.5,B,goat,I,t,443,,1665.699999988079,1060387.800000012,8053,WL,A,8.0
6,45.884000062942505,distr,14115.999937057495,Tue Nov 11 2025 18:27:38 GMT-0600 (Central Standard Time),1062686.9000000358,B,goatenter,I,enter,625,,2299.100000023842,1060387.800000012,8053,WL,A,8.0
6,46.33399987220764,distr,13666.000127792358,Tue Nov 11 2025 18:27:38 GMT-0600 (Central Standard Time),1063136.800000012,B,s,I,s,440,,449.5999999642372,1062687.2000000477,8053,WL,A,9.0
6,46.5,distr,13500.0,Tue Nov 11 2025 18:27:38 GMT-0600 (Central Standard Time),1063303.1000000238,B,sh,I,h,158,,615.8999999761581,1062687.2000000477,8053,WL,A,9.0
6,46.93400001525879,distr,13065.999984741211,Tue Nov 11 2025 18:27:38 GMT-0600 (Central Standard Time),1063736.4000000358,B,she,I,e,417,,1049.199999988079,1062687.2000000477,8053,WL,A,9.0
6,47.132999897003174,distr,12867.000102996826,Tue Nov 11 2025 18:27:38 GMT-0600 (Central Standard Time),1063936.2000000477,B,shee,I,e,191,,1249.0,1062687.2000000477,8053,WL,A,9.0
6,47.93299984931946,distr,12067.000150680542,Tue Nov 11 2025 18:27:38 GMT-0600 (Central Standard Time),1064735.9000000358,B,sheep,I,p,791,,2048.699999988079,1062687.2000000477,8053,WL,A,9.0
6,48.93299984931946,distr,11067.000150680542,Tue Nov 11 2025 18:27:38 GMT-0600 (Central Standard Time),1065735.800000012,B,sheepenter,I,enter,983,,3048.599999964237,1062687.2000000477,8053,WL,A,9.0
6,52.29900002479553,distr,7700.999975204468,Tue Nov 11 2025 18:27:38 GMT-0600 (Central Standard Time),1069101.6000000238,B,p,I,p,3352,,3365.600000023842,1065736.0,8053,WL,A,10.0
6,52.63199996948242,distr,7368.000030517578,Tue Nov 11 2025 18:27:38 GMT-0600 (Central Standard Time),1069434.9000000358,B,po,I,o,313,,3698.900000035763,1065736.0,8053,WL,A,10.0
6,52.79900002479553,distr,7200.999975204468,Tue Nov 11 2025 18:27:38 GMT-0600 (Central Standard Time),1069601.300000012,B,poo,I,o,156,,3865.300000011921,1065736.0,8053,WL,A,10.0
6,53.06500005722046,distr,6934.999942779541,Tue Nov 11 2025 18:27:38 GMT-0600 (Central Standard Time),1069867.800000012,B,pool,I,l,262,,4131.800000011921,1065736.0,8053,WL,A,10.0
6,53.598000049591064,distr,6401.999950408936,Tue Nov 11 2025 18:27:38 GMT-0600 (Central Standard Time),1070400.7000000477,B,poolenter,I,enter,524,,4664.700000047684,1065736.0,8053,WL,A,10.0
6,60.01300001144409,distr,-13.000011444091797,Tue Nov 11 2025 18:27:38 GMT-0600 (Central Standard Time),1076815.7000000477,B,None,I,None,6411,,6414.600000023842,1070401.1000000238,8053,WL,A,11.0
7,2.116000175476074,immed,57883.999824523926,Tue Nov 11 2025 18:27:38 GMT-0600 (Central Standard Time),1089728.4000000358,A,b,I,b,2107,,2115.900000035763,1087612.5,8053,WL,A,1.0
7,2.4250001907348633,immed,57574.99980926514,Tue Nov 11 2025 18:27:38 GMT-0600 (Central Standard Time),1090036.800000012,A,bo,I,o,288,,2424.300000011921,1087612.5,8053,WL,A,1.0
7,2.499000072479248,immed,57500.99992752075,Tue Nov 11 2025 18:27:38 GMT-0600 (Central Standard Time),1090111.2000000477,A,boo,I,o,54,,2498.7000000476837,1087612.5,8053,WL,A,1.0
7,2.7160000801086426,immed,57283.99991989136,Tue Nov 11 2025 18:27:38 GMT-0600 (Central Standard Time),1090328.2000000477,A,book,I,k,205,,2715.7000000476837,1087612.5,8053,WL,A,1.0
7,3.133000135421753,immed,56866.99986457825,Tue Nov 11 2025 18:27:38 GMT-0600 (Central Standard Time),1090744.7000000477,A,bookenter,I,enter,407,,3132.2000000476837,1087612.5,8053,WL,A,1.0
7,4.499000072479248,immed,55500.99992752075,Tue Nov 11 2025 18:27:38 GMT-0600 (Central Standard Time),1092111.0,A,f,I,f,1350,,1366.0,1090745.0,8053,WL,A,2.0
7,4.64900016784668,immed,55350.99983215332,Tue Nov 11 2025 18:27:38 GMT-0600 (Central Standard Time),1092260.800000012,A,fl,I,l,135,,1515.800000011921,1090745.0,8053,WL,A,2.0
7,4.882000207901001,immed,55117.999792099,Tue Nov 11 2025 18:27:38 GMT-0600 (Central Standard Time),1092494.0,A,flo,I,o,218,,1749.0,1090745.0,8053,WL,A,2.0
7,4.932000160217285,immed,55067.999839782715,Tue Nov 11 2025 18:27:38 GMT-0600 (Central Standard Time),1092543.9000000358,A,flow,I,w,41,,1798.9000000357628,1090745.0,8053,WL,A,2.0
7,5.0990002155303955,immed,54900.999784469604,Tue Nov 11 2025 18:27:38 GMT-0600 (Central Standard Time),1092710.6000000238,A,flowe,I,e,159,,1965.6000000238419,1090745.0,8053,WL,A,2.0
7,5.232000112533569,immed,54767.99988746643,Tue Nov 11 2025 18:27:38 GMT-0600 (Central Standard Time),1092843.6000000238,A,flower,I,r,128,,2098.600000023842,1090745.0,8053,WL,A,2.0
7,5.632000207901001,immed,54367.999792099,Tue Nov 11 2025 18:27:38 GMT-0600 (Central Standard Time),1093243.5,A,flowerenter,I,enter,395,,2498.5,1090745.0,8053,WL,A,2.0
7,10.730000019073486,immed,49269.999980926514,Tue Nov 11 2025 18:27:38 GMT-0600 (Central Standard Time),1098342.300000012,A,t,I,t,5092,,5098.5,1093243.800000012,8053,WL,A,3.0
7,10.964000225067139,immed,49035.99977493286,Tue Nov 11 2025 18:27:38 GMT-0600 (Central Standard Time),1098575.5,A,tr,I,r,224,,5331.699999988079,1093243.800000012,8053,WL,A,3.0
7,11.213000059127808,immed,48786.99994087219,Tue Nov 11 2025 18:27:38 GMT-0600 (Central Standard Time),1098825.300000012,A,tra,I,a,231,,5581.5,1093243.800000012,8053,WL,A,3.0
7,11.380000114440918,immed,48619.99988555908,Tue Nov 11 2025 18:27:38 GMT-0600 (Central Standard Time),1098992.300000012,A,trai,I,i,149,,5748.5,1093243.800000012,8053,WL,A,3.0
7,11.630000114440918,immed,48369.99988555908,Tue Nov 11 2025 18:27:38 GMT-0600 (Central Standard Time),1099242.1000000238,A,train,I,n,239,,5998.300000011921,1093243.800000012,8053,WL,A,3.0
7,11.914000034332275,immed,48085.999965667725,Tue Nov 11 2025 18:27:38 GMT-0600 (Central Standard Time),1099525.5,A,trainenter,I,enter,270,,6281.699999988079,1093243.800000012,8053,WL,A,3.0
7,13.479000091552734,immed,46520.999908447266,Tue Nov 11 2025 18:27:38 GMT-0600 (Central Standard Time),1101091.300000012,A,r,I,r,1553,,1565.3999999761581,1099525.9000000358,8053,WL,A,4.0
7,13.763000011444092,immed,46236.99998855591,Tue Nov 11 2025 18:27:38 GMT-0600 (Central Standard Time),1101374.6000000238,A,ru,I,u,275,,1848.699999988079,1099525.9000000358,8053,WL,A,4.0
7,14.046000003814697,immed,45953.9999961853,Tue Nov 11 2025 18:27:38 GMT-0600 (Central Standard Time),1101657.9000000358,A,rug,I,g,272,,2132.0,1099525.9000000358,8053,WL,A,4.0
7,14.279000043869019,immed,45720.99995613098,Tue Nov 11 2025 18:27:38 GMT-0600 (Central Standard Time),1101891.1000000238,A,rugenter,I,enter,213,,2365.199999988079,1099525.9000000358,8053,WL,A,4.0
7,15.67900013923645,immed,44320.99986076355,Tue Nov 11 2025 18:27:38 GMT-0600 (Central Standard Time),1103290.800000012,A,m,I,m,1380,,1399.3999999761581,1101891.4000000358,8053,WL,A,5.0
7,15.84600019454956,immed,44153.99980545044,Tue Nov 11 2025 18:27:38 GMT-0600 (Central Standard Time),1103457.4000000358,A,me,I,e,147,,1566.0,1101891.4000000358,8053,WL,A,5.0
7,16.09500002861023,immed,43904.99997138977,Tue Nov 11 2025 18:27:38 GMT-0600 (Central Standard Time),1103707.2000000477,A,mea,I,a,245,,1815.800000011921,1101891.4000000358,8053,WL,A,5.0
7,16.479000091552734,immed,43520.999908447266,Tue Nov 11 2025 18:27:38 GMT-0600 (Central Standard Time),1104090.5,A,mead,I,d,371,,2199.099999964237,1101891.4000000358,8053,WL,A,5.0
7,17.26200008392334,immed,42737.99991607666,Tue Nov 11 2025 18:27:38 GMT-0600 (Central Standard Time),1104873.5,A,meado,I,o,764,,2982.099999964237,1101891.4000000358,8053,WL,A,5.0
7,17.461000204086304,immed,42538.999795913696,Tue Nov 11 2025 18:27:38 GMT-0600 (Central Standard Time),1105073.300000012,A,meadow,I,w,190,,3181.899999976158,1101891.4000000358,8053,WL,A,5.0
7,17.6780002117157,immed,42321.9997882843,Tue Nov 11 2025 18:27:38 GMT-0600 (Central Standard Time),1105290.1000000238,A,meadowenter,I,enter,205,,3398.699999988079,1101891.4000000358,8053,WL,A,5.0
7,18.811000108718872,immed,41188.99989128113,Tue Nov 11 2025 18:27:38 GMT-0600 (Central Standard Time),1106423.2000000477,A,h,I,h,1117,,1132.9000000357628,1105290.300000012,8053,WL,A,6.0
7,19.011000156402588,immed,40988.99984359741,Tue Nov 11 2025 18:27:38 GMT-0600 (Central Standard Time),1106622.800000012,A,ha,I,a,183,,1332.5,1105290.300000012,8053,WL,A,6.0
7,19.16100001335144,immed,40838.99998664856,Tue Nov 11 2025 18:27:38 GMT-0600 (Central Standard Time),1106772.9000000358,A,har,I,r,144,,1482.6000000238419,1105290.300000012,8053,WL,A,6.0
7,19.47699999809265,immed,40523.00000190735,Tue Nov 11 2025 18:27:38 GMT-0600 (Central Standard Time),1107089.300000012,A,harp,I,p,298,,1799.0,1105290.300000012,8053,WL,A,6.0
7,20.41000008583069,immed,39589.99991416931,Tue Nov 11 2025 18:27:38 GMT-0600 (Central Standard Time),1108022.300000012,A,harpenter,I,enter,926,,2732.0,1105290.300000012,8053,WL,A,6.0
7,20.99400019645691,immed,39005.99980354309,Tue Nov 11 2025 18:27:38 GMT-0600 (Central Standard Time),1108605.800000012,A,s,I,s,577,,583.1999999880791,1108022.6000000238,8053,WL,A,7.0
7,21.3270001411438,immed,38672.9998588562,Tue Nov 11 2025 18:27:38 GMT-0600 (Central Standard Time),1108939.0,A,sa,I,a,321,,916.3999999761581,1108022.6000000238,8053,WL,A,7.0
7,21.54300022125244,immed,38456.99977874756,Tue Nov 11 2025 18:27:38 GMT-0600 (Central Standard Time),1109155.4000000358,A,sal,I,l,204,,1132.800000011921,1108022.6000000238,8053,WL,A,7.0
7,21.760000228881836,immed,38239.999771118164,Tue Nov 11 2025 18:27:38 GMT-0600 (Central Standard Time),1109372.0,A,salt,I,t,203,,1349.3999999761581,1108022.6000000238,8053,WL,A,7.0
7,22.47699999809265,immed,37523.00000190735,Tue Nov 11 2025 18:27:38 GMT-0600 (Central Standard Time),1110088.6000000238,A,saltenter,I,enter,699,,2066.0,1108022.6000000238,8053,WL,A,7.0
7,24.076000213623047,immed,35923.99978637695,Tue Nov 11 2025 18:27:38 GMT-0600 (Central Standard Time),1111688.1000000238,A,f,I,f,1590,,1599.199999988079,1110088.9000000358,8053,WL,A,8.0
7,24.243000030517578,immed,35756.99996948242,Tue Nov 11 2025 18:27:38 GMT-0600 (Central Standard Time),1111854.800000012,A,fi,I,i,150,,1765.8999999761581,1110088.9000000358,8053,WL,A,8.0
7,24.4760000705719,immed,35523.9999294281,Tue Nov 11 2025 18:27:38 GMT-0600 (Central Standard Time),1112088.0,A,fin,I,n,225,,1999.0999999642372,1110088.9000000358,8053,WL,A,8.0
7,24.693000078201294,immed,35306.999921798706,Tue Nov 11 2025 18:27:38 GMT-0600 (Central Standard Time),1112304.7000000477,A,fing,I,g,199,,2215.800000011921,1110088.9000000358,8053,WL,A,8.0
7,24.89400005340576,immed,35105.99994659424,Tue Nov 11 2025 18:27:38 GMT-0600 (Central Standard Time),1112505.7000000477,A,finge,I,e,182,,2416.800000011921,1110088.9000000358,8053,WL,A,8.0
7,24.95900011062622,immed,35040.99988937378,Tue Nov 11 2025 18:27:38 GMT-0600 (Central Standard Time),1112571.1000000238,A,finger,I,r,61,,2482.199999988079,1110088.9000000358,8053,WL,A,8.0
7,25.838000059127808,immed,34161.99994087219,Tue Nov 11 2025 18:27:38 GMT-0600 (Central Standard Time),1113449.7000000477,A,fingerenter,I,enter,874,,3360.800000011921,1110088.9000000358,8053,WL,A,8.0
