block_c,block_dur,condition,countdown,datetime,endtime,list,multichar_response,project,response,response_time,session_number,start_end,starttime,subject_id,task,task_vers,trial
,,,,Thu May 08 2025 10:08:30 GMT-0500 (Central Daylight Time),,,,I,space,357,2,,,8012,WL,B,
prac,,0,,Thu May 08 2025 10:08:30 GMT-0500 (Central Daylight Time),,NA,b,I,b,4611,2,,,8012,WL,B,1.0
prac,,0,,Thu May 08 2025 10:08:30 GMT-0500 (Central Daylight Time),,NA,bo,I,o,822,2,,,8012,WL,B,1.0
prac,,0,,Thu May 08 2025 10:08:30 GMT-0500 (Central Daylight Time),,NA,boo,I,o,126,2,,,8012,WL,B,1.0
prac,,0,,Thu May 08 2025 10:08:30 GMT-0500 (Central Daylight Time),,NA,boos,I,s,289,2,,,8012,WL,B,1.0
prac,,0,,Thu May 08 2025 10:08:30 GMT-0500 (Central Daylight Time),,NA,boost,I,t,197,2,,,8012,WL,B,1.0
prac,,0,,Thu May 08 2025 10:08:30 GMT-0500 (Central Daylight Time),,NA,boostenter,I,enter,2748,2,,,8012,WL,B,1.0
1,1.377000093460083,learn,58622.99990653992,Thu May 08 2025 10:08:30 GMT-0500 (Central Daylight Time),127547.90000000596,A,s,I,s,1370,2,1376.6000000014901,126171.30000000447,8012,WL,B,1.0
1,1.5860002040863037,learn,58413.999795913696,Thu May 08 2025 10:08:30 GMT-0500 (Central Daylight Time),127757.0,A,st,I,t,199,2,1585.6999999955297,126171.30000000447,8012,WL,B,1.0
1,2.116000175476074,learn,57883.999824523926,Thu May 08 2025 10:08:30 GMT-0500 (Central Daylight Time),128286.90000000596,A,str,I,r,510,2,2115.60000000149,126171.30000000447,8012,WL,B,1.0
1,2.3500001430511475,learn,57649.99985694885,Thu May 08 2025 10:08:30 GMT-0500 (Central Daylight Time),128520.30000000447,A,stre,I,e,220,2,2349.0,126171.30000000447,8012,WL,B,1.0
1,2.5160000324249268,learn,57483.99996757507,Thu May 08 2025 10:08:30 GMT-0500 (Central Daylight Time),128686.80000000447,A,stree,I,e,155,2,2515.5,126171.30000000447,8012,WL,B,1.0
1,2.7160000801086426,learn,57283.99991989136,Thu May 08 2025 10:08:30 GMT-0500 (Central Daylight Time),128886.70000000298,A,street,I,t,181,2,2715.39999999851,126171.30000000447,8012,WL,B,1.0
1,3.8990001678466797,learn,56100.99983215332,Thu May 08 2025 10:08:30 GMT-0500 (Central Daylight Time),130069.70000000298,A,streetenter,I,enter,1165,2,3898.39999999851,126171.30000000447,8012,WL,B,1.0
1,4.64900016784668,learn,55350.99983215332,Thu May 08 2025 10:08:30 GMT-0500 (Central Daylight Time),130819.30000000447,A,g,I,g,734,2,749.0,130070.30000000447,8012,WL,B,2.0
1,4.8480000495910645,learn,55151.999950408936,Thu May 08 2025 10:08:30 GMT-0500 (Central Daylight Time),131019.10000000149,A,gr,I,r,192,2,948.7999999970198,130070.30000000447,8012,WL,B,2.0
1,4.999000072479248,learn,55000.99992752075,Thu May 08 2025 10:08:30 GMT-0500 (Central Daylight Time),131169.30000000447,A,gra,I,a,136,2,1099.0,130070.30000000447,8012,WL,B,2.0
1,5.3480000495910645,learn,54651.999950408936,Thu May 08 2025 10:08:30 GMT-0500 (Central Daylight Time),131519.20000000298,A,gras,I,s,329,2,1448.8999999985099,130070.30000000447,8012,WL,B,2.0
1,5.5320000648498535,learn,54467.99993515015,Thu May 08 2025 10:08:30 GMT-0500 (Central Daylight Time),131702.5,A,grass,I,s,164,2,1632.1999999955297,130070.30000000447,8012,WL,B,2.0
1,6.148000001907349,learn,53851.99999809265,Thu May 08 2025 10:08:30 GMT-0500 (Central Daylight Time),132319.20000000298,A,grassenter,I,enter,605,2,2248.89999999851,130070.30000000447,8012,WL,B,2.0
1,6.898000001907349,learn,53101.99999809265,Thu May 08 2025 10:08:30 GMT-0500 (Central Daylight Time),133068.80000000447,A,d,I,d,740,2,749.2000000029802,132319.6000000015,8012,WL,B,3.0
1,7.215000152587891,learn,52784.99984741211,Thu May 08 2025 10:08:30 GMT-0500 (Central Daylight Time),133385.40000000596,A,do,I,o,303,2,1065.8000000044703,132319.6000000015,8012,WL,B,3.0
1,7.3480000495910645,learn,52651.999950408936,Thu May 08 2025 10:08:30 GMT-0500 (Central Daylight Time),133518.6000000015,A,doo,I,o,122,2,1199.0,132319.6000000015,8012,WL,B,3.0
1,7.54800009727478,learn,52451.99990272522,Thu May 08 2025 10:08:30 GMT-0500 (Central Daylight Time),133718.6000000015,A,door,I,r,189,2,1399.0,132319.6000000015,8012,WL,B,3.0
1,8.248000144958496,learn,51751.999855041504,Thu May 08 2025 10:08:30 GMT-0500 (Central Daylight Time),134418.6000000015,A,doorenter,I,enter,685,2,2099.0,132319.6000000015,8012,WL,B,3.0
1,8.564000129699707,learn,51435.99987030029,Thu May 08 2025 10:08:30 GMT-0500 (Central Daylight Time),134735.0,A,a,I,a,297,2,315.8999999985099,134419.1000000015,8012,WL,B,4.0
1,8.680999994277954,learn,51319.000005722046,Thu May 08 2025 10:08:30 GMT-0500 (Central Daylight Time),134851.6000000015,A,ar,I,r,101,2,432.5,134419.1000000015,8012,WL,B,4.0
1,8.914000034332275,learn,51085.999965667725,Thu May 08 2025 10:08:30 GMT-0500 (Central Daylight Time),135084.70000000298,A,arm,I,m,224,2,665.6000000014901,134419.1000000015,8012,WL,B,4.0
1,10.147000074386597,learn,49852.9999256134,Thu May 08 2025 10:08:30 GMT-0500 (Central Daylight Time),136317.70000000298,A,armenter,I,enter,1223,2,1898.6000000014901,134419.1000000015,8012,WL,B,4.0
1,12.080000162124634,learn,47919.999837875366,Thu May 08 2025 10:08:30 GMT-0500 (Central Daylight Time),138250.6000000015,A,s,I,s,1918,2,1932.5,136318.1000000015,8012,WL,B,5.0
1,12.34600019454956,learn,47653.99980545044,Thu May 08 2025 10:08:30 GMT-0500 (Central Daylight Time),138517.1000000015,A,st,I,t,258,2,2199.0,136318.1000000015,8012,WL,B,5.0
1,12.729000091552734,learn,47270.999908447266,Thu May 08 2025 10:08:30 GMT-0500 (Central Daylight Time),138900.1000000015,A,sta,I,a,367,2,2582.0,136318.1000000015,8012,WL,B,5.0
1,12.979000091552734,learn,47020.999908447266,Thu May 08 2025 10:08:30 GMT-0500 (Central Daylight Time),139150.20000000298,A,star,I,r,239,2,2832.10000000149,136318.1000000015,8012,WL,B,5.0
1,13.646000146865845,learn,46353.999853134155,Thu May 08 2025 10:08:30 GMT-0500 (Central Daylight Time),139816.6000000015,A,starenter,I,enter,645,2,3498.5,136318.1000000015,8012,WL,B,5.0
1,14.11300015449524,learn,45886.99984550476,Thu May 08 2025 10:08:30 GMT-0500 (Central Daylight Time),140283.30000000447,A,w,I,w,460,2,466.3999999985099,139816.90000000596,8012,WL,B,6.0
1,14.712000131607056,learn,45287.999868392944,Thu May 08 2025 10:08:30 GMT-0500 (Central Daylight Time),140883.0,A,wi,I,i,593,2,1066.0999999940395,139816.90000000596,8012,WL,B,6.0
1,14.979000091552734,learn,45020.999908447266,Thu May 08 2025 10:08:30 GMT-0500 (Central Daylight Time),141149.30000000447,A,wif,I,f,248,2,1332.3999999985099,139816.90000000596,8012,WL,B,6.0
1,15.17900013923645,learn,44820.99986076355,Thu May 08 2025 10:08:30 GMT-0500 (Central Daylight Time),141349.5,A,wife,I,e,191,2,1532.5999999940395,139816.90000000596,8012,WL,B,6.0
1,15.778000116348267,learn,44221.99988365173,Thu May 08 2025 10:08:30 GMT-0500 (Central Daylight Time),141949.1000000015,A,wifeenter,I,enter,582,2,2132.1999999955297,139816.90000000596,8012,WL,B,6.0
1,16.24500012397766,learn,43754.99987602234,Thu May 08 2025 10:08:30 GMT-0500 (Central Daylight Time),142415.80000000447,A,w,I,w,447,2,466.30000000447035,141949.5,8012,WL,B,7.0
1,16.562000036239624,learn,43437.999963760376,Thu May 08 2025 10:08:30 GMT-0500 (Central Daylight Time),142732.20000000298,A,wi,I,i,300,2,782.7000000029802,141949.5,8012,WL,B,7.0
1,16.695000171661377,learn,43304.99982833862,Thu May 08 2025 10:08:30 GMT-0500 (Central Daylight Time),142865.70000000298,A,win,I,n,119,2,916.2000000029802,141949.5,8012,WL,B,7.0
1,16.878000020980835,learn,43121.999979019165,Thu May 08 2025 10:08:30 GMT-0500 (Central Daylight Time),143049.0,A,wind,I,d,162,2,1099.5,141949.5,8012,WL,B,7.0
1,17.045000076293945,learn,42954.999923706055,Thu May 08 2025 10:08:30 GMT-0500 (Central Daylight Time),143215.5,A,windo,I,o,155,2,1266.0,141949.5,8012,WL,B,7.0
1,17.228000164031982,learn,42771.99983596802,Thu May 08 2025 10:08:30 GMT-0500 (Central Daylight Time),143398.80000000447,A,window,I,w,172,2,1449.3000000044703,141949.5,8012,WL,B,7.0
1,17.92799997329712,learn,42072.00002670288,Thu May 08 2025 10:08:30 GMT-0500 (Central Daylight Time),144098.70000000298,A,windowenter,I,enter,685,2,2149.2000000029802,141949.5,8012,WL,B,7.0
1,19.561000108718872,learn,40438.99989128113,Thu May 08 2025 10:08:30 GMT-0500 (Central Daylight Time),145731.6000000015,A,p,I,p,1617,2,1632.6000000014901,144099.0,8012,WL,B,8.0
1,19.794000148773193,learn,40205.99985122681,Thu May 08 2025 10:08:30 GMT-0500 (Central Daylight Time),145964.70000000298,A,pu,I,u,217,2,1865.7000000029802,144099.0,8012,WL,B,8.0
1,20.027000188827515,learn,39972.999811172485,Thu May 08 2025 10:08:30 GMT-0500 (Central Daylight Time),146198.0,A,pup,I,p,223,2,2099.0,144099.0,8012,WL,B,8.0
1,20.228000164031982,learn,39771.99983596802,Thu May 08 2025 10:08:30 GMT-0500 (Central Daylight Time),146398.30000000447,A,pupi,I,i,190,2,2299.3000000044703,144099.0,8012,WL,B,8.0
1,20.544000148773193,learn,39455.99985122681,Thu May 08 2025 10:08:30 GMT-0500 (Central Daylight Time),146714.70000000298,A,pupil,I,l,302,2,2615.7000000029802,144099.0,8012,WL,B,8.0
1,21.194000005722046,learn,38805.999994277954,Thu May 08 2025 10:08:30 GMT-0500 (Central Daylight Time),147364.20000000298,A,pupilenter,I,enter,634,2,3265.2000000029802,144099.0,8012,WL,B,8.0
1,21.97699999809265,learn,38023.00000190735,Thu May 08 2025 10:08:30 GMT-0500 (Central Daylight Time),148147.30000000447,A,c,I,c,776,2,782.6000000014901,147364.70000000298,8012,WL,B,9.0
1,22.14300012588501,learn,37856.99987411499,Thu May 08 2025 10:08:30 GMT-0500 (Central Daylight Time),148313.6000000015,A,ca,I,a,161,2,948.8999999985099,147364.70000000298,8012,WL,B,9.0
1,22.360000133514404,learn,37639.999866485596,Thu May 08 2025 10:08:30 GMT-0500 (Central Daylight Time),148530.5,A,cab,I,b,203,2,1165.7999999970198,147364.70000000298,8012,WL,B,9.0
1,22.628000020980835,learn,37371.999979019165,Thu May 08 2025 10:08:30 GMT-0500 (Central Daylight Time),148798.20000000298,A,cabi,I,i,250,2,1433.5,147364.70000000298,8012,WL,B,9.0
1,22.792999982833862,learn,37207.00001716614,Thu May 08 2025 10:08:30 GMT-0500 (Central Daylight Time),148963.80000000447,A,cabin,I,n,150,2,1599.1000000014901,147364.70000000298,8012,WL,B,9.0
1,23.243000030517578,learn,36756.99996948242,Thu May 08 2025 10:08:30 GMT-0500 (Central Daylight Time),149413.6000000015,A,cabinenter,I,enter,440,2,2048.89999999851,147364.70000000298,8012,WL,B,9.0
1,23.80900001525879,learn,36190.99998474121,Thu May 08 2025 10:08:30 GMT-0500 (Central Daylight Time),149980.1000000015,A,l,I,l,559,2,566.1000000014901,149414.0,8012,WL,B,10.0
1,23.9760000705719,learn,36023.9999294281,Thu May 08 2025 10:08:30 GMT-0500 (Central Daylight Time),150146.6000000015,A,la,I,a,152,2,732.6000000014901,149414.0,8012,WL,B,10.0
1,24.159000158309937,learn,35840.99984169006,Thu May 08 2025 10:08:30 GMT-0500 (Central Daylight Time),150330.0,A,lak,I,k,170,2,916.0,149414.0,8012,WL,B,10.0
1,24.30900001525879,learn,35690.99998474121,Thu May 08 2025 10:08:30 GMT-0500 (Central Daylight Time),150480.1000000015,A,lake,I,e,130,2,1066.1000000014901,149414.0,8012,WL,B,10.0
1,25.342000007629395,learn,34657.999992370605,Thu May 08 2025 10:08:30 GMT-0500 (Central Daylight Time),151512.90000000596,A,lakeenter,I,enter,1020,2,2098.9000000059605,149414.0,8012,WL,B,10.0
1,26.575000047683716,learn,33424.999952316284,Thu May 08 2025 10:08:30 GMT-0500 (Central Daylight Time),152745.80000000447,A,p,I,p,1227,2,1232.5,151513.30000000447,8012,WL,B,11.0
1,26.808000087738037,learn,33191.99991226196,Thu May 08 2025 10:08:30 GMT-0500 (Central Daylight Time),152979.0,A,pi,I,i,219,2,1465.6999999955297,151513.30000000447,8012,WL,B,11.0
1,26.992000102996826,learn,33007.999897003174,Thu May 08 2025 10:08:30 GMT-0500 (Central Daylight Time),153162.40000000596,A,pip,I,p,169,2,1649.1000000014901,151513.30000000447,8012,WL,B,11.0
1,27.242000102996826,learn,32757.999897003174,Thu May 08 2025 10:08:30 GMT-0500 (Central Daylight Time),153412.70000000298,A,pipe,I,e,233,2,1899.3999999985099,151513.30000000447,8012,WL,B,11.0
1,29.491000175476074,learn,30508.999824523926,Thu May 08 2025 10:08:30 GMT-0500 (Central Daylight Time),155661.6000000015,A,pipeenter,I,enter,2231,2,4148.29999999702,151513.30000000447,8012,WL,B,11.0
1,32.257000207901,learn,27742.999792099,Thu May 08 2025 10:08:30 GMT-0500 (Central Daylight Time),158427.5,A,f,I,f,2751,2,2765.5,155662.0,8012,WL,B,12.0
1,32.540000200271606,learn,27459.999799728394,Thu May 08 2025 10:08:30 GMT-0500 (Central Daylight Time),158710.70000000298,A,fi,I,i,273,2,3048.7000000029802,155662.0,8012,WL,B,12.0
1,32.790000200271606,learn,27209.999799728394,Thu May 08 2025 10:08:30 GMT-0500 (Central Daylight Time),158960.70000000298,A,fir,I,r,238,2,3298.7000000029802,155662.0,8012,WL,B,12.0
1,32.956000089645386,learn,27043.999910354614,Thu May 08 2025 10:08:30 GMT-0500 (Central Daylight Time),159127.0,A,fire,I,e,148,2,3465.0,155662.0,8012,WL,B,12.0
1,34.871999979019165,learn,25128.000020980835,Thu May 08 2025 10:08:30 GMT-0500 (Central Daylight Time),161043.20000000298,A,fireenter,I,enter,1910,2,5381.20000000298,155662.0,8012,WL,B,12.0
1,40.004000186920166,learn,19995.999813079834,Thu May 08 2025 10:08:30 GMT-0500 (Central Daylight Time),166175.1000000015,A,s,I,s,5121,2,5131.60000000149,161043.5,8012,WL,B,13.0
1,40.22100019454956,learn,19778.99980545044,Thu May 08 2025 10:08:30 GMT-0500 (Central Daylight Time),166391.6000000015,A,sk,I,k,205,2,5348.10000000149,161043.5,8012,WL,B,13.0
1,40.438000202178955,learn,19561.999797821045,Thu May 08 2025 10:08:30 GMT-0500 (Central Daylight Time),166608.30000000447,A,ski,I,i,205,2,5564.80000000447,161043.5,8012,WL,B,13.0
1,40.587000131607056,learn,19412.999868392944,Thu May 08 2025 10:08:30 GMT-0500 (Central Daylight Time),166758.20000000298,A,skin,I,n,140,2,5714.70000000298,161043.5,8012,WL,B,13.0
1,41.62000012397766,learn,18379.99987602234,Thu May 08 2025 10:08:30 GMT-0500 (Central Daylight Time),167791.20000000298,A,skinenter,I,enter,1022,2,6747.70000000298,161043.5,8012,WL,B,13.0
1,51.48400020599365,learn,8515.999794006348,Thu May 08 2025 10:08:30 GMT-0500 (Central Daylight Time),177654.80000000447,A,d,I,d,9845,2,9863.20000000298,167791.6000000015,8012,WL,B,14.0
1,51.76700019836426,learn,8232.999801635742,Thu May 08 2025 10:08:30 GMT-0500 (Central Daylight Time),177938.1000000015,A,do,I,o,268,2,10146.5,167791.6000000015,8012,WL,B,14.0
1,51.91700005531311,learn,8082.99994468689,Thu May 08 2025 10:08:30 GMT-0500 (Central Daylight Time),178088.0,A,doo,I,o,138,2,10296.39999999851,167791.6000000015,8012,WL,B,14.0
1,52.06700015068054,learn,7932.999849319458,Thu May 08 2025 10:08:30 GMT-0500 (Central Daylight Time),178238.0,A,door,I,r,132,2,10446.39999999851,167791.6000000015,8012,WL,B,14.0
1,52.66700005531311,learn,7332.99994468689,Thu May 08 2025 10:08:30 GMT-0500 (Central Daylight Time),178837.5,A,doorenter,I,enter,590,2,11045.89999999851,167791.6000000015,8012,WL,B,14.0
1,60.01400017738342,learn,-14.000177383422852,Thu May 08 2025 10:08:30 GMT-0500 (Central Daylight Time),186185.80000000447,A,None,I,None,7343,2,7348.0,178837.80000000447,8012,WL,B,15.0
2,0.999000072479248,learn,59000.99992752075,Thu May 08 2025 10:08:30 GMT-0500 (Central Daylight Time),254797.30000000447,A,s,I,s,983,2,999.3000000044703,253798.0,8012,WL,B,1.0
2,1.2160000801086426,learn,58783.99991989136,Thu May 08 2025 10:08:30 GMT-0500 (Central Daylight Time),255014.20000000298,A,st,I,t,207,2,1216.2000000029802,253798.0,8012,WL,B,1.0
2,1.632000207901001,learn,58367.999792099,Thu May 08 2025 10:08:30 GMT-0500 (Central Daylight Time),255430.40000000596,A,str,I,r,399,2,1632.4000000059605,253798.0,8012,WL,B,1.0
2,2.2150001525878906,learn,57784.99984741211,Thu May 08 2025 10:08:30 GMT-0500 (Central Daylight Time),256013.6000000015,A,stre,I,e,574,2,2215.60000000149,253798.0,8012,WL,B,1.0
2,2.382000207901001,learn,57617.999792099,Thu May 08 2025 10:08:30 GMT-0500 (Central Daylight Time),256180.20000000298,A,stree,I,e,151,2,2382.2000000029802,253798.0,8012,WL,B,1.0
2,2.5320000648498535,learn,57467.99993515015,Thu May 08 2025 10:08:30 GMT-0500 (Central Daylight Time),256330.0,A,street,I,t,144,2,2532.0,253798.0,8012,WL,B,1.0
2,3.432000160217285,learn,56567.999839782715,Thu May 08 2025 10:08:30 GMT-0500 (Central Daylight Time),257230.1000000015,A,streetenter,I,enter,890,2,3432.10000000149,253798.0,8012,WL,B,1.0
2,4.081000089645386,learn,55918.999910354614,Thu May 08 2025 10:08:30 GMT-0500 (Central Daylight Time),257879.6000000015,A,g,I,g,638,2,649.1999999955297,257230.40000000596,8012,WL,B,2.0
2,4.281000137329102,learn,55718.9998626709,Thu May 08 2025 10:08:30 GMT-0500 (Central Daylight Time),258079.70000000298,A,gr,I,r,181,2,849.2999999970198,257230.40000000596,8012,WL,B,2.0
2,4.430999994277954,learn,55569.000005722046,Thu May 08 2025 10:08:30 GMT-0500 (Central Daylight Time),258229.5,A,gra,I,a,133,2,999.0999999940395,257230.40000000596,8012,WL,B,2.0
2,4.63100004196167,learn,55368.99995803833,Thu May 08 2025 10:08:30 GMT-0500 (Central Daylight Time),258429.5,A,gras,I,s,191,2,1199.0999999940395,257230.40000000596,8012,WL,B,2.0
2,4.781000137329102,learn,55218.9998626709,Thu May 08 2025 10:08:30 GMT-0500 (Central Daylight Time),258579.5,A,grass,I,s,143,2,1349.0999999940395,257230.40000000596,8012,WL,B,2.0
2,5.430999994277954,learn,54569.000005722046,Thu May 08 2025 10:08:30 GMT-0500 (Central Daylight Time),259229.1000000015,A,grassenter,I,enter,641,2,1998.6999999955297,257230.40000000596,8012,WL,B,2.0
2,5.88100004196167,learn,54118.99995803833,Thu May 08 2025 10:08:30 GMT-0500 (Central Daylight Time),259679.0,A,d,I,d,431,2,449.5,259229.5,8012,WL,B,3.0
2,6.164000034332275,learn,53835.999965667725,Thu May 08 2025 10:08:30 GMT-0500 (Central Daylight Time),259962.5,A,do,I,o,269,2,733.0,259229.5,8012,WL,B,3.0
2,6.29800009727478,learn,53701.99990272522,Thu May 08 2025 10:08:30 GMT-0500 (Central Daylight Time),260095.80000000447,A,doo,I,o,122,2,866.3000000044703,259229.5,8012,WL,B,3.0
2,6.430999994277954,learn,53569.000005722046,Thu May 08 2025 10:08:30 GMT-0500 (Central Daylight Time),260229.1000000015,A,door,I,r,117,2,999.6000000014901,259229.5,8012,WL,B,3.0
2,6.8470001220703125,learn,53152.99987792969,Thu May 08 2025 10:08:30 GMT-0500 (Central Daylight Time),260645.40000000596,A,doorenter,I,enter,407,2,1415.9000000059605,259229.5,8012,WL,B,3.0
2,7.496999979019165,learn,52503.000020980835,Thu May 08 2025 10:08:30 GMT-0500 (Central Daylight Time),261295.40000000596,A,k,I,k,639,2,649.6000000014901,260645.80000000447,8012,WL,B,4.0
2,7.630000114440918,learn,52369.99988555908,Thu May 08 2025 10:08:30 GMT-0500 (Central Daylight Time),261428.5,A,kn,I,n,125,2,782.6999999955297,260645.80000000447,8012,WL,B,4.0
2,7.797000169754028,learn,52202.99983024597,Thu May 08 2025 10:08:30 GMT-0500 (Central Daylight Time),261595.1000000015,A,kno,I,o,152,2,949.2999999970198,260645.80000000447,8012,WL,B,4.0
2,8.69700002670288,learn,51302.99997329712,Thu May 08 2025 10:08:30 GMT-0500 (Central Daylight Time),262495.0,A,knob,I,b,889,2,1849.1999999955297,260645.80000000447,8012,WL,B,4.0
2,9.147000074386597,learn,50852.9999256134,Thu May 08 2025 10:08:30 GMT-0500 (Central Daylight Time),262944.80000000447,A,knobenter,I,enter,429,2,2299.0,260645.80000000447,8012,WL,B,4.0
2,10.580000162124634,learn,49419.999837875366,Thu May 08 2025 10:08:30 GMT-0500 (Central Daylight Time),264377.90000000596,A,s,I,s,1412,2,1432.8000000044703,262945.1000000015,8012,WL,B,5.0
2,10.828999996185303,learn,49171.0000038147,Thu May 08 2025 10:08:30 GMT-0500 (Central Daylight Time),264627.6000000015,A,st,I,t,234,2,1682.5,262945.1000000015,8012,WL,B,5.0
2,11.046000003814697,learn,48953.9999961853,Thu May 08 2025 10:08:30 GMT-0500 (Central Daylight Time),264844.200000003,A,sta,I,a,209,2,1899.1000000014901,262945.1000000015,8012,WL,B,5.0
2,11.146000146865845,learn,48853.999853134155,Thu May 08 2025 10:08:30 GMT-0500 (Central Daylight Time),264944.1000000015,A,star,I,r,80,2,1999.0,262945.1000000015,8012,WL,B,5.0
2,11.51200008392334,learn,48487.99991607666,Thu May 08 2025 10:08:30 GMT-0500 (Central Daylight Time),265310.700000003,A,starenter,I,enter,356,2,2365.60000000149,262945.1000000015,8012,WL,B,5.0
2,11.779000043869019,learn,48220.99995613098,Thu May 08 2025 10:08:30 GMT-0500 (Central Daylight Time),265577.40000000596,A,w,I,w,262,2,266.30000000447035,265311.1000000015,8012,WL,B,6.0
2,11.962000131607056,learn,48037.999868392944,Thu May 08 2025 10:08:30 GMT-0500 (Central Daylight Time),265760.5,A,wi,I,i,163,2,449.3999999985099,265311.1000000015,8012,WL,B,6.0
2,12.129000186920166,learn,47870.999813079834,Thu May 08 2025 10:08:30 GMT-0500 (Central Daylight Time),265927.0,A,wif,I,f,156,2,615.8999999985099,265311.1000000015,8012,WL,B,6.0
2,12.361999988555908,learn,47638.00001144409,Thu May 08 2025 10:08:30 GMT-0500 (Central Daylight Time),266160.40000000596,A,wife,I,e,213,2,849.3000000044703,265311.1000000015,8012,WL,B,6.0
2,12.995000123977661,learn,47004.99987602234,Thu May 08 2025 10:08:30 GMT-0500 (Central Daylight Time),266793.6000000015,A,wifeenter,I,enter,628,2,1482.5,265311.1000000015,8012,WL,B,6.0
2,14.662000179290771,learn,45337.99982070923,Thu May 08 2025 10:08:30 GMT-0500 (Central Daylight Time),268459.80000000447,A,w,I,w,1650,2,1665.8999999985099,266793.90000000596,8012,WL,B,7.0
2,14.991000175476074,learn,45008.999824523926,Thu May 08 2025 10:08:30 GMT-0500 (Central Daylight Time),268788.90000000596,A,wn,I,n,325,2,1995.0,266793.90000000596,8012,WL,B,7.0
2,15.138000011444092,learn,44861.99998855591,Thu May 08 2025 10:08:30 GMT-0500 (Central Daylight Time),268936.200000003,A,wnd,I,d,142,2,2142.2999999970198,266793.90000000596,8012,WL,B,7.0
2,15.213000059127808,learn,44786.99994087219,Thu May 08 2025 10:08:30 GMT-0500 (Central Daylight Time),269011.6000000015,A,wndo,I,o,68,2,2217.6999999955297,266793.90000000596,8012,WL,B,7.0
2,16.24400019645691,learn,43755.99980354309,Thu May 08 2025 10:08:30 GMT-0500 (Central Daylight Time),270042.40000000596,A,wnd,I,backspace,1025,2,3248.5,266793.90000000596,8012,WL,B,7.0
2,16.41100001335144,learn,43588.99998664856,Thu May 08 2025 10:08:30 GMT-0500 (Central Daylight Time),270209.5,A,wn,I,backspace,162,2,3415.5999999940395,266793.90000000596,8012,WL,B,7.0
2,16.57800006866455,learn,43421.99993133545,Thu May 08 2025 10:08:30 GMT-0500 (Central Daylight Time),270375.80000000447,A,w,I,backspace,147,2,3581.89999999851,266793.90000000596,8012,WL,B,7.0
2,17.261000156402588,learn,42738.99984359741,Thu May 08 2025 10:08:30 GMT-0500 (Central Daylight Time),271059.0,A,wi,I,i,676,2,4265.0999999940395,266793.90000000596,8012,WL,B,7.0
2,17.49500012397766,learn,42504.99987602234,Thu May 08 2025 10:08:30 GMT-0500 (Central Daylight Time),271293.30000000447,A,win,I,n,225,2,4499.39999999851,266793.90000000596,8012,WL,B,7.0
2,17.677000045776367,learn,42322.99995422363,Thu May 08 2025 10:08:30 GMT-0500 (Central Daylight Time),271475.6000000015,A,wind,I,d,175,2,4681.69999999553,266793.90000000596,8012,WL,B,7.0
2,17.8270001411438,learn,42172.9998588562,Thu May 08 2025 10:08:30 GMT-0500 (Central Daylight Time),271625.30000000447,A,windo,I,o,136,2,4831.39999999851,266793.90000000596,8012,WL,B,7.0
2,17.960000038146973,learn,42039.99996185303,Thu May 08 2025 10:08:30 GMT-0500 (Central Daylight Time),271758.6000000015,A,window,I,w,123,2,4964.69999999553,266793.90000000596,8012,WL,B,7.0
2,18.64400005340576,learn,41355.99994659424,Thu May 08 2025 10:08:30 GMT-0500 (Central Daylight Time),272441.80000000447,A,windowenter,I,enter,670,2,5647.89999999851,266793.90000000596,8012,WL,B,7.0
2,19.49500012397766,learn,40504.99987602234,Thu May 08 2025 10:08:30 GMT-0500 (Central Daylight Time),273292.80000000447,A,c,I,c,835,2,850.7000000029802,272442.1000000015,8012,WL,B,8.0
2,19.677000045776367,learn,40322.99995422363,Thu May 08 2025 10:08:30 GMT-0500 (Central Daylight Time),273474.80000000447,A,ci,I,i,175,2,1032.7000000029802,272442.1000000015,8012,WL,B,8.0
2,20.093000173568726,learn,39906.999826431274,Thu May 08 2025 10:08:30 GMT-0500 (Central Daylight Time),273891.30000000447,A,cit,I,t,410,2,1449.2000000029802,272442.1000000015,8012,WL,B,8.0
2,20.2260000705719,learn,39773.9999294281,Thu May 08 2025 10:08:30 GMT-0500 (Central Daylight Time),274024.700000003,A,city,I,y,121,2,1582.6000000014901,272442.1000000015,8012,WL,B,8.0
2,20.56000018119812,learn,39439.99981880188,Thu May 08 2025 10:08:30 GMT-0500 (Central Daylight Time),274357.90000000596,A,cityenter,I,enter,324,2,1915.8000000044703,272442.1000000015,8012,WL,B,8.0
2,21.042999982833862,learn,38957.00001716614,Thu May 08 2025 10:08:30 GMT-0500 (Central Daylight Time),274841.5,A,s,I,s,463,2,483.19999999552965,274358.30000000447,8012,WL,B,9.0
2,21.20900011062622,learn,38790.99988937378,Thu May 08 2025 10:08:30 GMT-0500 (Central Daylight Time),275007.700000003,A,sk,I,k,147,2,649.3999999985099,274358.30000000447,8012,WL,B,9.0
2,21.426000118255615,learn,38573.999881744385,Thu May 08 2025 10:08:30 GMT-0500 (Central Daylight Time),275224.200000003,A,ski,I,i,205,2,865.8999999985099,274358.30000000447,8012,WL,B,9.0
2,21.55900001525879,learn,38440.99998474121,Thu May 08 2025 10:08:30 GMT-0500 (Central Daylight Time),275357.5,A,skin,I,n,124,2,999.1999999955297,274358.30000000447,8012,WL,B,9.0
2,21.9760000705719,learn,38023.9999294281,Thu May 08 2025 10:08:30 GMT-0500 (Central Daylight Time),275774.200000003,A,skinenter,I,enter,399,2,1415.8999999985099,274358.30000000447,8012,WL,B,9.0
2,22.426000118255615,learn,37573.999881744385,Thu May 08 2025 10:08:30 GMT-0500 (Central Daylight Time),276224.0,A,p,I,p,430,2,449.5,275774.5,8012,WL,B,10.0
2,22.642000198364258,learn,37357.99980163574,Thu May 08 2025 10:08:30 GMT-0500 (Central Daylight Time),276440.6000000015,A,pu,I,u,204,2,666.1000000014901,275774.5,8012,WL,B,10.0
2,22.844000101089478,learn,37155.99989891052,Thu May 08 2025 10:08:30 GMT-0500 (Central Daylight Time),276641.80000000447,A,pup,I,p,180,2,867.3000000044703,275774.5,8012,WL,B,10.0
2,23.009000062942505,learn,36990.999937057495,Thu May 08 2025 10:08:30 GMT-0500 (Central Daylight Time),276807.200000003,A,pupi,I,i,147,2,1032.7000000029802,275774.5,8012,WL,B,10.0
2,23.242000102996826,learn,36757.999897003174,Thu May 08 2025 10:08:30 GMT-0500 (Central Daylight Time),277040.40000000596,A,pupil,I,l,221,2,1265.9000000059605,275774.5,8012,WL,B,10.0
2,23.609000205993652,learn,36390.99979400635,Thu May 08 2025 10:08:30 GMT-0500 (Central Daylight Time),277406.90000000596,A,pupilenter,I,enter,348,2,1632.4000000059605,275774.5,8012,WL,B,10.0
2,24.092000007629395,learn,35907.999992370605,Thu May 08 2025 10:08:30 GMT-0500 (Central Daylight Time),277890.0,A,p,I,p,477,2,482.79999999701977,277407.200000003,8012,WL,B,11.0
2,24.425000190734863,learn,35574.99980926514,Thu May 08 2025 10:08:30 GMT-0500 (Central Daylight Time),278223.30000000447,A,pi,I,i,314,2,816.1000000014901,277407.200000003,8012,WL,B,11.0
2,24.60800004005432,learn,35391.99995994568,Thu May 08 2025 10:08:30 GMT-0500 (Central Daylight Time),278406.6000000015,A,pip,I,p,173,2,999.3999999985099,277407.200000003,8012,WL,B,11.0
2,24.758000135421753,learn,35241.99986457825,Thu May 08 2025 10:08:30 GMT-0500 (Central Daylight Time),278556.700000003,A,pipe,I,e,142,2,1149.5,277407.200000003,8012,WL,B,11.0
2,25.20800018310547,learn,34791.99981689453,Thu May 08 2025 10:08:30 GMT-0500 (Central Daylight Time),279006.40000000596,A,pipeenter,I,enter,431,2,1599.2000000029802,277407.200000003,8012,WL,B,11.0
2,25.641000032424927,learn,34358.99996757507,Thu May 08 2025 10:08:30 GMT-0500 (Central Daylight Time),279439.6000000015,A,f,I,f,422,2,432.8999999985099,279006.700000003,8012,WL,B,12.0
2,25.79100012779236,learn,34208.99987220764,Thu May 08 2025 10:08:30 GMT-0500 (Central Daylight Time),279589.40000000596,A,fi,I,i,133,2,582.7000000029802,279006.700000003,8012,WL,B,12.0
2,25.991000175476074,learn,34008.999824523926,Thu May 08 2025 10:08:30 GMT-0500 (Central Daylight Time),279789.5,A,fir,I,r,191,2,782.7999999970198,279006.700000003,8012,WL,B,12.0
2,26.157999992370605,learn,33842.000007629395,Thu May 08 2025 10:08:30 GMT-0500 (Central Daylight Time),279956.200000003,A,fire,I,e,151,2,949.5,279006.700000003,8012,WL,B,12.0
2,27.241000175476074,learn,32758.999824523926,Thu May 08 2025 10:08:30 GMT-0500 (Central Daylight Time),281039.200000003,A,fireenter,I,enter,1064,2,2032.5,279006.700000003,8012,WL,B,12.0
2,30.52300000190735,learn,29476.99999809265,Thu May 08 2025 10:08:30 GMT-0500 (Central Daylight Time),284321.40000000596,A,c,I,c,3277,2,3281.8000000044703,281039.6000000015,8012,WL,B,13.0
2,30.640000104904175,learn,29359.999895095825,Thu May 08 2025 10:08:30 GMT-0500 (Central Daylight Time),284438.200000003,A,cl,I,l,99,2,3398.60000000149,281039.6000000015,8012,WL,B,13.0
2,30.84000015258789,learn,29159.99984741211,Thu May 08 2025 10:08:30 GMT-0500 (Central Daylight Time),284638.200000003,A,clo,I,o,182,2,3598.60000000149,281039.6000000015,8012,WL,B,13.0
2,31.373000144958496,learn,28626.999855041504,Thu May 08 2025 10:08:30 GMT-0500 (Central Daylight Time),285171.30000000447,A,cloc,I,c,518,2,4131.70000000298,281039.6000000015,8012,WL,B,13.0
2,32.33899998664856,learn,27661.00001335144,Thu May 08 2025 10:08:30 GMT-0500 (Central Daylight Time),286137.5,A,clock,I,k,961,2,5097.89999999851,281039.6000000015,8012,WL,B,13.0
2,36.07100009918213,learn,23928.99990081787,Thu May 08 2025 10:08:30 GMT-0500 (Central Daylight Time),289869.700000003,A,clockenter,I,enter,3715,2,8830.10000000149,281039.6000000015,8012,WL,B,13.0
2,36.9539999961853,learn,23046.000003814697,Thu May 08 2025 10:08:30 GMT-0500 (Central Daylight Time),290752.80000000447,A,c,I,c,871,2,882.7000000029802,289870.1000000015,8012,WL,B,14.0
2,37.08800005912781,learn,22911.999940872192,Thu May 08 2025 10:08:30 GMT-0500 (Central Daylight Time),290886.200000003,A,ca,I,a,123,2,1016.1000000014901,289870.1000000015,8012,WL,B,14.0
2,37.28800010681152,learn,22711.999893188477,Thu May 08 2025 10:08:30 GMT-0500 (Central Daylight Time),291086.0,A,cab,I,b,182,2,1215.8999999985099,289870.1000000015,8012,WL,B,14.0
2,37.47100019454956,learn,22528.99980545044,Thu May 08 2025 10:08:30 GMT-0500 (Central Daylight Time),291269.200000003,A,cabi,I,i,174,2,1399.1000000014901,289870.1000000015,8012,WL,B,14.0
2,37.57100009918213,learn,22428.99990081787,Thu May 08 2025 10:08:30 GMT-0500 (Central Daylight Time),291369.30000000447,A,cabin,I,n,87,2,1499.2000000029802,289870.1000000015,8012,WL,B,14.0
2,38.021000146865845,learn,21978.999853134155,Thu May 08 2025 10:08:30 GMT-0500 (Central Daylight Time),291819.200000003,A,cabinenter,I,enter,443,2,1949.1000000014901,289870.1000000015,8012,WL,B,14.0
2,38.551000118255615,learn,21448.999881744385,Thu May 08 2025 10:08:30 GMT-0500 (Central Daylight Time),292349.30000000447,A,l,I,l,525,2,529.8000000044703,291819.5,8012,WL,B,15.0
2,38.69800019264221,learn,21301.999807357788,Thu May 08 2025 10:08:30 GMT-0500 (Central Daylight Time),292496.40000000596,A,la,I,a,142,2,676.9000000059605,291819.5,8012,WL,B,15.0
2,38.75500011444092,learn,21244.999885559082,Thu May 08 2025 10:08:30 GMT-0500 (Central Daylight Time),292553.40000000596,A,lak,I,k,43,2,733.9000000059605,291819.5,8012,WL,B,15.0
2,38.87100005149841,learn,21128.999948501587,Thu May 08 2025 10:08:30 GMT-0500 (Central Daylight Time),292668.90000000596,A,lake,I,e,107,2,849.4000000059605,291819.5,8012,WL,B,15.0
2,39.187000036239624,learn,20812.999963760376,Thu May 08 2025 10:08:30 GMT-0500 (Central Daylight Time),292985.6000000015,A,lakeenter,I,enter,311,2,1166.1000000014901,291819.5,8012,WL,B,15.0
3,0.41499996185302734,learn,59585.00003814697,Thu May 08 2025 10:08:30 GMT-0500 (Central Daylight Time),360214.5,A,s,I,s,407,2,416.29999999701977,359798.200000003,8012,WL,B,1.0
3,0.5810000896453857,learn,59418.999910354614,Thu May 08 2025 10:08:30 GMT-0500 (Central Daylight Time),360380.90000000596,A,st,I,t,157,2,582.7000000029802,359798.200000003,8012,WL,B,1.0
3,0.815000057220459,learn,59184.99994277954,Thu May 08 2025 10:08:30 GMT-0500 (Central Daylight Time),360614.5,A,str,I,r,215,2,816.2999999970198,359798.200000003,8012,WL,B,1.0
3,0.997999906539917,learn,59002.00009346008,Thu May 08 2025 10:08:30 GMT-0500 (Central Daylight Time),360797.6000000015,A,stre,I,e,166,2,999.3999999985099,359798.200000003,8012,WL,B,1.0
3,1.1480000019073486,learn,58851.99999809265,Thu May 08 2025 10:08:30 GMT-0500 (Central Daylight Time),360947.5,A,stree,I,e,135,2,1149.2999999970198,359798.200000003,8012,WL,B,1.0
3,1.2980000972747803,learn,58701.99990272522,Thu May 08 2025 10:08:30 GMT-0500 (Central Daylight Time),361097.40000000596,A,street,I,t,129,2,1299.2000000029802,359798.200000003,8012,WL,B,1.0
3,1.5980000495910645,learn,58401.999950408936,Thu May 08 2025 10:08:30 GMT-0500 (Central Daylight Time),361397.40000000596,A,streetenter,I,enter,291,2,1599.2000000029802,359798.200000003,8012,WL,B,1.0
3,1.9470000267028809,learn,58052.99997329712,Thu May 08 2025 10:08:30 GMT-0500 (Central Daylight Time),361747.1000000015,A,g,I,g,335,2,349.3999999985099,361397.700000003,8012,WL,B,2.0
3,2.1470000743865967,learn,57852.9999256134,Thu May 08 2025 10:08:30 GMT-0500 (Central Daylight Time),361947.1000000015,A,gr,I,r,185,2,549.3999999985099,361397.700000003,8012,WL,B,2.0
3,2.2639999389648438,learn,57736.000061035156,Thu May 08 2025 10:08:30 GMT-0500 (Central Daylight Time),362063.90000000596,A,gra,I,a,105,2,666.2000000029802,361397.700000003,8012,WL,B,2.0
3,2.447000026702881,learn,57552.99997329712,Thu May 08 2025 10:08:30 GMT-0500 (Central Daylight Time),362247.200000003,A,gras,I,s,172,2,849.5,361397.700000003,8012,WL,B,2.0
3,2.615000009536743,learn,57384.99999046326,Thu May 08 2025 10:08:30 GMT-0500 (Central Daylight Time),362414.80000000447,A,grass,I,s,149,2,1017.1000000014901,361397.700000003,8012,WL,B,2.0
3,2.7639999389648438,learn,57236.000061035156,Thu May 08 2025 10:08:30 GMT-0500 (Central Daylight Time),362563.700000003,A,grassenter,I,enter,134,2,1166.0,361397.700000003,8012,WL,B,2.0
3,2.9639999866485596,learn,57036.00001335144,Thu May 08 2025 10:08:30 GMT-0500 (Central Daylight Time),362763.6000000015,A,d,I,d,185,2,199.60000000149012,362564.0,8012,WL,B,3.0
3,3.2209999561309814,learn,56779.00004386902,Thu May 08 2025 10:08:30 GMT-0500 (Central Daylight Time),363020.6000000015,A,do,I,o,252,2,456.6000000014901,362564.0,8012,WL,B,3.0
3,3.368000030517578,learn,56631.99996948242,Thu May 08 2025 10:08:30 GMT-0500 (Central Daylight Time),363167.90000000596,A,doo,I,o,142,2,603.9000000059605,362564.0,8012,WL,B,3.0
3,3.3980000019073486,learn,56601.99999809265,Thu May 08 2025 10:08:30 GMT-0500 (Central Daylight Time),363197.700000003,A,door,I,r,20,2,633.7000000029802,362564.0,8012,WL,B,3.0
3,3.8299999237060547,learn,56170.000076293945,Thu May 08 2025 10:08:30 GMT-0500 (Central Daylight Time),363630.0,A,doorenter,I,enter,415,2,1066.0,362564.0,8012,WL,B,3.0
3,4.046999931335449,learn,55953.00006866455,Thu May 08 2025 10:08:30 GMT-0500 (Central Daylight Time),363846.40000000596,A,a,I,a,198,2,216.0,363630.40000000596,8012,WL,B,4.0
3,4.130000114440918,learn,55869.99988555908,Thu May 08 2025 10:08:30 GMT-0500 (Central Daylight Time),363929.80000000447,A,ar,I,r,78,2,299.3999999985099,363630.40000000596,8012,WL,B,4.0
3,4.296999931335449,learn,55703.00006866455,Thu May 08 2025 10:08:30 GMT-0500 (Central Daylight Time),364096.5,A,arm,I,m,155,2,466.09999999403954,363630.40000000596,8012,WL,B,4.0
3,4.697000026702881,learn,55302.99997329712,Thu May 08 2025 10:08:30 GMT-0500 (Central Daylight Time),364496.30000000447,A,armenter,I,enter,388,2,865.8999999985099,363630.40000000596,8012,WL,B,4.0
3,5.11299991607666,learn,54887.00008392334,Thu May 08 2025 10:08:30 GMT-0500 (Central Daylight Time),364913.1000000015,A,w,I,w,396,2,416.3999999985099,364496.700000003,8012,WL,B,5.0
3,5.380000114440918,learn,54619.99988555908,Thu May 08 2025 10:08:30 GMT-0500 (Central Daylight Time),365179.5,A,,I,backspace,259,2,682.7999999970198,364496.700000003,8012,WL,B,5.0
3,5.5299999713897705,learn,54470.00002861023,Thu May 08 2025 10:08:30 GMT-0500 (Central Daylight Time),365329.700000003,A,s,I,s,129,2,833.0,364496.700000003,8012,WL,B,5.0
3,5.5959999561309814,learn,54404.00004386902,Thu May 08 2025 10:08:30 GMT-0500 (Central Daylight Time),365396.1000000015,A,st,I,t,51,2,899.3999999985099,364496.700000003,8012,WL,B,5.0
3,5.796000003814697,learn,54203.9999961853,Thu May 08 2025 10:08:30 GMT-0500 (Central Daylight Time),365596.1000000015,A,sta,I,a,192,2,1099.3999999985099,364496.700000003,8012,WL,B,5.0
3,5.913000106811523,learn,54086.99989318848,Thu May 08 2025 10:08:30 GMT-0500 (Central Daylight Time),365712.700000003,A,star,I,r,96,2,1216.0,364496.700000003,8012,WL,B,5.0
3,6.178999900817871,learn,53821.00009918213,Thu May 08 2025 10:08:30 GMT-0500 (Central Daylight Time),365979.200000003,A,starenter,I,enter,259,2,1482.5,364496.700000003,8012,WL,B,5.0
3,6.36299991607666,learn,53637.00008392334,Thu May 08 2025 10:08:30 GMT-0500 (Central Daylight Time),366162.80000000447,A,w,I,w,169,2,183.30000000447035,365979.5,8012,WL,B,6.0
3,6.5299999713897705,learn,53470.00002861023,Thu May 08 2025 10:08:30 GMT-0500 (Central Daylight Time),366329.700000003,A,wi,I,i,162,2,350.20000000298023,365979.5,8012,WL,B,6.0
3,6.663000106811523,learn,53336.99989318848,Thu May 08 2025 10:08:30 GMT-0500 (Central Daylight Time),366462.6000000015,A,wif,I,f,123,2,483.1000000014901,365979.5,8012,WL,B,6.0
3,7.013000011444092,learn,52986.99998855591,Thu May 08 2025 10:08:30 GMT-0500 (Central Daylight Time),366812.700000003,A,wife,I,e,333,2,833.2000000029802,365979.5,8012,WL,B,6.0
3,7.213000059127808,learn,52786.99994087219,Thu May 08 2025 10:08:30 GMT-0500 (Central Daylight Time),367012.40000000596,A,wifeenter,I,enter,184,2,1032.9000000059605,365979.5,8012,WL,B,6.0
3,7.462000131607056,learn,52537.999868392944,Thu May 08 2025 10:08:30 GMT-0500 (Central Daylight Time),367262.200000003,A,w,I,w,240,2,249.39999999850988,367012.80000000447,8012,WL,B,7.0
3,7.5959999561309814,learn,52404.00004386902,Thu May 08 2025 10:08:30 GMT-0500 (Central Daylight Time),367395.5,A,wi,I,i,118,2,382.69999999552965,367012.80000000447,8012,WL,B,7.0
3,7.729000091552734,learn,52270.999908447266,Thu May 08 2025 10:08:30 GMT-0500 (Central Daylight Time),367528.90000000596,A,win,I,n,113,2,516.1000000014901,367012.80000000447,8012,WL,B,7.0
3,7.878999948501587,learn,52121.00005149841,Thu May 08 2025 10:08:30 GMT-0500 (Central Daylight Time),367678.700000003,A,wind,I,d,139,2,665.8999999985099,367012.80000000447,8012,WL,B,7.0
3,8.27999997138977,learn,51720.00002861023,Thu May 08 2025 10:08:30 GMT-0500 (Central Daylight Time),368079.700000003,A,windo,I,o,390,2,1066.8999999985099,367012.80000000447,8012,WL,B,7.0
3,8.51200008392334,learn,51487.99991607666,Thu May 08 2025 10:08:30 GMT-0500 (Central Daylight Time),368312.0,A,window,I,w,220,2,1299.1999999955297,367012.80000000447,8012,WL,B,7.0
3,8.82800006866455,learn,51171.99993133545,Thu May 08 2025 10:08:30 GMT-0500 (Central Daylight Time),368628.30000000447,A,windowenter,I,enter,300,2,1615.5,367012.80000000447,8012,WL,B,7.0
3,10.245000123977661,learn,49754.99987602234,Thu May 08 2025 10:08:30 GMT-0500 (Central Daylight Time),370044.6000000015,A,c,I,c,1400,2,1416.0,368628.6000000015,8012,WL,B,8.0
3,10.394999980926514,learn,49605.000019073486,Thu May 08 2025 10:08:30 GMT-0500 (Central Daylight Time),370194.5,A,ci,I,i,144,2,1565.8999999985099,368628.6000000015,8012,WL,B,8.0
3,10.562000036239624,learn,49437.999963760376,Thu May 08 2025 10:08:30 GMT-0500 (Central Daylight Time),370361.40000000596,A,cit,I,t,154,2,1732.8000000044703,368628.6000000015,8012,WL,B,8.0
3,10.644999980926514,learn,49355.000019073486,Thu May 08 2025 10:08:30 GMT-0500 (Central Daylight Time),370444.5,A,city,I,y,75,2,1815.8999999985099,368628.6000000015,8012,WL,B,8.0
3,12.17799997329712,learn,47822.00002670288,Thu May 08 2025 10:08:30 GMT-0500 (Central Daylight Time),371977.6000000015,A,cityenter,I,enter,1512,2,3349.0,368628.6000000015,8012,WL,B,8.0
3,15.42799997329712,learn,44572.00002670288,Thu May 08 2025 10:08:30 GMT-0500 (Central Daylight Time),375227.6000000015,A,p,I,p,3243,2,3249.6999999955297,371977.90000000596,8012,WL,B,9.0
3,15.628000020980835,learn,44371.999979019165,Thu May 08 2025 10:08:30 GMT-0500 (Central Daylight Time),375427.40000000596,A,pu,I,u,193,2,3449.5,371977.90000000596,8012,WL,B,9.0
3,15.842999935150146,learn,44157.00006484985,Thu May 08 2025 10:08:30 GMT-0500 (Central Daylight Time),375643.0,A,pup,I,p,209,2,3665.0999999940395,371977.90000000596,8012,WL,B,9.0
3,16.009999990463257,learn,43990.00000953674,Thu May 08 2025 10:08:30 GMT-0500 (Central Daylight Time),375809.5,A,pupi,I,i,153,2,3831.5999999940395,371977.90000000596,8012,WL,B,9.0
3,16.210000038146973,learn,43789.99996185303,Thu May 08 2025 10:08:30 GMT-0500 (Central Daylight Time),376009.40000000596,A,pupil,I,l,195,2,4031.5,371977.90000000596,8012,WL,B,9.0
3,16.926000118255615,learn,43073.999881744385,Thu May 08 2025 10:08:30 GMT-0500 (Central Daylight Time),376726.0,A,pupilenter,I,enter,699,2,4748.0999999940395,371977.90000000596,8012,WL,B,9.0
3,17.493000030517578,learn,42506.99996948242,Thu May 08 2025 10:08:30 GMT-0500 (Central Daylight Time),377292.40000000596,A,c,I,c,559,2,566.1000000014901,376726.30000000447,8012,WL,B,10.0
3,17.592999935150146,learn,42407.00006484985,Thu May 08 2025 10:08:30 GMT-0500 (Central Daylight Time),377392.5,A,ca,I,a,88,2,666.1999999955297,376726.30000000447,8012,WL,B,10.0
3,17.743000030517578,learn,42256.99996948242,Thu May 08 2025 10:08:30 GMT-0500 (Central Daylight Time),377542.40000000596,A,cab,I,b,140,2,816.1000000014901,376726.30000000447,8012,WL,B,10.0
3,18.125999927520752,learn,41874.00007247925,Thu May 08 2025 10:08:30 GMT-0500 (Central Daylight Time),377925.700000003,A,cabi,I,i,366,2,1199.3999999985099,376726.30000000447,8012,WL,B,10.0
3,18.276000022888184,learn,41723.99997711182,Thu May 08 2025 10:08:30 GMT-0500 (Central Daylight Time),378075.30000000447,A,cabin,I,n,135,2,1349.0,376726.30000000447,8012,WL,B,10.0
3,18.575999975204468,learn,41424.00002479553,Thu May 08 2025 10:08:30 GMT-0500 (Central Daylight Time),378375.40000000596,A,cabinenter,I,enter,281,2,1649.1000000014901,376726.30000000447,8012,WL,B,10.0
3,18.858999967575073,learn,41141.00003242493,Thu May 08 2025 10:08:30 GMT-0500 (Central Daylight Time),378658.700000003,A,l,I,l,269,2,283.0,378375.700000003,8012,WL,B,11.0
3,19.026000022888184,learn,40973.99997711182,Thu May 08 2025 10:08:30 GMT-0500 (Central Daylight Time),378825.200000003,A,la,I,a,153,2,449.5,378375.700000003,8012,WL,B,11.0
3,19.14199995994568,learn,40858.00004005432,Thu May 08 2025 10:08:30 GMT-0500 (Central Daylight Time),378942.200000003,A,lak,I,k,99,2,566.5,378375.700000003,8012,WL,B,11.0
3,19.441999912261963,learn,40558.00008773804,Thu May 08 2025 10:08:30 GMT-0500 (Central Daylight Time),379241.90000000596,A,lake,I,e,294,2,866.2000000029802,378375.700000003,8012,WL,B,11.0
3,19.842000007629395,learn,40157.999992370605,Thu May 08 2025 10:08:30 GMT-0500 (Central Daylight Time),379641.6000000015,A,lakeenter,I,enter,387,2,1265.8999999985099,378375.700000003,8012,WL,B,11.0
3,20.758000135421753,learn,39241.99986457825,Thu May 08 2025 10:08:30 GMT-0500 (Central Daylight Time),380558.200000003,A,s,I,s,908,2,916.2000000029802,379642.0,8012,WL,B,12.0
3,20.95799994468689,learn,39042.00005531311,Thu May 08 2025 10:08:30 GMT-0500 (Central Daylight Time),380758.0,A,sk,I,k,190,2,1116.0,379642.0,8012,WL,B,12.0
3,21.157999992370605,learn,38842.000007629395,Thu May 08 2025 10:08:30 GMT-0500 (Central Daylight Time),380958.1000000015,A,ski,I,i,190,2,1316.1000000014901,379642.0,8012,WL,B,12.0
3,21.27500009536743,learn,38724.99990463257,Thu May 08 2025 10:08:30 GMT-0500 (Central Daylight Time),381074.5,A,skin,I,n,110,2,1432.5,379642.0,8012,WL,B,12.0
3,22.407999992370605,learn,37592.000007629395,Thu May 08 2025 10:08:30 GMT-0500 (Central Daylight Time),382207.5,A,skinenter,I,enter,1122,2,2565.5,379642.0,8012,WL,B,12.0
3,23.674000024795532,learn,36325.99997520447,Thu May 08 2025 10:08:30 GMT-0500 (Central Daylight Time),383473.80000000447,A,p,I,p,1245,2,1266.1000000014901,382207.700000003,8012,WL,B,13.0
3,23.80900001525879,learn,36190.99998474121,Thu May 08 2025 10:08:30 GMT-0500 (Central Daylight Time),383608.40000000596,A,pi,I,i,123,2,1400.7000000029802,382207.700000003,8012,WL,B,13.0
3,23.990000009536743,learn,36009.99999046326,Thu May 08 2025 10:08:30 GMT-0500 (Central Daylight Time),383790.200000003,A,pip,I,p,172,2,1582.5,382207.700000003,8012,WL,B,13.0
3,24.124000072479248,learn,35875.99992752075,Thu May 08 2025 10:08:30 GMT-0500 (Central Daylight Time),383923.700000003,A,pipe,I,e,118,2,1716.0,382207.700000003,8012,WL,B,13.0
3,24.44099998474121,learn,35559.00001525879,Thu May 08 2025 10:08:30 GMT-0500 (Central Daylight Time),384240.30000000447,A,pipeenter,I,enter,296,2,2032.6000000014901,382207.700000003,8012,WL,B,13.0
3,24.824000120162964,learn,35175.999879837036,Thu May 08 2025 10:08:30 GMT-0500 (Central Daylight Time),384623.5,A,f,I,f,364,2,382.8999999985099,384240.6000000015,8012,WL,B,14.0
3,24.957000017166138,learn,35042.99998283386,Thu May 08 2025 10:08:30 GMT-0500 (Central Daylight Time),384756.5,A,fi,I,i,125,2,515.8999999985099,384240.6000000015,8012,WL,B,14.0
3,25.17300009727478,learn,34826.99990272522,Thu May 08 2025 10:08:30 GMT-0500 (Central Daylight Time),384973.200000003,A,fir,I,r,200,2,732.6000000014901,384240.6000000015,8012,WL,B,14.0
3,25.289999961853027,learn,34710.00003814697,Thu May 08 2025 10:08:30 GMT-0500 (Central Daylight Time),385090.1000000015,A,fire,I,e,96,2,849.5,384240.6000000015,8012,WL,B,14.0
3,25.990000009536743,learn,34009.99999046326,Thu May 08 2025 10:08:30 GMT-0500 (Central Daylight Time),385789.80000000447,A,fireenter,I,enter,682,2,1549.2000000029802,384240.6000000015,8012,WL,B,14.0
3,26.240000009536743,learn,33759.99999046326,Thu May 08 2025 10:08:30 GMT-0500 (Central Daylight Time),386040.0,A,c,I,c,238,2,249.89999999850988,385790.1000000015,8012,WL,B,15.0
3,26.33999991416931,learn,33660.00008583069,Thu May 08 2025 10:08:30 GMT-0500 (Central Daylight Time),386139.700000003,A,cl,I,l,92,2,349.6000000014901,385790.1000000015,8012,WL,B,15.0
3,26.556999921798706,learn,33443.000078201294,Thu May 08 2025 10:08:30 GMT-0500 (Central Daylight Time),386356.40000000596,A,clo,I,o,201,2,566.3000000044703,385790.1000000015,8012,WL,B,15.0
3,26.924000024795532,learn,33075.99997520447,Thu May 08 2025 10:08:30 GMT-0500 (Central Daylight Time),386723.40000000596,A,cloc,I,c,215,2,933.3000000044703,385790.1000000015,8012,WL,B,15.0
3,27.50600004196167,learn,32493.99995803833,Thu May 08 2025 10:08:30 GMT-0500 (Central Daylight Time),387306.0,A,clock,I,k,569,2,1515.8999999985099,385790.1000000015,8012,WL,B,15.0
3,27.888999938964844,learn,32111.000061035156,Thu May 08 2025 10:08:30 GMT-0500 (Central Daylight Time),387689.30000000447,A,clockenter,I,enter,371,2,1899.2000000029802,385790.1000000015,8012,WL,B,15.0
4,0.5,learn,59500.0,Thu May 08 2025 10:08:30 GMT-0500 (Central Daylight Time),453735.40000000596,A,s,I,s,490,2,499.80000000447035,453235.6000000015,8012,WL,B,1.0
4,1.0999999046325684,learn,58900.00009536743,Thu May 08 2025 10:08:30 GMT-0500 (Central Daylight Time),454334.90000000596,A,st,I,t,581,2,1099.3000000044703,453235.6000000015,8012,WL,B,1.0
4,1.3499999046325684,learn,58650.00009536743,Thu May 08 2025 10:08:30 GMT-0500 (Central Daylight Time),454584.80000000447,A,str,I,r,229,2,1349.2000000029802,453235.6000000015,8012,WL,B,1.0
4,1.566999912261963,learn,58433.00008773804,Thu May 08 2025 10:08:30 GMT-0500 (Central Daylight Time),454801.80000000447,A,stre,I,e,203,2,1566.2000000029802,453235.6000000015,8012,WL,B,1.0
4,1.75,learn,58250.0,Thu May 08 2025 10:08:30 GMT-0500 (Central Daylight Time),454984.80000000447,A,stree,I,e,162,2,1749.2000000029802,453235.6000000015,8012,WL,B,1.0
4,1.8329999446868896,learn,58167.00005531311,Thu May 08 2025 10:08:30 GMT-0500 (Central Daylight Time),455068.40000000596,A,street,I,t,68,2,1832.8000000044703,453235.6000000015,8012,WL,B,1.0
4,2.0999999046325684,learn,57900.00009536743,Thu May 08 2025 10:08:30 GMT-0500 (Central Daylight Time),455334.6000000015,A,streetenter,I,enter,248,2,2099.0,453235.6000000015,8012,WL,B,1.0
4,2.2829999923706055,learn,57717.000007629395,Thu May 08 2025 10:08:30 GMT-0500 (Central Daylight Time),455518.200000003,A,g,I,g,175,2,183.29999999701977,455334.90000000596,8012,WL,B,2.0
4,2.5,learn,57500.0,Thu May 08 2025 10:08:30 GMT-0500 (Central Daylight Time),455734.40000000596,A,gr,I,r,198,2,399.5,455334.90000000596,8012,WL,B,2.0
4,2.5999999046325684,learn,57400.00009536743,Thu May 08 2025 10:08:30 GMT-0500 (Central Daylight Time),455834.40000000596,A,gra,I,a,86,2,499.5,455334.90000000596,8012,WL,B,2.0
4,2.865999937057495,learn,57134.000062942505,Thu May 08 2025 10:08:30 GMT-0500 (Central Daylight Time),456101.200000003,A,gras,I,s,250,2,766.2999999970198,455334.90000000596,8012,WL,B,2.0
4,3.0160000324249268,learn,56983.99996757507,Thu May 08 2025 10:08:30 GMT-0500 (Central Daylight Time),456250.80000000447,A,grass,I,s,143,2,915.8999999985099,455334.90000000596,8012,WL,B,2.0
4,3.2660000324249268,learn,56733.99996757507,Thu May 08 2025 10:08:30 GMT-0500 (Central Daylight Time),456501.0,A,grassenter,I,enter,234,2,1166.0999999940395,455334.90000000596,8012,WL,B,2.0
4,3.565999984741211,learn,56434.00001525879,Thu May 08 2025 10:08:30 GMT-0500 (Central Daylight Time),456801.0,A,d,I,d,288,2,299.59999999403954,456501.40000000596,8012,WL,B,3.0
4,3.7330000400543213,learn,56266.99995994568,Thu May 08 2025 10:08:30 GMT-0500 (Central Daylight Time),456967.5,A,do,I,o,155,2,466.09999999403954,456501.40000000596,8012,WL,B,3.0
4,3.949000120162964,learn,56050.999879837036,Thu May 08 2025 10:08:30 GMT-0500 (Central Daylight Time),457183.80000000447,A,dor,I,r,212,2,682.3999999985099,456501.40000000596,8012,WL,B,3.0
4,4.0959999561309814,learn,55904.00004386902,Thu May 08 2025 10:08:30 GMT-0500 (Central Daylight Time),457330.6000000015,A,dorr,I,r,142,2,829.1999999955297,456501.40000000596,8012,WL,B,3.0
4,4.449000120162964,learn,55550.999879837036,Thu May 08 2025 10:08:30 GMT-0500 (Central Daylight Time),457684.1000000015,A,dor,I,backspace,345,2,1182.6999999955297,456501.40000000596,8012,WL,B,3.0
4,4.615999937057495,learn,55384.000062942505,Thu May 08 2025 10:08:30 GMT-0500 (Central Daylight Time),457850.6000000015,A,do,I,backspace,152,2,1349.1999999955297,456501.40000000596,8012,WL,B,3.0
4,4.815999984741211,learn,55184.00001525879,Thu May 08 2025 10:08:30 GMT-0500 (Central Daylight Time),458050.700000003,A,doo,I,o,185,2,1549.2999999970198,456501.40000000596,8012,WL,B,3.0
4,4.950000047683716,learn,55049.999952316284,Thu May 08 2025 10:08:30 GMT-0500 (Central Daylight Time),458184.90000000596,A,door,I,r,114,2,1683.5,456501.40000000596,8012,WL,B,3.0
4,5.348999977111816,learn,54651.00002288818,Thu May 08 2025 10:08:30 GMT-0500 (Central Daylight Time),458583.6000000015,A,doorenter,I,enter,387,2,2082.1999999955297,456501.40000000596,8012,WL,B,3.0
4,5.582000017166138,learn,54417.99998283386,Thu May 08 2025 10:08:30 GMT-0500 (Central Daylight Time),458816.90000000596,A,a,I,a,213,2,233.0,458583.90000000596,8012,WL,B,4.0
4,5.681999921798706,learn,54318.000078201294,Thu May 08 2025 10:08:30 GMT-0500 (Central Daylight Time),458916.80000000447,A,ar,I,r,84,2,332.8999999985099,458583.90000000596,8012,WL,B,4.0
4,5.815000057220459,learn,54184.99994277954,Thu May 08 2025 10:08:30 GMT-0500 (Central Daylight Time),459050.200000003,A,arm,I,m,121,2,466.29999999701977,458583.90000000596,8012,WL,B,4.0
4,6.315000057220459,learn,53684.99994277954,Thu May 08 2025 10:08:30 GMT-0500 (Central Daylight Time),459550.0,A,armenter,I,enter,482,2,966.0999999940395,458583.90000000596,8012,WL,B,4.0
4,6.765000104904175,learn,53234.999895095825,Thu May 08 2025 10:08:30 GMT-0500 (Central Daylight Time),459999.80000000447,A,s,I,s,430,2,449.5,459550.30000000447,8012,WL,B,5.0
4,6.914999961853027,learn,53085.00003814697,Thu May 08 2025 10:08:30 GMT-0500 (Central Daylight Time),460150.0,A,st,I,t,140,2,599.6999999955297,459550.30000000447,8012,WL,B,5.0
4,7.131999969482422,learn,52868.00003051758,Thu May 08 2025 10:08:30 GMT-0500 (Central Daylight Time),460366.6000000015,A,sta,I,a,199,2,816.2999999970198,459550.30000000447,8012,WL,B,5.0
4,7.265000104904175,learn,52734.999895095825,Thu May 08 2025 10:08:30 GMT-0500 (Central Daylight Time),460499.700000003,A,star,I,r,118,2,949.3999999985099,459550.30000000447,8012,WL,B,5.0
4,7.497999906539917,learn,52502.00009346008,Thu May 08 2025 10:08:30 GMT-0500 (Central Daylight Time),460733.0,A,starenter,I,enter,226,2,1182.6999999955297,459550.30000000447,8012,WL,B,5.0
4,7.7149999141693115,learn,52285.00008583069,Thu May 08 2025 10:08:30 GMT-0500 (Central Daylight Time),460949.5,A,w,I,w,207,2,216.0,460733.5,8012,WL,B,6.0
4,7.914999961853027,learn,52085.00003814697,Thu May 08 2025 10:08:30 GMT-0500 (Central Daylight Time),461149.5,A,wi,I,i,191,2,416.0,460733.5,8012,WL,B,6.0
4,8.065000057220459,learn,51934.99994277954,Thu May 08 2025 10:08:30 GMT-0500 (Central Daylight Time),461299.5,A,wif,I,f,135,2,566.0,460733.5,8012,WL,B,6.0
4,8.197999954223633,learn,51802.00004577637,Thu May 08 2025 10:08:30 GMT-0500 (Central Daylight Time),461432.6000000015,A,wife,I,e,113,2,699.1000000014901,460733.5,8012,WL,B,6.0
4,8.480999946594238,learn,51519.00005340576,Thu May 08 2025 10:08:30 GMT-0500 (Central Daylight Time),461716.0,A,wifeenter,I,enter,267,2,982.5,460733.5,8012,WL,B,6.0
4,8.697999954223633,learn,51302.00004577637,Thu May 08 2025 10:08:30 GMT-0500 (Central Daylight Time),461932.6000000015,A,w,I,w,209,2,216.19999999552965,461716.40000000596,8012,WL,B,7.0
4,8.813999891281128,learn,51186.00010871887,Thu May 08 2025 10:08:30 GMT-0500 (Central Daylight Time),462049.30000000447,A,wi,I,i,104,2,332.8999999985099,461716.40000000596,8012,WL,B,7.0
4,8.96399998664856,learn,51036.00001335144,Thu May 08 2025 10:08:30 GMT-0500 (Central Daylight Time),462199.40000000596,A,win,I,n,140,2,483.0,461716.40000000596,8012,WL,B,7.0
4,9.081000089645386,learn,50918.999910354614,Thu May 08 2025 10:08:30 GMT-0500 (Central Daylight Time),462315.80000000447,A,wind,I,d,101,2,599.3999999985099,461716.40000000596,8012,WL,B,7.0
4,9.247999906539917,learn,50752.00009346008,Thu May 08 2025 10:08:30 GMT-0500 (Central Daylight Time),462482.40000000596,A,windo,I,o,160,2,766.0,461716.40000000596,8012,WL,B,7.0
4,9.513999938964844,learn,50486.000061035156,Thu May 08 2025 10:08:30 GMT-0500 (Central Daylight Time),462749.0,A,window,I,w,250,2,1032.5999999940395,461716.40000000596,8012,WL,B,7.0
4,9.79699993133545,learn,50203.00006866455,Thu May 08 2025 10:08:30 GMT-0500 (Central Daylight Time),463032.200000003,A,windowenter,I,enter,263,2,1315.7999999970198,461716.40000000596,8012,WL,B,7.0
4,10.664000034332275,learn,49335.999965667725,Thu May 08 2025 10:08:30 GMT-0500 (Central Daylight Time),463898.5,A,c,I,c,852,2,866.0999999940395,463032.40000000596,8012,WL,B,8.0
4,10.77999997138977,learn,49220.00002861023,Thu May 08 2025 10:08:30 GMT-0500 (Central Daylight Time),464015.30000000447,A,ci,I,i,98,2,982.8999999985099,463032.40000000596,8012,WL,B,8.0
4,10.980000019073486,learn,49019.999980926514,Thu May 08 2025 10:08:30 GMT-0500 (Central Daylight Time),464215.30000000447,A,cit,I,t,189,2,1182.8999999985099,463032.40000000596,8012,WL,B,8.0
4,11.180000066757202,learn,48819.9999332428,Thu May 08 2025 10:08:30 GMT-0500 (Central Daylight Time),464415.1000000015,A,city,I,y,189,2,1382.6999999955297,463032.40000000596,8012,WL,B,8.0
4,11.630000114440918,learn,48369.99988555908,Thu May 08 2025 10:08:30 GMT-0500 (Central Daylight Time),464865.0,A,cityenter,I,enter,429,2,1832.5999999940395,463032.40000000596,8012,WL,B,8.0
4,11.897000074386597,learn,48102.9999256134,Thu May 08 2025 10:08:30 GMT-0500 (Central Daylight Time),465131.5,A,c,I,c,252,2,266.19999999552965,464865.30000000447,8012,WL,B,9.0
4,11.996999979019165,learn,48003.000020980835,Thu May 08 2025 10:08:30 GMT-0500 (Central Daylight Time),465231.40000000596,A,ca,I,a,88,2,366.1000000014901,464865.30000000447,8012,WL,B,9.0
4,12.180000066757202,learn,47819.9999332428,Thu May 08 2025 10:08:30 GMT-0500 (Central Daylight Time),465414.80000000447,A,cab,I,b,165,2,549.5,464865.30000000447,8012,WL,B,9.0
4,12.44700002670288,learn,47552.99997329712,Thu May 08 2025 10:08:30 GMT-0500 (Central Daylight Time),465681.700000003,A,cabi,I,i,262,2,816.3999999985099,464865.30000000447,8012,WL,B,9.0
4,12.630000114440918,learn,47369.99988555908,Thu May 08 2025 10:08:30 GMT-0500 (Central Daylight Time),465864.6000000015,A,cabin,I,n,163,2,999.2999999970198,464865.30000000447,8012,WL,B,9.0
4,12.880000114440918,learn,47119.99988555908,Thu May 08 2025 10:08:30 GMT-0500 (Central Daylight Time),466114.5,A,cabinenter,I,enter,236,2,1249.1999999955297,464865.30000000447,8012,WL,B,9.0
4,13.145999908447266,learn,46854.000091552734,Thu May 08 2025 10:08:30 GMT-0500 (Central Daylight Time),466381.200000003,A,l,I,l,250,2,266.3999999985099,466114.80000000447,8012,WL,B,10.0
4,13.27999997138977,learn,46720.00002861023,Thu May 08 2025 10:08:30 GMT-0500 (Central Daylight Time),466514.5,A,la,I,a,119,2,399.69999999552965,466114.80000000447,8012,WL,B,10.0
4,13.595999956130981,learn,46404.00004386902,Thu May 08 2025 10:08:30 GMT-0500 (Central Daylight Time),466831.1000000015,A,lak,I,k,298,2,716.2999999970198,466114.80000000447,8012,WL,B,10.0
4,13.746000051498413,learn,46253.99994850159,Thu May 08 2025 10:08:30 GMT-0500 (Central Daylight Time),466981.1000000015,A,lake,I,e,134,2,866.2999999970198,466114.80000000447,8012,WL,B,10.0
4,14.996000051498413,learn,45003.99994850159,Thu May 08 2025 10:08:30 GMT-0500 (Central Daylight Time),468230.700000003,A,lakeenter,I,enter,1231,2,2115.89999999851,466114.80000000447,8012,WL,B,10.0
4,18.694999933242798,learn,41305.0000667572,Thu May 08 2025 10:08:30 GMT-0500 (Central Daylight Time),471929.80000000447,A,p,I,p,3694,2,3698.8000000044703,468231.0,8012,WL,B,11.0
4,18.91100001335144,learn,41088.99998664856,Thu May 08 2025 10:08:30 GMT-0500 (Central Daylight Time),472146.1000000015,A,pu,I,u,195,2,3915.10000000149,468231.0,8012,WL,B,11.0
4,19.561000108718872,learn,40438.99989128113,Thu May 08 2025 10:08:30 GMT-0500 (Central Daylight Time),472796.1000000015,A,pup,I,p,642,2,4565.10000000149,468231.0,8012,WL,B,11.0
4,19.778000116348267,learn,40221.99988365173,Thu May 08 2025 10:08:30 GMT-0500 (Central Daylight Time),473012.6000000015,A,pupi,I,i,200,2,4781.60000000149,468231.0,8012,WL,B,11.0
4,20.22699999809265,learn,39773.00000190735,Thu May 08 2025 10:08:30 GMT-0500 (Central Daylight Time),473462.40000000596,A,pupil,I,l,432,2,5231.4000000059605,468231.0,8012,WL,B,11.0
4,20.960999965667725,learn,39039.000034332275,Thu May 08 2025 10:08:30 GMT-0500 (Central Daylight Time),474195.80000000447,A,pupilenter,I,enter,718,2,5964.80000000447,468231.0,8012,WL,B,11.0
4,21.259999990463257,learn,38740.00000953674,Thu May 08 2025 10:08:30 GMT-0500 (Central Daylight Time),474495.30000000447,A,s,I,s,289,2,299.30000000447035,474196.0,8012,WL,B,12.0
4,21.39400005340576,learn,38605.99994659424,Thu May 08 2025 10:08:30 GMT-0500 (Central Daylight Time),474628.700000003,A,sk,I,k,117,2,432.70000000298023,474196.0,8012,WL,B,12.0
4,21.609999895095825,learn,38390.000104904175,Thu May 08 2025 10:08:30 GMT-0500 (Central Daylight Time),474845.40000000596,A,ski,I,i,208,2,649.4000000059605,474196.0,8012,WL,B,12.0
4,21.72699999809265,learn,38273.00000190735,Thu May 08 2025 10:08:30 GMT-0500 (Central Daylight Time),474961.90000000596,A,skin,I,n,104,2,765.9000000059605,474196.0,8012,WL,B,12.0
4,22.22699999809265,learn,37773.00000190735,Thu May 08 2025 10:08:30 GMT-0500 (Central Daylight Time),475461.700000003,A,skinenter,I,enter,482,2,1265.7000000029802,474196.0,8012,WL,B,12.0
4,22.859999895095825,learn,37140.000104904175,Thu May 08 2025 10:08:30 GMT-0500 (Central Daylight Time),476095.1000000015,A,p,I,p,623,2,633.0,475462.1000000015,8012,WL,B,13.0
4,23.07699990272522,learn,36923.00009727478,Thu May 08 2025 10:08:30 GMT-0500 (Central Daylight Time),476311.40000000596,A,pi,I,i,197,2,849.3000000044703,475462.1000000015,8012,WL,B,13.0
4,23.259999990463257,learn,36740.00000953674,Thu May 08 2025 10:08:30 GMT-0500 (Central Daylight Time),476494.6000000015,A,pip,I,p,165,2,1032.5,475462.1000000015,8012,WL,B,13.0
4,23.493000030517578,learn,36506.99996948242,Thu May 08 2025 10:08:30 GMT-0500 (Central Daylight Time),476728.0,A,pipe,I,e,214,2,1265.8999999985099,475462.1000000015,8012,WL,B,13.0
4,24.210000038146973,learn,35789.99996185303,Thu May 08 2025 10:08:30 GMT-0500 (Central Daylight Time),477444.40000000596,A,pipeenter,I,enter,700,2,1982.3000000044703,475462.1000000015,8012,WL,B,13.0
4,24.4760000705719,learn,35523.9999294281,Thu May 08 2025 10:08:30 GMT-0500 (Central Daylight Time),477711.0,A,f,I,f,256,2,266.29999999701977,477444.700000003,8012,WL,B,14.0
4,24.608999967575073,learn,35391.00003242493,Thu May 08 2025 10:08:30 GMT-0500 (Central Daylight Time),477844.30000000447,A,fi,I,i,125,2,399.6000000014901,477444.700000003,8012,WL,B,14.0
4,24.759000062942505,learn,35240.999937057495,Thu May 08 2025 10:08:30 GMT-0500 (Central Daylight Time),477994.200000003,A,fir,I,r,144,2,549.5,477444.700000003,8012,WL,B,14.0
4,24.89299988746643,learn,35107.00011253357,Thu May 08 2025 10:08:30 GMT-0500 (Central Daylight Time),478127.6000000015,A,fire,I,e,123,2,682.8999999985099,477444.700000003,8012,WL,B,14.0
4,25.125999927520752,learn,34874.00007247925,Thu May 08 2025 10:08:30 GMT-0500 (Central Daylight Time),478360.700000003,A,fireenter,I,enter,222,2,916.0,477444.700000003,8012,WL,B,14.0
4,25.4760000705719,learn,34523.9999294281,Thu May 08 2025 10:08:30 GMT-0500 (Central Daylight Time),478710.700000003,A,c,I,c,340,2,349.6000000014901,478361.1000000015,8012,WL,B,15.0
4,25.608999967575073,learn,34391.00003242493,Thu May 08 2025 10:08:30 GMT-0500 (Central Daylight Time),478844.0,A,cl,I,l,127,2,482.8999999985099,478361.1000000015,8012,WL,B,15.0
4,25.79200005531311,learn,34207.99994468689,Thu May 08 2025 10:08:30 GMT-0500 (Central Daylight Time),479027.30000000447,A,clo,I,o,177,2,666.2000000029802,478361.1000000015,8012,WL,B,15.0
4,25.926000118255615,learn,34073.999881744385,Thu May 08 2025 10:08:30 GMT-0500 (Central Daylight Time),479160.6000000015,A,cloc,I,c,121,2,799.5,478361.1000000015,8012,WL,B,15.0
4,26.05900001525879,learn,33940.99998474121,Thu May 08 2025 10:08:30 GMT-0500 (Central Daylight Time),479293.80000000447,A,clock,I,k,116,2,932.7000000029802,478361.1000000015,8012,WL,B,15.0
4,26.358999967575073,learn,33641.00003242493,Thu May 08 2025 10:08:30 GMT-0500 (Central Daylight Time),479593.6000000015,A,clockenter,I,enter,295,2,1232.5,478361.1000000015,8012,WL,B,15.0
5,0.36700010299682617,learn,60000.0,Thu May 08 2025 10:08:30 GMT-0500 (Central Daylight Time),545056.700000003,A,s,I,s,356,2,366.3999999985099,544690.3000000045,8012,WL,B,1.0
5,0.5669999122619629,learn,60000.0,Thu May 08 2025 10:08:30 GMT-0500 (Central Daylight Time),545256.700000003,A,st,I,t,179,2,566.3999999985099,544690.3000000045,8012,WL,B,1.0
5,0.75,learn,60000.0,Thu May 08 2025 10:08:30 GMT-0500 (Central Daylight Time),545440.1000000015,A,str,I,r,164,2,749.7999999970198,544690.3000000045,8012,WL,B,1.0
5,0.9170000553131104,learn,60000.0,Thu May 08 2025 10:08:30 GMT-0500 (Central Daylight Time),545606.700000003,A,stre,I,e,156,2,916.3999999985099,544690.3000000045,8012,WL,B,1.0
5,1.0829999446868896,learn,60000.0,Thu May 08 2025 10:08:30 GMT-0500 (Central Daylight Time),545773.1000000015,A,stree,I,e,158,2,1082.7999999970198,544690.3000000045,8012,WL,B,1.0
5,1.183000087738037,learn,60000.0,Thu May 08 2025 10:08:30 GMT-0500 (Central Daylight Time),545873.3000000045,A,street,I,t,87,2,1183.0,544690.3000000045,8012,WL,B,1.0
5,1.4170000553131104,learn,60000.0,Thu May 08 2025 10:08:30 GMT-0500 (Central Daylight Time),546106.5,A,streetenter,I,enter,220,2,1416.1999999955297,544690.3000000045,8012,WL,B,1.0
5,1.5999999046325684,learn,60000.0,Thu May 08 2025 10:08:30 GMT-0500 (Central Daylight Time),546289.900000006,A,g,I,g,179,2,183.0,546106.900000006,8012,WL,B,2.0
5,1.7999999523162842,learn,60000.0,Thu May 08 2025 10:08:30 GMT-0500 (Central Daylight Time),546489.700000003,A,gr,I,r,195,2,382.79999999701977,546106.900000006,8012,WL,B,2.0
5,1.9490001201629639,learn,60000.0,Thu May 08 2025 10:08:30 GMT-0500 (Central Daylight Time),546639.400000006,A,gra,I,a,139,2,532.5,546106.900000006,8012,WL,B,2.0
5,2.132999897003174,learn,60000.0,Thu May 08 2025 10:08:30 GMT-0500 (Central Daylight Time),546822.8000000045,A,gras,I,s,165,2,715.8999999985099,546106.900000006,8012,WL,B,2.0
5,2.299999952316284,learn,60000.0,Thu May 08 2025 10:08:30 GMT-0500 (Central Daylight Time),546989.700000003,A,grass,I,s,149,2,882.7999999970198,546106.900000006,8012,WL,B,2.0
5,2.5829999446868896,learn,60000.0,Thu May 08 2025 10:08:30 GMT-0500 (Central Daylight Time),547272.6000000015,A,grassenter,I,enter,263,2,1165.6999999955297,546106.900000006,8012,WL,B,2.0
5,2.815999984741211,learn,60000.0,Thu May 08 2025 10:08:30 GMT-0500 (Central Daylight Time),547506.1000000015,A,d,I,d,213,2,233.10000000149012,547273.0,8012,WL,B,3.0
5,2.949000120162964,learn,60000.0,Thu May 08 2025 10:08:30 GMT-0500 (Central Daylight Time),547639.200000003,A,do,I,o,122,2,366.20000000298023,547273.0,8012,WL,B,3.0
5,3.131999969482422,learn,60000.0,Thu May 08 2025 10:08:30 GMT-0500 (Central Daylight Time),547822.400000006,A,doo,I,o,173,2,549.4000000059605,547273.0,8012,WL,B,3.0
5,3.2660000324249268,learn,60000.0,Thu May 08 2025 10:08:30 GMT-0500 (Central Daylight Time),547955.900000006,A,door,I,r,118,2,682.9000000059605,547273.0,8012,WL,B,3.0
5,3.4159998893737793,learn,60000.0,Thu May 08 2025 10:08:30 GMT-0500 (Central Daylight Time),548105.700000003,A,doorenter,I,enter,130,2,832.7000000029802,547273.0,8012,WL,B,3.0
5,3.5820000171661377,learn,60000.0,Thu May 08 2025 10:08:30 GMT-0500 (Central Daylight Time),548272.5,A,a,I,a,147,2,166.5,548106.0,8012,WL,B,4.0
5,3.683000087738037,learn,60000.0,Thu May 08 2025 10:08:30 GMT-0500 (Central Daylight Time),548372.5,A,ar,I,r,84,2,266.5,548106.0,8012,WL,B,4.0
5,3.815999984741211,learn,60000.0,Thu May 08 2025 10:08:30 GMT-0500 (Central Daylight Time),548505.8000000045,A,arm,I,m,129,2,399.80000000447035,548106.0,8012,WL,B,4.0
5,4.016000032424927,learn,60000.0,Thu May 08 2025 10:08:30 GMT-0500 (Central Daylight Time),548705.900000006,A,armenter,I,enter,187,2,599.9000000059605,548106.0,8012,WL,B,4.0
5,4.232000112533569,learn,60000.0,Thu May 08 2025 10:08:30 GMT-0500 (Central Daylight Time),548921.900000006,A,s,I,s,211,2,215.70000000298023,548706.200000003,8012,WL,B,5.0
5,4.381999969482422,learn,60000.0,Thu May 08 2025 10:08:30 GMT-0500 (Central Daylight Time),549072.1000000015,A,st,I,t,130,2,365.8999999985099,548706.200000003,8012,WL,B,5.0
5,4.565000057220459,learn,60000.0,Thu May 08 2025 10:08:30 GMT-0500 (Central Daylight Time),549255.5,A,sta,I,a,172,2,549.2999999970198,548706.200000003,8012,WL,B,5.0
5,4.665999889373779,learn,60000.0,Thu May 08 2025 10:08:30 GMT-0500 (Central Daylight Time),549356.0,A,star,I,r,94,2,649.7999999970198,548706.200000003,8012,WL,B,5.0
5,4.898999929428101,learn,60000.0,Thu May 08 2025 10:08:30 GMT-0500 (Central Daylight Time),549588.700000003,A,starenter,I,enter,217,2,882.5,548706.200000003,8012,WL,B,5.0
5,5.164999961853027,learn,60000.0,Thu May 08 2025 10:08:30 GMT-0500 (Central Daylight Time),549855.200000003,A,w,I,w,256,2,266.20000000298023,549589.0,8012,WL,B,6.0
5,5.299000024795532,learn,60000.0,Thu May 08 2025 10:08:30 GMT-0500 (Central Daylight Time),549988.700000003,A,wi,I,i,126,2,399.70000000298023,549589.0,8012,WL,B,6.0
5,5.4649999141693115,learn,60000.0,Thu May 08 2025 10:08:30 GMT-0500 (Central Daylight Time),550155.200000003,A,wif,I,f,152,2,566.2000000029802,549589.0,8012,WL,B,6.0
5,5.565000057220459,learn,60000.0,Thu May 08 2025 10:08:30 GMT-0500 (Central Daylight Time),550255.1000000015,A,wife,I,e,89,2,666.1000000014901,549589.0,8012,WL,B,6.0
5,5.7820000648498535,learn,60000.0,Thu May 08 2025 10:08:30 GMT-0500 (Central Daylight Time),550471.5,A,wifeenter,I,enter,197,2,882.5,549589.0,8012,WL,B,6.0
5,6.0320000648498535,learn,60000.0,Thu May 08 2025 10:08:30 GMT-0500 (Central Daylight Time),550721.6000000015,A,w,I,w,245,2,249.69999999552965,550471.900000006,8012,WL,B,7.0
5,6.164999961853027,learn,60000.0,Thu May 08 2025 10:08:30 GMT-0500 (Central Daylight Time),550855.0,A,wi,I,i,123,2,383.09999999403954,550471.900000006,8012,WL,B,7.0
5,6.332000017166138,learn,60000.0,Thu May 08 2025 10:08:30 GMT-0500 (Central Daylight Time),551021.8000000045,A,win,I,n,150,2,549.8999999985099,550471.900000006,8012,WL,B,7.0
5,6.515000104904175,learn,60000.0,Thu May 08 2025 10:08:30 GMT-0500 (Central Daylight Time),551204.700000003,A,wind,I,d,176,2,732.7999999970198,550471.900000006,8012,WL,B,7.0
5,6.8480000495910645,learn,60000.0,Thu May 08 2025 10:08:30 GMT-0500 (Central Daylight Time),551538.3000000045,A,windo,I,o,312,2,1066.3999999985099,550471.900000006,8012,WL,B,7.0
5,7.015000104904175,learn,60000.0,Thu May 08 2025 10:08:30 GMT-0500 (Central Daylight Time),551704.8000000045,A,window,I,w,146,2,1232.8999999985099,550471.900000006,8012,WL,B,7.0
5,7.148000001907349,learn,60000.0,Thu May 08 2025 10:08:30 GMT-0500 (Central Daylight Time),551837.700000003,A,windowenter,I,enter,124,2,1365.7999999970198,550471.900000006,8012,WL,B,7.0
5,7.46399998664856,learn,60000.0,Thu May 08 2025 10:08:30 GMT-0500 (Central Daylight Time),552154.400000006,A,c,I,c,303,2,316.40000000596046,551838.0,8012,WL,B,8.0
5,7.581000089645386,learn,60000.0,Thu May 08 2025 10:08:30 GMT-0500 (Central Daylight Time),552271.1000000015,A,ci,I,i,98,2,433.1000000014901,551838.0,8012,WL,B,8.0
5,7.763999938964844,learn,60000.0,Thu May 08 2025 10:08:30 GMT-0500 (Central Daylight Time),552454.5,A,cit,I,t,173,2,616.5,551838.0,8012,WL,B,8.0
5,7.8480000495910645,learn,60000.0,Thu May 08 2025 10:08:30 GMT-0500 (Central Daylight Time),552537.700000003,A,city,I,y,71,2,699.7000000029802,551838.0,8012,WL,B,8.0
5,8.313999891281128,learn,60000.0,Thu May 08 2025 10:08:30 GMT-0500 (Central Daylight Time),553004.200000003,A,cityenter,I,enter,452,2,1166.2000000029802,551838.0,8012,WL,B,8.0
5,8.581000089645386,learn,60000.0,Thu May 08 2025 10:08:30 GMT-0500 (Central Daylight Time),553270.6000000015,A,p,I,p,248,2,266.1000000014901,553004.5,8012,WL,B,9.0
5,8.79800009727478,learn,60000.0,Thu May 08 2025 10:08:30 GMT-0500 (Central Daylight Time),553487.5,A,pu,I,u,206,2,483.0,553004.5,8012,WL,B,9.0
5,8.980999946594238,learn,60000.0,Thu May 08 2025 10:08:30 GMT-0500 (Central Daylight Time),553670.5,A,pup,I,p,165,2,666.0,553004.5,8012,WL,B,9.0
5,10.032000064849854,learn,60000.0,Thu May 08 2025 10:08:30 GMT-0500 (Central Daylight Time),554721.6000000015,A,pupi,I,i,1031,2,1717.1000000014901,553004.5,8012,WL,B,9.0
5,10.27999997138977,learn,60000.0,Thu May 08 2025 10:08:30 GMT-0500 (Central Daylight Time),554970.5,A,pupil,I,l,235,2,1966.0,553004.5,8012,WL,B,9.0
5,11.36299991607666,learn,60000.0,Thu May 08 2025 10:08:30 GMT-0500 (Central Daylight Time),556053.200000003,A,pupilenter,I,enter,1074,2,3048.7000000029802,553004.5,8012,WL,B,9.0
5,11.746999979019165,learn,60000.0,Thu May 08 2025 10:08:30 GMT-0500 (Central Daylight Time),556436.5,A,c,I,c,367,2,382.8999999985099,556053.6000000015,8012,WL,B,10.0
5,11.897000074386597,learn,60000.0,Thu May 08 2025 10:08:30 GMT-0500 (Central Daylight Time),556586.700000003,A,ca,I,a,136,2,533.1000000014901,556053.6000000015,8012,WL,B,10.0
5,12.562999963760376,learn,60000.0,Thu May 08 2025 10:08:30 GMT-0500 (Central Daylight Time),557252.8000000045,A,cab,I,b,657,2,1199.2000000029802,556053.6000000015,8012,WL,B,10.0
5,12.763000011444092,learn,60000.0,Thu May 08 2025 10:08:30 GMT-0500 (Central Daylight Time),557452.8000000045,A,cabi,I,i,191,2,1399.2000000029802,556053.6000000015,8012,WL,B,10.0
5,12.878999948501587,learn,60000.0,Thu May 08 2025 10:08:30 GMT-0500 (Central Daylight Time),557569.400000006,A,cabin,I,n,104,2,1515.8000000044703,556053.6000000015,8012,WL,B,10.0
5,13.078999996185303,learn,60000.0,Thu May 08 2025 10:08:30 GMT-0500 (Central Daylight Time),557769.5,A,cabinenter,I,enter,187,2,1715.8999999985099,556053.6000000015,8012,WL,B,10.0
5,13.313999891281128,learn,60000.0,Thu May 08 2025 10:08:30 GMT-0500 (Central Daylight Time),558003.6000000015,A,l,I,l,227,2,233.79999999701977,557769.8000000045,8012,WL,B,11.0
5,13.461999893188477,learn,60000.0,Thu May 08 2025 10:08:30 GMT-0500 (Central Daylight Time),558152.400000006,A,la,I,a,137,2,382.6000000014901,557769.8000000045,8012,WL,B,11.0
5,13.645999908447266,learn,60000.0,Thu May 08 2025 10:08:30 GMT-0500 (Central Daylight Time),558335.900000006,A,lak,I,k,173,2,566.1000000014901,557769.8000000045,8012,WL,B,11.0
5,13.796000003814697,learn,60000.0,Thu May 08 2025 10:08:30 GMT-0500 (Central Daylight Time),558486.1000000015,A,lake,I,e,142,2,716.2999999970198,557769.8000000045,8012,WL,B,11.0
5,14.128999948501587,learn,60000.0,Thu May 08 2025 10:08:30 GMT-0500 (Central Daylight Time),558819.0,A,lakeenter,I,enter,326,2,1049.1999999955297,557769.8000000045,8012,WL,B,11.0
5,17.09500002861023,learn,60000.0,Thu May 08 2025 10:08:30 GMT-0500 (Central Daylight Time),561785.1000000015,A,p,I,p,2945,2,2965.7999999970198,558819.3000000045,8012,WL,B,12.0
5,17.311000108718872,learn,60000.0,Thu May 08 2025 10:08:30 GMT-0500 (Central Daylight Time),562001.5,A,pi,I,i,203,2,3182.1999999955297,558819.3000000045,8012,WL,B,12.0
5,17.528000116348267,learn,60000.0,Thu May 08 2025 10:08:30 GMT-0500 (Central Daylight Time),562217.8000000045,A,pip,I,p,211,2,3398.5,558819.3000000045,8012,WL,B,12.0
5,18.32800006866455,learn,60000.0,Thu May 08 2025 10:08:30 GMT-0500 (Central Daylight Time),563017.8000000045,A,pipe,I,e,779,2,4198.5,558819.3000000045,8012,WL,B,12.0
5,18.76099991798401,learn,60000.0,Thu May 08 2025 10:08:30 GMT-0500 (Central Daylight Time),563451.0,A,pipeenter,I,enter,420,2,4631.69999999553,558819.3000000045,8012,WL,B,12.0
5,19.41100001335144,learn,60000.0,Thu May 08 2025 10:08:30 GMT-0500 (Central Daylight Time),564100.700000003,A,s,I,s,642,2,649.2000000029802,563451.5,8012,WL,B,13.0
5,19.55999994277954,learn,60000.0,Thu May 08 2025 10:08:30 GMT-0500 (Central Daylight Time),564250.400000006,A,sk,I,k,143,2,798.9000000059605,563451.5,8012,WL,B,13.0
5,19.759999990463257,learn,60000.0,Thu May 08 2025 10:08:30 GMT-0500 (Central Daylight Time),564450.400000006,A,ski,I,i,194,2,998.9000000059605,563451.5,8012,WL,B,13.0
5,19.944999933242798,learn,60000.0,Thu May 08 2025 10:08:30 GMT-0500 (Central Daylight Time),564634.700000003,A,skin,I,n,170,2,1183.2000000029802,563451.5,8012,WL,B,13.0
5,20.276999950408936,learn,60000.0,Thu May 08 2025 10:08:30 GMT-0500 (Central Daylight Time),564967.200000003,A,skinenter,I,enter,322,2,1515.7000000029802,563451.5,8012,WL,B,13.0
5,21.026999950408936,learn,60000.0,Thu May 08 2025 10:08:30 GMT-0500 (Central Daylight Time),565716.8000000045,A,f,I,f,742,2,749.3000000044703,564967.5,8012,WL,B,14.0
5,21.177000045776367,learn,60000.0,Thu May 08 2025 10:08:30 GMT-0500 (Central Daylight Time),565866.8000000045,A,fi,I,i,136,2,899.3000000044703,564967.5,8012,WL,B,14.0
5,21.32699990272522,learn,60000.0,Thu May 08 2025 10:08:30 GMT-0500 (Central Daylight Time),566016.6000000015,A,fir,I,r,130,2,1049.1000000014901,564967.5,8012,WL,B,14.0
5,21.427000045776367,learn,60000.0,Thu May 08 2025 10:08:30 GMT-0500 (Central Daylight Time),566116.6000000015,A,fire,I,e,92,2,1149.1000000014901,564967.5,8012,WL,B,14.0
5,21.67799997329712,learn,60000.0,Thu May 08 2025 10:08:30 GMT-0500 (Central Daylight Time),566367.8000000045,A,fireenter,I,enter,240,2,1400.3000000044703,564967.5,8012,WL,B,14.0
5,22.026999950408936,learn,60000.0,Thu May 08 2025 10:08:30 GMT-0500 (Central Daylight Time),566716.8000000045,A,c,I,c,342,2,348.6000000014901,566368.200000003,8012,WL,B,15.0
5,22.177000045776367,learn,60000.0,Thu May 08 2025 10:08:30 GMT-0500 (Central Daylight Time),566866.700000003,A,cl,I,l,137,2,498.5,566368.200000003,8012,WL,B,15.0
5,22.342999935150146,learn,60000.0,Thu May 08 2025 10:08:30 GMT-0500 (Central Daylight Time),567033.1000000015,A,clo,I,o,154,2,664.8999999985099,566368.200000003,8012,WL,B,15.0
5,22.4760000705719,learn,60000.0,Thu May 08 2025 10:08:30 GMT-0500 (Central Daylight Time),567166.400000006,A,cloc,I,c,123,2,798.2000000029802,566368.200000003,8012,WL,B,15.0
5,22.627000093460083,learn,60000.0,Thu May 08 2025 10:08:30 GMT-0500 (Central Daylight Time),567316.6000000015,A,clock,I,k,142,2,948.3999999985099,566368.200000003,8012,WL,B,15.0
5,22.842999935150146,learn,60000.0,Thu May 08 2025 10:08:30 GMT-0500 (Central Daylight Time),567532.900000006,A,clockenter,I,enter,201,2,1164.7000000029802,566368.200000003,8012,WL,B,15.0
6,1.0829999446868896,distr,58917.00005531311,Thu May 08 2025 10:08:30 GMT-0500 (Central Daylight Time),637777.8000000045,B,b,I,b,1063,2,1082.7000000029802,636695.1000000015,8012,WL,B,1.0
6,1.25,distr,58750.0,Thu May 08 2025 10:08:30 GMT-0500 (Central Daylight Time),637944.3000000045,B,ba,I,a,154,2,1249.2000000029802,636695.1000000015,8012,WL,B,1.0
6,1.383000135421753,distr,58616.99986457825,Thu May 08 2025 10:08:30 GMT-0500 (Central Daylight Time),638077.6000000015,B,bab,I,b,125,2,1382.5,636695.1000000015,8012,WL,B,1.0
6,1.683000087738037,distr,58316.99991226196,Thu May 08 2025 10:08:30 GMT-0500 (Central Daylight Time),638377.700000003,B,baby,I,y,279,2,1682.6000000014901,636695.1000000015,8012,WL,B,1.0
6,2.3329999446868896,distr,57667.00005531311,Thu May 08 2025 10:08:30 GMT-0500 (Central Daylight Time),639027.5,B,babyenter,I,enter,635,2,2332.39999999851,636695.1000000015,8012,WL,B,1.0
6,3.315999984741211,distr,56684.00001525879,Thu May 08 2025 10:08:30 GMT-0500 (Central Daylight Time),640010.3000000045,B,o,I,o,977,2,982.5,639027.8000000045,8012,WL,B,2.0
6,3.5160000324249268,distr,56483.99996757507,Thu May 08 2025 10:08:30 GMT-0500 (Central Daylight Time),640210.200000003,B,oc,I,c,195,2,1182.3999999985099,639027.8000000045,8012,WL,B,2.0
6,3.6660001277923584,distr,56333.99987220764,Thu May 08 2025 10:08:30 GMT-0500 (Central Daylight Time),640360.200000003,B,oce,I,e,131,2,1332.3999999985099,639027.8000000045,8012,WL,B,2.0
6,3.7820000648498535,distr,56217.99993515015,Thu May 08 2025 10:08:30 GMT-0500 (Central Daylight Time),640476.900000006,B,ocea,I,a,101,2,1449.1000000014901,639027.8000000045,8012,WL,B,2.0
6,3.999000072479248,distr,56000.99992752075,Thu May 08 2025 10:08:30 GMT-0500 (Central Daylight Time),640693.400000006,B,ocean,I,n,201,2,1665.6000000014901,639027.8000000045,8012,WL,B,2.0
6,4.982000112533569,distr,55017.99988746643,Thu May 08 2025 10:08:30 GMT-0500 (Central Daylight Time),641676.6000000015,B,oceanenter,I,enter,967,2,2648.7999999970198,639027.8000000045,8012,WL,B,2.0
6,7.88100004196167,distr,52118.99995803833,Thu May 08 2025 10:08:30 GMT-0500 (Central Daylight Time),644575.700000003,B,p,I,p,2881,2,2898.7999999970198,641676.900000006,8012,WL,B,3.0
6,8.114000082015991,distr,51885.99991798401,Thu May 08 2025 10:08:30 GMT-0500 (Central Daylight Time),644808.8000000045,B,pa,I,a,221,2,3131.89999999851,641676.900000006,8012,WL,B,3.0
6,8.29800009727478,distr,51701.99990272522,Thu May 08 2025 10:08:30 GMT-0500 (Central Daylight Time),644992.0,B,pal,I,l,164,2,3315.0999999940395,641676.900000006,8012,WL,B,3.0
6,8.44700002670288,distr,51552.99997329712,Thu May 08 2025 10:08:30 GMT-0500 (Central Daylight Time),645142.0,B,pala,I,a,140,2,3465.0999999940395,641676.900000006,8012,WL,B,3.0
6,8.680999994277954,distr,51319.000005722046,Thu May 08 2025 10:08:30 GMT-0500 (Central Daylight Time),645375.3000000045,B,palac,I,c,215,2,3698.39999999851,641676.900000006,8012,WL,B,3.0
6,8.860000133514404,distr,51139.999866485596,Thu May 08 2025 10:08:30 GMT-0500 (Central Daylight Time),645555.0,B,palace,I,e,175,2,3878.0999999940395,641676.900000006,8012,WL,B,3.0
6,9.897000074386597,distr,50102.9999256134,Thu May 08 2025 10:08:30 GMT-0500 (Central Daylight Time),646591.6000000015,B,palaceenter,I,enter,1017,2,4914.69999999553,641676.900000006,8012,WL,B,3.0
6,10.547000169754028,distr,49452.99983024597,Thu May 08 2025 10:08:30 GMT-0500 (Central Daylight Time),647241.3000000045,B,r,I,r,638,2,649.3000000044703,646592.0,8012,WL,B,4.0
6,10.764000177383423,distr,49235.99982261658,Thu May 08 2025 10:08:30 GMT-0500 (Central Daylight Time),647458.1000000015,B,ro,I,o,203,2,866.1000000014901,646592.0,8012,WL,B,4.0
6,10.94700002670288,distr,49052.99997329712,Thu May 08 2025 10:08:30 GMT-0500 (Central Daylight Time),647641.200000003,B,roc,I,c,171,2,1049.2000000029802,646592.0,8012,WL,B,4.0
6,11.097000122070312,distr,48902.99987792969,Thu May 08 2025 10:08:30 GMT-0500 (Central Daylight Time),647791.3000000045,B,rock,I,k,131,2,1199.3000000044703,646592.0,8012,WL,B,4.0
6,12.095999956130981,distr,47904.00004386902,Thu May 08 2025 10:08:30 GMT-0500 (Central Daylight Time),648790.8000000045,B,rockenter,I,enter,990,2,2198.8000000044703,646592.0,8012,WL,B,4.0
6,12.396000146865845,distr,47603.999853134155,Thu May 08 2025 10:08:30 GMT-0500 (Central Daylight Time),649090.700000003,B,d,I,d,294,2,299.5,648791.200000003,8012,WL,B,5.0
6,12.562999963760376,distr,47437.000036239624,Thu May 08 2025 10:08:30 GMT-0500 (Central Daylight Time),649257.1000000015,B,dr,I,r,146,2,465.8999999985099,648791.200000003,8012,WL,B,5.0
6,12.763000011444092,distr,47236.99998855591,Thu May 08 2025 10:08:30 GMT-0500 (Central Daylight Time),649457.0,B,dre,I,e,179,2,665.7999999970198,648791.200000003,8012,WL,B,5.0
6,12.979000091552734,distr,47020.999908447266,Thu May 08 2025 10:08:30 GMT-0500 (Central Daylight Time),649673.900000006,B,dres,I,s,204,2,882.7000000029802,648791.200000003,8012,WL,B,5.0
6,13.146000146865845,distr,46853.999853134155,Thu May 08 2025 10:08:30 GMT-0500 (Central Daylight Time),649840.6000000015,B,dress,I,s,155,2,1049.3999999985099,648791.200000003,8012,WL,B,5.0
6,13.496000051498413,distr,46503.99994850159,Thu May 08 2025 10:08:30 GMT-0500 (Central Daylight Time),650190.400000006,B,dressenter,I,enter,333,2,1399.2000000029802,648791.200000003,8012,WL,B,5.0
6,16.312000036239624,distr,43687.999963760376,Thu May 08 2025 10:08:30 GMT-0500 (Central Daylight Time),653006.1000000015,B,c,I,c,2799,2,2815.39999999851,650190.700000003,8012,WL,B,6.0
6,16.49500012397766,distr,43504.99987602234,Thu May 08 2025 10:08:30 GMT-0500 (Central Daylight Time),653189.6000000015,B,co,I,o,167,2,2998.89999999851,650190.700000003,8012,WL,B,6.0
6,16.611999988555908,distr,43388.00001144409,Thu May 08 2025 10:08:30 GMT-0500 (Central Daylight Time),653306.200000003,B,coi,I,i,96,2,3115.5,650190.700000003,8012,WL,B,6.0
6,16.861999988555908,distr,43138.00001144409,Thu May 08 2025 10:08:30 GMT-0500 (Central Daylight Time),653556.1000000015,B,coin,I,n,234,2,3365.39999999851,650190.700000003,8012,WL,B,6.0
6,17.67799997329712,distr,42322.00002670288,Thu May 08 2025 10:08:30 GMT-0500 (Central Daylight Time),654372.6000000015,B,coinenter,I,enter,800,2,4181.89999999851,650190.700000003,8012,WL,B,6.0
6,20.30999994277954,distr,39690.00005722046,Thu May 08 2025 10:08:30 GMT-0500 (Central Daylight Time),657004.900000006,B,a,I,a,2617,2,2632.0,654372.900000006,8012,WL,B,7.0
6,20.427000045776367,distr,39572.99995422363,Thu May 08 2025 10:08:30 GMT-0500 (Central Daylight Time),657121.900000006,B,ar,I,r,112,2,2749.0,654372.900000006,8012,WL,B,7.0
6,20.627000093460083,distr,39372.99990653992,Thu May 08 2025 10:08:30 GMT-0500 (Central Daylight Time),657321.8000000045,B,arn,I,n,180,2,2948.89999999851,654372.900000006,8012,WL,B,7.0
6,20.8270001411438,distr,39172.9998588562,Thu May 08 2025 10:08:30 GMT-0500 (Central Daylight Time),657521.3000000045,B,arny,I,y,179,2,3148.39999999851,654372.900000006,8012,WL,B,7.0
6,21.792999982833862,distr,38207.00001716614,Thu May 08 2025 10:08:30 GMT-0500 (Central Daylight Time),658488.0,B,arn,I,backspace,947,2,4115.0999999940395,654372.900000006,8012,WL,B,7.0
6,21.89300012588501,distr,38106.99987411499,Thu May 08 2025 10:08:30 GMT-0500 (Central Daylight Time),658587.900000006,B,ar,I,backspace,93,2,4215.0,654372.900000006,8012,WL,B,7.0
6,22.627000093460083,distr,37372.99990653992,Thu May 08 2025 10:08:30 GMT-0500 (Central Daylight Time),659321.0,B,arn,I,n,722,2,4948.0999999940395,654372.900000006,8012,WL,B,7.0
6,23.075999975204468,distr,36924.00002479553,Thu May 08 2025 10:08:30 GMT-0500 (Central Daylight Time),659770.700000003,B,ar,I,backspace,444,2,5397.79999999702,654372.900000006,8012,WL,B,7.0
6,23.7260000705719,distr,36273.9999294281,Thu May 08 2025 10:08:30 GMT-0500 (Central Daylight Time),660420.700000003,B,arm,I,m,634,2,6047.79999999702,654372.900000006,8012,WL,B,7.0
6,24.008000135421753,distr,35991.99986457825,Thu May 08 2025 10:08:30 GMT-0500 (Central Daylight Time),660703.5,B,army,I,y,272,2,6330.5999999940395,654372.900000006,8012,WL,B,7.0
6,24.625,distr,35375.0,Thu May 08 2025 10:08:30 GMT-0500 (Central Daylight Time),661320.3000000045,B,armyenter,I,enter,605,2,6947.39999999851,654372.900000006,8012,WL,B,7.0
6,25.407999992370605,distr,34592.000007629395,Thu May 08 2025 10:08:30 GMT-0500 (Central Daylight Time),662103.3000000045,B,v,I,v,765,2,782.7000000029802,661320.6000000015,8012,WL,B,8.0
6,25.575000047683716,distr,34424.999952316284,Thu May 08 2025 10:08:30 GMT-0500 (Central Daylight Time),662270.1000000015,B,vi,I,i,150,2,949.5,661320.6000000015,8012,WL,B,8.0
6,25.79200005531311,distr,34207.99994468689,Thu May 08 2025 10:08:30 GMT-0500 (Central Daylight Time),662486.6000000015,B,vil,I,l,206,2,1166.0,661320.6000000015,8012,WL,B,8.0
6,25.942000150680542,distr,34057.99984931946,Thu May 08 2025 10:08:30 GMT-0500 (Central Daylight Time),662636.700000003,B,vill,I,l,143,2,1316.1000000014901,661320.6000000015,8012,WL,B,8.0
6,26.02500009536743,distr,33974.99990463257,Thu May 08 2025 10:08:30 GMT-0500 (Central Daylight Time),662719.8000000045,B,villa,I,a,72,2,1399.2000000029802,661320.6000000015,8012,WL,B,8.0
6,26.157999992370605,distr,33842.000007629395,Thu May 08 2025 10:08:30 GMT-0500 (Central Daylight Time),662853.3000000045,B,villag,I,g,126,2,1532.7000000029802,661320.6000000015,8012,WL,B,8.0
6,26.27400016784668,distr,33725.99983215332,Thu May 08 2025 10:08:30 GMT-0500 (Central Daylight Time),662969.5,B,village,I,e,104,2,1648.8999999985099,661320.6000000015,8012,WL,B,8.0
6,27.824000120162964,distr,32175.999879837036,Thu May 08 2025 10:08:30 GMT-0500 (Central Daylight Time),664519.400000006,B,villageenter,I,enter,1532,2,3198.8000000044703,661320.6000000015,8012,WL,B,8.0
6,28.308000087738037,distr,31691.999912261963,Thu May 08 2025 10:08:30 GMT-0500 (Central Daylight Time),665002.6000000015,B,c,I,c,469,2,482.79999999701977,664519.8000000045,8012,WL,B,9.0
6,28.44099998474121,distr,31559.00001525879,Thu May 08 2025 10:08:30 GMT-0500 (Central Daylight Time),665135.6000000015,B,ce,I,e,122,2,615.7999999970198,664519.8000000045,8012,WL,B,9.0
6,28.674000024795532,distr,31325.999975204468,Thu May 08 2025 10:08:30 GMT-0500 (Central Daylight Time),665368.900000006,B,cel,I,l,222,2,849.1000000014901,664519.8000000045,8012,WL,B,9.0
6,28.824000120162964,distr,31175.999879837036,Thu May 08 2025 10:08:30 GMT-0500 (Central Daylight Time),665519.1000000015,B,cell,I,l,132,2,999.2999999970198,664519.8000000045,8012,WL,B,9.0
6,29.807000160217285,distr,30192.999839782715,Thu May 08 2025 10:08:30 GMT-0500 (Central Daylight Time),666502.1000000015,B,cellenter,I,enter,973,2,1982.2999999970198,664519.8000000045,8012,WL,B,9.0
6,35.57200002670288,distr,24427.99997329712,Thu May 08 2025 10:08:30 GMT-0500 (Central Daylight Time),672266.900000006,B,f,I,f,5751,2,5764.4000000059605,666502.5,8012,WL,B,10.0
6,35.8050000667572,distr,24194.999933242798,Thu May 08 2025 10:08:30 GMT-0500 (Central Daylight Time),672500.200000003,B,fr,I,r,218,2,5997.70000000298,666502.5,8012,WL,B,10.0
6,35.955000162124634,distr,24044.999837875366,Thu May 08 2025 10:08:30 GMT-0500 (Central Daylight Time),672650.3000000045,B,fri,I,i,137,2,6147.80000000447,666502.5,8012,WL,B,10.0
6,36.03800010681152,distr,23961.999893188477,Thu May 08 2025 10:08:30 GMT-0500 (Central Daylight Time),672733.5,B,frie,I,e,66,2,6231.0,666502.5,8012,WL,B,10.0
6,36.1710000038147,distr,23828.999996185303,Thu May 08 2025 10:08:30 GMT-0500 (Central Daylight Time),672866.400000006,B,frien,I,n,127,2,6363.9000000059605,666502.5,8012,WL,B,10.0
6,36.2720000743866,distr,23727.999925613403,Thu May 08 2025 10:08:30 GMT-0500 (Central Daylight Time),672966.6000000015,B,friend,I,d,91,2,6464.10000000149,666502.5,8012,WL,B,10.0
6,36.605000019073486,distr,23394.999980926514,Thu May 08 2025 10:08:30 GMT-0500 (Central Daylight Time),673300.1000000015,B,friendenter,I,enter,327,2,6797.60000000149,666502.5,8012,WL,B,10.0
6,44.61899995803833,distr,15381.00004196167,Thu May 08 2025 10:08:30 GMT-0500 (Central Daylight Time),681314.3000000045,B,b,I,b,7993,2,8013.89999999851,673300.400000006,8012,WL,B,11.0
6,44.75200009346008,distr,15247.999906539917,Thu May 08 2025 10:08:30 GMT-0500 (Central Daylight Time),681447.400000006,B,bu,I,u,123,2,8147.0,673300.400000006,8012,WL,B,11.0
6,44.901999950408936,distr,15098.000049591064,Thu May 08 2025 10:08:30 GMT-0500 (Central Daylight Time),681597.3000000045,B,bui,I,i,134,2,8296.89999999851,673300.400000006,8012,WL,B,11.0
6,45.10300016403198,distr,14896.999835968018,Thu May 08 2025 10:08:30 GMT-0500 (Central Daylight Time),681798.0,B,buil,I,l,192,2,8497.59999999404,673300.400000006,8012,WL,B,11.0
6,45.2020001411438,distr,14797.999858856201,Thu May 08 2025 10:08:30 GMT-0500 (Central Daylight Time),681897.200000003,B,build,I,d,87,2,8596.79999999702,673300.400000006,8012,WL,B,11.0
6,45.33500003814697,distr,14664.999961853027,Thu May 08 2025 10:08:30 GMT-0500 (Central Daylight Time),682030.6000000015,B,buildi,I,i,124,2,8730.19999999553,673300.400000006,8012,WL,B,11.0
6,45.38499999046326,distr,14615.000009536743,Thu May 08 2025 10:08:30 GMT-0500 (Central Daylight Time),682080.400000006,B,buildin,I,n,39,2,8780.0,673300.400000006,8012,WL,B,11.0
6,45.51900005340576,distr,14480.999946594238,Thu May 08 2025 10:08:30 GMT-0500 (Central Daylight Time),682213.700000003,B,building,I,g,117,2,8913.29999999702,673300.400000006,8012,WL,B,11.0
6,46.08500003814697,distr,13914.999961853027,Thu May 08 2025 10:08:30 GMT-0500 (Central Daylight Time),682780.3000000045,B,buildingenter,I,enter,552,2,9479.89999999851,673300.400000006,8012,WL,B,11.0
6,60.01400017738342,distr,-14.000177383422852,Thu May 08 2025 10:08:30 GMT-0500 (Central Daylight Time),696709.3000000045,B,None,I,None,13924,2,13928.60000000149,682780.700000003,8012,WL,B,12.0
7,0.9670000076293945,immed,59032.999992370605,Thu May 08 2025 10:08:30 GMT-0500 (Central Daylight Time),710656.1000000015,A,s,I,s,949,2,967.1000000014901,709689.0,8012,WL,B,1.0
7,1.133000135421753,immed,58866.99986457825,Thu May 08 2025 10:08:30 GMT-0500 (Central Daylight Time),710821.6000000015,A,st,I,t,149,2,1132.6000000014901,709689.0,8012,WL,B,1.0
7,1.317000150680542,immed,58682.99984931946,Thu May 08 2025 10:08:30 GMT-0500 (Central Daylight Time),711005.700000003,A,str,I,r,167,2,1316.7000000029802,709689.0,8012,WL,B,1.0
7,1.4820001125335693,immed,58517.99988746643,Thu May 08 2025 10:08:30 GMT-0500 (Central Daylight Time),711171.400000006,A,stre,I,e,152,2,1482.4000000059605,709689.0,8012,WL,B,1.0
7,1.6160001754760742,immed,58383.999824523926,Thu May 08 2025 10:08:30 GMT-0500 (Central Daylight Time),711304.700000003,A,stree,I,e,122,2,1615.7000000029802,709689.0,8012,WL,B,1.0
7,1.7820000648498535,immed,58217.99993515015,Thu May 08 2025 10:08:30 GMT-0500 (Central Daylight Time),711471.200000003,A,street,I,t,149,2,1782.2000000029802,709689.0,8012,WL,B,1.0
7,2.0320000648498535,immed,57967.99993515015,Thu May 08 2025 10:08:30 GMT-0500 (Central Daylight Time),711721.1000000015,A,streetenter,I,enter,238,2,2032.1000000014901,709689.0,8012,WL,B,1.0
7,2.2150001525878906,immed,57784.99984741211,Thu May 08 2025 10:08:30 GMT-0500 (Central Daylight Time),711904.5,A,g,I,g,163,2,183.19999999552965,711721.3000000045,8012,WL,B,2.0
7,2.3990001678466797,immed,57600.99983215332,Thu May 08 2025 10:08:30 GMT-0500 (Central Daylight Time),712087.8000000045,A,gr,I,r,173,2,366.5,711721.3000000045,8012,WL,B,2.0
7,2.5320000648498535,immed,57467.99993515015,Thu May 08 2025 10:08:30 GMT-0500 (Central Daylight Time),712221.200000003,A,gra,I,a,117,2,499.8999999985099,711721.3000000045,8012,WL,B,2.0
7,2.7150001525878906,immed,57284.99984741211,Thu May 08 2025 10:08:30 GMT-0500 (Central Daylight Time),712404.400000006,A,gras,I,s,176,2,683.1000000014901,711721.3000000045,8012,WL,B,2.0
7,2.882000207901001,immed,57117.999792099,Thu May 08 2025 10:08:30 GMT-0500 (Central Daylight Time),712571.1000000015,A,grass,I,s,153,2,849.7999999970198,711721.3000000045,8012,WL,B,2.0
7,4.249000072479248,immed,55750.99992752075,Thu May 08 2025 10:08:30 GMT-0500 (Central Daylight Time),713937.700000003,A,grassenter,I,enter,1362,2,2216.39999999851,711721.3000000045,8012,WL,B,2.0
7,5.248000144958496,immed,54751.999855041504,Thu May 08 2025 10:08:30 GMT-0500 (Central Daylight Time),714937.0,A,d,I,d,980,2,999.0999999940395,713937.900000006,8012,WL,B,3.0
7,5.430999994277954,immed,54569.000005722046,Thu May 08 2025 10:08:30 GMT-0500 (Central Daylight Time),715120.1000000015,A,do,I,o,173,2,1182.1999999955297,713937.900000006,8012,WL,B,3.0
7,5.581000089645386,immed,54418.999910354614,Thu May 08 2025 10:08:30 GMT-0500 (Central Daylight Time),715270.200000003,A,doo,I,o,133,2,1332.2999999970198,713937.900000006,8012,WL,B,3.0
7,5.698000192642212,immed,54301.99980735779,Thu May 08 2025 10:08:30 GMT-0500 (Central Daylight Time),715386.6000000015,A,door,I,r,111,2,1448.6999999955297,713937.900000006,8012,WL,B,3.0
7,6.13100004196167,immed,53868.99995803833,Thu May 08 2025 10:08:30 GMT-0500 (Central Daylight Time),715819.900000006,A,doorenter,I,enter,427,2,1882.0,713937.900000006,8012,WL,B,3.0
7,6.331000089645386,immed,53668.999910354614,Thu May 08 2025 10:08:30 GMT-0500 (Central Daylight Time),716019.900000006,A,a,I,a,194,2,199.60000000149012,715820.3000000045,8012,WL,B,4.0
7,6.677000045776367,immed,53322.99995422363,Thu May 08 2025 10:08:30 GMT-0500 (Central Daylight Time),716365.8000000045,A,am,I,m,342,2,545.5,715820.3000000045,8012,WL,B,4.0
7,7.247000217437744,immed,52752.999782562256,Thu May 08 2025 10:08:30 GMT-0500 (Central Daylight Time),716936.200000003,A,a,I,backspace,559,2,1115.8999999985099,715820.3000000045,8012,WL,B,4.0
7,7.46399998664856,immed,52536.00001335144,Thu May 08 2025 10:08:30 GMT-0500 (Central Daylight Time),717153.200000003,A,ar,I,r,196,2,1332.8999999985099,715820.3000000045,8012,WL,B,4.0
7,7.63100004196167,immed,52368.99995803833,Thu May 08 2025 10:08:30 GMT-0500 (Central Daylight Time),717319.700000003,A,arm,I,m,156,2,1499.3999999985099,715820.3000000045,8012,WL,B,4.0
7,8.497000217437744,immed,51502.999782562256,Thu May 08 2025 10:08:30 GMT-0500 (Central Daylight Time),718186.200000003,A,armenter,I,enter,845,2,2365.89999999851,715820.3000000045,8012,WL,B,4.0
7,8.747000217437744,immed,51252.999782562256,Thu May 08 2025 10:08:30 GMT-0500 (Central Daylight Time),718435.700000003,A,s,I,s,234,2,249.20000000298023,718186.5,8012,WL,B,5.0
7,8.830000162124634,immed,51169.999837875366,Thu May 08 2025 10:08:30 GMT-0500 (Central Daylight Time),718519.0,A,st,I,t,66,2,332.5,718186.5,8012,WL,B,5.0
7,9.03000020980835,immed,50969.99979019165,Thu May 08 2025 10:08:30 GMT-0500 (Central Daylight Time),718719.1000000015,A,sta,I,a,190,2,532.6000000014901,718186.5,8012,WL,B,5.0
7,9.130000114440918,immed,50869.99988555908,Thu May 08 2025 10:08:30 GMT-0500 (Central Daylight Time),718818.8000000045,A,star,I,r,94,2,632.3000000044703,718186.5,8012,WL,B,5.0
7,9.36300015449524,immed,50636.99984550476,Thu May 08 2025 10:08:30 GMT-0500 (Central Daylight Time),719052.3000000045,A,starenter,I,enter,219,2,865.8000000044703,718186.5,8012,WL,B,5.0
7,9.547000169754028,immed,50452.99983024597,Thu May 08 2025 10:08:30 GMT-0500 (Central Daylight Time),719235.6000000015,A,w,I,w,169,2,183.10000000149012,719052.5,8012,WL,B,6.0
7,9.680000066757202,immed,50319.9999332428,Thu May 08 2025 10:08:30 GMT-0500 (Central Daylight Time),719368.6000000015,A,wi,I,i,113,2,316.1000000014901,719052.5,8012,WL,B,6.0
7,9.813000202178955,immed,50186.999797821045,Thu May 08 2025 10:08:30 GMT-0500 (Central Daylight Time),719502.200000003,A,wif,I,f,125,2,449.70000000298023,719052.5,8012,WL,B,6.0
7,9.946000099182129,immed,50053.99990081787,Thu May 08 2025 10:08:30 GMT-0500 (Central Daylight Time),719635.5,A,wife,I,e,119,2,583.0,719052.5,8012,WL,B,6.0
7,10.59600019454956,immed,49403.99980545044,Thu May 08 2025 10:08:30 GMT-0500 (Central Daylight Time),720285.200000003,A,wifeenter,I,enter,642,2,1232.7000000029802,719052.5,8012,WL,B,6.0
7,10.962000131607056,immed,49037.999868392944,Thu May 08 2025 10:08:30 GMT-0500 (Central Daylight Time),720651.900000006,A,w,I,w,359,2,366.40000000596046,720285.5,8012,WL,B,7.0
7,11.09600019454956,immed,48903.99980545044,Thu May 08 2025 10:08:30 GMT-0500 (Central Daylight Time),720785.1000000015,A,wi,I,i,121,2,499.6000000014901,720285.5,8012,WL,B,7.0
7,11.26200008392334,immed,48737.99991607666,Thu May 08 2025 10:08:30 GMT-0500 (Central Daylight Time),720951.400000006,A,win,I,n,148,2,665.9000000059605,720285.5,8012,WL,B,7.0
7,11.412000179290771,immed,48587.99982070923,Thu May 08 2025 10:08:30 GMT-0500 (Central Daylight Time),721101.3000000045,A,wind,I,d,141,2,815.8000000044703,720285.5,8012,WL,B,7.0
7,11.646000146865845,immed,48353.999853134155,Thu May 08 2025 10:08:30 GMT-0500 (Central Daylight Time),721335.900000006,A,windo,I,o,224,2,1050.4000000059605,720285.5,8012,WL,B,7.0
7,11.879000186920166,immed,48120.999813079834,Thu May 08 2025 10:08:30 GMT-0500 (Central Daylight Time),721568.1000000015,A,window,I,w,221,2,1282.6000000014901,720285.5,8012,WL,B,7.0
7,12.078999996185303,immed,47921.0000038147,Thu May 08 2025 10:08:30 GMT-0500 (Central Daylight Time),721768.200000003,A,windowenter,I,enter,189,2,1482.7000000029802,720285.5,8012,WL,B,7.0
7,12.328999996185303,immed,47671.0000038147,Thu May 08 2025 10:08:30 GMT-0500 (Central Daylight Time),722018.1000000015,A,c,I,c,229,2,249.60000000149012,721768.5,8012,WL,B,8.0
7,12.76200008392334,immed,47237.99991607666,Thu May 08 2025 10:08:30 GMT-0500 (Central Daylight Time),722451.3000000045,A,ci,I,i,427,2,682.8000000044703,721768.5,8012,WL,B,8.0
7,12.962000131607056,immed,47037.999868392944,Thu May 08 2025 10:08:30 GMT-0500 (Central Daylight Time),722651.1000000015,A,cit,I,t,186,2,882.6000000014901,721768.5,8012,WL,B,8.0
7,13.678000211715698,immed,46321.9997882843,Thu May 08 2025 10:08:30 GMT-0500 (Central Daylight Time),723367.700000003,A,city,I,y,698,2,1599.2000000029802,721768.5,8012,WL,B,8.0
7,13.978000164031982,immed,46021.99983596802,Thu May 08 2025 10:08:30 GMT-0500 (Central Daylight Time),723667.6000000015,A,cityenter,I,enter,286,2,1899.1000000014901,721768.5,8012,WL,B,8.0
7,14.378000020980835,immed,45621.999979019165,Thu May 08 2025 10:08:30 GMT-0500 (Central Daylight Time),724067.3000000045,A,p,I,p,394,2,399.30000000447035,723668.0,8012,WL,B,9.0
7,14.594000101089478,immed,45405.99989891052,Thu May 08 2025 10:08:30 GMT-0500 (Central Daylight Time),724283.900000006,A,pu,I,u,209,2,615.9000000059605,723668.0,8012,WL,B,9.0
7,14.74400019645691,immed,45255.99980354309,Thu May 08 2025 10:08:30 GMT-0500 (Central Daylight Time),724434.0,A,pup,I,p,145,2,766.0,723668.0,8012,WL,B,9.0
7,14.91100001335144,immed,45088.99998664856,Thu May 08 2025 10:08:30 GMT-0500 (Central Daylight Time),724600.6000000015,A,pupi,I,i,156,2,932.6000000014901,723668.0,8012,WL,B,9.0
7,15.128000020980835,immed,44871.999979019165,Thu May 08 2025 10:08:30 GMT-0500 (Central Daylight Time),724817.1000000015,A,pupil,I,l,196,2,1149.1000000014901,723668.0,8012,WL,B,9.0
7,15.32800006866455,immed,44671.99993133545,Thu May 08 2025 10:08:30 GMT-0500 (Central Daylight Time),725017.0,A,pupilenter,I,enter,179,2,1349.0,723668.0,8012,WL,B,9.0
7,15.511000156402588,immed,44488.99984359741,Thu May 08 2025 10:08:30 GMT-0500 (Central Daylight Time),725200.6000000015,A,c,I,c,172,2,183.10000000149012,725017.5,8012,WL,B,10.0
7,15.611000061035156,immed,44388.999938964844,Thu May 08 2025 10:08:30 GMT-0500 (Central Daylight Time),725300.3000000045,A,ca,I,a,85,2,282.80000000447035,725017.5,8012,WL,B,10.0
7,15.74400019645691,immed,44255.99980354309,Thu May 08 2025 10:08:30 GMT-0500 (Central Daylight Time),725433.8000000045,A,cab,I,b,119,2,416.30000000447035,725017.5,8012,WL,B,10.0
