block_c,block_dur,condition,countdown,datetime,endtime,list,multichar_response,project,response,response_time,session_number,start_end,starttime,subject_id,task,task_vers,trial
,,,,Thu May 29 2025 12:13:30 GMT-0500 (Central Daylight Time),,,,I,space,470,2,,,8024,WL,C,
prac,,0,,Thu May 29 2025 12:13:30 GMT-0500 (Central Daylight Time),,NA,b,I,b,1654,2,,,8024,WL,C,1.0
prac,,0,,Thu May 29 2025 12:13:30 GMT-0500 (Central Daylight Time),,NA,bo,I,o,424,2,,,8024,WL,C,1.0
prac,,0,,Thu May 29 2025 12:13:30 GMT-0500 (Central Daylight Time),,NA,boo,I,o,143,2,,,8024,WL,C,1.0
prac,,0,,Thu May 29 2025 12:13:30 GMT-0500 (Central Daylight Time),,NA,boos,I,s,57,2,,,8024,WL,C,1.0
prac,,0,,Thu May 29 2025 12:13:30 GMT-0500 (Central Daylight Time),,NA,boost,I,t,294,2,,,8024,WL,C,1.0
prac,,0,,Thu May 29 2025 12:13:30 GMT-0500 (Central Daylight Time),,NA,boostenter,I,enter,571,2,,,8024,WL,C,1.0
1,1.6159999370574951,learn,58384.000062942505,Thu May 29 2025 12:13:30 GMT-0500 (Central Daylight Time),114273.69999998808,A,t,I,t,1603,2,1615.8999999761581,112657.80000001192,8024,WL,C,1.0
1,1.8329999446868896,learn,58167.00005531311,Thu May 29 2025 12:13:30 GMT-0500 (Central Daylight Time),114490.5,A,to,I,o,202,2,1832.699999988079,112657.80000001192,8024,WL,C,1.0
1,2.381999969482422,learn,57618.00003051758,Thu May 29 2025 12:13:30 GMT-0500 (Central Daylight Time),115039.90000000596,A,tow,I,w,538,2,2382.0999999940395,112657.80000001192,8024,WL,C,1.0
1,2.681999921798706,learn,57318.000078201294,Thu May 29 2025 12:13:30 GMT-0500 (Central Daylight Time),115339.80000001192,A,towe,I,e,284,2,2682.0,112657.80000001192,8024,WL,C,1.0
1,3.115000009536743,learn,56884.99999046326,Thu May 29 2025 12:13:30 GMT-0500 (Central Daylight Time),115773.09999999404,A,tower,I,r,416,2,3115.2999999821186,112657.80000001192,8024,WL,C,1.0
1,4.865000009536743,learn,55134.99999046326,Thu May 29 2025 12:13:30 GMT-0500 (Central Daylight Time),117522.59999999404,A,towerenter,I,enter,1735,2,4864.799999982119,112657.80000001192,8024,WL,C,1.0
1,6.480999946594238,learn,53519.00005340576,Thu May 29 2025 12:13:30 GMT-0500 (Central Daylight Time),119138.69999998808,A,h,I,h,1609,2,1615.5,117523.19999998808,8024,WL,C,2.0
1,6.71399998664856,learn,53286.00001335144,Thu May 29 2025 12:13:30 GMT-0500 (Central Daylight Time),119372.0,A,ho,I,o,218,2,1848.800000011921,117523.19999998808,8024,WL,C,2.0
1,7.562999963760376,learn,52437.000036239624,Thu May 29 2025 12:13:30 GMT-0500 (Central Daylight Time),120221.5,A,hom,I,m,840,2,2698.300000011921,117523.19999998808,8024,WL,C,2.0
1,7.829999923706055,learn,52170.000076293945,Thu May 29 2025 12:13:30 GMT-0500 (Central Daylight Time),120488.30000001192,A,home,I,e,247,2,2965.100000023842,117523.19999998808,8024,WL,C,2.0
1,8.346999883651733,learn,51653.00011634827,Thu May 29 2025 12:13:30 GMT-0500 (Central Daylight Time),121004.80000001192,A,homeenter,I,enter,508,2,3481.600000023842,117523.19999998808,8024,WL,C,2.0
1,8.879999876022339,learn,51120.00012397766,Thu May 29 2025 12:13:30 GMT-0500 (Central Daylight Time),121538.0,A,b,I,b,512,2,532.5999999940395,121005.40000000596,8024,WL,C,3.0
1,9.079999923706055,learn,50920.000076293945,Thu May 29 2025 12:13:30 GMT-0500 (Central Daylight Time),121738.0,A,bo,I,o,179,2,732.5999999940395,121005.40000000596,8024,WL,C,3.0
1,9.496999979019165,learn,50503.000020980835,Thu May 29 2025 12:13:30 GMT-0500 (Central Daylight Time),122154.69999998808,A,boy,I,y,395,2,1149.2999999821186,121005.40000000596,8024,WL,C,3.0
1,9.86299991607666,learn,50137.00008392334,Thu May 29 2025 12:13:30 GMT-0500 (Central Daylight Time),122521.0,A,boyenter,I,enter,354,2,1515.5999999940395,121005.40000000596,8024,WL,C,3.0
1,11.263000011444092,learn,48736.99998855591,Thu May 29 2025 12:13:30 GMT-0500 (Central Daylight Time),123920.69999998808,A,q,I,q,1380,2,1399.199999988079,122521.5,8024,WL,C,4.0
1,11.578999996185303,learn,48421.0000038147,Thu May 29 2025 12:13:30 GMT-0500 (Central Daylight Time),124237.0,A,qu,I,u,308,2,1715.5,122521.5,8024,WL,C,4.0
1,11.911999940872192,learn,48088.00005912781,Thu May 29 2025 12:13:30 GMT-0500 (Central Daylight Time),124570.30000001192,A,que,I,e,312,2,2048.800000011921,122521.5,8024,WL,C,4.0
1,12.26200008392334,learn,47737.99991607666,Thu May 29 2025 12:13:30 GMT-0500 (Central Daylight Time),124920.19999998808,A,quen,I,n,338,2,2398.699999988079,122521.5,8024,WL,C,4.0
1,12.812000036239624,learn,47187.999963760376,Thu May 29 2025 12:13:30 GMT-0500 (Central Daylight Time),125470.0,A,quenenter,I,enter,540,2,2948.5,122521.5,8024,WL,C,4.0
1,16.16100001335144,learn,43838.99998664856,Thu May 29 2025 12:13:30 GMT-0500 (Central Daylight Time),128818.80000001192,A,c,I,c,3343,2,3348.300000011921,125470.5,8024,WL,C,5.0
1,16.444000005722046,learn,43555.999994277954,Thu May 29 2025 12:13:30 GMT-0500 (Central Daylight Time),129102.5,A,co,I,o,266,2,3632.0,125470.5,8024,WL,C,5.0
1,16.66100001335144,learn,43338.99998664856,Thu May 29 2025 12:13:30 GMT-0500 (Central Daylight Time),129318.90000000596,A,cor,I,r,199,2,3848.4000000059605,125470.5,8024,WL,C,5.0
1,16.960999965667725,learn,43039.000034332275,Thu May 29 2025 12:13:30 GMT-0500 (Central Daylight Time),129618.59999999404,A,corn,I,n,294,2,4148.0999999940395,125470.5,8024,WL,C,5.0
1,17.427000045776367,learn,42572.99995422363,Thu May 29 2025 12:13:30 GMT-0500 (Central Daylight Time),130085.19999998808,A,cornenter,I,enter,451,2,4614.699999988079,125470.5,8024,WL,C,5.0
1,17.960000038146973,learn,42039.99996185303,Thu May 29 2025 12:13:30 GMT-0500 (Central Daylight Time),130618.40000000596,A,c,I,c,527,2,532.5999999940395,130085.80000001192,8024,WL,C,6.0
1,18.22699999809265,learn,41773.00000190735,Thu May 29 2025 12:13:30 GMT-0500 (Central Daylight Time),130885.40000000596,A,ca,I,a,259,2,799.5999999940395,130085.80000001192,8024,WL,C,6.0
1,18.592999935150146,learn,41407.00006484985,Thu May 29 2025 12:13:30 GMT-0500 (Central Daylight Time),131251.5,A,cat,I,t,360,2,1165.699999988079,130085.80000001192,8024,WL,C,6.0
1,18.80999994277954,learn,41190.00005722046,Thu May 29 2025 12:13:30 GMT-0500 (Central Daylight Time),131468.19999998808,A,catt,I,t,201,2,1382.3999999761581,130085.80000001192,8024,WL,C,6.0
1,19.009999990463257,learn,40990.00000953674,Thu May 29 2025 12:13:30 GMT-0500 (Central Daylight Time),131668.09999999404,A,cattl,I,l,185,2,1582.2999999821186,130085.80000001192,8024,WL,C,6.0
1,19.16000008583069,learn,40839.99991416931,Thu May 29 2025 12:13:30 GMT-0500 (Central Daylight Time),131818.19999998808,A,cattle,I,e,145,2,1732.3999999761581,130085.80000001192,8024,WL,C,6.0
1,19.627000093460083,learn,40372.99990653992,Thu May 29 2025 12:13:30 GMT-0500 (Central Daylight Time),132284.80000001192,A,cattleenter,I,enter,451,2,2199.0,130085.80000001192,8024,WL,C,6.0
1,33.48900008201599,learn,26510.99991798401,Thu May 29 2025 12:13:30 GMT-0500 (Central Daylight Time),146146.69999998808,A,f,I,f,13856,2,13861.399999976158,132285.30000001192,8024,WL,C,7.0
1,34.104000091552734,learn,25895.999908447266,Thu May 29 2025 12:13:30 GMT-0500 (Central Daylight Time),146762.09999999404,A,fl,I,l,610,2,14476.799999982119,132285.30000001192,8024,WL,C,7.0
1,34.25099992752075,learn,25749.000072479248,Thu May 29 2025 12:13:30 GMT-0500 (Central Daylight Time),146909.19999998808,A,fla,I,a,41,2,14623.899999976158,132285.30000001192,8024,WL,C,7.0
1,34.454999923706055,learn,25545.000076293945,Thu May 29 2025 12:13:30 GMT-0500 (Central Daylight Time),147113.09999999404,A,flag,I,g,183,2,14827.799999982119,132285.30000001192,8024,WL,C,7.0
1,35.07200002670288,learn,24927.99997329712,Thu May 29 2025 12:13:30 GMT-0500 (Central Daylight Time),147729.69999998808,A,flagenter,I,enter,604,2,15444.399999976158,132285.30000001192,8024,WL,C,7.0
1,60.013999938964844,learn,-13.99993896484375,Thu May 29 2025 12:13:30 GMT-0500 (Central Daylight Time),172672.0,A,None,I,None,24937,2,24941.90000000596,147730.09999999404,8024,WL,C,8.0
2,0.4830000400543213,learn,59516.99995994568,Thu May 29 2025 12:13:30 GMT-0500 (Central Daylight Time),246115.5,A,b,I,b,469,2,483.19999998807907,245632.30000001192,8024,WL,C,1.0
2,0.7160000801086426,learn,59283.99991989136,Thu May 29 2025 12:13:30 GMT-0500 (Central Daylight Time),246348.59999999404,A,bo,I,o,217,2,716.2999999821186,245632.30000001192,8024,WL,C,1.0
2,1.2330000400543213,learn,58766.99995994568,Thu May 29 2025 12:13:30 GMT-0500 (Central Daylight Time),246865.19999998808,A,bod,I,d,505,2,1232.8999999761581,245632.30000001192,8024,WL,C,1.0
2,1.5829999446868896,learn,58417.00005531311,Thu May 29 2025 12:13:30 GMT-0500 (Central Daylight Time),247215.30000001192,A,body,I,y,340,2,1583.0,245632.30000001192,8024,WL,C,1.0
2,2.449000120162964,learn,57550.999879837036,Thu May 29 2025 12:13:30 GMT-0500 (Central Daylight Time),248081.59999999404,A,bodyenter,I,enter,854,2,2449.2999999821186,245632.30000001192,8024,WL,C,1.0
2,2.865999937057495,learn,57134.000062942505,Thu May 29 2025 12:13:30 GMT-0500 (Central Daylight Time),248498.09999999404,A,s,I,s,404,2,416.09999999403954,248082.0,8024,WL,C,2.0
2,3.1489999294281006,learn,56851.0000705719,Thu May 29 2025 12:13:30 GMT-0500 (Central Daylight Time),248781.30000001192,A,sh,I,h,275,2,699.3000000119209,248082.0,8024,WL,C,2.0
2,3.6489999294281006,learn,56351.0000705719,Thu May 29 2025 12:13:30 GMT-0500 (Central Daylight Time),249281.19999998808,A,sho,I,o,488,2,1199.199999988079,248082.0,8024,WL,C,2.0
2,3.8480000495910645,learn,56151.999950408936,Thu May 29 2025 12:13:30 GMT-0500 (Central Daylight Time),249481.0,A,shor,I,r,180,2,1399.0,248082.0,8024,WL,C,2.0
2,3.997999906539917,learn,56002.00009346008,Thu May 29 2025 12:13:30 GMT-0500 (Central Daylight Time),249630.90000000596,A,shore,I,e,140,2,1548.9000000059605,248082.0,8024,WL,C,2.0
2,4.5980000495910645,learn,55401.999950408936,Thu May 29 2025 12:13:30 GMT-0500 (Central Daylight Time),250230.90000000596,A,shoreenter,I,enter,591,2,2148.9000000059605,248082.0,8024,WL,C,2.0
2,5.197999954223633,learn,54802.00004577637,Thu May 29 2025 12:13:30 GMT-0500 (Central Daylight Time),250830.59999999404,A,c,I,c,583,2,599.4000000059605,250231.19999998808,8024,WL,C,3.0
2,5.38100004196167,learn,54618.99995803833,Thu May 29 2025 12:13:30 GMT-0500 (Central Daylight Time),251014.0,A,ca,I,a,167,2,782.8000000119209,250231.19999998808,8024,WL,C,3.0
2,5.747999906539917,learn,54252.00009346008,Thu May 29 2025 12:13:30 GMT-0500 (Central Daylight Time),251380.40000000596,A,can,I,n,359,2,1149.2000000178814,250231.19999998808,8024,WL,C,3.0
2,6.38100004196167,learn,53618.99995803833,Thu May 29 2025 12:13:30 GMT-0500 (Central Daylight Time),252013.80000001192,A,ca,I,backspace,625,2,1782.6000000238419,250231.19999998808,8024,WL,C,3.0
2,6.747999906539917,learn,53252.00009346008,Thu May 29 2025 12:13:30 GMT-0500 (Central Daylight Time),252380.19999998808,A,cam,I,m,360,2,2149.0,250231.19999998808,8024,WL,C,3.0
2,7.081000089645386,learn,52918.999910354614,Thu May 29 2025 12:13:30 GMT-0500 (Central Daylight Time),252713.40000000596,A,camp,I,p,321,2,2482.2000000178814,250231.19999998808,8024,WL,C,3.0
2,7.664000034332275,learn,52335.999965667725,Thu May 29 2025 12:13:30 GMT-0500 (Central Daylight Time),253296.59999999404,A,campenter,I,enter,572,2,3065.4000000059605,250231.19999998808,8024,WL,C,3.0
2,9.730000019073486,learn,50269.999980926514,Thu May 29 2025 12:13:30 GMT-0500 (Central Daylight Time),255362.59999999404,A,d,I,d,2061,2,2065.5999999940395,253297.0,8024,WL,C,4.0
2,10.013000011444092,learn,49986.99998855591,Thu May 29 2025 12:13:30 GMT-0500 (Central Daylight Time),255645.90000000596,A,do,I,o,267,2,2348.9000000059605,253297.0,8024,WL,C,4.0
2,10.329999923706055,learn,49670.000076293945,Thu May 29 2025 12:13:30 GMT-0500 (Central Daylight Time),255962.30000001192,A,doc,I,c,311,2,2665.300000011921,253297.0,8024,WL,C,4.0
2,12.128999948501587,learn,47871.00005149841,Thu May 29 2025 12:13:30 GMT-0500 (Central Daylight Time),257762.0,A,doct,I,t,1779,2,4465.0,253297.0,8024,WL,C,4.0
2,12.345999956130981,learn,47654.00004386902,Thu May 29 2025 12:13:30 GMT-0500 (Central Daylight Time),257978.5,A,docto,I,o,203,2,4681.5,253297.0,8024,WL,C,4.0
2,12.711999893188477,learn,47288.00010681152,Thu May 29 2025 12:13:30 GMT-0500 (Central Daylight Time),258345.0,A,doctoe,I,e,355,2,5048.0,253297.0,8024,WL,C,4.0
2,13.711999893188477,learn,46288.00010681152,Thu May 29 2025 12:13:30 GMT-0500 (Central Daylight Time),259344.69999998808,A,docto,I,backspace,989,2,6047.699999988079,253297.0,8024,WL,C,4.0
2,14.078999996185303,learn,45921.0000038147,Thu May 29 2025 12:13:30 GMT-0500 (Central Daylight Time),259711.09999999404,A,doctor,I,r,349,2,6414.0999999940395,253297.0,8024,WL,C,4.0
2,14.745000123977661,learn,45254.99987602234,Thu May 29 2025 12:13:30 GMT-0500 (Central Daylight Time),260377.90000000596,A,doctorenter,I,enter,654,2,7080.9000000059605,253297.0,8024,WL,C,4.0
2,16.894999980926514,learn,43105.000019073486,Thu May 29 2025 12:13:30 GMT-0500 (Central Daylight Time),262527.1999999881,A,t,I,t,2139,2,2148.7999999821186,260378.40000000596,8024,WL,C,5.0
2,17.293999910354614,learn,42706.000089645386,Thu May 29 2025 12:13:30 GMT-0500 (Central Daylight Time),262927.0,A,to,I,o,382,2,2548.5999999940395,260378.40000000596,8024,WL,C,5.0
2,17.47699999809265,learn,42523.00000190735,Thu May 29 2025 12:13:30 GMT-0500 (Central Daylight Time),263110.0,A,tow,I,w,174,2,2731.5999999940395,260378.40000000596,8024,WL,C,5.0
2,17.72699999809265,learn,42273.00000190735,Thu May 29 2025 12:13:30 GMT-0500 (Central Daylight Time),263359.90000000596,A,towe,I,e,231,2,2981.5,260378.40000000596,8024,WL,C,5.0
2,17.99399995803833,learn,42006.00004196167,Thu May 29 2025 12:13:30 GMT-0500 (Central Daylight Time),263626.5,A,tower,I,r,262,2,3248.0999999940395,260378.40000000596,8024,WL,C,5.0
2,18.526999950408936,learn,41473.000049591064,Thu May 29 2025 12:13:30 GMT-0500 (Central Daylight Time),264159.5,A,towerenter,I,enter,522,2,3781.0999999940395,260378.40000000596,8024,WL,C,5.0
2,19.14400005340576,learn,40855.99994659424,Thu May 29 2025 12:13:30 GMT-0500 (Central Daylight Time),264776.8000000119,A,b,I,b,597,2,616.8000000119209,264160.0,8024,WL,C,6.0
2,19.526999950408936,learn,40473.000049591064,Thu May 29 2025 12:13:30 GMT-0500 (Central Daylight Time),265159.5,A,bi,I,i,371,2,999.5,264160.0,8024,WL,C,6.0
2,20.493000030517578,learn,39506.99996948242,Thu May 29 2025 12:13:30 GMT-0500 (Central Daylight Time),266125.90000000596,A,b,I,backspace,958,2,1965.9000000059605,264160.0,8024,WL,C,6.0
2,21.127000093460083,learn,38872.99990653992,Thu May 29 2025 12:13:30 GMT-0500 (Central Daylight Time),266759.0,A,bo,I,o,624,2,2599.0,264160.0,8024,WL,C,6.0
2,21.493000030517578,learn,38506.99996948242,Thu May 29 2025 12:13:30 GMT-0500 (Central Daylight Time),267125.5,A,boy,I,y,350,2,2965.5,264160.0,8024,WL,C,6.0
2,21.960000038146973,learn,38039.99996185303,Thu May 29 2025 12:13:30 GMT-0500 (Central Daylight Time),267592.3000000119,A,boyenter,I,enter,448,2,3432.300000011921,264160.0,8024,WL,C,6.0
2,22.45900011062622,learn,37540.99988937378,Thu May 29 2025 12:13:30 GMT-0500 (Central Daylight Time),268092.0,A,c,I,c,485,2,499.30000001192093,267592.6999999881,8024,WL,C,7.0
2,22.658999919891357,learn,37341.00008010864,Thu May 29 2025 12:13:30 GMT-0500 (Central Daylight Time),268291.59999999404,A,co,I,o,193,2,698.9000000059605,267592.6999999881,8024,WL,C,7.0
2,22.908999919891357,learn,37091.00008010864,Thu May 29 2025 12:13:30 GMT-0500 (Central Daylight Time),268541.90000000596,A,cor,I,r,234,2,949.2000000178814,267592.6999999881,8024,WL,C,7.0
2,23.158999919891357,learn,36841.00008010864,Thu May 29 2025 12:13:30 GMT-0500 (Central Daylight Time),268791.6999999881,A,corn,I,n,240,2,1199.0,267592.6999999881,8024,WL,C,7.0
2,23.70900011062622,learn,36290.99988937378,Thu May 29 2025 12:13:30 GMT-0500 (Central Daylight Time),269341.5,A,cornc,I,c,534,2,1748.800000011921,267592.6999999881,8024,WL,C,7.0
2,23.89199995994568,learn,36108.00004005432,Thu May 29 2025 12:13:30 GMT-0500 (Central Daylight Time),269525.0,A,cornca,I,a,175,2,1932.300000011921,267592.6999999881,8024,WL,C,7.0
2,24.424999952316284,learn,35575.000047683716,Thu May 29 2025 12:13:30 GMT-0500 (Central Daylight Time),270057.90000000596,A,corncat,I,t,513,2,2465.2000000178814,267592.6999999881,8024,WL,C,7.0
2,24.625,learn,35375.0,Thu May 29 2025 12:13:30 GMT-0500 (Central Daylight Time),270257.90000000596,A,corncatt,I,t,180,2,2665.2000000178814,267592.6999999881,8024,WL,C,7.0
2,25.592000007629395,learn,34407.999992370605,Thu May 29 2025 12:13:30 GMT-0500 (Central Daylight Time),271224.40000000596,A,corncat,I,backspace,955,2,3631.7000000178814,267592.6999999881,8024,WL,C,7.0
2,25.825000047683716,learn,34174.999952316284,Thu May 29 2025 12:13:30 GMT-0500 (Central Daylight Time),271457.6999999881,A,cornca,I,backspace,221,2,3865.0,267592.6999999881,8024,WL,C,7.0
2,26.04200005531311,learn,33957.99994468689,Thu May 29 2025 12:13:30 GMT-0500 (Central Daylight Time),271674.3000000119,A,cornc,I,backspace,196,2,4081.600000023842,267592.6999999881,8024,WL,C,7.0
2,26.54099988937378,learn,33459.00011062622,Thu May 29 2025 12:13:30 GMT-0500 (Central Daylight Time),272174.0,A,corn,I,backspace,483,2,4581.300000011921,267592.6999999881,8024,WL,C,7.0
2,27.22499990463257,learn,32775.00009536743,Thu May 29 2025 12:13:30 GMT-0500 (Central Daylight Time),272857.1999999881,A,cornenter,I,enter,663,2,5264.5,267592.6999999881,8024,WL,C,7.0
2,27.591000080108643,learn,32408.999919891357,Thu May 29 2025 12:13:30 GMT-0500 (Central Daylight Time),273223.59999999404,A,c,I,c,348,2,366.09999999403954,272857.5,8024,WL,C,8.0
2,27.7739999294281,learn,32226.0000705719,Thu May 29 2025 12:13:30 GMT-0500 (Central Daylight Time),273406.90000000596,A,ca,I,a,174,2,549.4000000059605,272857.5,8024,WL,C,8.0
2,28.091000080108643,learn,31908.999919891357,Thu May 29 2025 12:13:30 GMT-0500 (Central Daylight Time),273723.59999999404,A,cat,I,t,311,2,866.0999999940395,272857.5,8024,WL,C,8.0
2,28.308000087738037,learn,31691.999912261963,Thu May 29 2025 12:13:30 GMT-0500 (Central Daylight Time),273940.09999999404,A,catt,I,t,202,2,1082.5999999940395,272857.5,8024,WL,C,8.0
2,28.457000017166138,learn,31542.999982833862,Thu May 29 2025 12:13:30 GMT-0500 (Central Daylight Time),274089.90000000596,A,cattl,I,l,137,2,1232.4000000059605,272857.5,8024,WL,C,8.0
2,28.624000072479248,learn,31375.999927520752,Thu May 29 2025 12:13:30 GMT-0500 (Central Daylight Time),274256.8000000119,A,cattle,I,e,148,2,1399.300000011921,272857.5,8024,WL,C,8.0
2,28.973999977111816,learn,31026.000022888184,Thu May 29 2025 12:13:30 GMT-0500 (Central Daylight Time),274606.59999999404,A,cattleenter,I,enter,333,2,1749.0999999940395,272857.5,8024,WL,C,8.0
2,31.740000009536743,learn,28259.999990463257,Thu May 29 2025 12:13:30 GMT-0500 (Central Daylight Time),277372.3000000119,A,n,I,n,2759,2,2765.5,274606.8000000119,8024,WL,C,9.0
2,31.890000104904175,learn,28109.999895095825,Thu May 29 2025 12:13:30 GMT-0500 (Central Daylight Time),277522.1999999881,A,na,I,a,145,2,2915.399999976158,274606.8000000119,8024,WL,C,9.0
2,32.17300009727478,learn,27826.99990272522,Thu May 29 2025 12:13:30 GMT-0500 (Central Daylight Time),277805.59999999404,A,nai,I,i,268,2,3198.7999999821186,274606.8000000119,8024,WL,C,9.0
2,32.58899998664856,learn,27411.00001335144,Thu May 29 2025 12:13:30 GMT-0500 (Central Daylight Time),278222.0,A,nail,I,l,400,2,3615.199999988079,274606.8000000119,8024,WL,C,9.0
2,33.07299995422363,learn,26927.000045776367,Thu May 29 2025 12:13:30 GMT-0500 (Central Daylight Time),278705.1999999881,A,nailenter,I,enter,472,2,4098.399999976158,274606.8000000119,8024,WL,C,9.0
2,41.187000036239624,learn,18812.999963760376,Thu May 29 2025 12:13:30 GMT-0500 (Central Daylight Time),286819.40000000596,A,l,I,l,8100,2,8113.800000011921,278705.59999999404,8024,WL,C,10.0
2,41.37000012397766,learn,18629.99987602234,Thu May 29 2025 12:13:30 GMT-0500 (Central Daylight Time),287002.5,A,le,I,e,177,2,8296.90000000596,278705.59999999404,8024,WL,C,10.0
2,41.670000076293945,learn,18329.999923706055,Thu May 29 2025 12:13:30 GMT-0500 (Central Daylight Time),287302.59999999404,A,let,I,t,291,2,8597.0,278705.59999999404,8024,WL,C,10.0
2,41.90300011634827,learn,18096.999883651733,Thu May 29 2025 12:13:30 GMT-0500 (Central Daylight Time),287535.90000000596,A,lett,I,t,223,2,8830.300000011921,278705.59999999404,8024,WL,C,10.0
2,42.170000076293945,learn,17829.999923706055,Thu May 29 2025 12:13:30 GMT-0500 (Central Daylight Time),287802.3000000119,A,lette,I,e,253,2,9096.700000017881,278705.59999999404,8024,WL,C,10.0
2,42.50200009346008,learn,17497.999906539917,Thu May 29 2025 12:13:30 GMT-0500 (Central Daylight Time),288134.8000000119,A,letter,I,r,327,2,9429.200000017881,278705.59999999404,8024,WL,C,10.0
2,42.8529999256134,learn,17147.000074386597,Thu May 29 2025 12:13:30 GMT-0500 (Central Daylight Time),288485.59999999404,A,letterenter,I,enter,335,2,9780.0,278705.59999999404,8024,WL,C,10.0
2,47.60199999809265,learn,12398.000001907349,Thu May 29 2025 12:13:30 GMT-0500 (Central Daylight Time),293234.1999999881,A,q,I,q,4744,2,4748.299999982119,288485.90000000596,8024,WL,C,11.0
2,47.95099997520447,learn,12049.000024795532,Thu May 29 2025 12:13:30 GMT-0500 (Central Daylight Time),293583.6999999881,A,qu,I,u,331,2,5097.799999982119,288485.90000000596,8024,WL,C,11.0
2,48.13499999046326,learn,11865.000009536743,Thu May 29 2025 12:13:30 GMT-0500 (Central Daylight Time),293767.09999999404,A,que,I,e,174,2,5281.199999988079,288485.90000000596,8024,WL,C,11.0
2,48.3510000705719,learn,11648.9999294281,Thu May 29 2025 12:13:30 GMT-0500 (Central Daylight Time),293983.8000000119,A,quee,I,e,198,2,5497.9000000059605,288485.90000000596,8024,WL,C,11.0
2,48.58500003814697,learn,11414.999961853027,Thu May 29 2025 12:13:30 GMT-0500 (Central Daylight Time),294217.0,A,queen,I,n,222,2,5731.0999999940395,288485.90000000596,8024,WL,C,11.0
2,48.98399996757507,learn,11016.000032424927,Thu May 29 2025 12:13:30 GMT-0500 (Central Daylight Time),294616.8000000119,A,queenenter,I,enter,388,2,6130.9000000059605,288485.90000000596,8024,WL,C,11.0
2,60.013999938964844,learn,-13.99993896484375,Thu May 29 2025 12:13:30 GMT-0500 (Central Daylight Time),305647.09999999404,A,None,I,None,11026,2,11030.0,294617.09999999404,8024,WL,C,12.0
3,0.4159998893737793,learn,59584.00011062622,Thu May 29 2025 12:13:30 GMT-0500 (Central Daylight Time),373858.5,A,b,I,b,412,2,416.19999998807907,373442.3000000119,8024,WL,C,1.0
3,0.6500000953674316,learn,59349.99990463257,Thu May 29 2025 12:13:30 GMT-0500 (Central Daylight Time),374092.09999999404,A,bo,I,o,226,2,649.7999999821186,373442.3000000119,8024,WL,C,1.0
3,0.9660000801086426,learn,59033.99991989136,Thu May 29 2025 12:13:30 GMT-0500 (Central Daylight Time),374408.59999999404,A,bod,I,d,297,2,966.2999999821186,373442.3000000119,8024,WL,C,1.0
3,1.2999999523162842,learn,58700.000047683716,Thu May 29 2025 12:13:30 GMT-0500 (Central Daylight Time),374741.8000000119,A,body,I,y,317,2,1299.5,373442.3000000119,8024,WL,C,1.0
3,1.999000072479248,learn,58000.99992752075,Thu May 29 2025 12:13:30 GMT-0500 (Central Daylight Time),375441.40000000596,A,bodys,I,s,688,2,1999.0999999940395,373442.3000000119,8024,WL,C,1.0
3,2.2660000324249268,learn,57733.99996757507,Thu May 29 2025 12:13:30 GMT-0500 (Central Daylight Time),375708.09999999404,A,bodysh,I,h,260,2,2265.7999999821186,373442.3000000119,8024,WL,C,1.0
3,3.381999969482422,learn,56618.00003051758,Thu May 29 2025 12:13:30 GMT-0500 (Central Daylight Time),376824.1999999881,A,bodys,I,backspace,1098,2,3381.899999976158,373442.3000000119,8024,WL,C,1.0
3,4.131999969482422,learn,55868.00003051758,Thu May 29 2025 12:13:30 GMT-0500 (Central Daylight Time),377574.09999999404,A,body,I,backspace,741,2,4131.799999982119,373442.3000000119,8024,WL,C,1.0
3,4.73199987411499,learn,55268.00012588501,Thu May 29 2025 12:13:30 GMT-0500 (Central Daylight Time),378173.90000000596,A,bodyenter,I,enter,583,2,4731.5999999940395,373442.3000000119,8024,WL,C,1.0
3,5.0320000648498535,learn,54967.99993515015,Thu May 29 2025 12:13:30 GMT-0500 (Central Daylight Time),378473.90000000596,A,s,I,s,287,2,299.7000000178814,378174.1999999881,8024,WL,C,2.0
3,5.332000017166138,learn,54667.99998283386,Thu May 29 2025 12:13:30 GMT-0500 (Central Daylight Time),378773.90000000596,A,sh,I,h,291,2,599.7000000178814,378174.1999999881,8024,WL,C,2.0
3,5.664999961853027,learn,54335.00003814697,Thu May 29 2025 12:13:30 GMT-0500 (Central Daylight Time),379106.6999999881,A,sho,I,o,327,2,932.5,378174.1999999881,8024,WL,C,2.0
3,5.931999921798706,learn,54068.000078201294,Thu May 29 2025 12:13:30 GMT-0500 (Central Daylight Time),379373.8000000119,A,shor,I,r,251,2,1199.6000000238419,378174.1999999881,8024,WL,C,2.0
3,6.247999906539917,learn,53752.00009346008,Thu May 29 2025 12:13:30 GMT-0500 (Central Daylight Time),379690.1999999881,A,shore,I,e,312,2,1516.0,378174.1999999881,8024,WL,C,2.0
3,6.664999961853027,learn,53335.00003814697,Thu May 29 2025 12:13:30 GMT-0500 (Central Daylight Time),380106.90000000596,A,shoreenter,I,enter,403,2,1932.7000000178814,378174.1999999881,8024,WL,C,2.0
3,7.2149999141693115,learn,52785.00008583069,Thu May 29 2025 12:13:30 GMT-0500 (Central Daylight Time),380656.6999999881,A,d,I,d,539,2,549.3999999761581,380107.3000000119,8024,WL,C,3.0
3,7.513999938964844,learn,52486.000061035156,Thu May 29 2025 12:13:30 GMT-0500 (Central Daylight Time),380956.40000000596,A,do,I,o,285,2,849.0999999940395,380107.3000000119,8024,WL,C,3.0
3,7.7809998989105225,learn,52219.00010108948,Thu May 29 2025 12:13:30 GMT-0500 (Central Daylight Time),381223.09999999404,A,doc,I,c,257,2,1115.7999999821186,380107.3000000119,8024,WL,C,3.0
3,8.13100004196167,learn,51868.99995803833,Thu May 29 2025 12:13:30 GMT-0500 (Central Daylight Time),381573.0,A,doct,I,t,342,2,1465.699999988079,380107.3000000119,8024,WL,C,3.0
3,8.364000082015991,learn,51635.99991798401,Thu May 29 2025 12:13:30 GMT-0500 (Central Daylight Time),381806.1999999881,A,docto,I,o,216,2,1698.8999999761581,380107.3000000119,8024,WL,C,3.0
3,8.614000082015991,learn,51385.99991798401,Thu May 29 2025 12:13:30 GMT-0500 (Central Daylight Time),382055.90000000596,A,doctor,I,r,239,2,1948.5999999940395,380107.3000000119,8024,WL,C,3.0
3,9.058000087738037,learn,50941.99991226196,Thu May 29 2025 12:13:30 GMT-0500 (Central Daylight Time),382500.40000000596,A,doctorenter,I,enter,440,2,2393.0999999940395,380107.3000000119,8024,WL,C,3.0
3,9.647000074386597,learn,50352.9999256134,Thu May 29 2025 12:13:30 GMT-0500 (Central Daylight Time),383089.09999999404,A,c,I,c,568,2,588.2999999821186,382500.8000000119,8024,WL,C,4.0
3,9.829999923706055,learn,50170.000076293945,Thu May 29 2025 12:13:30 GMT-0500 (Central Daylight Time),383272.40000000596,A,ca,I,a,172,2,771.5999999940395,382500.8000000119,8024,WL,C,4.0
3,11.11299991607666,learn,48887.00008392334,Thu May 29 2025 12:13:30 GMT-0500 (Central Daylight Time),384555.3000000119,A,cam,I,m,1277,2,2054.5,382500.8000000119,8024,WL,C,4.0
3,11.54699993133545,learn,48453.00006866455,Thu May 29 2025 12:13:30 GMT-0500 (Central Daylight Time),384988.5,A,camp,I,p,418,2,2487.699999988079,382500.8000000119,8024,WL,C,4.0
3,12.079999923706055,learn,47920.000076293945,Thu May 29 2025 12:13:30 GMT-0500 (Central Daylight Time),385521.6999999881,A,campenter,I,enter,529,2,3020.899999976158,382500.8000000119,8024,WL,C,4.0
3,13.76200008392334,learn,46237.99991607666,Thu May 29 2025 12:13:30 GMT-0500 (Central Daylight Time),387204.3000000119,A,q,I,q,1668,2,1682.2000000178814,385522.09999999404,8024,WL,C,5.0
3,14.196000099182129,learn,45803.99990081787,Thu May 29 2025 12:13:30 GMT-0500 (Central Daylight Time),387637.8000000119,A,qu,I,u,425,2,2115.7000000178814,385522.09999999404,8024,WL,C,5.0
3,14.411999940872192,learn,45588.00005912781,Thu May 29 2025 12:13:30 GMT-0500 (Central Daylight Time),387854.1999999881,A,que,I,e,200,2,2332.0999999940395,385522.09999999404,8024,WL,C,5.0
3,14.911999940872192,learn,45088.00005912781,Thu May 29 2025 12:13:30 GMT-0500 (Central Daylight Time),388354.1999999881,A,quee,I,e,479,2,2832.0999999940395,385522.09999999404,8024,WL,C,5.0
3,15.727999925613403,learn,44272.0000743866,Thu May 29 2025 12:13:30 GMT-0500 (Central Daylight Time),389170.59999999404,A,queen,I,n,803,2,3648.5,385522.09999999404,8024,WL,C,5.0
3,16.32800006866455,learn,43671.99993133545,Thu May 29 2025 12:13:30 GMT-0500 (Central Daylight Time),389770.3000000119,A,queenw,I,w,595,2,4248.200000017881,385522.09999999404,8024,WL,C,5.0
3,16.611999988555908,learn,43388.00001144409,Thu May 29 2025 12:13:30 GMT-0500 (Central Daylight Time),390053.6999999881,A,queenwh,I,h,267,2,4531.5999999940395,385522.09999999404,8024,WL,C,5.0
3,17.32800006866455,learn,42671.99993133545,Thu May 29 2025 12:13:30 GMT-0500 (Central Daylight Time),390770.0,A,queenw,I,backspace,711,2,5247.9000000059605,385522.09999999404,8024,WL,C,5.0
3,17.561000108718872,learn,42438.99989128113,Thu May 29 2025 12:13:30 GMT-0500 (Central Daylight Time),391003.3000000119,A,queen,I,backspace,219,2,5481.200000017881,385522.09999999404,8024,WL,C,5.0
3,18.460999965667725,learn,41539.000034332275,Thu May 29 2025 12:13:30 GMT-0500 (Central Daylight Time),391903.0,A,queenenter,I,enter,881,2,6380.9000000059605,385522.09999999404,8024,WL,C,5.0
3,18.793999910354614,learn,41206.000089645386,Thu May 29 2025 12:13:30 GMT-0500 (Central Daylight Time),392236.1999999881,A,w,I,w,327,2,332.89999997615814,391903.3000000119,8024,WL,C,6.0
3,19.14400005340576,learn,40855.99994659424,Thu May 29 2025 12:13:30 GMT-0500 (Central Daylight Time),392586.09999999404,A,wh,I,h,337,2,682.7999999821186,391903.3000000119,8024,WL,C,6.0
3,19.344000101089478,learn,40655.99989891052,Thu May 29 2025 12:13:30 GMT-0500 (Central Daylight Time),392786.0,A,whe,I,e,195,2,882.6999999880791,391903.3000000119,8024,WL,C,6.0
3,19.66100001335144,learn,40338.99998664856,Thu May 29 2025 12:13:30 GMT-0500 (Central Daylight Time),393102.8000000119,A,whea,I,a,299,2,1199.5,391903.3000000119,8024,WL,C,6.0
3,19.97699999809265,learn,40023.00000190735,Thu May 29 2025 12:13:30 GMT-0500 (Central Daylight Time),393419.09999999404,A,wheat,I,t,303,2,1515.7999999821186,391903.3000000119,8024,WL,C,6.0
3,20.344000101089478,learn,39655.99989891052,Thu May 29 2025 12:13:30 GMT-0500 (Central Daylight Time),393785.90000000596,A,wheatenter,I,enter,355,2,1882.5999999940395,391903.3000000119,8024,WL,C,6.0
3,22.092999935150146,learn,37907.00006484985,Thu May 29 2025 12:13:30 GMT-0500 (Central Daylight Time),395535.1999999881,A,b,I,b,1740,2,1749.0,393786.1999999881,8024,WL,C,7.0
3,22.64299988746643,learn,37357.00011253357,Thu May 29 2025 12:13:30 GMT-0500 (Central Daylight Time),396084.90000000596,A,bo,I,o,542,2,2298.7000000178814,393786.1999999881,8024,WL,C,7.0
3,23.092999935150146,learn,36907.00006484985,Thu May 29 2025 12:13:30 GMT-0500 (Central Daylight Time),396534.8000000119,A,boy,I,y,433,2,2748.600000023842,393786.1999999881,8024,WL,C,7.0
3,23.575999975204468,learn,36424.00002479553,Thu May 29 2025 12:13:30 GMT-0500 (Central Daylight Time),397018.1999999881,A,boyenter,I,enter,462,2,3232.0,393786.1999999881,8024,WL,C,7.0
3,24.009000062942505,learn,35990.999937057495,Thu May 29 2025 12:13:30 GMT-0500 (Central Daylight Time),397451.09999999404,A,c,I,c,427,2,432.59999999403954,397018.5,8024,WL,C,8.0
3,24.2260000705719,learn,35773.9999294281,Thu May 29 2025 12:13:30 GMT-0500 (Central Daylight Time),397667.90000000596,A,ca,I,a,202,2,649.4000000059605,397018.5,8024,WL,C,8.0
3,24.743000030517578,learn,35256.99996948242,Thu May 29 2025 12:13:30 GMT-0500 (Central Daylight Time),398184.59999999404,A,cam,I,m,498,2,1166.0999999940395,397018.5,8024,WL,C,8.0
3,25.22499990463257,learn,34775.00009536743,Thu May 29 2025 12:13:30 GMT-0500 (Central Daylight Time),398667.40000000596,A,camp,I,p,469,2,1648.9000000059605,397018.5,8024,WL,C,8.0
3,25.325000047683716,learn,34674.999952316284,Thu May 29 2025 12:13:30 GMT-0500 (Central Daylight Time),398767.40000000596,A,campp,I,p,90,2,1748.9000000059605,397018.5,8024,WL,C,8.0
3,26.02500009536743,learn,33974.99990463257,Thu May 29 2025 12:13:30 GMT-0500 (Central Daylight Time),399467.3000000119,A,camppenter,I,enter,686,2,2448.800000011921,397018.5,8024,WL,C,8.0
3,29.957000017166138,learn,30042.999982833862,Thu May 29 2025 12:13:30 GMT-0500 (Central Daylight Time),403399.40000000596,A,n,I,n,3922,2,3931.800000011921,399467.59999999404,8024,WL,C,9.0
3,30.124000072479248,learn,29875.999927520752,Thu May 29 2025 12:13:30 GMT-0500 (Central Daylight Time),403565.8000000119,A,na,I,a,158,2,4098.200000017881,399467.59999999404,8024,WL,C,9.0
3,30.341000080108643,learn,29658.999919891357,Thu May 29 2025 12:13:30 GMT-0500 (Central Daylight Time),403782.59999999404,A,nai,I,i,207,2,4315.0,399467.59999999404,8024,WL,C,9.0
3,30.640000104904175,learn,29359.999895095825,Thu May 29 2025 12:13:30 GMT-0500 (Central Daylight Time),404082.40000000596,A,nail,I,l,287,2,4614.800000011921,399467.59999999404,8024,WL,C,9.0
3,31.140000104904175,learn,28859.999895095825,Thu May 29 2025 12:13:30 GMT-0500 (Central Daylight Time),404582.3000000119,A,nailenter,I,enter,491,2,5114.700000017881,399467.59999999404,8024,WL,C,9.0
3,33.07299995422363,learn,26927.000045776367,Thu May 29 2025 12:13:30 GMT-0500 (Central Daylight Time),406514.8000000119,A,q,I,q,1927,2,1932.2000000178814,404582.59999999404,8024,WL,C,10.0
3,33.473000049591064,learn,26526.999950408936,Thu May 29 2025 12:13:30 GMT-0500 (Central Daylight Time),406914.6999999881,A,qu,I,u,395,2,2332.0999999940395,404582.59999999404,8024,WL,C,10.0
3,33.789000034332275,learn,26210.999965667725,Thu May 29 2025 12:13:30 GMT-0500 (Central Daylight Time),407231.5,A,que,I,e,299,2,2648.9000000059605,404582.59999999404,8024,WL,C,10.0
3,34.02300000190735,learn,25976.99999809265,Thu May 29 2025 12:13:30 GMT-0500 (Central Daylight Time),407464.90000000596,A,quee,I,e,222,2,2882.300000011921,404582.59999999404,8024,WL,C,10.0
3,34.57299995422363,learn,25427.000045776367,Thu May 29 2025 12:13:30 GMT-0500 (Central Daylight Time),408014.6999999881,A,queen,I,n,540,2,3432.0999999940395,404582.59999999404,8024,WL,C,10.0
3,44.3529999256134,learn,15647.000074386597,Thu May 29 2025 12:13:30 GMT-0500 (Central Daylight Time),417794.6999999881,A,queenh,I,h,9774,2,13212.09999999404,404582.59999999404,8024,WL,C,10.0
3,44.86800003051758,learn,15131.999969482422,Thu May 29 2025 12:13:30 GMT-0500 (Central Daylight Time),418311.1999999881,A,queenho,I,o,498,2,13728.59999999404,404582.59999999404,8024,WL,C,10.0
3,45.16799998283386,learn,14832.000017166138,Thu May 29 2025 12:13:30 GMT-0500 (Central Daylight Time),418611.1999999881,A,queenhom,I,m,294,2,14028.59999999404,404582.59999999404,8024,WL,C,10.0
3,45.38499999046326,learn,14615.000009536743,Thu May 29 2025 12:13:30 GMT-0500 (Central Daylight Time),418828.0,A,queenhome,I,e,210,2,14245.40000000596,404582.59999999404,8024,WL,C,10.0
3,46.151000022888184,learn,13848.999977111816,Thu May 29 2025 12:13:30 GMT-0500 (Central Daylight Time),419594.1999999881,A,queenhomeenter,I,enter,762,2,15011.59999999404,404582.59999999404,8024,WL,C,10.0
3,50.617000102996826,learn,9382.999897003174,Thu May 29 2025 12:13:30 GMT-0500 (Central Daylight Time),424059.6999999881,A,s,I,s,4459,2,4465.199999988079,419594.5,8024,WL,C,11.0
3,51.032999992370605,learn,8967.000007629395,Thu May 29 2025 12:13:30 GMT-0500 (Central Daylight Time),424476.09999999404,A,su,I,u,402,2,4881.5999999940395,419594.5,8024,WL,C,11.0
3,51.25,learn,8750.0,Thu May 29 2025 12:13:30 GMT-0500 (Central Daylight Time),424692.8000000119,A,sug,I,g,209,2,5098.300000011921,419594.5,8024,WL,C,11.0
3,51.43300008773804,learn,8566.999912261963,Thu May 29 2025 12:13:30 GMT-0500 (Central Daylight Time),424876.09999999404,A,suga,I,a,177,2,5281.5999999940395,419594.5,8024,WL,C,11.0
3,51.73300004005432,learn,8266.999959945679,Thu May 29 2025 12:13:30 GMT-0500 (Central Daylight Time),425175.8000000119,A,sugar,I,r,289,2,5581.300000011921,419594.5,8024,WL,C,11.0
3,52.16599988937378,learn,7834.000110626221,Thu May 29 2025 12:13:30 GMT-0500 (Central Daylight Time),425609.09999999404,A,sugarenter,I,enter,414,2,6014.5999999940395,419594.5,8024,WL,C,11.0
3,60.01300001144409,learn,-13.000011444091797,Thu May 29 2025 12:13:30 GMT-0500 (Central Daylight Time),433456.5,A,None,I,None,7842,2,7847.0,425609.5,8024,WL,C,12.0
4,0.6319999694824219,learn,59368.00003051758,Thu May 29 2025 12:13:30 GMT-0500 (Central Daylight Time),500902.3000000119,A,t,I,t,624,2,632.1000000238419,500270.1999999881,8024,WL,C,1.0
4,0.815000057220459,learn,59184.99994277954,Thu May 29 2025 12:13:30 GMT-0500 (Central Daylight Time),501085.40000000596,A,to,I,o,175,2,815.2000000178814,500270.1999999881,8024,WL,C,1.0
4,1.3320000171661377,learn,58667.99998283386,Thu May 29 2025 12:13:30 GMT-0500 (Central Daylight Time),501601.8000000119,A,tow,I,w,496,2,1331.6000000238419,500270.1999999881,8024,WL,C,1.0
4,1.5980000495910645,learn,58401.999950408936,Thu May 29 2025 12:13:30 GMT-0500 (Central Daylight Time),501868.5,A,towe,I,e,252,2,1598.300000011921,500270.1999999881,8024,WL,C,1.0
4,1.8819999694824219,learn,58118.00003051758,Thu May 29 2025 12:13:30 GMT-0500 (Central Daylight Time),502151.8000000119,A,tower,I,r,273,2,1881.6000000238419,500270.1999999881,8024,WL,C,1.0
4,2.315000057220459,learn,57684.99994277954,Thu May 29 2025 12:13:30 GMT-0500 (Central Daylight Time),502584.8000000119,A,towerenter,I,enter,414,2,2314.600000023842,500270.1999999881,8024,WL,C,1.0
4,2.747999906539917,learn,57252.00009346008,Thu May 29 2025 12:13:30 GMT-0500 (Central Daylight Time),503018.09999999404,A,w,I,w,413,2,433.0,502585.09999999404,8024,WL,C,2.0
4,3.13100004196167,learn,56868.99995803833,Thu May 29 2025 12:13:30 GMT-0500 (Central Daylight Time),503401.3000000119,A,wh,I,h,371,2,816.2000000178814,502585.09999999404,8024,WL,C,2.0
4,3.38100004196167,learn,56618.99995803833,Thu May 29 2025 12:13:30 GMT-0500 (Central Daylight Time),503651.1999999881,A,whe,I,e,236,2,1066.0999999940395,502585.09999999404,8024,WL,C,2.0
4,3.697999954223633,learn,56302.00004577637,Thu May 29 2025 12:13:30 GMT-0500 (Central Daylight Time),503967.8000000119,A,whea,I,a,298,2,1382.7000000178814,502585.09999999404,8024,WL,C,2.0
4,4.296999931335449,learn,55703.00006866455,Thu May 29 2025 12:13:30 GMT-0500 (Central Daylight Time),504567.5,A,wheat,I,t,581,2,1982.4000000059605,502585.09999999404,8024,WL,C,2.0
4,4.664000034332275,learn,55335.999965667725,Thu May 29 2025 12:13:30 GMT-0500 (Central Daylight Time),504934.09999999404,A,wheatenter,I,enter,350,2,2349.0,502585.09999999404,8024,WL,C,2.0
4,6.013000011444092,learn,53986.99998855591,Thu May 29 2025 12:13:30 GMT-0500 (Central Daylight Time),506283.59999999404,A,q,I,q,1335,2,1349.0999999940395,504934.5,8024,WL,C,3.0
4,6.430000066757202,learn,53569.9999332428,Thu May 29 2025 12:13:30 GMT-0500 (Central Daylight Time),506700.1999999881,A,qu,I,u,402,2,1765.699999988079,504934.5,8024,WL,C,3.0
4,6.630000114440918,learn,53369.99988555908,Thu May 29 2025 12:13:30 GMT-0500 (Central Daylight Time),506900.09999999404,A,que,I,e,193,2,1965.5999999940395,504934.5,8024,WL,C,3.0
4,6.829999923706055,learn,53170.000076293945,Thu May 29 2025 12:13:30 GMT-0500 (Central Daylight Time),507100.09999999404,A,quee,I,e,193,2,2165.5999999940395,504934.5,8024,WL,C,3.0
4,7.062999963760376,learn,52937.000036239624,Thu May 29 2025 12:13:30 GMT-0500 (Central Daylight Time),507333.3000000119,A,queen,I,n,225,2,2398.800000011921,504934.5,8024,WL,C,3.0
4,8.246000051498413,learn,51753.99994850159,Thu May 29 2025 12:13:30 GMT-0500 (Central Daylight Time),508516.40000000596,A,queenenter,I,enter,1168,2,3581.9000000059605,504934.5,8024,WL,C,3.0
4,10.712000131607056,learn,49287.999868392944,Thu May 29 2025 12:13:30 GMT-0500 (Central Daylight Time),510982.1999999881,A,s,I,s,2457,2,2465.5,508516.6999999881,8024,WL,C,4.0
4,10.977999925613403,learn,49022.0000743866,Thu May 29 2025 12:13:30 GMT-0500 (Central Daylight Time),511248.6999999881,A,su,I,u,246,2,2732.0,508516.6999999881,8024,WL,C,4.0
4,11.245000123977661,learn,48754.99987602234,Thu May 29 2025 12:13:30 GMT-0500 (Central Daylight Time),511515.5,A,sug,I,g,261,2,2998.800000011921,508516.6999999881,8024,WL,C,4.0
4,11.495000123977661,learn,48504.99987602234,Thu May 29 2025 12:13:30 GMT-0500 (Central Daylight Time),511765.5,A,suga,I,a,242,2,3248.800000011921,508516.6999999881,8024,WL,C,4.0
4,11.778000116348267,learn,48221.99988365173,Thu May 29 2025 12:13:30 GMT-0500 (Central Daylight Time),512048.6999999881,A,sugar,I,r,272,2,3532.0,508516.6999999881,8024,WL,C,4.0
4,12.212000131607056,learn,47787.999868392944,Thu May 29 2025 12:13:30 GMT-0500 (Central Daylight Time),512482.0,A,sugarenter,I,enter,429,2,3965.300000011921,508516.6999999881,8024,WL,C,4.0
4,12.611999988555908,learn,47388.00001144409,Thu May 29 2025 12:13:30 GMT-0500 (Central Daylight Time),512881.90000000596,A,d,I,d,387,2,399.59999999403954,512482.3000000119,8024,WL,C,5.0
4,12.944000005722046,learn,47055.999994277954,Thu May 29 2025 12:13:30 GMT-0500 (Central Daylight Time),513214.6999999881,A,do,I,o,324,2,732.3999999761581,512482.3000000119,8024,WL,C,5.0
4,13.260999917984009,learn,46739.00008201599,Thu May 29 2025 12:13:30 GMT-0500 (Central Daylight Time),513531.5,A,doc,I,c,311,2,1049.199999988079,512482.3000000119,8024,WL,C,5.0
4,13.57800006866455,learn,46421.99993133545,Thu May 29 2025 12:13:30 GMT-0500 (Central Daylight Time),513847.90000000596,A,doct,I,t,306,2,1365.5999999940395,512482.3000000119,8024,WL,C,5.0
4,13.811000108718872,learn,46188.99989128113,Thu May 29 2025 12:13:30 GMT-0500 (Central Daylight Time),514081.1999999881,A,docto,I,o,222,2,1598.8999999761581,512482.3000000119,8024,WL,C,5.0
4,14.010999917984009,learn,45989.00008201599,Thu May 29 2025 12:13:30 GMT-0500 (Central Daylight Time),514281.09999999404,A,doctor,I,r,179,2,1798.7999999821186,512482.3000000119,8024,WL,C,5.0
4,14.394000053405762,learn,45605.99994659424,Thu May 29 2025 12:13:30 GMT-0500 (Central Daylight Time),514664.3000000119,A,doctorenter,I,enter,364,2,2182.0,512482.3000000119,8024,WL,C,5.0
4,14.976999998092651,learn,45023.00000190735,Thu May 29 2025 12:13:30 GMT-0500 (Central Daylight Time),515247.8000000119,A,f,I,f,565,2,583.3000000119209,514664.5,8024,WL,C,6.0
4,15.293999910354614,learn,44706.000089645386,Thu May 29 2025 12:13:30 GMT-0500 (Central Daylight Time),515564.09999999404,A,fl,I,l,302,2,899.5999999940395,514664.5,8024,WL,C,6.0
4,15.476999998092651,learn,44523.00000190735,Thu May 29 2025 12:13:30 GMT-0500 (Central Daylight Time),515747.40000000596,A,fla,I,a,177,2,1082.9000000059605,514664.5,8024,WL,C,6.0
4,15.710000038146973,learn,44289.99996185303,Thu May 29 2025 12:13:30 GMT-0500 (Central Daylight Time),515980.59999999404,A,flag,I,g,226,2,1316.0999999940395,514664.5,8024,WL,C,6.0
4,16.07699990272522,learn,43923.00009727478,Thu May 29 2025 12:13:30 GMT-0500 (Central Daylight Time),516346.90000000596,A,flagenter,I,enter,361,2,1682.4000000059605,514664.5,8024,WL,C,6.0
4,16.89300012588501,learn,43106.99987411499,Thu May 29 2025 12:13:30 GMT-0500 (Central Daylight Time),517163.8000000119,A,h,I,h,811,2,816.7000000178814,516347.09999999404,8024,WL,C,7.0
4,17.325999975204468,learn,42674.00002479553,Thu May 29 2025 12:13:30 GMT-0500 (Central Daylight Time),517596.6999999881,A,ho,I,o,426,2,1249.5999999940395,516347.09999999404,8024,WL,C,7.0
4,17.64300012588501,learn,42356.99987411499,Thu May 29 2025 12:13:30 GMT-0500 (Central Daylight Time),517913.59999999404,A,hom,I,m,297,2,1566.5,516347.09999999404,8024,WL,C,7.0
4,17.89300012588501,learn,42106.99987411499,Thu May 29 2025 12:13:30 GMT-0500 (Central Daylight Time),518163.5,A,home,I,e,243,2,1816.4000000059605,516347.09999999404,8024,WL,C,7.0
4,18.243000030517578,learn,41756.99996948242,Thu May 29 2025 12:13:30 GMT-0500 (Central Daylight Time),518513.3000000119,A,homeenter,I,enter,330,2,2166.2000000178814,516347.09999999404,8024,WL,C,7.0
4,19.009000062942505,learn,40990.999937057495,Thu May 29 2025 12:13:30 GMT-0500 (Central Daylight Time),519279.6999999881,A,b,I,b,748,2,766.0999999940395,518513.59999999404,8024,WL,C,8.0
4,19.325999975204468,learn,40674.00002479553,Thu May 29 2025 12:13:30 GMT-0500 (Central Daylight Time),519596.1999999881,A,bo,I,o,310,2,1082.5999999940395,518513.59999999404,8024,WL,C,8.0
4,19.676000118255615,learn,40323.999881744385,Thu May 29 2025 12:13:30 GMT-0500 (Central Daylight Time),519946.09999999404,A,boy,I,y,338,2,1432.5,518513.59999999404,8024,WL,C,8.0
4,20.108999967575073,learn,39891.00003242493,Thu May 29 2025 12:13:30 GMT-0500 (Central Daylight Time),520379.40000000596,A,boyenter,I,enter,428,2,1865.800000011921,518513.59999999404,8024,WL,C,8.0
4,26.473999977111816,learn,33526.00002288818,Thu May 29 2025 12:13:30 GMT-0500 (Central Daylight Time),526743.900000006,A,c,I,c,6346,2,6364.0999999940395,520379.8000000119,8024,WL,C,9.0
4,26.740000009536743,learn,33259.99999046326,Thu May 29 2025 12:13:30 GMT-0500 (Central Daylight Time),527010.400000006,A,co,I,o,261,2,6630.5999999940395,520379.8000000119,8024,WL,C,9.0
4,26.990000009536743,learn,33009.99999046326,Thu May 29 2025 12:13:30 GMT-0500 (Central Daylight Time),527260.5,A,cor,I,r,235,2,6880.699999988079,520379.8000000119,8024,WL,C,9.0
4,27.289999961853027,learn,32710.000038146973,Thu May 29 2025 12:13:30 GMT-0500 (Central Daylight Time),527560.400000006,A,corn,I,n,281,2,7180.5999999940395,520379.8000000119,8024,WL,C,9.0
4,27.706000089645386,learn,32293.999910354614,Thu May 29 2025 12:13:30 GMT-0500 (Central Daylight Time),527976.6999999881,A,cornenter,I,enter,405,2,7596.899999976158,520379.8000000119,8024,WL,C,9.0
4,28.35599994659424,learn,31644.00005340576,Thu May 29 2025 12:13:30 GMT-0500 (Central Daylight Time),528626.6999999881,A,d,I,d,637,2,649.5999999940395,527977.099999994,8024,WL,C,10.0
4,28.58999991416931,learn,31410.00008583069,Thu May 29 2025 12:13:30 GMT-0500 (Central Daylight Time),528860.0,A,do,I,o,226,2,882.9000000059605,527977.099999994,8024,WL,C,10.0
4,29.33999991416931,learn,30660.00008583069,Thu May 29 2025 12:13:30 GMT-0500 (Central Daylight Time),529609.900000006,A,doc,I,c,730,2,1632.800000011921,527977.099999994,8024,WL,C,10.0
4,29.67300009727478,learn,30326.99990272522,Thu May 29 2025 12:13:30 GMT-0500 (Central Daylight Time),529942.8000000119,A,doct,I,t,322,2,1965.7000000178814,527977.099999994,8024,WL,C,10.0
4,29.92300009727478,learn,30076.99990272522,Thu May 29 2025 12:13:30 GMT-0500 (Central Daylight Time),530192.8000000119,A,docto,I,o,230,2,2215.7000000178814,527977.099999994,8024,WL,C,10.0
4,30.155999898910522,learn,29844.000101089478,Thu May 29 2025 12:13:30 GMT-0500 (Central Daylight Time),530426.1999999881,A,doctor,I,r,221,2,2449.0999999940395,527977.099999994,8024,WL,C,10.0
4,30.555999994277954,learn,29444.000005722046,Thu May 29 2025 12:13:30 GMT-0500 (Central Daylight Time),530826.1999999881,A,doctorenter,I,enter,395,2,2849.0999999940395,527977.099999994,8024,WL,C,10.0
4,31.638999938964844,learn,28361.000061035156,Thu May 29 2025 12:13:30 GMT-0500 (Central Daylight Time),531908.900000006,A,a,I,a,1068,2,1082.5,530826.400000006,8024,WL,C,11.0
4,32.38800001144409,learn,27611.99998855591,Thu May 29 2025 12:13:30 GMT-0500 (Central Daylight Time),532658.6999999881,A,,I,backspace,737,2,1832.2999999821186,530826.400000006,8024,WL,C,11.0
4,32.605000019073486,learn,27394.999980926514,Thu May 29 2025 12:13:30 GMT-0500 (Central Daylight Time),532875.400000006,A,c,I,c,203,2,2049.0,530826.400000006,8024,WL,C,11.0
4,32.82200002670288,learn,27177.99997329712,Thu May 29 2025 12:13:30 GMT-0500 (Central Daylight Time),533092.0,A,ca,I,a,201,2,2265.5999999940395,530826.400000006,8024,WL,C,11.0
4,33.25500011444092,learn,26744.999885559082,Thu May 29 2025 12:13:30 GMT-0500 (Central Daylight Time),533525.3000000119,A,cat,I,t,418,2,2698.9000000059605,530826.400000006,8024,WL,C,11.0
4,33.454999923706055,learn,26545.000076293945,Thu May 29 2025 12:13:30 GMT-0500 (Central Daylight Time),533724.900000006,A,catt,I,t,184,2,2898.5,530826.400000006,8024,WL,C,11.0
4,33.704999923706055,learn,26295.000076293945,Thu May 29 2025 12:13:30 GMT-0500 (Central Daylight Time),533975.0,A,cattl,I,l,233,2,3148.5999999940395,530826.400000006,8024,WL,C,11.0
4,33.855000019073486,learn,26144.999980926514,Thu May 29 2025 12:13:30 GMT-0500 (Central Daylight Time),534124.900000006,A,cattle,I,e,143,2,3298.5,530826.400000006,8024,WL,C,11.0
4,34.2039999961853,learn,25796.000003814697,Thu May 29 2025 12:13:30 GMT-0500 (Central Daylight Time),534474.599999994,A,cattleenter,I,enter,345,2,3648.199999988079,530826.400000006,8024,WL,C,11.0
4,34.687999963760376,learn,25312.000036239624,Thu May 29 2025 12:13:30 GMT-0500 (Central Daylight Time),534958.0,A,n,I,n,475,2,483.09999999403954,534474.900000006,8024,WL,C,12.0
4,34.88800001144409,learn,25111.99998855591,Thu May 29 2025 12:13:30 GMT-0500 (Central Daylight Time),535158.099999994,A,na,I,a,192,2,683.1999999880791,534474.900000006,8024,WL,C,12.0
4,35.1710000038147,learn,24828.999996185303,Thu May 29 2025 12:13:30 GMT-0500 (Central Daylight Time),535441.1999999881,A,nai,I,i,263,2,966.2999999821186,534474.900000006,8024,WL,C,12.0
4,35.48699998855591,learn,24513.00001144409,Thu May 29 2025 12:13:30 GMT-0500 (Central Daylight Time),535757.8000000119,A,nail,I,l,300,2,1282.9000000059605,534474.900000006,8024,WL,C,12.0
4,35.98699998855591,learn,24013.00001144409,Thu May 29 2025 12:13:30 GMT-0500 (Central Daylight Time),536257.6999999881,A,nailenter,I,enter,488,2,1782.7999999821186,534474.900000006,8024,WL,C,12.0
4,40.068000078201294,learn,19931.999921798706,Thu May 29 2025 12:13:30 GMT-0500 (Central Daylight Time),540339.6999999881,A,s,I,s,4068,2,4081.699999988079,536258.0,8024,WL,C,13.0
4,40.30200004577637,learn,19697.999954223633,Thu May 29 2025 12:13:30 GMT-0500 (Central Daylight Time),540573.099999994,A,su,I,u,217,2,4315.0999999940395,536258.0,8024,WL,C,13.0
4,40.551000118255615,learn,19448.999881744385,Thu May 29 2025 12:13:30 GMT-0500 (Central Daylight Time),540822.599999994,A,sug,I,g,241,2,4564.5999999940395,536258.0,8024,WL,C,13.0
4,40.71799993515015,learn,19282.000064849854,Thu May 29 2025 12:13:30 GMT-0500 (Central Daylight Time),540989.5,A,suga,I,a,159,2,4731.5,536258.0,8024,WL,C,13.0
4,41.051000118255615,learn,18948.999881744385,Thu May 29 2025 12:13:30 GMT-0500 (Central Daylight Time),541322.400000006,A,sugar,I,r,328,2,5064.4000000059605,536258.0,8024,WL,C,13.0
4,41.51800012588501,learn,18481.99987411499,Thu May 29 2025 12:13:30 GMT-0500 (Central Daylight Time),541789.3000000119,A,sugarenter,I,enter,458,2,5531.300000011921,536258.0,8024,WL,C,13.0
4,54.31400012969971,learn,5685.999870300293,Thu May 29 2025 12:13:30 GMT-0500 (Central Daylight Time),554585.3000000119,A,c,I,c,12776,2,12795.700000017881,541789.599999994,8024,WL,C,14.0
4,54.480000019073486,learn,5519.999980926514,Thu May 29 2025 12:13:30 GMT-0500 (Central Daylight Time),554751.8000000119,A,ca,I,a,156,2,12962.200000017881,541789.599999994,8024,WL,C,14.0
4,54.73099994659424,learn,5269.000053405762,Thu May 29 2025 12:13:30 GMT-0500 (Central Daylight Time),555002.0,A,cam,I,m,244,2,13212.40000000596,541789.599999994,8024,WL,C,14.0
4,55.13000011444092,learn,4869.999885559082,Thu May 29 2025 12:13:30 GMT-0500 (Central Daylight Time),555401.8000000119,A,camp,I,p,387,2,13612.200000017881,541789.599999994,8024,WL,C,14.0
4,55.63000011444092,learn,4369.999885559082,Thu May 29 2025 12:13:30 GMT-0500 (Central Daylight Time),555901.5,A,campenter,I,enter,484,2,14111.90000000596,541789.599999994,8024,WL,C,14.0
4,60.01200008392334,learn,-12.000083923339844,Thu May 29 2025 12:13:30 GMT-0500 (Central Daylight Time),560283.400000006,A,None,I,None,4377,2,4381.5999999940395,555901.8000000119,8024,WL,C,15.0
5,0.7339999675750732,learn,60000.0,Thu May 29 2025 12:13:30 GMT-0500 (Central Daylight Time),628462.3000000119,A,t,I,t,716,2,733.4000000059605,627728.900000006,8024,WL,C,1.0
5,0.9499998092651367,learn,60000.0,Thu May 29 2025 12:13:30 GMT-0500 (Central Daylight Time),628678.8000000119,A,to,I,o,199,2,949.9000000059605,627728.900000006,8024,WL,C,1.0
5,1.2669999599456787,learn,60000.0,Thu May 29 2025 12:13:30 GMT-0500 (Central Daylight Time),628995.099999994,A,tow,I,w,311,2,1266.199999988079,627728.900000006,8024,WL,C,1.0
5,1.5,learn,60000.0,Thu May 29 2025 12:13:30 GMT-0500 (Central Daylight Time),629228.5,A,towe,I,e,226,2,1499.5999999940395,627728.900000006,8024,WL,C,1.0
5,1.7999999523162842,learn,60000.0,Thu May 29 2025 12:13:30 GMT-0500 (Central Daylight Time),629528.3000000119,A,tower,I,r,289,2,1799.4000000059605,627728.900000006,8024,WL,C,1.0
5,2.4499998092651367,learn,60000.0,Thu May 29 2025 12:13:30 GMT-0500 (Central Daylight Time),630178.099999994,A,towerenter,I,enter,637,2,2449.199999988079,627728.900000006,8024,WL,C,1.0
5,3.7829999923706055,learn,60000.0,Thu May 29 2025 12:13:30 GMT-0500 (Central Daylight Time),631511.0,A,w,I,w,1323,2,1332.699999988079,630178.3000000119,8024,WL,C,2.0
5,4.115999937057495,learn,60000.0,Thu May 29 2025 12:13:30 GMT-0500 (Central Daylight Time),631844.099999994,A,wh,I,h,318,2,1665.7999999821186,630178.3000000119,8024,WL,C,2.0
5,4.381999969482422,learn,60000.0,Thu May 29 2025 12:13:30 GMT-0500 (Central Daylight Time),632111.0,A,whe,I,e,257,2,1932.699999988079,630178.3000000119,8024,WL,C,2.0
5,4.631999969482422,learn,60000.0,Thu May 29 2025 12:13:30 GMT-0500 (Central Daylight Time),632360.8000000119,A,whea,I,a,230,2,2182.5,630178.3000000119,8024,WL,C,2.0
5,4.915999889373779,learn,60000.0,Thu May 29 2025 12:13:30 GMT-0500 (Central Daylight Time),632644.1999999881,A,wheat,I,t,269,2,2465.899999976158,630178.3000000119,8024,WL,C,2.0
5,5.381999969482422,learn,60000.0,Thu May 29 2025 12:13:30 GMT-0500 (Central Daylight Time),633110.8000000119,A,wheatenter,I,enter,457,2,2932.5,630178.3000000119,8024,WL,C,2.0
5,7.430999994277954,learn,60000.0,Thu May 29 2025 12:13:30 GMT-0500 (Central Daylight Time),635159.900000006,A,q,I,q,2031,2,2048.800000011921,633111.099999994,8024,WL,C,3.0
5,7.7809998989105225,learn,60000.0,Thu May 29 2025 12:13:30 GMT-0500 (Central Daylight Time),635509.8000000119,A,qu,I,u,333,2,2398.7000000178814,633111.099999994,8024,WL,C,3.0
5,8.013999938964844,learn,60000.0,Thu May 29 2025 12:13:30 GMT-0500 (Central Daylight Time),635743.0,A,que,I,e,222,2,2631.9000000059605,633111.099999994,8024,WL,C,3.0
5,8.247999906539917,learn,60000.0,Thu May 29 2025 12:13:30 GMT-0500 (Central Daylight Time),635976.400000006,A,quee,I,e,222,2,2865.300000011921,633111.099999994,8024,WL,C,3.0
5,8.563999891281128,learn,60000.0,Thu May 29 2025 12:13:30 GMT-0500 (Central Daylight Time),636292.900000006,A,queen,I,n,301,2,3181.800000011921,633111.099999994,8024,WL,C,3.0
5,9.447999954223633,learn,60000.0,Thu May 29 2025 12:13:30 GMT-0500 (Central Daylight Time),637176.099999994,A,queenenter,I,enter,865,2,4065.0,633111.099999994,8024,WL,C,3.0
5,12.745999813079834,learn,60000.0,Thu May 29 2025 12:13:30 GMT-0500 (Central Daylight Time),640474.900000006,A,s,I,s,3285,2,3298.4000000059605,637176.5,8024,WL,C,4.0
5,13.079999923706055,learn,60000.0,Thu May 29 2025 12:13:30 GMT-0500 (Central Daylight Time),640808.099999994,A,su,I,u,322,2,3631.5999999940395,637176.5,8024,WL,C,4.0
5,13.346999883651733,learn,60000.0,Thu May 29 2025 12:13:30 GMT-0500 (Central Daylight Time),641075.6999999881,A,sug,I,g,261,2,3899.199999988079,637176.5,8024,WL,C,4.0
5,13.72599983215332,learn,60000.0,Thu May 29 2025 12:13:30 GMT-0500 (Central Daylight Time),641454.8000000119,A,suga,I,a,234,2,4278.300000011921,637176.5,8024,WL,C,4.0
5,13.928999900817871,learn,60000.0,Thu May 29 2025 12:13:30 GMT-0500 (Central Daylight Time),641657.900000006,A,sugar,I,r,181,2,4481.4000000059605,637176.5,8024,WL,C,4.0
5,14.495999813079834,learn,60000.0,Thu May 29 2025 12:13:30 GMT-0500 (Central Daylight Time),642224.400000006,A,sugarenter,I,enter,546,2,5047.9000000059605,637176.5,8024,WL,C,4.0
5,15.178999900817871,learn,60000.0,Thu May 29 2025 12:13:30 GMT-0500 (Central Daylight Time),642907.5,A,l,I,l,677,2,682.9000000059605,642224.599999994,8024,WL,C,5.0
5,15.361999988555908,learn,60000.0,Thu May 29 2025 12:13:30 GMT-0500 (Central Daylight Time),643090.5,A,le,I,e,177,2,865.9000000059605,642224.599999994,8024,WL,C,5.0
5,15.645999908447266,learn,60000.0,Thu May 29 2025 12:13:30 GMT-0500 (Central Daylight Time),643374.0,A,let,I,t,275,2,1149.4000000059605,642224.599999994,8024,WL,C,5.0
5,15.911999940872192,learn,60000.0,Thu May 29 2025 12:13:30 GMT-0500 (Central Daylight Time),643640.599999994,A,lett,I,t,247,2,1416.0,642224.599999994,8024,WL,C,5.0
5,16.179999828338623,learn,60000.0,Thu May 29 2025 12:13:30 GMT-0500 (Central Daylight Time),643908.099999994,A,lette,I,e,261,2,1683.5,642224.599999994,8024,WL,C,5.0
5,16.444999933242798,learn,60000.0,Thu May 29 2025 12:13:30 GMT-0500 (Central Daylight Time),644173.599999994,A,letter,I,r,248,2,1949.0,642224.599999994,8024,WL,C,5.0
5,16.87999987602234,learn,60000.0,Thu May 29 2025 12:13:30 GMT-0500 (Central Daylight Time),644608.099999994,A,letterenter,I,enter,424,2,2383.5,642224.599999994,8024,WL,C,5.0
5,17.294999837875366,learn,60000.0,Thu May 29 2025 12:13:30 GMT-0500 (Central Daylight Time),645023.599999994,A,d,I,d,396,2,415.19999998807907,644608.400000006,8024,WL,C,6.0
5,17.562000036239624,learn,60000.0,Thu May 29 2025 12:13:30 GMT-0500 (Central Daylight Time),645289.900000006,A,do,I,o,254,2,681.5,644608.400000006,8024,WL,C,6.0
5,17.92799997329712,learn,60000.0,Thu May 29 2025 12:13:30 GMT-0500 (Central Daylight Time),645656.8000000119,A,doc,I,c,354,2,1048.4000000059605,644608.400000006,8024,WL,C,6.0
5,18.244999885559082,learn,60000.0,Thu May 29 2025 12:13:30 GMT-0500 (Central Daylight Time),645973.099999994,A,doct,I,t,309,2,1364.699999988079,644608.400000006,8024,WL,C,6.0
5,18.494999885559082,learn,60000.0,Thu May 29 2025 12:13:30 GMT-0500 (Central Daylight Time),646223.099999994,A,docto,I,o,240,2,1614.699999988079,644608.400000006,8024,WL,C,6.0
5,18.710999965667725,learn,60000.0,Thu May 29 2025 12:13:30 GMT-0500 (Central Daylight Time),646439.599999994,A,doctor,I,r,197,2,1831.199999988079,644608.400000006,8024,WL,C,6.0
5,19.110999822616577,learn,60000.0,Thu May 29 2025 12:13:30 GMT-0500 (Central Daylight Time),646839.3000000119,A,doctorenter,I,enter,390,2,2230.9000000059605,644608.400000006,8024,WL,C,6.0
5,19.694000005722046,learn,60000.0,Thu May 29 2025 12:13:30 GMT-0500 (Central Daylight Time),647422.5,A,b,I,b,567,2,582.9000000059605,646839.599999994,8024,WL,C,7.0
5,20.376999855041504,learn,60000.0,Thu May 29 2025 12:13:30 GMT-0500 (Central Daylight Time),648105.8000000119,A,bo,I,o,671,2,1266.2000000178814,646839.599999994,8024,WL,C,7.0
5,20.76099991798401,learn,60000.0,Thu May 29 2025 12:13:30 GMT-0500 (Central Daylight Time),648489.099999994,A,boy,I,y,372,2,1649.5,646839.599999994,8024,WL,C,7.0
5,21.259999990463257,learn,60000.0,Thu May 29 2025 12:13:30 GMT-0500 (Central Daylight Time),648988.8000000119,A,boyenter,I,enter,483,2,2149.2000000178814,646839.599999994,8024,WL,C,7.0
5,21.926999807357788,learn,60000.0,Thu May 29 2025 12:13:30 GMT-0500 (Central Daylight Time),649655.5,A,c,I,c,657,2,666.1999999880791,648989.3000000119,8024,WL,C,8.0
5,22.14299988746643,learn,60000.0,Thu May 29 2025 12:13:30 GMT-0500 (Central Daylight Time),649871.6999999881,A,ca,I,a,198,2,882.3999999761581,648989.3000000119,8024,WL,C,8.0
5,22.376999855041504,learn,60000.0,Thu May 29 2025 12:13:30 GMT-0500 (Central Daylight Time),650105.1999999881,A,cam,I,m,222,2,1115.8999999761581,648989.3000000119,8024,WL,C,8.0
5,22.97599983215332,learn,60000.0,Thu May 29 2025 12:13:30 GMT-0500 (Central Daylight Time),650704.900000006,A,camp,I,p,588,2,1715.5999999940395,648989.3000000119,8024,WL,C,8.0
5,23.442999839782715,learn,60000.0,Thu May 29 2025 12:13:30 GMT-0500 (Central Daylight Time),651171.5,A,campenter,I,enter,452,2,2182.199999988079,648989.3000000119,8024,WL,C,8.0
5,24.042999982833862,learn,60000.0,Thu May 29 2025 12:13:30 GMT-0500 (Central Daylight Time),651771.099999994,A,c,I,c,594,2,599.2999999821186,651171.8000000119,8024,WL,C,9.0
5,24.375999927520752,learn,60000.0,Thu May 29 2025 12:13:30 GMT-0500 (Central Daylight Time),652104.599999994,A,co,I,o,314,2,932.7999999821186,651171.8000000119,8024,WL,C,9.0
5,24.625999927520752,learn,60000.0,Thu May 29 2025 12:13:30 GMT-0500 (Central Daylight Time),652354.400000006,A,cor,I,r,237,2,1182.5999999940395,651171.8000000119,8024,WL,C,9.0
5,24.95899987220764,learn,60000.0,Thu May 29 2025 12:13:30 GMT-0500 (Central Daylight Time),652687.8000000119,A,corn,I,n,315,2,1516.0,651171.8000000119,8024,WL,C,9.0
5,25.408999919891357,learn,60000.0,Thu May 29 2025 12:13:30 GMT-0500 (Central Daylight Time),653137.8000000119,A,cornenter,I,enter,445,2,1966.0,651171.8000000119,8024,WL,C,9.0
5,25.858999967575073,learn,60000.0,Thu May 29 2025 12:13:30 GMT-0500 (Central Daylight Time),653587.5,A,c,I,c,434,2,449.40000000596046,653138.099999994,8024,WL,C,10.0
5,26.026000022888184,learn,60000.0,Thu May 29 2025 12:13:30 GMT-0500 (Central Daylight Time),653754.099999994,A,ca,I,a,162,2,616.0,653138.099999994,8024,WL,C,10.0
5,26.39199995994568,learn,60000.0,Thu May 29 2025 12:13:30 GMT-0500 (Central Daylight Time),654120.8000000119,A,cat,I,t,355,2,982.7000000178814,653138.099999994,8024,WL,C,10.0
5,26.592000007629395,learn,60000.0,Thu May 29 2025 12:13:30 GMT-0500 (Central Daylight Time),654320.5,A,catt,I,t,189,2,1182.4000000059605,653138.099999994,8024,WL,C,10.0
5,26.842000007629395,learn,60000.0,Thu May 29 2025 12:13:30 GMT-0500 (Central Daylight Time),654570.6999999881,A,cattl,I,l,237,2,1432.5999999940395,653138.099999994,8024,WL,C,10.0
5,27.024999856948853,learn,60000.0,Thu May 29 2025 12:13:30 GMT-0500 (Central Daylight Time),654753.900000006,A,cattle,I,e,179,2,1615.800000011921,653138.099999994,8024,WL,C,10.0
5,27.407999992370605,learn,60000.0,Thu May 29 2025 12:13:30 GMT-0500 (Central Daylight Time),655136.900000006,A,cattleenter,I,enter,372,2,1998.800000011921,653138.099999994,8024,WL,C,10.0
5,30.2739999294281,learn,60000.0,Thu May 29 2025 12:13:30 GMT-0500 (Central Daylight Time),658002.400000006,A,f,I,f,2852,2,2865.0999999940395,655137.3000000119,8024,WL,C,11.0
5,30.622999906539917,learn,60000.0,Thu May 29 2025 12:13:30 GMT-0500 (Central Daylight Time),658352.6999999881,A,fl,I,l,331,2,3215.399999976158,655137.3000000119,8024,WL,C,11.0
5,30.789999961853027,learn,60000.0,Thu May 29 2025 12:13:30 GMT-0500 (Central Daylight Time),658519.400000006,A,fla,I,a,157,2,3382.0999999940395,655137.3000000119,8024,WL,C,11.0
5,31.00600004196167,learn,60000.0,Thu May 29 2025 12:13:30 GMT-0500 (Central Daylight Time),658735.8000000119,A,flag,I,g,206,2,3598.5,655137.3000000119,8024,WL,C,11.0
5,31.4229998588562,learn,60000.0,Thu May 29 2025 12:13:30 GMT-0500 (Central Daylight Time),659152.400000006,A,flagenter,I,enter,398,2,4015.0999999940395,655137.3000000119,8024,WL,C,11.0
5,34.937999963760376,learn,60000.0,Thu May 29 2025 12:13:30 GMT-0500 (Central Daylight Time),662667.900000006,A,b,I,b,3501,2,3515.2000000178814,659152.6999999881,8024,WL,C,12.0
5,35.355000019073486,learn,60000.0,Thu May 29 2025 12:13:30 GMT-0500 (Central Daylight Time),663084.3000000119,A,bo,I,o,401,2,3931.600000023842,659152.6999999881,8024,WL,C,12.0
5,35.55499982833862,learn,60000.0,Thu May 29 2025 12:13:30 GMT-0500 (Central Daylight Time),663284.1999999881,A,bod,I,d,193,2,4131.5,659152.6999999881,8024,WL,C,12.0
5,36.07099986076355,learn,60000.0,Thu May 29 2025 12:13:30 GMT-0500 (Central Daylight Time),663800.900000006,A,body,I,y,496,2,4648.200000017881,659152.6999999881,8024,WL,C,12.0
5,36.537999868392944,learn,60000.0,Thu May 29 2025 12:13:30 GMT-0500 (Central Daylight Time),664267.400000006,A,bodyenter,I,enter,461,2,5114.700000017881,659152.6999999881,8024,WL,C,12.0
5,36.90400004386902,learn,60000.0,Thu May 29 2025 12:13:30 GMT-0500 (Central Daylight Time),664633.900000006,A,s,I,s,346,2,366.09999999403954,664267.8000000119,8024,WL,C,13.0
5,37.28399991989136,learn,60000.0,Thu May 29 2025 12:13:30 GMT-0500 (Central Daylight Time),665013.900000006,A,sh,I,h,236,2,746.0999999940395,664267.8000000119,8024,WL,C,13.0
5,37.431999921798706,learn,60000.0,Thu May 29 2025 12:13:30 GMT-0500 (Central Daylight Time),665161.099999994,A,sho,I,o,142,2,893.2999999821186,664267.8000000119,8024,WL,C,13.0
5,37.63699984550476,learn,60000.0,Thu May 29 2025 12:13:30 GMT-0500 (Central Daylight Time),665367.0,A,shor,I,r,196,2,1099.199999988079,664267.8000000119,8024,WL,C,13.0
5,37.90400004386902,learn,60000.0,Thu May 29 2025 12:13:30 GMT-0500 (Central Daylight Time),665633.5,A,shore,I,e,246,2,1365.699999988079,664267.8000000119,8024,WL,C,13.0
5,38.30399990081787,learn,60000.0,Thu May 29 2025 12:13:30 GMT-0500 (Central Daylight Time),666033.8000000119,A,shoreenter,I,enter,388,2,1766.0,664267.8000000119,8024,WL,C,13.0
5,41.38599991798401,learn,60000.0,Thu May 29 2025 12:13:30 GMT-0500 (Central Daylight Time),669115.8000000119,A,n,I,n,3067,2,3081.7000000178814,666034.099999994,8024,WL,C,14.0
5,41.585999965667725,learn,60000.0,Thu May 29 2025 12:13:30 GMT-0500 (Central Daylight Time),669315.6999999881,A,na,I,a,185,2,3281.5999999940395,666034.099999994,8024,WL,C,14.0
5,41.769999980926514,learn,60000.0,Thu May 29 2025 12:13:30 GMT-0500 (Central Daylight Time),669499.1999999881,A,nai,I,i,170,2,3465.0999999940395,666034.099999994,8024,WL,C,14.0
5,42.03600001335144,learn,60000.0,Thu May 29 2025 12:13:30 GMT-0500 (Central Daylight Time),669765.900000006,A,nail,I,l,250,2,3731.800000011921,666034.099999994,8024,WL,C,14.0
5,42.668999910354614,learn,60000.0,Thu May 29 2025 12:13:30 GMT-0500 (Central Daylight Time),670398.900000006,A,nailenter,I,enter,615,2,4364.800000011921,666034.099999994,8024,WL,C,14.0
5,89.10500001907349,learn,60000.0,Thu May 29 2025 12:13:30 GMT-0500 (Central Daylight Time),716834.1999999881,A,c,I,c,46423,2,46435.0,670399.1999999881,8024,WL,C,15.0
6,1.316999912261963,distr,58683.00008773804,Thu May 29 2025 12:13:30 GMT-0500 (Central Daylight Time),785129.3000000119,B,d,I,d,1296,2,1316.2000000178814,783813.099999994,8024,WL,C,1.0
6,1.5499999523162842,distr,58450.000047683716,Thu May 29 2025 12:13:30 GMT-0500 (Central Daylight Time),785362.5,B,do,I,o,227,2,1549.4000000059605,783813.099999994,8024,WL,C,1.0
6,1.816999912261963,distr,58183.00008773804,Thu May 29 2025 12:13:30 GMT-0500 (Central Daylight Time),785629.1999999881,B,dol,I,l,251,2,1816.0999999940395,783813.099999994,8024,WL,C,1.0
6,1.9829998016357422,distr,58017.00019836426,Thu May 29 2025 12:13:30 GMT-0500 (Central Daylight Time),785795.900000006,B,doll,I,l,152,2,1982.800000011921,783813.099999994,8024,WL,C,1.0
6,2.316999912261963,distr,57683.00008773804,Thu May 29 2025 12:13:30 GMT-0500 (Central Daylight Time),786129.0,B,dollo,I,o,312,2,2315.9000000059605,783813.099999994,8024,WL,C,1.0
6,3.299999952316284,distr,56700.000047683716,Thu May 29 2025 12:13:30 GMT-0500 (Central Daylight Time),787112.1999999881,B,dolloa,I,a,972,2,3299.0999999940395,783813.099999994,8024,WL,C,1.0
6,4.049000024795532,distr,55950.99997520447,Thu May 29 2025 12:13:30 GMT-0500 (Central Daylight Time),787861.8000000119,B,dollo,I,backspace,733,2,4048.7000000178814,783813.099999994,8024,WL,C,1.0
6,4.248999834060669,distr,55751.00016593933,Thu May 29 2025 12:13:30 GMT-0500 (Central Daylight Time),788061.900000006,B,doll,I,backspace,192,2,4248.800000011921,783813.099999994,8024,WL,C,1.0
6,4.415999889373779,distr,55584.00011062622,Thu May 29 2025 12:13:30 GMT-0500 (Central Daylight Time),788228.6999999881,B,dolla,I,a,152,2,4415.5999999940395,783813.099999994,8024,WL,C,1.0
6,5.248999834060669,distr,54751.00016593933,Thu May 29 2025 12:13:30 GMT-0500 (Central Daylight Time),789061.599999994,B,dollar,I,r,824,2,5248.5,783813.099999994,8024,WL,C,1.0
6,5.665999889373779,distr,54334.00011062622,Thu May 29 2025 12:13:30 GMT-0500 (Central Daylight Time),789478.099999994,B,dollarenter,I,enter,399,2,5665.0,783813.099999994,8024,WL,C,1.0
6,6.148999929428101,distr,53851.0000705719,Thu May 29 2025 12:13:30 GMT-0500 (Central Daylight Time),789961.0,B,m,I,m,471,2,482.19999998807907,789478.8000000119,8024,WL,C,2.0
6,6.347999811172485,distr,53652.000188827515,Thu May 29 2025 12:13:30 GMT-0500 (Central Daylight Time),790161.0,B,mo,I,o,179,2,682.1999999880791,789478.8000000119,8024,WL,C,2.0
6,6.56499981880188,distr,53435.00018119812,Thu May 29 2025 12:13:30 GMT-0500 (Central Daylight Time),790377.6999999881,B,mon,I,n,205,2,898.8999999761581,789478.8000000119,8024,WL,C,2.0
6,6.781999826431274,distr,53218.000173568726,Thu May 29 2025 12:13:30 GMT-0500 (Central Daylight Time),790594.400000006,B,mone,I,e,212,2,1115.5999999940395,789478.8000000119,8024,WL,C,2.0
6,7.06499981880188,distr,52935.00018119812,Thu May 29 2025 12:13:30 GMT-0500 (Central Daylight Time),790877.6999999881,B,money,I,y,267,2,1398.8999999761581,789478.8000000119,8024,WL,C,2.0
6,7.531999826431274,distr,52468.000173568726,Thu May 29 2025 12:13:30 GMT-0500 (Central Daylight Time),791344.1999999881,B,moneyenter,I,enter,448,2,1865.3999999761581,789478.8000000119,8024,WL,C,2.0
6,8.447999954223633,distr,51552.00004577637,Thu May 29 2025 12:13:30 GMT-0500 (Central Daylight Time),792260.8000000119,B,h,I,h,909,2,916.2000000178814,791344.599999994,8024,WL,C,3.0
6,8.764999866485596,distr,51235.000133514404,Thu May 29 2025 12:13:30 GMT-0500 (Central Daylight Time),792577.099999994,B,ho,I,o,296,2,1232.5,791344.599999994,8024,WL,C,3.0
6,8.997999906539917,distr,51002.00009346008,Thu May 29 2025 12:13:30 GMT-0500 (Central Daylight Time),792810.1999999881,B,hot,I,t,212,2,1465.5999999940395,791344.599999994,8024,WL,C,3.0
6,9.398000001907349,distr,50601.99999809265,Thu May 29 2025 12:13:30 GMT-0500 (Central Daylight Time),793210.0,B,hote,I,e,394,2,1865.4000000059605,791344.599999994,8024,WL,C,3.0
6,9.597999811172485,distr,50402.000188827515,Thu May 29 2025 12:13:30 GMT-0500 (Central Daylight Time),793410.3000000119,B,hotel,I,l,187,2,2065.7000000178814,791344.599999994,8024,WL,C,3.0
6,9.94700002670288,distr,50052.99997329712,Thu May 29 2025 12:13:30 GMT-0500 (Central Daylight Time),793759.8000000119,B,hotelenter,I,enter,330,2,2415.2000000178814,791344.599999994,8024,WL,C,3.0
6,10.580999851226807,distr,49419.00014877319,Thu May 29 2025 12:13:30 GMT-0500 (Central Daylight Time),794393.099999994,B,p,I,p,622,2,632.9000000059605,793760.1999999881,8024,WL,C,4.0
6,10.813999891281128,distr,49186.00010871887,Thu May 29 2025 12:13:30 GMT-0500 (Central Daylight Time),794626.5,B,pl,I,l,220,2,866.3000000119209,793760.1999999881,8024,WL,C,4.0
6,10.96399998664856,distr,49036.00001335144,Thu May 29 2025 12:13:30 GMT-0500 (Central Daylight Time),794776.400000006,B,pla,I,a,139,2,1016.2000000178814,793760.1999999881,8024,WL,C,4.0
6,11.21399998664856,distr,48786.00001335144,Thu May 29 2025 12:13:30 GMT-0500 (Central Daylight Time),795026.400000006,B,plan,I,n,237,2,1266.2000000178814,793760.1999999881,8024,WL,C,4.0
6,11.429999828338623,distr,48570.00017166138,Thu May 29 2025 12:13:30 GMT-0500 (Central Daylight Time),795242.8000000119,B,plant,I,t,210,2,1482.6000000238419,793760.1999999881,8024,WL,C,4.0
6,11.763999938964844,distr,48236.000061035156,Thu May 29 2025 12:13:30 GMT-0500 (Central Daylight Time),795576.1999999881,B,plantenter,I,enter,322,2,1816.0,793760.1999999881,8024,WL,C,4.0
6,12.179999828338623,distr,47820.00017166138,Thu May 29 2025 12:13:30 GMT-0500 (Central Daylight Time),795992.599999994,B,c,I,c,406,2,416.19999998807907,795576.400000006,8024,WL,C,5.0
6,12.429999828338623,distr,47570.00017166138,Thu May 29 2025 12:13:30 GMT-0500 (Central Daylight Time),796242.5,B,ch,I,h,237,2,666.0999999940395,795576.400000006,8024,WL,C,5.0
6,12.712999820709229,distr,47287.00017929077,Thu May 29 2025 12:13:30 GMT-0500 (Central Daylight Time),796526.0,B,chr,I,r,274,2,949.5999999940395,795576.400000006,8024,WL,C,5.0
6,13.230000019073486,distr,46769.999980926514,Thu May 29 2025 12:13:30 GMT-0500 (Central Daylight Time),797042.400000006,B,chri,I,i,503,2,1466.0,795576.400000006,8024,WL,C,5.0
6,13.395999908447266,distr,46604.000091552734,Thu May 29 2025 12:13:30 GMT-0500 (Central Daylight Time),797208.900000006,B,chris,I,s,155,2,1632.5,795576.400000006,8024,WL,C,5.0
6,13.745999813079834,distr,46254.000186920166,Thu May 29 2025 12:13:30 GMT-0500 (Central Daylight Time),797558.6999999881,B,christ,I,t,332,2,1982.2999999821186,795576.400000006,8024,WL,C,5.0
6,14.078999996185303,distr,45921.0000038147,Thu May 29 2025 12:13:30 GMT-0500 (Central Daylight Time),797892.0,B,christm,I,m,327,2,2315.5999999940395,795576.400000006,8024,WL,C,5.0
6,14.245999813079834,distr,45754.000186920166,Thu May 29 2025 12:13:30 GMT-0500 (Central Daylight Time),798058.400000006,B,christma,I,a,162,2,2482.0,795576.400000006,8024,WL,C,5.0
6,14.828999996185303,distr,45171.0000038147,Thu May 29 2025 12:13:30 GMT-0500 (Central Daylight Time),798641.900000006,B,christmas,I,s,571,2,3065.5,795576.400000006,8024,WL,C,5.0
6,15.361999988555908,distr,44638.00001144409,Thu May 29 2025 12:13:30 GMT-0500 (Central Daylight Time),799175.0,B,christmasenter,I,enter,516,2,3598.5999999940395,795576.400000006,8024,WL,C,5.0
6,19.41100001335144,distr,40588.99998664856,Thu May 29 2025 12:13:30 GMT-0500 (Central Daylight Time),803223.6999999881,B,s,I,s,4038,2,4048.2999999821186,799175.400000006,8024,WL,C,6.0
6,19.694000005722046,distr,40305.999994277954,Thu May 29 2025 12:13:30 GMT-0500 (Central Daylight Time),803506.8000000119,B,sk,I,k,278,2,4331.4000000059605,799175.400000006,8024,WL,C,6.0
6,20.32699990272522,distr,39673.00009727478,Thu May 29 2025 12:13:30 GMT-0500 (Central Daylight Time),804139.8000000119,B,sky,I,y,626,2,4964.4000000059605,799175.400000006,8024,WL,C,6.0
6,20.80999994277954,distr,39190.00005722046,Thu May 29 2025 12:13:30 GMT-0500 (Central Daylight Time),804622.900000006,B,skyenter,I,enter,473,2,5447.5,799175.400000006,8024,WL,C,6.0
6,32.70700001716614,distr,27292.999982833862,Thu May 29 2025 12:13:30 GMT-0500 (Central Daylight Time),816519.6999999881,B,v,I,v,11879,2,11896.5,804623.1999999881,8024,WL,C,7.0
6,32.95700001716614,distr,27042.999982833862,Thu May 29 2025 12:13:30 GMT-0500 (Central Daylight Time),816769.5,B,va,I,a,237,2,12146.300000011921,804623.1999999881,8024,WL,C,7.0
6,33.2739999294281,distr,26726.0000705719,Thu May 29 2025 12:13:30 GMT-0500 (Central Daylight Time),817086.0,B,val,I,l,308,2,12462.800000011921,804623.1999999881,8024,WL,C,7.0
6,33.50699996948242,distr,26493.000030517578,Thu May 29 2025 12:13:30 GMT-0500 (Central Daylight Time),817319.3000000119,B,vall,I,l,223,2,12696.100000023842,804623.1999999881,8024,WL,C,7.0
6,33.723999977111816,distr,26276.000022888184,Thu May 29 2025 12:13:30 GMT-0500 (Central Daylight Time),817536.099999994,B,valle,I,e,197,2,12912.90000000596,804623.1999999881,8024,WL,C,7.0
6,34.056999921798706,distr,25943.000078201294,Thu May 29 2025 12:13:30 GMT-0500 (Central Daylight Time),817869.099999994,B,valley,I,y,325,2,13245.90000000596,804623.1999999881,8024,WL,C,7.0
6,34.68999981880188,distr,25310.00018119812,Thu May 29 2025 12:13:30 GMT-0500 (Central Daylight Time),818502.400000006,B,valleyenter,I,enter,615,2,13879.200000017881,804623.1999999881,8024,WL,C,7.0
6,35.95599985122681,distr,24044.000148773193,Thu May 29 2025 12:13:30 GMT-0500 (Central Daylight Time),819768.599999994,B,f,I,f,1246,2,1265.9000000059605,818502.6999999881,8024,WL,C,8.0
6,36.18899989128113,distr,23811.000108718872,Thu May 29 2025 12:13:30 GMT-0500 (Central Daylight Time),820001.6999999881,B,fo,I,o,213,2,1499.0,818502.6999999881,8024,WL,C,8.0
6,36.40599989891052,distr,23594.000101089478,Thu May 29 2025 12:13:30 GMT-0500 (Central Daylight Time),820218.400000006,B,for,I,r,196,2,1715.7000000178814,818502.6999999881,8024,WL,C,8.0
6,36.60599994659424,distr,23394.00005340576,Thu May 29 2025 12:13:30 GMT-0500 (Central Daylight Time),820418.1999999881,B,forr,I,r,187,2,1915.5,818502.6999999881,8024,WL,C,8.0
6,36.805999994277954,distr,23194.000005722046,Thu May 29 2025 12:13:30 GMT-0500 (Central Daylight Time),820618.3000000119,B,forre,I,e,186,2,2115.600000023842,818502.6999999881,8024,WL,C,8.0
6,37.055999994277954,distr,22944.000005722046,Thu May 29 2025 12:13:30 GMT-0500 (Central Daylight Time),820868.1999999881,B,forres,I,s,243,2,2365.5,818502.6999999881,8024,WL,C,8.0
6,37.35599994659424,distr,22644.00005340576,Thu May 29 2025 12:13:30 GMT-0500 (Central Daylight Time),821168.1999999881,B,forrest,I,t,281,2,2665.5,818502.6999999881,8024,WL,C,8.0
6,37.72199988365173,distr,22278.000116348267,Thu May 29 2025 12:13:30 GMT-0500 (Central Daylight Time),821535.0,B,forrestenter,I,enter,358,2,3032.300000011921,818502.6999999881,8024,WL,C,8.0
6,60.014999866485596,distr,-14.999866485595703,Thu May 29 2025 12:13:30 GMT-0500 (Central Daylight Time),843827.6999999881,B,None,I,None,22289,2,22292.399999976158,821535.3000000119,8024,WL,C,9.0
7,8.614000082015991,immed,51385.99991798401,Thu May 29 2025 12:13:30 GMT-0500 (Central Daylight Time),856840.099999994,A,b,I,b,8595,2,8613.40000000596,848226.6999999881,8024,WL,C,1.0
7,9.097000122070312,immed,50902.99987792969,Thu May 29 2025 12:13:30 GMT-0500 (Central Daylight Time),857323.400000006,A,bo,I,o,467,2,9096.700000017881,848226.6999999881,8024,WL,C,1.0
7,9.46399998664856,immed,50536.00001335144,Thu May 29 2025 12:13:30 GMT-0500 (Central Daylight Time),857689.900000006,A,boy,I,y,362,2,9463.200000017881,848226.6999999881,8024,WL,C,1.0
7,10.031000137329102,immed,49968.9998626709,Thu May 29 2025 12:13:30 GMT-0500 (Central Daylight Time),858256.5,A,boyh,I,h,556,2,10029.800000011921,848226.6999999881,8024,WL,C,1.0
7,10.263999938964844,immed,49736.000061035156,Thu May 29 2025 12:13:30 GMT-0500 (Central Daylight Time),858489.6999999881,A,boyho,I,o,221,2,10263.0,848226.6999999881,8024,WL,C,1.0
7,10.564000129699707,immed,49435.99987030029,Thu May 29 2025 12:13:30 GMT-0500 (Central Daylight Time),858789.8000000119,A,boyhon,I,n,283,2,10563.100000023842,848226.6999999881,8024,WL,C,1.0
7,11.430000066757202,immed,48569.9999332428,Thu May 29 2025 12:13:30 GMT-0500 (Central Daylight Time),859656.099999994,A,boyho,I,backspace,846,2,11429.40000000596,848226.6999999881,8024,WL,C,1.0
7,11.746999979019165,immed,48253.000020980835,Thu May 29 2025 12:13:30 GMT-0500 (Central Daylight Time),859972.8000000119,A,boyhom,I,m,301,2,11746.100000023842,848226.6999999881,8024,WL,C,1.0
7,11.897000074386597,immed,48102.9999256134,Thu May 29 2025 12:13:30 GMT-0500 (Central Daylight Time),860122.599999994,A,boyhome,I,e,137,2,11895.90000000596,848226.6999999881,8024,WL,C,1.0
7,14.578999996185303,immed,45421.0000038147,Thu May 29 2025 12:13:30 GMT-0500 (Central Daylight Time),862805.099999994,A,boyhomef,I,f,2675,2,14578.40000000596,848226.6999999881,8024,WL,C,1.0
7,14.828999996185303,immed,45171.0000038147,Thu May 29 2025 12:13:30 GMT-0500 (Central Daylight Time),863055.0,A,boyhomefl,I,l,232,2,14828.300000011921,848226.6999999881,8024,WL,C,1.0
7,14.946000099182129,immed,45053.99990081787,Thu May 29 2025 12:13:30 GMT-0500 (Central Daylight Time),863171.599999994,A,boyhomefla,I,a,102,2,14944.90000000596,848226.6999999881,8024,WL,C,1.0
7,15.17900013923645,immed,44820.99986076355,Thu May 29 2025 12:13:30 GMT-0500 (Central Daylight Time),863404.900000006,A,boyhomeflag,I,g,218,2,15178.200000017881,848226.6999999881,8024,WL,C,1.0
7,15.611999988555908,immed,44388.00001144409,Thu May 29 2025 12:13:30 GMT-0500 (Central Daylight Time),863838.099999994,A,boyhomeflagenter,I,enter,416,2,15611.40000000596,848226.6999999881,8024,WL,C,1.0
7,19.611000061035156,immed,40388.999938964844,Thu May 29 2025 12:13:30 GMT-0500 (Central Daylight Time),867836.6999999881,A,n,I,n,3991,2,3998.2999999821186,863838.400000006,8024,WL,C,2.0
7,19.776999950408936,immed,40223.000049591064,Thu May 29 2025 12:13:30 GMT-0500 (Central Daylight Time),868003.3000000119,A,na,I,a,160,2,4164.9000000059605,863838.400000006,8024,WL,C,2.0
7,20.044000148773193,immed,39955.99985122681,Thu May 29 2025 12:13:30 GMT-0500 (Central Daylight Time),868269.900000006,A,nai,I,i,257,2,4431.5,863838.400000006,8024,WL,C,2.0
7,20.344000101089478,immed,39655.99989891052,Thu May 29 2025 12:13:30 GMT-0500 (Central Daylight Time),868570.099999994,A,nail,I,l,296,2,4731.699999988079,863838.400000006,8024,WL,C,2.0
7,20.80999994277954,immed,39190.00005722046,Thu May 29 2025 12:13:30 GMT-0500 (Central Daylight Time),869036.3000000119,A,nailenter,I,enter,452,2,5197.9000000059605,863838.400000006,8024,WL,C,2.0
7,24.942000150680542,immed,35057.99984931946,Thu May 29 2025 12:13:30 GMT-0500 (Central Daylight Time),873168.3000000119,A,l,I,l,4121,2,4131.700000017881,869036.599999994,8024,WL,C,3.0
7,25.159000158309937,immed,34840.99984169006,Thu May 29 2025 12:13:30 GMT-0500 (Central Daylight Time),873385.0,A,le,I,e,196,2,4348.4000000059605,869036.599999994,8024,WL,C,3.0
7,25.409000158309937,immed,34590.99984169006,Thu May 29 2025 12:13:30 GMT-0500 (Central Daylight Time),873634.6999999881,A,let,I,t,245,2,4598.0999999940395,869036.599999994,8024,WL,C,3.0
7,25.64199995994568,immed,34358.00004005432,Thu May 29 2025 12:13:30 GMT-0500 (Central Daylight Time),873868.1999999881,A,lett,I,t,227,2,4831.5999999940395,869036.599999994,8024,WL,C,3.0
7,25.875999927520752,immed,34124.00007247925,Thu May 29 2025 12:13:30 GMT-0500 (Central Daylight Time),874101.599999994,A,lette,I,e,224,2,5065.0,869036.599999994,8024,WL,C,3.0
7,26.075000047683716,immed,33924.999952316284,Thu May 29 2025 12:13:30 GMT-0500 (Central Daylight Time),874301.3000000119,A,letter,I,r,192,2,5264.700000017881,869036.599999994,8024,WL,C,3.0
7,26.70900011062622,immed,33290.99988937378,Thu May 29 2025 12:13:30 GMT-0500 (Central Daylight Time),874934.5,A,letterenter,I,enter,624,2,5897.9000000059605,869036.599999994,8024,WL,C,3.0
7,28.97000002861023,immed,31029.99997138977,Thu May 29 2025 12:13:30 GMT-0500 (Central Daylight Time),877195.5,A,c,I,c,2238,2,2260.5999999940395,874934.900000006,8024,WL,C,4.0
7,29.10700011253357,immed,30892.99988746643,Thu May 29 2025 12:13:30 GMT-0500 (Central Daylight Time),877333.5,A,ca,I,a,128,2,2398.5999999940395,874934.900000006,8024,WL,C,4.0
7,29.407999992370605,immed,30592.000007629395,Thu May 29 2025 12:13:30 GMT-0500 (Central Daylight Time),877633.6999999881,A,cam,I,m,280,2,2698.7999999821186,874934.900000006,8024,WL,C,4.0
7,29.723999977111816,immed,30276.000022888184,Thu May 29 2025 12:13:30 GMT-0500 (Central Daylight Time),877950.3000000119,A,camp,I,p,308,2,3015.4000000059605,874934.900000006,8024,WL,C,4.0
7,30.074000120162964,immed,29925.999879837036,Thu May 29 2025 12:13:30 GMT-0500 (Central Daylight Time),878300.099999994,A,campenter,I,enter,343,2,3365.199999988079,874934.900000006,8024,WL,C,4.0
7,32.123000144958496,immed,27876.999855041504,Thu May 29 2025 12:13:30 GMT-0500 (Central Daylight Time),880349.400000006,A,s,I,s,2033,2,2049.0,878300.400000006,8024,WL,C,5.0
7,32.324000120162964,immed,27675.999879837036,Thu May 29 2025 12:13:30 GMT-0500 (Central Daylight Time),880549.599999994,A,sh,I,h,184,2,2249.199999988079,878300.400000006,8024,WL,C,5.0
7,32.74000000953674,immed,27259.999990463257,Thu May 29 2025 12:13:30 GMT-0500 (Central Daylight Time),880966.1999999881,A,sho,I,o,400,2,2665.7999999821186,878300.400000006,8024,WL,C,5.0
7,33.00699996948242,immed,26993.000030517578,Thu May 29 2025 12:13:30 GMT-0500 (Central Daylight Time),881232.599999994,A,shor,I,r,246,2,2932.199999988079,878300.400000006,8024,WL,C,5.0
7,33.24000000953674,immed,26759.999990463257,Thu May 29 2025 12:13:30 GMT-0500 (Central Daylight Time),881466.099999994,A,shore,I,e,229,2,3165.699999988079,878300.400000006,8024,WL,C,5.0
7,33.6560001373291,immed,26343.9998626709,Thu May 29 2025 12:13:30 GMT-0500 (Central Daylight Time),881882.3000000119,A,shoreenter,I,enter,403,2,3581.9000000059605,878300.400000006,8024,WL,C,5.0
7,34.43900012969971,immed,25560.999870300293,Thu May 29 2025 12:13:30 GMT-0500 (Central Daylight Time),882665.5,A,b,I,b,762,2,783.0,881882.5,8024,WL,C,6.0
7,34.6560001373291,immed,25343.9998626709,Thu May 29 2025 12:13:30 GMT-0500 (Central Daylight Time),882881.8000000119,A,bo,I,o,203,2,999.3000000119209,881882.5,8024,WL,C,6.0
7,35.055999994277954,immed,24944.000005722046,Thu May 29 2025 12:13:30 GMT-0500 (Central Daylight Time),883282.099999994,A,bod,I,d,380,2,1399.5999999940395,881882.5,8024,WL,C,6.0
7,35.305999994277954,immed,24694.000005722046,Thu May 29 2025 12:13:30 GMT-0500 (Central Daylight Time),883531.8000000119,A,body,I,y,243,2,1649.300000011921,881882.5,8024,WL,C,6.0
7,35.85599994659424,immed,24144.00005340576,Thu May 29 2025 12:13:30 GMT-0500 (Central Daylight Time),884081.5,A,bodyenter,I,enter,530,2,2199.0,881882.5,8024,WL,C,6.0
7,38.38800001144409,immed,21611.99998855591,Thu May 29 2025 12:13:30 GMT-0500 (Central Daylight Time),886614.1999999881,A,c,I,c,2524,2,2532.399999976158,884081.8000000119,8024,WL,C,7.0
7,38.65499997138977,immed,21345.00002861023,Thu May 29 2025 12:13:30 GMT-0500 (Central Daylight Time),886880.8000000119,A,co,I,o,255,2,2799.0,884081.8000000119,8024,WL,C,7.0
7,38.90400004386902,immed,21095.99995613098,Thu May 29 2025 12:13:30 GMT-0500 (Central Daylight Time),887130.5,A,cor,I,r,244,2,3048.699999988079,884081.8000000119,8024,WL,C,7.0
7,39.706000089645386,immed,20293.999910354614,Thu May 29 2025 12:13:30 GMT-0500 (Central Daylight Time),887931.5,A,corb,I,b,794,2,3849.699999988079,884081.8000000119,8024,WL,C,7.0
7,40.87100005149841,immed,19128.999948501587,Thu May 29 2025 12:13:30 GMT-0500 (Central Daylight Time),889096.900000006,A,cor,I,backspace,1146,2,5015.0999999940395,884081.8000000119,8024,WL,C,7.0
7,41.07100009918213,immed,18928.99990081787,Thu May 29 2025 12:13:30 GMT-0500 (Central Daylight Time),889296.6999999881,A,corn,I,n,179,2,5214.899999976158,884081.8000000119,8024,WL,C,7.0
7,41.837000131607056,immed,18162.999868392944,Thu May 29 2025 12:13:30 GMT-0500 (Central Daylight Time),890063.099999994,A,cornenter,I,enter,757,2,5981.299999982119,884081.8000000119,8024,WL,C,7.0
7,42.519999980926514,immed,17480.000019073486,Thu May 29 2025 12:13:30 GMT-0500 (Central Daylight Time),890746.099999994,A,c,I,c,678,2,682.6999999880791,890063.400000006,8024,WL,C,8.0
7,42.687000036239624,immed,17312.999963760376,Thu May 29 2025 12:13:30 GMT-0500 (Central Daylight Time),890912.8000000119,A,ca,I,a,155,2,849.4000000059605,890063.400000006,8024,WL,C,8.0
7,43.20300006866455,immed,16796.99993133545,Thu May 29 2025 12:13:30 GMT-0500 (Central Daylight Time),891429.400000006,A,cat,I,t,500,2,1366.0,890063.400000006,8024,WL,C,8.0
7,43.420000076293945,immed,16579.999923706055,Thu May 29 2025 12:13:30 GMT-0500 (Central Daylight Time),891645.8000000119,A,catt,I,t,200,2,1582.4000000059605,890063.400000006,8024,WL,C,8.0
7,43.6029999256134,immed,16397.000074386597,Thu May 29 2025 12:13:30 GMT-0500 (Central Daylight Time),891829.1999999881,A,cattl,I,l,176,2,1765.7999999821186,890063.400000006,8024,WL,C,8.0
7,43.769999980926514,immed,16230.000019073486,Thu May 29 2025 12:13:30 GMT-0500 (Central Daylight Time),891995.8000000119,A,cattle,I,e,152,2,1932.4000000059605,890063.400000006,8024,WL,C,8.0
7,44.15400004386902,immed,15845.999956130981,Thu May 29 2025 12:13:30 GMT-0500 (Central Daylight Time),892379.900000006,A,cattleenter,I,enter,378,2,2316.5,890063.400000006,8024,WL,C,8.0
7,48.00200009346008,immed,11997.999906539917,Thu May 29 2025 12:13:30 GMT-0500 (Central Daylight Time),896228.099999994,A,w,I,w,3833,2,3847.7999999821186,892380.3000000119,8024,WL,C,9.0
7,48.21799993515015,immed,11782.000064849854,Thu May 29 2025 12:13:30 GMT-0500 (Central Daylight Time),896444.1999999881,A,wh,I,h,210,2,4063.899999976158,892380.3000000119,8024,WL,C,9.0
7,48.35199999809265,immed,11648.000001907349,Thu May 29 2025 12:13:30 GMT-0500 (Central Daylight Time),896578.099999994,A,wha,I,a,130,2,4197.799999982119,892380.3000000119,8024,WL,C,9.0
7,48.96799993515015,immed,11032.000064849854,Thu May 29 2025 12:13:30 GMT-0500 (Central Daylight Time),897194.1999999881,A,wh,I,backspace,604,2,4813.899999976158,892380.3000000119,8024,WL,C,9.0
7,49.151999950408936,immed,10848.000049591064,Thu May 29 2025 12:13:30 GMT-0500 (Central Daylight Time),897377.8000000119,A,whe,I,e,163,2,4997.5,892380.3000000119,8024,WL,C,9.0
7,49.35199999809265,immed,10648.000001907349,Thu May 29 2025 12:13:30 GMT-0500 (Central Daylight Time),897577.5,A,whea,I,a,179,2,5197.199999988079,892380.3000000119,8024,WL,C,9.0
7,49.61800003051758,immed,10381.999969482422,Thu May 29 2025 12:13:30 GMT-0500 (Central Daylight Time),897843.900000006,A,wheat,I,t,260,2,5463.5999999940395,892380.3000000119,8024,WL,C,9.0
7,50.25099992752075,immed,9749.000072479248,Thu May 29 2025 12:13:30 GMT-0500 (Central Daylight Time),898477.3000000119,A,wheatenter,I,enter,625,2,6097.0,892380.3000000119,8024,WL,C,9.0
7,52.35000014305115,immed,7649.9998569488525,Thu May 29 2025 12:13:30 GMT-0500 (Central Daylight Time),900576.1999999881,A,q,I,q,2088,2,2098.5999999940395,898477.599999994,8024,WL,C,10.0
7,52.65000009536743,immed,7349.999904632568,Thu May 29 2025 12:13:30 GMT-0500 (Central Daylight Time),900876.0,A,qu,I,u,284,2,2398.4000000059605,898477.599999994,8024,WL,C,10.0
7,52.91600012779236,immed,7083.999872207642,Thu May 29 2025 12:13:30 GMT-0500 (Central Daylight Time),901142.900000006,A,que,I,e,250,2,2665.300000011921,898477.599999994,8024,WL,C,10.0
7,53.299999952316284,immed,6700.000047683716,Thu May 29 2025 12:13:30 GMT-0500 (Central Daylight Time),901526.099999994,A,quee,I,e,375,2,3048.5,898477.599999994,8024,WL,C,10.0
7,53.56599998474121,immed,6434.000015258789,Thu May 29 2025 12:13:30 GMT-0500 (Central Daylight Time),901792.6999999881,A,queen,I,n,246,2,3315.0999999940395,898477.599999994,8024,WL,C,10.0
7,54.0,immed,6000.0,Thu May 29 2025 12:13:30 GMT-0500 (Central Daylight Time),902226.099999994,A,queenenter,I,enter,429,2,3748.5,898477.599999994,8024,WL,C,10.0
7,57.931999921798706,immed,2068.000078201294,Thu May 29 2025 12:13:30 GMT-0500 (Central Daylight Time),906158.0,A,f,I,f,3915,2,3931.699999988079,902226.3000000119,8024,WL,C,11.0
7,58.23200011253357,immed,1767.9998874664307,Thu May 29 2025 12:13:30 GMT-0500 (Central Daylight Time),906458.099999994,A,fl,I,l,279,2,4231.799999982119,902226.3000000119,8024,WL,C,11.0
7,58.39800000190735,immed,1601.9999980926514,Thu May 29 2025 12:13:30 GMT-0500 (Central Daylight Time),906624.900000006,A,fla,I,a,155,2,4398.5999999940395,902226.3000000119,8024,WL,C,11.0
7,58.64800000190735,immed,1351.9999980926514,Thu May 29 2025 12:13:30 GMT-0500 (Central Daylight Time),906874.400000006,A,flag,I,g,236,2,4648.0999999940395,902226.3000000119,8024,WL,C,11.0
7,58.98099994659424,immed,1019.0000534057617,Thu May 29 2025 12:13:30 GMT-0500 (Central Daylight Time),907207.900000006,A,flagenter,I,enter,323,2,4981.5999999940395,902226.3000000119,8024,WL,C,11.0
7,60.015000104904175,immed,-15.000104904174805,Thu May 29 2025 12:13:30 GMT-0500 (Central Daylight Time),908241.1999999881,A,None,I,None,1029,2,1033.0,907208.1999999881,8024,WL,C,12.0
