acc_sum,block,block_c,change,condition,correct,correct_response,datetime,endtime,face,project,response,response_time,row_sel,session_number,start_end,starttime,subject_id,task,task_vers,trial
0,prac,1,,1-Back,,,Wed May 21 2025 14:19:26 GMT-0500 (Central Daylight Time),,005_o_f_d_a.png,I,space,10135,1,1,,,8032,VNB,B,0
0,prac,1,0.0,1-Back,0,m,Wed May 21 2025 14:19:26 GMT-0500 (Central Daylight Time),158361.80000007153,020_y_f_n_a.png,I,z,1426,2,1,2308.0,156053.80000007153,8032,VNB,B,1
0,prac,1,0.0,1-Back,0,m,Wed May 21 2025 14:19:26 GMT-0500 (Central Daylight Time),161277.5,007_m_m_h_a.png,I,None,2016,3,1,2908.600000023842,158368.89999997616,8032,VNB,B,2
0,prac,1,0.0,1-Back,0,m,Wed May 21 2025 14:19:26 GMT-0500 (Central Daylight Time),164193.10000002384,016_y_m_d_a.png,I,None,2015,4,1,2907.2999999523163,161285.80000007153,8032,VNB,B,3
1,prac,1,0.0,1-Back,1,m,Wed May 21 2025 14:19:26 GMT-0500 (Central Daylight Time),166342.5,005_o_f_n_a.png,I,m,1250,5,1,2142.1999999284744,164200.30000007153,8032,VNB,B,4
2,prac,1,1.0,1-Back,1,z,Wed May 21 2025 14:19:26 GMT-0500 (Central Daylight Time),168625.20000004768,016_y_m_n_a.png,I,z,1372,6,1,2275.600000023842,166349.60000002384,8032,VNB,B,5
3,prac,1,0.0,1-Back,1,m,Wed May 21 2025 14:19:26 GMT-0500 (Central Daylight Time),170724.5,004_o_m_h_a.png,I,m,1219,7,1,2090.899999976158,168633.60000002384,8032,VNB,B,6
4,prac,1,0.0,1-Back,1,m,Wed May 21 2025 14:19:26 GMT-0500 (Central Daylight Time),172740.60000002384,011_m_f_d_a.png,I,m,1112,8,1,2009.8999999761581,170730.70000004768,8032,VNB,B,7
5,prac,1,1.0,1-Back,1,z,Wed May 21 2025 14:19:26 GMT-0500 (Central Daylight Time),175073.0,020_y_f_d_a.png,I,z,1441,9,1,2324.7999999523163,172748.20000004768,8032,VNB,B,8
5,prac,1,0.0,1-Back,0,m,Wed May 21 2025 14:19:26 GMT-0500 (Central Daylight Time),177638.80000007153,007_m_m_n_a.png,I,z,1648,10,1,2558.100000023842,175080.70000004768,8032,VNB,B,9
6,prac,1,0.0,1-Back,1,m,Wed May 21 2025 14:19:26 GMT-0500 (Central Daylight Time),179904.80000007153,005_o_f_h_a.png,I,m,1242,11,1,2259.0,177645.80000007153,8032,VNB,B,10
6,prac,1,0.0,1-Back,0,m,Wed May 21 2025 14:19:26 GMT-0500 (Central Daylight Time),182104.5,016_y_m_d_a.png,I,z,1280,12,1,2192.899999976158,179911.60000002384,8032,VNB,B,11
0,prac,2,0.0,1-Back,,,Wed May 21 2025 14:19:26 GMT-0500 (Central Daylight Time),182104.5,005_o_f_d_a.png,I,a,5508,1,1,2192.899999976158,179911.60000002384,8032,VNB,B,0
0,prac,2,0.0,1-Back,0,m,Wed May 21 2025 14:19:26 GMT-0500 (Central Daylight Time),193000.80000007153,020_y_f_n_a.png,I,z,1458,2,1,2340.2000000476837,190660.60000002384,8032,VNB,B,1
1,prac,2,0.0,1-Back,1,m,Wed May 21 2025 14:19:26 GMT-0500 (Central Daylight Time),195499.89999997616,007_m_m_h_a.png,I,m,1596,3,1,2491.1999999284744,193008.70000004768,8032,VNB,B,2
2,prac,2,0.0,1-Back,1,m,Wed May 21 2025 14:19:26 GMT-0500 (Central Daylight Time),197416.0,016_y_m_d_a.png,I,m,1142,4,1,1909.1000000238419,195506.89999997616,8032,VNB,B,3
3,prac,2,0.0,1-Back,1,m,Wed May 21 2025 14:19:26 GMT-0500 (Central Daylight Time),199732.20000004768,005_o_f_n_a.png,I,m,1413,5,1,2310.399999976158,197421.80000007153,8032,VNB,B,4
4,prac,2,1.0,1-Back,1,z,Wed May 21 2025 14:19:26 GMT-0500 (Central Daylight Time),201698.20000004768,016_y_m_n_a.png,I,z,1061,6,1,1958.7000000476837,199739.5,8032,VNB,B,5
5,prac,2,0.0,1-Back,1,m,Wed May 21 2025 14:19:26 GMT-0500 (Central Daylight Time),203647.5,004_o_m_h_a.png,I,m,1069,7,1,1942.5,201705.0,8032,VNB,B,6
5,prac,2,0.0,1-Back,0,m,Wed May 21 2025 14:19:26 GMT-0500 (Central Daylight Time),205514.70000004768,011_m_f_d_a.png,I,z,973,8,1,1862.0,203652.70000004768,8032,VNB,B,7
5,prac,2,1.0,1-Back,0,z,Wed May 21 2025 14:19:26 GMT-0500 (Central Daylight Time),208412.60000002384,020_y_f_d_a.png,I,None,2015,9,1,2890.5,205522.10000002384,8032,VNB,B,8
5,prac,2,0.0,1-Back,0,m,Wed May 21 2025 14:19:26 GMT-0500 (Central Daylight Time),210595.39999997616,007_m_m_n_a.png,I,z,1276,10,1,2176.6999999284744,208418.70000004768,8032,VNB,B,9
6,prac,2,0.0,1-Back,1,m,Wed May 21 2025 14:19:26 GMT-0500 (Central Daylight Time),212178.10000002384,005_o_f_h_a.png,I,m,680,11,1,1576.2999999523163,210601.80000007153,8032,VNB,B,10
6,prac,2,0.0,1-Back,0,m,Wed May 21 2025 14:19:26 GMT-0500 (Central Daylight Time),214160.80000007153,016_y_m_d_a.png,I,z,1081,12,1,1974.9000000953674,212185.89999997616,8032,VNB,B,11
0,test,1,0.0,1-Back,,,Wed May 21 2025 14:19:26 GMT-0500 (Central Daylight Time),214160.80000007153,020_y_f_d_a.png,I,space,21861,1,1,1974.9000000953674,212185.89999997616,8032,VNB,B,0
1,test,1,0.0,1-Back,1,m,Wed May 21 2025 14:19:26 GMT-0500 (Central Daylight Time),249467.60000002384,011_m_f_n_a.png,I,m,1932,2,1,2945.7999999523163,246521.80000007153,8032,VNB,B,1
2,test,1,0.0,1-Back,1,m,Wed May 21 2025 14:19:26 GMT-0500 (Central Daylight Time),251532.5,004_o_m_h_a.png,I,m,1039,3,1,2060.7999999523163,249471.70000004768,8032,VNB,B,2
2,test,1,1.0,1-Back,0,z,Wed May 21 2025 14:19:26 GMT-0500 (Central Daylight Time),253398.5,007_m_m_h_a.png,I,m,845,4,1,1861.2999999523163,251537.20000004768,8032,VNB,B,3
2,test,1,0.0,1-Back,0,m,Wed May 21 2025 14:19:26 GMT-0500 (Central Daylight Time),255114.60000002384,005_o_f_n_a.png,I,z,691,5,1,1712.2999999523163,253402.30000007153,8032,VNB,B,4
3,test,1,0.0,1-Back,1,m,Wed May 21 2025 14:19:26 GMT-0500 (Central Daylight Time),257513.89999997616,016_y_m_d_a.png,I,m,1373,6,1,2394.7999999523163,255119.10000002384,8032,VNB,B,5
4,test,1,1.0,1-Back,1,z,Wed May 21 2025 14:19:26 GMT-0500 (Central Daylight Time),259796.60000002384,011_m_f_d_a.png,I,z,1255,7,1,2278.5,257518.10000002384,8032,VNB,B,6
5,test,1,0.0,1-Back,1,m,Wed May 21 2025 14:19:26 GMT-0500 (Central Daylight Time),262029.20000004768,020_y_f_h_a.png,I,m,1213,8,1,2228.899999976158,259800.30000007153,8032,VNB,B,7
6,test,1,0.0,1-Back,1,m,Wed May 21 2025 14:19:26 GMT-0500 (Central Daylight Time),264195.3000000715,004_o_m_n_a.png,I,m,1140,9,1,2161.9000000953674,262033.39999997616,8032,VNB,B,8
7,test,1,0.0,1-Back,1,m,Wed May 21 2025 14:19:26 GMT-0500 (Central Daylight Time),266528.0,016_y_m_h_a.png,I,m,1310,10,1,2328.399999976158,264199.60000002384,8032,VNB,B,9
7,test,1,0.0,1-Back,0,m,Wed May 21 2025 14:19:26 GMT-0500 (Central Daylight Time),268643.7000000477,004_o_m_d_a.png,I,z,1096,11,1,2111.5,266532.2000000477,8032,VNB,B,10
8,test,1,1.0,1-Back,1,z,Wed May 21 2025 14:19:26 GMT-0500 (Central Daylight Time),271442.39999997616,005_o_f_d_a.png,I,z,1780,12,1,2795.1999999284744,268647.2000000477,8032,VNB,B,11
9,test,1,0.0,1-Back,1,m,Wed May 21 2025 14:19:26 GMT-0500 (Central Daylight Time),273743.89999997616,007_m_m_n_a.png,I,m,1279,13,1,2297.0,271446.89999997616,8032,VNB,B,12
9,test,1,1.0,1-Back,0,z,Wed May 21 2025 14:19:26 GMT-0500 (Central Daylight Time),275958.3000000715,020_y_f_n_a.png,I,m,1195,14,1,2208.7000000476837,273749.60000002384,8032,VNB,B,13
10,test,1,0.0,1-Back,1,m,Wed May 21 2025 14:19:26 GMT-0500 (Central Daylight Time),278673.89999997616,011_m_f_h_a.png,I,m,1683,15,1,2711.7999999523163,275962.10000002384,8032,VNB,B,14
11,test,1,0.0,1-Back,1,m,Wed May 21 2025 14:19:26 GMT-0500 (Central Daylight Time),281256.3000000715,007_m_m_d_a.png,I,m,1551,16,1,2578.5,278677.8000000715,8032,VNB,B,15
11,test,1,0.0,1-Back,0,m,Wed May 21 2025 14:19:26 GMT-0500 (Central Daylight Time),284022.10000002384,016_y_m_n_a.png,I,z,1737,17,1,2761.0,281261.10000002384,8032,VNB,B,16
12,test,1,0.0,1-Back,1,m,Wed May 21 2025 14:19:26 GMT-0500 (Central Daylight Time),286021.7000000477,005_o_f_h_a.png,I,m,979,18,1,1994.7000000476837,284027.0,8032,VNB,B,17
0,test,2,0.0,1-Back,,,Wed May 21 2025 14:19:26 GMT-0500 (Central Daylight Time),286021.7000000477,016_y_m_n_a.png,I,space,11932,1,1,1994.7000000476837,284027.0,8032,VNB,B,0
1,test,2,0.0,1-Back,1,m,Wed May 21 2025 14:19:26 GMT-0500 (Central Daylight Time),301983.2000000477,020_y_f_h_a.png,I,m,977,2,1,1994.8999999761581,299988.3000000715,8032,VNB,B,1
2,test,2,1.0,1-Back,1,m,Wed May 21 2025 14:19:26 GMT-0500 (Central Daylight Time),304382.7000000477,004_o_m_n_a.png,I,m,1370,3,1,2395.0,301987.7000000477,8032,VNB,B,2
3,test,2,0.0,1-Back,1,m,Wed May 21 2025 14:19:26 GMT-0500 (Central Daylight Time),306581.7000000477,011_m_f_d_a.png,I,m,1176,4,1,2193.899999976158,304387.8000000715,8032,VNB,B,3
4,test,2,0.0,1-Back,1,z,Wed May 21 2025 14:19:26 GMT-0500 (Central Daylight Time),309414.3000000715,007_m_m_d_a.png,I,z,1811,5,1,2828.600000023842,306585.7000000477,8032,VNB,B,4
5,test,2,0.0,1-Back,1,m,Wed May 21 2025 14:19:26 GMT-0500 (Central Daylight Time),311313.8000000715,016_y_m_h_a.png,I,m,875,6,1,1895.1000000238419,309418.7000000477,8032,VNB,B,5
5,test,2,1.0,1-Back,0,z,Wed May 21 2025 14:19:26 GMT-0500 (Central Daylight Time),313146.39999997616,005_o_f_h_a.png,I,m,807,7,1,1828.5999999046326,311317.8000000715,8032,VNB,B,6
6,test,2,0.0,1-Back,1,m,Wed May 21 2025 14:19:26 GMT-0500 (Central Daylight Time),315712.2000000477,011_m_f_n_a.png,I,m,1535,8,1,2561.0,313151.2000000477,8032,VNB,B,7
7,test,2,0.0,1-Back,1,m,Wed May 21 2025 14:19:26 GMT-0500 (Central Daylight Time),318511.39999997616,020_y_f_d_a.png,I,m,1777,9,1,2794.1999999284744,315717.2000000477,8032,VNB,B,8
8,test,2,0.0,1-Back,1,m,Wed May 21 2025 14:19:26 GMT-0500 (Central Daylight Time),321093.89999997616,007_m_m_n_a.png,I,m,1562,10,1,2578.0999999046326,318515.8000000715,8032,VNB,B,9
9,test,2,1.0,1-Back,1,m,Wed May 21 2025 14:19:26 GMT-0500 (Central Daylight Time),323259.8000000715,011_m_f_h_a.png,I,m,1138,11,1,2161.7000000476837,321098.10000002384,8032,VNB,B,10
10,test,2,0.0,1-Back,1,z,Wed May 21 2025 14:19:26 GMT-0500 (Central Daylight Time),325075.89999997616,004_o_m_h_a.png,I,z,797,12,1,1812.0999999046326,323263.8000000715,8032,VNB,B,11
11,test,2,0.0,1-Back,1,m,Wed May 21 2025 14:19:26 GMT-0500 (Central Daylight Time),328025.2000000477,016_y_m_d_a.png,I,m,1916,13,1,2944.3000000715256,325080.89999997616,8032,VNB,B,12
12,test,2,0.0,1-Back,1,m,Wed May 21 2025 14:19:26 GMT-0500 (Central Daylight Time),330574.3000000715,005_o_f_n_a.png,I,m,1520,14,1,2544.8000000715256,328029.5,8032,VNB,B,13
13,test,2,0.0,1-Back,1,z,Wed May 21 2025 14:19:26 GMT-0500 (Central Daylight Time),332940.3000000715,020_y_f_n_a.png,I,z,1339,15,1,2361.600000023842,330578.7000000477,8032,VNB,B,14
14,test,2,1.0,1-Back,1,m,Wed May 21 2025 14:19:26 GMT-0500 (Central Daylight Time),334989.5,007_m_m_h_a.png,I,m,1021,16,1,2044.7999999523163,332944.7000000477,8032,VNB,B,15
15,test,2,0.0,1-Back,1,m,Wed May 21 2025 14:19:26 GMT-0500 (Central Daylight Time),337372.2000000477,005_o_f_d_a.png,I,m,1355,17,1,2377.5,334994.7000000477,8032,VNB,B,16
16,test,2,1.0,1-Back,1,z,Wed May 21 2025 14:19:26 GMT-0500 (Central Daylight Time),340087.89999997616,004_o_m_d_a.png,I,z,1685,18,1,2711.0999999046326,337376.8000000715,8032,VNB,B,17
0,test,3,1.0,1-Back,,,Wed May 21 2025 14:19:26 GMT-0500 (Central Daylight Time),340087.89999997616,005_o_f_h_a.png,I,space,6922,1,1,2711.0999999046326,337376.8000000715,8032,VNB,B,0
1,test,3,0.0,1-Back,1,m,Wed May 21 2025 14:19:26 GMT-0500 (Central Daylight Time),351367.7000000477,011_m_f_d_a.png,I,m,1194,2,1,2210.3000000715256,349157.39999997616,8032,VNB,B,1
2,test,3,1.0,1-Back,1,m,Wed May 21 2025 14:19:26 GMT-0500 (Central Daylight Time),354183.7000000477,007_m_m_n_a.png,I,m,1785,3,1,2811.0,351372.7000000477,8032,VNB,B,2
3,test,3,0.0,1-Back,1,z,Wed May 21 2025 14:19:26 GMT-0500 (Central Daylight Time),356282.60000002384,005_o_f_n_a.png,I,z,1073,4,1,2094.2999999523163,354188.3000000715,8032,VNB,B,3
4,test,3,1.0,1-Back,1,m,Wed May 21 2025 14:19:26 GMT-0500 (Central Daylight Time),358765.60000002384,004_o_m_d_a.png,I,m,1462,5,1,2479.399999976158,356286.2000000477,8032,VNB,B,4
4,test,3,0.0,1-Back,0,m,Wed May 21 2025 14:19:26 GMT-0500 (Central Daylight Time),361514.2000000477,020_y_f_h_a.png,I,z,1730,6,1,2743.5,358770.7000000477,8032,VNB,B,5
5,test,3,0.0,1-Back,1,z,Wed May 21 2025 14:19:26 GMT-0500 (Central Daylight Time),363930.39999997616,016_y_m_h_a.png,I,z,1399,7,1,2410.6999999284744,361519.7000000477,8032,VNB,B,6
6,test,3,0.0,1-Back,1,m,Wed May 21 2025 14:19:26 GMT-0500 (Central Daylight Time),366113.3000000715,011_m_f_n_a.png,I,m,1159,8,1,2178.8000000715256,363934.5,8032,VNB,B,7
6,test,3,0.0,1-Back,0,m,Wed May 21 2025 14:19:26 GMT-0500 (Central Daylight Time),368945.7000000477,020_y_f_d_a.png,I,z,1808,9,1,2828.3000000715256,366117.39999997616,8032,VNB,B,8
6,test,3,1.0,1-Back,0,m,Wed May 21 2025 14:19:26 GMT-0500 (Central Daylight Time),371228.2000000477,004_o_m_n_a.png,I,z,1254,10,1,2278.7000000476837,368949.5,8032,VNB,B,9
7,test,3,0.0,1-Back,1,m,Wed May 21 2025 14:19:26 GMT-0500 (Central Daylight Time),373277.7000000477,007_m_m_h_a.png,I,m,1021,11,1,2045.1000000238419,371232.60000002384,8032,VNB,B,10
7,test,3,0.0,1-Back,0,z,Wed May 21 2025 14:19:26 GMT-0500 (Central Daylight Time),375126.89999997616,011_m_f_h_a.png,I,m,828,12,1,1845.1999999284744,373281.7000000477,8032,VNB,B,11
8,test,3,1.0,1-Back,1,m,Wed May 21 2025 14:19:26 GMT-0500 (Central Daylight Time),378025.89999997616,005_o_f_d_a.png,I,m,1882,13,1,2894.5,375131.39999997616,8032,VNB,B,12
9,test,3,0.0,1-Back,1,z,Wed May 21 2025 14:19:26 GMT-0500 (Central Daylight Time),380808.60000002384,007_m_m_d_a.png,I,z,1751,14,1,2778.100000023842,378030.5,8032,VNB,B,13
10,test,3,0.0,1-Back,1,m,Wed May 21 2025 14:19:26 GMT-0500 (Central Daylight Time),383157.89999997616,016_y_m_n_a.png,I,m,1328,15,1,2344.7999999523163,380813.10000002384,8032,VNB,B,14
11,test,3,1.0,1-Back,1,m,Wed May 21 2025 14:19:26 GMT-0500 (Central Daylight Time),385640.39999997616,004_o_m_h_a.png,I,m,1459,16,1,2478.0,383162.39999997616,8032,VNB,B,15
12,test,3,0.0,1-Back,1,m,Wed May 21 2025 14:19:26 GMT-0500 (Central Daylight Time),388056.3000000715,016_y_m_d_a.png,I,m,1385,17,1,2411.9000000953674,385644.39999997616,8032,VNB,B,16
12,test,3,1.0,1-Back,0,m,Wed May 21 2025 14:19:26 GMT-0500 (Central Daylight Time),390889.8000000715,020_y_f_n_a.png,I,z,1796,18,1,2830.100000023842,388059.7000000477,8032,VNB,B,17
0,test,4,1.0,1-Back,,,Wed May 21 2025 14:19:26 GMT-0500 (Central Daylight Time),390889.8000000715,007_m_m_d_a.png,I,space,9015,1,1,2830.100000023842,388059.7000000477,8032,VNB,B,0
1,test,4,0.0,1-Back,1,z,Wed May 21 2025 14:19:26 GMT-0500 (Central Daylight Time),404151.2000000477,004_o_m_d_a.png,I,z,1186,2,1,2211.100000023842,401940.10000002384,8032,VNB,B,1
2,test,4,0.0,1-Back,1,m,Wed May 21 2025 14:19:26 GMT-0500 (Central Daylight Time),406633.7000000477,016_y_m_h_a.png,I,m,1450,3,1,2478.5,404155.2000000477,8032,VNB,B,2
3,test,4,0.0,1-Back,1,m,Wed May 21 2025 14:19:26 GMT-0500 (Central Daylight Time),409066.0,011_m_f_n_a.png,I,m,1415,4,1,2428.100000023842,406637.89999997616,8032,VNB,B,3
4,test,4,1.0,1-Back,1,m,Wed May 21 2025 14:19:26 GMT-0500 (Central Daylight Time),411498.89999997616,005_o_f_h_a.png,I,m,1407,5,1,2428.6999999284744,409070.2000000477,8032,VNB,B,4
5,test,4,0.0,1-Back,1,m,Wed May 21 2025 14:19:26 GMT-0500 (Central Daylight Time),413681.7000000477,007_m_m_n_a.png,I,m,1165,6,1,2178.8000000715256,411502.89999997616,8032,VNB,B,5
6,test,4,0.0,1-Back,1,m,Wed May 21 2025 14:19:26 GMT-0500 (Central Daylight Time),416030.7000000477,016_y_m_d_a.png,I,m,1215,7,1,2344.899999976158,413685.8000000715,8032,VNB,B,6
7,test,4,1.0,1-Back,1,z,Wed May 21 2025 14:19:26 GMT-0500 (Central Daylight Time),418113.7000000477,020_y_f_d_a.png,I,z,1051,8,1,2079.0,416034.7000000477,8032,VNB,B,7
8,test,4,0.0,1-Back,1,m,Wed May 21 2025 14:19:26 GMT-0500 (Central Daylight Time),420262.7000000477,011_m_f_h_a.png,I,m,1120,9,1,2144.7000000476837,418118.0,8032,VNB,B,8
9,test,4,0.0,1-Back,1,z,Wed May 21 2025 14:19:26 GMT-0500 (Central Daylight Time),422512.10000002384,004_o_m_h_a.png,I,z,1226,10,1,2244.2999999523163,420267.8000000715,8032,VNB,B,9
10,test,4,1.0,1-Back,1,m,Wed May 21 2025 14:19:26 GMT-0500 (Central Daylight Time),424894.60000002384,005_o_f_n_a.png,I,m,1361,11,1,2378.600000023842,422516.0,8032,VNB,B,10
11,test,4,0.0,1-Back,1,m,Wed May 21 2025 14:19:26 GMT-0500 (Central Daylight Time),427327.39999997616,011_m_f_d_a.png,I,m,1403,12,1,2428.2999999523163,424899.10000002384,8032,VNB,B,11
12,test,4,0.0,1-Back,1,m,Wed May 21 2025 14:19:26 GMT-0500 (Central Daylight Time),430009.7000000477,020_y_f_n_a.png,I,m,1650,13,1,2678.5,427331.2000000477,8032,VNB,B,12
12,test,4,0.0,1-Back,0,m,Wed May 21 2025 14:19:26 GMT-0500 (Central Daylight Time),432392.7000000477,005_o_f_d_a.png,I,z,1351,14,1,2379.600000023842,430013.10000002384,8032,VNB,B,13
13,test,4,0.0,1-Back,1,m,Wed May 21 2025 14:19:26 GMT-0500 (Central Daylight Time),434858.0,020_y_f_h_a.png,I,m,1446,15,1,2461.6999999284744,432396.3000000715,8032,VNB,B,14
13,test,4,1.0,1-Back,0,z,Wed May 21 2025 14:19:26 GMT-0500 (Central Daylight Time),436640.89999997616,007_m_m_h_a.png,I,m,759,16,1,1778.7999999523163,434862.10000002384,8032,VNB,B,15
14,test,4,0.0,1-Back,1,m,Wed May 21 2025 14:19:26 GMT-0500 (Central Daylight Time),439656.7000000477,004_o_m_n_a.png,I,m,1992,17,1,3011.100000023842,436645.60000002384,8032,VNB,B,16
15,test,4,1.0,1-Back,1,z,Wed May 21 2025 14:19:26 GMT-0500 (Central Daylight Time),442022.7000000477,016_y_m_n_a.png,I,z,1337,18,1,2361.3000000715256,439661.39999997616,8032,VNB,B,17
0,test,5,1.0,1-Back,,,Wed May 21 2025 14:19:26 GMT-0500 (Central Daylight Time),442022.7000000477,004_o_m_n_a.png,I,space,4259,1,1,2361.3000000715256,439661.39999997616,8032,VNB,B,0
1,test,5,1.0,1-Back,1,m,Wed May 21 2025 14:19:26 GMT-0500 (Central Daylight Time),450553.60000002384,005_o_f_h_a.png,I,m,1225,2,1,2245.2000000476837,448308.39999997616,8032,VNB,B,1
2,test,5,0.0,1-Back,1,m,Wed May 21 2025 14:19:26 GMT-0500 (Central Daylight Time),452736.0,016_y_m_d_a.png,I,m,1158,3,1,2178.100000023842,450557.89999997616,8032,VNB,B,2
3,test,5,0.0,1-Back,1,z,Wed May 21 2025 14:19:26 GMT-0500 (Central Daylight Time),455418.2000000477,004_o_m_d_a.png,I,z,1664,4,1,2678.100000023842,452740.10000002384,8032,VNB,B,3
4,test,5,0.0,1-Back,1,m,Wed May 21 2025 14:19:26 GMT-0500 (Central Daylight Time),457484.5,011_m_f_h_a.png,I,m,1047,5,1,2062.2999999523163,455422.2000000477,8032,VNB,B,4
5,test,5,0.0,1-Back,1,m,Wed May 21 2025 14:19:26 GMT-0500 (Central Daylight Time),459833.8000000715,020_y_f_n_a.png,I,m,1317,6,1,2345.0,457488.8000000715,8032,VNB,B,5
6,test,5,1.0,1-Back,1,z,Wed May 21 2025 14:19:26 GMT-0500 (Central Daylight Time),461911.10000002384,005_o_f_n_a.png,I,z,1060,7,1,2074.100000023842,459837.0,8032,VNB,B,6
7,test,5,0.0,1-Back,1,m,Wed May 21 2025 14:19:26 GMT-0500 (Central Daylight Time),464165.60000002384,011_m_f_d_a.png,I,m,1221,8,1,2249.899999976158,461915.7000000477,8032,VNB,B,7
8,test,5,0.0,1-Back,1,m,Wed May 21 2025 14:19:26 GMT-0500 (Central Daylight Time),466281.8000000715,016_y_m_h_a.png,I,m,1091,9,1,2112.100000023842,464169.7000000477,8032,VNB,B,8
9,test,5,0.0,1-Back,1,m,Wed May 21 2025 14:19:26 GMT-0500 (Central Daylight Time),468447.89999997616,020_y_f_d_a.png,I,m,1136,10,1,2161.5,466286.39999997616,8032,VNB,B,9
10,test,5,0.0,1-Back,1,m,Wed May 21 2025 14:19:26 GMT-0500 (Central Daylight Time),471096.60000002384,007_m_m_n_a.png,I,m,1624,11,1,2644.5,468452.10000002384,8032,VNB,B,10
11,test,5,1.0,1-Back,1,z,Wed May 21 2025 14:19:26 GMT-0500 (Central Daylight Time),473646.0,011_m_f_n_a.png,I,z,1528,12,1,2545.1999999284744,471100.8000000715,8032,VNB,B,11
12,test,5,0.0,1-Back,1,m,Wed May 21 2025 14:19:26 GMT-0500 (Central Daylight Time),475711.89999997616,004_o_m_h_a.png,I,m,1035,13,1,2060.899999976158,473651.0,8032,VNB,B,12
13,test,5,0.0,1-Back,1,z,Wed May 21 2025 14:19:26 GMT-0500 (Central Daylight Time),478028.2000000477,007_m_m_h_a.png,I,z,1289,14,1,2311.7000000476837,475716.5,8032,VNB,B,13
14,test,5,1.0,1-Back,1,m,Wed May 21 2025 14:19:26 GMT-0500 (Central Daylight Time),480194.0,005_o_f_d_a.png,I,m,1133,15,1,2162.399999976158,478031.60000002384,8032,VNB,B,14
15,test,5,0.0,1-Back,1,m,Wed May 21 2025 14:19:26 GMT-0500 (Central Daylight Time),483060.0,016_y_m_n_a.png,I,m,1847,16,1,2861.5,480198.5,8032,VNB,B,15
16,test,5,0.0,1-Back,1,m,Wed May 21 2025 14:19:26 GMT-0500 (Central Daylight Time),485475.5,020_y_f_h_a.png,I,m,1394,17,1,2411.100000023842,483064.39999997616,8032,VNB,B,16
17,test,5,0.0,1-Back,1,m,Wed May 21 2025 14:19:26 GMT-0500 (Central Daylight Time),487758.39999997616,007_m_m_d_a.png,I,m,1253,18,1,2275.899999976158,485482.5,8032,VNB,B,17
0,prac,1,0.0,2-Back,,,Wed May 21 2025 14:19:26 GMT-0500 (Central Daylight Time),487758.39999997616,011_m_f_n_a.png,I,space,7258,1,1,2275.899999976158,485482.5,8032,VNB,B,0
0,prac,1,0.0,2-Back,,,Wed May 21 2025 14:19:26 GMT-0500 (Central Daylight Time),487758.39999997616,005_o_f_h_a.png,I,space,7258,2,1,2275.899999976158,485482.5,8032,VNB,B,0
0,prac,1,0.0,2-Back,0,m,Wed May 21 2025 14:19:26 GMT-0500 (Central Daylight Time),613169.1000000238,004_o_m_d_a.png,I,z,1732,3,1,2608.399999976158,610560.7000000477,8032,VNB,B,1
1,prac,1,1.0,2-Back,1,z,Wed May 21 2025 14:19:26 GMT-0500 (Central Daylight Time),615785.0,007_m_m_h_a.png,I,z,1705,4,1,2609.2999999523163,613175.7000000477,8032,VNB,B,2
1,prac,1,0.0,2-Back,0,m,Wed May 21 2025 14:19:26 GMT-0500 (Central Daylight Time),618667.5,020_y_f_n_a.png,I,None,2004,5,1,2875.7999999523163,615791.7000000477,8032,VNB,B,3
2,prac,1,1.0,2-Back,1,z,Wed May 21 2025 14:19:26 GMT-0500 (Central Daylight Time),621249.7000000477,004_o_m_h_a.png,I,z,1699,6,1,2577.0,618672.7000000477,8032,VNB,B,4
3,prac,1,1.0,2-Back,1,z,Wed May 21 2025 14:19:26 GMT-0500 (Central Daylight Time),623815.8999999762,016_y_m_n_a.png,I,z,1655,7,1,2559.7999999523163,621256.1000000238,8032,VNB,B,5
4,prac,1,0.0,2-Back,1,m,Wed May 21 2025 14:19:26 GMT-0500 (Central Daylight Time),626314.8999999762,011_m_f_d_a.png,I,m,1602,8,1,2492.6999999284744,623822.2000000477,8032,VNB,B,6
5,prac,1,0.0,2-Back,1,m,Wed May 21 2025 14:19:26 GMT-0500 (Central Daylight Time),628697.5,005_o_f_d_a.png,I,m,1479,9,1,2376.100000023842,626321.3999999762,8032,VNB,B,7
6,prac,1,0.0,2-Back,1,m,Wed May 21 2025 14:19:26 GMT-0500 (Central Daylight Time),631063.5,007_m_m_h_a.png,I,m,1585,10,1,2359.399999976158,628704.1000000238,8032,VNB,B,8
6,prac,1,1.0,2-Back,0,z,Wed May 21 2025 14:19:26 GMT-0500 (Central Daylight Time),633662.6000000238,020_y_f_d_a.png,I,m,1711,11,1,2592.7000000476837,631069.8999999762,8032,VNB,B,9
7,prac,1,0.0,2-Back,1,m,Wed May 21 2025 14:19:26 GMT-0500 (Central Daylight Time),636261.8000000715,004_o_m_n_a.png,I,m,1716,12,1,2594.100000023842,633667.7000000477,8032,VNB,B,10
0,test,1,0.0,2-Back,,,Wed May 21 2025 14:19:26 GMT-0500 (Central Daylight Time),636261.8000000715,016_y_m_h_a.png,I,space,13514,1,1,2594.100000023842,633667.7000000477,8032,VNB,B,0
0,test,1,0.0,2-Back,,,Wed May 21 2025 14:19:26 GMT-0500 (Central Daylight Time),636261.8000000715,005_o_f_n_a.png,I,space,13514,2,1,2594.100000023842,633667.7000000477,8032,VNB,B,0
1,test,1,0.0,2-Back,1,z,Wed May 21 2025 14:19:26 GMT-0500 (Central Daylight Time),664069.8999999762,004_o_m_h_a.png,I,z,1088,3,1,2112.5,661957.3999999762,8032,VNB,B,1
2,test,1,0.0,2-Back,1,m,Wed May 21 2025 14:19:26 GMT-0500 (Central Daylight Time),666452.3999999762,011_m_f_d_a.png,I,m,1354,4,1,2377.899999976158,664074.5,8032,VNB,B,2
3,test,1,1.0,2-Back,1,m,Wed May 21 2025 14:19:26 GMT-0500 (Central Daylight Time),668818.3999999762,016_y_m_n_a.png,I,m,1333,5,1,2362.1999999284744,666456.2000000477,8032,VNB,B,3
4,test,1,0.0,2-Back,1,z,Wed May 21 2025 14:19:26 GMT-0500 (Central Daylight Time),671334.0,020_y_f_d_a.png,I,z,1495,6,1,2511.5,668822.5,8032,VNB,B,4
5,test,1,0.0,2-Back,1,m,Wed May 21 2025 14:19:26 GMT-0500 (Central Daylight Time),674183.1000000238,007_m_m_h_a.png,I,m,1827,7,1,2845.0,671338.1000000238,8032,VNB,B,5
5,test,1,1.0,2-Back,0,m,Wed May 21 2025 14:19:26 GMT-0500 (Central Daylight Time),677049.0,020_y_f_n_a.png,I,z,1833,8,1,2862.0,674187.0,8032,VNB,B,6
5,test,1,0.0,2-Back,0,z,Wed May 21 2025 14:19:26 GMT-0500 (Central Daylight Time),680081.6000000238,005_o_f_h_a.png,I,None,2015,9,1,3029.2000000476837,677052.3999999762,8032,VNB,B,7
5,test,1,0.0,2-Back,0,m,Wed May 21 2025 14:19:26 GMT-0500 (Central Daylight Time),683113.8000000715,004_o_m_d_a.png,I,None,2016,10,1,3028.5,680085.3000000715,8032,VNB,B,8
6,test,1,1.0,2-Back,1,m,Wed May 21 2025 14:19:26 GMT-0500 (Central Daylight Time),685646.3999999762,007_m_m_d_a.png,I,m,1512,11,1,2528.5,683117.8999999762,8032,VNB,B,9
7,test,1,0.0,2-Back,1,m,Wed May 21 2025 14:19:26 GMT-0500 (Central Daylight Time),688162.2000000477,011_m_f_n_a.png,I,m,1499,12,1,2511.8000000715256,685650.3999999762,8032,VNB,B,10
8,test,1,0.0,2-Back,1,m,Wed May 21 2025 14:19:26 GMT-0500 (Central Daylight Time),691011.3000000715,020_y_f_h_a.png,I,m,1831,13,1,2845.100000023842,688166.2000000477,8032,VNB,B,11
9,test,1,0.0,2-Back,1,z,Wed May 21 2025 14:19:26 GMT-0500 (Central Daylight Time),693993.5,007_m_m_n_a.png,I,z,1950,14,1,2978.600000023842,691014.8999999762,8032,VNB,B,12
10,test,1,0.0,2-Back,1,m,Wed May 21 2025 14:19:26 GMT-0500 (Central Daylight Time),696776.1000000238,016_y_m_d_a.png,I,m,1752,15,1,2779.0,693997.1000000238,8032,VNB,B,13
10,test,1,1.0,2-Back,0,m,Wed May 21 2025 14:19:26 GMT-0500 (Central Daylight Time),699808.7000000477,011_m_f_h_a.png,I,None,2015,16,1,3028.399999976158,696780.3000000715,8032,VNB,B,14
10,test,1,0.0,2-Back,0,z,Wed May 21 2025 14:19:26 GMT-0500 (Central Daylight Time),702124.3000000715,005_o_f_d_a.png,I,m,1288,17,1,2310.7000000476837,699813.6000000238,8032,VNB,B,15
11,test,1,0.0,2-Back,1,m,Wed May 21 2025 14:19:26 GMT-0500 (Central Daylight Time),704773.7000000477,004_o_m_n_a.png,I,m,1621,18,1,2645.600000023842,702128.1000000238,8032,VNB,B,16
0,test,2,0.0,2-Back,,,Wed May 21 2025 14:19:26 GMT-0500 (Central Daylight Time),704773.7000000477,007_m_m_h_a.png,I,space,5020,1,1,2645.600000023842,702128.1000000238,8032,VNB,B,0
0,test,2,0.0,2-Back,,,Wed May 21 2025 14:19:26 GMT-0500 (Central Daylight Time),704773.7000000477,020_y_f_n_a.png,I,space,5020,2,1,2645.600000023842,702128.1000000238,8032,VNB,B,0
1,test,2,1.0,2-Back,1,z,Wed May 21 2025 14:19:26 GMT-0500 (Central Daylight Time),717120.0,005_o_f_h_a.png,I,z,1010,3,1,2028.7999999523163,715091.2000000477,8032,VNB,B,1
2,test,2,0.0,2-Back,1,m,Wed May 21 2025 14:19:26 GMT-0500 (Central Daylight Time),719618.7000000477,004_o_m_d_a.png,I,m,1481,4,1,2495.2000000476837,717123.5,8032,VNB,B,2
2,test,2,0.0,2-Back,0,m,Wed May 21 2025 14:19:26 GMT-0500 (Central Daylight Time),722651.5,011_m_f_d_a.png,I,None,2015,5,1,3029.1999999284744,719622.3000000715,8032,VNB,B,3
2,test,2,0.0,2-Back,0,m,Wed May 21 2025 14:19:26 GMT-0500 (Central Daylight Time),725217.2000000477,016_y_m_h_a.png,I,z,1542,6,1,2561.8000000715256,722655.3999999762,8032,VNB,B,4
2,test,2,0.0,2-Back,0,m,Wed May 21 2025 14:19:26 GMT-0500 (Central Daylight Time),727866.3999999762,005_o_f_n_a.png,I,z,1632,7,1,2645.5999999046326,725220.8000000715,8032,VNB,B,5
2,test,2,1.0,2-Back,0,z,Wed May 21 2025 14:19:26 GMT-0500 (Central Daylight Time),730898.8000000715,004_o_m_h_a.png,I,None,2016,8,1,3028.600000023842,727870.2000000477,8032,VNB,B,6
2,test,2,0.0,2-Back,0,m,Wed May 21 2025 14:19:26 GMT-0500 (Central Daylight Time),733931.3000000715,020_y_f_d_a.png,I,None,2016,9,1,3028.4000000953674,730902.8999999762,8032,VNB,B,7
3,test,2,0.0,2-Back,1,m,Wed May 21 2025 14:19:26 GMT-0500 (Central Daylight Time),736780.2000000477,016_y_m_d_a.png,I,m,1822,10,1,2844.5,733935.7000000477,8032,VNB,B,8
3,test,2,0.0,2-Back,0,m,Wed May 21 2025 14:19:26 GMT-0500 (Central Daylight Time),739229.5,007_m_m_n_a.png,I,z,1429,11,1,2445.0,736784.5,8032,VNB,B,9
4,test,2,0.0,2-Back,1,m,Wed May 21 2025 14:19:26 GMT-0500 (Central Daylight Time),741212.1000000238,011_m_f_h_a.png,I,m,963,12,1,1978.3999999761581,739233.7000000477,8032,VNB,B,10
5,test,2,1.0,2-Back,1,z,Wed May 21 2025 14:19:26 GMT-0500 (Central Daylight Time),743761.6000000238,004_o_m_n_a.png,I,z,1517,13,1,2545.7000000476837,741215.8999999762,8032,VNB,B,11
5,test,2,0.0,2-Back,0,m,Wed May 21 2025 14:19:26 GMT-0500 (Central Daylight Time),746061.0,005_o_f_d_a.png,I,z,1270,14,1,2295.6999999284744,743765.3000000715,8032,VNB,B,12
6,test,2,0.0,2-Back,1,m,Wed May 21 2025 14:19:26 GMT-0500 (Central Daylight Time),748843.0,020_y_f_h_a.png,I,m,1765,15,1,2778.100000023842,746064.8999999762,8032,VNB,B,13
7,test,2,0.0,2-Back,1,z,Wed May 21 2025 14:19:26 GMT-0500 (Central Daylight Time),751109.0,007_m_m_d_a.png,I,z,1246,16,1,2262.100000023842,748846.8999999762,8032,VNB,B,14
8,test,2,0.0,2-Back,1,m,Wed May 21 2025 14:19:26 GMT-0500 (Central Daylight Time),753508.3000000715,016_y_m_n_a.png,I,m,1372,17,1,2394.8000000715256,751113.5,8032,VNB,B,15
8,test,2,1.0,2-Back,0,m,Wed May 21 2025 14:19:26 GMT-0500 (Central Daylight Time),756224.1000000238,011_m_f_n_a.png,I,z,1684,18,1,2712.2000000476837,753511.8999999762,8032,VNB,B,16
0,test,3,1.0,2-Back,,,Wed May 21 2025 14:19:26 GMT-0500 (Central Daylight Time),756224.1000000238,004_o_m_n_a.png,I,space,6105,1,1,2712.2000000476837,753511.8999999762,8032,VNB,B,0
0,test,3,1.0,2-Back,,,Wed May 21 2025 14:19:26 GMT-0500 (Central Daylight Time),756224.1000000238,005_o_f_d_a.png,I,space,6105,2,1,2712.2000000476837,753511.8999999762,8032,VNB,B,0
1,test,3,0.0,2-Back,1,m,Wed May 21 2025 14:19:26 GMT-0500 (Central Daylight Time),769570.1000000238,020_y_f_h_a.png,I,m,1150,3,1,2179.100000023842,767391.0,8032,VNB,B,1
2,test,3,0.0,2-Back,1,z,Wed May 21 2025 14:19:26 GMT-0500 (Central Daylight Time),772119.1000000238,011_m_f_d_a.png,I,z,1526,4,1,2545.7000000476837,769573.3999999762,8032,VNB,B,2
3,test,3,1.0,2-Back,1,m,Wed May 21 2025 14:19:26 GMT-0500 (Central Daylight Time),774651.8999999762,016_y_m_n_a.png,I,m,1506,5,1,2529.0999999046326,772122.8000000715,8032,VNB,B,3
4,test,3,0.0,2-Back,1,m,Wed May 21 2025 14:19:26 GMT-0500 (Central Daylight Time),777484.0,004_o_m_h_a.png,I,m,1806,6,1,2828.399999976158,774655.6000000238,8032,VNB,B,4
5,test,3,0.0,2-Back,1,z,Wed May 21 2025 14:19:26 GMT-0500 (Central Daylight Time),779683.8999999762,020_y_f_n_a.png,I,z,1181,7,1,2196.399999976158,777487.5,8032,VNB,B,5
6,test,3,1.0,2-Back,1,m,Wed May 21 2025 14:19:26 GMT-0500 (Central Daylight Time),781966.1000000238,007_m_m_d_a.png,I,m,1254,8,1,2279.0,779687.1000000238,8032,VNB,B,6
6,test,3,0.0,2-Back,0,m,Wed May 21 2025 14:19:26 GMT-0500 (Central Daylight Time),784998.6000000238,016_y_m_d_a.png,I,None,2015,9,1,3028.0,781970.6000000238,8032,VNB,B,7
6,test,3,0.0,2-Back,0,m,Wed May 21 2025 14:19:26 GMT-0500 (Central Daylight Time),787780.8000000715,005_o_f_h_a.png,I,z,1755,10,1,2778.0,785002.8000000715,8032,VNB,B,8
6,test,3,1.0,2-Back,0,m,Wed May 21 2025 14:19:26 GMT-0500 (Central Daylight Time),790346.5,011_m_f_n_a.png,I,z,1548,11,1,2560.899999976158,787785.6000000238,8032,VNB,B,9
7,test,3,1.0,2-Back,1,z,Wed May 21 2025 14:19:26 GMT-0500 (Central Daylight Time),792962.5,007_m_m_h_a.png,I,z,1598,12,1,2612.1999999284744,790350.3000000715,8032,VNB,B,10
8,test,3,0.0,2-Back,1,m,Wed May 21 2025 14:19:26 GMT-0500 (Central Daylight Time),795711.6000000238,020_y_f_d_a.png,I,m,1719,13,1,2745.2000000476837,792966.3999999762,8032,VNB,B,11
9,test,3,0.0,2-Back,1,m,Wed May 21 2025 14:19:26 GMT-0500 (Central Daylight Time),798044.3999999762,005_o_f_n_a.png,I,m,1306,14,1,2328.1999999284744,795716.2000000477,8032,VNB,B,12
9,test,3,0.0,2-Back,0,z,Wed May 21 2025 14:19:26 GMT-0500 (Central Daylight Time),800760.5,004_o_m_d_a.png,I,m,1693,15,1,2712.7999999523163,798047.7000000477,8032,VNB,B,13
10,test,3,1.0,2-Back,1,m,Wed May 21 2025 14:19:26 GMT-0500 (Central Daylight Time),803509.3000000715,011_m_f_h_a.png,I,m,1729,16,1,2744.7000000476837,800764.6000000238,8032,VNB,B,14
10,test,3,0.0,2-Back,0,m,Wed May 21 2025 14:19:26 GMT-0500 (Central Daylight Time),805891.8000000715,007_m_m_n_a.png,I,z,1364,17,1,2378.9000000953674,803512.8999999762,8032,VNB,B,15
10,test,3,0.0,2-Back,0,z,Wed May 21 2025 14:19:26 GMT-0500 (Central Daylight Time),808324.3999999762,016_y_m_h_a.png,I,m,1405,18,1,2428.7999999523163,805895.6000000238,8032,VNB,B,16
0,test,4,0.0,2-Back,,,Wed May 21 2025 14:19:26 GMT-0500 (Central Daylight Time),808324.3999999762,011_m_f_n_a.png,I,space,5893,1,1,2428.7999999523163,805895.6000000238,8032,VNB,B,0
0,test,4,0.0,2-Back,,,Wed May 21 2025 14:19:26 GMT-0500 (Central Daylight Time),808324.3999999762,004_o_m_n_a.png,I,space,5893,2,1,2428.7999999523163,805895.6000000238,8032,VNB,B,0
1,test,4,1.0,2-Back,1,m,Wed May 21 2025 14:19:26 GMT-0500 (Central Daylight Time),821670.3000000715,016_y_m_h_a.png,I,m,1170,3,1,2195.2000000476837,819475.1000000238,8032,VNB,B,1
2,test,4,1.0,2-Back,1,m,Wed May 21 2025 14:19:26 GMT-0500 (Central Daylight Time),824352.8999999762,005_o_f_d_a.png,I,m,1659,4,1,2678.5,821674.3999999762,8032,VNB,B,2
3,test,4,0.0,2-Back,1,z,Wed May 21 2025 14:19:26 GMT-0500 (Central Daylight Time),826718.8000000715,004_o_m_h_a.png,I,z,1344,5,1,2361.3000000715256,824357.5,8032,VNB,B,3
3,test,4,0.0,2-Back,0,m,Wed May 21 2025 14:19:26 GMT-0500 (Central Daylight Time),829551.1000000238,007_m_m_n_a.png,I,z,1811,6,1,2828.399999976158,826722.7000000477,8032,VNB,B,4
4,test,4,0.0,2-Back,1,m,Wed May 21 2025 14:19:26 GMT-0500 (Central Daylight Time),832350.5,011_m_f_d_a.png,I,m,1770,7,1,2794.6999999284744,829555.8000000715,8032,VNB,B,5
5,test,4,0.0,2-Back,1,z,Wed May 21 2025 14:19:26 GMT-0500 (Central Daylight Time),834849.6000000238,020_y_f_n_a.png,I,z,1466,8,1,2494.600000023842,832355.0,8032,VNB,B,6
6,test,4,1.0,2-Back,1,m,Wed May 21 2025 14:19:26 GMT-0500 (Central Daylight Time),837231.8999999762,005_o_f_h_a.png,I,m,1360,9,1,2378.5,834853.3999999762,8032,VNB,B,7
6,test,4,0.0,2-Back,0,m,Wed May 21 2025 14:19:26 GMT-0500 (Central Daylight Time),840264.5,007_m_m_h_a.png,I,None,2015,10,1,3028.399999976158,837236.1000000238,8032,VNB,B,8
7,test,4,0.0,2-Back,1,m,Wed May 21 2025 14:19:26 GMT-0500 (Central Daylight Time),843046.8000000715,020_y_f_d_a.png,I,m,1753,11,1,2777.3000000715256,840269.5,8032,VNB,B,9
8,test,4,0.0,2-Back,1,m,Wed May 21 2025 14:19:26 GMT-0500 (Central Daylight Time),845612.8000000715,016_y_m_n_a.png,I,m,1538,12,1,2562.100000023842,843050.7000000477,8032,VNB,B,10
9,test,4,0.0,2-Back,1,z,Wed May 21 2025 14:19:26 GMT-0500 (Central Daylight Time),847795.3999999762,004_o_m_d_a.png,I,z,1156,13,1,2178.1999999284744,845617.2000000477,8032,VNB,B,11
10,test,4,1.0,2-Back,1,m,Wed May 21 2025 14:19:26 GMT-0500 (Central Daylight Time),850311.3000000715,011_m_f_h_a.png,I,m,1486,14,1,2512.0,847799.3000000715,8032,VNB,B,12
11,test,4,1.0,2-Back,1,m,Wed May 21 2025 14:19:26 GMT-0500 (Central Daylight Time),852510.8000000715,020_y_f_h_a.png,I,m,1178,15,1,2195.2000000476837,850315.6000000238,8032,VNB,B,13
12,test,4,0.0,2-Back,1,m,Wed May 21 2025 14:19:26 GMT-0500 (Central Daylight Time),854526.8000000715,005_o_f_n_a.png,I,m,987,16,1,2012.1000000238419,852514.7000000477,8032,VNB,B,14
13,test,4,0.0,2-Back,1,m,Wed May 21 2025 14:19:26 GMT-0500 (Central Daylight Time),856959.3999999762,016_y_m_d_a.png,I,m,1402,17,1,2428.5999999046326,854530.8000000715,8032,VNB,B,15
14,test,4,1.0,2-Back,1,m,Wed May 21 2025 14:19:26 GMT-0500 (Central Daylight Time),859891.6000000238,007_m_m_d_a.png,I,m,1914,18,1,2927.899999976158,856963.7000000477,8032,VNB,B,16
0,test,5,1.0,2-Back,,,Wed May 21 2025 14:19:26 GMT-0500 (Central Daylight Time),859891.6000000238,020_y_f_d_a.png,I,space,4470,1,1,2927.899999976158,856963.7000000477,8032,VNB,B,0
0,test,5,1.0,2-Back,,,Wed May 21 2025 14:19:26 GMT-0500 (Central Daylight Time),859891.6000000238,005_o_f_h_a.png,I,space,4470,2,1,2927.899999976158,856963.7000000477,8032,VNB,B,0
1,test,5,1.0,2-Back,1,z,Wed May 21 2025 14:19:26 GMT-0500 (Central Daylight Time),871571.1000000238,004_o_m_d_a.png,I,z,913,3,1,1928.5,869642.6000000238,8032,VNB,B,1
2,test,5,1.0,2-Back,1,m,Wed May 21 2025 14:19:26 GMT-0500 (Central Daylight Time),873637.3000000715,011_m_f_n_a.png,I,m,1038,4,1,2062.600000023842,871574.7000000477,8032,VNB,B,2
2,test,5,0.0,2-Back,0,m,Wed May 21 2025 14:19:26 GMT-0500 (Central Daylight Time),876653.0,007_m_m_h_a.png,I,z,1988,5,1,3012.0,873641.0,8032,VNB,B,3
2,test,5,0.0,2-Back,0,z,Wed May 21 2025 14:19:26 GMT-0500 (Central Daylight Time),879152.3999999762,020_y_f_n_a.png,I,m,1476,6,1,2495.5999999046326,876656.8000000715,8032,VNB,B,4
2,test,5,0.0,2-Back,0,m,Wed May 21 2025 14:19:26 GMT-0500 (Central Daylight Time),881518.1000000238,005_o_f_d_a.png,I,z,1337,7,1,2361.600000023842,879156.5,8032,VNB,B,5
3,test,5,0.0,2-Back,1,m,Wed May 21 2025 14:19:26 GMT-0500 (Central Daylight Time),883400.8000000715,004_o_m_h_a.png,I,m,859,8,1,1878.9000000953674,881521.8999999762,8032,VNB,B,6
3,test,5,1.0,2-Back,0,z,Wed May 21 2025 14:19:26 GMT-0500 (Central Daylight Time),885566.8999999762,011_m_f_d_a.png,I,m,1144,9,1,2162.0,883404.8999999762,8032,VNB,B,7
3,test,5,0.0,2-Back,0,m,Wed May 21 2025 14:19:26 GMT-0500 (Central Daylight Time),888299.5,016_y_m_n_a.png,I,z,1714,10,1,2728.7999999523163,885570.7000000477,8032,VNB,B,8
3,test,5,0.0,2-Back,0,m,Wed May 21 2025 14:19:26 GMT-0500 (Central Daylight Time),891115.2000000477,007_m_m_n_a.png,I,z,1798,11,1,2811.7000000476837,888303.5,8032,VNB,B,9
4,test,5,0.0,2-Back,1,m,Wed May 21 2025 14:19:26 GMT-0500 (Central Daylight Time),894080.8000000715,020_y_f_h_a.png,I,m,1934,12,1,2961.7000000476837,891119.1000000238,8032,VNB,B,10
4,test,5,0.0,2-Back,0,m,Wed May 21 2025 14:19:26 GMT-0500 (Central Daylight Time),897113.3000000715,016_y_m_d_a.png,I,None,2015,13,1,3029.0,894084.3000000715,8032,VNB,B,11
5,test,5,1.0,2-Back,1,z,Wed May 21 2025 14:19:26 GMT-0500 (Central Daylight Time),899395.8999999762,011_m_f_h_a.png,I,z,1256,14,1,2278.899999976158,897117.0,8032,VNB,B,12
5,test,5,0.0,2-Back,0,m,Wed May 21 2025 14:19:26 GMT-0500 (Central Daylight Time),902128.5,004_o_m_n_a.png,I,z,1701,15,1,2728.1999999284744,899400.3000000715,8032,VNB,B,13
5,test,5,0.0,2-Back,0,m,Wed May 21 2025 14:19:26 GMT-0500 (Central Daylight Time),904710.8000000715,007_m_m_d_a.png,I,z,1552,16,1,2578.5,902132.3000000715,8032,VNB,B,14
5,test,5,0.0,2-Back,0,z,Wed May 21 2025 14:19:26 GMT-0500 (Central Daylight Time),907293.6000000238,005_o_f_n_a.png,I,m,1562,17,1,2579.399999976158,904714.2000000477,8032,VNB,B,15
6,test,5,1.0,2-Back,1,m,Wed May 21 2025 14:19:26 GMT-0500 (Central Daylight Time),909587.5,016_y_m_h_a.png,I,m,1276,18,1,2290.2999999523163,907297.2000000477,8032,VNB,B,16
