acc_sum,block,block_c,block_cond,con_img,correct,correct_response,datetime,endtime,face,jitter,line,project,response,response_time,row_sel,session_number,start_end,starttime,subject_id,task,task_vers,trial
0,prac,1,A,haborder.png,0,z,Mon Dec 22 2025 12:43:43 GMT-0600 (Central Standard Time),77399.29999995232,CFD-WF-037-016-A.jpg,1600,solid,I,None,1516,10,1,3898.5999999046326,73500.70000004768,8088,ATS,C,1
1,prac,1,A,haborder.png,1,z,Mon Dec 22 2025 12:43:43 GMT-0600 (Central Standard Time),81015.20000004768,CFD-WM-036-018-A.jpg,1900,solid,I,z,902,8,1,7514.5,73500.70000004768,8088,ATS,C,2
2,prac,1,A,haborder.png,1,m,Mon Dec 22 2025 12:43:43 GMT-0600 (Central Standard Time),83964.10000014305,CFD-BM-022-004-HC.jpg,1500,solid,I,m,650,3,1,10463.400000095367,73500.70000004768,8088,ATS,C,3
3,prac,1,A,haborder.png,1,z,Mon Dec 22 2025 12:43:43 GMT-0600 (Central Standard Time),86513.40000009537,CFD-BF-031-020-A.jpg,1000,solid,I,z,753,4,1,13012.700000047684,73500.70000004768,8088,ATS,C,4
4,prac,1,A,haborder.png,1,m,Mon Dec 22 2025 12:43:43 GMT-0600 (Central Standard Time),89579.10000014305,CFD-WF-013-009-HC.jpg,1500,solid,I,m,776,11,1,16078.400000095367,73500.70000004768,8088,ATS,C,5
5,prac,1,A,haborder.png,1,z,Mon Dec 22 2025 12:43:43 GMT-0600 (Central Standard Time),92261.20000004768,CFD-BF-002-018-A.jpg,1200,solid,I,z,690,6,1,18760.5,73500.70000004768,8088,ATS,C,6
6,prac,1,A,haborder.png,1,z,Mon Dec 22 2025 12:43:43 GMT-0600 (Central Standard Time),95793.90000009537,CFD-BM-043-014-A.jpg,1600,solid,I,z,1144,2,1,22293.200000047684,73500.70000004768,8088,ATS,C,7
7,prac,1,A,haborder.png,1,m,Mon Dec 22 2025 12:43:43 GMT-0600 (Central Standard Time),98959.29999995232,CFD-WM-035-036-HC.jpg,1700,solid,I,m,672,9,1,25458.599999904633,73500.70000004768,8088,ATS,C,8
8,prac,1,A,haborder.png,1,m,Mon Dec 22 2025 12:43:43 GMT-0600 (Central Standard Time),102424.90000009537,CFD-BF-019-004-HC.jpg,2000,solid,I,m,670,5,1,28924.200000047684,73500.70000004768,8088,ATS,C,9
9,prac,1,A,haborder.png,1,z,Mon Dec 22 2025 12:43:43 GMT-0600 (Central Standard Time),105473.90000009537,CFD-WF-023-013-A.jpg,1000,solid,I,z,1260,12,1,31973.200000047684,73500.70000004768,8088,ATS,C,10
10,prac,1,A,haborder.png,1,m,Mon Dec 22 2025 12:43:43 GMT-0600 (Central Standard Time),108406.29999995232,CFD-WM-028-005-HC.jpg,1400,solid,I,m,738,7,1,34905.59999990463,73500.70000004768,8088,ATS,C,11
11,prac,1,A,haborder.png,1,m,Mon Dec 22 2025 12:43:43 GMT-0600 (Central Standard Time),111588.90000009537,CFD-BM-034-035-HC.jpg,1700,solid,I,m,698,1,1,38088.200000047684,73500.70000004768,8088,ATS,C,12
1,prac,1,B,mfborder.png,1,m,Mon Dec 22 2025 12:43:43 GMT-0600 (Central Standard Time),142762.29999995232,CFD-WM-035-036-HC.jpg,1600,10,I,m,1219,dash,1,3615.399999856949,139146.90000009537,8088,ATS,C,1
1,prac,1,B,mfborder.png,0,z,Mon Dec 22 2025 12:43:43 GMT-0600 (Central Standard Time),145961.5,CFD-BF-019-004-HC.jpg,1400,7,I,m,1011,dash,1,6814.599999904633,139146.90000009537,8088,ATS,C,2
1,prac,1,B,mfborder.png,0,m,Mon Dec 22 2025 12:43:43 GMT-0600 (Central Standard Time),149923.29999995232,CFD-BM-021-026-A.jpg,1600,2,I,None,1515,dash,1,10776.399999856949,139146.90000009537,8088,ATS,C,3
2,prac,1,B,mfborder.png,1,m,Mon Dec 22 2025 12:43:43 GMT-0600 (Central Standard Time),153392.20000004768,CFD-BM-022-004-HC.jpg,1700,1,I,m,971,dash,1,14245.299999952316,139146.90000009537,8088,ATS,C,4
3,prac,1,B,mfborder.png,1,z,Mon Dec 22 2025 12:43:43 GMT-0600 (Central Standard Time),155875.10000014305,CFD-BF-031-020-A.jpg,1000,4,I,z,693,dash,1,16728.200000047684,139146.90000009537,8088,ATS,C,5
4,prac,1,B,mfborder.png,1,z,Mon Dec 22 2025 12:43:43 GMT-0600 (Central Standard Time),158890.5,CFD-WF-037-016-A.jpg,1500,11,I,z,726,dash,1,19743.599999904633,139146.90000009537,8088,ATS,C,6
5,prac,1,B,mfborder.png,1,z,Mon Dec 22 2025 12:43:43 GMT-0600 (Central Standard Time),161889.70000004768,CFD-BF-042-031-HC.jpg,1500,3,I,z,703,dash,1,22742.799999952316,139146.90000009537,8088,ATS,C,7
6,prac,1,B,mfborder.png,1,m,Mon Dec 22 2025 12:43:43 GMT-0600 (Central Standard Time),165405.29999995232,CFD-BM-043-014-A.jpg,2000,5,I,m,724,dash,1,26258.39999985695,139146.90000009537,8088,ATS,C,8
7,prac,1,B,mfborder.png,1,z,Mon Dec 22 2025 12:43:43 GMT-0600 (Central Standard Time),167787.5,CFD-WF-013-009-HC.jpg,1000,12,I,z,584,dash,1,28640.599999904633,139146.90000009537,8088,ATS,C,9
7,prac,1,B,mfborder.png,0,m,Mon Dec 22 2025 12:43:43 GMT-0600 (Central Standard Time),170603.70000004768,CFD-WM-034-040-A.jpg,1200,6,I,z,826,dash,1,31456.799999952316,139146.90000009537,8088,ATS,C,10
8,prac,1,B,mfborder.png,1,z,Mon Dec 22 2025 12:43:43 GMT-0600 (Central Standard Time),173985.79999995232,CFD-WF-001-010-HC.jpg,1900,8,I,z,694,dash,1,34838.89999985695,139146.90000009537,8088,ATS,C,11
9,prac,1,B,mfborder.png,1,m,Mon Dec 22 2025 12:43:43 GMT-0600 (Central Standard Time),177434.79999995232,CFD-WM-036-018-A.jpg,1700,9,I,m,952,dash,1,38287.89999985695,139146.90000009537,8088,ATS,C,12
0,test,1,A,haborder.png,0,z,Mon Dec 22 2025 12:43:43 GMT-0600 (Central Standard Time),245680.10000014305,CFD-BM-043-014-A.jpg,1600,solid,I,m,731,2,1,2349.300000190735,243330.79999995232,8088,ATS,C,1
1,test,1,A,haborder.png,1,m,Mon Dec 22 2025 12:43:43 GMT-0600 (Central Standard Time),247846.0,CFD-BM-022-004-HC.jpg,1500,solid,I,m,633,3,1,4515.200000047684,243330.79999995232,8088,ATS,C,2
2,test,1,A,haborder.png,1,m,Mon Dec 22 2025 12:43:43 GMT-0600 (Central Standard Time),250211.79999995232,CFD-BM-022-004-HC.jpg,1500,solid,I,m,843,3,1,6881.0,243330.79999995232,8088,ATS,C,3
3,test,1,A,haborder.png,1,m,Mon Dec 22 2025 12:43:43 GMT-0600 (Central Standard Time),252578.20000004768,CFD-WM-035-036-HC.jpg,1700,solid,I,m,637,9,1,9247.400000095367,243330.79999995232,8088,ATS,C,4
4,test,1,A,haborder.png,1,z,Mon Dec 22 2025 12:43:43 GMT-0600 (Central Standard Time),254810.40000009537,CFD-WF-037-016-A.jpg,1600,solid,I,z,604,10,1,11479.600000143051,243330.79999995232,8088,ATS,C,5
5,test,1,A,haborder.png,1,m,Mon Dec 22 2025 12:43:43 GMT-0600 (Central Standard Time),257426.20000004768,CFD-WM-035-036-HC.jpg,1700,solid,I,m,896,9,1,14095.400000095367,243330.79999995232,8088,ATS,C,6
6,test,1,A,haborder.png,1,m,Mon Dec 22 2025 12:43:43 GMT-0600 (Central Standard Time),259825.5,CFD-BM-034-035-HC.jpg,1700,solid,I,m,679,1,1,16494.700000047684,243330.79999995232,8088,ATS,C,7
7,test,1,A,haborder.png,1,z,Mon Dec 22 2025 12:43:43 GMT-0600 (Central Standard Time),261575.20000004768,CFD-WF-023-013-A.jpg,1000,solid,I,z,724,12,1,18244.400000095367,243330.79999995232,8088,ATS,C,8
8,test,1,A,haborder.png,1,m,Mon Dec 22 2025 12:43:43 GMT-0600 (Central Standard Time),263857.5,CFD-WF-013-009-HC.jpg,1500,solid,I,m,762,11,1,20526.700000047684,243330.79999995232,8088,ATS,C,9
9,test,1,A,haborder.png,1,m,Mon Dec 22 2025 12:43:43 GMT-0600 (Central Standard Time),265923.90000009537,CFD-WM-028-005-HC.jpg,1400,solid,I,m,636,7,1,22593.10000014305,243330.79999995232,8088,ATS,C,10
10,test,1,A,haborder.png,1,z,Mon Dec 22 2025 12:43:43 GMT-0600 (Central Standard Time),268041.90000009537,CFD-BM-043-014-A.jpg,1600,solid,I,z,498,2,1,24711.10000014305,243330.79999995232,8088,ATS,C,11
11,test,1,A,haborder.png,1,z,Mon Dec 22 2025 12:43:43 GMT-0600 (Central Standard Time),269672.60000014305,CFD-BF-031-020-A.jpg,1000,solid,I,z,597,4,1,26341.800000190735,243330.79999995232,8088,ATS,C,12
12,test,1,A,haborder.png,1,m,Mon Dec 22 2025 12:43:43 GMT-0600 (Central Standard Time),272521.7000000477,CFD-BF-019-004-HC.jpg,2000,solid,I,m,830,5,1,29190.900000095367,243330.79999995232,8088,ATS,C,13
13,test,1,A,haborder.png,1,z,Mon Dec 22 2025 12:43:43 GMT-0600 (Central Standard Time),274571.10000014305,CFD-BF-002-018-A.jpg,1200,solid,I,z,820,6,1,31240.300000190735,243330.79999995232,8088,ATS,C,14
14,test,1,A,haborder.png,1,z,Mon Dec 22 2025 12:43:43 GMT-0600 (Central Standard Time),276220.60000014305,CFD-BF-031-020-A.jpg,1000,solid,I,z,618,4,1,32889.800000190735,243330.79999995232,8088,ATS,C,15
15,test,1,A,haborder.png,1,z,Mon Dec 22 2025 12:43:43 GMT-0600 (Central Standard Time),277936.7999999523,CFD-WF-023-013-A.jpg,1000,solid,I,z,689,12,1,34606.0,243330.79999995232,8088,ATS,C,16
16,test,1,A,haborder.png,1,m,Mon Dec 22 2025 12:43:43 GMT-0600 (Central Standard Time),280252.90000009537,CFD-BM-034-035-HC.jpg,1700,solid,I,m,585,1,1,36922.10000014305,243330.79999995232,8088,ATS,C,17
17,test,1,A,haborder.png,1,z,Mon Dec 22 2025 12:43:43 GMT-0600 (Central Standard Time),282551.7999999523,CFD-WF-037-016-A.jpg,1600,solid,I,z,681,10,1,39221.0,243330.79999995232,8088,ATS,C,18
18,test,1,A,haborder.png,1,m,Mon Dec 22 2025 12:43:43 GMT-0600 (Central Standard Time),285134.2999999523,CFD-WF-013-009-HC.jpg,1500,solid,I,m,1050,11,1,41803.5,243330.79999995232,8088,ATS,C,19
19,test,1,A,haborder.png,1,m,Mon Dec 22 2025 12:43:43 GMT-0600 (Central Standard Time),287250.60000014305,CFD-WM-028-005-HC.jpg,1400,solid,I,m,696,7,1,43919.800000190735,243330.79999995232,8088,ATS,C,20
20,test,1,A,haborder.png,1,z,Mon Dec 22 2025 12:43:43 GMT-0600 (Central Standard Time),289765.90000009537,CFD-WM-036-018-A.jpg,1900,solid,I,z,599,8,1,46435.10000014305,243330.79999995232,8088,ATS,C,21
21,test,1,A,haborder.png,1,m,Mon Dec 22 2025 12:43:43 GMT-0600 (Central Standard Time),292548.60000014305,CFD-BF-019-004-HC.jpg,2000,solid,I,m,750,5,1,49217.800000190735,243330.79999995232,8088,ATS,C,22
22,test,1,A,haborder.png,1,z,Mon Dec 22 2025 12:43:43 GMT-0600 (Central Standard Time),295347.90000009537,CFD-WM-036-018-A.jpg,1900,solid,I,z,877,8,1,52017.10000014305,243330.79999995232,8088,ATS,C,23
23,test,1,A,haborder.png,1,z,Mon Dec 22 2025 12:43:43 GMT-0600 (Central Standard Time),297413.90000009537,CFD-BF-002-018-A.jpg,1200,solid,I,z,841,6,1,54083.10000014305,243330.79999995232,8088,ATS,C,24
1,test,1,B,mfborder.png,1,z,Mon Dec 22 2025 12:43:43 GMT-0600 (Central Standard Time),309327.0,CFD-BF-019-004-HC.jpg,1400,dash,I,z,624,7,1,2049.399999856949,307277.60000014305,8088,ATS,C,1
2,test,1,B,mfborder.png,1,m,Mon Dec 22 2025 12:43:43 GMT-0600 (Central Standard Time),312109.10000014305,CFD-BM-043-014-A.jpg,2000,dash,I,m,759,5,1,4831.5,307277.60000014305,8088,ATS,C,2
3,test,1,B,mfborder.png,1,z,Mon Dec 22 2025 12:43:43 GMT-0600 (Central Standard Time),314408.40000009537,CFD-WF-037-016-A.jpg,1500,dash,I,z,780,11,1,7130.799999952316,307277.60000014305,8088,ATS,C,3
4,test,1,B,mfborder.png,1,z,Mon Dec 22 2025 12:43:43 GMT-0600 (Central Standard Time),316741.2999999523,CFD-BF-042-031-HC.jpg,1500,dash,I,z,801,3,1,9463.699999809265,307277.60000014305,8088,ATS,C,4
5,test,1,B,mfborder.png,1,m,Mon Dec 22 2025 12:43:43 GMT-0600 (Central Standard Time),318990.5,CFD-BM-021-026-A.jpg,1600,dash,I,m,632,2,1,11712.899999856949,307277.60000014305,8088,ATS,C,5
6,test,1,B,mfborder.png,1,z,Mon Dec 22 2025 12:43:43 GMT-0600 (Central Standard Time),321089.7999999523,CFD-BF-019-004-HC.jpg,1400,dash,I,z,671,7,1,13812.199999809265,307277.60000014305,8088,ATS,C,6
7,test,1,B,mfborder.png,1,z,Mon Dec 22 2025 12:43:43 GMT-0600 (Central Standard Time),323339.0,CFD-BF-042-031-HC.jpg,1500,dash,I,z,719,3,1,16061.399999856949,307277.60000014305,8088,ATS,C,7
8,test,1,B,mfborder.png,1,z,Mon Dec 22 2025 12:43:43 GMT-0600 (Central Standard Time),325455.10000014305,CFD-WF-037-016-A.jpg,1500,dash,I,z,590,11,1,18177.5,307277.60000014305,8088,ATS,C,8
9,test,1,B,mfborder.png,1,m,Mon Dec 22 2025 12:43:43 GMT-0600 (Central Standard Time),327454.7000000477,CFD-WM-034-040-A.jpg,1200,dash,I,m,766,6,1,20177.099999904633,307277.60000014305,8088,ATS,C,9
10,test,1,B,mfborder.png,1,z,Mon Dec 22 2025 12:43:43 GMT-0600 (Central Standard Time),329970.5,CFD-WF-001-010-HC.jpg,1900,dash,I,z,596,8,1,22692.89999985695,307277.60000014305,8088,ATS,C,10
11,test,1,B,mfborder.png,1,m,Mon Dec 22 2025 12:43:43 GMT-0600 (Central Standard Time),332002.90000009537,CFD-WM-034-040-A.jpg,1200,dash,I,m,803,6,1,24725.299999952316,307277.60000014305,8088,ATS,C,11
12,test,1,B,mfborder.png,1,z,Mon Dec 22 2025 12:43:43 GMT-0600 (Central Standard Time),333770.2000000477,CFD-BF-031-020-A.jpg,1000,dash,I,z,747,4,1,26492.599999904633,307277.60000014305,8088,ATS,C,12
13,test,1,B,mfborder.png,1,m,Mon Dec 22 2025 12:43:43 GMT-0600 (Central Standard Time),336451.7999999523,CFD-WM-036-018-A.jpg,1700,dash,I,m,952,9,1,29174.199999809265,307277.60000014305,8088,ATS,C,13
14,test,1,B,mfborder.png,1,z,Mon Dec 22 2025 12:43:43 GMT-0600 (Central Standard Time),338167.7000000477,CFD-WF-013-009-HC.jpg,1000,dash,I,z,698,12,1,30890.099999904633,307277.60000014305,8088,ATS,C,14
15,test,1,B,mfborder.png,1,m,Mon Dec 22 2025 12:43:43 GMT-0600 (Central Standard Time),340533.90000009537,CFD-BM-022-004-HC.jpg,1700,dash,I,m,634,1,1,33256.299999952316,307277.60000014305,8088,ATS,C,15
16,test,1,B,mfborder.png,1,m,Mon Dec 22 2025 12:43:43 GMT-0600 (Central Standard Time),342733.2999999523,CFD-WM-035-036-HC.jpg,1600,dash,I,m,567,10,1,35455.699999809265,307277.60000014305,8088,ATS,C,16
17,test,1,B,mfborder.png,1,m,Mon Dec 22 2025 12:43:43 GMT-0600 (Central Standard Time),345083.5,CFD-WM-036-018-A.jpg,1700,dash,I,m,615,9,1,37805.89999985695,307277.60000014305,8088,ATS,C,17
18,test,1,B,mfborder.png,1,z,Mon Dec 22 2025 12:43:43 GMT-0600 (Central Standard Time),347014.7999999523,CFD-BF-031-020-A.jpg,1000,dash,I,z,916,4,1,39737.199999809265,307277.60000014305,8088,ATS,C,18
19,test,1,B,mfborder.png,1,m,Mon Dec 22 2025 12:43:43 GMT-0600 (Central Standard Time),349331.0,CFD-WM-035-036-HC.jpg,1600,dash,I,m,687,10,1,42053.39999985695,307277.60000014305,8088,ATS,C,19
20,test,1,B,mfborder.png,1,m,Mon Dec 22 2025 12:43:43 GMT-0600 (Central Standard Time),351563.7000000477,CFD-BM-021-026-A.jpg,1600,dash,I,m,612,2,1,44286.09999990463,307277.60000014305,8088,ATS,C,20
21,test,1,B,mfborder.png,1,m,Mon Dec 22 2025 12:43:43 GMT-0600 (Central Standard Time),354179.40000009537,CFD-BM-043-014-A.jpg,2000,dash,I,m,594,5,1,46901.799999952316,307277.60000014305,8088,ATS,C,21
22,test,1,B,mfborder.png,1,z,Mon Dec 22 2025 12:43:43 GMT-0600 (Central Standard Time),355795.5,CFD-WF-013-009-HC.jpg,1000,dash,I,z,586,12,1,48517.89999985695,307277.60000014305,8088,ATS,C,22
23,test,1,B,mfborder.png,1,m,Mon Dec 22 2025 12:43:43 GMT-0600 (Central Standard Time),358061.60000014305,CFD-BM-022-004-HC.jpg,1700,dash,I,m,534,1,1,50784.0,307277.60000014305,8088,ATS,C,23
24,test,1,B,mfborder.png,1,z,Mon Dec 22 2025 12:43:43 GMT-0600 (Central Standard Time),360560.90000009537,CFD-WF-001-010-HC.jpg,1900,dash,I,z,580,8,1,53283.299999952316,307277.60000014305,8088,ATS,C,24
1,prac,1,C,mfborder.png,1,z,Mon Dec 22 2025 12:43:43 GMT-0600 (Central Standard Time),426423.5,CFD-WF-013-009-HC.jpg,1600,dash,I,z,1346,8,1,3732.0,422691.5,8088,ATS,C,1
1,prac,1,C,haborder.png,0,m,Mon Dec 22 2025 12:43:43 GMT-0600 (Central Standard Time),430122.2999999523,CFD-WM-028-005-HC.jpg,1400,solid,I,None,1516,8,1,7430.799999952316,422691.5,8088,ATS,C,2
2,prac,1,C,mfborder.png,1,z,Mon Dec 22 2025 12:43:43 GMT-0600 (Central Standard Time),433050.2999999523,CFD-BF-019-004-HC.jpg,1000,dash,I,z,1075,8,1,10358.799999952316,422691.5,8088,ATS,C,3
3,prac,1,C,haborder.png,1,m,Mon Dec 22 2025 12:43:43 GMT-0600 (Central Standard Time),435504.0,CFD-WM-028-005-HC.jpg,1000,dash,I,m,655,8,1,12812.5,422691.5,8088,ATS,C,4
4,prac,1,C,mfborder.png,1,m,Mon Dec 22 2025 12:43:43 GMT-0600 (Central Standard Time),439269.5,CFD-BM-034-035-HC.jpg,2000,solid,I,m,973,8,1,16578.0,422691.5,8088,ATS,C,5
5,prac,1,C,haborder.png,1,z,Mon Dec 22 2025 12:43:43 GMT-0600 (Central Standard Time),442768.60000014305,CFD-BF-031-020-A.jpg,1900,dash,I,z,812,8,1,20077.10000014305,422691.5,8088,ATS,C,6
6,prac,1,C,haborder.png,1,z,Mon Dec 22 2025 12:43:43 GMT-0600 (Central Standard Time),445934.2999999523,CFD-BF-002-018-A.jpg,1700,solid,I,z,673,8,1,23242.799999952316,422691.5,8088,ATS,C,7
7,prac,1,C,mfborder.png,1,m,Mon Dec 22 2025 12:43:43 GMT-0600 (Central Standard Time),448916.40000009537,CFD-BM-043-014-A.jpg,1200,dash,I,m,983,8,1,26224.900000095367,422691.5,8088,ATS,C,8
8,prac,1,C,haborder.png,1,m,Mon Dec 22 2025 12:43:43 GMT-0600 (Central Standard Time),451965.60000014305,CFD-BM-022-004-HC.jpg,1500,solid,I,m,765,8,1,29274.10000014305,422691.5,8088,ATS,C,9
9,prac,1,C,haborder.png,1,z,Mon Dec 22 2025 12:43:43 GMT-0600 (Central Standard Time),455364.40000009537,CFD-WF-037-016-A.jpg,1600,dash,I,z,1008,8,1,32672.900000095367,422691.5,8088,ATS,C,10
10,prac,1,C,mfborder.png,1,m,Mon Dec 22 2025 12:43:43 GMT-0600 (Central Standard Time),458613.60000014305,CFD-WM-036-018-A.jpg,1700,solid,I,m,750,8,1,35922.10000014305,422691.5,8088,ATS,C,11
11,prac,1,C,mfborder.png,1,z,Mon Dec 22 2025 12:43:43 GMT-0600 (Central Standard Time),461679.10000014305,CFD-WF-023-013-A.jpg,1500,solid,I,z,772,8,1,38987.60000014305,422691.5,8088,ATS,C,12
0,test,1,C,haborder.png,0,m,Mon Dec 22 2025 12:43:43 GMT-0600 (Central Standard Time),497534.2000000477,CFD-WF-013-009-HC.jpg,1000,solid,I,z,899,12,1,1915.5999999046326,495618.60000014305,8088,ATS,C,1
0,test,1,C,mfborder.png,0,z,Mon Dec 22 2025 12:43:43 GMT-0600 (Central Standard Time),500233.7000000477,CFD-WF-037-016-A.jpg,1500,dash,I,m,1171,3,1,4615.099999904633,495618.60000014305,8088,ATS,C,2
0,test,1,C,haborder.png,0,z,Mon Dec 22 2025 12:43:43 GMT-0600 (Central Standard Time),503597.2000000477,CFD-BM-021-026-A.jpg,1700,solid,I,None,1647,9,1,7978.599999904633,495618.60000014305,8088,ATS,C,3
0,test,1,C,haborder.png,0,z,Mon Dec 22 2025 12:43:43 GMT-0600 (Central Standard Time),506531.90000009537,CFD-WM-036-018-A.jpg,1400,solid,I,None,1516,7,1,10913.299999952316,495618.60000014305,8088,ATS,C,4
0,test,1,C,mfborder.png,0,m,Mon Dec 22 2025 12:43:43 GMT-0600 (Central Standard Time),509597.5,CFD-WM-034-040-A.jpg,2000,dash,I,z,1034,5,1,13978.899999856949,495618.60000014305,8088,ATS,C,5
0,test,1,C,mfborder.png,0,m,Mon Dec 22 2025 12:43:43 GMT-0600 (Central Standard Time),512329.90000009537,CFD-BM-022-004-HC.jpg,1200,dash,I,None,1516,6,1,16711.299999952316,495618.60000014305,8088,ATS,C,6
1,test,1,C,mfborder.png,1,z,Mon Dec 22 2025 12:43:43 GMT-0600 (Central Standard Time),514745.90000009537,CFD-BF-031-020-A.jpg,1600,dash,I,z,796,2,1,19127.299999952316,495618.60000014305,8088,ATS,C,7
1,test,1,C,haborder.png,0,m,Mon Dec 22 2025 12:43:43 GMT-0600 (Central Standard Time),517361.7000000477,CFD-WF-001-010-HC.jpg,1500,solid,I,z,1096,11,1,21743.099999904633,495618.60000014305,8088,ATS,C,8
1,test,1,C,haborder.png,0,z,Mon Dec 22 2025 12:43:43 GMT-0600 (Central Standard Time),520410.60000014305,CFD-BM-021-026-A.jpg,1700,solid,I,m,1328,9,1,24792.0,495618.60000014305,8088,ATS,C,9
1,test,1,C,mfborder.png,0,z,Mon Dec 22 2025 12:43:43 GMT-0600 (Central Standard Time),523643.0,CFD-BF-042-031-HC.jpg,1700,dash,I,None,1516,1,1,28024.39999985695,495618.60000014305,8088,ATS,C,10
2,test,1,C,mfborder.png,1,z,Mon Dec 22 2025 12:43:43 GMT-0600 (Central Standard Time),526742.2999999523,CFD-BF-042-031-HC.jpg,1700,dash,I,z,1376,1,1,31123.699999809265,495618.60000014305,8088,ATS,C,11
3,test,1,C,mfborder.png,1,m,Mon Dec 22 2025 12:43:43 GMT-0600 (Central Standard Time),528741.5,CFD-WM-035-036-HC.jpg,1000,dash,I,m,968,4,1,33122.89999985695,495618.60000014305,8088,ATS,C,12
4,test,1,C,mfborder.png,1,m,Mon Dec 22 2025 12:43:43 GMT-0600 (Central Standard Time),530790.5,CFD-WM-035-036-HC.jpg,1000,dash,I,m,1032,4,1,35171.89999985695,495618.60000014305,8088,ATS,C,13
5,test,1,C,mfborder.png,1,m,Mon Dec 22 2025 12:43:43 GMT-0600 (Central Standard Time),533573.4000000954,CFD-WM-034-040-A.jpg,2000,dash,I,m,759,5,1,37954.799999952316,495618.60000014305,8088,ATS,C,14
5,test,1,C,mfborder.png,0,z,Mon Dec 22 2025 12:43:43 GMT-0600 (Central Standard Time),535889.2000000477,CFD-BF-031-020-A.jpg,1600,dash,I,m,688,2,1,40270.59999990463,495618.60000014305,8088,ATS,C,15
6,test,1,C,mfborder.png,1,m,Mon Dec 22 2025 12:43:43 GMT-0600 (Central Standard Time),538021.9000000954,CFD-BM-022-004-HC.jpg,1200,dash,I,m,908,6,1,42403.299999952316,495618.60000014305,8088,ATS,C,16
6,test,1,C,haborder.png,0,m,Mon Dec 22 2025 12:43:43 GMT-0600 (Central Standard Time),540321.0,CFD-BF-019-004-HC.jpg,1600,solid,I,z,672,10,1,44702.39999985695,495618.60000014305,8088,ATS,C,17
7,test,1,C,haborder.png,1,z,Mon Dec 22 2025 12:43:43 GMT-0600 (Central Standard Time),542970.600000143,CFD-WM-036-018-A.jpg,1400,solid,I,z,1219,7,1,47352.0,495618.60000014305,8088,ATS,C,18
8,test,1,C,haborder.png,1,m,Mon Dec 22 2025 12:43:43 GMT-0600 (Central Standard Time),544819.7000000477,CFD-WF-013-009-HC.jpg,1000,solid,I,m,819,12,1,49201.09999990463,495618.60000014305,8088,ATS,C,19
9,test,1,C,haborder.png,1,z,Mon Dec 22 2025 12:43:43 GMT-0600 (Central Standard Time),547685.600000143,CFD-BM-043-014-A.jpg,1900,solid,I,z,942,8,1,52067.0,495618.60000014305,8088,ATS,C,20
10,test,1,C,haborder.png,1,m,Mon Dec 22 2025 12:43:43 GMT-0600 (Central Standard Time),550451.2999999523,CFD-BF-019-004-HC.jpg,1600,solid,I,m,1145,10,1,54832.699999809265,495618.60000014305,8088,ATS,C,21
10,test,1,C,haborder.png,0,m,Mon Dec 22 2025 12:43:43 GMT-0600 (Central Standard Time),552850.600000143,CFD-WF-001-010-HC.jpg,1500,solid,I,z,870,11,1,57232.0,495618.60000014305,8088,ATS,C,22
11,test,1,C,haborder.png,1,z,Mon Dec 22 2025 12:43:43 GMT-0600 (Central Standard Time),555867.100000143,CFD-BM-043-014-A.jpg,1900,solid,I,z,1100,8,1,60248.5,495618.60000014305,8088,ATS,C,23
11,test,1,C,mfborder.png,0,z,Mon Dec 22 2025 12:43:43 GMT-0600 (Central Standard Time),558884.0,CFD-WF-037-016-A.jpg,1500,dash,I,None,1501,3,1,63265.39999985695,495618.60000014305,8088,ATS,C,24
1,test,2,C,mfborder.png,1,m,Mon Dec 22 2025 12:43:43 GMT-0600 (Central Standard Time),612982.0,CFD-BM-034-035-HC.jpg,1000,dash,I,m,1392,4,1,2416.2999999523163,610565.7000000477,8088,ATS,C,1
1,test,2,C,haborder.png,0,m,Mon Dec 22 2025 12:43:43 GMT-0600 (Central Standard Time),615514.4000000954,CFD-WM-028-005-HC.jpg,1000,solid,I,None,1515,12,1,4948.700000047684,610565.7000000477,8088,ATS,C,2
2,test,2,C,haborder.png,1,z,Mon Dec 22 2025 12:43:43 GMT-0600 (Central Standard Time),617780.100000143,CFD-BF-031-020-A.jpg,1400,solid,I,z,843,7,1,7214.400000095367,610565.7000000477,8088,ATS,C,3
2,test,2,C,mfborder.png,0,z,Mon Dec 22 2025 12:43:43 GMT-0600 (Central Standard Time),621013.2999999523,CFD-WF-013-009-HC.jpg,1700,dash,I,None,1516,1,1,10447.599999904633,610565.7000000477,8088,ATS,C,4
3,test,2,C,haborder.png,1,m,Mon Dec 22 2025 12:43:43 GMT-0600 (Central Standard Time),623145.100000143,CFD-WM-028-005-HC.jpg,1000,solid,I,m,1105,12,1,12579.400000095367,610565.7000000477,8088,ATS,C,5
4,test,2,C,haborder.png,1,z,Mon Dec 22 2025 12:43:43 GMT-0600 (Central Standard Time),625894.4000000954,CFD-BF-031-020-A.jpg,1400,solid,I,z,1324,7,1,15328.700000047684,610565.7000000477,8088,ATS,C,6
5,test,2,C,mfborder.png,1,m,Mon Dec 22 2025 12:43:43 GMT-0600 (Central Standard Time),629043.4000000954,CFD-BM-043-014-A.jpg,2000,dash,I,m,1128,5,1,18477.700000047684,610565.7000000477,8088,ATS,C,7
6,test,2,C,mfborder.png,1,m,Mon Dec 22 2025 12:43:43 GMT-0600 (Central Standard Time),632342.4000000954,CFD-BM-043-014-A.jpg,2000,dash,I,m,1266,5,1,21776.700000047684,610565.7000000477,8088,ATS,C,8
7,test,2,C,haborder.png,1,z,Mon Dec 22 2025 12:43:43 GMT-0600 (Central Standard Time),635208.2000000477,CFD-WF-037-016-A.jpg,1700,solid,I,z,1138,9,1,24642.5,610565.7000000477,8088,ATS,C,9
8,test,2,C,haborder.png,1,m,Mon Dec 22 2025 12:43:43 GMT-0600 (Central Standard Time),637824.100000143,CFD-WM-028-005-HC.jpg,1500,solid,I,m,1097,11,1,27258.400000095367,610565.7000000477,8088,ATS,C,10
8,test,2,C,mfborder.png,0,m,Mon Dec 22 2025 12:43:43 GMT-0600 (Central Standard Time),640556.2999999523,CFD-WM-036-018-A.jpg,1200,dash,I,None,1516,6,1,29990.599999904633,610565.7000000477,8088,ATS,C,11
9,test,2,C,haborder.png,1,m,Mon Dec 22 2025 12:43:43 GMT-0600 (Central Standard Time),642905.7000000477,CFD-WM-028-005-HC.jpg,1500,solid,I,m,821,11,1,32340.0,610565.7000000477,8088,ATS,C,12
10,test,2,C,haborder.png,1,z,Mon Dec 22 2025 12:43:43 GMT-0600 (Central Standard Time),645438.5,CFD-WF-037-016-A.jpg,1700,solid,I,z,809,9,1,34872.799999952316,610565.7000000477,8088,ATS,C,13
11,test,2,C,haborder.png,1,z,Mon Dec 22 2025 12:43:43 GMT-0600 (Central Standard Time),648454.100000143,CFD-BF-002-018-A.jpg,1900,solid,I,z,1091,8,1,37888.40000009537,610565.7000000477,8088,ATS,C,14
12,test,2,C,haborder.png,1,m,Mon Dec 22 2025 12:43:43 GMT-0600 (Central Standard Time),650836.4000000954,CFD-BM-022-004-HC.jpg,1600,solid,I,m,751,10,1,40270.700000047684,610565.7000000477,8088,ATS,C,15
13,test,2,C,mfborder.png,1,z,Mon Dec 22 2025 12:43:43 GMT-0600 (Central Standard Time),653285.7000000477,CFD-WF-023-013-A.jpg,1600,dash,I,z,825,2,1,42720.0,610565.7000000477,8088,ATS,C,16
14,test,2,C,haborder.png,1,z,Mon Dec 22 2025 12:43:43 GMT-0600 (Central Standard Time),656434.5,CFD-BF-002-018-A.jpg,1900,solid,I,z,1219,8,1,45868.799999952316,610565.7000000477,8088,ATS,C,17
15,test,2,C,mfborder.png,1,z,Mon Dec 22 2025 12:43:43 GMT-0600 (Central Standard Time),659400.600000143,CFD-BF-019-004-HC.jpg,1500,dash,I,z,1447,3,1,48834.90000009537,610565.7000000477,8088,ATS,C,18
15,test,2,C,mfborder.png,0,m,Mon Dec 22 2025 12:43:43 GMT-0600 (Central Standard Time),661832.9000000954,CFD-WM-036-018-A.jpg,1200,dash,I,z,1206,6,1,51267.200000047684,610565.7000000477,8088,ATS,C,19
16,test,2,C,mfborder.png,1,z,Mon Dec 22 2025 12:43:43 GMT-0600 (Central Standard Time),664415.600000143,CFD-WF-013-009-HC.jpg,1700,dash,I,z,856,1,1,53849.90000009537,610565.7000000477,8088,ATS,C,20
17,test,2,C,haborder.png,1,m,Mon Dec 22 2025 12:43:43 GMT-0600 (Central Standard Time),666815.7999999523,CFD-BM-022-004-HC.jpg,1600,solid,I,m,782,10,1,56250.09999990463,610565.7000000477,8088,ATS,C,21
18,test,2,C,mfborder.png,1,z,Mon Dec 22 2025 12:43:43 GMT-0600 (Central Standard Time),669463.9000000954,CFD-BF-019-004-HC.jpg,1500,dash,I,z,1131,3,1,58898.200000047684,610565.7000000477,8088,ATS,C,22
19,test,2,C,mfborder.png,1,m,Mon Dec 22 2025 12:43:43 GMT-0600 (Central Standard Time),671863.2000000477,CFD-BM-034-035-HC.jpg,1000,dash,I,m,1381,4,1,61297.5,610565.7000000477,8088,ATS,C,23
20,test,2,C,mfborder.png,1,z,Mon Dec 22 2025 12:43:43 GMT-0600 (Central Standard Time),674229.2999999523,CFD-WF-023-013-A.jpg,1600,dash,I,z,741,2,1,63663.59999990463,610565.7000000477,8088,ATS,C,24
0,test,3,C,mfborder.png,0,z,Mon Dec 22 2025 12:43:43 GMT-0600 (Central Standard Time),690062.2000000477,CFD-BF-042-031-HC.jpg,1700,dash,I,None,1515,1,1,3236.7999999523163,686825.4000000954,8088,ATS,C,1
1,test,3,C,mfborder.png,1,z,Mon Dec 22 2025 12:43:43 GMT-0600 (Central Standard Time),692410.600000143,CFD-BF-042-031-HC.jpg,1700,dash,I,z,632,1,1,5585.200000047684,686825.4000000954,8088,ATS,C,2
1,test,3,C,haborder.png,0,z,Mon Dec 22 2025 12:43:43 GMT-0600 (Central Standard Time),695205.7999999523,CFD-BM-043-014-A.jpg,1900,solid,I,m,875,8,1,8380.399999856949,686825.4000000954,8088,ATS,C,3
1,test,3,C,haborder.png,0,z,Mon Dec 22 2025 12:43:43 GMT-0600 (Central Standard Time),698438.2999999523,CFD-BM-021-026-A.jpg,1700,solid,I,None,1515,9,1,11612.899999856949,686825.4000000954,8088,ATS,C,4
1,test,3,C,mfborder.png,0,m,Mon Dec 22 2025 12:43:43 GMT-0600 (Central Standard Time),700621.100000143,CFD-BM-022-004-HC.jpg,1200,dash,I,z,951,6,1,13795.700000047684,686825.4000000954,8088,ATS,C,5
2,test,3,C,mfborder.png,1,z,Mon Dec 22 2025 12:43:43 GMT-0600 (Central Standard Time),702987.2000000477,CFD-BF-031-020-A.jpg,1600,dash,I,z,736,2,1,16161.799999952316,686825.4000000954,8088,ATS,C,6
3,test,3,C,mfborder.png,1,m,Mon Dec 22 2025 12:43:43 GMT-0600 (Central Standard Time),705069.600000143,CFD-WM-035-036-HC.jpg,1000,dash,I,m,1051,4,1,18244.200000047684,686825.4000000954,8088,ATS,C,7
3,test,3,C,haborder.png,0,m,Mon Dec 22 2025 12:43:43 GMT-0600 (Central Standard Time),707485.600000143,CFD-BF-019-004-HC.jpg,1600,solid,I,z,792,10,1,20660.200000047684,686825.4000000954,8088,ATS,C,8
4,test,3,C,mfborder.png,1,z,Mon Dec 22 2025 12:43:43 GMT-0600 (Central Standard Time),710068.2000000477,CFD-WF-037-016-A.jpg,1500,dash,I,z,1060,3,1,23242.799999952316,686825.4000000954,8088,ATS,C,9
5,test,3,C,haborder.png,1,m,Mon Dec 22 2025 12:43:43 GMT-0600 (Central Standard Time),712284.100000143,CFD-WF-013-009-HC.jpg,1000,solid,I,m,1193,12,1,25458.700000047684,686825.4000000954,8088,ATS,C,10
6,test,3,C,haborder.png,1,z,Mon Dec 22 2025 12:43:43 GMT-0600 (Central Standard Time),714499.7999999523,CFD-WM-036-018-A.jpg,1400,solid,I,z,793,7,1,27674.39999985695,686825.4000000954,8088,ATS,C,11
7,test,3,C,haborder.png,1,m,Mon Dec 22 2025 12:43:43 GMT-0600 (Central Standard Time),716282.7000000477,CFD-WF-013-009-HC.jpg,1000,solid,I,m,753,12,1,29457.299999952316,686825.4000000954,8088,ATS,C,12
8,test,3,C,mfborder.png,1,m,Mon Dec 22 2025 12:43:43 GMT-0600 (Central Standard Time),719015.4000000954,CFD-WM-034-040-A.jpg,2000,dash,I,m,700,5,1,32190.0,686825.4000000954,8088,ATS,C,13
9,test,3,C,mfborder.png,1,m,Mon Dec 22 2025 12:43:43 GMT-0600 (Central Standard Time),721414.600000143,CFD-WM-035-036-HC.jpg,1000,dash,I,m,1366,4,1,34589.200000047684,686825.4000000954,8088,ATS,C,14
10,test,3,C,mfborder.png,1,m,Mon Dec 22 2025 12:43:43 GMT-0600 (Central Standard Time),724680.0,CFD-WM-034-040-A.jpg,2000,dash,I,m,1238,5,1,37854.59999990463,686825.4000000954,8088,ATS,C,15
11,test,3,C,haborder.png,1,z,Mon Dec 22 2025 12:43:43 GMT-0600 (Central Standard Time),727496.0,CFD-BM-021-026-A.jpg,1700,solid,I,z,1097,9,1,40670.59999990463,686825.4000000954,8088,ATS,C,16
12,test,3,C,mfborder.png,1,z,Mon Dec 22 2025 12:43:43 GMT-0600 (Central Standard Time),730245.5,CFD-BF-031-020-A.jpg,1600,dash,I,z,1126,2,1,43420.09999990463,686825.4000000954,8088,ATS,C,17
13,test,3,C,mfborder.png,1,m,Mon Dec 22 2025 12:43:43 GMT-0600 (Central Standard Time),732378.0,CFD-BM-022-004-HC.jpg,1200,dash,I,m,904,6,1,45552.59999990463,686825.4000000954,8088,ATS,C,18
13,test,3,C,haborder.png,0,m,Mon Dec 22 2025 12:43:43 GMT-0600 (Central Standard Time),734860.5,CFD-WF-001-010-HC.jpg,1500,solid,I,z,961,11,1,48035.09999990463,686825.4000000954,8088,ATS,C,19
13,test,3,C,haborder.png,0,m,Mon Dec 22 2025 12:43:43 GMT-0600 (Central Standard Time),737142.7999999523,CFD-WF-001-010-HC.jpg,1500,solid,I,z,766,11,1,50317.39999985695,686825.4000000954,8088,ATS,C,20
14,test,3,C,haborder.png,1,m,Mon Dec 22 2025 12:43:43 GMT-0600 (Central Standard Time),739875.4000000954,CFD-BF-019-004-HC.jpg,1600,solid,I,m,1111,10,1,53050.0,686825.4000000954,8088,ATS,C,21
14,test,3,C,haborder.png,0,z,Mon Dec 22 2025 12:43:43 GMT-0600 (Central Standard Time),742591.2000000477,CFD-BM-043-014-A.jpg,1900,solid,I,m,791,8,1,55765.799999952316,686825.4000000954,8088,ATS,C,22
15,test,3,C,mfborder.png,1,z,Mon Dec 22 2025 12:43:43 GMT-0600 (Central Standard Time),745307.0,CFD-WF-037-016-A.jpg,1500,dash,I,z,1186,3,1,58481.59999990463,686825.4000000954,8088,ATS,C,23
15,test,3,C,haborder.png,0,z,Mon Dec 22 2025 12:43:43 GMT-0600 (Central Standard Time),747539.600000143,CFD-WM-036-018-A.jpg,1400,solid,I,m,810,7,1,60714.200000047684,686825.4000000954,8088,ATS,C,24
0,test,4,C,haborder.png,0,z,Mon Dec 22 2025 12:43:43 GMT-0600 (Central Standard Time),799679.0,CFD-BF-031-020-A.jpg,1400,solid,I,m,1296,7,1,2721.7000000476837,796957.2999999523,8088,ATS,C,1
1,test,4,C,haborder.png,1,z,Mon Dec 22 2025 12:43:43 GMT-0600 (Central Standard Time),802505.600000143,CFD-BF-002-018-A.jpg,1900,solid,I,z,897,8,1,5548.300000190735,796957.2999999523,8088,ATS,C,2
2,test,4,C,haborder.png,1,z,Mon Dec 22 2025 12:43:43 GMT-0600 (Central Standard Time),804788.4000000954,CFD-BF-031-020-A.jpg,1400,solid,I,z,860,7,1,7831.100000143051,796957.2999999523,8088,ATS,C,3
3,test,4,C,haborder.png,1,z,Mon Dec 22 2025 12:43:43 GMT-0600 (Central Standard Time),807370.9000000954,CFD-WF-037-016-A.jpg,1700,solid,I,z,854,9,1,10413.600000143051,796957.2999999523,8088,ATS,C,4
4,test,4,C,haborder.png,1,z,Mon Dec 22 2025 12:43:43 GMT-0600 (Central Standard Time),809770.0,CFD-WF-037-016-A.jpg,1700,solid,I,z,680,9,1,12812.700000047684,796957.2999999523,8088,ATS,C,5
5,test,4,C,haborder.png,1,m,Mon Dec 22 2025 12:43:43 GMT-0600 (Central Standard Time),812536.0,CFD-BM-022-004-HC.jpg,1600,solid,I,m,1140,10,1,15578.700000047684,796957.2999999523,8088,ATS,C,6
6,test,4,C,haborder.png,1,m,Mon Dec 22 2025 12:43:43 GMT-0600 (Central Standard Time),814435.4000000954,CFD-WM-028-005-HC.jpg,1000,solid,I,m,869,12,1,17478.10000014305,796957.2999999523,8088,ATS,C,7
7,test,4,C,haborder.png,1,z,Mon Dec 22 2025 12:43:43 GMT-0600 (Central Standard Time),817084.5,CFD-BF-002-018-A.jpg,1900,solid,I,z,726,8,1,20127.200000047684,796957.2999999523,8088,ATS,C,8
8,test,4,C,haborder.png,1,m,Mon Dec 22 2025 12:43:43 GMT-0600 (Central Standard Time),818917.4000000954,CFD-WM-028-005-HC.jpg,1000,solid,I,m,801,12,1,21960.10000014305,796957.2999999523,8088,ATS,C,9
9,test,4,C,mfborder.png,1,m,Mon Dec 22 2025 12:43:43 GMT-0600 (Central Standard Time),821166.4000000954,CFD-BM-034-035-HC.jpg,1000,dash,I,m,1224,4,1,24209.10000014305,796957.2999999523,8088,ATS,C,10
10,test,4,C,mfborder.png,1,m,Mon Dec 22 2025 12:43:43 GMT-0600 (Central Standard Time),823082.7999999523,CFD-WM-036-018-A.jpg,1200,dash,I,m,687,6,1,26125.5,796957.2999999523,8088,ATS,C,11
11,test,4,C,mfborder.png,1,m,Mon Dec 22 2025 12:43:43 GMT-0600 (Central Standard Time),825781.9000000954,CFD-BM-043-014-A.jpg,2000,dash,I,m,667,5,1,28824.60000014305,796957.2999999523,8088,ATS,C,12
12,test,4,C,mfborder.png,1,z,Mon Dec 22 2025 12:43:43 GMT-0600 (Central Standard Time),828314.100000143,CFD-WF-013-009-HC.jpg,1700,dash,I,z,804,1,1,31356.800000190735,796957.2999999523,8088,ATS,C,13
13,test,4,C,mfborder.png,1,z,Mon Dec 22 2025 12:43:43 GMT-0600 (Central Standard Time),830697.0,CFD-WF-013-009-HC.jpg,1700,dash,I,z,663,1,1,33739.700000047684,796957.2999999523,8088,ATS,C,14
14,test,4,C,haborder.png,1,m,Mon Dec 22 2025 12:43:43 GMT-0600 (Central Standard Time),832979.600000143,CFD-WM-028-005-HC.jpg,1500,solid,I,m,761,11,1,36022.300000190735,796957.2999999523,8088,ATS,C,15
14,test,4,C,mfborder.png,0,z,Mon Dec 22 2025 12:43:43 GMT-0600 (Central Standard Time),836011.7999999523,CFD-BF-019-004-HC.jpg,1500,dash,I,None,1516,3,1,39054.5,796957.2999999523,8088,ATS,C,16
15,test,4,C,haborder.png,1,m,Mon Dec 22 2025 12:43:43 GMT-0600 (Central Standard Time),838810.7999999523,CFD-WM-028-005-HC.jpg,1500,solid,I,m,1270,11,1,41853.5,796957.2999999523,8088,ATS,C,17
15,test,4,C,mfborder.png,0,z,Mon Dec 22 2025 12:43:43 GMT-0600 (Central Standard Time),841227.100000143,CFD-BF-019-004-HC.jpg,1500,dash,I,m,894,3,1,44269.800000190735,796957.2999999523,8088,ATS,C,18
16,test,4,C,mfborder.png,1,z,Mon Dec 22 2025 12:43:43 GMT-0600 (Central Standard Time),844126.0,CFD-WF-023-013-A.jpg,1600,dash,I,z,1266,2,1,47168.700000047684,796957.2999999523,8088,ATS,C,19
16,test,4,C,mfborder.png,0,m,Mon Dec 22 2025 12:43:43 GMT-0600 (Central Standard Time),845825.600000143,CFD-BM-034-035-HC.jpg,1000,dash,I,z,671,4,1,48868.300000190735,796957.2999999523,8088,ATS,C,20
17,test,4,C,mfborder.png,1,m,Mon Dec 22 2025 12:43:43 GMT-0600 (Central Standard Time),848541.2999999523,CFD-BM-043-014-A.jpg,2000,dash,I,m,684,5,1,51584.0,796957.2999999523,8088,ATS,C,21
18,test,4,C,haborder.png,1,m,Mon Dec 22 2025 12:43:43 GMT-0600 (Central Standard Time),851573.7999999523,CFD-BM-022-004-HC.jpg,1600,solid,I,m,1409,10,1,54616.5,796957.2999999523,8088,ATS,C,22
19,test,4,C,mfborder.png,1,z,Mon Dec 22 2025 12:43:43 GMT-0600 (Central Standard Time),854089.4000000954,CFD-WF-023-013-A.jpg,1600,dash,I,z,888,2,1,57132.10000014305,796957.2999999523,8088,ATS,C,23
20,test,4,C,mfborder.png,1,m,Mon Dec 22 2025 12:43:43 GMT-0600 (Central Standard Time),856272.2000000477,CFD-WM-036-018-A.jpg,1200,dash,I,m,964,6,1,59314.90000009537,796957.2999999523,8088,ATS,C,24
