acc_sum,block,block_c,condition,correct,correct_response,datetime,endtime,flanker,jitter,project,response,response_test_buffer_response,response_test_target_response,response_time,response_time_test_buffer_response,response_time_test_target_response,row_sel,session_number,start_end,starttime,subject_id,target,task,task_vers,time_test_buffer,time_test_buffer_response,time_test_constants,time_test_flanker,time_test_jitter,time_test_logger,time_test_target,time_test_target_response,time_test_variables,trial
0,prac,1,inc,0,z,Wed Dec 03 2025 16:07:29 GMT-0600 (Central Standard Time),90442.69999998808,window,1100,O,None,,,1814,,,16,1,5176.5999999940395,85266.09999999404,7250,temper,AF,B,,,,,,,,,,1
0,prac,1,con,0,z,Wed Dec 03 2025 16:07:29 GMT-0600 (Central Standard Time),95507.59999999404,love,1000,O,None,,,1799,,,11,1,5056.9000000059605,90450.69999998808,7250,love,AF,B,,,,,,,,,,2
1,prac,1,con,1,m,Wed Dec 03 2025 16:07:29 GMT-0600 (Central Standard Time),98340.90000000596,step,800,O,m,,,718,,,1,1,2826.5,95514.40000000596,7250,step,AF,B,,,,,,,,,,3
2,prac,1,inc,1,m,Wed Dec 03 2025 16:07:29 GMT-0600 (Central Standard Time),101356.09999999404,elated,900,O,m,,,802,,,6,1,3010.2999999821186,98345.80000001192,7250,napkin,AF,B,,,,,,,,,,4
3,prac,1,inc,1,m,Wed Dec 03 2025 16:07:29 GMT-0600 (Central Standard Time),104521.69999998808,brutal,1100,O,m,,,754,,,8,1,3158.7999999821186,101362.90000000596,7250,window,AF,B,,,,,,,,,,5
3,prac,1,con,0,m,Wed Dec 03 2025 16:07:29 GMT-0600 (Central Standard Time),109584.80000001192,remote,1000,O,None,,,1799,,,7,1,5055.9000000059605,104528.90000000596,7250,remote,AF,B,,,,,,,,,,6
4,prac,1,con,1,z,Wed Dec 03 2025 16:07:29 GMT-0600 (Central Standard Time),112853.09999999404,rage,1000,O,z,,,952,,,15,1,3259.2999999821186,109593.80000001192,7250,rage,AF,B,,,,,,,,,,7
5,prac,1,con,1,m,Wed Dec 03 2025 16:07:29 GMT-0600 (Central Standard Time),115951.40000000596,bell,1000,O,m,,,785,,,3,1,3091.0999999940395,112860.30000001192,7250,bell,AF,B,,,,,,,,,,8
6,prac,1,inc,1,m,Wed Dec 03 2025 16:07:29 GMT-0600 (Central Standard Time),118784.30000001192,kind,900,O,m,,,617,,,2,1,2826.9000000059605,115957.40000000596,7250,rock,AF,B,,,,,,,,,,9
7,prac,1,inc,1,z,Wed Dec 03 2025 16:07:29 GMT-0600 (Central Standard Time),121482.30000001192,film,900,O,z,,,486,,,14,1,2691.100000023842,118791.19999998808,7250,hate,AF,B,,,,,,,,,,10
8,prac,1,con,1,z,Wed Dec 03 2025 16:07:29 GMT-0600 (Central Standard Time),124083.80000001192,elated,800,O,z,,,490,,,9,1,2596.600000023842,121487.19999998808,7250,elated,AF,B,,,,,,,,,,11
9,prac,1,con,1,z,Wed Dec 03 2025 16:07:29 GMT-0600 (Central Standard Time),126664.30000001192,brutal,800,O,z,,,481,,,13,1,2573.800000011921,124090.5,7250,brutal,AF,B,,,,,,,,,,12
10,prac,1,con,1,m,Wed Dec 03 2025 16:07:29 GMT-0600 (Central Standard Time),129264.40000000596,jacket,800,O,m,,,504,,,5,1,2591.4000000059605,126673.0,7250,jacket,AF,B,,,,,,,,,,13
11,prac,1,inc,1,m,Wed Dec 03 2025 16:07:29 GMT-0600 (Central Standard Time),132279.90000000596,hate,1100,O,m,,,623,,,4,1,3011.2000000178814,129268.69999998808,7250,film,AF,B,,,,,,,,,,14
12,prac,1,inc,1,z,Wed Dec 03 2025 16:07:29 GMT-0600 (Central Standard Time),135113.30000001192,rock,900,O,z,,,622,,,10,1,2828.800000011921,132284.5,7250,kind,AF,B,,,,,,,,,,15
12,prac,1,inc,0,z,Wed Dec 03 2025 16:07:29 GMT-0600 (Central Standard Time),138610.40000000596,napkin,1100,O,m,,,1084,,,12,1,3492.9000000059605,135117.5,7250,friend,AF,B,,,,,,,,,,16
1,test,1,inc,1,z,Wed Dec 03 2025 16:07:29 GMT-0600 (Central Standard Time),170500.90000000596,bell,1000,O,z,z,None,718,504.0,214.0,55,1,2241.2000000178814,168259.69999998808,7250,rage,AF,B,168255,168255,166531,167538,166531,168772,168040,168040,168772,1
2,test,1,con,1,m,Wed Dec 03 2025 16:07:29 GMT-0600 (Central Standard Time),172616.59999999404,window,1000,O,m,m,None,567,367.0,200.0,123,1,2111.5999999940395,170505.0,7250,window,AF,B,170505,170505,168776,169789,168776,170888,170305,170305,170888,2
3,test,1,inc,1,m,Wed Dec 03 2025 16:07:29 GMT-0600 (Central Standard Time),174782.59999999404,love,1000,O,m,m,None,626,425.0,201.0,71,1,2162.0999999940395,172620.5,7250,step,AF,B,172622,172622,170892,171905,170892,173054,172420,172420,173054,3
4,test,1,inc,1,m,Wed Dec 03 2025 16:07:29 GMT-0600 (Central Standard Time),176800.09999999404,brutal,900,O,m,m,None,584,383.0,201.0,102,1,2013.4000000059605,174786.69999998808,7250,jacket,AF,B,174688,174688,173058,173971,173058,175071,174487,174487,175071,4
5,test,1,inc,1,m,Wed Dec 03 2025 16:07:29 GMT-0600 (Central Standard Time),179048.19999998808,friend,1100,O,m,m,None,601,399.0,202.0,104,1,2243.399999976158,176804.80000001192,7250,jacket,AF,B,176904,176904,175076,176186,175076,177319,176702,176702,177319,5
6,test,1,con,1,z,Wed Dec 03 2025 16:07:29 GMT-0600 (Central Standard Time),180998.30000001192,elated,800,O,z,z,None,601,402.0,199.0,1,1,1945.6000000238419,179052.69999998808,7250,elated,AF,B,178853,178853,177324,178137,177324,179269,178653,178653,179269,6
6,test,1,con,0,z,Wed Dec 03 2025 16:07:29 GMT-0600 (Central Standard Time),183097.40000000596,hate,900,O,m,m,None,670,456.0,214.0,42,1,2094.2000000178814,181003.19999998808,7250,hate,AF,B,180903,180903,179274,180185,179275,181368,180689,180689,181368,7
7,test,1,con,1,m,Wed Dec 03 2025 16:07:29 GMT-0600 (Central Standard Time),184962.09999999404,window,900,O,m,m,None,432,233.0,199.0,122,1,1858.7999999821186,183103.30000001192,7250,window,AF,B,183000,183000,181374,182284,181375,183233,182801,182801,183233,8
8,test,1,con,1,z,Wed Dec 03 2025 16:07:29 GMT-0600 (Central Standard Time),186729.59999999404,kind,800,O,z,z,None,439,240.0,199.0,9,1,1762.699999988079,184966.90000000596,7250,kind,AF,B,184751,184751,183238,184050,183238,185001,184552,184552,185001,9
9,test,1,con,1,z,Wed Dec 03 2025 16:07:29 GMT-0600 (Central Standard Time),188811.40000000596,love,1100,O,z,z,None,462,263.0,199.0,20,1,2076.9000000059605,186734.5,7250,love,AF,B,186817,186817,185006,186116,185006,187082,186617,186617,187082,10
10,test,1,con,1,m,Wed Dec 03 2025 16:07:29 GMT-0600 (Central Standard Time),190843.40000000596,film,900,O,m,m,None,593,378.0,215.0,90,1,2025.800000011921,188817.59999999404,7250,film,AF,B,188732,188732,187089,188000,187089,189114,188517,188517,189114,11
11,test,1,inc,1,z,Wed Dec 03 2025 16:07:29 GMT-0600 (Central Standard Time),193209.80000001192,remote,1000,O,z,z,None,815,616.0,199.0,63,1,2363.4000000059605,190846.40000000596,7250,temper,AF,B,190849,190849,189117,190133,189118,191481,190650,190650,191481,12
12,test,1,con,1,m,Wed Dec 03 2025 16:07:29 GMT-0600 (Central Standard Time),195143.59999999404,remote,1000,O,m,m,None,383,182.0,201.0,115,1,1930.0999999940395,193213.5,7250,remote,AF,B,193217,193217,191485,192499,191485,193415,193016,193016,193415,13
13,test,1,inc,1,z,Wed Dec 03 2025 16:07:29 GMT-0600 (Central Standard Time),197192.09999999404,jacket,800,O,z,z,None,706,492.0,214.0,29,1,2044.7999999821186,195147.30000001192,7250,friend,AF,B,194963,194963,193418,194233,193418,195463,194749,194749,195463,14
14,test,1,inc,1,z,Wed Dec 03 2025 16:07:29 GMT-0600 (Central Standard Time),199225.19999998808,rock,900,O,z,z,None,583,384.0,199.0,22,1,2028.7999999821186,197196.40000000596,7250,love,AF,B,197096,197096,195467,196380,195468,197496,196897,196897,197496,15
15,test,1,inc,1,z,Wed Dec 03 2025 16:07:29 GMT-0600 (Central Standard Time),201506.40000000596,remote,1000,O,z,z,None,736,537.0,199.0,39,1,2277.4000000059605,199229.0,7250,brutal,AF,B,199229,199229,197500,198514,197500,199777,199030,199030,199777,16
16,test,1,inc,1,m,Wed Dec 03 2025 16:07:29 GMT-0600 (Central Standard Time),203724.59999999404,temper,1000,O,m,m,None,669,470.0,199.0,127,1,2215.4000000059605,201509.19999998808,7250,window,AF,B,201513,201513,199780,200796,199780,201996,201312,201314,201996,17
17,test,1,con,1,z,Wed Dec 03 2025 16:07:29 GMT-0600 (Central Standard Time),205455.80000001192,love,800,O,z,z,None,392,192.0,200.0,17,1,1726.9000000059605,203728.90000000596,7250,love,AF,B,203528,203528,202000,202811,202000,203727,203328,203328,203727,18
18,test,1,con,1,z,Wed Dec 03 2025 16:07:29 GMT-0600 (Central Standard Time),207921.80000001192,friend,900,O,z,z,None,1024,823.0,201.0,26,1,2460.800000011921,205461.0,7250,friend,AF,B,205360,205360,203732,204645,203732,206193,205159,205159,206193,19
18,test,1,con,0,z,Wed Dec 03 2025 16:07:29 GMT-0600 (Central Standard Time),210371.69999998808,rage,900,O,m,m,None,1011,812.0,199.0,50,1,2445.199999988079,207926.5,7250,rage,AF,B,207827,207827,206198,207113,206198,208643,207627,207627,208643,20
19,test,1,con,1,m,Wed Dec 03 2025 16:07:29 GMT-0600 (Central Standard Time),212488.5,jacket,900,O,m,m,None,673,470.0,203.0,98,1,2111.199999988079,210377.30000001192,7250,jacket,AF,B,210277,210277,208648,209560,208649,210760,210074,210074,210760,21
20,test,1,inc,1,z,Wed Dec 03 2025 16:07:29 GMT-0600 (Central Standard Time),214669.90000000596,rock,900,O,z,z,None,759,559.0,200.0,54,1,2177.0999999940395,212492.80000001192,7250,rage,AF,B,212377,212377,210764,211674,210764,212941,212176,212176,212941,22
21,test,1,con,1,m,Wed Dec 03 2025 16:07:29 GMT-0600 (Central Standard Time),216419.40000000596,step,800,O,m,m,None,427,212.0,215.0,65,1,1745.800000011921,214673.59999999404,7250,step,AF,B,214475,214475,212945,213758,212945,214690,214259,214259,214690,23
22,test,1,inc,1,m,Wed Dec 03 2025 16:07:29 GMT-0600 (Central Standard Time),218451.59999999404,rage,800,O,m,m,None,686,487.0,199.0,77,1,2025.7999999821186,216425.80000001192,7250,rock,AF,B,216223,216223,214697,215507,214697,216723,216024,216024,216723,24
23,test,1,inc,1,z,Wed Dec 03 2025 16:07:29 GMT-0600 (Central Standard Time),220617.59999999404,remote,1000,O,z,z,None,613,400.0,213.0,7,1,2159.199999988079,218458.40000000596,7250,elated,AF,B,218473,218473,216729,217740,216730,218889,218259,218259,218889,25
23,test,1,inc,0,m,Wed Dec 03 2025 16:07:29 GMT-0600 (Central Standard Time),224250.19999998808,friend,1100,O,None,None,None,1799,1799.0,199.0,128,1,3627.0,220623.19999998808,7250,window,AF,B,220722,220722,218894,220010,218895,222521,220523,220523,222521,26
23,test,1,con,0,m,Wed Dec 03 2025 16:07:29 GMT-0600 (Central Standard Time),227784.40000000596,rock,1000,O,None,None,None,1800,1800.0,200.0,75,1,3528.0999999940395,224256.30000001192,7250,rock,AF,B,224255,224255,222527,223537,222528,226056,224055,224055,226055,27
24,test,1,inc,1,m,Wed Dec 03 2025 16:07:29 GMT-0600 (Central Standard Time),230000.30000001192,temper,1000,O,m,m,None,674,459.0,215.0,111,1,2211.5,227788.80000001192,7250,napkin,AF,B,227804,227804,226060,227070,226060,228271,227588,227588,228271,28
25,test,1,con,1,z,Wed Dec 03 2025 16:07:29 GMT-0600 (Central Standard Time),232132.30000001192,friend,1100,O,z,z,None,487,287.0,200.0,28,1,2126.600000023842,230005.69999998808,7250,friend,AF,B,230103,230103,228277,229386,228277,230403,229902,229902,230403,29
26,test,1,inc,1,m,Wed Dec 03 2025 16:07:29 GMT-0600 (Central Standard Time),234248.30000001192,brutal,900,O,m,m,None,674,473.0,201.0,126,1,2112.300000011921,232136.0,7250,window,AF,B,232038,232038,230407,231319,230407,232519,231836,231836,232519,30
27,test,1,con,1,z,Wed Dec 03 2025 16:07:29 GMT-0600 (Central Standard Time),236063.19999998808,brutal,900,O,z,z,None,374,175.0,199.0,34,1,1808.3999999761581,234254.80000001192,7250,brutal,AF,B,234152,234152,232526,233435,232526,234334,233952,233952,234334,31
28,test,1,con,1,z,Wed Dec 03 2025 16:07:29 GMT-0600 (Central Standard Time),238129.69999998808,elated,900,O,z,z,None,632,432.0,200.0,2,1,2061.699999988079,236068.0,7250,elated,AF,B,235968,235968,234339,235251,234339,236401,235768,235768,236401,32
29,test,1,con,1,m,Wed Dec 03 2025 16:07:29 GMT-0600 (Central Standard Time),239929.0,rock,800,O,m,m,None,457,242.0,215.0,73,1,1794.4000000059605,238134.59999999404,7250,rock,AF,B,237950,237950,236406,237217,236406,238200,237734,237734,238200,33
30,test,1,inc,1,z,Wed Dec 03 2025 16:07:29 GMT-0600 (Central Standard Time),241961.90000000596,jacket,800,O,z,z,None,685,471.0,214.0,61,1,2025.4000000059605,239936.5,7250,temper,AF,B,239752,239752,238208,239017,238208,240233,239536,239536,240233,34
31,test,1,inc,1,m,Wed Dec 03 2025 16:07:29 GMT-0600 (Central Standard Time),244144.30000001192,elated,800,O,m,m,None,839,625.0,214.0,117,1,2177.100000023842,241967.19999998808,7250,remote,AF,B,241782,241782,240238,241049,240239,242415,241568,241568,242415,35
32,test,1,inc,1,z,Wed Dec 03 2025 16:07:29 GMT-0600 (Central Standard Time),246409.59999999404,film,1100,O,z,z,None,632,432.0,200.0,24,1,2262.0,244147.59999999404,7250,love,AF,B,244248,244248,242419,243531,242419,244681,244048,244048,244681,36
33,test,1,con,1,z,Wed Dec 03 2025 16:07:29 GMT-0600 (Central Standard Time),248809.59999999404,temper,1100,O,z,z,None,751,536.0,215.0,60,1,2396.5999999940395,246413.0,7250,temper,AF,B,246530,246531,244684,245797,244684,247081,246315,246315,247081,37
34,test,1,con,1,z,Wed Dec 03 2025 16:07:29 GMT-0600 (Central Standard Time),250891.40000000596,friend,800,O,z,z,None,744,544.0,200.0,25,1,2076.5999999940395,248814.80000001192,7250,friend,AF,B,248614,248614,247086,247897,247086,249162,248414,248414,249162,38
34,test,1,con,0,m,Wed Dec 03 2025 16:07:29 GMT-0600 (Central Standard Time),253390.30000001192,remote,1100,O,z,z,None,858,658.0,200.0,116,1,2494.600000023842,250895.69999998808,7250,remote,AF,B,250997,250997,249167,250280,249167,251661,250796,250796,251661,39
35,test,1,inc,1,z,Wed Dec 03 2025 16:07:29 GMT-0600 (Central Standard Time),255341.40000000596,step,800,O,z,z,None,601,386.0,215.0,45,1,1948.0999999940395,253393.30000001192,7250,hate,AF,B,253213,253213,251664,252480,251665,253612,252997,252997,253612,40
36,test,1,con,1,z,Wed Dec 03 2025 16:07:29 GMT-0600 (Central Standard Time),257658.0,rage,1100,O,z,z,None,667,466.0,201.0,52,1,2310.199999988079,255347.80000001192,7250,rage,AF,B,255445,255445,253619,254728,253619,255929,255244,255244,255929,41
37,test,1,inc,1,z,Wed Dec 03 2025 16:07:29 GMT-0600 (Central Standard Time),260390.5,rock,900,O,z,z,None,1309,1093.0,216.0,46,1,2727.0999999940395,257663.40000000596,7250,hate,AF,B,257562,257562,255934,256844,255935,258662,257345,257345,258662,42
38,test,1,con,1,z,Wed Dec 03 2025 16:07:29 GMT-0600 (Central Standard Time),262387.6999999881,hate,800,O,z,z,None,662,463.0,199.0,41,1,1994.0999999940395,260393.59999999404,7250,hate,AF,B,260192,260192,258665,259477,258665,260659,259993,259993,260659,43
39,test,1,con,1,m,Wed Dec 03 2025 16:07:29 GMT-0600 (Central Standard Time),264072.1999999881,window,800,O,m,m,None,342,143.0,199.0,121,1,1680.0999999940395,262392.09999999404,7250,window,AF,B,262193,262193,260663,261476,260663,262343,261993,261993,262343,44
40,test,1,con,1,z,Wed Dec 03 2025 16:07:29 GMT-0600 (Central Standard Time),266236.40000000596,elated,1100,O,z,z,None,520,319.0,201.0,4,1,2160.0999999940395,264076.3000000119,7250,elated,AF,B,264177,264177,262347,263457,262348,264507,263975,263975,264507,45
41,test,1,con,1,m,Wed Dec 03 2025 16:07:29 GMT-0600 (Central Standard Time),268519.59999999404,step,1100,O,m,m,None,633,415.0,218.0,68,1,2279.199999988079,266240.40000000596,7250,step,AF,B,266360,266360,264511,265625,264512,266791,266142,266142,266791,46
42,test,1,inc,1,z,Wed Dec 03 2025 16:07:29 GMT-0600 (Central Standard Time),270567.8000000119,rock,900,O,z,z,None,606,406.0,200.0,14,1,2042.2000000178814,268525.59999999404,7250,kind,AF,B,268423,268424,266797,267707,266797,268839,268223,268223,268839,47
43,test,1,con,1,m,Wed Dec 03 2025 16:07:29 GMT-0600 (Central Standard Time),272867.8000000119,napkin,1100,O,m,m,None,661,462.0,199.0,108,1,2297.2000000178814,270570.59999999404,7250,napkin,AF,B,270673,270673,268842,269957,268842,271139,270472,270473,271139,48
44,test,1,con,1,z,Wed Dec 03 2025 16:07:29 GMT-0600 (Central Standard Time),275451.0,brutal,1100,O,z,z,None,952,737.0,215.0,36,1,2579.300000011921,272871.6999999881,7250,brutal,AF,B,272973,272973,271143,272256,271143,273722,272757,272757,273722,49
45,test,1,inc,1,z,Wed Dec 03 2025 16:07:29 GMT-0600 (Central Standard Time),277649.40000000596,bell,1000,O,z,z,None,679,465.0,214.0,23,1,2194.0,275455.40000000596,7250,love,AF,B,275455,275455,273726,274737,273727,275920,275240,275240,275920,50
46,test,1,con,1,z,Wed Dec 03 2025 16:07:29 GMT-0600 (Central Standard Time),280149.5,hate,1100,O,z,z,None,860,659.0,201.0,44,1,2497.0,277652.5,7250,hate,AF,B,277756,277756,275923,277038,275924,278421,277554,277554,278421,51
47,test,1,inc,1,z,Wed Dec 03 2025 16:07:29 GMT-0600 (Central Standard Time),282299.1999999881,step,800,O,z,z,None,805,606.0,199.0,13,1,2146.899999976158,280152.3000000119,7250,kind,AF,B,279952,279953,278423,279237,278424,280570,279753,279753,280570,52
48,test,1,inc,1,m,Wed Dec 03 2025 16:07:29 GMT-0600 (Central Standard Time),284547.90000000596,love,1000,O,m,m,None,707,496.0,211.0,79,1,2244.4000000059605,282303.5,7250,rock,AF,B,282319,282319,280575,281586,280575,282819,282107,282107,282819,53
49,test,1,inc,1,m,Wed Dec 03 2025 16:07:29 GMT-0600 (Central Standard Time),286963.59999999404,hate,1100,O,m,m,None,778,579.0,199.0,88,1,2411.5999999940395,284552.0,7250,bell,AF,B,284652,284652,282823,283935,282823,285235,284452,284453,285235,54
50,test,1,con,1,z,Wed Dec 03 2025 16:07:29 GMT-0600 (Central Standard Time),289163.40000000596,love,900,O,z,z,None,769,566.0,203.0,18,1,2195.800000011921,286967.59999999404,7250,love,AF,B,286856,286856,285239,286151,285239,287434,286653,286653,287434,55
51,test,1,con,1,z,Wed Dec 03 2025 16:07:29 GMT-0600 (Central Standard Time),291596.1999999881,love,1000,O,z,z,None,907,693.0,214.0,19,1,2428.5999999940395,289167.59999999404,7250,love,AF,B,289170,289170,287439,288450,287439,289867,288956,288956,289867,56
52,test,1,con,1,m,Wed Dec 03 2025 16:07:29 GMT-0600 (Central Standard Time),293444.5,napkin,900,O,m,m,None,401,200.0,201.0,106,1,1844.4000000059605,291600.09999999404,7250,napkin,AF,B,291502,291502,289871,290783,289871,291716,291300,291300,291716,57
53,test,1,inc,1,m,Wed Dec 03 2025 16:07:29 GMT-0600 (Central Standard Time),295844.09999999404,love,1000,O,m,m,None,854,654.0,200.0,95,1,2395.7999999821186,293448.3000000119,7250,film,AF,B,293448,293448,291719,292733,291720,294115,293248,293248,294115,58
54,test,1,con,1,m,Wed Dec 03 2025 16:07:29 GMT-0600 (Central Standard Time),297926.90000000596,bell,900,O,m,m,None,644,443.0,201.0,82,1,2077.5,295849.40000000596,7250,bell,AF,B,295747,295747,294120,295031,294121,296198,295546,295546,296198,59
55,test,1,inc,1,m,Wed Dec 03 2025 16:07:29 GMT-0600 (Central Standard Time),300192.5,hate,1100,O,m,m,None,622,421.0,201.0,80,1,2262.199999988079,297930.3000000119,7250,rock,AF,B,298033,298033,296201,297314,296202,298464,297831,297831,298464,60
56,test,1,inc,1,z,Wed Dec 03 2025 16:07:29 GMT-0600 (Central Standard Time),302591.6999999881,window,1100,O,z,z,None,771,555.0,216.0,32,1,2396.399999976158,300195.3000000119,7250,friend,AF,B,300299,300299,298466,299579,298467,300863,300083,300083,300863,61
57,test,1,con,1,z,Wed Dec 03 2025 16:07:29 GMT-0600 (Central Standard Time),305108.40000000596,temper,1000,O,z,z,None,968,768.0,200.0,59,1,2512.9000000059605,302595.5,7250,temper,AF,B,302598,302598,300866,301881,300867,303379,302397,302397,303379,62
58,test,1,con,1,m,Wed Dec 03 2025 16:07:29 GMT-0600 (Central Standard Time),306923.5,jacket,800,O,m,m,None,478,277.0,201.0,97,1,1810.0999999940395,305113.40000000596,7250,jacket,AF,B,304913,304913,303384,304197,303385,305195,304712,304712,305194,63
59,test,1,inc,1,z,Wed Dec 03 2025 16:07:29 GMT-0600 (Central Standard Time),309207.0,film,1100,O,z,z,None,634,435.0,199.0,48,1,2280.800000011921,306926.1999999881,7250,hate,AF,B,307028,307028,305197,306313,305198,307478,306829,306829,307478,64
60,test,1,con,1,z,Wed Dec 03 2025 16:07:29 GMT-0600 (Central Standard Time),311392.09999999404,kind,1100,O,z,z,None,543,343.0,200.0,12,1,2179.2999999821186,309212.8000000119,7250,kind,AF,B,309311,309311,307484,308595,307484,309663,309111,309111,309663,65
61,test,1,con,1,m,Wed Dec 03 2025 16:07:29 GMT-0600 (Central Standard Time),313471.1999999881,bell,800,O,m,m,None,739,539.0,200.0,81,1,2076.2999999821186,311394.90000000596,7250,bell,AF,B,311195,311195,309666,310478,309666,311742,310994,310994,311742,66
62,test,1,con,1,z,Wed Dec 03 2025 16:07:29 GMT-0600 (Central Standard Time),315459.90000000596,elated,1000,O,z,z,None,470,255.0,215.0,3,1,1986.0,313473.90000000596,7250,elated,AF,B,313476,313476,311745,312759,311745,313731,313261,313261,313731,67
63,test,1,inc,1,m,Wed Dec 03 2025 16:07:29 GMT-0600 (Central Standard Time),317420.59999999404,elated,800,O,m,m,None,620,421.0,199.0,125,1,1958.0999999940395,315462.5,7250,window,AF,B,315258,315258,313734,314544,313734,315692,315059,315059,315692,68
64,test,1,con,1,m,Wed Dec 03 2025 16:07:29 GMT-0600 (Central Standard Time),319469.09999999404,jacket,1100,O,m,m,None,402,201.0,201.0,100,1,2045.199999988079,317423.90000000596,7250,jacket,AF,B,317525,317525,315695,316809,315695,317740,317324,317324,317740,69
65,test,1,inc,1,m,Wed Dec 03 2025 16:07:29 GMT-0600 (Central Standard Time),321386.40000000596,rage,800,O,m,m,None,567,366.0,201.0,69,1,1914.2000000178814,319472.1999999881,7250,step,AF,B,319275,319275,317743,318559,317743,319657,319074,319074,319657,70
66,test,1,con,1,m,Wed Dec 03 2025 16:07:29 GMT-0600 (Central Standard Time),323236.40000000596,film,800,O,m,m,None,514,313.0,201.0,89,1,1847.0999999940395,321389.3000000119,7250,film,AF,B,321190,321190,319660,320476,319661,321507,320989,320989,321507,71
67,test,1,inc,1,z,Wed Dec 03 2025 16:07:29 GMT-0600 (Central Standard Time),325434.40000000596,remote,1000,O,z,z,None,681,482.0,199.0,31,1,2194.0999999940395,323240.3000000119,7250,friend,AF,B,323223,323223,321511,322523,321512,323705,323024,323024,323705,72
68,test,1,con,1,z,Wed Dec 03 2025 16:07:29 GMT-0600 (Central Standard Time),327583.90000000596,kind,900,O,z,z,None,700,501.0,199.0,10,1,2145.7000000178814,325438.1999999881,7250,kind,AF,B,325339,325339,323709,324622,323710,325855,325139,325139,325855,73
69,test,1,inc,1,z,Wed Dec 03 2025 16:07:29 GMT-0600 (Central Standard Time),329965.59999999404,window,1100,O,z,z,None,734,534.0,200.0,64,1,2376.5999999940395,327589.0,7250,temper,AF,B,327689,327689,325860,326974,325860,328237,327488,327488,328237,74
70,test,1,inc,1,m,Wed Dec 03 2025 16:07:29 GMT-0600 (Central Standard Time),332050.6999999881,brutal,900,O,m,m,None,646,447.0,199.0,110,1,2082.199999988079,329968.5,7250,napkin,AF,B,329871,329871,328240,329154,328240,330322,329670,329671,330322,75
71,test,1,inc,1,z,Wed Dec 03 2025 16:07:29 GMT-0600 (Central Standard Time),334265.0,napkin,900,O,z,z,None,765,565.0,200.0,30,1,2210.800000011921,332054.1999999881,7250,friend,AF,B,331955,331955,330325,331236,330326,332536,331754,331754,332536,76
72,test,1,inc,1,z,Wed Dec 03 2025 16:07:29 GMT-0600 (Central Standard Time),336313.90000000596,napkin,900,O,z,z,None,612,406.0,206.0,6,1,2045.9000000059605,334268.0,7250,elated,AF,B,334175,334176,332539,333453,332539,334585,333969,333969,334585,77
73,test,1,con,1,m,Wed Dec 03 2025 16:07:29 GMT-0600 (Central Standard Time),338513.6999999881,step,900,O,m,m,None,764,564.0,200.0,66,1,2197.199999988079,336316.5,7250,step,AF,B,336219,336219,334588,335502,334588,336785,336019,336019,336785,78
74,test,1,con,1,z,Wed Dec 03 2025 16:07:29 GMT-0600 (Central Standard Time),340662.90000000596,temper,800,O,z,z,None,802,603.0,199.0,57,1,2143.7000000178814,338519.1999999881,7250,temper,AF,B,338318,338318,336790,337602,336791,338934,338118,338118,338934,79
75,test,1,inc,1,m,Wed Dec 03 2025 16:07:29 GMT-0600 (Central Standard Time),342712.09999999404,rage,800,O,m,m,None,701,501.0,200.0,93,1,2044.0,340668.09999999404,7250,film,AF,B,340467,340467,338939,339751,338939,340983,340267,340267,340983,80
76,test,1,inc,1,z,Wed Dec 03 2025 16:07:29 GMT-0600 (Central Standard Time),345196.6999999881,film,1100,O,z,z,None,846,647.0,199.0,16,1,2478.2999999821186,342718.40000000596,7250,kind,AF,B,342816,342816,340989,342100,340990,343468,342617,342617,343468,81
77,test,1,con,1,m,Wed Dec 03 2025 16:07:29 GMT-0600 (Central Standard Time),347545.3000000119,bell,1100,O,m,m,None,709,509.0,200.0,84,1,2343.300000011921,345202.0,7250,bell,AF,B,345299,345299,343473,344583,343473,345816,345099,345099,345816,82
78,test,1,inc,1,m,Wed Dec 03 2025 16:07:29 GMT-0600 (Central Standard Time),349710.1999999881,temper,1000,O,m,m,None,617,418.0,199.0,103,1,2157.399999976158,347552.8000000119,7250,jacket,AF,B,347549,347549,345824,346836,345824,347981,347349,347349,347981,83
79,test,1,con,1,z,Wed Dec 03 2025 16:07:29 GMT-0600 (Central Standard Time),352192.40000000596,brutal,1000,O,z,z,None,940,740.0,200.0,35,1,2474.7000000178814,349717.6999999881,7250,brutal,AF,B,349715,349715,347989,348998,347989,350464,349515,349515,350463,84
80,test,1,inc,1,z,Wed Dec 03 2025 16:07:29 GMT-0600 (Central Standard Time),354708.3000000119,window,1100,O,z,z,None,870,670.0,200.0,40,1,2506.2000000178814,352202.09999999404,7250,brutal,AF,B,352297,352297,350473,351581,350474,352980,352097,352097,352979,85
81,test,1,inc,1,m,Wed Dec 03 2025 16:07:29 GMT-0600 (Central Standard Time),356790.90000000596,kind,900,O,m,m,None,633,433.0,200.0,86,1,2076.5,354714.40000000596,7250,bell,AF,B,354614,354614,352985,353897,352986,355062,354413,354413,355062,86
82,test,1,inc,1,z,Wed Dec 03 2025 16:07:29 GMT-0600 (Central Standard Time),359140.90000000596,bell,1000,O,z,z,None,801,585.0,216.0,47,1,2345.7000000178814,356795.1999999881,7250,hate,AF,B,356813,356813,355066,356079,355066,357412,356597,356597,357412,87
83,test,1,inc,1,z,Wed Dec 03 2025 16:07:29 GMT-0600 (Central Standard Time),361224.40000000596,napkin,900,O,z,z,None,634,434.0,200.0,38,1,2080.0999999940395,359144.3000000119,7250,brutal,AF,B,359046,359046,357415,358328,357415,359496,358845,358845,359495,88
84,test,1,inc,1,m,Wed Dec 03 2025 16:07:29 GMT-0600 (Central Standard Time),363355.90000000596,kind,900,O,m,m,None,686,487.0,199.0,94,1,2126.2000000178814,361229.6999999881,7250,film,AF,B,361128,361128,359501,360411,359501,361627,360928,360928,361627,89
85,test,1,con,1,m,Wed Dec 03 2025 16:07:29 GMT-0600 (Central Standard Time),365721.6999999881,film,1000,O,m,m,None,844,629.0,215.0,91,1,2361.5,363360.1999999881,7250,film,AF,B,363361,363361,361631,362644,361631,363993,363145,363145,363993,90
85,test,1,con,0,z,Wed Dec 03 2025 16:07:29 GMT-0600 (Central Standard Time),367855.0,kind,1000,O,m,m,None,591,376.0,215.0,11,1,2130.699999988079,365724.3000000119,7250,kind,AF,B,365743,365743,363995,365010,363995,366126,365527,365527,366126,91
86,test,1,con,1,z,Wed Dec 03 2025 16:07:29 GMT-0600 (Central Standard Time),370088.3000000119,rage,800,O,z,z,None,883,684.0,199.0,49,1,2228.5,367859.8000000119,7250,rage,AF,B,367658,367659,366131,366943,366131,368359,367459,367459,368359,92
87,test,1,con,1,z,Wed Dec 03 2025 16:07:29 GMT-0600 (Central Standard Time),372102.6999999881,temper,900,O,z,z,None,574,374.0,200.0,58,1,2009.5999999940395,370093.09999999404,7250,temper,AF,B,369992,369992,368364,369275,368364,370374,369792,369792,370374,93
88,test,1,inc,1,m,Wed Dec 03 2025 16:07:29 GMT-0600 (Central Standard Time),374286.90000000596,brutal,900,O,m,m,None,743,543.0,200.0,118,1,2181.5,372105.40000000596,7250,remote,AF,B,372008,372008,370376,371292,370377,372558,371808,371808,372558,94
89,test,1,inc,1,z,Wed Dec 03 2025 16:07:29 GMT-0600 (Central Standard Time),376268.3000000119,step,800,O,z,z,None,650,436.0,214.0,53,1,1976.300000011921,374292.0,7250,rage,AF,B,374090,374090,372563,373373,372563,374539,373875,373875,374539,95
90,test,1,con,1,z,Wed Dec 03 2025 16:07:29 GMT-0600 (Central Standard Time),378601.6999999881,brutal,800,O,z,z,None,990,789.0,201.0,33,1,2329.0,376272.6999999881,7250,brutal,AF,B,376073,376073,374544,375356,374544,376873,375872,375872,376873,96
91,test,1,inc,1,m,Wed Dec 03 2025 16:07:29 GMT-0600 (Central Standard Time),380817.3000000119,temper,1000,O,m,m,None,667,451.0,216.0,119,1,2211.4000000059605,378605.90000000596,7250,remote,AF,B,378622,378622,376877,377890,376877,379088,378406,378406,379088,97
92,test,1,inc,1,m,Wed Dec 03 2025 16:07:29 GMT-0600 (Central Standard Time),383257.1999999881,friend,1100,O,m,m,None,789,589.0,200.0,112,1,2435.7999999821186,380821.40000000596,7250,napkin,AF,B,380922,380923,379092,380205,379093,381528,380722,380722,381528,98
93,test,1,con,1,m,Wed Dec 03 2025 16:07:29 GMT-0600 (Central Standard Time),385616.09999999404,step,1000,O,m,m,None,817,601.0,216.0,67,1,2352.199999988079,383263.90000000596,7250,step,AF,B,383271,383271,381535,382537,381535,383887,383055,383055,383887,99
94,test,1,inc,1,m,Wed Dec 03 2025 16:07:29 GMT-0600 (Central Standard Time),387732.59999999404,kind,900,O,m,m,None,670,469.0,201.0,70,1,2107.9000000059605,385624.6999999881,7250,step,AF,B,385521,385521,383896,384803,383896,386004,385320,385320,386004,100
95,test,1,con,1,m,Wed Dec 03 2025 16:07:29 GMT-0600 (Central Standard Time),390347.6999999881,rock,1100,O,m,m,None,979,777.0,202.0,76,1,2610.7999999821186,387736.90000000596,7250,rock,AF,B,387838,387838,386008,387121,386008,388619,387636,387636,388619,101
96,test,1,inc,1,z,Wed Dec 03 2025 16:07:29 GMT-0600 (Central Standard Time),392413.40000000596,napkin,900,O,z,z,None,621,421.0,200.0,62,1,2063.0,390350.40000000596,7250,temper,AF,B,390251,390251,388621,389535,388622,390684,390051,390051,390684,102
97,test,1,con,1,z,Wed Dec 03 2025 16:07:29 GMT-0600 (Central Standard Time),394646.6999999881,rage,1000,O,z,z,None,692,477.0,215.0,51,1,2229.2999999821186,392417.40000000596,7250,rage,AF,B,392434,392434,390688,391701,390689,392918,392219,392219,392918,103
98,test,1,con,1,z,Wed Dec 03 2025 16:07:29 GMT-0600 (Central Standard Time),396777.8000000119,friend,1000,O,z,z,None,594,379.0,215.0,27,1,2127.5,394650.3000000119,7250,friend,AF,B,394667,394668,392921,393934,392921,395049,394452,394452,395049,104
99,test,1,inc,1,m,Wed Dec 03 2025 16:07:29 GMT-0600 (Central Standard Time),399129.09999999404,friend,1100,O,m,m,None,717,502.0,215.0,120,1,2348.7999999821186,396780.3000000119,7250,remote,AF,B,396883,396883,395051,396166,395052,397400,396668,396668,397400,105
100,test,1,con,1,m,Wed Dec 03 2025 16:07:29 GMT-0600 (Central Standard Time),401542.8000000119,film,1100,O,m,m,None,773,574.0,199.0,92,1,2409.600000023842,399133.1999999881,7250,film,AF,B,399232,399232,397404,398515,397404,399814,399033,399033,399814,106
101,test,1,con,1,m,Wed Dec 03 2025 16:07:29 GMT-0600 (Central Standard Time),403792.59999999404,remote,900,O,m,m,None,803,588.0,215.0,114,1,2245.4000000059605,401547.1999999881,7250,remote,AF,B,401466,401466,399818,400733,399819,402064,401250,401250,402064,107
101,test,1,inc,0,m,Wed Dec 03 2025 16:07:29 GMT-0600 (Central Standard Time),406009.40000000596,elated,800,O,z,z,None,865,666.0,199.0,101,1,2212.5,403796.90000000596,7250,jacket,AF,B,403598,403598,402068,402882,402068,404280,403399,403399,404280,108
102,test,1,inc,1,m,Wed Dec 03 2025 16:07:29 GMT-0600 (Central Standard Time),408425.3000000119,hate,1100,O,m,m,None,774,574.0,200.0,96,1,2411.9000000059605,406013.40000000596,7250,film,AF,B,406113,406113,404284,405397,404285,406696,405913,405913,406696,109
103,test,1,con,1,m,Wed Dec 03 2025 16:07:29 GMT-0600 (Central Standard Time),410393.1999999881,bell,1000,O,m,m,None,431,215.0,216.0,83,1,1963.5999999940395,408429.59999999404,7250,bell,AF,B,408431,408431,406701,407713,406701,408664,408214,408214,408664,110
104,test,1,inc,1,m,Wed Dec 03 2025 16:07:29 GMT-0600 (Central Standard Time),412258.1999999881,rage,800,O,m,m,None,523,324.0,199.0,85,1,1861.5,410396.6999999881,7250,bell,AF,B,410195,410195,408668,409481,408668,410529,409996,409996,410529,111
105,test,1,inc,1,m,Wed Dec 03 2025 16:07:29 GMT-0600 (Central Standard Time),414657.59999999404,hate,1100,O,m,m,None,764,550.0,214.0,72,1,2396.5,412261.09999999404,7250,step,AF,B,412361,412361,410532,411645,410532,412929,412147,412147,412929,112
106,test,1,inc,1,z,Wed Dec 03 2025 16:07:29 GMT-0600 (Central Standard Time),417154.40000000596,window,1100,O,z,z,None,861,660.0,201.0,8,1,2491.4000000059605,414663.0,7250,elated,AF,B,414762,414762,412934,414046,412934,415425,414561,414561,415425,113
107,test,1,con,1,m,Wed Dec 03 2025 16:07:29 GMT-0600 (Central Standard Time),419937.59999999404,rock,900,O,m,m,None,1338,1138.0,200.0,74,1,2780.5,417157.09999999404,7250,rock,AF,B,417061,417061,415428,416344,415428,418209,416860,416860,418209,114
108,test,1,inc,1,z,Wed Dec 03 2025 16:07:29 GMT-0600 (Central Standard Time),422339.1999999881,film,1100,O,z,z,None,749,549.0,200.0,56,1,2398.699999988079,419940.5,7250,rage,AF,B,420043,420043,418212,419326,418212,420610,419843,419843,420610,115
108,test,1,inc,0,m,Wed Dec 03 2025 16:07:29 GMT-0600 (Central Standard Time),425885.1999999881,love,1000,O,None,None,None,1814,1814.0,200.0,87,1,3542.0,422343.1999999881,7250,bell,AF,B,422342,422342,420614,421626,420614,424156,422141,422141,424156,116
109,test,1,inc,1,z,Wed Dec 03 2025 16:07:29 GMT-0600 (Central Standard Time),427836.09999999404,jacket,800,O,z,z,None,604,388.0,216.0,37,1,1948.0,425888.09999999404,7250,brutal,AF,B,425707,425707,424159,424975,424159,426107,425491,425491,426107,117
110,test,1,con,1,m,Wed Dec 03 2025 16:07:29 GMT-0600 (Central Standard Time),430386.5,jacket,1000,O,m,m,None,999,799.0,200.0,99,1,2546.0,427840.5,7250,jacket,AF,B,427840,427840,426112,427127,426112,428658,427640,427640,428658,118
111,test,1,con,1,z,Wed Dec 03 2025 16:07:29 GMT-0600 (Central Standard Time),432433.40000000596,hate,1000,O,z,z,None,521,321.0,200.0,43,1,2043.800000011921,430389.59999999404,7250,hate,AF,B,430373,430373,428661,429671,428661,430704,430173,430173,430704,119
112,test,1,con,1,m,Wed Dec 03 2025 16:07:29 GMT-0600 (Central Standard Time),435016.59999999404,window,1100,O,m,m,None,933,732.0,201.0,124,1,2580.5,432436.09999999404,7250,window,AF,B,432540,432540,430707,431823,430707,433288,432339,432339,433288,120
113,test,1,con,1,m,Wed Dec 03 2025 16:07:29 GMT-0600 (Central Standard Time),437082.5,napkin,1000,O,m,m,None,520,320.0,200.0,107,1,2063.0999999940395,435019.40000000596,7250,napkin,AF,B,435021,435022,433290,434306,433291,435354,434821,434821,435353,121
114,test,1,inc,1,m,Wed Dec 03 2025 16:07:29 GMT-0600 (Central Standard Time),438982.5,elated,800,O,m,m,None,550,351.0,199.0,109,1,1896.9000000059605,437085.59999999404,7250,napkin,AF,B,436888,436888,435357,436172,435357,437254,436688,436688,437254,122
115,test,1,con,1,m,Wed Dec 03 2025 16:07:29 GMT-0600 (Central Standard Time),440815.40000000596,napkin,800,O,m,m,None,492,287.0,205.0,105,1,1830.300000011921,438985.09999999404,7250,napkin,AF,B,438792,438792,437256,438070,437256,439086,438586,438586,439086,123
116,test,1,con,1,m,Wed Dec 03 2025 16:07:29 GMT-0600 (Central Standard Time),443447.40000000596,remote,800,O,m,m,None,1284,1083.0,201.0,113,1,2628.300000011921,440819.09999999404,7250,remote,AF,B,440619,440619,439090,439904,439090,441718,440418,440418,441718,124
117,test,1,inc,1,z,Wed Dec 03 2025 16:07:29 GMT-0600 (Central Standard Time),445681.8000000119,bell,1000,O,z,z,None,684,484.0,200.0,15,1,2229.9000000059605,443451.90000000596,7250,kind,AF,B,443452,443452,441723,442735,441723,443953,443252,443252,443953,125
118,test,1,inc,1,z,Wed Dec 03 2025 16:07:29 GMT-0600 (Central Standard Time),447762.09999999404,step,800,O,z,z,None,738,539.0,199.0,21,1,2076.199999988079,445685.90000000596,7250,love,AF,B,445484,445484,443957,444768,443957,446033,445284,445284,446033,126
119,test,1,inc,1,m,Wed Dec 03 2025 16:07:29 GMT-0600 (Central Standard Time),450060.90000000596,kind,900,O,m,m,None,867,668.0,199.0,78,1,2291.2000000178814,447769.6999999881,7250,rock,AF,B,447650,447650,446041,446949,446041,448332,447451,447451,448332,127
120,test,1,inc,1,z,Wed Dec 03 2025 16:07:29 GMT-0600 (Central Standard Time),452160.40000000596,jacket,800,O,z,z,None,756,557.0,199.0,5,1,2095.2000000178814,450065.1999999881,7250,elated,AF,B,449865,449865,448336,449149,448337,450431,449666,449666,450431,128
