acc_sum,block,block_c,block_cond,con_img,correct,correct_response,datetime,endtime,face,jitter,line,project,response,response_time,row_sel,session_number,start_end,starttime,subject_id,task,task_vers,trial
1,prac,1,A,haborder.png,1,m,Mon Jun 08 2026 15:10:31 GMT-0400 (Eastern Daylight Time),53285.0,CFD-BM-017-052-HC.jpg,1700,solid,I,m,857,1,1,3350.5,49934.5,9088,ATS,A,1
2,prac,1,A,haborder.png,1,z,Mon Jun 08 2026 15:10:31 GMT-0400 (Eastern Daylight Time),56351.60000002384,CFD-WF-003-014-A.jpg,1600,solid,I,z,680,10,1,6417.100000023842,49934.5,9088,ATS,A,2
3,prac,1,A,haborder.png,1,z,Mon Jun 08 2026 15:10:31 GMT-0400 (Eastern Daylight Time),58801.60000002384,CFD-BF-023-013-A.jpg,1000,solid,I,z,661,4,1,8867.100000023842,49934.5,9088,ATS,A,3
4,prac,1,A,haborder.png,1,m,Mon Jun 08 2026 15:10:31 GMT-0400 (Eastern Daylight Time),61618.30000001192,CFD-WM-004-005-HC.jpg,1400,solid,I,m,627,7,1,11683.800000011921,49934.5,9088,ATS,A,4
5,prac,1,A,haborder.png,1,m,Mon Jun 08 2026 15:10:31 GMT-0400 (Eastern Daylight Time),64734.90000003576,CFD-WM-006-013-HC.jpg,1700,solid,I,m,630,9,1,14800.400000035763,49934.5,9088,ATS,A,5
6,prac,1,A,haborder.png,1,m,Mon Jun 08 2026 15:10:31 GMT-0400 (Eastern Daylight Time),68001.5,CFD-WF-017-016-HC.jpg,1500,solid,I,m,978,11,1,18067.0,49934.5,9088,ATS,A,6
7,prac,1,A,haborder.png,1,z,Mon Jun 08 2026 15:10:31 GMT-0400 (Eastern Daylight Time),70451.5,CFD-WF-019-015-A.jpg,1000,solid,I,z,660,12,1,20517.0,49934.5,9088,ATS,A,7
8,prac,1,A,haborder.png,1,m,Mon Jun 08 2026 15:10:31 GMT-0400 (Eastern Daylight Time),74201.5,CFD-BF-028-020-HC.jpg,2000,solid,I,m,953,5,1,24267.0,49934.5,9088,ATS,A,8
9,prac,1,A,haborder.png,1,z,Mon Jun 08 2026 15:10:31 GMT-0400 (Eastern Daylight Time),77351.5,CFD-BM-005-010-A.jpg,1600,solid,I,z,754,2,1,27417.0,49934.5,9088,ATS,A,9
10,prac,1,A,haborder.png,1,m,Mon Jun 08 2026 15:10:31 GMT-0400 (Eastern Daylight Time),80701.5,CFD-BM-029-026-HC.jpg,1500,solid,I,m,1049,3,1,30767.0,49934.5,9088,ATS,A,10
11,prac,1,A,haborder.png,1,z,Mon Jun 08 2026 15:10:31 GMT-0400 (Eastern Daylight Time),83351.5,CFD-BF-039-039-A.jpg,1200,solid,I,z,655,6,1,33417.0,49934.5,9088,ATS,A,11
12,prac,1,A,haborder.png,1,z,Mon Jun 08 2026 15:10:31 GMT-0400 (Eastern Daylight Time),86801.5,CFD-WM-013-015-A.jpg,1900,solid,I,z,761,8,1,36867.0,49934.5,9088,ATS,A,12
1,prac,1,B,mfborder.png,1,m,Mon Jun 08 2026 15:10:31 GMT-0400 (Eastern Daylight Time),116234.80000001192,CFD-WM-019-013-A.jpg,1200,dash,I,m,551,6,1,2550.100000023842,113684.69999998808,9088,ATS,A,1
2,prac,1,B,mfborder.png,1,m,Mon Jun 08 2026 15:10:31 GMT-0400 (Eastern Daylight Time),119651.40000003576,CFD-BM-005-010-A.jpg,2000,dash,I,m,625,5,1,5966.700000047684,113684.69999998808,9088,ATS,A,2
3,prac,1,B,mfborder.png,1,m,Mon Jun 08 2026 15:10:31 GMT-0400 (Eastern Daylight Time),122584.69999998808,CFD-BM-010-019-A.jpg,1600,dash,I,m,537,2,1,8900.0,113684.69999998808,9088,ATS,A,3
4,prac,1,B,mfborder.png,1,z,Mon Jun 08 2026 15:10:31 GMT-0400 (Eastern Daylight Time),125434.60000002384,CFD-WF-003-014-A.jpg,1500,dash,I,z,551,11,1,11749.900000035763,113684.69999998808,9088,ATS,A,4
5,prac,1,B,mfborder.png,1,m,Mon Jun 08 2026 15:10:31 GMT-0400 (Eastern Daylight Time),128501.40000003576,CFD-WM-013-015-A.jpg,1700,dash,I,m,573,9,1,14816.700000047684,113684.69999998808,9088,ATS,A,5
6,prac,1,B,mfborder.png,1,z,Mon Jun 08 2026 15:10:31 GMT-0400 (Eastern Daylight Time),131401.40000003576,CFD-BF-010-005-HC.jpg,1500,dash,I,z,603,3,1,17716.700000047684,113684.69999998808,9088,ATS,A,6
7,prac,1,B,mfborder.png,1,z,Mon Jun 08 2026 15:10:31 GMT-0400 (Eastern Daylight Time),134201.40000003576,CFD-BF-028-020-HC.jpg,1400,dash,I,z,603,7,1,20516.700000047684,113684.69999998808,9088,ATS,A,7
8,prac,1,B,mfborder.png,1,z,Mon Jun 08 2026 15:10:31 GMT-0400 (Eastern Daylight Time),136567.90000003576,CFD-WF-017-016-HC.jpg,1000,dash,I,z,572,12,1,22883.200000047684,113684.69999998808,9088,ATS,A,8
9,prac,1,B,mfborder.png,1,m,Mon Jun 08 2026 15:10:31 GMT-0400 (Eastern Daylight Time),139601.40000003576,CFD-BM-029-026-HC.jpg,1700,dash,I,m,544,1,1,25916.700000047684,113684.69999998808,9088,ATS,A,9
10,prac,1,B,mfborder.png,1,z,Mon Jun 08 2026 15:10:31 GMT-0400 (Eastern Daylight Time),142018.0,CFD-BF-023-013-A.jpg,1000,dash,I,z,628,4,1,28333.30000001192,113684.69999998808,9088,ATS,A,10
11,prac,1,B,mfborder.png,1,z,Mon Jun 08 2026 15:10:31 GMT-0400 (Eastern Daylight Time),145501.30000001192,CFD-WF-002-008-HC.jpg,1900,dash,I,z,798,8,1,31816.600000023842,113684.69999998808,9088,ATS,A,11
12,prac,1,B,mfborder.png,1,m,Mon Jun 08 2026 15:10:31 GMT-0400 (Eastern Daylight Time),148468.10000002384,CFD-WM-006-013-HC.jpg,1600,dash,I,m,575,10,1,34783.40000003576,113684.69999998808,9088,ATS,A,12
1,test,1,A,haborder.png,1,z,Mon Jun 08 2026 15:10:31 GMT-0400 (Eastern Daylight Time),171967.90000003576,CFD-WF-019-015-A.jpg,1000,solid,I,z,680,12,1,1700.0,170267.90000003576,9088,ATS,A,1
2,test,1,A,haborder.png,1,z,Mon Jun 08 2026 15:10:31 GMT-0400 (Eastern Daylight Time),174285.0,CFD-BM-005-010-A.jpg,1600,solid,I,z,700,2,1,4017.099999964237,170267.90000003576,9088,ATS,A,2
3,test,1,A,haborder.png,1,z,Mon Jun 08 2026 15:10:31 GMT-0400 (Eastern Daylight Time),175884.5,CFD-BF-023-013-A.jpg,1000,solid,I,z,567,4,1,5616.599999964237,170267.90000003576,9088,ATS,A,3
4,test,1,A,haborder.png,1,m,Mon Jun 08 2026 15:10:31 GMT-0400 (Eastern Daylight Time),178651.10000002384,CFD-WF-017-016-HC.jpg,1500,solid,I,m,1236,11,1,8383.199999988079,170267.90000003576,9088,ATS,A,4
5,test,1,A,haborder.png,1,m,Mon Jun 08 2026 15:10:31 GMT-0400 (Eastern Daylight Time),180667.80000001192,CFD-WM-004-005-HC.jpg,1400,solid,I,m,585,7,1,10399.899999976158,170267.90000003576,9088,ATS,A,5
6,test,1,A,haborder.png,1,m,Mon Jun 08 2026 15:10:31 GMT-0400 (Eastern Daylight Time),182834.40000003576,CFD-BM-029-026-HC.jpg,1500,solid,I,m,645,3,1,12566.5,170267.90000003576,9088,ATS,A,6
7,test,1,A,haborder.png,1,z,Mon Jun 08 2026 15:10:31 GMT-0400 (Eastern Daylight Time),185501.10000002384,CFD-WM-013-015-A.jpg,1900,solid,I,z,733,8,1,15233.199999988079,170267.90000003576,9088,ATS,A,7
8,test,1,A,haborder.png,1,z,Mon Jun 08 2026 15:10:31 GMT-0400 (Eastern Daylight Time),187701.19999998808,CFD-WF-003-014-A.jpg,1600,solid,I,z,575,10,1,17433.299999952316,170267.90000003576,9088,ATS,A,8
9,test,1,A,haborder.png,1,z,Mon Jun 08 2026 15:10:31 GMT-0400 (Eastern Daylight Time),190217.90000003576,CFD-WM-013-015-A.jpg,1900,solid,I,z,587,8,1,19950.0,170267.90000003576,9088,ATS,A,9
10,test,1,A,haborder.png,1,z,Mon Jun 08 2026 15:10:31 GMT-0400 (Eastern Daylight Time),192384.5,CFD-BM-005-010-A.jpg,1600,solid,I,z,547,2,1,22116.599999964237,170267.90000003576,9088,ATS,A,10
11,test,1,A,haborder.png,1,m,Mon Jun 08 2026 15:10:31 GMT-0400 (Eastern Daylight Time),194667.69999998808,CFD-WF-017-016-HC.jpg,1500,solid,I,m,752,11,1,24399.799999952316,170267.90000003576,9088,ATS,A,11
12,test,1,A,haborder.png,1,m,Mon Jun 08 2026 15:10:31 GMT-0400 (Eastern Daylight Time),197584.40000003576,CFD-BF-028-020-HC.jpg,2000,solid,I,m,897,5,1,27316.5,170267.90000003576,9088,ATS,A,12
13,test,1,A,haborder.png,1,z,Mon Jun 08 2026 15:10:31 GMT-0400 (Eastern Daylight Time),199451.0,CFD-BF-039-039-A.jpg,1200,solid,I,z,636,6,1,29183.099999964237,170267.90000003576,9088,ATS,A,13
14,test,1,A,haborder.png,1,m,Mon Jun 08 2026 15:10:31 GMT-0400 (Eastern Daylight Time),201918.0,CFD-WM-006-013-HC.jpg,1700,solid,I,m,749,9,1,31650.099999964237,170267.90000003576,9088,ATS,A,14
15,test,1,A,haborder.png,1,m,Mon Jun 08 2026 15:10:31 GMT-0400 (Eastern Daylight Time),204350.80000001192,CFD-BM-017-052-HC.jpg,1700,solid,I,m,715,1,1,34082.89999997616,170267.90000003576,9088,ATS,A,15
16,test,1,A,haborder.png,1,m,Mon Jun 08 2026 15:10:31 GMT-0400 (Eastern Daylight Time),206551.0,CFD-WM-004-005-HC.jpg,1400,solid,I,m,773,7,1,36283.09999996424,170267.90000003576,9088,ATS,A,16
17,test,1,A,haborder.png,1,m,Mon Jun 08 2026 15:10:31 GMT-0400 (Eastern Daylight Time),208867.80000001192,CFD-WM-006-013-HC.jpg,1700,solid,I,m,593,9,1,38599.89999997616,170267.90000003576,9088,ATS,A,17
18,test,1,A,haborder.png,1,z,Mon Jun 08 2026 15:10:31 GMT-0400 (Eastern Daylight Time),211017.69999998808,CFD-BF-039-039-A.jpg,1200,solid,I,z,921,6,1,40749.799999952316,170267.90000003576,9088,ATS,A,18
19,test,1,A,haborder.png,1,m,Mon Jun 08 2026 15:10:31 GMT-0400 (Eastern Daylight Time),213467.40000003576,CFD-BM-017-052-HC.jpg,1700,solid,I,m,718,1,1,43199.5,170267.90000003576,9088,ATS,A,19
20,test,1,A,haborder.png,1,z,Mon Jun 08 2026 15:10:31 GMT-0400 (Eastern Daylight Time),215118.19999998808,CFD-BF-023-013-A.jpg,1000,solid,I,z,633,4,1,44850.299999952316,170267.90000003576,9088,ATS,A,20
21,test,1,A,haborder.png,1,m,Mon Jun 08 2026 15:10:31 GMT-0400 (Eastern Daylight Time),217884.40000003576,CFD-BF-028-020-HC.jpg,2000,solid,I,m,734,5,1,47616.5,170267.90000003576,9088,ATS,A,21
22,test,1,A,haborder.png,1,m,Mon Jun 08 2026 15:10:31 GMT-0400 (Eastern Daylight Time),220001.0,CFD-BM-029-026-HC.jpg,1500,solid,I,m,595,3,1,49733.09999996424,170267.90000003576,9088,ATS,A,22
23,test,1,A,haborder.png,1,z,Mon Jun 08 2026 15:10:31 GMT-0400 (Eastern Daylight Time),221734.40000003576,CFD-WF-019-015-A.jpg,1000,solid,I,z,708,12,1,51466.5,170267.90000003576,9088,ATS,A,23
24,test,1,A,haborder.png,1,z,Mon Jun 08 2026 15:10:31 GMT-0400 (Eastern Daylight Time),223984.30000001192,CFD-WF-003-014-A.jpg,1600,solid,I,z,631,10,1,53716.39999997616,170267.90000003576,9088,ATS,A,24
1,test,1,B,mfborder.png,1,m,Mon Jun 08 2026 15:10:31 GMT-0400 (Eastern Daylight Time),239534.19999998808,CFD-BM-010-019-A.jpg,1600,dash,I,m,549,2,1,2166.699999988079,237367.5,9088,ATS,A,1
2,test,1,B,mfborder.png,1,z,Mon Jun 08 2026 15:10:31 GMT-0400 (Eastern Daylight Time),242034.40000003576,CFD-WF-002-008-HC.jpg,1900,dash,I,z,578,8,1,4666.900000035763,237367.5,9088,ATS,A,2
3,test,1,B,mfborder.png,1,m,Mon Jun 08 2026 15:10:31 GMT-0400 (Eastern Daylight Time),244484.30000001192,CFD-WM-013-015-A.jpg,1700,dash,I,m,726,9,1,7116.800000011921,237367.5,9088,ATS,A,3
4,test,1,B,mfborder.png,1,z,Mon Jun 08 2026 15:10:31 GMT-0400 (Eastern Daylight Time),246701.10000002384,CFD-WF-003-014-A.jpg,1500,dash,I,z,683,11,1,9333.600000023842,237367.5,9088,ATS,A,4
5,test,1,B,mfborder.png,1,z,Mon Jun 08 2026 15:10:31 GMT-0400 (Eastern Daylight Time),248717.60000002384,CFD-BF-028-020-HC.jpg,1400,dash,I,z,583,7,1,11350.100000023842,237367.5,9088,ATS,A,5
6,test,1,B,mfborder.png,1,z,Mon Jun 08 2026 15:10:31 GMT-0400 (Eastern Daylight Time),250284.30000001192,CFD-BF-023-013-A.jpg,1000,dash,I,z,535,4,1,12916.800000011921,237367.5,9088,ATS,A,6
7,test,1,B,mfborder.png,1,z,Mon Jun 08 2026 15:10:31 GMT-0400 (Eastern Daylight Time),251817.69999998808,CFD-WF-017-016-HC.jpg,1000,dash,I,z,504,12,1,14450.199999988079,237367.5,9088,ATS,A,7
8,test,1,B,mfborder.png,1,m,Mon Jun 08 2026 15:10:31 GMT-0400 (Eastern Daylight Time),254117.69999998808,CFD-BM-029-026-HC.jpg,1700,dash,I,m,575,1,1,16750.19999998808,237367.5,9088,ATS,A,8
9,test,1,B,mfborder.png,1,z,Mon Jun 08 2026 15:10:31 GMT-0400 (Eastern Daylight Time),255784.40000003576,CFD-BF-023-013-A.jpg,1000,dash,I,z,639,4,1,18416.900000035763,237367.5,9088,ATS,A,9
10,test,1,B,mfborder.png,1,m,Mon Jun 08 2026 15:10:31 GMT-0400 (Eastern Daylight Time),258734.40000003576,CFD-BM-005-010-A.jpg,2000,dash,I,m,932,5,1,21366.900000035763,237367.5,9088,ATS,A,10
11,test,1,B,mfborder.png,1,m,Mon Jun 08 2026 15:10:31 GMT-0400 (Eastern Daylight Time),261317.69999998808,CFD-BM-005-010-A.jpg,2000,dash,I,m,558,5,1,23950.19999998808,237367.5,9088,ATS,A,11
12,test,1,B,mfborder.png,1,m,Mon Jun 08 2026 15:10:31 GMT-0400 (Eastern Daylight Time),263617.6999999881,CFD-BM-010-019-A.jpg,1600,dash,I,m,678,2,1,26250.19999998808,237367.5,9088,ATS,A,12
13,test,1,B,mfborder.png,1,z,Mon Jun 08 2026 15:10:31 GMT-0400 (Eastern Daylight Time),265817.5,CFD-WF-003-014-A.jpg,1500,dash,I,z,671,11,1,28450.0,237367.5,9088,ATS,A,13
14,test,1,B,mfborder.png,1,m,Mon Jun 08 2026 15:10:31 GMT-0400 (Eastern Daylight Time),268134.3000000119,CFD-WM-006-013-HC.jpg,1600,dash,I,m,691,10,1,30766.80000001192,237367.5,9088,ATS,A,14
15,test,1,B,mfborder.png,1,m,Mon Jun 08 2026 15:10:31 GMT-0400 (Eastern Daylight Time),270101.0,CFD-WM-019-013-A.jpg,1200,dash,I,m,742,6,1,32733.5,237367.5,9088,ATS,A,15
16,test,1,B,mfborder.png,1,z,Mon Jun 08 2026 15:10:31 GMT-0400 (Eastern Daylight Time),271867.6999999881,CFD-WF-017-016-HC.jpg,1000,dash,I,z,734,12,1,34500.19999998808,237367.5,9088,ATS,A,16
17,test,1,B,mfborder.png,1,z,Mon Jun 08 2026 15:10:31 GMT-0400 (Eastern Daylight Time),273950.6999999881,CFD-BF-010-005-HC.jpg,1500,dash,I,z,565,3,1,36583.19999998808,237367.5,9088,ATS,A,17
18,test,1,B,mfborder.png,1,m,Mon Jun 08 2026 15:10:31 GMT-0400 (Eastern Daylight Time),276251.0,CFD-WM-013-015-A.jpg,1700,dash,I,m,569,9,1,38883.5,237367.5,9088,ATS,A,18
19,test,1,B,mfborder.png,1,z,Mon Jun 08 2026 15:10:31 GMT-0400 (Eastern Daylight Time),278317.6999999881,CFD-BF-028-020-HC.jpg,1400,dash,I,z,632,7,1,40950.19999998808,237367.5,9088,ATS,A,19
20,test,1,B,mfborder.png,1,z,Mon Jun 08 2026 15:10:31 GMT-0400 (Eastern Daylight Time),280850.90000003576,CFD-WF-002-008-HC.jpg,1900,dash,I,z,611,8,1,43483.40000003576,237367.5,9088,ATS,A,20
21,test,1,B,mfborder.png,1,z,Mon Jun 08 2026 15:10:31 GMT-0400 (Eastern Daylight Time),282867.60000002384,CFD-BF-010-005-HC.jpg,1500,dash,I,z,494,3,1,45500.10000002384,237367.5,9088,ATS,A,21
22,test,1,B,mfborder.png,1,m,Mon Jun 08 2026 15:10:31 GMT-0400 (Eastern Daylight Time),285201.0,CFD-BM-029-026-HC.jpg,1700,dash,I,m,612,1,1,47833.5,237367.5,9088,ATS,A,22
23,test,1,B,mfborder.png,1,m,Mon Jun 08 2026 15:10:31 GMT-0400 (Eastern Daylight Time),287517.60000002384,CFD-WM-006-013-HC.jpg,1600,dash,I,m,683,10,1,50150.10000002384,237367.5,9088,ATS,A,23
24,test,1,B,mfborder.png,1,m,Mon Jun 08 2026 15:10:31 GMT-0400 (Eastern Daylight Time),289417.60000002384,CFD-WM-019-013-A.jpg,1200,dash,I,m,670,6,1,52050.10000002384,237367.5,9088,ATS,A,24
0,prac,1,C,mfborder.png,0,z,Mon Jun 08 2026 15:10:31 GMT-0400 (Eastern Daylight Time),329417.8000000119,CFD-WF-017-016-HC.jpg,1600,dash,I,None,1516,1,1,3900.100000023842,325517.6999999881,9088,ATS,A,1
1,prac,1,C,mfborder.png,1,z,Mon Jun 08 2026 15:10:31 GMT-0400 (Eastern Daylight Time),332901.10000002384,CFD-WF-019-015-A.jpg,1500,solid,I,z,1191,2,1,7383.400000035763,325517.6999999881,9088,ATS,A,2
2,prac,1,C,haborder.png,1,m,Mon Jun 08 2026 15:10:31 GMT-0400 (Eastern Daylight Time),336534.40000003576,CFD-WM-004-005-HC.jpg,1400,solid,I,m,1439,12,1,11016.700000047684,325517.6999999881,9088,ATS,A,3
3,prac,1,C,haborder.png,1,z,Mon Jun 08 2026 15:10:31 GMT-0400 (Eastern Daylight Time),340567.8000000119,CFD-BF-023-013-A.jpg,1900,dash,I,z,1338,7,1,15050.100000023842,325517.6999999881,9088,ATS,A,4
4,prac,1,C,haborder.png,1,m,Mon Jun 08 2026 15:10:31 GMT-0400 (Eastern Daylight Time),343584.40000003576,CFD-BM-029-026-HC.jpg,1500,solid,I,m,729,10,1,18066.700000047684,325517.6999999881,9088,ATS,A,5
5,prac,1,C,haborder.png,1,z,Mon Jun 08 2026 15:10:31 GMT-0400 (Eastern Daylight Time),346934.40000003576,CFD-BF-039-039-A.jpg,1700,solid,I,z,856,8,1,21416.700000047684,325517.6999999881,9088,ATS,A,6
6,prac,1,C,haborder.png,1,m,Mon Jun 08 2026 15:10:31 GMT-0400 (Eastern Daylight Time),349417.60000002384,CFD-WM-004-005-HC.jpg,1000,dash,I,m,686,11,1,23899.900000035763,325517.6999999881,9088,ATS,A,7
7,prac,1,C,mfborder.png,1,m,Mon Jun 08 2026 15:10:31 GMT-0400 (Eastern Daylight Time),352767.60000002384,CFD-BM-005-010-A.jpg,1200,dash,I,m,1362,5,1,27249.900000035763,325517.6999999881,9088,ATS,A,8
8,prac,1,C,mfborder.png,1,m,Mon Jun 08 2026 15:10:31 GMT-0400 (Eastern Daylight Time),356401.0,CFD-WM-013-015-A.jpg,1700,solid,I,m,1145,6,1,30883.30000001192,325517.6999999881,9088,ATS,A,9
9,prac,1,C,mfborder.png,1,m,Mon Jun 08 2026 15:10:31 GMT-0400 (Eastern Daylight Time),360251.0,CFD-BM-017-052-HC.jpg,2000,solid,I,m,1051,4,1,34733.30000001192,325517.6999999881,9088,ATS,A,10
9,prac,1,C,haborder.png,0,z,Mon Jun 08 2026 15:10:31 GMT-0400 (Eastern Daylight Time),364150.90000003576,CFD-WF-003-014-A.jpg,1600,dash,I,None,1516,9,1,38633.200000047684,325517.6999999881,9088,ATS,A,11
9,prac,1,C,mfborder.png,0,z,Mon Jun 08 2026 15:10:31 GMT-0400 (Eastern Daylight Time),367450.90000003576,CFD-BF-028-020-HC.jpg,1000,dash,I,None,1517,3,1,41933.200000047684,325517.6999999881,9088,ATS,A,12
1,test,1,C,haborder.png,1,z,Mon Jun 08 2026 15:10:31 GMT-0400 (Eastern Daylight Time),386750.8000000119,CFD-WM-013-015-A.jpg,1400,solid,I,z,1031,7,1,2449.899999976158,384300.90000003576,9088,ATS,A,1
2,test,1,C,mfborder.png,1,m,Mon Jun 08 2026 15:10:31 GMT-0400 (Eastern Daylight Time),389234.10000002384,CFD-BM-029-026-HC.jpg,1200,dash,I,m,1261,6,1,4933.199999988079,384300.90000003576,9088,ATS,A,2
3,test,1,C,haborder.png,1,z,Mon Jun 08 2026 15:10:31 GMT-0400 (Eastern Daylight Time),391734.10000002384,CFD-WM-013-015-A.jpg,1400,solid,I,z,1074,7,1,7433.199999988079,384300.90000003576,9088,ATS,A,3
3,test,1,C,haborder.png,0,m,Mon Jun 08 2026 15:10:31 GMT-0400 (Eastern Daylight Time),394417.5,CFD-BF-028-020-HC.jpg,1600,solid,I,z,1063,10,1,10116.599999964237,384300.90000003576,9088,ATS,A,4
4,test,1,C,haborder.png,1,z,Mon Jun 08 2026 15:10:31 GMT-0400 (Eastern Daylight Time),397484.1999999881,CFD-BM-010-019-A.jpg,1700,solid,I,z,1334,9,1,13183.299999952316,384300.90000003576,9088,ATS,A,5
4,test,1,C,mfborder.png,0,z,Mon Jun 08 2026 15:10:31 GMT-0400 (Eastern Daylight Time),400717.5,CFD-BF-010-005-HC.jpg,1700,dash,I,None,1516,1,1,16416.599999964237,384300.90000003576,9088,ATS,A,6
5,test,1,C,mfborder.png,1,m,Mon Jun 08 2026 15:10:31 GMT-0400 (Eastern Daylight Time),403017.5,CFD-BM-029-026-HC.jpg,1200,dash,I,m,1070,6,1,18716.599999964237,384300.90000003576,9088,ATS,A,7
6,test,1,C,haborder.png,1,m,Mon Jun 08 2026 15:10:31 GMT-0400 (Eastern Daylight Time),405650.8000000119,CFD-WF-002-008-HC.jpg,1500,solid,I,m,1111,11,1,21349.899999976158,384300.90000003576,9088,ATS,A,8
7,test,1,C,haborder.png,1,m,Mon Jun 08 2026 15:10:31 GMT-0400 (Eastern Daylight Time),407967.40000003576,CFD-WF-002-008-HC.jpg,1500,solid,I,m,797,11,1,23666.5,384300.90000003576,9088,ATS,A,9
8,test,1,C,haborder.png,1,z,Mon Jun 08 2026 15:10:31 GMT-0400 (Eastern Daylight Time),410800.8000000119,CFD-BM-005-010-A.jpg,1900,solid,I,z,912,8,1,26499.899999976158,384300.90000003576,9088,ATS,A,10
9,test,1,C,mfborder.png,1,z,Mon Jun 08 2026 15:10:31 GMT-0400 (Eastern Daylight Time),413284.10000002384,CFD-WF-003-014-A.jpg,1500,dash,I,z,959,3,1,28983.19999998808,384300.90000003576,9088,ATS,A,11
10,test,1,C,mfborder.png,1,m,Mon Jun 08 2026 15:10:31 GMT-0400 (Eastern Daylight Time),416184.10000002384,CFD-WM-019-013-A.jpg,2000,dash,I,m,873,5,1,31883.19999998808,384300.90000003576,9088,ATS,A,12
11,test,1,C,mfborder.png,1,m,Mon Jun 08 2026 15:10:31 GMT-0400 (Eastern Daylight Time),418050.10000002384,CFD-WM-006-013-HC.jpg,1000,dash,I,m,843,4,1,33749.19999998808,384300.90000003576,9088,ATS,A,13
12,test,1,C,mfborder.png,1,z,Mon Jun 08 2026 15:10:31 GMT-0400 (Eastern Daylight Time),420367.40000003576,CFD-BF-023-013-A.jpg,1600,dash,I,z,697,2,1,36066.5,384300.90000003576,9088,ATS,A,14
13,test,1,C,haborder.png,1,z,Mon Jun 08 2026 15:10:31 GMT-0400 (Eastern Daylight Time),423517.40000003576,CFD-BM-010-019-A.jpg,1700,solid,I,z,1416,9,1,39216.5,384300.90000003576,9088,ATS,A,15
14,test,1,C,mfborder.png,1,z,Mon Jun 08 2026 15:10:31 GMT-0400 (Eastern Daylight Time),426334.3000000119,CFD-BF-023-013-A.jpg,1600,dash,I,z,1199,2,1,42033.39999997616,384300.90000003576,9088,ATS,A,16
15,test,1,C,haborder.png,1,m,Mon Jun 08 2026 15:10:31 GMT-0400 (Eastern Daylight Time),428984.10000002384,CFD-BF-028-020-HC.jpg,1600,solid,I,m,1022,10,1,44683.19999998808,384300.90000003576,9088,ATS,A,17
16,test,1,C,haborder.png,1,m,Mon Jun 08 2026 15:10:31 GMT-0400 (Eastern Daylight Time),430767.10000002384,CFD-WF-017-016-HC.jpg,1000,solid,I,m,764,12,1,46466.19999998808,384300.90000003576,9088,ATS,A,18
17,test,1,C,haborder.png,1,z,Mon Jun 08 2026 15:10:31 GMT-0400 (Eastern Daylight Time),433650.6999999881,CFD-BM-005-010-A.jpg,1900,solid,I,z,960,8,1,49349.799999952316,384300.90000003576,9088,ATS,A,19
18,test,1,C,haborder.png,1,m,Mon Jun 08 2026 15:10:31 GMT-0400 (Eastern Daylight Time),435484.10000002384,CFD-WF-017-016-HC.jpg,1000,solid,I,m,801,12,1,51183.19999998808,384300.90000003576,9088,ATS,A,20
19,test,1,C,mfborder.png,1,z,Mon Jun 08 2026 15:10:31 GMT-0400 (Eastern Daylight Time),438284.0,CFD-BF-010-005-HC.jpg,1700,dash,I,z,1068,1,1,53983.09999996424,384300.90000003576,9088,ATS,A,21
20,test,1,C,mfborder.png,1,m,Mon Jun 08 2026 15:10:31 GMT-0400 (Eastern Daylight Time),440200.6999999881,CFD-WM-006-013-HC.jpg,1000,dash,I,m,888,4,1,55899.799999952316,384300.90000003576,9088,ATS,A,22
21,test,1,C,mfborder.png,1,m,Mon Jun 08 2026 15:10:31 GMT-0400 (Eastern Daylight Time),443100.40000003576,CFD-WM-019-013-A.jpg,2000,dash,I,m,867,5,1,58799.5,384300.90000003576,9088,ATS,A,23
22,test,1,C,mfborder.png,1,z,Mon Jun 08 2026 15:10:31 GMT-0400 (Eastern Daylight Time),445334.10000002384,CFD-WF-003-014-A.jpg,1500,dash,I,z,707,3,1,61033.19999998808,384300.90000003576,9088,ATS,A,24
0,test,2,C,haborder.png,0,z,Mon Jun 08 2026 15:10:31 GMT-0400 (Eastern Daylight Time),452567.6999999881,CFD-BF-039-039-A.jpg,1900,solid,I,None,1516,8,1,3433.399999976158,449134.3000000119,9088,ATS,A,1
1,test,2,C,mfborder.png,1,z,Mon Jun 08 2026 15:10:31 GMT-0400 (Eastern Daylight Time),455200.60000002384,CFD-WF-017-016-HC.jpg,1700,dash,I,z,912,1,1,6066.300000011921,449134.3000000119,9088,ATS,A,2
2,test,2,C,mfborder.png,1,m,Mon Jun 08 2026 15:10:31 GMT-0400 (Eastern Daylight Time),458450.60000002384,CFD-BM-005-010-A.jpg,2000,dash,I,m,1227,5,1,9316.300000011921,449134.3000000119,9088,ATS,A,3
3,test,2,C,haborder.png,1,m,Mon Jun 08 2026 15:10:31 GMT-0400 (Eastern Daylight Time),461000.8000000119,CFD-BM-029-026-HC.jpg,1600,solid,I,m,922,10,1,11866.5,449134.3000000119,9088,ATS,A,4
4,test,2,C,haborder.png,1,z,Mon Jun 08 2026 15:10:31 GMT-0400 (Eastern Daylight Time),463234.0,CFD-BF-023-013-A.jpg,1400,solid,I,z,811,7,1,14099.699999988079,449134.3000000119,9088,ATS,A,5
5,test,2,C,mfborder.png,1,m,Mon Jun 08 2026 15:10:31 GMT-0400 (Eastern Daylight Time),465234.0,CFD-BM-017-052-HC.jpg,1000,dash,I,m,978,4,1,16099.699999988079,449134.3000000119,9088,ATS,A,6
6,test,2,C,mfborder.png,1,m,Mon Jun 08 2026 15:10:31 GMT-0400 (Eastern Daylight Time),467650.6999999881,CFD-WM-013-015-A.jpg,1200,dash,I,m,1194,6,1,18516.399999976158,449134.3000000119,9088,ATS,A,7
7,test,2,C,haborder.png,1,m,Mon Jun 08 2026 15:10:31 GMT-0400 (Eastern Daylight Time),469617.3000000119,CFD-WM-004-005-HC.jpg,1000,solid,I,m,945,12,1,20483.0,449134.3000000119,9088,ATS,A,8
7,test,2,C,haborder.png,0,z,Mon Jun 08 2026 15:10:31 GMT-0400 (Eastern Daylight Time),473050.6999999881,CFD-BF-039-039-A.jpg,1900,solid,I,None,1516,8,1,23916.399999976158,449134.3000000119,9088,ATS,A,9
8,test,2,C,mfborder.png,1,m,Mon Jun 08 2026 15:10:31 GMT-0400 (Eastern Daylight Time),476084.10000002384,CFD-BM-005-010-A.jpg,2000,dash,I,m,1009,5,1,26949.80000001192,449134.3000000119,9088,ATS,A,10
9,test,2,C,mfborder.png,1,z,Mon Jun 08 2026 15:10:31 GMT-0400 (Eastern Daylight Time),478617.3000000119,CFD-WF-019-015-A.jpg,1600,dash,I,z,904,2,1,29483.0,449134.3000000119,9088,ATS,A,11
10,test,2,C,mfborder.png,1,m,Mon Jun 08 2026 15:10:31 GMT-0400 (Eastern Daylight Time),480634.0,CFD-BM-017-052-HC.jpg,1000,dash,I,m,986,4,1,31499.69999998808,449134.3000000119,9088,ATS,A,12
11,test,2,C,haborder.png,1,m,Mon Jun 08 2026 15:10:31 GMT-0400 (Eastern Daylight Time),482550.60000002384,CFD-WM-004-005-HC.jpg,1000,solid,I,m,890,12,1,33416.30000001192,449134.3000000119,9088,ATS,A,13
12,test,2,C,haborder.png,1,m,Mon Jun 08 2026 15:10:31 GMT-0400 (Eastern Daylight Time),484867.3000000119,CFD-WM-004-005-HC.jpg,1500,solid,I,m,794,11,1,35733.0,449134.3000000119,9088,ATS,A,14
13,test,2,C,haborder.png,1,z,Mon Jun 08 2026 15:10:31 GMT-0400 (Eastern Daylight Time),487433.90000003576,CFD-BF-023-013-A.jpg,1400,solid,I,z,1136,7,1,38299.60000002384,449134.3000000119,9088,ATS,A,15
13,test,2,C,haborder.png,0,z,Mon Jun 08 2026 15:10:31 GMT-0400 (Eastern Daylight Time),490667.5,CFD-WF-003-014-A.jpg,1700,solid,I,None,1516,9,1,41533.19999998808,449134.3000000119,9088,ATS,A,16
14,test,2,C,mfborder.png,1,z,Mon Jun 08 2026 15:10:31 GMT-0400 (Eastern Daylight Time),493484.0,CFD-BF-028-020-HC.jpg,1500,dash,I,z,1285,3,1,44349.69999998808,449134.3000000119,9088,ATS,A,17
15,test,2,C,mfborder.png,1,z,Mon Jun 08 2026 15:10:31 GMT-0400 (Eastern Daylight Time),495867.3000000119,CFD-BF-028-020-HC.jpg,1500,dash,I,z,853,3,1,46733.0,449134.3000000119,9088,ATS,A,18
16,test,2,C,haborder.png,1,z,Mon Jun 08 2026 15:10:31 GMT-0400 (Eastern Daylight Time),498834.0,CFD-WF-003-014-A.jpg,1700,solid,I,z,1245,9,1,49699.69999998808,449134.3000000119,9088,ATS,A,19
17,test,2,C,mfborder.png,1,m,Mon Jun 08 2026 15:10:31 GMT-0400 (Eastern Daylight Time),501317.3000000119,CFD-WM-013-015-A.jpg,1200,dash,I,m,1258,6,1,52183.0,449134.3000000119,9088,ATS,A,20
18,test,2,C,mfborder.png,1,z,Mon Jun 08 2026 15:10:31 GMT-0400 (Eastern Daylight Time),504250.60000002384,CFD-WF-017-016-HC.jpg,1700,dash,I,z,1203,1,1,55116.30000001192,449134.3000000119,9088,ATS,A,21
19,test,2,C,haborder.png,1,m,Mon Jun 08 2026 15:10:31 GMT-0400 (Eastern Daylight Time),507200.60000002384,CFD-BM-029-026-HC.jpg,1600,solid,I,m,1330,10,1,58066.30000001192,449134.3000000119,9088,ATS,A,22
20,test,2,C,mfborder.png,1,z,Mon Jun 08 2026 15:10:31 GMT-0400 (Eastern Daylight Time),509950.3000000119,CFD-WF-019-015-A.jpg,1600,dash,I,z,1131,2,1,60816.0,449134.3000000119,9088,ATS,A,23
21,test,2,C,haborder.png,1,m,Mon Jun 08 2026 15:10:31 GMT-0400 (Eastern Daylight Time),512450.40000003576,CFD-WM-004-005-HC.jpg,1500,solid,I,m,977,11,1,63316.10000002384,449134.3000000119,9088,ATS,A,24
1,test,3,C,haborder.png,1,z,Mon Jun 08 2026 15:10:31 GMT-0400 (Eastern Daylight Time),519767.40000003576,CFD-BM-010-019-A.jpg,1700,solid,I,z,1424,9,1,3150.100000023842,516617.3000000119,9088,ATS,A,1
2,test,3,C,haborder.png,1,z,Mon Jun 08 2026 15:10:31 GMT-0400 (Eastern Daylight Time),522467.3000000119,CFD-BM-005-010-A.jpg,1900,solid,I,z,776,8,1,5850.0,516617.3000000119,9088,ATS,A,2
3,test,3,C,haborder.png,1,z,Mon Jun 08 2026 15:10:31 GMT-0400 (Eastern Daylight Time),524550.6000000238,CFD-WM-013-015-A.jpg,1400,solid,I,z,656,7,1,7933.300000011921,516617.3000000119,9088,ATS,A,3
4,test,3,C,haborder.png,1,z,Mon Jun 08 2026 15:10:31 GMT-0400 (Eastern Daylight Time),526500.6999999881,CFD-WM-013-015-A.jpg,1400,solid,I,z,525,7,1,9883.399999976158,516617.3000000119,9088,ATS,A,4
5,test,3,C,mfborder.png,1,z,Mon Jun 08 2026 15:10:31 GMT-0400 (Eastern Daylight Time),529067.1999999881,CFD-BF-010-005-HC.jpg,1700,dash,I,z,835,1,1,12449.899999976158,516617.3000000119,9088,ATS,A,5
6,test,3,C,haborder.png,1,z,Mon Jun 08 2026 15:10:31 GMT-0400 (Eastern Daylight Time),531767.1999999881,CFD-BM-005-010-A.jpg,1900,solid,I,z,773,8,1,15149.899999976158,516617.3000000119,9088,ATS,A,6
7,test,3,C,mfborder.png,1,m,Mon Jun 08 2026 15:10:31 GMT-0400 (Eastern Daylight Time),534033.9000000358,CFD-WM-006-013-HC.jpg,1000,dash,I,m,1245,4,1,17416.600000023842,516617.3000000119,9088,ATS,A,7
8,test,3,C,mfborder.png,1,m,Mon Jun 08 2026 15:10:31 GMT-0400 (Eastern Daylight Time),536067.3000000119,CFD-BM-029-026-HC.jpg,1200,dash,I,m,810,6,1,19450.0,516617.3000000119,9088,ATS,A,8
8,test,3,C,haborder.png,0,m,Mon Jun 08 2026 15:10:31 GMT-0400 (Eastern Daylight Time),538667.3000000119,CFD-BF-028-020-HC.jpg,1600,solid,I,z,968,10,1,22050.0,516617.3000000119,9088,ATS,A,9
9,test,3,C,mfborder.png,1,z,Mon Jun 08 2026 15:10:31 GMT-0400 (Eastern Daylight Time),541566.9000000358,CFD-BF-023-013-A.jpg,1600,dash,I,z,1281,2,1,24949.600000023842,516617.3000000119,9088,ATS,A,10
10,test,3,C,mfborder.png,1,m,Mon Jun 08 2026 15:10:31 GMT-0400 (Eastern Daylight Time),543817.1999999881,CFD-BM-029-026-HC.jpg,1200,dash,I,m,1021,6,1,27199.899999976158,516617.3000000119,9088,ATS,A,11
11,test,3,C,haborder.png,1,m,Mon Jun 08 2026 15:10:31 GMT-0400 (Eastern Daylight Time),546333.9000000358,CFD-WF-017-016-HC.jpg,1000,solid,I,m,1498,12,1,29716.600000023842,516617.3000000119,9088,ATS,A,12
12,test,3,C,mfborder.png,1,z,Mon Jun 08 2026 15:10:31 GMT-0400 (Eastern Daylight Time),548633.9000000358,CFD-WF-003-014-A.jpg,1500,dash,I,z,770,3,1,32016.600000023842,516617.3000000119,9088,ATS,A,13
13,test,3,C,haborder.png,1,m,Mon Jun 08 2026 15:10:31 GMT-0400 (Eastern Daylight Time),551100.6000000238,CFD-WF-002-008-HC.jpg,1500,solid,I,m,934,11,1,34483.30000001192,516617.3000000119,9088,ATS,A,14
14,test,3,C,mfborder.png,1,m,Mon Jun 08 2026 15:10:31 GMT-0400 (Eastern Daylight Time),552883.9000000358,CFD-WM-006-013-HC.jpg,1000,dash,I,m,759,4,1,36266.60000002384,516617.3000000119,9088,ATS,A,15
15,test,3,C,mfborder.png,1,m,Mon Jun 08 2026 15:10:31 GMT-0400 (Eastern Daylight Time),556300.6000000238,CFD-WM-019-013-A.jpg,2000,dash,I,m,1384,5,1,39683.30000001192,516617.3000000119,9088,ATS,A,16
16,test,3,C,mfborder.png,1,z,Mon Jun 08 2026 15:10:31 GMT-0400 (Eastern Daylight Time),558733.9000000358,CFD-BF-010-005-HC.jpg,1700,dash,I,z,715,1,1,42116.60000002384,516617.3000000119,9088,ATS,A,17
17,test,3,C,mfborder.png,1,m,Mon Jun 08 2026 15:10:31 GMT-0400 (Eastern Daylight Time),561517.1999999881,CFD-WM-019-013-A.jpg,2000,dash,I,m,750,5,1,44899.89999997616,516617.3000000119,9088,ATS,A,18
18,test,3,C,haborder.png,1,m,Mon Jun 08 2026 15:10:31 GMT-0400 (Eastern Daylight Time),563917.6000000238,CFD-WF-002-008-HC.jpg,1500,solid,I,m,883,11,1,47300.30000001192,516617.3000000119,9088,ATS,A,19
19,test,3,C,haborder.png,1,m,Mon Jun 08 2026 15:10:31 GMT-0400 (Eastern Daylight Time),565783.9000000358,CFD-WF-017-016-HC.jpg,1000,solid,I,m,839,12,1,49166.60000002384,516617.3000000119,9088,ATS,A,20
20,test,3,C,haborder.png,1,m,Mon Jun 08 2026 15:10:31 GMT-0400 (Eastern Daylight Time),568250.6000000238,CFD-BF-028-020-HC.jpg,1600,solid,I,m,836,10,1,51633.30000001192,516617.3000000119,9088,ATS,A,21
21,test,3,C,haborder.png,1,z,Mon Jun 08 2026 15:10:31 GMT-0400 (Eastern Daylight Time),571267.1999999881,CFD-BM-010-019-A.jpg,1700,solid,I,z,1293,9,1,54649.89999997616,516617.3000000119,9088,ATS,A,22
22,test,3,C,mfborder.png,1,z,Mon Jun 08 2026 15:10:31 GMT-0400 (Eastern Daylight Time),573767.1999999881,CFD-WF-003-014-A.jpg,1500,dash,I,z,973,3,1,57149.89999997616,516617.3000000119,9088,ATS,A,23
23,test,3,C,mfborder.png,1,z,Mon Jun 08 2026 15:10:31 GMT-0400 (Eastern Daylight Time),576333.9000000358,CFD-BF-023-013-A.jpg,1600,dash,I,z,948,2,1,59716.60000002384,516617.3000000119,9088,ATS,A,24
1,test,4,C,mfborder.png,1,m,Mon Jun 08 2026 15:10:31 GMT-0400 (Eastern Daylight Time),581600.6000000238,CFD-BM-005-010-A.jpg,2000,dash,I,m,913,5,1,2933.300000011921,578667.3000000119,9088,ATS,A,1
2,test,4,C,mfborder.png,1,z,Mon Jun 08 2026 15:10:31 GMT-0400 (Eastern Daylight Time),583750.6000000238,CFD-BF-028-020-HC.jpg,1500,dash,I,z,623,3,1,5083.300000011921,578667.3000000119,9088,ATS,A,2
3,test,4,C,haborder.png,1,z,Mon Jun 08 2026 15:10:31 GMT-0400 (Eastern Daylight Time),586517.1999999881,CFD-BF-039-039-A.jpg,1900,solid,I,z,841,8,1,7849.899999976158,578667.3000000119,9088,ATS,A,3
4,test,4,C,haborder.png,1,m,Mon Jun 08 2026 15:10:31 GMT-0400 (Eastern Daylight Time),588700.6000000238,CFD-WM-004-005-HC.jpg,1500,solid,I,m,651,11,1,10033.300000011921,578667.3000000119,9088,ATS,A,4
5,test,4,C,mfborder.png,1,z,Mon Jun 08 2026 15:10:31 GMT-0400 (Eastern Daylight Time),591283.9000000358,CFD-WF-017-016-HC.jpg,1700,dash,I,z,859,1,1,12616.600000023842,578667.3000000119,9088,ATS,A,5
6,test,4,C,haborder.png,1,m,Mon Jun 08 2026 15:10:31 GMT-0400 (Eastern Daylight Time),593117.3000000119,CFD-WM-004-005-HC.jpg,1000,solid,I,m,800,12,1,14450.0,578667.3000000119,9088,ATS,A,6
7,test,4,C,mfborder.png,1,m,Mon Jun 08 2026 15:10:31 GMT-0400 (Eastern Daylight Time),596200.5,CFD-BM-005-010-A.jpg,2000,dash,I,m,1055,5,1,17533.19999998808,578667.3000000119,9088,ATS,A,7
8,test,4,C,mfborder.png,1,z,Mon Jun 08 2026 15:10:31 GMT-0400 (Eastern Daylight Time),598700.5,CFD-WF-019-015-A.jpg,1600,dash,I,z,867,2,1,20033.19999998808,578667.3000000119,9088,ATS,A,8
9,test,4,C,haborder.png,1,z,Mon Jun 08 2026 15:10:31 GMT-0400 (Eastern Daylight Time),601550.1999999881,CFD-BF-039-039-A.jpg,1900,solid,I,z,931,8,1,22882.899999976158,578667.3000000119,9088,ATS,A,9
9,test,4,C,mfborder.png,0,z,Mon Jun 08 2026 15:10:31 GMT-0400 (Eastern Daylight Time),604584.0,CFD-BF-028-020-HC.jpg,1500,dash,I,None,1516,3,1,25916.69999998808,578667.3000000119,9088,ATS,A,10
10,test,4,C,haborder.png,1,z,Mon Jun 08 2026 15:10:31 GMT-0400 (Eastern Daylight Time),607633.8000000119,CFD-WF-003-014-A.jpg,1700,solid,I,z,1328,9,1,28966.5,578667.3000000119,9088,ATS,A,11
11,test,4,C,mfborder.png,1,m,Mon Jun 08 2026 15:10:31 GMT-0400 (Eastern Daylight Time),609950.1999999881,CFD-BM-017-052-HC.jpg,1000,dash,I,m,1299,4,1,31282.899999976158,578667.3000000119,9088,ATS,A,12
12,test,4,C,mfborder.png,1,z,Mon Jun 08 2026 15:10:31 GMT-0400 (Eastern Daylight Time),612433.8000000119,CFD-WF-019-015-A.jpg,1600,dash,I,z,861,2,1,33766.5,578667.3000000119,9088,ATS,A,13
13,test,4,C,haborder.png,1,m,Mon Jun 08 2026 15:10:31 GMT-0400 (Eastern Daylight Time),615000.4000000358,CFD-BM-029-026-HC.jpg,1600,solid,I,m,938,10,1,36333.10000002384,578667.3000000119,9088,ATS,A,14
14,test,4,C,haborder.png,1,m,Mon Jun 08 2026 15:10:31 GMT-0400 (Eastern Daylight Time),617267.1000000238,CFD-WM-004-005-HC.jpg,1500,solid,I,m,743,11,1,38599.80000001192,578667.3000000119,9088,ATS,A,15
15,test,4,C,mfborder.png,1,m,Mon Jun 08 2026 15:10:31 GMT-0400 (Eastern Daylight Time),619733.8000000119,CFD-WM-013-015-A.jpg,1200,dash,I,m,1241,6,1,41066.5,578667.3000000119,9088,ATS,A,16
16,test,4,C,haborder.png,1,m,Mon Jun 08 2026 15:10:31 GMT-0400 (Eastern Daylight Time),621533.6999999881,CFD-WM-004-005-HC.jpg,1000,solid,I,m,782,12,1,42866.39999997616,578667.3000000119,9088,ATS,A,17
17,test,4,C,mfborder.png,1,m,Mon Jun 08 2026 15:10:31 GMT-0400 (Eastern Daylight Time),624167.0,CFD-WM-013-015-A.jpg,1200,dash,I,m,1406,6,1,45499.69999998808,578667.3000000119,9088,ATS,A,18
18,test,4,C,haborder.png,1,z,Mon Jun 08 2026 15:10:31 GMT-0400 (Eastern Daylight Time),627083.5,CFD-WF-003-014-A.jpg,1700,solid,I,z,1185,9,1,48416.19999998808,578667.3000000119,9088,ATS,A,19
19,test,4,C,haborder.png,1,m,Mon Jun 08 2026 15:10:31 GMT-0400 (Eastern Daylight Time),629933.8000000119,CFD-BM-029-026-HC.jpg,1600,solid,I,m,1232,10,1,51266.5,578667.3000000119,9088,ATS,A,20
20,test,4,C,haborder.png,1,z,Mon Jun 08 2026 15:10:31 GMT-0400 (Eastern Daylight Time),632150.4000000358,CFD-BF-023-013-A.jpg,1400,solid,I,z,790,7,1,53483.10000002384,578667.3000000119,9088,ATS,A,21
21,test,4,C,mfborder.png,1,z,Mon Jun 08 2026 15:10:31 GMT-0400 (Eastern Daylight Time),634583.8000000119,CFD-WF-017-016-HC.jpg,1700,dash,I,z,705,1,1,55916.5,578667.3000000119,9088,ATS,A,22
22,test,4,C,mfborder.png,1,m,Mon Jun 08 2026 15:10:31 GMT-0400 (Eastern Daylight Time),636467.1999999881,CFD-BM-017-052-HC.jpg,1000,dash,I,m,860,4,1,57799.89999997616,578667.3000000119,9088,ATS,A,23
23,test,4,C,haborder.png,1,z,Mon Jun 08 2026 15:10:31 GMT-0400 (Eastern Daylight Time),638833.8000000119,CFD-BF-023-013-A.jpg,1400,solid,I,z,945,7,1,60166.5,578667.3000000119,9088,ATS,A,24
