acc_sum,block,block_c,change,condition,correct,correct_response,datetime,endtime,face,project,response,response_time,row_sel,session_number,start_end,starttime,subject_id,task,task_vers,trial
0,prac,1,,1-Back,,,Mon Mar 23 2026 13:10:35 GMT-0400 (Eastern Daylight Time),,093_m_f_n_a.png,I,space,12913,1,1,,,9053,NNB,C,0
1,prac,1,0.0,1-Back,1.0,m,Mon Mar 23 2026 13:10:35 GMT-0400 (Eastern Daylight Time),146696.5,098_y_f_n_a.png,I,m,938,2,1,1875.5999999642372,144820.90000003576,9053,NNB,C,1
1,prac,1,1.0,1-Back,0.0,z,Mon Mar 23 2026 13:10:35 GMT-0400 (Eastern Daylight Time),149479.5,098_y_f_n_a.png,I,None,2004,3,1,2771.5,146708.0,9053,NNB,C,2
2,prac,1,0.0,1-Back,1.0,m,Mon Mar 23 2026 13:10:35 GMT-0400 (Eastern Daylight Time),152263.0,059_o_m_n_a.png,I,m,1812,4,1,2766.599999964237,149496.40000003576,9053,NNB,C,3
3,prac,1,0.0,1-Back,1.0,m,Mon Mar 23 2026 13:10:35 GMT-0400 (Eastern Daylight Time),153929.70000004768,092_m_m_n_a.png,I,m,703,5,1,1649.2000000476837,152280.5,9053,NNB,C,4
4,prac,1,1.0,1-Back,1.0,z,Mon Mar 23 2026 13:10:35 GMT-0400 (Eastern Daylight Time),155929.70000004768,092_m_m_n_a.png,I,z,1216,6,1,1984.800000011921,153944.90000003576,9053,NNB,C,5
5,prac,1,0.0,1-Back,1.0,m,Mon Mar 23 2026 13:10:35 GMT-0400 (Eastern Daylight Time),157679.70000004768,130_o_f_n_a.png,I,m,750,7,1,1737.1000000238419,155942.60000002384,9053,NNB,C,6
6,prac,1,0.0,1-Back,1.0,m,Mon Mar 23 2026 13:10:35 GMT-0400 (Eastern Daylight Time),159779.80000001192,082_m_m_n_a.png,I,m,1171,8,1,2087.5,157692.30000001192,9053,NNB,C,7
7,prac,1,0.0,1-Back,1.0,m,Mon Mar 23 2026 13:10:35 GMT-0400 (Eastern Daylight Time),161763.10000002384,093_m_f_n_a.png,I,m,1191,9,1,1969.6000000238419,159793.5,9053,NNB,C,8
8,prac,1,1.0,1-Back,1.0,z,Mon Mar 23 2026 13:10:35 GMT-0400 (Eastern Daylight Time),163596.40000003576,093_m_f_n_a.png,I,z,1050,10,1,1822.1000000238419,161774.30000001192,9053,NNB,C,9
8,prac,1,0.0,1-Back,0.0,m,Mon Mar 23 2026 13:10:35 GMT-0400 (Eastern Daylight Time),165579.60000002384,059_o_m_n_a.png,I,z,1200,11,1,1971.300000011921,163608.30000001192,9053,NNB,C,10
9,prac,1,0.0,1-Back,1.0,m,Mon Mar 23 2026 13:10:35 GMT-0400 (Eastern Daylight Time),167229.70000004768,028_y_f_n_a.png,I,m,733,12,1,1636.300000011921,165593.40000003576,9053,NNB,C,11
0,test,1,0.0,1-Back,,,Mon Mar 23 2026 13:10:35 GMT-0400 (Eastern Daylight Time),167229.70000004768,098_y_f_n_a.png,I,space,16145,1,1,1636.300000011921,165593.40000003576,9053,NNB,C,0
1,test,1,0.0,1-Back,1.0,m,Mon Mar 23 2026 13:10:35 GMT-0400 (Eastern Daylight Time),193413.0,006_m_f_n_a.png,I,m,1221,2,1,2236.099999964237,191176.90000003576,9053,NNB,C,1
1,test,1,0.0,1-Back,0.0,m,Mon Mar 23 2026 13:10:35 GMT-0400 (Eastern Daylight Time),195929.40000003576,028_y_f_n_a.png,I,z,1483,3,1,2507.5,193421.90000003576,9053,NNB,C,2
2,test,1,1.0,1-Back,1.0,z,Mon Mar 23 2026 13:10:35 GMT-0400 (Eastern Daylight Time),197779.40000003576,028_y_f_n_a.png,I,z,822,4,1,1841.5,195937.90000003576,9053,NNB,C,3
2,test,1,0.0,1-Back,0.0,m,Mon Mar 23 2026 13:10:35 GMT-0400 (Eastern Daylight Time),199912.80000001192,006_m_f_n_a.png,I,z,1100,5,1,2123.199999988079,197789.60000002384,9053,NNB,C,4
3,test,1,0.0,1-Back,1.0,m,Mon Mar 23 2026 13:10:35 GMT-0400 (Eastern Daylight Time),201879.40000003576,059_o_m_n_a.png,I,m,934,6,1,1956.4000000357628,199923.0,9053,NNB,C,5
4,test,1,1.0,1-Back,1.0,z,Mon Mar 23 2026 13:10:35 GMT-0400 (Eastern Daylight Time),203862.80000001192,059_o_m_n_a.png,I,z,952,7,1,1971.699999988079,201891.10000002384,9053,NNB,C,6
5,test,1,0.0,1-Back,1.0,m,Mon Mar 23 2026 13:10:35 GMT-0400 (Eastern Daylight Time),205646.20000004768,092_m_m_n_a.png,I,m,760,8,1,1772.6000000238419,203873.60000002384,9053,NNB,C,7
6,test,1,0.0,1-Back,1.0,m,Mon Mar 23 2026 13:10:35 GMT-0400 (Eastern Daylight Time),207529.10000002384,130_o_f_n_a.png,I,m,865,9,1,1874.0,205655.10000002384,9053,NNB,C,8
6,test,1,0.0,1-Back,0.0,m,Mon Mar 23 2026 13:10:35 GMT-0400 (Eastern Daylight Time),209479.40000003576,092_m_m_n_a.png,I,z,918,10,1,1942.9000000357628,207536.5,9053,NNB,C,9
7,test,1,0.0,1-Back,1.0,m,Mon Mar 23 2026 13:10:35 GMT-0400 (Eastern Daylight Time),211679.0,057_y_m_n_a.png,I,m,1175,11,1,2191.699999988079,209487.30000001192,9053,NNB,C,10
8,test,1,1.0,1-Back,1.0,z,Mon Mar 23 2026 13:10:35 GMT-0400 (Eastern Daylight Time),213547.0,057_y_m_n_a.png,I,z,848,12,1,1863.7999999523163,211683.20000004768,9053,NNB,C,11
9,test,1,0.0,1-Back,1.0,m,Mon Mar 23 2026 13:10:35 GMT-0400 (Eastern Daylight Time),215545.80000001192,030_o_f_n_a.png,I,m,966,13,1,1984.3999999761581,213561.40000003576,9053,NNB,C,12
10,test,1,1.0,1-Back,1.0,z,Mon Mar 23 2026 13:10:35 GMT-0400 (Eastern Daylight Time),217529.60000002384,030_o_f_n_a.png,I,z,966,14,1,1974.699999988079,215554.90000003576,9053,NNB,C,13
10,test,1,0.0,1-Back,0.0,m,Mon Mar 23 2026 13:10:35 GMT-0400 (Eastern Daylight Time),220563.0,031_y_m_n_a.png,I,None,2016,15,1,3025.599999964237,217537.40000003576,9053,NNB,C,14
11,test,1,0.0,1-Back,1.0,m,Mon Mar 23 2026 13:10:35 GMT-0400 (Eastern Daylight Time),222612.70000004768,093_m_f_n_a.png,I,m,1020,16,1,2041.2000000476837,220571.5,9053,NNB,C,15
12,test,1,0.0,1-Back,1.0,m,Mon Mar 23 2026 13:10:35 GMT-0400 (Eastern Daylight Time),224929.30000001192,146_o_m_n_a.png,I,m,1291,17,1,2306.800000011921,222622.5,9053,NNB,C,16
12,test,1,0.0,1-Back,0.0,m,Mon Mar 23 2026 13:10:35 GMT-0400 (Eastern Daylight Time),226729.5,093_m_f_n_a.png,I,z,782,18,1,1790.2999999523163,224939.20000004768,9053,NNB,C,17
0,test,2,0.0,1-Back,,,Mon Mar 23 2026 13:10:35 GMT-0400 (Eastern Daylight Time),226729.5,092_m_m_n_a.png,I,space,1598,1,1,1790.2999999523163,224939.20000004768,9053,NNB,C,0
0,test,2,0.0,1-Back,0.0,m,Mon Mar 23 2026 13:10:35 GMT-0400 (Eastern Daylight Time),232679.20000004768,006_m_f_n_a.png,I,z,1300,2,1,2325.300000011921,230353.90000003576,9053,NNB,C,1
1,test,2,1.0,1-Back,1.0,z,Mon Mar 23 2026 13:10:35 GMT-0400 (Eastern Daylight Time),234779.10000002384,006_m_f_n_a.png,I,z,1080,3,1,2093.600000023842,232685.5,9053,NNB,C,2
2,test,2,0.0,1-Back,1.0,m,Mon Mar 23 2026 13:10:35 GMT-0400 (Eastern Daylight Time),236412.60000002384,092_m_m_n_a.png,I,m,612,4,1,1620.8999999761581,234791.70000004768,9053,NNB,C,3
2,test,2,0.0,1-Back,0.0,m,Mon Mar 23 2026 13:10:35 GMT-0400 (Eastern Daylight Time),238729.40000003576,057_y_m_n_a.png,I,z,1283,5,1,2307.0,236422.40000003576,9053,NNB,C,4
3,test,2,0.0,1-Back,1.0,m,Mon Mar 23 2026 13:10:35 GMT-0400 (Eastern Daylight Time),240779.10000002384,098_y_f_n_a.png,I,m,1030,6,1,2040.0,238739.10000002384,9053,NNB,C,5
4,test,2,1.0,1-Back,1.0,z,Mon Mar 23 2026 13:10:35 GMT-0400 (Eastern Daylight Time),242679.40000003576,098_y_f_n_a.png,I,z,868,7,1,1889.5,240789.90000003576,9053,NNB,C,6
4,test,2,0.0,1-Back,0.0,m,Mon Mar 23 2026 13:10:35 GMT-0400 (Eastern Daylight Time),244645.90000003576,057_y_m_n_a.png,I,z,936,8,1,1954.699999988079,242691.20000004768,9053,NNB,C,7
5,test,2,0.0,1-Back,1.0,m,Mon Mar 23 2026 13:10:35 GMT-0400 (Eastern Daylight Time),246312.70000004768,030_o_f_n_a.png,I,m,633,9,1,1653.0,244659.70000004768,9053,NNB,C,8
6,test,2,0.0,1-Back,1.0,m,Mon Mar 23 2026 13:10:35 GMT-0400 (Eastern Daylight Time),248129.40000003576,082_m_m_n_a.png,I,m,791,10,1,1808.6000000238419,246320.80000001192,9053,NNB,C,9
7,test,2,1.0,1-Back,1.0,z,Mon Mar 23 2026 13:10:35 GMT-0400 (Eastern Daylight Time),250429.5,082_m_m_n_a.png,I,z,1278,11,1,2291.5,248138.0,9053,NNB,C,10
7,test,2,0.0,1-Back,0.0,m,Mon Mar 23 2026 13:10:35 GMT-0400 (Eastern Daylight Time),253145.80000001192,030_o_f_n_a.png,I,z,1698,12,1,2706.099999964237,250439.70000004768,9053,NNB,C,11
8,test,2,0.0,1-Back,1.0,m,Mon Mar 23 2026 13:10:35 GMT-0400 (Eastern Daylight Time),255162.30000001192,130_o_f_n_a.png,I,m,982,13,1,2007.0,253155.30000001192,9053,NNB,C,12
8,test,2,0.0,1-Back,0.0,m,Mon Mar 23 2026 13:10:35 GMT-0400 (Eastern Daylight Time),257529.5,059_o_m_n_a.png,I,z,1333,14,1,2358.5,255171.0,9053,NNB,C,13
8,test,2,0.0,1-Back,0.0,m,Mon Mar 23 2026 13:10:35 GMT-0400 (Eastern Daylight Time),260112.80000001192,146_o_m_n_a.png,I,z,1558,15,1,2573.0,257539.80000001192,9053,NNB,C,14
8,test,2,1.0,1-Back,0.0,z,Mon Mar 23 2026 13:10:35 GMT-0400 (Eastern Daylight Time),262562.60000002384,146_o_m_n_a.png,I,m,1423,16,1,2439.300000011921,260123.30000001192,9053,NNB,C,15
8,test,2,0.0,1-Back,0.0,m,Mon Mar 23 2026 13:10:35 GMT-0400 (Eastern Daylight Time),264529.5,031_y_m_n_a.png,I,z,941,17,1,1953.0999999642372,262576.40000003576,9053,NNB,C,16
9,test,2,1.0,1-Back,1.0,z,Mon Mar 23 2026 13:10:35 GMT-0400 (Eastern Daylight Time),266512.60000002384,031_y_m_n_a.png,I,z,958,18,1,1974.0,264538.60000002384,9053,NNB,C,17
0,test,3,1.0,1-Back,,,Mon Mar 23 2026 13:10:35 GMT-0400 (Eastern Daylight Time),266512.60000002384,028_y_f_n_a.png,I,space,1599,1,1,1974.0,264538.60000002384,9053,NNB,C,0
0,test,3,0.0,1-Back,0.0,m,Mon Mar 23 2026 13:10:35 GMT-0400 (Eastern Daylight Time),273312.90000003576,146_o_m_n_a.png,I,None,2016,1,1,3022.699999988079,270290.2000000477,9053,NNB,C,1
0,test,3,1.0,1-Back,0.0,z,Mon Mar 23 2026 13:10:35 GMT-0400 (Eastern Daylight Time),276346.2000000477,146_o_m_n_a.png,I,None,2016,1,1,3025.2000000476837,273321.0,9053,NNB,C,2
0,test,3,0.0,1-Back,0.0,m,Mon Mar 23 2026 13:10:35 GMT-0400 (Eastern Daylight Time),279379.40000003576,093_m_f_n_a.png,I,None,2015,1,1,3025.699999988079,276353.7000000477,9053,NNB,C,3
0,test,3,1.0,1-Back,0.0,z,Mon Mar 23 2026 13:10:35 GMT-0400 (Eastern Daylight Time),282412.60000002384,093_m_f_n_a.png,I,None,2015,1,1,3023.600000023842,279389.0,9053,NNB,C,4
0,test,3,0.0,1-Back,0.0,m,Mon Mar 23 2026 13:10:35 GMT-0400 (Eastern Daylight Time),285446.10000002384,030_o_f_n_a.png,I,None,2016,1,1,3024.699999988079,282421.40000003576,9053,NNB,C,5
0,test,3,0.0,1-Back,0.0,m,Mon Mar 23 2026 13:10:35 GMT-0400 (Eastern Daylight Time),288479.3000000119,057_y_m_n_a.png,I,None,2016,1,1,3024.599999964237,285454.7000000477,9053,NNB,C,6
0,test,3,0.0,1-Back,0.0,m,Mon Mar 23 2026 13:10:35 GMT-0400 (Eastern Daylight Time),291512.8000000119,030_o_f_n_a.png,I,None,2016,1,1,3024.0,288488.8000000119,9053,NNB,C,7
0,test,3,0.0,1-Back,0.0,m,Mon Mar 23 2026 13:10:35 GMT-0400 (Eastern Daylight Time),294546.0,031_y_m_n_a.png,I,None,2016,1,1,3024.5,291521.5,9053,NNB,C,8
1,test,3,1.0,1-Back,1.0,z,Mon Mar 23 2026 13:10:35 GMT-0400 (Eastern Daylight Time),296862.7000000477,031_y_m_n_a.png,I,z,1294,1,1,2307.100000023842,294555.60000002384,9053,NNB,C,9
2,test,3,0.0,1-Back,1.0,m,Mon Mar 23 2026 13:10:35 GMT-0400 (Eastern Daylight Time),299029.3000000119,006_m_f_n_a.png,I,m,1137,1,1,2156.800000011921,296872.5,9053,NNB,C,10
3,test,3,0.0,1-Back,1.0,m,Mon Mar 23 2026 13:10:35 GMT-0400 (Eastern Daylight Time),300962.7000000477,098_y_f_n_a.png,I,m,906,1,1,1921.300000011921,299041.40000003576,9053,NNB,C,11
4,test,3,1.0,1-Back,1.0,z,Mon Mar 23 2026 13:10:35 GMT-0400 (Eastern Daylight Time),302779.3000000119,098_y_f_n_a.png,I,z,797,1,1,1804.3999999761581,300974.90000003576,9053,NNB,C,12
4,test,3,0.0,1-Back,0.0,m,Mon Mar 23 2026 13:10:35 GMT-0400 (Eastern Daylight Time),304962.40000003576,006_m_f_n_a.png,I,z,1155,1,1,2172.600000023842,302789.8000000119,9053,NNB,C,13
5,test,3,0.0,1-Back,1.0,m,Mon Mar 23 2026 13:10:35 GMT-0400 (Eastern Daylight Time),306745.60000002384,092_m_m_n_a.png,I,m,765,1,1,1775.3999999761581,304970.2000000477,9053,NNB,C,14
6,test,3,1.0,1-Back,1.0,z,Mon Mar 23 2026 13:10:35 GMT-0400 (Eastern Daylight Time),308479.3000000119,092_m_m_n_a.png,I,z,710,1,1,1724.199999988079,306755.10000002384,9053,NNB,C,15
7,test,3,0.0,1-Back,1.0,m,Mon Mar 23 2026 13:10:35 GMT-0400 (Eastern Daylight Time),310295.90000003576,130_o_f_n_a.png,I,m,784,1,1,1807.699999988079,308488.2000000477,9053,NNB,C,16
8,test,3,1.0,1-Back,1.0,z,Mon Mar 23 2026 13:10:35 GMT-0400 (Eastern Daylight Time),312112.60000002384,130_o_f_n_a.png,I,z,791,1,1,1808.300000011921,310304.3000000119,9053,NNB,C,17
0,test,4,1.0,1-Back,,,Mon Mar 23 2026 13:10:35 GMT-0400 (Eastern Daylight Time),312112.60000002384,093_m_f_n_a.png,I,space,1639,1,1,1808.300000011921,310304.3000000119,9053,NNB,C,0
1,test,4,0.0,1-Back,1.0,m,Mon Mar 23 2026 13:10:35 GMT-0400 (Eastern Daylight Time),317562.5,146_o_m_n_a.png,I,m,648,2,1,1657.0,315905.5,9053,NNB,C,1
1,test,4,0.0,1-Back,0.0,m,Mon Mar 23 2026 13:10:35 GMT-0400 (Eastern Daylight Time),319162.3000000119,093_m_f_n_a.png,I,z,581,3,1,1591.199999988079,317571.10000002384,9053,NNB,C,2
2,test,4,0.0,1-Back,1.0,m,Mon Mar 23 2026 13:10:35 GMT-0400 (Eastern Daylight Time),320879.3000000119,030_o_f_n_a.png,I,m,693,4,1,1705.3999999761581,319173.90000003576,9053,NNB,C,3
3,test,4,1.0,1-Back,1.0,z,Mon Mar 23 2026 13:10:35 GMT-0400 (Eastern Daylight Time),322679.3000000119,030_o_f_n_a.png,I,z,768,5,1,1790.199999988079,320889.10000002384,9053,NNB,C,4
4,test,4,0.0,1-Back,1.0,m,Mon Mar 23 2026 13:10:35 GMT-0400 (Eastern Daylight Time),324379.10000002384,098_y_f_n_a.png,I,m,680,6,1,1689.6000000238419,322689.5,9053,NNB,C,5
5,test,4,0.0,1-Back,1.0,m,Mon Mar 23 2026 13:10:35 GMT-0400 (Eastern Daylight Time),326212.5,057_y_m_n_a.png,I,m,804,7,1,1821.699999988079,324390.8000000119,9053,NNB,C,6
6,test,4,1.0,1-Back,1.0,z,Mon Mar 23 2026 13:10:35 GMT-0400 (Eastern Daylight Time),328129.2000000477,057_y_m_n_a.png,I,z,891,8,1,1906.800000011921,326222.40000003576,9053,NNB,C,7
6,test,4,0.0,1-Back,0.0,m,Mon Mar 23 2026 13:10:35 GMT-0400 (Eastern Daylight Time),330212.60000002384,098_y_f_n_a.png,I,z,1054,9,1,2072.5,328140.10000002384,9053,NNB,C,8
7,test,4,0.0,1-Back,1.0,m,Mon Mar 23 2026 13:10:35 GMT-0400 (Eastern Daylight Time),331912.60000002384,082_m_m_n_a.png,I,m,667,10,1,1691.8999999761581,330220.7000000477,9053,NNB,C,9
8,test,4,1.0,1-Back,1.0,z,Mon Mar 23 2026 13:10:35 GMT-0400 (Eastern Daylight Time),333679.2000000477,082_m_m_n_a.png,I,z,726,11,1,1747.300000011921,331931.90000003576,9053,NNB,C,10
9,test,4,0.0,1-Back,1.0,m,Mon Mar 23 2026 13:10:35 GMT-0400 (Eastern Daylight Time),335329.2000000477,130_o_f_n_a.png,I,m,624,12,1,1638.800000011921,333690.40000003576,9053,NNB,C,11
10,test,4,0.0,1-Back,1.0,m,Mon Mar 23 2026 13:10:35 GMT-0400 (Eastern Daylight Time),337245.90000003576,059_o_m_n_a.png,I,m,894,13,1,1907.6000000238419,335338.3000000119,9053,NNB,C,12
10,test,4,0.0,1-Back,0.0,m,Mon Mar 23 2026 13:10:35 GMT-0400 (Eastern Daylight Time),338812.5,130_o_f_n_a.png,I,z,546,14,1,1553.7999999523163,337258.7000000477,9053,NNB,C,13
11,test,4,0.0,1-Back,1.0,m,Mon Mar 23 2026 13:10:35 GMT-0400 (Eastern Daylight Time),340712.60000002384,028_y_f_n_a.png,I,m,867,15,1,1889.199999988079,338823.40000003576,9053,NNB,C,14
12,test,4,1.0,1-Back,1.0,z,Mon Mar 23 2026 13:10:35 GMT-0400 (Eastern Daylight Time),342529.3000000119,028_y_f_n_a.png,I,z,791,16,1,1807.5999999642372,340721.7000000477,9053,NNB,C,15
13,test,4,0.0,1-Back,1.0,m,Mon Mar 23 2026 13:10:35 GMT-0400 (Eastern Daylight Time),344445.90000003576,006_m_f_n_a.png,I,m,894,17,1,1907.1000000238419,342538.8000000119,9053,NNB,C,16
14,test,4,1.0,1-Back,1.0,z,Mon Mar 23 2026 13:10:35 GMT-0400 (Eastern Daylight Time),346146.0,006_m_f_n_a.png,I,z,674,18,1,1689.7999999523163,344456.2000000477,9053,NNB,C,17
0,test,5,1.0,1-Back,,,Mon Mar 23 2026 13:10:35 GMT-0400 (Eastern Daylight Time),346146.0,059_o_m_n_a.png,I,space,12477,1,1,1689.7999999523163,344456.2000000477,9053,NNB,C,0
1,test,5,1.0,1-Back,1.0,z,Mon Mar 23 2026 13:10:35 GMT-0400 (Eastern Daylight Time),362695.7000000477,059_o_m_n_a.png,I,z,1017,2,1,2040.9000000357628,360654.8000000119,9053,NNB,C,1
2,test,5,0.0,1-Back,1.0,m,Mon Mar 23 2026 13:10:35 GMT-0400 (Eastern Daylight Time),364545.90000003576,098_y_f_n_a.png,I,m,824,3,1,1841.6000000238419,362704.3000000119,9053,NNB,C,2
3,test,5,0.0,1-Back,1.0,m,Mon Mar 23 2026 13:10:35 GMT-0400 (Eastern Daylight Time),366512.5,057_y_m_n_a.png,I,m,942,4,1,1956.7999999523163,364555.7000000477,9053,NNB,C,3
3,test,5,0.0,1-Back,0.0,m,Mon Mar 23 2026 13:10:35 GMT-0400 (Eastern Daylight Time),368329.10000002384,098_y_f_n_a.png,I,z,800,5,1,1805.699999988079,366523.40000003576,9053,NNB,C,4
4,test,5,0.0,1-Back,1.0,m,Mon Mar 23 2026 13:10:35 GMT-0400 (Eastern Daylight Time),369995.7000000477,092_m_m_n_a.png,I,m,646,6,1,1658.2000000476837,368337.5,9053,NNB,C,5
5,test,5,1.0,1-Back,1.0,z,Mon Mar 23 2026 13:10:35 GMT-0400 (Eastern Daylight Time),371895.7000000477,092_m_m_n_a.png,I,z,867,7,1,1891.4000000357628,370004.3000000119,9053,NNB,C,6
6,test,5,0.0,1-Back,1.0,m,Mon Mar 23 2026 13:10:35 GMT-0400 (Eastern Daylight Time),373595.90000003576,028_y_f_n_a.png,I,m,680,8,1,1689.9000000357628,371906.0,9053,NNB,C,7
7,test,5,0.0,1-Back,1.0,m,Mon Mar 23 2026 13:10:35 GMT-0400 (Eastern Daylight Time),375662.40000003576,031_y_m_n_a.png,I,m,1043,9,1,2057.300000011921,373605.10000002384,9053,NNB,C,8
7,test,5,0.0,1-Back,0.0,m,Mon Mar 23 2026 13:10:35 GMT-0400 (Eastern Daylight Time),377762.5,028_y_f_n_a.png,I,z,1073,10,1,2093.5,375669.0,9053,NNB,C,9
8,test,5,0.0,1-Back,1.0,m,Mon Mar 23 2026 13:10:35 GMT-0400 (Eastern Daylight Time),379512.0,130_o_f_n_a.png,I,m,732,11,1,1740.199999988079,377771.8000000119,9053,NNB,C,10
9,test,5,1.0,1-Back,1.0,z,Mon Mar 23 2026 13:10:35 GMT-0400 (Eastern Daylight Time),381761.90000003576,130_o_f_n_a.png,I,z,1222,12,1,2245.600000023842,379516.3000000119,9053,NNB,C,11
10,test,5,0.0,1-Back,1.0,m,Mon Mar 23 2026 13:10:35 GMT-0400 (Eastern Daylight Time),383529.2000000477,146_o_m_n_a.png,I,m,749,13,1,1763.2000000476837,381766.0,9053,NNB,C,12
10,test,5,0.0,1-Back,0.0,m,Mon Mar 23 2026 13:10:35 GMT-0400 (Eastern Daylight Time),385579.10000002384,093_m_f_n_a.png,I,z,1030,14,1,2040.8999999761581,383538.2000000477,9053,NNB,C,13
11,test,5,1.0,1-Back,1.0,z,Mon Mar 23 2026 13:10:35 GMT-0400 (Eastern Daylight Time),387512.5,093_m_f_n_a.png,I,z,901,15,1,1925.199999988079,385587.3000000119,9053,NNB,C,14
12,test,5,0.0,1-Back,1.0,m,Mon Mar 23 2026 13:10:35 GMT-0400 (Eastern Daylight Time),389145.5,146_o_m_n_a.png,I,m,615,16,1,1620.3999999761581,387525.10000002384,9053,NNB,C,15
13,test,5,0.0,1-Back,1.0,m,Mon Mar 23 2026 13:10:35 GMT-0400 (Eastern Daylight Time),391529.40000003576,006_m_f_n_a.png,I,m,1366,17,1,2376.900000035763,389152.5,9053,NNB,C,16
14,test,5,0.0,1-Back,1.0,m,Mon Mar 23 2026 13:10:35 GMT-0400 (Eastern Daylight Time),394045.8000000119,082_m_m_n_a.png,I,m,1494,18,1,2507.5,391538.3000000119,9053,NNB,C,17
0,prac,1,0.0,2-Back,,,Mon Mar 23 2026 13:10:35 GMT-0400 (Eastern Daylight Time),394045.8000000119,031_y_m_n_a.png,I,space,16754,1,1,2507.5,391538.3000000119,9053,NNB,C,0
0,prac,1,0.0,2-Back,,,Mon Mar 23 2026 13:10:35 GMT-0400 (Eastern Daylight Time),394045.8000000119,006_m_f_n_a.png,I,space,16754,2,1,2507.5,391538.3000000119,9053,NNB,C,0
1,prac,1,1.0,2-Back,1.0,m,Mon Mar 23 2026 13:10:35 GMT-0400 (Eastern Daylight Time),530695.9000000358,146_o_m_n_a.png,I,m,909,3,1,1835.199999988079,528860.7000000477,9053,NNB,C,1
2,prac,1,0.0,2-Back,1.0,m,Mon Mar 23 2026 13:10:35 GMT-0400 (Eastern Daylight Time),533129.1000000238,130_o_f_n_a.png,I,m,1487,4,1,2420.699999988079,530708.4000000358,9053,NNB,C,2
2,prac,1,0.0,2-Back,0.0,z,Mon Mar 23 2026 13:10:35 GMT-0400 (Eastern Daylight Time),534879.1000000238,146_o_m_n_a.png,I,m,957,5,1,1731.8999999761581,533147.2000000477,9053,NNB,C,3
3,prac,1,1.0,2-Back,1.0,z,Mon Mar 23 2026 13:10:35 GMT-0400 (Eastern Daylight Time),536662.5,130_o_f_n_a.png,I,z,983,6,1,1765.0999999642372,534897.4000000358,9053,NNB,C,4
3,prac,1,0.0,2-Back,0.0,m,Mon Mar 23 2026 13:10:35 GMT-0400 (Eastern Daylight Time),538728.9000000358,082_m_m_n_a.png,I,z,1287,7,1,2056.600000023842,536672.3000000119,9053,NNB,C,5
4,prac,1,0.0,2-Back,1.0,m,Mon Mar 23 2026 13:10:35 GMT-0400 (Eastern Daylight Time),540545.8000000119,059_o_m_n_a.png,I,m,884,8,1,1803.199999988079,538742.6000000238,9053,NNB,C,6
4,prac,1,0.0,2-Back,0.0,m,Mon Mar 23 2026 13:10:35 GMT-0400 (Eastern Daylight Time),543012.3000000119,028_y_f_n_a.png,I,z,1541,9,1,2453.5,540558.8000000119,9053,NNB,C,7
5,prac,1,1.0,2-Back,1.0,z,Mon Mar 23 2026 13:10:35 GMT-0400 (Eastern Daylight Time),544795.7000000477,059_o_m_n_a.png,I,z,1000,10,1,1772.7000000476837,543023.0,9053,NNB,C,8
6,prac,1,0.0,2-Back,1.0,m,Mon Mar 23 2026 13:10:35 GMT-0400 (Eastern Daylight Time),547145.8000000119,098_y_f_n_a.png,I,m,1441,11,1,2334.899999976158,544810.9000000358,9053,NNB,C,9
6,prac,1,0.0,2-Back,0.0,m,Mon Mar 23 2026 13:10:35 GMT-0400 (Eastern Daylight Time),548645.7000000477,082_m_m_n_a.png,I,z,707,12,1,1488.7000000476837,547157.0,9053,NNB,C,10
0,prac,2,0.0,2-Back,,,Mon Mar 23 2026 13:10:35 GMT-0400 (Eastern Daylight Time),548645.7000000477,031_y_m_n_a.png,I,a,4794,1,1,1488.7000000476837,547157.0,9053,NNB,C,0
0,prac,2,0.0,2-Back,,,Mon Mar 23 2026 13:10:35 GMT-0400 (Eastern Daylight Time),548645.7000000477,006_m_f_n_a.png,I,a,4794,2,1,1488.7000000476837,547157.0,9053,NNB,C,0
1,prac,2,1.0,2-Back,1.0,m,Mon Mar 23 2026 13:10:35 GMT-0400 (Eastern Daylight Time),560578.9000000358,146_o_m_n_a.png,I,m,849,3,1,1767.699999988079,558811.2000000477,9053,NNB,C,1
2,prac,2,0.0,2-Back,1.0,m,Mon Mar 23 2026 13:10:35 GMT-0400 (Eastern Daylight Time),562729.2000000477,130_o_f_n_a.png,I,m,1215,4,1,2137.300000011921,560591.9000000358,9053,NNB,C,2
3,prac,2,0.0,2-Back,1.0,z,Mon Mar 23 2026 13:10:35 GMT-0400 (Eastern Daylight Time),564562.3000000119,146_o_m_n_a.png,I,z,1044,5,1,1822.5,562739.8000000119,9053,NNB,C,3
4,prac,2,1.0,2-Back,1.0,z,Mon Mar 23 2026 13:10:35 GMT-0400 (Eastern Daylight Time),566495.8000000119,130_o_f_n_a.png,I,z,1143,6,1,1919.0999999642372,564576.7000000477,9053,NNB,C,4
5,prac,2,0.0,2-Back,1.0,m,Mon Mar 23 2026 13:10:35 GMT-0400 (Eastern Daylight Time),568279.0,082_m_m_n_a.png,I,m,988,7,1,1771.8999999761581,566507.1000000238,9053,NNB,C,5
6,prac,2,0.0,2-Back,1.0,m,Mon Mar 23 2026 13:10:35 GMT-0400 (Eastern Daylight Time),570195.7000000477,059_o_m_n_a.png,I,m,986,8,1,1902.800000011921,568292.9000000358,9053,NNB,C,6
7,prac,2,0.0,2-Back,1.0,m,Mon Mar 23 2026 13:10:35 GMT-0400 (Eastern Daylight Time),571979.1000000238,028_y_f_n_a.png,I,m,867,9,1,1768.5,570210.6000000238,9053,NNB,C,7
8,prac,2,1.0,2-Back,1.0,z,Mon Mar 23 2026 13:10:35 GMT-0400 (Eastern Daylight Time),573728.9000000358,059_o_m_n_a.png,I,z,959,10,1,1736.5,571992.4000000358,9053,NNB,C,8
8,prac,2,0.0,2-Back,0.0,m,Mon Mar 23 2026 13:10:35 GMT-0400 (Eastern Daylight Time),575845.6000000238,098_y_f_n_a.png,I,z,1194,11,1,2103.600000023842,573742.0,9053,NNB,C,9
8,prac,2,0.0,2-Back,0.0,m,Mon Mar 23 2026 13:10:35 GMT-0400 (Eastern Daylight Time),577662.3000000119,082_m_m_n_a.png,I,z,1031,12,1,1805.800000011921,575856.5,9053,NNB,C,10
0,test,1,0.0,2-Back,,,Mon Mar 23 2026 13:10:35 GMT-0400 (Eastern Daylight Time),577662.3000000119,057_y_m_n_a.png,I,space,12549,1,1,1805.800000011921,575856.5,9053,NNB,C,0
0,test,1,0.0,2-Back,,,Mon Mar 23 2026 13:10:35 GMT-0400 (Eastern Daylight Time),577662.3000000119,057_y_m_n_a.png,I,space,12549,2,1,1805.800000011921,575856.5,9053,NNB,C,0
1,test,1,0.0,2-Back,1.0,m,Mon Mar 23 2026 13:10:35 GMT-0400 (Eastern Daylight Time),613795.7000000477,130_o_f_n_a.png,I,m,455,3,1,1471.7000000476837,612324.0,9053,NNB,C,1
2,test,1,0.0,2-Back,1.0,m,Mon Mar 23 2026 13:10:35 GMT-0400 (Eastern Daylight Time),615512.1000000238,092_m_m_n_a.png,I,m,683,4,1,1707.1000000238419,613805.0,9053,NNB,C,2
3,test,1,1.0,2-Back,1.0,z,Mon Mar 23 2026 13:10:35 GMT-0400 (Eastern Daylight Time),617078.5,130_o_f_n_a.png,I,z,534,5,1,1557.0,615521.5,9053,NNB,C,3
4,test,1,0.0,2-Back,1.0,m,Mon Mar 23 2026 13:10:35 GMT-0400 (Eastern Daylight Time),618795.5,098_y_f_n_a.png,I,m,697,6,1,1709.199999988079,617086.3000000119,9053,NNB,C,4
4,test,1,0.0,2-Back,0.0,m,Mon Mar 23 2026 13:10:35 GMT-0400 (Eastern Daylight Time),620678.7000000477,092_m_m_n_a.png,I,z,850,7,1,1875.0,618803.7000000477,9053,NNB,C,5
5,test,1,1.0,2-Back,1.0,z,Mon Mar 23 2026 13:10:35 GMT-0400 (Eastern Daylight Time),622378.8000000119,098_y_f_n_a.png,I,z,680,8,1,1691.300000011921,620687.5,9053,NNB,C,6
5,test,1,0.0,2-Back,0.0,m,Mon Mar 23 2026 13:10:35 GMT-0400 (Eastern Daylight Time),624212.1000000238,031_y_m_n_a.png,I,z,804,9,1,1824.3999999761581,622387.7000000477,9053,NNB,C,7
6,test,1,0.0,2-Back,1.0,m,Mon Mar 23 2026 13:10:35 GMT-0400 (Eastern Daylight Time),625895.4000000358,030_o_f_n_a.png,I,m,650,10,1,1672.5,624222.9000000358,9053,NNB,C,8
7,test,1,1.0,2-Back,1.0,z,Mon Mar 23 2026 13:10:35 GMT-0400 (Eastern Daylight Time),627762.1000000238,031_y_m_n_a.png,I,z,839,11,1,1858.699999988079,625903.4000000358,9053,NNB,C,9
8,test,1,0.0,2-Back,1.0,m,Mon Mar 23 2026 13:10:35 GMT-0400 (Eastern Daylight Time),629495.4000000358,006_m_f_n_a.png,I,m,702,12,1,1721.699999988079,627773.7000000477,9053,NNB,C,10
8,test,1,0.0,2-Back,0.0,m,Mon Mar 23 2026 13:10:35 GMT-0400 (Eastern Daylight Time),631245.5,006_m_f_n_a.png,I,z,727,13,1,1741.2999999523163,629504.2000000477,9053,NNB,C,11
9,test,1,0.0,2-Back,1.0,m,Mon Mar 23 2026 13:10:35 GMT-0400 (Eastern Daylight Time),633178.7000000477,146_o_m_n_a.png,I,m,913,14,1,1923.5,631255.2000000477,9053,NNB,C,12
9,test,1,0.0,2-Back,0.0,m,Mon Mar 23 2026 13:10:35 GMT-0400 (Eastern Daylight Time),634928.8000000119,030_o_f_n_a.png,I,z,724,15,1,1740.199999988079,633188.6000000238,9053,NNB,C,13
10,test,1,1.0,2-Back,1.0,z,Mon Mar 23 2026 13:10:35 GMT-0400 (Eastern Daylight Time),636795.4000000358,146_o_m_n_a.png,I,z,846,16,1,1857.300000011921,634938.1000000238,9053,NNB,C,14
11,test,1,0.0,2-Back,1.0,m,Mon Mar 23 2026 13:10:35 GMT-0400 (Eastern Daylight Time),638578.9000000358,093_m_f_n_a.png,I,m,755,17,1,1773.4000000357628,636805.5,9053,NNB,C,15
11,test,1,0.0,2-Back,0.0,m,Mon Mar 23 2026 13:10:35 GMT-0400 (Eastern Daylight Time),640662.2000000477,082_m_m_n_a.png,I,z,1053,18,1,2073.7000000476837,638588.5,9053,NNB,C,16
0,test,2,0.0,2-Back,,,Mon Mar 23 2026 13:10:35 GMT-0400 (Eastern Daylight Time),640662.2000000477,082_m_m_n_a.png,I,space,1736,1,1,2073.7000000476837,638588.5,9053,NNB,C,0
0,test,2,0.0,2-Back,,,Mon Mar 23 2026 13:10:35 GMT-0400 (Eastern Daylight Time),640662.2000000477,028_y_f_n_a.png,I,space,1736,2,1,2073.7000000476837,638588.5,9053,NNB,C,0
1,test,2,1.0,2-Back,1.0,z,Mon Mar 23 2026 13:10:35 GMT-0400 (Eastern Daylight Time),649129.0,082_m_m_n_a.png,I,z,532,3,1,1538.199999988079,647590.8000000119,9053,NNB,C,1
2,test,2,0.0,2-Back,1.0,m,Mon Mar 23 2026 13:10:35 GMT-0400 (Eastern Daylight Time),651062.1000000238,093_m_f_n_a.png,I,m,903,4,1,1925.300000011921,649136.8000000119,9053,NNB,C,2
2,test,2,0.0,2-Back,0.0,m,Mon Mar 23 2026 13:10:35 GMT-0400 (Eastern Daylight Time),653228.7000000477,028_y_f_n_a.png,I,z,1145,5,1,2157.2000000476837,651071.5,9053,NNB,C,3
2,test,2,0.0,2-Back,0.0,m,Mon Mar 23 2026 13:10:35 GMT-0400 (Eastern Daylight Time),655045.4000000358,146_o_m_n_a.png,I,z,786,6,1,1803.300000011921,653242.1000000238,9053,NNB,C,4
2,test,2,0.0,2-Back,0.0,m,Mon Mar 23 2026 13:10:35 GMT-0400 (Eastern Daylight Time),657578.5,098_y_f_n_a.png,I,z,1513,7,1,2524.7999999523163,655053.7000000477,9053,NNB,C,5
3,test,2,1.0,2-Back,1.0,z,Mon Mar 23 2026 13:10:35 GMT-0400 (Eastern Daylight Time),659412.1000000238,146_o_m_n_a.png,I,z,804,8,1,1825.5,657586.6000000238,9053,NNB,C,6
3,test,2,0.0,2-Back,0.0,m,Mon Mar 23 2026 13:10:35 GMT-0400 (Eastern Daylight Time),661445.1000000238,031_y_m_n_a.png,I,z,1004,9,1,2021.699999988079,659423.4000000358,9053,NNB,C,7
3,test,2,0.0,2-Back,0.0,m,Mon Mar 23 2026 13:10:35 GMT-0400 (Eastern Daylight Time),663128.8000000119,031_y_m_n_a.png,I,z,665,10,1,1679.5999999642372,661449.2000000477,9053,NNB,C,8
4,test,2,0.0,2-Back,1.0,m,Mon Mar 23 2026 13:10:35 GMT-0400 (Eastern Daylight Time),665112.1000000238,006_m_f_n_a.png,I,m,950,11,1,1968.5,663143.6000000238,9053,NNB,C,9
5,test,2,0.0,2-Back,1.0,m,Mon Mar 23 2026 13:10:35 GMT-0400 (Eastern Daylight Time),667712.1000000238,028_y_f_n_a.png,I,m,1575,12,1,2588.399999976158,665123.7000000477,9053,NNB,C,10
6,test,2,1.0,2-Back,1.0,z,Mon Mar 23 2026 13:10:35 GMT-0400 (Eastern Daylight Time),669528.6000000238,006_m_f_n_a.png,I,z,784,13,1,1804.6000000238419,667724.0,9053,NNB,C,11
7,test,2,0.0,2-Back,1.0,m,Mon Mar 23 2026 13:10:35 GMT-0400 (Eastern Daylight Time),671428.8000000119,059_o_m_n_a.png,I,m,870,14,1,1891.300000011921,669537.5,9053,NNB,C,12
7,test,2,0.0,2-Back,0.0,m,Mon Mar 23 2026 13:10:35 GMT-0400 (Eastern Daylight Time),673078.7000000477,059_o_m_n_a.png,I,z,619,15,1,1642.0,671436.7000000477,9053,NNB,C,13
8,test,2,0.0,2-Back,1.0,m,Mon Mar 23 2026 13:10:35 GMT-0400 (Eastern Daylight Time),674912.1000000238,030_o_f_n_a.png,I,m,807,16,1,1823.699999988079,673088.4000000358,9053,NNB,C,14
8,test,2,0.0,2-Back,0.0,m,Mon Mar 23 2026 13:10:35 GMT-0400 (Eastern Daylight Time),677045.3000000119,092_m_m_n_a.png,I,z,1103,17,1,2122.0,674923.3000000119,9053,NNB,C,15
9,test,2,1.0,2-Back,1.0,z,Mon Mar 23 2026 13:10:35 GMT-0400 (Eastern Daylight Time),678978.8000000119,030_o_f_n_a.png,I,z,905,18,1,1922.699999988079,677056.1000000238,9053,NNB,C,16
0,test,3,1.0,2-Back,,,Mon Mar 23 2026 13:10:35 GMT-0400 (Eastern Daylight Time),678978.8000000119,057_y_m_n_a.png,I,space,1459,1,1,1922.699999988079,677056.1000000238,9053,NNB,C,0
0,test,3,1.0,2-Back,,,Mon Mar 23 2026 13:10:35 GMT-0400 (Eastern Daylight Time),678978.8000000119,057_y_m_n_a.png,I,space,1459,2,1,1922.699999988079,677056.1000000238,9053,NNB,C,0
0,test,3,0.0,2-Back,0.0,m,Mon Mar 23 2026 13:10:35 GMT-0400 (Eastern Daylight Time),687662.1000000238,030_o_f_n_a.png,I,z,1010,3,1,2023.0,685639.1000000238,9053,NNB,C,1
0,test,3,0.0,2-Back,0.0,m,Mon Mar 23 2026 13:10:35 GMT-0400 (Eastern Daylight Time),689778.7000000477,082_m_m_n_a.png,I,z,1089,4,1,2106.600000023842,687672.1000000238,9053,NNB,C,2
1,test,3,1.0,2-Back,1.0,z,Mon Mar 23 2026 13:10:35 GMT-0400 (Eastern Daylight Time),691462.1000000238,030_o_f_n_a.png,I,z,652,5,1,1672.800000011921,689789.3000000119,9053,NNB,C,3
1,test,3,0.0,2-Back,0.0,m,Mon Mar 23 2026 13:10:35 GMT-0400 (Eastern Daylight Time),693146.1000000238,031_y_m_n_a.png,I,z,664,6,1,1672.6000000238419,691473.5,9053,NNB,C,4
1,test,3,0.0,2-Back,0.0,m,Mon Mar 23 2026 13:10:35 GMT-0400 (Eastern Daylight Time),695245.1000000238,082_m_m_n_a.png,I,z,1078,7,1,2089.199999988079,693155.9000000358,9053,NNB,C,5
2,test,3,1.0,2-Back,1.0,z,Mon Mar 23 2026 13:10:35 GMT-0400 (Eastern Daylight Time),697012.0,031_y_m_n_a.png,I,z,737,8,1,1756.5999999642372,695255.4000000358,9053,NNB,C,6
2,test,3,0.0,2-Back,0.0,m,Mon Mar 23 2026 13:10:35 GMT-0400 (Eastern Daylight Time),698545.4000000358,028_y_f_n_a.png,I,z,507,9,1,1522.9000000357628,697022.5,9053,NNB,C,7
2,test,3,0.0,2-Back,0.0,m,Mon Mar 23 2026 13:10:35 GMT-0400 (Eastern Daylight Time),700311.9000000358,092_m_m_n_a.png,I,z,733,10,1,1756.4000000357628,698555.5,9053,NNB,C,8
3,test,3,1.0,2-Back,1.0,z,Mon Mar 23 2026 13:10:35 GMT-0400 (Eastern Daylight Time),701945.0,028_y_f_n_a.png,I,z,615,11,1,1619.2999999523163,700325.7000000477,9053,NNB,C,9
4,test,3,1.0,2-Back,1.0,z,Mon Mar 23 2026 13:10:35 GMT-0400 (Eastern Daylight Time),703895.1000000238,092_m_m_n_a.png,I,z,917,12,1,1943.6000000238419,701951.5,9053,NNB,C,10
5,test,3,0.0,2-Back,1.0,m,Mon Mar 23 2026 13:10:35 GMT-0400 (Eastern Daylight Time),705911.9000000358,030_o_f_n_a.png,I,m,983,13,1,2005.1000000238419,703906.8000000119,9053,NNB,C,11
6,test,3,0.0,2-Back,1.0,m,Mon Mar 23 2026 13:10:35 GMT-0400 (Eastern Daylight Time),707812.0,093_m_f_n_a.png,I,m,871,14,1,1889.7999999523163,705922.2000000477,9053,NNB,C,12
6,test,3,0.0,2-Back,0.0,m,Mon Mar 23 2026 13:10:35 GMT-0400 (Eastern Daylight Time),709963.1000000238,146_o_m_n_a.png,I,z,1130,15,1,2141.0,707822.1000000238,9053,NNB,C,13
7,test,3,1.0,2-Back,1.0,z,Mon Mar 23 2026 13:10:35 GMT-0400 (Eastern Daylight Time),711945.0,093_m_f_n_a.png,I,z,965,16,1,1969.2999999523163,709975.7000000477,9053,NNB,C,14
8,test,3,0.0,2-Back,1.0,m,Mon Mar 23 2026 13:10:35 GMT-0400 (Eastern Daylight Time),714011.8000000119,130_o_f_n_a.png,I,m,1045,17,1,2056.5,711955.3000000119,9053,NNB,C,15
8,test,3,0.0,2-Back,0.0,m,Mon Mar 23 2026 13:10:35 GMT-0400 (Eastern Daylight Time),715645.2000000477,130_o_f_n_a.png,I,z,611,18,1,1625.7000000476837,714019.5,9053,NNB,C,16
0,test,4,0.0,2-Back,,,Mon Mar 23 2026 13:10:35 GMT-0400 (Eastern Daylight Time),715645.2000000477,059_o_m_n_a.png,I,space,1570,1,1,1625.7000000476837,714019.5,9053,NNB,C,0
0,test,4,0.0,2-Back,,,Mon Mar 23 2026 13:10:35 GMT-0400 (Eastern Daylight Time),715645.2000000477,098_y_f_n_a.png,I,space,1570,2,1,1625.7000000476837,714019.5,9053,NNB,C,0
1,test,4,1.0,2-Back,1.0,z,Mon Mar 23 2026 13:10:35 GMT-0400 (Eastern Daylight Time),724162.0,059_o_m_n_a.png,I,z,606,3,1,1624.8999999761581,722537.1000000238,9053,NNB,C,1
2,test,4,1.0,2-Back,1.0,z,Mon Mar 23 2026 13:10:35 GMT-0400 (Eastern Daylight Time),726295.4000000358,098_y_f_n_a.png,I,z,1101,4,1,2124.0,724171.4000000358,9053,NNB,C,2
3,test,4,0.0,2-Back,1.0,m,Mon Mar 23 2026 13:10:35 GMT-0400 (Eastern Daylight Time),728711.9000000358,030_o_f_n_a.png,I,m,1383,5,1,2405.699999988079,726306.2000000477,9053,NNB,C,3
3,test,4,0.0,2-Back,0.0,m,Mon Mar 23 2026 13:10:35 GMT-0400 (Eastern Daylight Time),730428.6000000238,030_o_f_n_a.png,I,z,695,6,1,1708.6000000238419,728720.0,9053,NNB,C,4
4,test,4,0.0,2-Back,1.0,m,Mon Mar 23 2026 13:10:35 GMT-0400 (Eastern Daylight Time),732428.5,006_m_f_n_a.png,I,m,978,7,1,1989.699999988079,730438.8000000119,9053,NNB,C,5
4,test,4,0.0,2-Back,0.0,m,Mon Mar 23 2026 13:10:35 GMT-0400 (Eastern Daylight Time),735512.2000000477,031_y_m_n_a.png,I,None,2017,8,1,3029.800000011921,732482.4000000358,9053,NNB,C,6
5,test,4,1.0,2-Back,1.0,z,Mon Mar 23 2026 13:10:35 GMT-0400 (Eastern Daylight Time),737345.3000000119,006_m_f_n_a.png,I,z,807,9,1,1825.300000011921,735520.0,9053,NNB,C,7
6,test,4,0.0,2-Back,1.0,m,Mon Mar 23 2026 13:10:35 GMT-0400 (Eastern Daylight Time),739895.3000000119,092_m_m_n_a.png,I,m,1517,10,1,2540.099999964237,737355.2000000477,9053,NNB,C,8
6,test,4,0.0,2-Back,0.0,m,Mon Mar 23 2026 13:10:35 GMT-0400 (Eastern Daylight Time),742928.6000000238,031_y_m_n_a.png,I,None,2017,11,1,3018.199999988079,739910.4000000358,9053,NNB,C,9
6,test,4,0.0,2-Back,0.0,m,Mon Mar 23 2026 13:10:35 GMT-0400 (Eastern Daylight Time),745962.1000000238,130_o_f_n_a.png,I,None,2016,12,1,3023.800000011921,742938.3000000119,9053,NNB,C,10
6,test,4,0.0,2-Back,0.0,m,Mon Mar 23 2026 13:10:35 GMT-0400 (Eastern Daylight Time),748995.3000000119,057_y_m_n_a.png,I,None,2015,13,1,3023.300000011921,745972.0,9053,NNB,C,11
6,test,4,1.0,2-Back,0.0,z,Mon Mar 23 2026 13:10:35 GMT-0400 (Eastern Daylight Time),752028.7000000477,130_o_f_n_a.png,I,None,2016,14,1,3024.5,749004.2000000477,9053,NNB,C,12
6,test,4,1.0,2-Back,0.0,z,Mon Mar 23 2026 13:10:35 GMT-0400 (Eastern Daylight Time),755061.8000000119,057_y_m_n_a.png,I,None,2016,15,1,3025.300000011921,752036.5,9053,NNB,C,13
6,test,4,0.0,2-Back,0.0,m,Mon Mar 23 2026 13:10:35 GMT-0400 (Eastern Daylight Time),758095.4000000358,082_m_m_n_a.png,I,None,2016,16,1,3020.100000023842,755075.3000000119,9053,NNB,C,14
6,test,4,0.0,2-Back,0.0,m,Mon Mar 23 2026 13:10:35 GMT-0400 (Eastern Daylight Time),761128.7000000477,093_m_f_n_a.png,I,None,2016,17,1,3026.0,758102.7000000477,9053,NNB,C,15
6,test,4,1.0,2-Back,0.0,z,Mon Mar 23 2026 13:10:35 GMT-0400 (Eastern Daylight Time),764162.0,082_m_m_n_a.png,I,None,2016,18,1,3022.7999999523163,761139.2000000477,9053,NNB,C,16
0,test,5,1.0,2-Back,,,Mon Mar 23 2026 13:10:35 GMT-0400 (Eastern Daylight Time),764162.0,057_y_m_n_a.png,I,space,5590,1,1,3022.7999999523163,761139.2000000477,9053,NNB,C,0
0,test,5,1.0,2-Back,,,Mon Mar 23 2026 13:10:35 GMT-0400 (Eastern Daylight Time),764162.0,093_m_f_n_a.png,I,space,5590,2,1,3022.7999999523163,761139.2000000477,9053,NNB,C,0
1,test,5,1.0,2-Back,1.0,z,Mon Mar 23 2026 13:10:35 GMT-0400 (Eastern Daylight Time),776328.7000000477,057_y_m_n_a.png,I,z,499,3,1,1508.5,774820.2000000477,9053,NNB,C,1
2,test,5,1.0,2-Back,1.0,z,Mon Mar 23 2026 13:10:35 GMT-0400 (Eastern Daylight Time),778261.9000000358,093_m_f_n_a.png,I,z,902,4,1,1923.5,776338.4000000358,9053,NNB,C,2
3,test,5,0.0,2-Back,1.0,m,Mon Mar 23 2026 13:10:35 GMT-0400 (Eastern Daylight Time),779895.2000000477,130_o_f_n_a.png,I,m,600,5,1,1622.4000000357628,778272.8000000119,9053,NNB,C,3
3,test,5,0.0,2-Back,0.0,m,Mon Mar 23 2026 13:10:35 GMT-0400 (Eastern Daylight Time),781695.2000000477,057_y_m_n_a.png,I,z,776,6,1,1792.0,779903.2000000477,9053,NNB,C,4
4,test,5,0.0,2-Back,1.0,m,Mon Mar 23 2026 13:10:35 GMT-0400 (Eastern Daylight Time),783578.4000000358,028_y_f_n_a.png,I,m,863,7,1,1874.199999988079,781704.2000000477,9053,NNB,C,5
5,test,5,0.0,2-Back,1.0,m,Mon Mar 23 2026 13:10:35 GMT-0400 (Eastern Daylight Time),785528.6000000238,130_o_f_n_a.png,I,m,916,8,1,1940.1000000238419,783588.5,9053,NNB,C,6
6,test,5,1.0,2-Back,1.0,z,Mon Mar 23 2026 13:10:35 GMT-0400 (Eastern Daylight Time),787295.3000000119,028_y_f_n_a.png,I,z,742,9,1,1755.300000011921,785540.0,9053,NNB,C,7
7,test,5,0.0,2-Back,1.0,m,Mon Mar 23 2026 13:10:35 GMT-0400 (Eastern Daylight Time),789178.4000000358,146_o_m_n_a.png,I,m,863,10,1,1874.5,787303.9000000358,9053,NNB,C,8
7,test,5,0.0,2-Back,0.0,m,Mon Mar 23 2026 13:10:35 GMT-0400 (Eastern Daylight Time),792195.2000000477,006_m_f_n_a.png,I,z,1989,11,1,3004.600000023842,789190.6000000238,9053,NNB,C,9
7,test,5,0.0,2-Back,0.0,m,Mon Mar 23 2026 13:10:35 GMT-0400 (Eastern Daylight Time),795228.9000000358,092_m_m_n_a.png,I,None,2015,12,1,3025.800000011921,792203.1000000238,9053,NNB,C,10
7,test,5,0.0,2-Back,0.0,m,Mon Mar 23 2026 13:10:35 GMT-0400 (Eastern Daylight Time),797045.2000000477,146_o_m_n_a.png,I,z,786,13,1,1805.1000000238419,795240.1000000238,9053,NNB,C,11
8,test,5,1.0,2-Back,1.0,z,Mon Mar 23 2026 13:10:35 GMT-0400 (Eastern Daylight Time),798878.6000000238,092_m_m_n_a.png,I,z,809,14,1,1825.6000000238419,797053.0,9053,NNB,C,12
9,test,5,0.0,2-Back,1.0,m,Mon Mar 23 2026 13:10:35 GMT-0400 (Eastern Daylight Time),800778.5,098_y_f_n_a.png,I,m,879,15,1,1890.3999999761581,798888.1000000238,9053,NNB,C,13
10,test,5,0.0,2-Back,1.0,m,Mon Mar 23 2026 13:10:35 GMT-0400 (Eastern Daylight Time),802711.8000000119,059_o_m_n_a.png,I,m,900,16,1,1923.199999988079,800788.6000000238,9053,NNB,C,14
10,test,5,0.0,2-Back,0.0,m,Mon Mar 23 2026 13:10:35 GMT-0400 (Eastern Daylight Time),804561.8000000119,006_m_f_n_a.png,I,z,823,17,1,1841.5999999642372,802720.2000000477,9053,NNB,C,15
11,test,5,1.0,2-Back,1.0,z,Mon Mar 23 2026 13:10:35 GMT-0400 (Eastern Daylight Time),806528.5,059_o_m_n_a.png,I,z,941,18,1,1958.0999999642372,804570.4000000358,9053,NNB,C,16
