block_c,block_dur,condition,countdown,datetime,endtime,list,multichar_response,project,response,response_time,session_number,start_end,starttime,subject_id,task,task_vers,trial
,,,,Tue Feb 24 2026 12:24:16 GMT-0600 (Central Standard Time),,,,O,space,689,1,,,7749,WL,B,
prac,,0,,Tue Feb 24 2026 12:24:16 GMT-0600 (Central Standard Time),,NA,b,O,b,4952,1,,,7749,WL,B,1.0
prac,,0,,Tue Feb 24 2026 12:24:16 GMT-0600 (Central Standard Time),,NA,bo,O,o,262,1,,,7749,WL,B,1.0
prac,,0,,Tue Feb 24 2026 12:24:16 GMT-0600 (Central Standard Time),,NA,boo,O,o,147,1,,,7749,WL,B,1.0
prac,,0,,Tue Feb 24 2026 12:24:16 GMT-0600 (Central Standard Time),,NA,boos,O,s,165,1,,,7749,WL,B,1.0
prac,,0,,Tue Feb 24 2026 12:24:16 GMT-0600 (Central Standard Time),,NA,boost,O,t,374,1,,,7749,WL,B,1.0
prac,,0,,Tue Feb 24 2026 12:24:16 GMT-0600 (Central Standard Time),,NA,boostenter,O,enter,3245,1,,,7749,WL,B,1.0
1,3.4160001277923584,learn,56583.99987220764,Tue Feb 24 2026 12:24:16 GMT-0600 (Central Standard Time),130418.40000000596,A,w,O,w,3395,1,3415.600000023842,127002.79999998212,7749,WL,B,1.0
1,3.631999969482422,learn,56368.00003051758,Tue Feb 24 2026 12:24:16 GMT-0600 (Central Standard Time),130634.59999999404,A,wi,O,i,202,1,3631.800000011921,127002.79999998212,7749,WL,B,1.0
1,3.7829999923706055,learn,56217.000007629395,Tue Feb 24 2026 12:24:16 GMT-0600 (Central Standard Time),130785.90000000596,A,win,O,n,146,1,3783.100000023842,127002.79999998212,7749,WL,B,1.0
1,4.015000104904175,learn,55984.999895095825,Tue Feb 24 2026 12:24:16 GMT-0600 (Central Standard Time),131017.79999998212,A,wind,O,d,211,1,4015.0,127002.79999998212,7749,WL,B,1.0
1,4.265000104904175,learn,55734.999895095825,Tue Feb 24 2026 12:24:16 GMT-0600 (Central Standard Time),131267.79999998212,A,windo,O,o,241,1,4265.0,127002.79999998212,7749,WL,B,1.0
1,4.615000009536743,learn,55384.99999046326,Tue Feb 24 2026 12:24:16 GMT-0600 (Central Standard Time),131617.69999998808,A,window,O,w,337,1,4614.9000000059605,127002.79999998212,7749,WL,B,1.0
1,5.482000112533569,learn,54517.99988746643,Tue Feb 24 2026 12:24:16 GMT-0600 (Central Standard Time),132484.29999998212,A,windowenter,O,enter,851,1,5481.5,127002.79999998212,7749,WL,B,1.0
1,5.930999994277954,learn,54069.000005722046,Tue Feb 24 2026 12:24:16 GMT-0600 (Central Standard Time),132934.0,A,w,O,w,440,1,449.09999999403954,132484.90000000596,7749,WL,B,2.0
1,6.216000080108643,learn,53783.99991989136,Tue Feb 24 2026 12:24:16 GMT-0600 (Central Standard Time),133218.5,A,wi,O,i,263,1,733.5999999940395,132484.90000000596,7749,WL,B,2.0
1,6.447999954223633,learn,53552.00004577637,Tue Feb 24 2026 12:24:16 GMT-0600 (Central Standard Time),133450.59999999404,A,wif,O,f,210,1,965.6999999880791,132484.90000000596,7749,WL,B,2.0
1,6.898000001907349,learn,53101.99999809265,Tue Feb 24 2026 12:24:16 GMT-0600 (Central Standard Time),133900.40000000596,A,wife,O,e,442,1,1415.5,132484.90000000596,7749,WL,B,2.0
1,7.54800009727478,learn,52451.99990272522,Tue Feb 24 2026 12:24:16 GMT-0600 (Central Standard Time),134550.29999998212,A,wifeenter,O,enter,640,1,2065.399999976158,132484.90000000596,7749,WL,B,2.0
1,7.79800009727478,learn,52201.99990272522,Tue Feb 24 2026 12:24:16 GMT-0600 (Central Standard Time),134800.5,A,f,O,f,231,1,249.7000000178814,134550.79999998212,7749,WL,B,3.0
1,7.981000185012817,learn,52018.99981498718,Tue Feb 24 2026 12:24:16 GMT-0600 (Central Standard Time),134983.40000000596,A,fi,O,i,165,1,432.60000002384186,134550.79999998212,7749,WL,B,3.0
1,8.680000066757202,learn,51319.9999332428,Tue Feb 24 2026 12:24:16 GMT-0600 (Central Standard Time),135683.0,A,fir,O,r,692,1,1132.2000000178814,134550.79999998212,7749,WL,B,3.0
1,9.097000122070312,learn,50902.99987792969,Tue Feb 24 2026 12:24:16 GMT-0600 (Central Standard Time),136099.29999998212,A,fire,O,e,408,1,1548.5,134550.79999998212,7749,WL,B,3.0
1,9.797000169754028,learn,50202.99983024597,Tue Feb 24 2026 12:24:16 GMT-0600 (Central Standard Time),136799.29999998212,A,fireenter,O,enter,688,1,2248.5,134550.79999998212,7749,WL,B,3.0
1,10.92900013923645,learn,49070.99986076355,Tue Feb 24 2026 12:24:16 GMT-0600 (Central Standard Time),137932.19999998808,A,p,O,p,1116,1,1132.5,136799.69999998808,7749,WL,B,4.0
1,11.213000059127808,learn,48786.99994087219,Tue Feb 24 2026 12:24:16 GMT-0600 (Central Standard Time),138215.79999998212,A,pi,O,i,264,1,1416.0999999940395,136799.69999998808,7749,WL,B,4.0
1,11.463000059127808,learn,48536.99994087219,Tue Feb 24 2026 12:24:16 GMT-0600 (Central Standard Time),138465.59999999404,A,pip,O,p,237,1,1665.9000000059605,136799.69999998808,7749,WL,B,4.0
1,11.896000146865845,learn,48103.999853134155,Tue Feb 24 2026 12:24:16 GMT-0600 (Central Standard Time),138898.59999999404,A,pipe,O,e,427,1,2098.9000000059605,136799.69999998808,7749,WL,B,4.0
1,12.379000186920166,learn,47620.999813079834,Tue Feb 24 2026 12:24:16 GMT-0600 (Central Standard Time),139381.90000000596,A,pipeenter,O,enter,466,1,2582.2000000178814,136799.69999998808,7749,WL,B,4.0
1,12.996000051498413,learn,47003.99994850159,Tue Feb 24 2026 12:24:16 GMT-0600 (Central Standard Time),139998.5,A,c,O,c,607,1,616.0999999940395,139382.40000000596,7749,WL,B,5.0
1,13.246000051498413,learn,46753.99994850159,Tue Feb 24 2026 12:24:16 GMT-0600 (Central Standard Time),140248.59999999404,A,ci,O,i,239,1,866.1999999880791,139382.40000000596,7749,WL,B,5.0
1,13.479000091552734,learn,46520.999908447266,Tue Feb 24 2026 12:24:16 GMT-0600 (Central Standard Time),140482.09999999404,A,cit,O,t,228,1,1099.699999988079,139382.40000000596,7749,WL,B,5.0
1,13.896000146865845,learn,46103.999853134155,Tue Feb 24 2026 12:24:16 GMT-0600 (Central Standard Time),140898.29999998212,A,city,O,y,395,1,1515.8999999761581,139382.40000000596,7749,WL,B,5.0
1,14.545000076293945,learn,45454.999923706055,Tue Feb 24 2026 12:24:16 GMT-0600 (Central Standard Time),141548.09999999404,A,citys,O,s,642,1,2165.699999988079,139382.40000000596,7749,WL,B,5.0
1,14.828999996185303,learn,45171.0000038147,Tue Feb 24 2026 12:24:16 GMT-0600 (Central Standard Time),141831.5,A,cityst,O,t,265,1,2449.0999999940395,139382.40000000596,7749,WL,B,5.0
1,15.391000032424927,learn,44608.99996757507,Tue Feb 24 2026 12:24:16 GMT-0600 (Central Standard Time),142394.29999998212,A,citys,O,backspace,558,1,3011.899999976158,139382.40000000596,7749,WL,B,5.0
1,15.628000020980835,learn,44371.999979019165,Tue Feb 24 2026 12:24:16 GMT-0600 (Central Standard Time),142630.79999998212,A,city,O,backspace,227,1,3248.399999976158,139382.40000000596,7749,WL,B,5.0
1,16.42799997329712,learn,43572.00002670288,Tue Feb 24 2026 12:24:16 GMT-0600 (Central Standard Time),143431.0,A,cityenter,O,enter,782,1,4048.5999999940395,139382.40000000596,7749,WL,B,5.0
1,16.811000108718872,learn,43188.99989128113,Tue Feb 24 2026 12:24:16 GMT-0600 (Central Standard Time),143813.90000000596,A,s,O,s,374,1,382.40000000596046,143431.5,7749,WL,B,6.0
1,16.99399995803833,learn,43006.00004196167,Tue Feb 24 2026 12:24:16 GMT-0600 (Central Standard Time),143997.19999998808,A,st,O,t,166,1,565.6999999880791,143431.5,7749,WL,B,6.0
1,17.16100001335144,learn,42838.99998664856,Tue Feb 24 2026 12:24:16 GMT-0600 (Central Standard Time),144163.79999998212,A,sta,O,a,152,1,732.2999999821186,143431.5,7749,WL,B,6.0
1,18.444000005722046,learn,41555.999994277954,Tue Feb 24 2026 12:24:16 GMT-0600 (Central Standard Time),145447.0,A,star,O,r,1272,1,2015.5,143431.5,7749,WL,B,6.0
1,20.110000133514404,learn,39889.999866485596,Tue Feb 24 2026 12:24:16 GMT-0600 (Central Standard Time),147112.79999998212,A,starenter,O,enter,1645,1,3681.2999999821186,143431.5,7749,WL,B,6.0
1,20.710000038146973,learn,39289.99996185303,Tue Feb 24 2026 12:24:16 GMT-0600 (Central Standard Time),147712.79999998212,A,a,O,a,580,1,599.5,147113.29999998212,7749,WL,B,7.0
1,20.97699999809265,learn,39023.00000190735,Tue Feb 24 2026 12:24:16 GMT-0600 (Central Standard Time),147979.40000000596,A,ar,O,r,252,1,866.1000000238419,147113.29999998212,7749,WL,B,7.0
1,21.811000108718872,learn,38188.99989128113,Tue Feb 24 2026 12:24:16 GMT-0600 (Central Standard Time),148813.29999998212,A,arm,O,m,817,1,1700.0,147113.29999998212,7749,WL,B,7.0
1,23.676000118255615,learn,36323.999881744385,Tue Feb 24 2026 12:24:16 GMT-0600 (Central Standard Time),150678.40000000596,A,armenter,O,enter,1856,1,3565.100000023842,147113.29999998212,7749,WL,B,7.0
1,24.575000047683716,learn,35424.999952316284,Tue Feb 24 2026 12:24:16 GMT-0600 (Central Standard Time),151578.19999998808,A,b,O,b,894,1,899.2999999821186,150678.90000000596,7749,WL,B,8.0
1,25.29200005531311,learn,34707.99994468689,Tue Feb 24 2026 12:24:16 GMT-0600 (Central Standard Time),152294.69999998808,A,,O,backspace,698,1,1615.7999999821186,150678.90000000596,7749,WL,B,8.0
1,25.608999967575073,learn,34391.00003242493,Tue Feb 24 2026 12:24:16 GMT-0600 (Central Standard Time),152611.40000000596,A,c,O,c,303,1,1932.5,150678.90000000596,7749,WL,B,8.0
1,25.77500009536743,learn,34224.99990463257,Tue Feb 24 2026 12:24:16 GMT-0600 (Central Standard Time),152778.09999999404,A,ca,O,a,162,1,2099.199999988079,150678.90000000596,7749,WL,B,8.0
1,26.424999952316284,learn,33575.000047683716,Tue Feb 24 2026 12:24:16 GMT-0600 (Central Standard Time),153427.59999999404,A,cab,O,b,635,1,2748.699999988079,150678.90000000596,7749,WL,B,8.0
1,26.641000032424927,learn,33358.99996757507,Tue Feb 24 2026 12:24:16 GMT-0600 (Central Standard Time),153644.19999998808,A,cabi,O,i,210,1,2965.2999999821186,150678.90000000596,7749,WL,B,8.0
1,26.842000007629395,learn,33157.999992370605,Tue Feb 24 2026 12:24:16 GMT-0600 (Central Standard Time),153844.40000000596,A,cabin,O,n,185,1,3165.5,150678.90000000596,7749,WL,B,8.0
1,27.325000047683716,learn,32674.999952316284,Tue Feb 24 2026 12:24:16 GMT-0600 (Central Standard Time),154327.40000000596,A,cabinenter,O,enter,465,1,3648.5,150678.90000000596,7749,WL,B,8.0
1,27.891000032424927,learn,32108.999967575073,Tue Feb 24 2026 12:24:16 GMT-0600 (Central Standard Time),154893.79999998212,A,l,O,l,550,1,566.0,154327.79999998212,7749,WL,B,9.0
1,28.141000032424927,learn,31858.999967575073,Tue Feb 24 2026 12:24:16 GMT-0600 (Central Standard Time),155143.79999998212,A,la,O,a,239,1,816.0,154327.79999998212,7749,WL,B,9.0
1,28.374000072479248,learn,31625.999927520752,Tue Feb 24 2026 12:24:16 GMT-0600 (Central Standard Time),155377.09999999404,A,lak,O,k,214,1,1049.300000011921,154327.79999998212,7749,WL,B,9.0
1,29.006999969482422,learn,30993.000030517578,Tue Feb 24 2026 12:24:16 GMT-0600 (Central Standard Time),156010.19999998808,A,lake,O,e,628,1,1682.4000000059605,154327.79999998212,7749,WL,B,9.0
1,31.055999994277954,learn,28944.000005722046,Tue Feb 24 2026 12:24:16 GMT-0600 (Central Standard Time),158059.19999998808,A,lakeenter,O,enter,2044,1,3731.4000000059605,154327.79999998212,7749,WL,B,9.0
1,43.70300006866455,learn,16296.99993133545,Tue Feb 24 2026 12:24:16 GMT-0600 (Central Standard Time),170705.69999998808,A,s,O,s,12634,1,12646.299999982119,158059.40000000596,7749,WL,B,10.0
1,43.97000002861023,learn,16029.99997138977,Tue Feb 24 2026 12:24:16 GMT-0600 (Central Standard Time),170972.59999999404,A,st,O,t,251,1,12913.199999988079,158059.40000000596,7749,WL,B,10.0
1,44.152000188827515,learn,15847.999811172485,Tue Feb 24 2026 12:24:16 GMT-0600 (Central Standard Time),171155.19999998808,A,str,O,r,177,1,13095.799999982119,158059.40000000596,7749,WL,B,10.0
1,44.503000020980835,learn,15496.999979019165,Tue Feb 24 2026 12:24:16 GMT-0600 (Central Standard Time),171505.29999998212,A,stre,O,e,329,1,13445.899999976158,158059.40000000596,7749,WL,B,10.0
1,44.70300006866455,learn,15296.99993133545,Tue Feb 24 2026 12:24:16 GMT-0600 (Central Standard Time),171705.40000000596,A,stree,O,e,179,1,13646.0,158059.40000000596,7749,WL,B,10.0
1,45.05299997329712,learn,14947.00002670288,Tue Feb 24 2026 12:24:16 GMT-0600 (Central Standard Time),172055.40000000596,A,street,O,t,332,1,13996.0,158059.40000000596,7749,WL,B,10.0
1,46.80200004577637,learn,13197.999954223633,Tue Feb 24 2026 12:24:16 GMT-0600 (Central Standard Time),173804.40000000596,A,streetenter,O,enter,1742,1,15745.0,158059.40000000596,7749,WL,B,10.0
1,60.01300001144409,learn,-13.000011444091797,Tue Feb 24 2026 12:24:16 GMT-0600 (Central Standard Time),187017.19999998808,A,None,O,None,13208,1,13212.5,173804.69999998808,7749,WL,B,11.0
2,1.6499998569488525,learn,58350.00014305115,Tue Feb 24 2026 12:24:16 GMT-0600 (Central Standard Time),279271.6999999881,A,s,O,s,1631,1,1649.199999988079,277622.5,7749,WL,B,1.0
2,1.9830000400543213,learn,58016.99995994568,Tue Feb 24 2026 12:24:16 GMT-0600 (Central Standard Time),279605.0,A,st,O,t,324,1,1982.5,277622.5,7749,WL,B,1.0
2,2.2660000324249268,learn,57733.99996757507,Tue Feb 24 2026 12:24:16 GMT-0600 (Central Standard Time),279888.40000000596,A,str,O,r,265,1,2265.9000000059605,277622.5,7749,WL,B,1.0
2,2.5329999923706055,learn,57467.000007629395,Tue Feb 24 2026 12:24:16 GMT-0600 (Central Standard Time),280154.6999999881,A,stre,O,e,253,1,2532.199999988079,277622.5,7749,WL,B,1.0
2,2.7160000801086426,learn,57283.99991989136,Tue Feb 24 2026 12:24:16 GMT-0600 (Central Standard Time),280338.1999999881,A,stree,O,e,171,1,2715.699999988079,277622.5,7749,WL,B,1.0
2,2.999000072479248,learn,57000.99992752075,Tue Feb 24 2026 12:24:16 GMT-0600 (Central Standard Time),280621.40000000596,A,street,O,t,267,1,2998.9000000059605,277622.5,7749,WL,B,1.0
2,3.6489999294281006,learn,56351.0000705719,Tue Feb 24 2026 12:24:16 GMT-0600 (Central Standard Time),281271.2999999821,A,streetenter,O,enter,632,1,3648.7999999821186,277622.5,7749,WL,B,1.0
2,4.016000032424927,learn,55983.99996757507,Tue Feb 24 2026 12:24:16 GMT-0600 (Central Standard Time),281637.59999999404,A,g,O,g,358,1,365.90000000596046,281271.6999999881,7749,WL,B,2.0
2,4.249000072479248,learn,55750.99992752075,Tue Feb 24 2026 12:24:16 GMT-0600 (Central Standard Time),281871.0,A,gr,O,r,224,1,599.3000000119209,281271.6999999881,7749,WL,B,2.0
2,4.48199987411499,learn,55518.00012588501,Tue Feb 24 2026 12:24:16 GMT-0600 (Central Standard Time),282104.40000000596,A,gra,O,a,222,1,832.7000000178814,281271.6999999881,7749,WL,B,2.0
2,4.7820000648498535,learn,55217.99993515015,Tue Feb 24 2026 12:24:16 GMT-0600 (Central Standard Time),282403.90000000596,A,gras,O,s,293,1,1132.2000000178814,281271.6999999881,7749,WL,B,2.0
2,5.08299994468689,learn,54917.00005531311,Tue Feb 24 2026 12:24:16 GMT-0600 (Central Standard Time),282704.90000000596,A,grass,O,s,289,1,1433.2000000178814,281271.6999999881,7749,WL,B,2.0
2,6.615000009536743,learn,53384.99999046326,Tue Feb 24 2026 12:24:16 GMT-0600 (Central Standard Time),284236.7999999821,A,grassenter,O,enter,1524,1,2965.0999999940395,281271.6999999881,7749,WL,B,2.0
2,8.763999938964844,learn,51236.000061035156,Tue Feb 24 2026 12:24:16 GMT-0600 (Central Standard Time),286386.0,A,c,O,c,2145,1,2148.9000000059605,284237.09999999404,7749,WL,B,3.0
2,9.063999891281128,learn,50936.00010871887,Tue Feb 24 2026 12:24:16 GMT-0600 (Central Standard Time),286685.90000000596,A,ci,O,i,292,1,2448.800000011921,284237.09999999404,7749,WL,B,3.0
2,9.46399998664856,learn,50536.00001335144,Tue Feb 24 2026 12:24:16 GMT-0600 (Central Standard Time),287085.90000000596,A,cit,O,t,384,1,2848.800000011921,284237.09999999404,7749,WL,B,3.0
2,9.897000074386597,learn,50102.9999256134,Tue Feb 24 2026 12:24:16 GMT-0600 (Central Standard Time),287519.0,A,city,O,y,424,1,3281.9000000059605,284237.09999999404,7749,WL,B,3.0
2,10.513999938964844,learn,49486.000061035156,Tue Feb 24 2026 12:24:16 GMT-0600 (Central Standard Time),288135.59999999404,A,cityu,O,u,607,1,3898.5,284237.09999999404,7749,WL,B,3.0
2,12.61299991607666,learn,47387.00008392334,Tue Feb 24 2026 12:24:16 GMT-0600 (Central Standard Time),290234.7999999821,A,city,O,backspace,2086,1,5997.699999988079,284237.09999999404,7749,WL,B,3.0
2,13.878999948501587,learn,46121.00005149841,Tue Feb 24 2026 12:24:16 GMT-0600 (Central Standard Time),291501.2999999821,A,cityenter,O,enter,1258,1,7264.199999988079,284237.09999999404,7749,WL,B,3.0
2,17.227999925613403,learn,42772.0000743866,Tue Feb 24 2026 12:24:16 GMT-0600 (Central Standard Time),294850.2999999821,A,p,O,p,3334,1,3348.5999999940395,291501.6999999881,7749,WL,B,4.0
2,17.494999885559082,learn,42505.00011444092,Tue Feb 24 2026 12:24:16 GMT-0600 (Central Standard Time),295116.7999999821,A,pu,O,u,251,1,3615.0999999940395,291501.6999999881,7749,WL,B,4.0
2,17.611999988555908,learn,42388.00001144409,Tue Feb 24 2026 12:24:16 GMT-0600 (Central Standard Time),295233.6999999881,A,pup,O,p,105,1,3732.0,291501.6999999881,7749,WL,B,4.0
2,17.91100001335144,learn,42088.99998664856,Tue Feb 24 2026 12:24:16 GMT-0600 (Central Standard Time),295533.40000000596,A,pupi,O,i,284,1,4031.7000000178814,291501.6999999881,7749,WL,B,4.0
2,18.24399995803833,learn,41756.00004196167,Tue Feb 24 2026 12:24:16 GMT-0600 (Central Standard Time),295866.09999999404,A,pupil,O,l,312,1,4364.4000000059605,291501.6999999881,7749,WL,B,4.0
2,18.960999965667725,learn,41039.000034332275,Tue Feb 24 2026 12:24:16 GMT-0600 (Central Standard Time),296583.0,A,pupilenter,O,enter,707,1,5081.300000011921,291501.6999999881,7749,WL,B,4.0
2,19.677000045776367,learn,40322.99995422363,Tue Feb 24 2026 12:24:16 GMT-0600 (Central Standard Time),297299.40000000596,A,w,O,w,702,1,716.0,296583.40000000596,7749,WL,B,5.0
2,19.859999895095825,learn,40140.000104904175,Tue Feb 24 2026 12:24:16 GMT-0600 (Central Standard Time),297482.5,A,wi,O,i,178,1,899.0999999940395,296583.40000000596,7749,WL,B,5.0
2,20.01099991798401,learn,39989.00008201599,Tue Feb 24 2026 12:24:16 GMT-0600 (Central Standard Time),297632.59999999404,A,win,O,n,131,1,1049.199999988079,296583.40000000596,7749,WL,B,5.0
2,20.210999965667725,learn,39789.000034332275,Tue Feb 24 2026 12:24:16 GMT-0600 (Central Standard Time),297832.6999999881,A,wind,O,d,181,1,1249.2999999821186,296583.40000000596,7749,WL,B,5.0
2,20.41000008583069,learn,39589.99991416931,Tue Feb 24 2026 12:24:16 GMT-0600 (Central Standard Time),298032.59999999404,A,windo,O,o,181,1,1449.199999988079,296583.40000000596,7749,WL,B,5.0
2,20.675999879837036,learn,39324.000120162964,Tue Feb 24 2026 12:24:16 GMT-0600 (Central Standard Time),298298.90000000596,A,window,O,w,245,1,1715.5,296583.40000000596,7749,WL,B,5.0
2,21.543999910354614,learn,38456.000089645386,Tue Feb 24 2026 12:24:16 GMT-0600 (Central Standard Time),299166.59999999404,A,windowenter,O,enter,850,1,2583.199999988079,296583.40000000596,7749,WL,B,5.0
2,21.95899987220764,learn,38041.00012779236,Tue Feb 24 2026 12:24:16 GMT-0600 (Central Standard Time),299581.7999999821,A,w,O,w,399,1,414.7999999821186,299167.0,7749,WL,B,6.0
2,22.158999919891357,learn,37841.00008010864,Tue Feb 24 2026 12:24:16 GMT-0600 (Central Standard Time),299782.0,A,wi,O,i,192,1,615.0,299167.0,7749,WL,B,6.0
2,22.408999919891357,learn,37591.00008010864,Tue Feb 24 2026 12:24:16 GMT-0600 (Central Standard Time),300031.7999999821,A,wif,O,f,232,1,864.7999999821186,299167.0,7749,WL,B,6.0
2,22.70899987220764,learn,37291.00012779236,Tue Feb 24 2026 12:24:16 GMT-0600 (Central Standard Time),300331.6999999881,A,wife,O,e,286,1,1164.699999988079,299167.0,7749,WL,B,6.0
2,24.79200005531311,learn,35207.99994468689,Tue Feb 24 2026 12:24:16 GMT-0600 (Central Standard Time),302414.40000000596,A,wifec,O,c,2073,1,3247.4000000059605,299167.0,7749,WL,B,6.0
2,25.057999849319458,learn,34942.00015068054,Tue Feb 24 2026 12:24:16 GMT-0600 (Central Standard Time),302681.0,A,wifeca,O,a,246,1,3514.0,299167.0,7749,WL,B,6.0
2,25.375,learn,34625.0,Tue Feb 24 2026 12:24:16 GMT-0600 (Central Standard Time),302997.5,A,wifecab,O,b,300,1,3830.5,299167.0,7749,WL,B,6.0
2,25.591000080108643,learn,34408.99991989136,Tue Feb 24 2026 12:24:16 GMT-0600 (Central Standard Time),303214.1999999881,A,wifecabi,O,i,200,1,4047.199999988079,299167.0,7749,WL,B,6.0
2,25.907999992370605,learn,34092.000007629395,Tue Feb 24 2026 12:24:16 GMT-0600 (Central Standard Time),303530.7999999821,A,wifecabin,O,n,303,1,4363.799999982119,299167.0,7749,WL,B,6.0
2,26.490999937057495,learn,33509.000062942505,Tue Feb 24 2026 12:24:16 GMT-0600 (Central Standard Time),304114.0,A,wifecabi,O,backspace,571,1,4947.0,299167.0,7749,WL,B,6.0
2,26.69099998474121,learn,33309.00001525879,Tue Feb 24 2026 12:24:16 GMT-0600 (Central Standard Time),304313.7999999821,A,wifecab,O,backspace,187,1,5146.799999982119,299167.0,7749,WL,B,6.0
2,26.874000072479248,learn,33125.99992752075,Tue Feb 24 2026 12:24:16 GMT-0600 (Central Standard Time),304497.1999999881,A,wifeca,O,backspace,171,1,5330.199999988079,299167.0,7749,WL,B,6.0
2,27.073999881744385,learn,32926.000118255615,Tue Feb 24 2026 12:24:16 GMT-0600 (Central Standard Time),304697.09999999404,A,wifec,O,backspace,188,1,5530.0999999940395,299167.0,7749,WL,B,6.0
2,27.307999849319458,learn,32692.000150680542,Tue Feb 24 2026 12:24:16 GMT-0600 (Central Standard Time),304930.5,A,wife,O,backspace,212,1,5763.5,299167.0,7749,WL,B,6.0
2,28.125,learn,31875.0,Tue Feb 24 2026 12:24:16 GMT-0600 (Central Standard Time),305747.6999999881,A,wifeenter,O,enter,803,1,6580.699999988079,299167.0,7749,WL,B,6.0
2,28.5239999294281,learn,31476.0000705719,Tue Feb 24 2026 12:24:16 GMT-0600 (Central Standard Time),306146.5,A,c,O,c,394,1,398.5,305748.0,7749,WL,B,7.0
2,28.707000017166138,learn,31292.999982833862,Tue Feb 24 2026 12:24:16 GMT-0600 (Central Standard Time),306330.2999999821,A,ca,O,a,163,1,582.2999999821186,305748.0,7749,WL,B,7.0
2,28.889999866485596,learn,31110.000133514404,Tue Feb 24 2026 12:24:16 GMT-0600 (Central Standard Time),306513.09999999404,A,cab,O,b,162,1,765.0999999940395,305748.0,7749,WL,B,7.0
2,29.124000072479248,learn,30875.999927520752,Tue Feb 24 2026 12:24:16 GMT-0600 (Central Standard Time),306746.90000000596,A,cabi,O,i,229,1,998.9000000059605,305748.0,7749,WL,B,7.0
2,29.306999921798706,learn,30693.000078201294,Tue Feb 24 2026 12:24:16 GMT-0600 (Central Standard Time),306929.59999999404,A,cabin,O,n,171,1,1181.5999999940395,305748.0,7749,WL,B,7.0
2,30.50600004196167,learn,29493.99995803833,Tue Feb 24 2026 12:24:16 GMT-0600 (Central Standard Time),308129.40000000596,A,cabinenter,O,enter,1187,1,2381.4000000059605,305748.0,7749,WL,B,7.0
2,31.35599994659424,learn,28644.00005340576,Tue Feb 24 2026 12:24:16 GMT-0600 (Central Standard Time),308979.09999999404,A,f,O,f,836,1,849.3000000119209,308129.7999999821,7749,WL,B,8.0
2,31.539999961853027,learn,28460.000038146973,Tue Feb 24 2026 12:24:16 GMT-0600 (Central Standard Time),309162.40000000596,A,fi,O,i,170,1,1032.6000000238419,308129.7999999821,7749,WL,B,8.0
2,31.69000005722046,learn,28309.99994277954,Tue Feb 24 2026 12:24:16 GMT-0600 (Central Standard Time),309312.40000000596,A,fir,O,r,129,1,1182.6000000238419,308129.7999999821,7749,WL,B,8.0
2,31.9229998588562,learn,28077.0001411438,Tue Feb 24 2026 12:24:16 GMT-0600 (Central Standard Time),309545.40000000596,A,fire,O,e,221,1,1415.6000000238419,308129.7999999821,7749,WL,B,8.0
2,32.98900008201599,learn,27010.99991798401,Tue Feb 24 2026 12:24:16 GMT-0600 (Central Standard Time),310612.0,A,fireenter,O,enter,1060,1,2482.2000000178814,308129.7999999821,7749,WL,B,8.0
2,34.605000019073486,learn,25394.999980926514,Tue Feb 24 2026 12:24:16 GMT-0600 (Central Standard Time),312228.0,A,p,O,p,1601,1,1615.5999999940395,310612.40000000596,7749,WL,B,9.0
2,34.7720000743866,learn,25227.999925613403,Tue Feb 24 2026 12:24:16 GMT-0600 (Central Standard Time),312394.6999999881,A,pi,O,i,145,1,1782.2999999821186,310612.40000000596,7749,WL,B,9.0
2,34.92199993133545,learn,25078.00006866455,Tue Feb 24 2026 12:24:16 GMT-0600 (Central Standard Time),312544.6999999881,A,pip,O,p,139,1,1932.2999999821186,310612.40000000596,7749,WL,B,9.0
2,35.15499997138977,learn,24845.00002861023,Tue Feb 24 2026 12:24:16 GMT-0600 (Central Standard Time),312777.90000000596,A,pipe,O,e,221,1,2165.5,310612.40000000596,7749,WL,B,9.0
2,35.47199988365173,learn,24528.000116348267,Tue Feb 24 2026 12:24:16 GMT-0600 (Central Standard Time),313094.5,A,pipeenter,O,enter,308,1,2482.0999999940395,310612.40000000596,7749,WL,B,9.0
2,36.287999868392944,learn,23712.000131607056,Tue Feb 24 2026 12:24:16 GMT-0600 (Central Standard Time),313910.90000000596,A,s,O,s,799,1,816.1000000238419,313094.7999999821,7749,WL,B,10.0
2,36.83800005912781,learn,23161.999940872192,Tue Feb 24 2026 12:24:16 GMT-0600 (Central Standard Time),314460.6999999881,A,sk,O,k,534,1,1365.9000000059605,313094.7999999821,7749,WL,B,10.0
2,37.13800001144409,learn,22861.99998855591,Tue Feb 24 2026 12:24:16 GMT-0600 (Central Standard Time),314760.40000000596,A,ski,O,i,281,1,1665.6000000238419,313094.7999999821,7749,WL,B,10.0
2,37.4210000038147,learn,22578.999996185303,Tue Feb 24 2026 12:24:16 GMT-0600 (Central Standard Time),315043.6999999881,A,skin,O,n,277,1,1948.9000000059605,313094.7999999821,7749,WL,B,10.0
2,38.603999853134155,learn,21396.000146865845,Tue Feb 24 2026 12:24:16 GMT-0600 (Central Standard Time),316226.90000000596,A,skinenter,O,enter,1170,1,3132.100000023842,313094.7999999821,7749,WL,B,10.0
2,38.920000076293945,learn,21079.999923706055,Tue Feb 24 2026 12:24:16 GMT-0600 (Central Standard Time),316543.09999999404,A,c,O,c,298,1,315.69999998807907,316227.40000000596,7749,WL,B,11.0
2,39.0699999332428,learn,20930.000066757202,Tue Feb 24 2026 12:24:16 GMT-0600 (Central Standard Time),316693.2999999821,A,ca,O,a,142,1,465.89999997615814,316227.40000000596,7749,WL,B,11.0
2,39.353999853134155,learn,20646.000146865845,Tue Feb 24 2026 12:24:16 GMT-0600 (Central Standard Time),316976.5,A,cab,O,b,264,1,749.0999999940395,316227.40000000596,7749,WL,B,11.0
2,39.48699998855591,learn,20513.00001144409,Tue Feb 24 2026 12:24:16 GMT-0600 (Central Standard Time),317109.59999999404,A,cabi,O,i,125,1,882.1999999880791,316227.40000000596,7749,WL,B,11.0
2,39.7039999961853,learn,20296.000003814697,Tue Feb 24 2026 12:24:16 GMT-0600 (Central Standard Time),317326.5,A,cabin,O,n,200,1,1099.0999999940395,316227.40000000596,7749,WL,B,11.0
2,41.019999980926514,learn,18980.000019073486,Tue Feb 24 2026 12:24:16 GMT-0600 (Central Standard Time),318642.59999999404,A,cabinenter,O,enter,1296,1,2415.199999988079,316227.40000000596,7749,WL,B,11.0
2,41.486000061035156,learn,18513.999938964844,Tue Feb 24 2026 12:24:16 GMT-0600 (Central Standard Time),319109.2999999821,A,l,O,l,451,1,466.2999999821186,318643.0,7749,WL,B,12.0
2,41.61999988555908,learn,18380.000114440918,Tue Feb 24 2026 12:24:16 GMT-0600 (Central Standard Time),319242.5,A,la,O,a,128,1,599.5,318643.0,7749,WL,B,12.0
2,42.45300006866455,learn,17546.99993133545,Tue Feb 24 2026 12:24:16 GMT-0600 (Central Standard Time),320075.6999999881,A,lak,O,k,819,1,1432.699999988079,318643.0,7749,WL,B,12.0
2,43.11899995803833,learn,16881.00004196167,Tue Feb 24 2026 12:24:16 GMT-0600 (Central Standard Time),320742.09999999404,A,lake,O,e,658,1,2099.0999999940395,318643.0,7749,WL,B,12.0
2,45.55200004577637,learn,14447.999954223633,Tue Feb 24 2026 12:24:16 GMT-0600 (Central Standard Time),323174.6999999881,A,lakec,O,c,2415,1,4531.699999988079,318643.0,7749,WL,B,12.0
2,46.50099992752075,learn,13499.000072479248,Tue Feb 24 2026 12:24:16 GMT-0600 (Central Standard Time),324124.2999999821,A,lake,O,backspace,935,1,5481.299999982119,318643.0,7749,WL,B,12.0
2,47.3529999256134,learn,12647.000074386597,Tue Feb 24 2026 12:24:16 GMT-0600 (Central Standard Time),324975.40000000596,A,lakeenter,O,enter,833,1,6332.4000000059605,318643.0,7749,WL,B,12.0
2,47.71799993515015,learn,12282.000064849854,Tue Feb 24 2026 12:24:16 GMT-0600 (Central Standard Time),325340.6999999881,A,c,O,c,358,1,364.90000000596046,324975.7999999821,7749,WL,B,13.0
2,47.93400001525879,learn,12065.999984741211,Tue Feb 24 2026 12:24:16 GMT-0600 (Central Standard Time),325557.2999999821,A,cl,O,l,209,1,581.5,324975.7999999821,7749,WL,B,13.0
2,48.26699995994568,learn,11733.000040054321,Tue Feb 24 2026 12:24:16 GMT-0600 (Central Standard Time),325890.40000000596,A,clo,O,o,312,1,914.6000000238419,324975.7999999821,7749,WL,B,13.0
2,48.550999879837036,learn,11449.000120162964,Tue Feb 24 2026 12:24:16 GMT-0600 (Central Standard Time),326173.6999999881,A,cloc,O,c,275,1,1197.9000000059605,324975.7999999821,7749,WL,B,13.0
2,48.901000022888184,learn,11098.999977111816,Tue Feb 24 2026 12:24:16 GMT-0600 (Central Standard Time),326523.59999999404,A,clocj,O,j,336,1,1547.800000011921,324975.7999999821,7749,WL,B,13.0
2,50.382999897003174,learn,9617.000102996826,Tue Feb 24 2026 12:24:16 GMT-0600 (Central Standard Time),328006.2999999821,A,cloc,O,backspace,1474,1,3030.5,324975.7999999821,7749,WL,B,13.0
2,51.700000047683716,learn,8299.999952316284,Tue Feb 24 2026 12:24:16 GMT-0600 (Central Standard Time),329322.40000000596,A,clock,O,k,1310,1,4346.600000023842,324975.7999999821,7749,WL,B,13.0
2,52.032999992370605,learn,7967.0000076293945,Tue Feb 24 2026 12:24:16 GMT-0600 (Central Standard Time),329655.90000000596,A,clockenter,O,enter,323,1,4680.100000023842,324975.7999999821,7749,WL,B,13.0
2,52.299999952316284,learn,7700.000047683716,Tue Feb 24 2026 12:24:16 GMT-0600 (Central Standard Time),329922.59999999404,A,a,O,a,262,1,266.40000000596046,329656.1999999881,7749,WL,B,14.0
2,52.51600003242493,learn,7483.999967575073,Tue Feb 24 2026 12:24:16 GMT-0600 (Central Standard Time),330139.0,A,ar,O,r,211,1,482.80000001192093,329656.1999999881,7749,WL,B,14.0
2,54.91599988937378,learn,5084.000110626221,Tue Feb 24 2026 12:24:16 GMT-0600 (Central Standard Time),332538.5,A,arm,O,m,2378,1,2882.300000011921,329656.1999999881,7749,WL,B,14.0
2,55.76600003242493,learn,4233.999967575073,Tue Feb 24 2026 12:24:16 GMT-0600 (Central Standard Time),333388.7999999821,A,armenter,O,enter,834,1,3732.5999999940395,329656.1999999881,7749,WL,B,14.0
2,56.931999921798706,learn,3068.000078201294,Tue Feb 24 2026 12:24:16 GMT-0600 (Central Standard Time),334554.5,A,s,O,s,1145,1,1165.4000000059605,333389.09999999404,7749,WL,B,15.0
2,57.14800000190735,learn,2851.9999980926514,Tue Feb 24 2026 12:24:16 GMT-0600 (Central Standard Time),334770.6999999881,A,st,O,t,210,1,1381.5999999940395,333389.09999999404,7749,WL,B,15.0
2,57.348000049591064,learn,2651.9999504089355,Tue Feb 24 2026 12:24:16 GMT-0600 (Central Standard Time),334971.0,A,sta,O,a,186,1,1581.9000000059605,333389.09999999404,7749,WL,B,15.0
2,57.598000049591064,learn,2401.9999504089355,Tue Feb 24 2026 12:24:16 GMT-0600 (Central Standard Time),335220.7999999821,A,star,O,r,235,1,1831.699999988079,333389.09999999404,7749,WL,B,15.0
2,58.88100004196167,learn,1118.99995803833,Tue Feb 24 2026 12:24:16 GMT-0600 (Central Standard Time),336503.7999999821,A,starenter,O,enter,1273,1,3114.699999988079,333389.09999999404,7749,WL,B,15.0
3,0.4830000400543213,learn,59516.99995994568,Tue Feb 24 2026 12:24:16 GMT-0600 (Central Standard Time),419011.1999999881,A,s,O,s,478,1,482.7999999821186,418528.40000000596,7749,WL,B,1.0
3,0.7829999923706055,learn,59217.000007629395,Tue Feb 24 2026 12:24:16 GMT-0600 (Central Standard Time),419311.1999999881,A,st,O,t,290,1,782.7999999821186,418528.40000000596,7749,WL,B,1.0
3,1.8989999294281006,learn,58101.0000705719,Tue Feb 24 2026 12:24:16 GMT-0600 (Central Standard Time),420427.59999999404,A,str,O,r,1102,1,1899.199999988079,418528.40000000596,7749,WL,B,1.0
3,2.315999984741211,learn,57684.00001525879,Tue Feb 24 2026 12:24:16 GMT-0600 (Central Standard Time),420844.40000000596,A,stre,O,e,402,1,2316.0,418528.40000000596,7749,WL,B,1.0
3,2.499000072479248,learn,57500.99992752075,Tue Feb 24 2026 12:24:16 GMT-0600 (Central Standard Time),421027.5,A,stree,O,e,161,1,2499.0999999940395,418528.40000000596,7749,WL,B,1.0
3,2.7160000801086426,learn,57283.99991989136,Tue Feb 24 2026 12:24:16 GMT-0600 (Central Standard Time),421243.90000000596,A,street,O,t,210,1,2715.5,418528.40000000596,7749,WL,B,1.0
3,3.431999921798706,learn,56568.000078201294,Tue Feb 24 2026 12:24:16 GMT-0600 (Central Standard Time),421960.5,A,streetenter,O,enter,698,1,3432.0999999940395,418528.40000000596,7749,WL,B,1.0
3,4.648000001907349,learn,55351.99999809265,Tue Feb 24 2026 12:24:16 GMT-0600 (Central Standard Time),423176.90000000596,A,d,O,d,1205,1,1216.1000000238419,421960.7999999821,7749,WL,B,2.0
3,4.881999969482422,learn,55118.00003051758,Tue Feb 24 2026 12:24:16 GMT-0600 (Central Standard Time),423410.0,A,do,O,o,220,1,1449.2000000178814,421960.7999999821,7749,WL,B,2.0
3,5.065000057220459,learn,54934.99994277954,Tue Feb 24 2026 12:24:16 GMT-0600 (Central Standard Time),423593.1999999881,A,doo,O,o,162,1,1632.4000000059605,421960.7999999821,7749,WL,B,2.0
3,5.414999961853027,learn,54585.00003814697,Tue Feb 24 2026 12:24:16 GMT-0600 (Central Standard Time),423943.09999999404,A,door,O,r,332,1,1982.300000011921,421960.7999999821,7749,WL,B,2.0
3,6.0980000495910645,learn,53901.999950408936,Tue Feb 24 2026 12:24:16 GMT-0600 (Central Standard Time),424626.2999999821,A,doorenter,O,enter,663,1,2665.5,421960.7999999821,7749,WL,B,2.0
3,6.480999946594238,learn,53519.00005340576,Tue Feb 24 2026 12:24:16 GMT-0600 (Central Standard Time),425009.59999999404,A,g,O,g,363,1,382.90000000596046,424626.6999999881,7749,WL,B,3.0
3,6.769999980926514,learn,53230.000019073486,Tue Feb 24 2026 12:24:16 GMT-0600 (Central Standard Time),425298.6999999881,A,gr,O,r,283,1,672.0,424626.6999999881,7749,WL,B,3.0
3,6.917999982833862,learn,53082.00001716614,Tue Feb 24 2026 12:24:16 GMT-0600 (Central Standard Time),425446.2999999821,A,gra,O,a,143,1,819.5999999940395,424626.6999999881,7749,WL,B,3.0
3,7.13100004196167,learn,52868.99995803833,Tue Feb 24 2026 12:24:16 GMT-0600 (Central Standard Time),425658.90000000596,A,gras,O,s,207,1,1032.2000000178814,424626.6999999881,7749,WL,B,3.0
3,7.346999883651733,learn,52653.00011634827,Tue Feb 24 2026 12:24:16 GMT-0600 (Central Standard Time),425875.7999999821,A,grass,O,s,202,1,1249.0999999940395,424626.6999999881,7749,WL,B,3.0
3,7.763999938964844,learn,52236.000061035156,Tue Feb 24 2026 12:24:16 GMT-0600 (Central Standard Time),426292.5,A,grassenter,O,enter,410,1,1665.800000011921,424626.6999999881,7749,WL,B,3.0
3,8.913000106811523,learn,51086.99989318848,Tue Feb 24 2026 12:24:16 GMT-0600 (Central Standard Time),427441.7999999821,A,w,O,w,1129,1,1148.8999999761581,426292.90000000596,7749,WL,B,4.0
3,9.096999883651733,learn,50903.00011634827,Tue Feb 24 2026 12:24:16 GMT-0600 (Central Standard Time),427625.1999999881,A,wi,O,i,171,1,1332.2999999821186,426292.90000000596,7749,WL,B,4.0
3,9.27999997138977,learn,50720.00002861023,Tue Feb 24 2026 12:24:16 GMT-0600 (Central Standard Time),427808.6999999881,A,win,O,n,164,1,1515.7999999821186,426292.90000000596,7749,WL,B,4.0
3,9.430000066757202,learn,50569.9999332428,Tue Feb 24 2026 12:24:16 GMT-0600 (Central Standard Time),427958.5,A,wind,O,d,141,1,1665.5999999940395,426292.90000000596,7749,WL,B,4.0
3,9.61299991607666,learn,50387.00008392334,Tue Feb 24 2026 12:24:16 GMT-0600 (Central Standard Time),428141.59999999404,A,windo,O,o,167,1,1848.699999988079,426292.90000000596,7749,WL,B,4.0
3,9.94700002670288,learn,50052.99997329712,Tue Feb 24 2026 12:24:16 GMT-0600 (Central Standard Time),428475.1999999881,A,window,O,w,320,1,2182.2999999821186,426292.90000000596,7749,WL,B,4.0
3,10.829999923706055,learn,49170.000076293945,Tue Feb 24 2026 12:24:16 GMT-0600 (Central Standard Time),429358.1999999881,A,windowenter,O,enter,874,1,3065.2999999821186,426292.90000000596,7749,WL,B,4.0
3,11.145999908447266,learn,48854.000091552734,Tue Feb 24 2026 12:24:16 GMT-0600 (Central Standard Time),429674.7999999821,A,w,O,w,303,1,316.19999998807907,429358.59999999404,7749,WL,B,5.0
3,11.345999956130981,learn,48654.00004386902,Tue Feb 24 2026 12:24:16 GMT-0600 (Central Standard Time),429874.2999999821,A,wi,O,i,194,1,515.6999999880791,429358.59999999404,7749,WL,B,5.0
3,11.578999996185303,learn,48421.0000038147,Tue Feb 24 2026 12:24:16 GMT-0600 (Central Standard Time),430107.6999999881,A,wif,O,f,220,1,749.0999999940395,429358.59999999404,7749,WL,B,5.0
3,11.913000106811523,learn,48086.99989318848,Tue Feb 24 2026 12:24:16 GMT-0600 (Central Standard Time),430441.09999999404,A,wife,O,e,322,1,1082.5,429358.59999999404,7749,WL,B,5.0
3,12.312999963760376,learn,47687.000036239624,Tue Feb 24 2026 12:24:16 GMT-0600 (Central Standard Time),430841.2999999821,A,wifeenter,O,enter,389,1,1482.699999988079,429358.59999999404,7749,WL,B,5.0
3,12.812000036239624,learn,47187.999963760376,Tue Feb 24 2026 12:24:16 GMT-0600 (Central Standard Time),431340.7999999821,A,s,O,s,492,1,499.09999999403954,430841.6999999881,7749,WL,B,6.0
3,13.095999956130981,learn,46904.00004386902,Tue Feb 24 2026 12:24:16 GMT-0600 (Central Standard Time),431624.09999999404,A,st,O,t,272,1,782.4000000059605,430841.6999999881,7749,WL,B,6.0
3,13.312000036239624,learn,46687.999963760376,Tue Feb 24 2026 12:24:16 GMT-0600 (Central Standard Time),431840.6999999881,A,sta,O,a,197,1,999.0,430841.6999999881,7749,WL,B,6.0
3,13.428999900817871,learn,46571.00009918213,Tue Feb 24 2026 12:24:16 GMT-0600 (Central Standard Time),431957.40000000596,A,star,O,r,109,1,1115.7000000178814,430841.6999999881,7749,WL,B,6.0
3,13.645999908447266,learn,46354.000091552734,Tue Feb 24 2026 12:24:16 GMT-0600 (Central Standard Time),432174.0,A,start,O,t,200,1,1332.300000011921,430841.6999999881,7749,WL,B,6.0
3,14.661999940872192,learn,45338.00005912781,Tue Feb 24 2026 12:24:16 GMT-0600 (Central Standard Time),433190.09999999404,A,star,O,backspace,999,1,2348.4000000059605,430841.6999999881,7749,WL,B,6.0
3,15.244999885559082,learn,44755.00011444092,Tue Feb 24 2026 12:24:16 GMT-0600 (Central Standard Time),433773.1999999881,A,starenter,O,enter,568,1,2931.5,430841.6999999881,7749,WL,B,6.0
3,15.744999885559082,learn,44255.00011444092,Tue Feb 24 2026 12:24:16 GMT-0600 (Central Standard Time),434273.2999999821,A,a,O,a,489,1,499.7999999821186,433773.5,7749,WL,B,7.0
3,16.16100001335144,learn,43838.99998664856,Tue Feb 24 2026 12:24:16 GMT-0600 (Central Standard Time),434689.7999999821,A,ar,O,r,404,1,916.2999999821186,433773.5,7749,WL,B,7.0
3,17.227999925613403,learn,42772.0000743866,Tue Feb 24 2026 12:24:16 GMT-0600 (Central Standard Time),435756.5,A,arm,O,m,1060,1,1983.0,433773.5,7749,WL,B,7.0
3,18.51099991798401,learn,41489.00008201599,Tue Feb 24 2026 12:24:16 GMT-0600 (Central Standard Time),437039.0,A,armenter,O,enter,1265,1,3265.5,433773.5,7749,WL,B,7.0
3,20.80999994277954,learn,39190.00005722046,Tue Feb 24 2026 12:24:16 GMT-0600 (Central Standard Time),439338.40000000596,A,w,O,w,2278,1,2299.0,437039.40000000596,7749,WL,B,8.0
3,20.960000038146973,learn,39039.99996185303,Tue Feb 24 2026 12:24:16 GMT-0600 (Central Standard Time),439488.09999999404,A,wi,O,i,139,1,2448.699999988079,437039.40000000596,7749,WL,B,8.0
3,21.210000038146973,learn,38789.99996185303,Tue Feb 24 2026 12:24:16 GMT-0600 (Central Standard Time),439738.1999999881,A,wif,O,f,237,1,2698.7999999821186,437039.40000000596,7749,WL,B,8.0
3,21.542999982833862,learn,38457.00001716614,Tue Feb 24 2026 12:24:16 GMT-0600 (Central Standard Time),440071.59999999404,A,wife,O,e,323,1,3032.199999988079,437039.40000000596,7749,WL,B,8.0
3,24.026999950408936,learn,35973.000049591064,Tue Feb 24 2026 12:24:16 GMT-0600 (Central Standard Time),442555.2999999821,A,wifeenter,O,enter,2470,1,5515.899999976158,437039.40000000596,7749,WL,B,8.0
3,26.29200005531311,learn,33707.99994468689,Tue Feb 24 2026 12:24:16 GMT-0600 (Central Standard Time),444820.1999999881,A,c,O,c,2251,1,2264.699999988079,442555.5,7749,WL,B,9.0
3,26.45799994468689,learn,33542.00005531311,Tue Feb 24 2026 12:24:16 GMT-0600 (Central Standard Time),444986.6999999881,A,cl,O,l,153,1,2431.199999988079,442555.5,7749,WL,B,9.0
3,26.657999992370605,learn,33342.000007629395,Tue Feb 24 2026 12:24:16 GMT-0600 (Central Standard Time),445186.5,A,clo,O,o,187,1,2631.0,442555.5,7749,WL,B,9.0
3,26.925999879837036,learn,33074.000120162964,Tue Feb 24 2026 12:24:16 GMT-0600 (Central Standard Time),445454.09999999404,A,cloc,O,c,251,1,2898.5999999940395,442555.5,7749,WL,B,9.0
3,27.091000080108643,learn,32908.99991989136,Tue Feb 24 2026 12:24:16 GMT-0600 (Central Standard Time),445619.59999999404,A,clock,O,k,159,1,3064.0999999940395,442555.5,7749,WL,B,9.0
3,27.691999912261963,learn,32308.000087738037,Tue Feb 24 2026 12:24:16 GMT-0600 (Central Standard Time),446220.40000000596,A,clockenter,O,enter,594,1,3664.9000000059605,442555.5,7749,WL,B,9.0
3,29.507999897003174,learn,30492.000102996826,Tue Feb 24 2026 12:24:16 GMT-0600 (Central Standard Time),448035.90000000596,A,p,O,p,1801,1,1815.1000000238419,446220.7999999821,7749,WL,B,10.0
3,29.756999969482422,learn,30243.000030517578,Tue Feb 24 2026 12:24:16 GMT-0600 (Central Standard Time),448285.5,A,pu,O,u,241,1,2064.7000000178814,446220.7999999821,7749,WL,B,10.0
3,30.007999897003174,learn,29992.000102996826,Tue Feb 24 2026 12:24:16 GMT-0600 (Central Standard Time),448536.59999999404,A,pup,O,p,232,1,2315.800000011921,446220.7999999821,7749,WL,B,10.0
3,30.328999996185303,learn,29671.000003814697,Tue Feb 24 2026 12:24:16 GMT-0600 (Central Standard Time),448857.09999999404,A,pupi,O,i,316,1,2636.300000011921,446220.7999999821,7749,WL,B,10.0
3,30.67300009727478,learn,29326.99990272522,Tue Feb 24 2026 12:24:16 GMT-0600 (Central Standard Time),449201.90000000596,A,pupil,O,l,324,1,2981.100000023842,446220.7999999821,7749,WL,B,10.0
3,31.157000064849854,learn,28842.999935150146,Tue Feb 24 2026 12:24:16 GMT-0600 (Central Standard Time),449685.1999999881,A,pupilenter,O,enter,468,1,3464.4000000059605,446220.7999999821,7749,WL,B,10.0
3,33.60599994659424,learn,26394.00005340576,Tue Feb 24 2026 12:24:16 GMT-0600 (Central Standard Time),452134.0,A,c,O,c,2432,1,2448.5,449685.5,7749,WL,B,11.0
3,33.82299995422363,learn,26177.000045776367,Tue Feb 24 2026 12:24:16 GMT-0600 (Central Standard Time),452351.0,A,ca,O,a,200,1,2665.5,449685.5,7749,WL,B,11.0
3,34.10599994659424,learn,25894.00005340576,Tue Feb 24 2026 12:24:16 GMT-0600 (Central Standard Time),452634.5,A,cab,O,b,263,1,2949.0,449685.5,7749,WL,B,11.0
3,34.289000034332275,learn,25710.999965667725,Tue Feb 24 2026 12:24:16 GMT-0600 (Central Standard Time),452817.59999999404,A,cabi,O,i,164,1,3132.0999999940395,449685.5,7749,WL,B,11.0
3,34.456000089645386,learn,25543.999910354614,Tue Feb 24 2026 12:24:16 GMT-0600 (Central Standard Time),452984.09999999404,A,cabin,O,n,156,1,3298.5999999940395,449685.5,7749,WL,B,11.0
3,34.956000089645386,learn,25043.999910354614,Tue Feb 24 2026 12:24:16 GMT-0600 (Central Standard Time),453484.6999999881,A,cabinenter,O,enter,494,1,3799.199999988079,449685.5,7749,WL,B,11.0
3,35.47199988365173,learn,24528.000116348267,Tue Feb 24 2026 12:24:16 GMT-0600 (Central Standard Time),454000.5,A,l,O,l,497,1,515.5,453485.0,7749,WL,B,12.0
3,35.638999938964844,learn,24361.000061035156,Tue Feb 24 2026 12:24:16 GMT-0600 (Central Standard Time),454167.09999999404,A,la,O,a,157,1,682.0999999940395,453485.0,7749,WL,B,12.0
3,35.855000019073486,learn,24144.999980926514,Tue Feb 24 2026 12:24:16 GMT-0600 (Central Standard Time),454383.59999999404,A,lak,O,k,206,1,898.5999999940395,453485.0,7749,WL,B,12.0
3,36.17199993133545,learn,23828.00006866455,Tue Feb 24 2026 12:24:16 GMT-0600 (Central Standard Time),454700.0,A,lake,O,e,302,1,1215.0,453485.0,7749,WL,B,12.0
3,36.50500011444092,learn,23494.999885559082,Tue Feb 24 2026 12:24:16 GMT-0600 (Central Standard Time),455033.59999999404,A,lakeenter,O,enter,312,1,1548.5999999940395,453485.0,7749,WL,B,12.0
3,36.855000019073486,learn,23144.999980926514,Tue Feb 24 2026 12:24:16 GMT-0600 (Central Standard Time),455383.5,A,f,O,f,340,1,349.59999999403954,455033.90000000596,7749,WL,B,13.0
3,37.0550000667572,learn,22944.999933242798,Tue Feb 24 2026 12:24:16 GMT-0600 (Central Standard Time),455583.2999999821,A,fi,O,i,182,1,549.3999999761581,455033.90000000596,7749,WL,B,13.0
3,37.23799991607666,learn,22762.00008392334,Tue Feb 24 2026 12:24:16 GMT-0600 (Central Standard Time),455766.7999999821,A,fir,O,r,166,1,732.8999999761581,455033.90000000596,7749,WL,B,13.0
3,37.48799991607666,learn,22512.00008392334,Tue Feb 24 2026 12:24:16 GMT-0600 (Central Standard Time),456016.6999999881,A,fire,O,e,239,1,982.7999999821186,455033.90000000596,7749,WL,B,13.0
3,37.87100005149841,learn,22128.999948501587,Tue Feb 24 2026 12:24:16 GMT-0600 (Central Standard Time),456399.7999999821,A,fireenter,O,enter,364,1,1365.8999999761581,455033.90000000596,7749,WL,B,13.0
3,38.62100005149841,learn,21378.999948501587,Tue Feb 24 2026 12:24:16 GMT-0600 (Central Standard Time),457149.0,A,p,O,p,733,1,748.9000000059605,456400.09999999404,7749,WL,B,14.0
3,38.88800001144409,learn,21111.99998855591,Tue Feb 24 2026 12:24:16 GMT-0600 (Central Standard Time),457416.1999999881,A,pi,O,i,256,1,1016.0999999940395,456400.09999999404,7749,WL,B,14.0
3,39.07100009918213,learn,20928.99990081787,Tue Feb 24 2026 12:24:16 GMT-0600 (Central Standard Time),457599.2999999821,A,pip,O,p,165,1,1199.199999988079,456400.09999999404,7749,WL,B,14.0
3,39.354000091552734,learn,20645.999908447266,Tue Feb 24 2026 12:24:16 GMT-0600 (Central Standard Time),457882.6999999881,A,pipe,O,e,270,1,1482.5999999940395,456400.09999999404,7749,WL,B,14.0
3,40.55399990081787,learn,19446.00009918213,Tue Feb 24 2026 12:24:16 GMT-0600 (Central Standard Time),459082.2999999821,A,pipeenter,O,enter,1187,1,2682.199999988079,456400.09999999404,7749,WL,B,14.0
3,41.90299987792969,learn,18097.000122070312,Tue Feb 24 2026 12:24:16 GMT-0600 (Central Standard Time),460431.59999999404,A,s,O,s,1331,1,1348.9000000059605,459082.6999999881,7749,WL,B,15.0
3,42.1029999256134,learn,17897.000074386597,Tue Feb 24 2026 12:24:16 GMT-0600 (Central Standard Time),460631.90000000596,A,sk,O,k,190,1,1549.2000000178814,459082.6999999881,7749,WL,B,15.0
3,42.420000076293945,learn,17579.999923706055,Tue Feb 24 2026 12:24:16 GMT-0600 (Central Standard Time),460948.2999999821,A,ski,O,i,302,1,1865.5999999940395,459082.6999999881,7749,WL,B,15.0
3,42.670000076293945,learn,17329.999923706055,Tue Feb 24 2026 12:24:16 GMT-0600 (Central Standard Time),461198.09999999404,A,skin,O,n,233,1,2115.4000000059605,459082.6999999881,7749,WL,B,15.0
3,44.46900010108948,learn,15530.999898910522,Tue Feb 24 2026 12:24:16 GMT-0600 (Central Standard Time),462997.59999999404,A,skinenter,O,enter,1791,1,3914.9000000059605,459082.6999999881,7749,WL,B,15.0
4,0.43199992179870605,learn,59568.000078201294,Tue Feb 24 2026 12:24:16 GMT-0600 (Central Standard Time),542289.5,A,s,O,s,412,1,431.90000000596046,541857.599999994,7749,WL,B,1.0
4,0.7149999141693115,learn,59285.00008583069,Tue Feb 24 2026 12:24:16 GMT-0600 (Central Standard Time),542572.599999994,A,st,O,t,266,1,715.0,541857.599999994,7749,WL,B,1.0
4,0.9649999141693115,learn,59035.00008583069,Tue Feb 24 2026 12:24:16 GMT-0600 (Central Standard Time),542822.599999994,A,str,O,r,233,1,965.0,541857.599999994,7749,WL,B,1.0
4,1.250999927520752,learn,58749.00007247925,Tue Feb 24 2026 12:24:16 GMT-0600 (Central Standard Time),543108.5,A,stre,O,e,281,1,1250.9000000059605,541857.599999994,7749,WL,B,1.0
4,1.4170000553131104,learn,58582.99994468689,Tue Feb 24 2026 12:24:16 GMT-0600 (Central Standard Time),543275.2999999821,A,stree,O,e,143,1,1417.699999988079,541857.599999994,7749,WL,B,1.0
4,1.5309998989105225,learn,58469.00010108948,Tue Feb 24 2026 12:24:16 GMT-0600 (Central Standard Time),543389.099999994,A,street,O,t,98,1,1531.5,541857.599999994,7749,WL,B,1.0
4,1.8480000495910645,learn,58151.999950408936,Tue Feb 24 2026 12:24:16 GMT-0600 (Central Standard Time),543705.900000006,A,streetenter,O,enter,304,1,1848.300000011921,541857.599999994,7749,WL,B,1.0
4,2.63100004196167,learn,57368.99995803833,Tue Feb 24 2026 12:24:16 GMT-0600 (Central Standard Time),544488.6999999881,A,g,O,g,772,1,782.5,543706.1999999881,7749,WL,B,2.0
4,2.8480000495910645,learn,57151.999950408936,Tue Feb 24 2026 12:24:16 GMT-0600 (Central Standard Time),544705.5,A,gr,O,r,205,1,999.3000000119209,543706.1999999881,7749,WL,B,2.0
4,3.063999891281128,learn,56936.00010871887,Tue Feb 24 2026 12:24:16 GMT-0600 (Central Standard Time),544922.099999994,A,gra,O,a,196,1,1215.9000000059605,543706.1999999881,7749,WL,B,2.0
4,3.296999931335449,learn,56703.00006866455,Tue Feb 24 2026 12:24:16 GMT-0600 (Central Standard Time),545155.5,A,gras,O,s,212,1,1449.300000011921,543706.1999999881,7749,WL,B,2.0
4,3.4800000190734863,learn,56519.999980926514,Tue Feb 24 2026 12:24:16 GMT-0600 (Central Standard Time),545338.2999999821,A,grass,O,s,178,1,1632.0999999940395,543706.1999999881,7749,WL,B,2.0
4,3.9809999465942383,learn,56019.00005340576,Tue Feb 24 2026 12:24:16 GMT-0600 (Central Standard Time),545838.5,A,grassenter,O,enter,492,1,2132.300000011921,543706.1999999881,7749,WL,B,2.0
4,4.346999883651733,learn,55653.00011634827,Tue Feb 24 2026 12:24:16 GMT-0600 (Central Standard Time),546204.7999999821,A,d,O,d,351,1,366.0,545838.7999999821,7749,WL,B,3.0
4,4.630000114440918,learn,55369.99988555908,Tue Feb 24 2026 12:24:16 GMT-0600 (Central Standard Time),546488.1999999881,A,do,O,o,265,1,649.4000000059605,545838.7999999821,7749,WL,B,3.0
4,4.7799999713897705,learn,55220.00002861023,Tue Feb 24 2026 12:24:16 GMT-0600 (Central Standard Time),546638.099999994,A,doo,O,o,133,1,799.3000000119209,545838.7999999821,7749,WL,B,3.0
4,4.914000034332275,learn,55085.999965667725,Tue Feb 24 2026 12:24:16 GMT-0600 (Central Standard Time),546771.5,A,door,O,r,119,1,932.7000000178814,545838.7999999821,7749,WL,B,3.0
4,5.630000114440918,learn,54369.99988555908,Tue Feb 24 2026 12:24:16 GMT-0600 (Central Standard Time),547487.7999999821,A,doorenter,O,enter,698,1,1649.0,545838.7999999821,7749,WL,B,3.0
4,6.0299999713897705,learn,53970.00002861023,Tue Feb 24 2026 12:24:16 GMT-0600 (Central Standard Time),547887.400000006,A,a,O,a,390,1,399.30000001192093,547488.099999994,7749,WL,B,4.0
4,6.2799999713897705,learn,53720.00002861023,Tue Feb 24 2026 12:24:16 GMT-0600 (Central Standard Time),548138.2999999821,A,ar,O,r,238,1,650.1999999880791,547488.099999994,7749,WL,B,4.0
4,6.579999923706055,learn,53420.000076293945,Tue Feb 24 2026 12:24:16 GMT-0600 (Central Standard Time),548437.599999994,A,arm,O,m,291,1,949.5,547488.099999994,7749,WL,B,4.0
4,7.395999908447266,learn,52604.000091552734,Tue Feb 24 2026 12:24:16 GMT-0600 (Central Standard Time),549253.7999999821,A,armenter,O,enter,800,1,1765.699999988079,547488.099999994,7749,WL,B,4.0
4,7.729000091552734,learn,52270.999908447266,Tue Feb 24 2026 12:24:16 GMT-0600 (Central Standard Time),549587.1999999881,A,w,O,w,320,1,333.09999999403954,549254.099999994,7749,WL,B,5.0
4,7.979000091552734,learn,52020.999908447266,Tue Feb 24 2026 12:24:16 GMT-0600 (Central Standard Time),549837.2999999821,A,wi,O,i,242,1,583.1999999880791,549254.099999994,7749,WL,B,5.0
4,8.161999940872192,learn,51838.00005912781,Tue Feb 24 2026 12:24:16 GMT-0600 (Central Standard Time),550020.2999999821,A,win,O,n,168,1,766.1999999880791,549254.099999994,7749,WL,B,5.0
4,8.312999963760376,learn,51687.000036239624,Tue Feb 24 2026 12:24:16 GMT-0600 (Central Standard Time),550170.900000006,A,wind,O,d,145,1,916.8000000119209,549254.099999994,7749,WL,B,5.0
4,8.496000051498413,learn,51503.99994850159,Tue Feb 24 2026 12:24:16 GMT-0600 (Central Standard Time),550353.599999994,A,windo,O,o,162,1,1099.5,549254.099999994,7749,WL,B,5.0
4,8.678999900817871,learn,51321.00009918213,Tue Feb 24 2026 12:24:16 GMT-0600 (Central Standard Time),550536.900000006,A,window,O,w,173,1,1282.800000011921,549254.099999994,7749,WL,B,5.0
4,9.01200008392334,learn,50987.99991607666,Tue Feb 24 2026 12:24:16 GMT-0600 (Central Standard Time),550870.099999994,A,windowenter,O,enter,318,1,1616.0,549254.099999994,7749,WL,B,5.0
4,9.394999980926514,learn,50605.000019073486,Tue Feb 24 2026 12:24:16 GMT-0600 (Central Standard Time),551253.400000006,A,w,O,w,376,1,382.90000000596046,550870.5,7749,WL,B,6.0
4,9.545000076293945,learn,50454.999923706055,Tue Feb 24 2026 12:24:16 GMT-0600 (Central Standard Time),551403.400000006,A,wi,O,i,144,1,532.9000000059605,550870.5,7749,WL,B,6.0
4,9.778000116348267,learn,50221.99988365173,Tue Feb 24 2026 12:24:16 GMT-0600 (Central Standard Time),551636.2999999821,A,wif,O,f,226,1,765.7999999821186,550870.5,7749,WL,B,6.0
4,10.029000043869019,learn,49970.99995613098,Tue Feb 24 2026 12:24:16 GMT-0600 (Central Standard Time),551886.5,A,wife,O,e,241,1,1016.0,550870.5,7749,WL,B,6.0
4,10.477999925613403,learn,49522.0000743866,Tue Feb 24 2026 12:24:16 GMT-0600 (Central Standard Time),552336.1999999881,A,wifeenter,O,enter,431,1,1465.699999988079,550870.5,7749,WL,B,6.0
4,10.944999933242798,learn,49055.0000667572,Tue Feb 24 2026 12:24:16 GMT-0600 (Central Standard Time),552802.7999999821,A,s,O,s,453,1,466.39999997615814,552336.400000006,7749,WL,B,7.0
4,11.128000020980835,learn,48871.999979019165,Tue Feb 24 2026 12:24:16 GMT-0600 (Central Standard Time),552986.400000006,A,st,O,t,171,1,650.0,552336.400000006,7749,WL,B,7.0
4,11.278000116348267,learn,48721.99988365173,Tue Feb 24 2026 12:24:16 GMT-0600 (Central Standard Time),553136.1999999881,A,sta,O,a,139,1,799.7999999821186,552336.400000006,7749,WL,B,7.0
4,11.394999980926514,learn,48605.000019073486,Tue Feb 24 2026 12:24:16 GMT-0600 (Central Standard Time),553252.6999999881,A,star,O,r,101,1,916.2999999821186,552336.400000006,7749,WL,B,7.0
4,12.67799997329712,learn,47322.00002670288,Tue Feb 24 2026 12:24:16 GMT-0600 (Central Standard Time),554535.7999999821,A,starenter,O,enter,1265,1,2199.399999976158,552336.400000006,7749,WL,B,7.0
4,16.493000030517578,learn,43506.99996948242,Tue Feb 24 2026 12:24:16 GMT-0600 (Central Standard Time),558351.099999994,A,p,O,p,3798,1,3815.0,554536.099999994,7749,WL,B,8.0
4,16.759999990463257,learn,43240.00000953674,Tue Feb 24 2026 12:24:16 GMT-0600 (Central Standard Time),558617.6999999881,A,pu,O,u,245,1,4081.5999999940395,554536.099999994,7749,WL,B,8.0
4,16.927000045776367,learn,43072.99995422363,Tue Feb 24 2026 12:24:16 GMT-0600 (Central Standard Time),558784.400000006,A,pup,O,p,156,1,4248.300000011921,554536.099999994,7749,WL,B,8.0
4,17.325999975204468,learn,42674.00002479553,Tue Feb 24 2026 12:24:16 GMT-0600 (Central Standard Time),559184.1999999881,A,pupi,O,i,389,1,4648.0999999940395,554536.099999994,7749,WL,B,8.0
4,17.943000078201294,learn,42056.999921798706,Tue Feb 24 2026 12:24:16 GMT-0600 (Central Standard Time),559800.6999999881,A,pupil,O,l,605,1,5264.5999999940395,554536.099999994,7749,WL,B,8.0
4,18.693000078201294,learn,41306.999921798706,Tue Feb 24 2026 12:24:16 GMT-0600 (Central Standard Time),560550.5,A,pupilenter,O,enter,741,1,6014.4000000059605,554536.099999994,7749,WL,B,8.0
4,19.825000047683716,learn,40174.999952316284,Tue Feb 24 2026 12:24:16 GMT-0600 (Central Standard Time),561683.1999999881,A,f,O,f,1127,1,1132.4000000059605,560550.7999999821,7749,WL,B,9.0
4,19.992000102996826,learn,40007.999897003174,Tue Feb 24 2026 12:24:16 GMT-0600 (Central Standard Time),561850.400000006,A,fi,O,i,146,1,1299.6000000238419,560550.7999999821,7749,WL,B,9.0
4,20.14199995994568,learn,39858.00004005432,Tue Feb 24 2026 12:24:16 GMT-0600 (Central Standard Time),562000.099999994,A,fir,O,r,139,1,1449.300000011921,560550.7999999821,7749,WL,B,9.0
4,20.39199995994568,learn,39608.00004005432,Tue Feb 24 2026 12:24:16 GMT-0600 (Central Standard Time),562250.099999994,A,fire,O,e,230,1,1699.300000011921,560550.7999999821,7749,WL,B,9.0
4,21.27500009536743,learn,38724.99990463257,Tue Feb 24 2026 12:24:16 GMT-0600 (Central Standard Time),563132.7999999821,A,fireenter,O,enter,875,1,2582.0,560550.7999999821,7749,WL,B,9.0
4,21.657999992370605,learn,38342.000007629395,Tue Feb 24 2026 12:24:16 GMT-0600 (Central Standard Time),563516.1999999881,A,c,O,c,368,1,383.0,563133.1999999881,7749,WL,B,10.0
4,21.841000080108643,learn,38158.99991989136,Tue Feb 24 2026 12:24:16 GMT-0600 (Central Standard Time),563699.2999999821,A,ca,O,a,177,1,566.0999999940395,563133.1999999881,7749,WL,B,10.0
4,22.875,learn,37125.0,Tue Feb 24 2026 12:24:16 GMT-0600 (Central Standard Time),564732.7999999821,A,cab,O,b,1018,1,1599.5999999940395,563133.1999999881,7749,WL,B,10.0
4,23.092000007629395,learn,36907.999992370605,Tue Feb 24 2026 12:24:16 GMT-0600 (Central Standard Time),564950.099999994,A,cabi,O,i,209,1,1816.9000000059605,563133.1999999881,7749,WL,B,10.0
4,23.60800004005432,learn,36391.99995994568,Tue Feb 24 2026 12:24:16 GMT-0600 (Central Standard Time),565465.6999999881,A,cabin,O,n,503,1,2332.5,563133.1999999881,7749,WL,B,10.0
4,23.990999937057495,learn,36009.000062942505,Tue Feb 24 2026 12:24:16 GMT-0600 (Central Standard Time),565848.7999999821,A,cabinenter,O,enter,371,1,2715.5999999940395,563133.1999999881,7749,WL,B,10.0
4,24.323999881744385,learn,35676.000118255615,Tue Feb 24 2026 12:24:16 GMT-0600 (Central Standard Time),566181.900000006,A,l,O,l,325,1,332.80000001192093,565849.099999994,7749,WL,B,11.0
4,24.507999897003174,learn,35492.000102996826,Tue Feb 24 2026 12:24:16 GMT-0600 (Central Standard Time),566365.5,A,la,O,a,169,1,516.4000000059605,565849.099999994,7749,WL,B,11.0
4,24.69000005722046,learn,35309.99994277954,Tue Feb 24 2026 12:24:16 GMT-0600 (Central Standard Time),566548.2999999821,A,lak,O,k,177,1,699.1999999880791,565849.099999994,7749,WL,B,11.0
4,24.986000061035156,learn,35013.999938964844,Tue Feb 24 2026 12:24:16 GMT-0600 (Central Standard Time),566844.099999994,A,lake,O,e,291,1,995.0,565849.099999994,7749,WL,B,11.0
4,26.006999969482422,learn,33993.00003051758,Tue Feb 24 2026 12:24:16 GMT-0600 (Central Standard Time),567864.900000006,A,lakeenter,O,enter,1009,1,2015.800000011921,565849.099999994,7749,WL,B,11.0
4,27.98900008201599,learn,32010.99991798401,Tue Feb 24 2026 12:24:16 GMT-0600 (Central Standard Time),569847.400000006,A,,O,backspace,1965,1,1982.1000000238419,567865.2999999821,7749,WL,B,12.0
4,28.341000080108643,learn,31658.999919891357,Tue Feb 24 2026 12:24:16 GMT-0600 (Central Standard Time),570198.6999999881,A,p,O,p,342,1,2333.4000000059605,567865.2999999821,7749,WL,B,12.0
4,28.688999891281128,learn,31311.000108718872,Tue Feb 24 2026 12:24:16 GMT-0600 (Central Standard Time),570547.099999994,A,pi,O,i,344,1,2681.800000011921,567865.2999999821,7749,WL,B,12.0
4,28.83999991416931,learn,31160.00008583069,Tue Feb 24 2026 12:24:16 GMT-0600 (Central Standard Time),570697.400000006,A,pip,O,p,138,1,2832.100000023842,567865.2999999821,7749,WL,B,12.0
4,29.188999891281128,learn,30811.000108718872,Tue Feb 24 2026 12:24:16 GMT-0600 (Central Standard Time),571047.2999999821,A,pipe,O,e,340,1,3182.0,567865.2999999821,7749,WL,B,12.0
4,30.055999994277954,learn,29944.000005722046,Tue Feb 24 2026 12:24:16 GMT-0600 (Central Standard Time),571913.6999999881,A,pipeenter,O,enter,846,1,4048.4000000059605,567865.2999999821,7749,WL,B,12.0
4,32.15499997138977,learn,27845.00002861023,Tue Feb 24 2026 12:24:16 GMT-0600 (Central Standard Time),574012.900000006,A,s,O,s,2092,1,2098.9000000059605,571914.0,7749,WL,B,13.0
4,32.38800001144409,learn,27611.99998855591,Tue Feb 24 2026 12:24:16 GMT-0600 (Central Standard Time),574246.2999999821,A,sk,O,k,217,1,2332.2999999821186,571914.0,7749,WL,B,13.0
4,32.706000089645386,learn,27293.999910354614,Tue Feb 24 2026 12:24:16 GMT-0600 (Central Standard Time),574564.099999994,A,ski,O,i,303,1,2650.0999999940395,571914.0,7749,WL,B,13.0
4,32.954999923706055,learn,27045.000076293945,Tue Feb 24 2026 12:24:16 GMT-0600 (Central Standard Time),574812.7999999821,A,skin,O,n,241,1,2898.7999999821186,571914.0,7749,WL,B,13.0
4,33.78800010681152,learn,26211.999893188477,Tue Feb 24 2026 12:24:16 GMT-0600 (Central Standard Time),575645.7999999821,A,skinenter,O,enter,817,1,3731.7999999821186,571914.0,7749,WL,B,13.0
4,34.07100009918213,learn,25928.99990081787,Tue Feb 24 2026 12:24:16 GMT-0600 (Central Standard Time),575929.099999994,A,c,O,c,272,1,283.0,575646.099999994,7749,WL,B,14.0
4,34.32100009918213,learn,25678.99990081787,Tue Feb 24 2026 12:24:16 GMT-0600 (Central Standard Time),576178.599999994,A,cl,O,l,237,1,532.5,575646.099999994,7749,WL,B,14.0
4,34.604000091552734,learn,25395.999908447266,Tue Feb 24 2026 12:24:16 GMT-0600 (Central Standard Time),576462.1999999881,A,clo,O,o,267,1,816.0999999940395,575646.099999994,7749,WL,B,14.0
4,34.97199988365173,learn,25028.000116348267,Tue Feb 24 2026 12:24:16 GMT-0600 (Central Standard Time),576829.599999994,A,cloc,O,c,359,1,1183.5,575646.099999994,7749,WL,B,14.0
4,35.36999988555908,learn,24630.000114440918,Tue Feb 24 2026 12:24:16 GMT-0600 (Central Standard Time),577228.1999999881,A,clock,O,k,391,1,1582.0999999940395,575646.099999994,7749,WL,B,14.0
4,36.47000002861023,learn,23529.99997138977,Tue Feb 24 2026 12:24:16 GMT-0600 (Central Standard Time),578328.2999999821,A,clockenter,O,enter,1081,1,2682.199999988079,575646.099999994,7749,WL,B,14.0
4,39.30299997329712,learn,20697.00002670288,Tue Feb 24 2026 12:24:16 GMT-0600 (Central Standard Time),581160.7999999821,A,c,O,c,2822,1,2832.199999988079,578328.599999994,7749,WL,B,15.0
4,39.51900005340576,learn,20480.99994659424,Tue Feb 24 2026 12:24:16 GMT-0600 (Central Standard Time),581377.1999999881,A,ci,O,i,196,1,3048.5999999940395,578328.599999994,7749,WL,B,15.0
4,39.76900005340576,learn,20230.99994659424,Tue Feb 24 2026 12:24:16 GMT-0600 (Central Standard Time),581627.2999999821,A,cit,O,t,229,1,3298.699999988079,578328.599999994,7749,WL,B,15.0
4,40.60199999809265,learn,19398.00000190735,Tue Feb 24 2026 12:24:16 GMT-0600 (Central Standard Time),582460.099999994,A,city,O,y,826,1,4131.5,578328.599999994,7749,WL,B,15.0
4,41.46900010108948,learn,18530.999898910522,Tue Feb 24 2026 12:24:16 GMT-0600 (Central Standard Time),583326.599999994,A,cityw,O,w,857,1,4998.0,578328.599999994,7749,WL,B,15.0
4,41.6029999256134,learn,18397.000074386597,Tue Feb 24 2026 12:24:16 GMT-0600 (Central Standard Time),583461.099999994,A,citywo,O,o,128,1,5132.5,578328.599999994,7749,WL,B,15.0
4,41.734999895095825,learn,18265.000104904175,Tue Feb 24 2026 12:24:16 GMT-0600 (Central Standard Time),583593.1999999881,A,citywon,O,n,111,1,5264.5999999940395,578328.599999994,7749,WL,B,15.0
4,42.30200004577637,learn,17697.999954223633,Tue Feb 24 2026 12:24:16 GMT-0600 (Central Standard Time),584159.7999999821,A,citywo,O,backspace,548,1,5831.199999988079,578328.599999994,7749,WL,B,15.0
4,42.50200009346008,learn,17497.999906539917,Tue Feb 24 2026 12:24:16 GMT-0600 (Central Standard Time),584359.7999999821,A,cityw,O,backspace,189,1,6031.199999988079,578328.599999994,7749,WL,B,15.0
4,42.68499994277954,learn,17315.00005722046,Tue Feb 24 2026 12:24:16 GMT-0600 (Central Standard Time),584543.0,A,city,O,backspace,166,1,6214.4000000059605,578328.599999994,7749,WL,B,15.0
4,43.05200004577637,learn,16947.999954223633,Tue Feb 24 2026 12:24:16 GMT-0600 (Central Standard Time),584909.5,A,cityenter,O,enter,351,1,6580.9000000059605,578328.599999994,7749,WL,B,15.0
5,0.565000057220459,learn,60000.0,Tue Feb 24 2026 12:24:16 GMT-0600 (Central Standard Time),667400.6999999881,A,s,O,s,555,1,565.5,666835.1999999881,7749,WL,B,1.0
5,0.6150000095367432,learn,60000.0,Tue Feb 24 2026 12:24:16 GMT-0600 (Central Standard Time),667450.400000006,A,sd,O,d,36,1,615.2000000178814,666835.1999999881,7749,WL,B,1.0
5,2.0980000495910645,learn,60000.0,Tue Feb 24 2026 12:24:16 GMT-0600 (Central Standard Time),668933.1999999881,A,s,O,backspace,1476,1,2098.0,666835.1999999881,7749,WL,B,1.0
5,2.430999994277954,learn,60000.0,Tue Feb 24 2026 12:24:16 GMT-0600 (Central Standard Time),669266.400000006,A,st,O,t,312,1,2431.2000000178814,666835.1999999881,7749,WL,B,1.0
5,2.6480000019073486,learn,60000.0,Tue Feb 24 2026 12:24:16 GMT-0600 (Central Standard Time),669482.7999999821,A,str,O,r,211,1,2647.5999999940395,666835.1999999881,7749,WL,B,1.0
5,2.7990000247955322,learn,60000.0,Tue Feb 24 2026 12:24:16 GMT-0600 (Central Standard Time),669634.0,A,stre,O,e,147,1,2798.800000011921,666835.1999999881,7749,WL,B,1.0
5,2.9809999465942383,learn,60000.0,Tue Feb 24 2026 12:24:16 GMT-0600 (Central Standard Time),669816.5,A,stree,O,e,164,1,2981.300000011921,666835.1999999881,7749,WL,B,1.0
5,3.180999994277954,learn,60000.0,Tue Feb 24 2026 12:24:16 GMT-0600 (Central Standard Time),670016.099999994,A,street,O,t,189,1,3180.9000000059605,666835.1999999881,7749,WL,B,1.0
5,3.7809998989105225,learn,60000.0,Tue Feb 24 2026 12:24:16 GMT-0600 (Central Standard Time),670616.0,A,streetenter,O,enter,590,1,3780.800000011921,666835.1999999881,7749,WL,B,1.0
5,4.063999891281128,learn,60000.0,Tue Feb 24 2026 12:24:16 GMT-0600 (Central Standard Time),670899.0,A,g,O,g,278,1,282.7000000178814,670616.2999999821,7749,WL,B,2.0
5,4.2799999713897705,learn,60000.0,Tue Feb 24 2026 12:24:16 GMT-0600 (Central Standard Time),671115.7999999821,A,gr,O,r,210,1,499.5,670616.2999999821,7749,WL,B,2.0
5,4.496999979019165,learn,60000.0,Tue Feb 24 2026 12:24:16 GMT-0600 (Central Standard Time),671332.5,A,gra,O,a,202,1,716.2000000178814,670616.2999999821,7749,WL,B,2.0
5,4.730000019073486,learn,60000.0,Tue Feb 24 2026 12:24:16 GMT-0600 (Central Standard Time),671565.7999999821,A,gras,O,s,217,1,949.5,670616.2999999821,7749,WL,B,2.0
5,4.914000034332275,learn,60000.0,Tue Feb 24 2026 12:24:16 GMT-0600 (Central Standard Time),671749.099999994,A,grass,O,s,168,1,1132.800000011921,670616.2999999821,7749,WL,B,2.0
5,5.147000074386597,learn,60000.0,Tue Feb 24 2026 12:24:16 GMT-0600 (Central Standard Time),671982.2999999821,A,grassenter,O,enter,217,1,1366.0,670616.2999999821,7749,WL,B,2.0
5,5.546999931335449,learn,60000.0,Tue Feb 24 2026 12:24:16 GMT-0600 (Central Standard Time),672382.2999999821,A,d,O,d,383,1,399.69999998807907,671982.599999994,7749,WL,B,3.0
5,5.796999931335449,learn,60000.0,Tue Feb 24 2026 12:24:16 GMT-0600 (Central Standard Time),672632.0,A,dp,O,p,239,1,649.4000000059605,671982.599999994,7749,WL,B,3.0
5,5.980000019073486,learn,60000.0,Tue Feb 24 2026 12:24:16 GMT-0600 (Central Standard Time),672815.5,A,dpp,O,p,173,1,832.9000000059605,671982.599999994,7749,WL,B,3.0
5,6.730999946594238,learn,60000.0,Tue Feb 24 2026 12:24:16 GMT-0600 (Central Standard Time),673565.900000006,A,dp,O,backspace,742,1,1583.300000011921,671982.599999994,7749,WL,B,3.0
5,6.963000059127808,learn,60000.0,Tue Feb 24 2026 12:24:16 GMT-0600 (Central Standard Time),673798.5,A,d,O,backspace,224,1,1815.9000000059605,671982.599999994,7749,WL,B,3.0
5,7.729000091552734,learn,60000.0,Tue Feb 24 2026 12:24:16 GMT-0600 (Central Standard Time),674564.5,A,do,O,o,750,1,2581.9000000059605,671982.599999994,7749,WL,B,3.0
5,7.895999908447266,learn,60000.0,Tue Feb 24 2026 12:24:16 GMT-0600 (Central Standard Time),674731.2999999821,A,doo,O,o,161,1,2748.699999988079,671982.599999994,7749,WL,B,3.0
5,8.095999956130981,learn,60000.0,Tue Feb 24 2026 12:24:16 GMT-0600 (Central Standard Time),674931.5,A,door,O,r,186,1,2948.9000000059605,671982.599999994,7749,WL,B,3.0
5,8.595999956130981,learn,60000.0,Tue Feb 24 2026 12:24:16 GMT-0600 (Central Standard Time),675431.099999994,A,doorenter,O,enter,482,1,3448.5,671982.599999994,7749,WL,B,3.0
5,9.211999893188477,learn,60000.0,Tue Feb 24 2026 12:24:16 GMT-0600 (Central Standard Time),676047.6999999881,A,a,O,a,599,1,616.2999999821186,675431.400000006,7749,WL,B,4.0
5,9.428999900817871,learn,60000.0,Tue Feb 24 2026 12:24:16 GMT-0600 (Central Standard Time),676264.5,A,ar,O,r,207,1,833.0999999940395,675431.400000006,7749,WL,B,4.0
5,10.812000036239624,learn,60000.0,Tue Feb 24 2026 12:24:16 GMT-0600 (Central Standard Time),677647.2999999821,A,arm,O,m,1374,1,2215.899999976158,675431.400000006,7749,WL,B,4.0
5,11.494999885559082,learn,60000.0,Tue Feb 24 2026 12:24:16 GMT-0600 (Central Standard Time),678330.5,A,armenter,O,enter,662,1,2899.0999999940395,675431.400000006,7749,WL,B,4.0
5,11.744999885559082,learn,60000.0,Tue Feb 24 2026 12:24:16 GMT-0600 (Central Standard Time),678580.400000006,A,s,O,s,235,1,249.60000002384186,678330.7999999821,7749,WL,B,5.0
5,11.944999933242798,learn,60000.0,Tue Feb 24 2026 12:24:16 GMT-0600 (Central Standard Time),678780.099999994,A,st,O,t,193,1,449.30000001192093,678330.7999999821,7749,WL,B,5.0
5,12.144999980926514,learn,60000.0,Tue Feb 24 2026 12:24:16 GMT-0600 (Central Standard Time),678980.6999999881,A,sta,O,a,185,1,649.9000000059605,678330.7999999821,7749,WL,B,5.0
5,12.295000076293945,learn,60000.0,Tue Feb 24 2026 12:24:16 GMT-0600 (Central Standard Time),679129.900000006,A,star,O,r,137,1,799.1000000238419,678330.7999999821,7749,WL,B,5.0
5,12.878000020980835,learn,60000.0,Tue Feb 24 2026 12:24:16 GMT-0600 (Central Standard Time),679713.099999994,A,starenter,O,enter,572,1,1382.300000011921,678330.7999999821,7749,WL,B,5.0
5,13.128000020980835,learn,60000.0,Tue Feb 24 2026 12:24:16 GMT-0600 (Central Standard Time),679962.900000006,A,w,O,w,237,1,249.5,679713.400000006,7749,WL,B,6.0
5,13.628000020980835,learn,60000.0,Tue Feb 24 2026 12:24:16 GMT-0600 (Central Standard Time),680463.0,A,wo,O,o,482,1,749.5999999940395,679713.400000006,7749,WL,B,6.0
5,13.82800006866455,learn,60000.0,Tue Feb 24 2026 12:24:16 GMT-0600 (Central Standard Time),680662.900000006,A,wom,O,m,182,1,949.5,679713.400000006,7749,WL,B,6.0
5,14.344000101089478,learn,60000.0,Tue Feb 24 2026 12:24:16 GMT-0600 (Central Standard Time),681179.5,A,wo,O,backspace,503,1,1466.0999999940395,679713.400000006,7749,WL,B,6.0
5,14.510999917984009,learn,60000.0,Tue Feb 24 2026 12:24:16 GMT-0600 (Central Standard Time),681346.400000006,A,w,O,backspace,146,1,1633.0,679713.400000006,7749,WL,B,6.0
5,14.74399995803833,learn,60000.0,Tue Feb 24 2026 12:24:16 GMT-0600 (Central Standard Time),681579.2999999821,A,wo,O,o,227,1,1865.8999999761581,679713.400000006,7749,WL,B,6.0
5,14.91100001335144,learn,60000.0,Tue Feb 24 2026 12:24:16 GMT-0600 (Central Standard Time),681746.0,A,wom,O,m,154,1,2032.5999999940395,679713.400000006,7749,WL,B,6.0
5,15.160000085830688,learn,60000.0,Tue Feb 24 2026 12:24:16 GMT-0600 (Central Standard Time),681995.6999999881,A,womd,O,d,235,1,2282.2999999821186,679713.400000006,7749,WL,B,6.0
5,15.460000038146973,learn,60000.0,Tue Feb 24 2026 12:24:16 GMT-0600 (Central Standard Time),682295.6999999881,A,wom,O,backspace,282,1,2582.2999999821186,679713.400000006,7749,WL,B,6.0
5,15.627000093460083,learn,60000.0,Tue Feb 24 2026 12:24:16 GMT-0600 (Central Standard Time),682462.400000006,A,wo,O,backspace,150,1,2749.0,679713.400000006,7749,WL,B,6.0
5,15.744999885559082,learn,60000.0,Tue Feb 24 2026 12:24:16 GMT-0600 (Central Standard Time),682580.1999999881,A,w,O,backspace,103,1,2866.7999999821186,679713.400000006,7749,WL,B,6.0
5,16.377000093460083,learn,60000.0,Tue Feb 24 2026 12:24:16 GMT-0600 (Central Standard Time),683212.099999994,A,wi,O,i,625,1,3498.699999988079,679713.400000006,7749,WL,B,6.0
5,16.528000116348267,learn,60000.0,Tue Feb 24 2026 12:24:16 GMT-0600 (Central Standard Time),683363.0,A,win,O,n,130,1,3649.5999999940395,679713.400000006,7749,WL,B,6.0
5,16.710000038146973,learn,60000.0,Tue Feb 24 2026 12:24:16 GMT-0600 (Central Standard Time),683545.2999999821,A,wind,O,d,171,1,3831.899999976158,679713.400000006,7749,WL,B,6.0
5,16.877000093460083,learn,60000.0,Tue Feb 24 2026 12:24:16 GMT-0600 (Central Standard Time),683711.900000006,A,windo,O,o,148,1,3998.5,679713.400000006,7749,WL,B,6.0
5,17.026999950408936,learn,60000.0,Tue Feb 24 2026 12:24:16 GMT-0600 (Central Standard Time),683861.900000006,A,window,O,w,134,1,4148.5,679713.400000006,7749,WL,B,6.0
5,17.243000030517578,learn,60000.0,Tue Feb 24 2026 12:24:16 GMT-0600 (Central Standard Time),684078.5,A,windowenter,O,enter,200,1,4365.0999999940395,679713.400000006,7749,WL,B,6.0
5,17.493000030517578,learn,60000.0,Tue Feb 24 2026 12:24:16 GMT-0600 (Central Standard Time),684328.099999994,A,w,O,w,239,1,249.30000001192093,684078.7999999821,7749,WL,B,7.0
5,17.858999967575073,learn,60000.0,Tue Feb 24 2026 12:24:16 GMT-0600 (Central Standard Time),684694.099999994,A,wo,O,o,215,1,615.3000000119209,684078.7999999821,7749,WL,B,7.0
5,18.292999982833862,learn,60000.0,Tue Feb 24 2026 12:24:16 GMT-0600 (Central Standard Time),685128.099999994,A,w,O,backspace,414,1,1049.300000011921,684078.7999999821,7749,WL,B,7.0
5,19.158999919891357,learn,60000.0,Tue Feb 24 2026 12:24:16 GMT-0600 (Central Standard Time),685994.5,A,wi,O,i,847,1,1915.7000000178814,684078.7999999821,7749,WL,B,7.0
5,19.342000007629395,learn,60000.0,Tue Feb 24 2026 12:24:16 GMT-0600 (Central Standard Time),686177.7999999821,A,wif,O,f,163,1,2099.0,684078.7999999821,7749,WL,B,7.0
5,19.592000007629395,learn,60000.0,Tue Feb 24 2026 12:24:16 GMT-0600 (Central Standard Time),686427.7999999821,A,wife,O,e,236,1,2349.0,684078.7999999821,7749,WL,B,7.0
5,19.908999919891357,learn,60000.0,Tue Feb 24 2026 12:24:16 GMT-0600 (Central Standard Time),686744.5,A,wifeenter,O,enter,298,1,2665.7000000178814,684078.7999999821,7749,WL,B,7.0
5,20.125999927520752,learn,60000.0,Tue Feb 24 2026 12:24:16 GMT-0600 (Central Standard Time),686960.7999999821,A,c,O,c,205,1,216.0,686744.7999999821,7749,WL,B,8.0
5,20.325999975204468,learn,60000.0,Tue Feb 24 2026 12:24:16 GMT-0600 (Central Standard Time),687160.900000006,A,ci,O,i,180,1,416.10000002384186,686744.7999999821,7749,WL,B,8.0
5,20.625,learn,60000.0,Tue Feb 24 2026 12:24:16 GMT-0600 (Central Standard Time),687460.900000006,A,cit,O,t,293,1,716.1000000238419,686744.7999999821,7749,WL,B,8.0
5,20.941999912261963,learn,60000.0,Tue Feb 24 2026 12:24:16 GMT-0600 (Central Standard Time),687777.1999999881,A,city,O,y,305,1,1032.4000000059605,686744.7999999821,7749,WL,B,8.0
5,22.625,learn,60000.0,Tue Feb 24 2026 12:24:16 GMT-0600 (Central Standard Time),689460.5,A,cityenter,O,enter,1668,1,2715.7000000178814,686744.7999999821,7749,WL,B,8.0
5,23.591000080108643,learn,60000.0,Tue Feb 24 2026 12:24:16 GMT-0600 (Central Standard Time),690426.6999999881,A,p,O,p,945,1,965.9000000059605,689460.7999999821,7749,WL,B,9.0
5,23.874000072479248,learn,60000.0,Tue Feb 24 2026 12:24:16 GMT-0600 (Central Standard Time),690709.7999999821,A,pu,O,u,275,1,1249.0,689460.7999999821,7749,WL,B,9.0
5,23.990999937057495,learn,60000.0,Tue Feb 24 2026 12:24:16 GMT-0600 (Central Standard Time),690826.099999994,A,pup,O,p,112,1,1365.300000011921,689460.7999999821,7749,WL,B,9.0
5,24.257999897003174,learn,60000.0,Tue Feb 24 2026 12:24:16 GMT-0600 (Central Standard Time),691092.900000006,A,pupi,O,i,252,1,1632.1000000238419,689460.7999999821,7749,WL,B,9.0
5,24.54099988937378,learn,60000.0,Tue Feb 24 2026 12:24:16 GMT-0600 (Central Standard Time),691376.400000006,A,pupil,O,l,273,1,1915.6000000238419,689460.7999999821,7749,WL,B,9.0
5,25.391000032424927,learn,60000.0,Tue Feb 24 2026 12:24:16 GMT-0600 (Central Standard Time),692226.099999994,A,pupilenter,O,enter,837,1,2765.300000011921,689460.7999999821,7749,WL,B,9.0
5,26.874000072479248,learn,60000.0,Tue Feb 24 2026 12:24:16 GMT-0600 (Central Standard Time),693709.1999999881,A,s,O,s,1468,1,1482.7999999821186,692226.400000006,7749,WL,B,10.0
5,28.27300000190735,learn,60000.0,Tue Feb 24 2026 12:24:16 GMT-0600 (Central Standard Time),695108.599999994,A,sk,O,k,1392,1,2882.199999988079,692226.400000006,7749,WL,B,10.0
5,28.52300000190735,learn,60000.0,Tue Feb 24 2026 12:24:16 GMT-0600 (Central Standard Time),695358.400000006,A,ski,O,i,233,1,3132.0,692226.400000006,7749,WL,B,10.0
5,28.740000009536743,learn,60000.0,Tue Feb 24 2026 12:24:16 GMT-0600 (Central Standard Time),695574.900000006,A,skin,O,n,199,1,3348.5,692226.400000006,7749,WL,B,10.0
5,29.155999898910522,learn,60000.0,Tue Feb 24 2026 12:24:16 GMT-0600 (Central Standard Time),695991.400000006,A,skinenter,O,enter,406,1,3765.0,692226.400000006,7749,WL,B,10.0
5,29.83899998664856,learn,60000.0,Tue Feb 24 2026 12:24:16 GMT-0600 (Central Standard Time),696674.900000006,A,l,O,l,670,1,683.2000000178814,695991.6999999881,7749,WL,B,11.0
5,30.538000106811523,learn,60000.0,Tue Feb 24 2026 12:24:16 GMT-0600 (Central Standard Time),697373.7999999821,A,,O,backspace,681,1,1382.0999999940395,695991.6999999881,7749,WL,B,11.0
5,30.90499997138977,learn,60000.0,Tue Feb 24 2026 12:24:16 GMT-0600 (Central Standard Time),697740.6999999881,A,p,O,p,352,1,1749.0,695991.6999999881,7749,WL,B,11.0
5,31.138999938964844,learn,60000.0,Tue Feb 24 2026 12:24:16 GMT-0600 (Central Standard Time),697974.0,A,pi,O,i,217,1,1982.300000011921,695991.6999999881,7749,WL,B,11.0
5,31.32200002670288,learn,60000.0,Tue Feb 24 2026 12:24:16 GMT-0600 (Central Standard Time),698157.5,A,pip,O,p,175,1,2165.800000011921,695991.6999999881,7749,WL,B,11.0
5,31.638999938964844,learn,60000.0,Tue Feb 24 2026 12:24:16 GMT-0600 (Central Standard Time),698474.1999999881,A,pipe,O,e,312,1,2482.5,695991.6999999881,7749,WL,B,11.0
5,32.204999923706055,learn,60000.0,Tue Feb 24 2026 12:24:16 GMT-0600 (Central Standard Time),699040.5,A,pipeenter,O,enter,555,1,3048.800000011921,695991.6999999881,7749,WL,B,11.0
5,32.50500011444092,learn,60000.0,Tue Feb 24 2026 12:24:16 GMT-0600 (Central Standard Time),699340.6999999881,A,f,O,f,286,1,299.7999999821186,699040.900000006,7749,WL,B,12.0
5,32.65499997138977,learn,60000.0,Tue Feb 24 2026 12:24:16 GMT-0600 (Central Standard Time),699490.599999994,A,fi,O,i,145,1,449.69999998807907,699040.900000006,7749,WL,B,12.0
5,32.92300009727478,learn,60000.0,Tue Feb 24 2026 12:24:16 GMT-0600 (Central Standard Time),699758.0,A,fir,O,r,251,1,717.0999999940395,699040.900000006,7749,WL,B,12.0
5,33.23799991607666,learn,60000.0,Tue Feb 24 2026 12:24:16 GMT-0600 (Central Standard Time),700073.5,A,fire,O,e,295,1,1032.5999999940395,699040.900000006,7749,WL,B,12.0
5,33.520999908447266,learn,60000.0,Tue Feb 24 2026 12:24:16 GMT-0600 (Central Standard Time),700356.6999999881,A,fireenter,O,enter,277,1,1315.7999999821186,699040.900000006,7749,WL,B,12.0
5,33.78800010681152,learn,60000.0,Tue Feb 24 2026 12:24:16 GMT-0600 (Central Standard Time),700623.400000006,A,c,O,c,257,1,266.30000001192093,700357.099999994,7749,WL,B,13.0
5,34.32100009918213,learn,60000.0,Tue Feb 24 2026 12:24:16 GMT-0600 (Central Standard Time),701156.599999994,A,ca,O,a,526,1,799.5,700357.099999994,7749,WL,B,13.0
5,34.539000034332275,learn,60000.0,Tue Feb 24 2026 12:24:16 GMT-0600 (Central Standard Time),701374.5,A,cab,O,b,201,1,1017.4000000059605,700357.099999994,7749,WL,B,13.0
5,34.770999908447266,learn,60000.0,Tue Feb 24 2026 12:24:16 GMT-0600 (Central Standard Time),701606.2999999821,A,cabi,O,i,223,1,1249.199999988079,700357.099999994,7749,WL,B,13.0
5,35.00399994850159,learn,60000.0,Tue Feb 24 2026 12:24:16 GMT-0600 (Central Standard Time),701839.7999999821,A,cabin,O,n,224,1,1482.699999988079,700357.099999994,7749,WL,B,13.0
5,35.6710000038147,learn,60000.0,Tue Feb 24 2026 12:24:16 GMT-0600 (Central Standard Time),702506.0,A,cabinenter,O,enter,654,1,2148.9000000059605,700357.099999994,7749,WL,B,13.0
5,36.019999980926514,learn,60000.0,Tue Feb 24 2026 12:24:16 GMT-0600 (Central Standard Time),702855.599999994,A,l,O,l,331,1,349.30000001192093,702506.2999999821,7749,WL,B,14.0
5,36.23699998855591,learn,60000.0,Tue Feb 24 2026 12:24:16 GMT-0600 (Central Standard Time),703072.1999999881,A,la,O,a,196,1,565.9000000059605,702506.2999999821,7749,WL,B,14.0
5,36.48699998855591,learn,60000.0,Tue Feb 24 2026 12:24:16 GMT-0600 (Central Standard Time),703322.400000006,A,lak,O,k,229,1,816.1000000238419,702506.2999999821,7749,WL,B,14.0
5,36.72000002861023,learn,60000.0,Tue Feb 24 2026 12:24:16 GMT-0600 (Central Standard Time),703555.400000006,A,lake,O,e,227,1,1049.1000000238419,702506.2999999821,7749,WL,B,14.0
5,36.97000002861023,learn,60000.0,Tue Feb 24 2026 12:24:16 GMT-0600 (Central Standard Time),703805.900000006,A,lakeenter,O,enter,242,1,1299.6000000238419,702506.2999999821,7749,WL,B,14.0
5,37.269999980926514,learn,60000.0,Tue Feb 24 2026 12:24:16 GMT-0600 (Central Standard Time),704105.400000006,A,c,O,c,288,1,299.2000000178814,703806.1999999881,7749,WL,B,15.0
5,37.50399994850159,learn,60000.0,Tue Feb 24 2026 12:24:16 GMT-0600 (Central Standard Time),704339.099999994,A,cl,O,l,219,1,532.9000000059605,703806.1999999881,7749,WL,B,15.0
5,37.9210000038147,learn,60000.0,Tue Feb 24 2026 12:24:16 GMT-0600 (Central Standard Time),704756.5,A,clo,O,o,403,1,950.3000000119209,703806.1999999881,7749,WL,B,15.0
5,38.23699998855591,learn,60000.0,Tue Feb 24 2026 12:24:16 GMT-0600 (Central Standard Time),705072.0,A,cloc,O,c,305,1,1265.800000011921,703806.1999999881,7749,WL,B,15.0
5,38.55299997329712,learn,60000.0,Tue Feb 24 2026 12:24:16 GMT-0600 (Central Standard Time),705388.5,A,clock,O,k,302,1,1582.300000011921,703806.1999999881,7749,WL,B,15.0
5,39.43600010871887,learn,60000.0,Tue Feb 24 2026 12:24:16 GMT-0600 (Central Standard Time),706271.400000006,A,clockenter,O,enter,873,1,2465.2000000178814,703806.1999999881,7749,WL,B,15.0
6,0.5829999446868896,distr,59417.00005531311,Tue Feb 24 2026 12:24:16 GMT-0600 (Central Standard Time),798592.900000006,B,b,O,b,564,1,582.9000000059605,798010.0,7749,WL,B,1.0
6,0.8159999847412109,distr,59184.00001525879,Tue Feb 24 2026 12:24:16 GMT-0600 (Central Standard Time),798826.0,B,ba,O,a,226,1,816.0,798010.0,7749,WL,B,1.0
6,1.933000087738037,distr,58066.99991226196,Tue Feb 24 2026 12:24:16 GMT-0600 (Central Standard Time),799942.2999999821,B,bab,O,b,1108,1,1932.2999999821186,798010.0,7749,WL,B,1.0
6,2.249000072479248,distr,57750.99992752075,Tue Feb 24 2026 12:24:16 GMT-0600 (Central Standard Time),800258.900000006,B,baby,O,y,312,1,2248.9000000059605,798010.0,7749,WL,B,1.0
6,3.065000057220459,distr,56934.99994277954,Tue Feb 24 2026 12:24:16 GMT-0600 (Central Standard Time),801075.1999999881,B,babyenter,O,enter,803,1,3065.199999988079,798010.0,7749,WL,B,1.0
6,3.5320000648498535,distr,56467.99993515015,Tue Feb 24 2026 12:24:16 GMT-0600 (Central Standard Time),801541.6999999881,B,p,O,p,459,1,466.09999999403954,801075.599999994,7749,WL,B,2.0
6,3.7820000648498535,distr,56217.99993515015,Tue Feb 24 2026 12:24:16 GMT-0600 (Central Standard Time),801791.6999999881,B,pa,O,a,241,1,716.0999999940395,801075.599999994,7749,WL,B,2.0
6,4.049000024795532,distr,55950.99997520447,Tue Feb 24 2026 12:24:16 GMT-0600 (Central Standard Time),802058.400000006,B,pal,O,l,246,1,982.8000000119209,801075.599999994,7749,WL,B,2.0
6,4.418999910354614,distr,55581.000089645386,Tue Feb 24 2026 12:24:16 GMT-0600 (Central Standard Time),802428.6999999881,B,palc,O,c,366,1,1353.0999999940395,801075.599999994,7749,WL,B,2.0
6,4.98199987411499,distr,55018.00012588501,Tue Feb 24 2026 12:24:16 GMT-0600 (Central Standard Time),802991.400000006,B,pal,O,backspace,553,1,1915.800000011921,801075.599999994,7749,WL,B,2.0
6,5.181999921798706,distr,54818.000078201294,Tue Feb 24 2026 12:24:16 GMT-0600 (Central Standard Time),803191.2999999821,B,pala,O,a,190,1,2115.699999988079,801075.599999994,7749,WL,B,2.0
6,5.431999921798706,distr,54568.000078201294,Tue Feb 24 2026 12:24:16 GMT-0600 (Central Standard Time),803441.400000006,B,palac,O,c,238,1,2365.800000011921,801075.599999994,7749,WL,B,2.0
6,5.914999961853027,distr,54085.00003814697,Tue Feb 24 2026 12:24:16 GMT-0600 (Central Standard Time),803924.400000006,B,palace,O,e,468,1,2848.800000011921,801075.599999994,7749,WL,B,2.0
6,6.797999858856201,distr,53202.0001411438,Tue Feb 24 2026 12:24:16 GMT-0600 (Central Standard Time),804807.5,B,palaceenter,O,enter,873,1,3731.9000000059605,801075.599999994,7749,WL,B,2.0
6,7.263999938964844,distr,52736.000061035156,Tue Feb 24 2026 12:24:16 GMT-0600 (Central Standard Time),805274.0,B,a,O,a,446,1,466.2000000178814,804807.7999999821,7749,WL,B,3.0
6,7.496999979019165,distr,52503.000020980835,Tue Feb 24 2026 12:24:16 GMT-0600 (Central Standard Time),805507.099999994,B,ar,O,r,227,1,699.3000000119209,804807.7999999821,7749,WL,B,3.0
6,8.19700002670288,distr,51802.99997329712,Tue Feb 24 2026 12:24:16 GMT-0600 (Central Standard Time),806206.900000006,B,arm,O,m,682,1,1399.1000000238419,804807.7999999821,7749,WL,B,3.0
6,8.647000074386597,distr,51352.9999256134,Tue Feb 24 2026 12:24:16 GMT-0600 (Central Standard Time),806657.099999994,B,armu,O,u,439,1,1849.300000011921,804807.7999999821,7749,WL,B,3.0
6,9.730000019073486,distr,50269.999980926514,Tue Feb 24 2026 12:24:16 GMT-0600 (Central Standard Time),807739.7999999821,B,arm,O,backspace,1069,1,2932.0,804807.7999999821,7749,WL,B,3.0
6,10.312999963760376,distr,49687.000036239624,Tue Feb 24 2026 12:24:16 GMT-0600 (Central Standard Time),808323.0,B,army,O,y,570,1,3515.2000000178814,804807.7999999821,7749,WL,B,3.0
6,11.145999908447266,distr,48854.000091552734,Tue Feb 24 2026 12:24:16 GMT-0600 (Central Standard Time),809155.900000006,B,armyenter,O,enter,827,1,4348.100000023842,804807.7999999821,7749,WL,B,3.0
6,11.729000091552734,distr,48270.999908447266,Tue Feb 24 2026 12:24:16 GMT-0600 (Central Standard Time),809739.0,B,c,O,c,578,1,582.9000000059605,809156.099999994,7749,WL,B,4.0
6,11.928999900817871,distr,48071.00009918213,Tue Feb 24 2026 12:24:16 GMT-0600 (Central Standard Time),809939.0,B,co,O,o,196,1,782.9000000059605,809156.099999994,7749,WL,B,4.0
6,12.11299991607666,distr,47887.00008392334,Tue Feb 24 2026 12:24:16 GMT-0600 (Central Standard Time),810122.6999999881,B,coi,O,i,171,1,966.5999999940395,809156.099999994,7749,WL,B,4.0
6,12.279000043869019,distr,47720.99995613098,Tue Feb 24 2026 12:24:16 GMT-0600 (Central Standard Time),810289.099999994,B,coin,O,n,147,1,1133.0,809156.099999994,7749,WL,B,4.0
6,13.128999948501587,distr,46871.00005149841,Tue Feb 24 2026 12:24:16 GMT-0600 (Central Standard Time),811138.5,B,coinenter,O,enter,844,1,1982.4000000059605,809156.099999994,7749,WL,B,4.0
6,14.84500002861023,distr,45154.99997138977,Tue Feb 24 2026 12:24:16 GMT-0600 (Central Standard Time),812854.900000006,B,r,O,r,1708,1,1716.1000000238419,811138.7999999821,7749,WL,B,5.0
6,15.01200008392334,distr,44987.99991607666,Tue Feb 24 2026 12:24:16 GMT-0600 (Central Standard Time),813021.5,B,ri,O,i,151,1,1882.7000000178814,811138.7999999821,7749,WL,B,5.0
6,15.244999885559082,distr,44755.00011444092,Tue Feb 24 2026 12:24:16 GMT-0600 (Central Standard Time),813254.599999994,B,ric,O,c,216,1,2115.800000011921,811138.7999999821,7749,WL,B,5.0
6,15.494999885559082,distr,44505.00011444092,Tue Feb 24 2026 12:24:16 GMT-0600 (Central Standard Time),813504.900000006,B,ricl,O,l,231,1,2366.100000023842,811138.7999999821,7749,WL,B,5.0
6,16.027999877929688,distr,43972.00012207031,Tue Feb 24 2026 12:24:16 GMT-0600 (Central Standard Time),814038.0,B,ric,O,backspace,525,1,2899.2000000178814,811138.7999999821,7749,WL,B,5.0
6,16.244999885559082,distr,43755.00011444092,Tue Feb 24 2026 12:24:16 GMT-0600 (Central Standard Time),814254.6999999881,B,ri,O,backspace,208,1,3115.9000000059605,811138.7999999821,7749,WL,B,5.0
6,16.42799997329712,distr,43572.00002670288,Tue Feb 24 2026 12:24:16 GMT-0600 (Central Standard Time),814437.7999999821,B,r,O,backspace,175,1,3299.0,811138.7999999821,7749,WL,B,5.0
6,17.26099991798401,distr,42739.00008201599,Tue Feb 24 2026 12:24:16 GMT-0600 (Central Standard Time),815270.900000006,B,ro,O,o,816,1,4132.100000023842,811138.7999999821,7749,WL,B,5.0
6,17.628000020980835,distr,42371.999979019165,Tue Feb 24 2026 12:24:16 GMT-0600 (Central Standard Time),815637.400000006,B,roc,O,c,359,1,4498.600000023842,811138.7999999821,7749,WL,B,5.0
6,17.82800006866455,distr,42171.99993133545,Tue Feb 24 2026 12:24:16 GMT-0600 (Central Standard Time),815837.400000006,B,rock,O,k,184,1,4698.600000023842,811138.7999999821,7749,WL,B,5.0
6,19.177000045776367,distr,40822.99995422363,Tue Feb 24 2026 12:24:16 GMT-0600 (Central Standard Time),817186.400000006,B,rockenter,O,enter,1344,1,6047.600000023842,811138.7999999821,7749,WL,B,5.0
6,22.875999927520752,distr,37124.00007247925,Tue Feb 24 2026 12:24:16 GMT-0600 (Central Standard Time),820885.6999999881,B,f,O,f,3683,1,3699.0,817186.6999999881,7749,WL,B,6.0
6,24.14199995994568,distr,35858.00004005432,Tue Feb 24 2026 12:24:16 GMT-0600 (Central Standard Time),822152.1999999881,B,,O,backspace,1248,1,4965.5,817186.6999999881,7749,WL,B,6.0
6,24.29200005531311,distr,35707.99994468689,Tue Feb 24 2026 12:24:16 GMT-0600 (Central Standard Time),822302.099999994,B,a,O,a,143,1,5115.4000000059605,817186.6999999881,7749,WL,B,6.0
6,24.491999864578247,distr,35508.00013542175,Tue Feb 24 2026 12:24:16 GMT-0600 (Central Standard Time),822502.0,B,ar,O,r,192,1,5315.300000011921,817186.6999999881,7749,WL,B,6.0
6,24.875999927520752,distr,35124.00007247925,Tue Feb 24 2026 12:24:16 GMT-0600 (Central Standard Time),822885.2999999821,B,arm,O,m,377,1,5698.5999999940395,817186.6999999881,7749,WL,B,6.0
6,25.22499990463257,distr,34775.00009536743,Tue Feb 24 2026 12:24:16 GMT-0600 (Central Standard Time),823234.900000006,B,army,O,y,344,1,6048.200000017881,817186.6999999881,7749,WL,B,6.0
6,26.075000047683716,distr,33924.999952316284,Tue Feb 24 2026 12:24:16 GMT-0600 (Central Standard Time),824084.599999994,B,armyenter,O,enter,836,1,6897.9000000059605,817186.6999999881,7749,WL,B,6.0
6,26.54200005531311,distr,33457.99994468689,Tue Feb 24 2026 12:24:16 GMT-0600 (Central Standard Time),824551.2999999821,B,f,O,f,449,1,466.5,824084.7999999821,7749,WL,B,7.0
6,26.79200005531311,distr,33207.99994468689,Tue Feb 24 2026 12:24:16 GMT-0600 (Central Standard Time),824801.400000006,B,fr,O,r,230,1,716.6000000238419,824084.7999999821,7749,WL,B,7.0
6,27.240999937057495,distr,32759.000062942505,Tue Feb 24 2026 12:24:16 GMT-0600 (Central Standard Time),825251.1999999881,B,fri,O,i,437,1,1166.4000000059605,824084.7999999821,7749,WL,B,7.0
6,27.44099998474121,distr,32559.00001525879,Tue Feb 24 2026 12:24:16 GMT-0600 (Central Standard Time),825451.0,B,frie,O,e,196,1,1366.2000000178814,824084.7999999821,7749,WL,B,7.0
6,27.641000032424927,distr,32358.999967575073,Tue Feb 24 2026 12:24:16 GMT-0600 (Central Standard Time),825651.0,B,frien,O,n,178,1,1566.2000000178814,824084.7999999821,7749,WL,B,7.0
6,28.16700005531311,distr,31832.99994468689,Tue Feb 24 2026 12:24:16 GMT-0600 (Central Standard Time),826176.900000006,B,friend,O,d,521,1,2092.100000023842,824084.7999999821,7749,WL,B,7.0
6,29.841000080108643,distr,30158.999919891357,Tue Feb 24 2026 12:24:16 GMT-0600 (Central Standard Time),827850.400000006,B,friendenter,O,enter,1652,1,3765.600000023842,824084.7999999821,7749,WL,B,7.0
6,30.85699987411499,distr,29143.00012588501,Tue Feb 24 2026 12:24:16 GMT-0600 (Central Standard Time),828866.400000006,B,p,O,p,1011,1,1015.8000000119209,827850.599999994,7749,WL,B,8.0
6,31.072999954223633,distr,28927.000045776367,Tue Feb 24 2026 12:24:16 GMT-0600 (Central Standard Time),829082.7999999821,B,pa,O,a,212,1,1232.199999988079,827850.599999994,7749,WL,B,8.0
6,31.33999991416931,distr,28660.00008583069,Tue Feb 24 2026 12:24:16 GMT-0600 (Central Standard Time),829349.900000006,B,pal,O,l,251,1,1499.300000011921,827850.599999994,7749,WL,B,8.0
6,31.956000089645386,distr,28043.999910354614,Tue Feb 24 2026 12:24:16 GMT-0600 (Central Standard Time),829966.1999999881,B,pala,O,a,609,1,2115.5999999940395,827850.599999994,7749,WL,B,8.0
6,32.2739999294281,distr,27726.0000705719,Tue Feb 24 2026 12:24:16 GMT-0600 (Central Standard Time),830283.6999999881,B,palac,O,c,311,1,2433.0999999940395,827850.599999994,7749,WL,B,8.0
6,32.65599989891052,distr,27344.000101089478,Tue Feb 24 2026 12:24:16 GMT-0600 (Central Standard Time),830666.1999999881,B,palace,O,e,362,1,2815.5999999940395,827850.599999994,7749,WL,B,8.0
6,34.50499987602234,distr,25495.00012397766,Tue Feb 24 2026 12:24:16 GMT-0600 (Central Standard Time),832515.099999994,B,palaceenter,O,enter,1843,1,4664.5,827850.599999994,7749,WL,B,8.0
6,38.520999908447266,distr,21479.000091552734,Tue Feb 24 2026 12:24:16 GMT-0600 (Central Standard Time),836530.6999999881,B,v,O,v,4002,1,4015.4000000059605,832515.2999999821,7749,WL,B,9.0
6,38.73799991607666,distr,21262.00008392334,Tue Feb 24 2026 12:24:16 GMT-0600 (Central Standard Time),836747.2999999821,B,vi,O,i,203,1,4232.0,832515.2999999821,7749,WL,B,9.0
6,39.00399994850159,distr,20996.000051498413,Tue Feb 24 2026 12:24:16 GMT-0600 (Central Standard Time),837014.1999999881,B,vil,O,l,251,1,4498.9000000059605,832515.2999999821,7749,WL,B,9.0
6,39.15400004386902,distr,20845.99995613098,Tue Feb 24 2026 12:24:16 GMT-0600 (Central Standard Time),837164.099999994,B,vill,O,l,143,1,4648.800000011921,832515.2999999821,7749,WL,B,9.0
6,39.30399990081787,distr,20696.00009918213,Tue Feb 24 2026 12:24:16 GMT-0600 (Central Standard Time),837314.0,B,villa,O,a,129,1,4798.700000017881,832515.2999999821,7749,WL,B,9.0
6,39.5699999332428,distr,20430.000066757202,Tue Feb 24 2026 12:24:16 GMT-0600 (Central Standard Time),837580.1999999881,B,villag,O,g,261,1,5064.9000000059605,832515.2999999821,7749,WL,B,9.0
6,40.08699989318848,distr,19913.000106811523,Tue Feb 24 2026 12:24:16 GMT-0600 (Central Standard Time),838097.2999999821,B,village,O,e,497,1,5582.0,832515.2999999821,7749,WL,B,9.0
6,41.503000020980835,distr,18496.999979019165,Tue Feb 24 2026 12:24:16 GMT-0600 (Central Standard Time),839513.2999999821,B,villageenter,O,enter,1405,1,6998.0,832515.2999999821,7749,WL,B,9.0
6,44.335999965667725,distr,15664.000034332275,Tue Feb 24 2026 12:24:16 GMT-0600 (Central Standard Time),842345.900000006,B,b,O,b,2812,1,2832.300000011921,839513.599999994,7749,WL,B,10.0
6,44.53600001335144,distr,15463.99998664856,Tue Feb 24 2026 12:24:16 GMT-0600 (Central Standard Time),842545.599999994,B,ba,O,a,179,1,3032.0,839513.599999994,7749,WL,B,10.0
6,44.651999950408936,distr,15348.000049591064,Tue Feb 24 2026 12:24:16 GMT-0600 (Central Standard Time),842662.400000006,B,bab,O,b,108,1,3148.800000011921,839513.599999994,7749,WL,B,10.0
6,45.734999895095825,distr,14265.000104904175,Tue Feb 24 2026 12:24:16 GMT-0600 (Central Standard Time),843745.400000006,B,baby,O,y,1072,1,4231.800000011921,839513.599999994,7749,WL,B,10.0
6,47.16799998283386,distr,12832.000017166138,Tue Feb 24 2026 12:24:16 GMT-0600 (Central Standard Time),845178.1999999881,B,babyenter,O,enter,1412,1,5664.5999999940395,839513.599999994,7749,WL,B,10.0
6,56.49900007247925,distr,3500.999927520752,Tue Feb 24 2026 12:24:16 GMT-0600 (Central Standard Time),854508.599999994,B,s,O,s,9315,1,9330.09999999404,845178.5,7749,WL,B,11.0
6,56.681999921798706,distr,3318.000078201294,Tue Feb 24 2026 12:24:16 GMT-0600 (Central Standard Time),854691.6999999881,B,st,O,t,169,1,9513.199999988079,845178.5,7749,WL,B,11.0
6,57.04900002479553,distr,2950.999975204468,Tue Feb 24 2026 12:24:16 GMT-0600 (Central Standard Time),855058.5,B,ste,O,e,353,1,9880.0,845178.5,7749,WL,B,11.0
6,57.33200001716614,distr,2667.9999828338623,Tue Feb 24 2026 12:24:16 GMT-0600 (Central Standard Time),855341.6999999881,B,stea,O,a,275,1,10163.199999988079,845178.5,7749,WL,B,11.0
6,57.7979998588562,distr,2202.000141143799,Tue Feb 24 2026 12:24:16 GMT-0600 (Central Standard Time),855808.1999999881,B,steam,O,m,447,1,10629.699999988079,845178.5,7749,WL,B,11.0
6,58.81399989128113,distr,1186.000108718872,Tue Feb 24 2026 12:24:16 GMT-0600 (Central Standard Time),856824.400000006,B,steamenter,O,enter,1006,1,11645.90000000596,845178.5,7749,WL,B,11.0
6,60.013999938964844,distr,-13.99993896484375,Tue Feb 24 2026 12:24:16 GMT-0600 (Central Standard Time),858024.400000006,B,None,O,None,1195,1,1199.800000011921,856824.599999994,7749,WL,B,12.0
7,0.7339999675750732,immed,59266.00003242493,Tue Feb 24 2026 12:24:16 GMT-0600 (Central Standard Time),877684.6999999881,A,s,O,s,719,1,733.2999999821186,876951.400000006,7749,WL,B,1.0
7,1.0,immed,59000.0,Tue Feb 24 2026 12:24:16 GMT-0600 (Central Standard Time),877951.400000006,A,st,O,t,256,1,1000.0,876951.400000006,7749,WL,B,1.0
7,1.2170000076293945,immed,58782.999992370605,Tue Feb 24 2026 12:24:16 GMT-0600 (Central Standard Time),878167.900000006,A,str,O,r,198,1,1216.5,876951.400000006,7749,WL,B,1.0
7,1.4000000953674316,immed,58599.99990463257,Tue Feb 24 2026 12:24:16 GMT-0600 (Central Standard Time),878351.099999994,A,stre,O,e,174,1,1399.699999988079,876951.400000006,7749,WL,B,1.0
7,1.5999999046325684,immed,58400.00009536743,Tue Feb 24 2026 12:24:16 GMT-0600 (Central Standard Time),878551.0,A,stree,O,e,191,1,1599.5999999940395,876951.400000006,7749,WL,B,1.0
7,1.816999912261963,immed,58183.00008773804,Tue Feb 24 2026 12:24:16 GMT-0600 (Central Standard Time),878767.7999999821,A,street,O,t,207,1,1816.3999999761581,876951.400000006,7749,WL,B,1.0
7,2.2829999923706055,immed,57717.000007629395,Tue Feb 24 2026 12:24:16 GMT-0600 (Central Standard Time),879234.099999994,A,streetenter,O,enter,453,1,2282.699999988079,876951.400000006,7749,WL,B,1.0
7,2.549999952316284,immed,57450.000047683716,Tue Feb 24 2026 12:24:16 GMT-0600 (Central Standard Time),879500.599999994,A,g,O,g,259,1,266.09999999403954,879234.5,7749,WL,B,2.0
7,2.8499999046325684,immed,57150.00009536743,Tue Feb 24 2026 12:24:16 GMT-0600 (Central Standard Time),879800.6999999881,A,gr,O,r,281,1,566.1999999880791,879234.5,7749,WL,B,2.0
7,3.065999984741211,immed,56934.00001525879,Tue Feb 24 2026 12:24:16 GMT-0600 (Central Standard Time),880017.5,A,gra,O,a,206,1,783.0,879234.5,7749,WL,B,2.0
7,3.3329999446868896,immed,56667.00005531311,Tue Feb 24 2026 12:24:16 GMT-0600 (Central Standard Time),880283.7999999821,A,gras,O,s,252,1,1049.2999999821186,879234.5,7749,WL,B,2.0
7,3.5329999923706055,immed,56467.000007629395,Tue Feb 24 2026 12:24:16 GMT-0600 (Central Standard Time),880484.0,A,grass,O,s,186,1,1249.5,879234.5,7749,WL,B,2.0
7,3.934000015258789,immed,56065.99998474121,Tue Feb 24 2026 12:24:16 GMT-0600 (Central Standard Time),880884.6999999881,A,grassenter,O,enter,394,1,1650.199999988079,879234.5,7749,WL,B,2.0
7,5.016000032424927,immed,54983.99996757507,Tue Feb 24 2026 12:24:16 GMT-0600 (Central Standard Time),881966.6999999881,A,d,O,d,1065,1,1081.7999999821186,880884.900000006,7749,WL,B,3.0
7,5.249000072479248,immed,54750.99992752075,Tue Feb 24 2026 12:24:16 GMT-0600 (Central Standard Time),882200.0,A,do,O,o,223,1,1315.0999999940395,880884.900000006,7749,WL,B,3.0
7,5.415999889373779,immed,54584.00011062622,Tue Feb 24 2026 12:24:16 GMT-0600 (Central Standard Time),882366.5,A,doo,O,o,158,1,1481.5999999940395,880884.900000006,7749,WL,B,3.0
7,5.848999977111816,immed,54151.00002288818,Tue Feb 24 2026 12:24:16 GMT-0600 (Central Standard Time),882799.599999994,A,door,O,r,415,1,1914.699999988079,880884.900000006,7749,WL,B,3.0
7,6.164999961853027,immed,53835.00003814697,Tue Feb 24 2026 12:24:16 GMT-0600 (Central Standard Time),883116.2999999821,A,doorenter,O,enter,311,1,2231.399999976158,880884.900000006,7749,WL,B,3.0
7,6.515000104904175,immed,53484.999895095825,Tue Feb 24 2026 12:24:16 GMT-0600 (Central Standard Time),883465.900000006,A,a,O,a,345,1,349.2000000178814,883116.6999999881,7749,WL,B,4.0
7,6.749000072479248,immed,53250.99992752075,Tue Feb 24 2026 12:24:16 GMT-0600 (Central Standard Time),883700.2999999821,A,ar,O,r,220,1,583.5999999940395,883116.6999999881,7749,WL,B,4.0
7,6.898999929428101,immed,53101.0000705719,Tue Feb 24 2026 12:24:16 GMT-0600 (Central Standard Time),883849.5,A,arr,O,r,137,1,732.8000000119209,883116.6999999881,7749,WL,B,4.0
7,7.73199987411499,immed,52268.00012588501,Tue Feb 24 2026 12:24:16 GMT-0600 (Central Standard Time),884682.599999994,A,arrm,O,m,820,1,1565.9000000059605,883116.6999999881,7749,WL,B,4.0
7,8.230999946594238,immed,51769.00005340576,Tue Feb 24 2026 12:24:16 GMT-0600 (Central Standard Time),885182.2999999821,A,arrmenter,O,enter,483,1,2065.5999999940395,883116.6999999881,7749,WL,B,4.0
7,8.497999906539917,immed,51502.00009346008,Tue Feb 24 2026 12:24:16 GMT-0600 (Central Standard Time),885448.900000006,A,w,O,w,247,1,266.2000000178814,885182.6999999881,7749,WL,B,5.0
7,8.664000034332275,immed,51335.999965667725,Tue Feb 24 2026 12:24:16 GMT-0600 (Central Standard Time),885615.400000006,A,wi,O,i,149,1,432.7000000178814,885182.6999999881,7749,WL,B,5.0
7,8.865000009536743,immed,51134.99999046326,Tue Feb 24 2026 12:24:16 GMT-0600 (Central Standard Time),885815.5,A,wif,O,f,191,1,632.8000000119209,885182.6999999881,7749,WL,B,5.0
7,9.030999898910522,immed,50969.00010108948,Tue Feb 24 2026 12:24:16 GMT-0600 (Central Standard Time),885981.900000006,A,wife,O,e,150,1,799.2000000178814,885182.6999999881,7749,WL,B,5.0
7,9.565000057220459,immed,50434.99994277954,Tue Feb 24 2026 12:24:16 GMT-0600 (Central Standard Time),886516.2999999821,A,wifeenter,O,enter,528,1,1333.5999999940395,885182.6999999881,7749,WL,B,5.0
7,10.13100004196167,immed,49868.99995803833,Tue Feb 24 2026 12:24:16 GMT-0600 (Central Standard Time),887081.599999994,A,w,O,w,553,1,565.0,886516.599999994,7749,WL,B,6.0
7,10.513999938964844,immed,49486.000061035156,Tue Feb 24 2026 12:24:16 GMT-0600 (Central Standard Time),887465.099999994,A,wo,O,o,364,1,948.5,886516.599999994,7749,WL,B,6.0
7,10.664000034332275,immed,49335.999965667725,Tue Feb 24 2026 12:24:16 GMT-0600 (Central Standard Time),887614.900000006,A,won,O,n,132,1,1098.300000011921,886516.599999994,7749,WL,B,6.0
