acc_sum,block,block_c,condition,correct,correct_response,datetime,endtime,flanker,jitter,project,response,response_test_buffer_response,response_test_target_response,response_time,response_time_test_buffer_response,response_time_test_target_response,row_sel,session_number,start_end,starttime,subject_id,target,task,task_vers,time_test_buffer,time_test_buffer_response,time_test_constants,time_test_flanker,time_test_jitter,time_test_logger,time_test_target,time_test_target_response,time_test_variables,trial
0,prac,1,con,0,m,Thu Dec 11 2025 16:04:33 GMT-0600 (Central Standard Time),78637.70000004768,remote,1000,O,z,,,920,,,7,,3213.600000023842,75424.10000002384,7717,remote,AF,B,,,,,,,,,,1
1,prac,1,con,1,m,Thu Dec 11 2025 16:04:33 GMT-0600 (Central Standard Time),81518.5,bell,1000,O,m,,,567,,,3,,2873.699999988079,78644.80000001192,7717,bell,AF,B,,,,,,,,,,2
2,prac,1,con,1,m,Thu Dec 11 2025 16:04:33 GMT-0600 (Central Standard Time),84084.60000002384,jacket,800,O,m,,,468,,,5,,2561.5,81523.10000002384,7717,jacket,AF,B,,,,,,,,,,3
3,prac,1,inc,1,z,Thu Dec 11 2025 16:04:33 GMT-0600 (Central Standard Time),87099.70000004768,napkin,1100,O,z,,,604,,,12,,3009.5,84090.20000004768,7717,friend,AF,B,,,,,,,,,,4
4,prac,1,inc,1,z,Thu Dec 11 2025 16:04:33 GMT-0600 (Central Standard Time),90049.10000002384,rock,900,O,z,,,732,,,10,,2942.0,87107.10000002384,7717,kind,AF,B,,,,,,,,,,5
5,prac,1,inc,1,m,Thu Dec 11 2025 16:04:33 GMT-0600 (Central Standard Time),93047.80000001192,brutal,1100,O,m,,,599,,,8,,2993.300000011921,90054.5,7717,window,AF,B,,,,,,,,,,6
6,prac,1,con,1,z,Thu Dec 11 2025 16:04:33 GMT-0600 (Central Standard Time),95614.0,elated,800,O,z,,,452,,,9,,2559.699999988079,93054.30000001192,7717,elated,AF,B,,,,,,,,,,7
7,prac,1,inc,1,z,Thu Dec 11 2025 16:04:33 GMT-0600 (Central Standard Time),98896.40000003576,window,1100,O,z,,,874,,,16,,3276.800000011921,95619.60000002384,7717,temper,AF,B,,,,,,,,,,8
8,prac,1,inc,1,m,Thu Dec 11 2025 16:04:33 GMT-0600 (Central Standard Time),101612.40000003576,elated,900,O,m,,,511,,,6,,2709.199999988079,98903.20000004768,7717,napkin,AF,B,,,,,,,,,,9
9,prac,1,inc,1,z,Thu Dec 11 2025 16:04:33 GMT-0600 (Central Standard Time),104328.5,film,900,O,z,,,508,,,14,,2708.599999964237,101619.90000003576,7717,hate,AF,B,,,,,,,,,,10
10,prac,1,inc,1,m,Thu Dec 11 2025 16:04:33 GMT-0600 (Central Standard Time),107293.30000001192,hate,1100,O,m,,,552,,,4,,2958.5,104334.80000001192,7717,film,AF,B,,,,,,,,,,11
11,prac,1,con,1,z,Thu Dec 11 2025 16:04:33 GMT-0600 (Central Standard Time),110209.5,brutal,800,O,z,,,808,,,13,,2911.099999964237,107298.40000003576,7717,brutal,AF,B,,,,,,,,,,12
12,prac,1,con,1,z,Thu Dec 11 2025 16:04:33 GMT-0600 (Central Standard Time),113040.80000001192,rage,1000,O,z,,,522,,,15,,2825.800000011921,110215.0,7717,rage,AF,B,,,,,,,,,,13
13,prac,1,inc,1,m,Thu Dec 11 2025 16:04:33 GMT-0600 (Central Standard Time),115924.0,kind,900,O,m,,,678,,,2,,2876.5,113047.5,7717,rock,AF,B,,,,,,,,,,14
14,prac,1,con,1,m,Thu Dec 11 2025 16:04:33 GMT-0600 (Central Standard Time),118455.40000003576,step,800,O,m,,,427,,,1,,2524.100000023842,115931.30000001192,7717,step,AF,B,,,,,,,,,,15
15,prac,1,con,1,z,Thu Dec 11 2025 16:04:33 GMT-0600 (Central Standard Time),121389.90000003576,love,1000,O,z,,,646,,,11,,2930.300000011921,118459.60000002384,7717,love,AF,B,,,,,,,,,,16
1,test,1,inc,1,m,Thu Dec 11 2025 16:04:33 GMT-0600 (Central Standard Time),133204.40000003576,hate,1100,O,m,m,None,665,451.0,214.0,96,,2297.0,130907.40000003576,7717,film,AF,B,128492,128492,126646,127759,126647,128943,128277,128277,128943,1
2,test,1,con,1,m,Thu Dec 11 2025 16:04:33 GMT-0600 (Central Standard Time),135051.30000001192,window,900,O,m,m,None,422,207.0,215.0,122,,1842.0999999642372,133209.20000004768,7717,window,AF,B,130574,130574,128948,129857,128949,130790,130359,130359,130790,2
3,test,1,con,1,z,Thu Dec 11 2025 16:04:33 GMT-0600 (Central Standard Time),137050.5,friend,1000,O,z,z,None,466,266.0,200.0,27,,1993.8999999761581,135056.60000002384,7717,friend,AF,B,132523,132523,130796,131807,130796,132790,132323,132323,132790,3
4,test,1,con,1,m,Thu Dec 11 2025 16:04:33 GMT-0600 (Central Standard Time),138833.5,step,800,O,m,m,None,464,249.0,215.0,65,,1777.5,137056.0,7717,step,AF,B,134323,134323,132795,133606,132795,134573,134107,134107,134573,4
5,test,1,inc,1,z,Thu Dec 11 2025 16:04:33 GMT-0600 (Central Standard Time),140982.70000004768,remote,1000,O,z,z,None,612,412.0,200.0,63,,2144.400000035763,138838.30000001192,7717,temper,AF,B,136305,136305,134577,135591,134578,136722,136105,136105,136722,5
6,test,1,inc,1,m,Thu Dec 11 2025 16:04:33 GMT-0600 (Central Standard Time),143015.0,elated,800,O,m,m,None,685,486.0,199.0,117,,2026.699999988079,140988.30000001192,7717,remote,AF,B,138255,138255,136727,137539,136728,138754,138055,138055,138754,6
7,test,1,con,1,z,Thu Dec 11 2025 16:04:33 GMT-0600 (Central Standard Time),145149.5,hate,1100,O,z,z,None,500,301.0,199.0,44,,2127.899999976158,143021.60000002384,7717,hate,AF,B,140587,140587,138761,139870,138761,140889,140387,140387,140889,7
8,test,1,inc,1,z,Thu Dec 11 2025 16:04:33 GMT-0600 (Central Standard Time),147081.70000004768,rock,900,O,z,z,None,508,309.0,199.0,46,,1926.300000011921,145155.40000003576,7717,hate,AF,B,142504,142504,140894,141802,140895,142821,142304,142304,142821,8
9,test,1,con,1,z,Thu Dec 11 2025 16:04:33 GMT-0600 (Central Standard Time),149146.60000002384,love,1100,O,z,z,None,425,226.0,199.0,20,,2060.199999988079,147086.40000003576,7717,love,AF,B,144653,144653,142825,143936,142826,144886,144454,144454,144886,9
10,test,1,inc,1,z,Thu Dec 11 2025 16:04:33 GMT-0600 (Central Standard Time),151245.30000001192,jacket,800,O,z,z,None,758,544.0,214.0,29,,2094.199999988079,149151.10000002384,7717,friend,AF,B,146436,146436,144890,145703,144891,146984,146221,146221,146984,10
11,test,1,inc,1,m,Thu Dec 11 2025 16:04:33 GMT-0600 (Central Standard Time),153012.5,rage,800,O,m,m,None,430,213.0,217.0,85,,1763.7999999523163,151248.70000004768,7717,bell,AF,B,148536,148536,146988,147802,146988,148752,148319,148319,148752,11
12,test,1,con,1,m,Thu Dec 11 2025 16:04:33 GMT-0600 (Central Standard Time),155028.0,film,1100,O,m,m,None,380,179.0,201.0,92,,2009.0,153019.0,7717,film,AF,B,150586,150586,148758,149868,148758,150767,150384,150384,150767,12
13,test,1,con,1,m,Thu Dec 11 2025 16:04:33 GMT-0600 (Central Standard Time),156978.40000003576,film,1000,O,m,m,None,423,208.0,215.0,91,,1945.800000011921,155032.60000002384,7717,film,AF,B,152501,152501,150772,151783,150772,152718,152285,152285,152717,13
14,test,1,inc,1,z,Thu Dec 11 2025 16:04:33 GMT-0600 (Central Standard Time),159092.30000001192,film,1100,O,z,z,None,479,278.0,201.0,24,,2110.399999976158,156981.90000003576,7717,love,AF,B,154550,154550,152721,153834,152721,154831,154349,154349,154831,14
15,test,1,con,1,z,Thu Dec 11 2025 16:04:33 GMT-0600 (Central Standard Time),161025.80000001192,rage,800,O,z,z,None,590,391.0,199.0,49,,1929.8999999761581,159095.90000003576,7717,rage,AF,B,156366,156366,154835,155649,154835,156765,156167,156167,156765,15
16,test,1,inc,1,m,Thu Dec 11 2025 16:04:33 GMT-0600 (Central Standard Time),163108.80000001192,kind,900,O,m,m,None,631,416.0,215.0,78,,2078.800000011921,161030.0,7717,rock,AF,B,158415,158415,156769,157682,156769,158848,158200,158200,158848,16
17,test,1,con,1,z,Thu Dec 11 2025 16:04:33 GMT-0600 (Central Standard Time),165074.20000004768,friend,800,O,z,z,None,633,432.0,201.0,25,,1960.0,163114.20000004768,7717,friend,AF,B,160381,160381,158853,159664,158854,160813,160180,160180,160813,17
18,test,1,inc,1,m,Thu Dec 11 2025 16:04:33 GMT-0600 (Central Standard Time),166957.30000001192,elated,800,O,m,m,None,545,330.0,215.0,109,,1879.8999999761581,165077.40000003576,7717,napkin,AF,B,162364,162364,160816,161632,160817,162696,162148,162148,162696,18
19,test,1,con,1,z,Thu Dec 11 2025 16:04:33 GMT-0600 (Central Standard Time),168741.0,hate,800,O,z,z,None,438,238.0,200.0,41,,1777.8999999761581,166963.10000002384,7717,hate,AF,B,164231,164231,162702,163514,162702,164480,164030,164030,164480,19
20,test,1,con,1,z,Thu Dec 11 2025 16:04:33 GMT-0600 (Central Standard Time),171087.90000003576,temper,1000,O,z,z,None,806,607.0,199.0,59,,2341.600000023842,168746.30000001192,7717,temper,AF,B,166213,166213,164485,165496,164486,166827,166013,166013,166827,20
21,test,1,inc,1,m,Thu Dec 11 2025 16:04:33 GMT-0600 (Central Standard Time),173122.20000004768,elated,800,O,m,m,None,687,474.0,213.0,101,,2031.0,171091.20000004768,7717,jacket,AF,B,168379,168379,166830,167644,166830,168861,168165,168165,168861,21
22,test,1,con,1,m,Thu Dec 11 2025 16:04:33 GMT-0600 (Central Standard Time),175091.80000001192,napkin,900,O,m,m,None,540,341.0,199.0,106,,1964.0999999642372,173127.70000004768,7717,napkin,AF,B,170479,170479,168867,169778,168867,170831,170279,170279,170831,22
23,test,1,con,1,z,Thu Dec 11 2025 16:04:33 GMT-0600 (Central Standard Time),177003.80000001192,love,800,O,z,z,None,581,381.0,200.0,17,,1907.699999988079,175096.10000002384,7717,love,AF,B,172360,172360,170835,171644,170836,172743,172159,172159,172743,23
24,test,1,inc,1,z,Thu Dec 11 2025 16:04:33 GMT-0600 (Central Standard Time),179070.20000004768,rock,900,O,z,z,None,628,428.0,200.0,14,,2063.2000000476837,177007.0,7717,kind,AF,B,174377,174377,172746,173661,172746,174809,174176,174176,174809,24
25,test,1,con,1,z,Thu Dec 11 2025 16:04:33 GMT-0600 (Central Standard Time),180902.80000001192,elated,800,O,z,z,None,482,269.0,213.0,1,,1828.800000011921,179074.0,7717,elated,AF,B,176359,176359,174813,175626,174813,176642,176145,176145,176642,25
26,test,1,con,1,z,Thu Dec 11 2025 16:04:33 GMT-0600 (Central Standard Time),183018.70000004768,elated,1100,O,z,z,None,472,271.0,201.0,4,,2111.2000000476837,180907.5,7717,elated,AF,B,178477,178477,176647,177759,176647,178758,178276,178276,178758,26
27,test,1,con,1,m,Thu Dec 11 2025 16:04:33 GMT-0600 (Central Standard Time),185351.0,jacket,1100,O,m,m,None,685,486.0,199.0,100,,2329.099999964237,183021.90000003576,7717,jacket,AF,B,180591,180591,178761,179875,178761,181090,180392,180392,181090,27
28,test,1,inc,1,m,Thu Dec 11 2025 16:04:33 GMT-0600 (Central Standard Time),187433.90000003576,kind,900,O,m,m,None,665,466.0,199.0,70,,2078.600000023842,185355.30000001192,7717,step,AF,B,182707,182707,181094,182006,181095,183173,182508,182508,183173,28
29,test,1,inc,1,z,Thu Dec 11 2025 16:04:33 GMT-0600 (Central Standard Time),189850.20000004768,window,1100,O,z,z,None,775,568.0,207.0,40,,2412.7000000476837,187437.5,7717,brutal,AF,B,185005,185005,183177,184289,183177,185589,184798,184798,185589,29
30,test,1,con,1,m,Thu Dec 11 2025 16:04:33 GMT-0600 (Central Standard Time),191833.80000001192,window,800,O,m,m,None,643,442.0,201.0,121,,1979.3999999761581,189854.40000003576,7717,window,AF,B,187123,187123,185593,186409,185594,187573,186922,186922,187573,30
31,test,1,con,1,z,Thu Dec 11 2025 16:04:33 GMT-0600 (Central Standard Time),194065.90000003576,brutal,900,O,z,z,None,790,574.0,216.0,34,,2229.100000023842,191836.80000001192,7717,brutal,AF,B,189223,189223,187576,188490,187576,189805,189006,189006,189805,31
32,test,1,con,1,z,Thu Dec 11 2025 16:04:33 GMT-0600 (Central Standard Time),195947.80000001192,brutal,800,O,z,z,None,540,339.0,201.0,33,,1878.199999988079,194069.60000002384,7717,brutal,AF,B,191340,191340,189809,190623,189809,191687,191139,191139,191687,32
33,test,1,inc,1,m,Thu Dec 11 2025 16:04:33 GMT-0600 (Central Standard Time),198047.5,temper,1000,O,m,m,None,566,352.0,214.0,111,,2096.199999988079,195951.30000001192,7717,napkin,AF,B,193420,193420,191690,192704,191691,193787,193206,193206,193786,33
34,test,1,inc,1,m,Thu Dec 11 2025 16:04:33 GMT-0600 (Central Standard Time),200047.10000002384,brutal,900,O,m,m,None,553,354.0,199.0,102,,1994.199999988079,198052.90000003576,7717,jacket,AF,B,195418,195418,193792,194704,193792,195786,195219,195219,195786,34
35,test,1,inc,1,z,Thu Dec 11 2025 16:04:33 GMT-0600 (Central Standard Time),202195.20000004768,bell,1000,O,z,z,None,605,405.0,200.0,23,,2144.100000023842,200051.10000002384,7717,love,AF,B,197519,197519,195790,196802,195790,197934,197319,197319,197934,35
36,test,1,inc,1,z,Thu Dec 11 2025 16:04:33 GMT-0600 (Central Standard Time),204978.90000003576,film,1100,O,z,z,None,1139,940.0,199.0,16,,2779.199999988079,202199.70000004768,7717,kind,AF,B,199769,199769,197939,199052,197939,200718,199570,199570,200718,36
37,test,1,inc,1,z,Thu Dec 11 2025 16:04:33 GMT-0600 (Central Standard Time),206962.70000004768,jacket,800,O,z,z,None,635,436.0,199.0,61,,1980.6000000238419,204982.10000002384,7717,temper,AF,B,202250,202250,200721,201534,200721,202702,202051,202051,202702,37
38,test,1,inc,1,m,Thu Dec 11 2025 16:04:33 GMT-0600 (Central Standard Time),208962.30000001192,kind,900,O,m,m,None,558,357.0,201.0,86,,1994.199999988079,206968.10000002384,7717,bell,AF,B,204336,204336,202707,203618,202708,204701,204134,204134,204701,38
39,test,1,inc,1,z,Thu Dec 11 2025 16:04:33 GMT-0600 (Central Standard Time),211025.80000001192,film,1100,O,z,z,None,437,223.0,214.0,56,,2059.0,208966.80000001192,7717,rage,AF,B,206533,206533,204706,205816,204706,206765,206319,206319,206765,39
40,test,1,con,1,m,Thu Dec 11 2025 16:04:33 GMT-0600 (Central Standard Time),213124.90000003576,rock,1000,O,m,m,None,565,354.0,211.0,75,,2096.300000011921,211028.60000002384,7717,rock,AF,B,208498,208498,206768,207784,206768,208864,208287,208287,208864,40
41,test,1,inc,1,m,Thu Dec 11 2025 16:04:33 GMT-0600 (Central Standard Time),215490.80000001192,temper,1000,O,m,m,None,838,637.0,201.0,119,,2362.899999976158,213127.90000003576,7717,remote,AF,B,210584,210584,208867,209881,208867,211230,210383,210383,211230,41
42,test,1,con,1,m,Thu Dec 11 2025 16:04:33 GMT-0600 (Central Standard Time),217476.20000004768,remote,900,O,m,m,None,550,351.0,199.0,114,,1980.5,215495.70000004768,7717,remote,AF,B,212863,212863,211235,212149,211235,213215,212664,212664,213215,42
43,test,1,inc,1,z,Thu Dec 11 2025 16:04:33 GMT-0600 (Central Standard Time),219374.60000002384,jacket,800,O,z,z,None,552,352.0,200.0,5,,1893.8999999761581,217480.70000004768,7717,elated,AF,B,214748,214748,213220,214031,213220,215114,214547,214547,215113,43
44,test,1,inc,1,z,Thu Dec 11 2025 16:04:33 GMT-0600 (Central Standard Time),221190.0,step,800,O,z,z,None,494,295.0,199.0,13,,1809.8999999761581,219380.10000002384,7717,kind,AF,B,216630,216630,215119,215929,215119,216929,216431,216431,216929,44
45,test,1,con,1,z,Thu Dec 11 2025 16:04:33 GMT-0600 (Central Standard Time),223173.5,rage,1000,O,z,z,None,436,221.0,215.0,51,,1980.699999988079,221192.80000001192,7717,rage,AF,B,218679,218679,216932,217947,216932,218913,218464,218464,218912,45
46,test,1,inc,1,z,Thu Dec 11 2025 16:04:33 GMT-0600 (Central Standard Time),224956.40000003576,step,800,O,z,z,None,438,239.0,199.0,45,,1779.1000000238419,223177.30000001192,7717,hate,AF,B,220445,220445,218916,219730,218917,220695,220245,220245,220695,46
47,test,1,con,1,m,Thu Dec 11 2025 16:04:33 GMT-0600 (Central Standard Time),226921.90000003576,jacket,800,O,m,m,None,624,424.0,200.0,97,,1961.5,224960.40000003576,7717,jacket,AF,B,222229,222229,220699,221512,220700,222661,222028,222028,222661,47
48,test,1,inc,1,m,Thu Dec 11 2025 16:04:33 GMT-0600 (Central Standard Time),229205.30000001192,friend,1100,O,m,m,None,631,432.0,199.0,120,,2279.199999988079,226926.10000002384,7717,remote,AF,B,224495,224495,222665,223779,222665,224944,224295,224295,224944,48
49,test,1,con,1,z,Thu Dec 11 2025 16:04:33 GMT-0600 (Central Standard Time),231536.80000001192,friend,1100,O,z,z,None,690,478.0,212.0,28,,2326.800000011921,229210.0,7717,friend,AF,B,226793,226793,224949,226061,224949,227276,226580,226580,227276,49
50,test,1,inc,1,z,Thu Dec 11 2025 16:04:33 GMT-0600 (Central Standard Time),233619.60000002384,window,1100,O,z,z,None,463,248.0,215.0,32,,2079.5,231540.10000002384,7717,friend,AF,B,229110,229110,227279,228392,227279,229359,228895,228895,229359,50
51,test,1,inc,1,m,Thu Dec 11 2025 16:04:33 GMT-0600 (Central Standard Time),235885.20000004768,hate,1100,O,m,m,None,628,429.0,199.0,80,,2261.300000011921,233623.90000003576,7717,rock,AF,B,231191,231191,229363,230476,229363,231624,230992,230992,231624,51
52,test,1,inc,1,m,Thu Dec 11 2025 16:04:33 GMT-0600 (Central Standard Time),238084.5,friend,1100,O,m,m,None,553,338.0,215.0,112,,2195.199999988079,235889.30000001192,7717,napkin,AF,B,233474,233475,231628,232741,231629,233824,233259,233259,233824,52
53,test,1,con,1,m,Thu Dec 11 2025 16:04:33 GMT-0600 (Central Standard Time),240102.80000001192,rock,900,O,m,m,None,571,372.0,199.0,74,,2011.699999988079,238091.10000002384,7717,rock,AF,B,235457,235457,233830,234742,233831,235842,235257,235257,235842,53
54,test,1,inc,1,m,Thu Dec 11 2025 16:04:33 GMT-0600 (Central Standard Time),242016.90000003576,brutal,900,O,m,m,None,475,276.0,199.0,126,,1906.0,240110.90000003576,7717,window,AF,B,237473,237473,235850,236757,235850,237756,237273,237273,237756,54
55,test,1,con,1,m,Thu Dec 11 2025 16:04:33 GMT-0600 (Central Standard Time),244034.20000004768,step,1000,O,m,m,None,483,284.0,199.0,67,,2009.2000000476837,242025.0,7717,step,AF,B,239489,239489,237764,238774,237764,239773,239289,239289,239773,55
56,test,1,inc,1,z,Thu Dec 11 2025 16:04:33 GMT-0600 (Central Standard Time),246349.10000002384,remote,1000,O,z,z,None,780,580.0,200.0,39,,2308.199999988079,244040.90000003576,7717,brutal,AF,B,241505,241505,239780,240790,239780,242088,241305,241305,242088,56
57,test,1,inc,1,m,Thu Dec 11 2025 16:04:33 GMT-0600 (Central Standard Time),248264.80000001192,rage,800,O,m,m,None,567,367.0,200.0,77,,1910.8999999761581,246353.90000003576,7717,rock,AF,B,243622,243622,242093,242905,242093,244004,243421,243421,244004,57
58,test,1,con,1,z,Thu Dec 11 2025 16:04:33 GMT-0600 (Central Standard Time),250198.10000002384,kind,900,O,z,z,None,488,288.0,200.0,10,,1927.300000011921,248270.80000001192,7717,kind,AF,B,245637,245637,244010,244920,244010,245937,245437,245437,245937,58
59,test,1,inc,1,m,Thu Dec 11 2025 16:04:33 GMT-0600 (Central Standard Time),252114.70000004768,elated,800,O,m,m,None,583,384.0,199.0,125,,1909.5,250205.20000004768,7717,window,AF,B,247453,247453,245944,246753,245944,247854,247254,247254,247854,59
60,test,1,inc,1,z,Thu Dec 11 2025 16:04:33 GMT-0600 (Central Standard Time),254379.5,window,1100,O,z,z,None,630,430.0,200.0,64,,2259.5,252120.0,7717,temper,AF,B,249687,249687,247859,248970,247859,250119,249487,249487,250118,60
61,test,1,inc,1,m,Thu Dec 11 2025 16:04:33 GMT-0600 (Central Standard Time),256497.5,love,1000,O,m,m,None,569,369.0,200.0,95,,2111.599999964237,254385.90000003576,7717,film,AF,B,251852,251852,250125,251135,250125,252237,251652,251652,252237,61
62,test,1,inc,1,z,Thu Dec 11 2025 16:04:33 GMT-0600 (Central Standard Time),258594.5,film,1100,O,z,z,None,464,264.0,200.0,48,,2088.5,256506.0,7717,hate,AF,B,254069,254069,252245,253353,252245,254334,253869,253869,254334,62
63,test,1,inc,1,z,Thu Dec 11 2025 16:04:33 GMT-0600 (Central Standard Time),260560.80000001192,bell,1000,O,z,z,None,431,218.0,213.0,55,,1959.8999999761581,258600.90000003576,7717,rage,AF,B,256067,256067,254340,255350,254340,256300,255853,255853,256300,63
64,test,1,con,1,z,Thu Dec 11 2025 16:04:33 GMT-0600 (Central Standard Time),262694.3000000119,elated,1000,O,z,z,None,596,396.0,200.0,3,,2126.699999988079,260567.60000002384,7717,elated,AF,B,258033,258033,256307,257318,256307,258433,257833,257833,258433,64
65,test,1,inc,1,z,Thu Dec 11 2025 16:04:33 GMT-0600 (Central Standard Time),264459.5,step,800,O,z,z,None,430,231.0,199.0,21,,1760.699999988079,262698.8000000119,7717,love,AF,B,259966,259966,258438,259249,258438,260199,259766,259766,260199,65
66,test,1,con,1,z,Thu Dec 11 2025 16:04:33 GMT-0600 (Central Standard Time),266592.10000002384,brutal,1100,O,z,z,None,485,284.0,201.0,36,,2123.5,264468.60000002384,7717,brutal,AF,B,262032,262032,260208,261317,260208,262331,261831,261831,262331,66
67,test,1,con,1,z,Thu Dec 11 2025 16:04:33 GMT-0600 (Central Standard Time),268375.2000000477,temper,800,O,z,z,None,460,261.0,199.0,57,,1780.5,266594.7000000477,7717,temper,AF,B,263848,263848,262334,263147,262334,264114,263648,263648,264114,67
68,test,1,con,1,z,Thu Dec 11 2025 16:04:33 GMT-0600 (Central Standard Time),270808.0,kind,1100,O,z,z,None,792,593.0,199.0,12,,2428.599999964237,268379.40000003576,7717,kind,AF,B,265948,265948,264118,265231,264119,266547,265748,265748,266547,68
68,test,1,con,0,m,Thu Dec 11 2025 16:04:33 GMT-0600 (Central Standard Time),272891.10000002384,remote,1100,O,z,z,None,449,249.0,200.0,116,,2079.399999976158,270811.7000000477,7717,remote,AF,B,268381,268381,266551,267664,266551,268630,268180,268180,268630,69
69,test,1,con,1,z,Thu Dec 11 2025 16:04:33 GMT-0600 (Central Standard Time),274974.5,rage,1100,O,z,z,None,446,247.0,199.0,52,,2077.399999976158,272897.10000002384,7717,rage,AF,B,270462,270462,268636,269748,268636,270714,270262,270262,270714,70
70,test,1,con,1,m,Thu Dec 11 2025 16:04:33 GMT-0600 (Central Standard Time),277155.90000003576,window,1000,O,m,m,None,648,449.0,199.0,123,,2178.5,274977.40000003576,7717,window,AF,B,272446,272446,270716,271728,270717,272895,272245,272246,272895,71
71,test,1,inc,1,z,Thu Dec 11 2025 16:04:33 GMT-0600 (Central Standard Time),279272.10000002384,bell,1000,O,z,z,None,577,377.0,200.0,15,,2113.100000023842,277159.0,7717,kind,AF,B,274628,274628,272898,273911,272898,275011,274428,274428,275011,72
72,test,1,inc,1,m,Thu Dec 11 2025 16:04:33 GMT-0600 (Central Standard Time),281372.0,rage,800,O,m,m,None,758,558.0,200.0,69,,2096.199999988079,279275.8000000119,7717,step,AF,B,276544,276544,275015,275828,275015,277111,276344,276344,277111,73
73,test,1,inc,1,z,Thu Dec 11 2025 16:04:33 GMT-0600 (Central Standard Time),283270.7000000477,jacket,800,O,z,z,None,561,359.0,202.0,37,,1894.0,281376.7000000477,7717,brutal,AF,B,278646,278646,277116,277927,277116,279010,278443,278443,279010,74
74,test,1,inc,1,z,Thu Dec 11 2025 16:04:33 GMT-0600 (Central Standard Time),285403.90000003576,rock,900,O,z,z,None,697,494.0,203.0,54,,2129.800000011921,283274.10000002384,7717,rage,AF,B,280646,280646,279013,279926,279013,281143,280443,280443,281143,75
75,test,1,con,1,m,Thu Dec 11 2025 16:04:33 GMT-0600 (Central Standard Time),287569.10000002384,remote,800,O,m,m,None,825,626.0,199.0,113,,2161.800000011921,285407.3000000119,7717,remote,AF,B,282675,282675,281146,281959,281147,283308,282476,282476,283308,76
76,test,1,con,1,z,Thu Dec 11 2025 16:04:33 GMT-0600 (Central Standard Time),289634.7000000477,hate,900,O,z,z,None,631,430.0,201.0,42,,2060.7000000476837,287574.0,7717,hate,AF,B,284943,284943,283313,284225,283313,285374,284741,284741,285374,77
77,test,1,con,1,m,Thu Dec 11 2025 16:04:33 GMT-0600 (Central Standard Time),291901.5,bell,1000,O,m,m,None,721,521.0,200.0,83,,2260.699999988079,289640.8000000119,7717,bell,AF,B,287108,287108,285380,286391,285380,287641,286908,286908,287641,78
78,test,1,con,1,z,Thu Dec 11 2025 16:04:33 GMT-0600 (Central Standard Time),294100.5,elated,900,O,z,z,None,754,555.0,199.0,2,,2194.2999999523163,291906.2000000477,7717,elated,AF,B,289274,289274,287645,288557,287645,289840,289074,289074,289839,79
79,test,1,con,1,z,Thu Dec 11 2025 16:04:33 GMT-0600 (Central Standard Time),296116.5,kind,800,O,z,z,None,679,480.0,199.0,9,,2010.5999999642372,294105.90000003576,7717,kind,AF,B,291373,291373,289845,290656,289845,291856,291173,291173,291856,80
80,test,1,inc,1,z,Thu Dec 11 2025 16:04:33 GMT-0600 (Central Standard Time),298149.0,bell,1000,O,z,z,None,498,298.0,200.0,47,,2027.5999999642372,296121.40000003576,7717,hate,AF,B,293590,293590,291860,292875,291861,293888,293389,293389,293888,81
80,test,1,con,0,m,Thu Dec 11 2025 16:04:33 GMT-0600 (Central Standard Time),300098.8000000119,bell,900,O,z,z,None,515,316.0,199.0,82,,1945.300000011921,298153.5,7717,bell,AF,B,295522,295522,293892,294805,293893,295838,295323,295323,295838,82
81,test,1,inc,1,z,Thu Dec 11 2025 16:04:33 GMT-0600 (Central Standard Time),302280.60000002384,window,1100,O,z,z,None,543,342.0,201.0,8,,2178.0,300102.60000002384,7717,elated,AF,B,297671,297671,295842,296957,295842,298020,297470,297470,298020,83
82,test,1,con,1,z,Thu Dec 11 2025 16:04:33 GMT-0600 (Central Standard Time),304479.3000000119,temper,900,O,z,z,None,749,549.0,200.0,58,,2195.099999964237,302284.2000000477,7717,temper,AF,B,299655,299655,298023,298936,298023,300218,299454,299454,300218,84
83,test,1,con,1,m,Thu Dec 11 2025 16:04:33 GMT-0600 (Central Standard Time),306313.5,rock,800,O,m,m,None,492,277.0,215.0,73,,1830.8999999761581,304482.60000002384,7717,rock,AF,B,301769,301769,300222,301037,300222,302053,301554,301554,302053,85
84,test,1,con,1,m,Thu Dec 11 2025 16:04:33 GMT-0600 (Central Standard Time),308411.7000000477,film,900,O,m,m,None,655,455.0,200.0,90,,2095.300000011921,306316.40000003576,7717,film,AF,B,303686,303686,302055,302974,302056,304151,303486,303486,304151,86
85,test,1,con,1,m,Thu Dec 11 2025 16:04:33 GMT-0600 (Central Standard Time),310428.3000000119,jacket,1000,O,m,m,None,496,296.0,200.0,99,,2012.3999999761581,308415.90000003576,7717,jacket,AF,B,305869,305869,304155,305168,304155,306167,305669,305669,306167,87
86,test,1,con,1,z,Thu Dec 11 2025 16:04:33 GMT-0600 (Central Standard Time),312629.3000000119,kind,1000,O,z,z,None,657,456.0,201.0,11,,2195.800000011921,310433.5,7717,kind,AF,B,307901,307901,306173,307184,306173,308368,307700,307700,308368,88
87,test,1,con,1,m,Thu Dec 11 2025 16:04:33 GMT-0600 (Central Standard Time),314794.7000000477,napkin,1100,O,m,m,None,533,333.0,200.0,108,,2161.800000011921,312632.90000003576,7717,napkin,AF,B,310200,310200,308372,309484,308372,310534,310000,310000,310534,89
88,test,1,inc,1,z,Thu Dec 11 2025 16:04:33 GMT-0600 (Central Standard Time),316877.5,napkin,900,O,z,z,None,654,455.0,199.0,62,,2077.7999999523163,314799.7000000477,7717,temper,AF,B,312150,312150,310539,311449,310539,312617,311950,311950,312616,90
89,test,1,inc,1,z,Thu Dec 11 2025 16:04:33 GMT-0600 (Central Standard Time),319142.8000000119,remote,1000,O,z,z,None,727,528.0,199.0,7,,2262.5,316880.3000000119,7717,elated,AF,B,314349,314349,312619,313634,312620,314882,314149,314149,314882,91
90,test,1,inc,1,m,Thu Dec 11 2025 16:04:33 GMT-0600 (Central Standard Time),321225.3000000119,brutal,900,O,m,m,None,642,443.0,199.0,110,,2079.399999976158,319145.90000003576,7717,napkin,AF,B,316514,316514,314885,315799,314885,316964,316315,316315,316964,92
91,test,1,inc,1,z,Thu Dec 11 2025 16:04:33 GMT-0600 (Central Standard Time),323341.0,napkin,900,O,z,z,None,672,470.0,202.0,6,,2112.2999999523163,321228.7000000477,7717,elated,AF,B,318599,318599,316968,317881,316968,319080,318397,318397,319080,93
92,test,1,inc,1,m,Thu Dec 11 2025 16:04:33 GMT-0600 (Central Standard Time),325657.60000002384,hate,1100,O,m,m,None,683,482.0,201.0,72,,2312.5,323345.10000002384,7717,step,AF,B,320914,320914,319084,320197,319084,321397,320713,320713,321397,94
93,test,1,inc,1,m,Thu Dec 11 2025 16:04:33 GMT-0600 (Central Standard Time),327739.3000000119,love,1000,O,m,m,None,548,347.0,201.0,71,,2077.800000011921,325661.5,7717,step,AF,B,323131,323131,321401,322414,321401,323478,322929,322929,323478,95
94,test,1,inc,1,m,Thu Dec 11 2025 16:04:33 GMT-0600 (Central Standard Time),329971.8000000119,brutal,900,O,m,m,None,788,588.0,200.0,118,,2228.899999976158,327742.90000003576,7717,remote,AF,B,325112,325112,323482,324396,323482,325711,324911,324911,325711,96
95,test,1,inc,1,m,Thu Dec 11 2025 16:04:33 GMT-0600 (Central Standard Time),332071.40000003576,love,1000,O,m,m,None,561,360.0,201.0,79,,2095.699999988079,329975.7000000477,7717,rock,AF,B,327445,327445,325715,326727,325715,327810,327243,327244,327810,97
96,test,1,con,1,m,Thu Dec 11 2025 16:04:33 GMT-0600 (Central Standard Time),334321.0,rock,1100,O,m,m,None,610,409.0,201.0,76,,2245.2999999523163,332075.7000000477,7717,rock,AF,B,329644,329644,327815,328930,327815,330060,329443,329443,330060,98
97,test,1,inc,1,m,Thu Dec 11 2025 16:04:33 GMT-0600 (Central Standard Time),336336.8000000119,temper,1000,O,m,m,None,476,277.0,199.0,127,,2012.5999999642372,334324.2000000477,7717,window,AF,B,331792,331792,330063,331077,330064,332076,331593,331593,332076,99
98,test,1,con,1,z,Thu Dec 11 2025 16:04:33 GMT-0600 (Central Standard Time),338319.7000000477,love,1000,O,z,z,None,434,235.0,199.0,19,,1979.0,336340.7000000477,7717,love,AF,B,333809,333809,332080,333092,332080,334059,333610,333610,334059,100
99,test,1,con,1,m,Thu Dec 11 2025 16:04:33 GMT-0600 (Central Standard Time),340469.2000000477,window,1100,O,m,m,None,506,305.0,201.0,124,,2146.800000011921,338322.40000003576,7717,window,AF,B,335892,335892,334061,335175,334062,336208,335691,335691,336208,101
100,test,1,con,1,z,Thu Dec 11 2025 16:04:33 GMT-0600 (Central Standard Time),342701.2000000477,friend,900,O,z,z,None,810,594.0,216.0,26,,2227.900000035763,340473.3000000119,7717,friend,AF,B,337843,337843,336212,337124,336213,338440,337626,337626,338440,102
101,test,1,inc,1,m,Thu Dec 11 2025 16:04:33 GMT-0600 (Central Standard Time),344950.7000000477,temper,1000,O,m,m,None,719,520.0,199.0,103,,2246.7000000476837,342704.0,7717,jacket,AF,B,340157,340157,338443,339457,338443,340690,339958,339958,340690,103
102,test,1,con,1,m,Thu Dec 11 2025 16:04:33 GMT-0600 (Central Standard Time),347450.8000000119,bell,1100,O,m,m,None,858,658.0,200.0,84,,2497.300000011921,344953.5,7717,bell,AF,B,342523,342523,340693,341809,340693,343190,342323,342323,343190,104
103,test,1,inc,1,z,Thu Dec 11 2025 16:04:33 GMT-0600 (Central Standard Time),349683.0,remote,1000,O,z,z,None,691,489.0,202.0,31,,2229.5,347453.5,7717,friend,AF,B,344924,344924,343193,344206,343193,345422,344722,344722,345422,105
104,test,1,inc,1,m,Thu Dec 11 2025 16:04:33 GMT-0600 (Central Standard Time),351815.10000002384,friend,1100,O,m,m,None,509,293.0,216.0,128,,2128.5,349686.60000002384,7717,window,AF,B,347255,347256,345426,346537,345426,347554,347039,347039,347554,106
105,test,1,inc,1,z,Thu Dec 11 2025 16:04:33 GMT-0600 (Central Standard Time),354047.60000002384,napkin,900,O,z,z,None,783,581.0,202.0,38,,2228.199999988079,351819.40000003576,7717,brutal,AF,B,349191,349191,347558,348471,347559,349787,348988,348988,349787,107
106,test,1,con,1,m,Thu Dec 11 2025 16:04:33 GMT-0600 (Central Standard Time),356065.2000000477,step,900,O,m,m,None,577,377.0,200.0,66,,2013.9000000357628,354051.3000000119,7717,step,AF,B,351420,351420,349790,350705,349791,351804,351220,351220,351804,108
107,test,1,con,1,m,Thu Dec 11 2025 16:04:33 GMT-0600 (Central Standard Time),357996.90000003576,napkin,800,O,m,m,None,588,388.0,200.0,105,,1928.800000011921,356068.10000002384,7717,napkin,AF,B,353337,353337,351807,352622,351807,353736,353137,353137,353736,109
108,test,1,con,1,m,Thu Dec 11 2025 16:04:33 GMT-0600 (Central Standard Time),359829.3000000119,film,800,O,m,m,None,495,296.0,199.0,89,,1824.199999988079,358005.10000002384,7717,film,AF,B,355269,355269,353744,354554,353744,355568,355069,355069,355568,110
109,test,1,con,1,z,Thu Dec 11 2025 16:04:33 GMT-0600 (Central Standard Time),362030.0,hate,1000,O,z,z,None,662,463.0,199.0,43,,2194.099999964237,359835.90000003576,7717,hate,AF,B,357301,357302,355575,356586,355575,357769,357102,357102,357769,111
110,test,1,con,1,m,Thu Dec 11 2025 16:04:33 GMT-0600 (Central Standard Time),364161.10000002384,napkin,1000,O,m,m,None,583,383.0,200.0,107,,2124.0,362037.10000002384,7717,napkin,AF,B,359501,359502,357776,358785,357776,359900,359301,359301,359900,112
111,test,1,inc,1,m,Thu Dec 11 2025 16:04:33 GMT-0600 (Central Standard Time),366227.10000002384,rage,800,O,m,m,None,723,524.0,199.0,93,,2059.0,364168.10000002384,7717,film,AF,B,361433,361433,359907,360717,359908,361966,361234,361234,361966,113
112,test,1,con,1,z,Thu Dec 11 2025 16:04:33 GMT-0600 (Central Standard Time),368909.60000002384,love,900,O,z,z,None,1236,1037.0,199.0,18,,2675.699999988079,366233.90000003576,7717,love,AF,B,363599,363600,361973,362883,361973,364649,363400,363400,364649,114
113,test,1,con,1,z,Thu Dec 11 2025 16:04:33 GMT-0600 (Central Standard Time),370926.40000003576,brutal,1000,O,z,z,None,470,270.0,200.0,35,,2011.4000000357628,368915.0,7717,brutal,AF,B,366382,366383,364654,365665,364654,366665,366182,366182,366665,115
114,test,1,inc,1,m,Thu Dec 11 2025 16:04:33 GMT-0600 (Central Standard Time),372841.40000003576,kind,900,O,m,m,None,489,275.0,214.0,94,,1910.1000000238419,370931.3000000119,7717,film,AF,B,368298,368298,366670,367581,366671,368580,368083,368083,368580,116
115,test,1,inc,1,z,Thu Dec 11 2025 16:04:33 GMT-0600 (Central Standard Time),374741.10000002384,step,800,O,z,z,None,563,362.0,201.0,53,,1895.6000000238419,372845.5,7717,rage,AF,B,370115,370115,368585,369398,368585,370480,369914,369914,370480,117
116,test,1,inc,1,m,Thu Dec 11 2025 16:04:33 GMT-0600 (Central Standard Time),376922.40000003576,hate,1100,O,m,m,None,539,339.0,200.0,88,,2176.900000035763,374745.5,7717,bell,AF,B,372313,372313,370485,371597,370485,372661,372113,372113,372661,118
117,test,1,inc,1,z,Thu Dec 11 2025 16:04:33 GMT-0600 (Central Standard Time),378839.90000003576,rock,900,O,z,z,None,486,286.0,200.0,22,,1915.0,376924.90000003576,7717,love,AF,B,374279,374279,372664,373578,372664,374579,374079,374079,374579,119
118,test,1,con,1,z,Thu Dec 11 2025 16:04:33 GMT-0600 (Central Standard Time),380972.40000003576,temper,1100,O,z,z,None,487,272.0,215.0,60,,2126.5,378845.90000003576,7717,temper,AF,B,376429,376429,374585,375696,374585,376712,376213,376213,376711,120
119,test,1,con,1,m,Thu Dec 11 2025 16:04:33 GMT-0600 (Central Standard Time),383039.2000000477,remote,1000,O,m,m,None,527,328.0,199.0,115,,2059.0,380980.2000000477,7717,remote,AF,B,378445,378445,376719,377728,376719,378778,378245,378245,378778,121
120,test,1,con,1,m,Thu Dec 11 2025 16:04:33 GMT-0600 (Central Standard Time),385287.8000000119,step,1100,O,m,m,None,616,401.0,215.0,68,,2244.800000011921,383043.0,7717,step,AF,B,380611,380611,378782,379895,378782,381027,380396,380396,381027,122
121,test,1,con,1,z,Thu Dec 11 2025 16:04:33 GMT-0600 (Central Standard Time),387286.90000003576,rage,900,O,z,z,None,551,351.0,200.0,50,,1992.1000000238419,385294.8000000119,7717,rage,AF,B,382662,382662,381034,381945,381034,383026,382461,382461,383026,123
122,test,1,inc,1,z,Thu Dec 11 2025 16:04:33 GMT-0600 (Central Standard Time),389552.90000003576,napkin,900,O,z,z,None,832,617.0,215.0,30,,2261.400000035763,387291.5,7717,friend,AF,B,384660,384660,383031,383943,383031,385292,384444,384444,385292,124
123,test,1,con,1,m,Thu Dec 11 2025 16:04:33 GMT-0600 (Central Standard Time),391519.8000000119,jacket,900,O,m,m,None,526,327.0,199.0,98,,1961.0,389558.8000000119,7717,jacket,AF,B,386926,386926,385298,386210,385298,387259,386727,386727,387259,125
124,test,1,inc,1,m,Thu Dec 11 2025 16:04:33 GMT-0600 (Central Standard Time),393618.40000003576,friend,1100,O,m,m,None,456,240.0,216.0,104,,2095.400000035763,391523.0,7717,jacket,AF,B,389109,389109,387262,388376,387262,389357,388893,388893,389357,126
125,test,1,inc,1,m,Thu Dec 11 2025 16:04:33 GMT-0600 (Central Standard Time),395652.60000002384,love,1000,O,m,m,None,514,315.0,199.0,87,,2027.300000011921,393625.3000000119,7717,bell,AF,B,391074,391074,389364,390374,389365,391392,390875,390875,391392,127
126,test,1,con,1,m,Thu Dec 11 2025 16:04:33 GMT-0600 (Central Standard Time),397434.7000000477,bell,800,O,m,m,None,450,233.0,217.0,81,,1776.800000011921,395657.90000003576,7717,bell,AF,B,392941,392941,391397,392207,391397,393174,392724,392724,393174,128
