acc_sum,block,block_c,condition,correct,correct_response,datetime,endtime,flanker,jitter,project,response,response_test_buffer_response,response_test_target_response,response_time,response_time_test_buffer_response,response_time_test_target_response,row_sel,session_number,start_end,starttime,subject_id,target,task,task_vers,time_test_buffer,time_test_buffer_response,time_test_constants,time_test_flanker,time_test_jitter,time_test_logger,time_test_target,time_test_target_response,time_test_variables,trial
1,prac,1,con,1,z,Fri Oct 10 2025 13:31:36 GMT-0500 (Central Daylight Time),65378.10000014305,love,1000,O,z,,,566,,,11,1,2874.800000190735,62503.299999952316,7226,love,AF,C,,,,,,,,,,1
2,prac,1,inc,1,z,Fri Oct 10 2025 13:31:36 GMT-0500 (Central Daylight Time),68026.70000004768,film,900,O,z,,,431,,,14,1,2621.2999999523163,65405.40000009537,7226,hate,AF,C,,,,,,,,,,2
3,prac,1,con,1,m,Fri Oct 10 2025 13:31:36 GMT-0500 (Central Daylight Time),70792.60000014305,remote,1000,O,m,,,434,,,7,1,2745.7000000476837,68046.90000009537,7226,remote,AF,C,,,,,,,,,,3
4,prac,1,con,1,z,Fri Oct 10 2025 13:31:36 GMT-0500 (Central Daylight Time),73626.29999995232,rage,1000,O,z,,,508,,,15,1,2811.199999809265,70815.10000014305,7226,rage,AF,C,,,,,,,,,,4
5,prac,1,inc,1,z,Fri Oct 10 2025 13:31:36 GMT-0500 (Central Daylight Time),76307.40000009537,rock,900,O,z,,,464,,,10,1,2654.9000000953674,73652.5,7226,kind,AF,C,,,,,,,,,,5
6,prac,1,inc,1,m,Fri Oct 10 2025 13:31:36 GMT-0500 (Central Daylight Time),79239.70000004768,brutal,1100,O,m,,,510,,,8,1,2911.7999999523163,76327.90000009537,7226,window,AF,C,,,,,,,,,,6
7,prac,1,inc,1,m,Fri Oct 10 2025 13:31:36 GMT-0500 (Central Daylight Time),82222.20000004768,hate,1100,O,m,,,561,,,4,1,2959.5999999046326,79262.60000014305,7226,film,AF,C,,,,,,,,,,7
8,prac,1,con,1,m,Fri Oct 10 2025 13:31:36 GMT-0500 (Central Daylight Time),84771.29999995232,jacket,800,O,m,,,432,,,5,1,2524.699999809265,82246.60000014305,7226,jacket,AF,C,,,,,,,,,,8
8,prac,1,con,0,z,Fri Oct 10 2025 13:31:36 GMT-0500 (Central Daylight Time),87303.79999995232,brutal,800,O,m,,,410,,,13,1,2509.7999999523163,84794.0,7226,brutal,AF,C,,,,,,,,,,9
9,prac,1,inc,1,z,Fri Oct 10 2025 13:31:36 GMT-0500 (Central Daylight Time),90152.70000004768,window,1100,O,z,,,425,,,16,1,2822.7999999523163,87329.90000009537,7226,temper,AF,C,,,,,,,,,,10
10,prac,1,con,1,z,Fri Oct 10 2025 13:31:36 GMT-0500 (Central Daylight Time),92685.29999995232,elated,800,O,z,,,412,,,9,1,2505.899999856949,90179.40000009537,7226,elated,AF,C,,,,,,,,,,11
11,prac,1,con,1,m,Fri Oct 10 2025 13:31:36 GMT-0500 (Central Daylight Time),95467.79999995232,bell,1000,O,m,,,464,,,3,1,2759.699999809265,92708.10000014305,7226,bell,AF,C,,,,,,,,,,12
12,prac,1,inc,1,z,Fri Oct 10 2025 13:31:36 GMT-0500 (Central Daylight Time),98566.60000014305,napkin,1100,O,z,,,677,,,12,1,3080.7000000476837,95485.90000009537,7226,friend,AF,C,,,,,,,,,,13
13,prac,1,inc,1,m,Fri Oct 10 2025 13:31:36 GMT-0500 (Central Daylight Time),101282.5,kind,900,O,m,,,497,,,2,1,2695.2000000476837,98587.29999995232,7226,rock,AF,C,,,,,,,,,,14
14,prac,1,con,1,m,Fri Oct 10 2025 13:31:36 GMT-0500 (Central Daylight Time),104014.79999995232,step,800,O,m,,,610,,,1,1,2711.899999856949,101302.90000009537,7226,step,AF,C,,,,,,,,,,15
15,prac,1,inc,1,m,Fri Oct 10 2025 13:31:36 GMT-0500 (Central Daylight Time),106647.29999995232,elated,900,O,m,,,402,,,6,1,2615.2999999523163,104032.0,7226,napkin,AF,C,,,,,,,,,,16
1,test,1,inc,1,z,Fri Oct 10 2025 13:31:36 GMT-0500 (Central Daylight Time),116527.60000014305,napkin,900,O,z,z,None,370,171.0,199.0,62,1,1805.8000001907349,114721.79999995232,7226,temper,AF,C,112677,112677,111054,111960,111055,112860,112477,112477,112859,1
2,test,1,inc,1,z,Fri Oct 10 2025 13:31:36 GMT-0500 (Central Daylight Time),118360.0,jacket,800,O,z,z,None,470,270.0,200.0,37,1,1809.5999999046326,116550.40000009537,7226,brutal,AF,C,114409,114410,112882,113693,112884,114692,114209,114209,114692,2
3,test,1,con,1,m,Fri Oct 10 2025 13:31:36 GMT-0500 (Central Daylight Time),120226.10000014305,rock,900,O,m,m,None,409,210.0,199.0,74,1,1845.0,118381.10000014305,7226,rock,AF,C,116342,116342,114713,115626,114715,116558,116142,116142,116558,3
4,test,1,con,1,z,Fri Oct 10 2025 13:31:36 GMT-0500 (Central Daylight Time),121975.70000004768,temper,800,O,z,z,None,387,187.0,200.0,57,1,1729.2999999523163,120246.40000009537,7226,temper,AF,C,118108,118109,116578,117392,116579,118308,117908,117908,118308,4
5,test,1,inc,1,z,Fri Oct 10 2025 13:31:36 GMT-0500 (Central Daylight Time),123958.10000014305,film,1100,O,z,z,None,321,122.0,199.0,16,1,1960.0,121998.10000014305,7226,kind,AF,C,120158,120158,118330,119441,118331,120290,119958,119958,120290,5
6,test,1,con,1,z,Fri Oct 10 2025 13:31:36 GMT-0500 (Central Daylight Time),125991.0,brutal,1100,O,z,z,None,378,179.0,199.0,36,1,2017.0,123974.0,7226,brutal,AF,C,122141,122141,120306,121424,120307,122323,121940,121941,122323,6
7,test,1,inc,1,z,Fri Oct 10 2025 13:31:36 GMT-0500 (Central Daylight Time),127990.29999995232,bell,1000,O,z,z,None,435,222.0,213.0,47,1,1980.5,126009.79999995232,7226,hate,AF,C,124089,124090,122342,123357,122343,124322,123876,123876,124322,7
8,test,1,con,1,z,Fri Oct 10 2025 13:31:36 GMT-0500 (Central Daylight Time),130039.70000004768,kind,1100,O,z,z,None,386,187.0,199.0,12,1,2029.0999999046326,128010.60000014305,7226,kind,AF,C,126173,126173,124343,125456,124344,126372,125973,125973,126372,8
9,test,1,con,1,z,Fri Oct 10 2025 13:31:36 GMT-0500 (Central Daylight Time),131805.90000009537,elated,900,O,z,z,None,305,106.0,199.0,2,1,1745.2000000476837,130060.70000004768,7226,elated,AF,C,128022,128022,126393,127305,126394,128138,127822,127822,128138,9
10,test,1,inc,1,z,Fri Oct 10 2025 13:31:36 GMT-0500 (Central Daylight Time),133638.29999995232,napkin,900,O,z,z,None,379,180.0,199.0,6,1,1811.5999999046326,131826.70000004768,7226,elated,AF,C,129788,129788,128159,129071,128160,129970,129588,129588,129970,10
11,test,1,inc,1,m,Fri Oct 10 2025 13:31:36 GMT-0500 (Central Daylight Time),135504.5,kind,900,O,m,m,None,403,203.0,200.0,78,1,1846.0,133658.5,7226,rock,AF,C,131620,131621,129990,130904,129991,131837,131420,131420,131837,11
11,test,1,inc,0,z,Fri Oct 10 2025 13:31:36 GMT-0500 (Central Daylight Time),137587.29999995232,window,1100,O,m,m,None,417,217.0,200.0,40,1,2062.199999809265,135525.10000014305,7226,brutal,AF,C,133687,133687,131857,132970,131858,133919,133486,133486,133919,12
12,test,1,con,1,m,Fri Oct 10 2025 13:31:36 GMT-0500 (Central Daylight Time),139619.79999995232,bell,1100,O,m,m,None,374,175.0,199.0,84,1,2011.7999999523163,137608.0,7226,bell,AF,C,135769,135769,133940,135053,133941,135952,135569,135569,135952,13
13,test,1,con,1,z,Fri Oct 10 2025 13:31:36 GMT-0500 (Central Daylight Time),141652.60000014305,temper,900,O,z,z,None,581,382.0,199.0,58,1,2012.6000001430511,139640.0,7226,temper,AF,C,137602,137602,135972,136885,135973,137985,137402,137402,137985,14
14,test,1,con,1,z,Fri Oct 10 2025 13:31:36 GMT-0500 (Central Daylight Time),144034.90000009537,friend,800,O,z,z,None,1016,817.0,199.0,25,1,2362.100000143051,141672.79999995232,7226,friend,AF,C,139535,139535,138005,138818,138006,140367,139335,139335,140367,15
15,test,1,inc,1,z,Fri Oct 10 2025 13:31:36 GMT-0500 (Central Daylight Time),146084.40000009537,window,1100,O,z,z,None,390,191.0,199.0,64,1,2027.2999999523163,144057.10000014305,7226,temper,AF,C,142217,142217,140389,141501,140391,142417,142017,142017,142416,16
16,test,1,inc,1,z,Fri Oct 10 2025 13:31:36 GMT-0500 (Central Daylight Time),147883.79999995232,jacket,800,O,z,z,None,433,233.0,200.0,61,1,1777.5,146106.29999995232,7226,temper,AF,C,143967,143967,142438,143250,142439,144216,143766,143766,144216,17
17,test,1,inc,1,m,Fri Oct 10 2025 13:31:36 GMT-0500 (Central Daylight Time),149800.0,brutal,900,O,m,m,None,461,262.0,199.0,126,1,1893.5,147906.5,7226,window,AF,C,145866,145866,144239,145149,144239,146132,145666,145666,146132,18
18,test,1,inc,1,m,Fri Oct 10 2025 13:31:36 GMT-0500 (Central Daylight Time),151549.29999995232,elated,800,O,m,m,None,389,190.0,199.0,109,1,1728.1999998092651,149821.10000014305,7226,napkin,AF,C,147682,147682,146153,146965,146154,147881,147482,147482,147881,19
19,test,1,con,1,z,Fri Oct 10 2025 13:31:36 GMT-0500 (Central Daylight Time),153548.60000014305,hate,1000,O,z,z,None,448,248.0,200.0,43,1,1980.4000000953674,151568.20000004768,7226,hate,AF,C,149631,149632,147900,148915,147901,149881,149431,149431,149881,20
20,test,1,inc,1,m,Fri Oct 10 2025 13:31:36 GMT-0500 (Central Daylight Time),155314.70000004768,rage,800,O,m,m,None,408,209.0,199.0,85,1,1744.4000000953674,153570.29999995232,7226,bell,AF,C,151431,151431,149902,150714,149903,151647,151231,151231,151647,21
21,test,1,con,1,m,Fri Oct 10 2025 13:31:36 GMT-0500 (Central Daylight Time),157480.5,step,1100,O,m,m,None,510,311.0,199.0,68,1,2143.5999999046326,155336.90000009537,7226,step,AF,C,153497,153497,151669,152780,151670,153813,153297,153297,153813,22
22,test,1,con,1,z,Fri Oct 10 2025 13:31:36 GMT-0500 (Central Daylight Time),159480.0,temper,1100,O,z,z,None,344,145.0,199.0,60,1,1978.7000000476837,157501.29999995232,7226,temper,AF,C,155663,155663,153833,154946,153835,155812,155463,155463,155812,23
23,test,1,inc,1,m,Fri Oct 10 2025 13:31:36 GMT-0500 (Central Daylight Time),161445.5,hate,1100,O,m,m,None,313,114.0,199.0,80,1,1945.5,159500.0,7226,rock,AF,C,157662,157662,155832,156944,155833,157778,157462,157462,157778,24
24,test,1,inc,1,z,Fri Oct 10 2025 13:31:36 GMT-0500 (Central Daylight Time),163512.10000014305,remote,1000,O,z,z,None,511,312.0,199.0,31,1,2046.3000001907349,161465.79999995232,7226,friend,AF,C,159528,159528,157798,158812,157799,159844,159328,159328,159844,25
25,test,1,inc,1,z,Fri Oct 10 2025 13:31:36 GMT-0500 (Central Daylight Time),165477.79999995232,window,1100,O,z,z,None,313,114.0,199.0,8,1,1945.5,163532.29999995232,7226,elated,AF,C,161694,161694,159864,160978,159866,161810,161494,161494,161810,26
26,test,1,inc,1,m,Fri Oct 10 2025 13:31:36 GMT-0500 (Central Daylight Time),167144.10000014305,elated,800,O,m,m,None,303,104.0,199.0,117,1,1646.5,165497.60000014305,7226,remote,AF,C,163360,163360,161830,162644,161831,163476,163160,163160,163476,27
27,test,1,inc,1,z,Fri Oct 10 2025 13:31:36 GMT-0500 (Central Daylight Time),169026.70000004768,step,800,O,z,z,None,526,326.0,200.0,45,1,1861.7999999523163,167164.90000009537,7226,hate,AF,C,165026,165026,163497,164310,163498,165359,164826,164826,165359,28
28,test,1,con,1,z,Fri Oct 10 2025 13:31:36 GMT-0500 (Central Daylight Time),171042.79999995232,temper,1000,O,z,z,None,458,259.0,199.0,59,1,1998.5999999046326,169044.20000004768,7226,temper,AF,C,167109,167109,165376,166392,165377,167375,166909,166909,167375,29
28,test,1,inc,0,m,Fri Oct 10 2025 13:31:36 GMT-0500 (Central Daylight Time),173125.20000004768,hate,1100,O,z,z,None,431,231.0,200.0,96,1,2062.9000000953674,171062.29999995232,7226,film,AF,C,169225,169225,167394,168508,167395,169457,169024,169024,169457,30
28,test,1,con,0,m,Fri Oct 10 2025 13:31:36 GMT-0500 (Central Daylight Time),175024.90000009537,film,900,O,z,z,None,435,236.0,199.0,90,1,1879.4000000953674,173145.5,7226,film,AF,C,171108,171108,169477,170390,169479,171357,170908,170908,171357,31
28,test,1,con,0,m,Fri Oct 10 2025 13:31:36 GMT-0500 (Central Daylight Time),177107.60000014305,step,1000,O,z,z,None,524,325.0,199.0,67,1,2061.9000000953674,175045.70000004768,7226,step,AF,C,173107,173107,171378,172390,171379,173440,172907,172907,173440,32
29,test,1,inc,1,m,Fri Oct 10 2025 13:31:36 GMT-0500 (Central Daylight Time),178956.90000009537,rage,800,O,m,m,None,489,290.0,199.0,93,1,1829.4000000953674,177127.5,7226,film,AF,C,174990,174990,173460,174273,173461,175289,174790,174790,175289,33
29,test,1,con,0,m,Fri Oct 10 2025 13:31:36 GMT-0500 (Central Daylight Time),180739.60000014305,remote,800,O,z,z,None,424,225.0,199.0,113,1,1765.3000001907349,178974.29999995232,7226,remote,AF,C,176839,176839,175306,176122,175307,177072,176639,176639,177072,34
30,test,1,inc,1,m,Fri Oct 10 2025 13:31:36 GMT-0500 (Central Daylight Time),182639.20000004768,brutal,900,O,m,m,None,445,246.0,199.0,118,1,1879.9000000953674,180759.29999995232,7226,remote,AF,C,178722,178722,177091,178005,177092,178971,178522,178522,178971,35
31,test,1,inc,1,z,Fri Oct 10 2025 13:31:36 GMT-0500 (Central Daylight Time),184638.29999995232,remote,1000,O,z,z,None,438,239.0,199.0,39,1,1978.7999999523163,182659.5,7226,brutal,AF,C,180721,180721,178992,180004,178993,180970,180521,180521,180970,36
32,test,1,inc,1,m,Fri Oct 10 2025 13:31:36 GMT-0500 (Central Daylight Time),186537.79999995232,brutal,900,O,m,m,None,435,235.0,200.0,110,1,1880.6999998092651,184657.10000014305,7226,napkin,AF,C,182621,182621,180989,181904,180990,182870,182420,182420,182870,37
33,test,1,inc,1,m,Fri Oct 10 2025 13:31:36 GMT-0500 (Central Daylight Time),188570.40000009537,kind,900,O,m,m,None,575,376.0,199.0,86,1,2009.1000001430511,186561.29999995232,7226,bell,AF,C,184520,184520,182893,183803,182895,184902,184320,184320,184902,38
33,test,1,con,0,m,Fri Oct 10 2025 13:31:36 GMT-0500 (Central Daylight Time),190469.79999995232,bell,1000,O,z,z,None,340,140.0,200.0,83,1,1879.5,188590.29999995232,7226,bell,AF,C,186652,186652,184922,185936,184923,186802,186452,186452,186802,39
34,test,1,con,1,m,Fri Oct 10 2025 13:31:36 GMT-0500 (Central Daylight Time),192419.29999995232,remote,900,O,m,m,None,491,292.0,199.0,114,1,1929.5,190489.79999995232,7226,remote,AF,C,188452,188452,186822,187735,186823,188751,188252,188252,188751,40
35,test,1,con,1,z,Fri Oct 10 2025 13:31:36 GMT-0500 (Central Daylight Time),194284.29999995232,friend,900,O,z,z,None,413,214.0,199.0,26,1,1845.5999999046326,192438.70000004768,7226,friend,AF,C,190401,190401,188771,189684,188772,190616,190201,190201,190616,41
36,test,1,con,1,m,Fri Oct 10 2025 13:31:36 GMT-0500 (Central Daylight Time),196134.70000004768,step,900,O,m,m,None,412,213.0,199.0,66,1,1845.5999999046326,194289.10000014305,7226,step,AF,C,192251,192251,190621,191534,190622,192467,192051,192051,192467,42
36,test,1,inc,0,m,Fri Oct 10 2025 13:31:36 GMT-0500 (Central Daylight Time),197783.40000009537,rage,800,O,z,z,None,286,86.0,200.0,69,1,1628.7000000476837,196154.70000004768,7226,step,AF,C,194017,194017,192487,193300,192488,194116,193816,193816,194115,43
37,test,1,con,1,z,Fri Oct 10 2025 13:31:36 GMT-0500 (Central Daylight Time),199983.20000004768,rage,1000,O,z,z,None,662,462.0,200.0,51,1,2188.0,197795.20000004768,7226,rage,AF,C,195850,195850,194127,195133,194128,196315,195649,195649,196315,44
38,test,1,con,1,m,Fri Oct 10 2025 13:31:36 GMT-0500 (Central Daylight Time),201766.20000004768,film,800,O,m,m,None,423,223.0,200.0,89,1,1764.0999999046326,200002.10000014305,7226,film,AF,C,197865,197865,196334,197149,196335,198098,197665,197665,198098,45
39,test,1,inc,1,z,Fri Oct 10 2025 13:31:36 GMT-0500 (Central Daylight Time),203848.79999995232,remote,1000,O,z,z,None,519,320.0,199.0,63,1,2063.199999809265,201785.60000014305,7226,temper,AF,C,199848,199848,198118,199132,198119,200181,199648,199648,200181,46
40,test,1,con,1,z,Fri Oct 10 2025 13:31:36 GMT-0500 (Central Daylight Time),205848.10000014305,friend,1000,O,z,z,None,436,237.0,199.0,27,1,1979.6000001430511,203868.5,7226,friend,AF,C,201931,201931,200200,201214,200202,202180,201731,201731,202180,47
41,test,1,inc,1,m,Fri Oct 10 2025 13:31:36 GMT-0500 (Central Daylight Time),207697.40000009537,elated,800,O,m,m,None,494,294.0,200.0,101,1,1830.2000000476837,205867.20000004768,7226,jacket,AF,C,203730,203730,202199,203013,202200,204029,203530,203530,204029,48
41,test,1,con,0,m,Fri Oct 10 2025 13:31:36 GMT-0500 (Central Daylight Time),209530.5,jacket,900,O,z,z,None,368,168.0,200.0,98,1,1812.7999999523163,207717.70000004768,7226,jacket,AF,C,205680,205680,204050,204963,204051,205863,205479,205479,205863,49
42,test,1,con,1,m,Fri Oct 10 2025 13:31:36 GMT-0500 (Central Daylight Time),211596.60000014305,napkin,1100,O,m,m,None,415,216.0,199.0,108,1,2046.4000000953674,209550.20000004768,7226,napkin,AF,C,207712,207712,205882,206996,205883,207929,207512,207512,207929,50
42,test,1,con,0,z,Fri Oct 10 2025 13:31:36 GMT-0500 (Central Daylight Time),213329.0,kind,800,O,m,m,None,377,178.0,199.0,9,1,1712.7999999523163,211616.20000004768,7226,kind,AF,C,209478,209478,207948,208762,207949,209661,209278,209279,209661,51
43,test,1,con,1,z,Fri Oct 10 2025 13:31:36 GMT-0500 (Central Daylight Time),215278.29999995232,brutal,900,O,z,z,None,489,289.0,200.0,34,1,1930.2999999523163,213348.0,7226,brutal,AF,C,211311,211311,209680,210595,209681,211610,211110,211110,211610,52
44,test,1,con,1,z,Fri Oct 10 2025 13:31:36 GMT-0500 (Central Daylight Time),217377.70000004768,rage,1100,O,z,z,None,444,244.0,200.0,52,1,2080.4000000953674,215297.29999995232,7226,rage,AF,C,213460,213460,211629,212744,211630,213710,213260,213260,213710,53
45,test,1,con,1,z,Fri Oct 10 2025 13:31:36 GMT-0500 (Central Daylight Time),219427.20000004768,rage,900,O,z,z,None,583,384.0,199.0,50,1,2029.5,217397.70000004768,7226,rage,AF,C,215360,215360,213730,214643,213731,215759,215160,215160,215759,54
46,test,1,con,1,m,Fri Oct 10 2025 13:31:36 GMT-0500 (Central Daylight Time),221326.40000009537,window,900,O,m,m,None,438,239.0,199.0,122,1,1877.1000001430511,219449.29999995232,7226,window,AF,C,217409,217409,215781,216692,215782,217659,217209,217209,217658,55
47,test,1,inc,1,m,Fri Oct 10 2025 13:31:36 GMT-0500 (Central Daylight Time),223275.90000009537,temper,1000,O,m,m,None,383,184.0,199.0,119,1,1930.2000000476837,221345.70000004768,7226,remote,AF,C,219408,219408,217678,218692,217679,219608,219208,219209,219608,56
48,test,1,inc,1,m,Fri Oct 10 2025 13:31:36 GMT-0500 (Central Daylight Time),225358.40000009537,friend,1100,O,m,m,None,421,222.0,199.0,128,1,2063.0,223295.40000009537,7226,window,AF,C,221458,221458,219627,220741,219629,221690,221258,221258,221690,57
49,test,1,inc,1,m,Fri Oct 10 2025 13:31:36 GMT-0500 (Central Daylight Time),227140.70000004768,elated,800,O,m,m,None,430,231.0,199.0,125,1,1763.0,225377.70000004768,7226,window,AF,C,223240,223241,221710,222524,221711,223473,223040,223041,223473,58
50,test,1,con,1,m,Fri Oct 10 2025 13:31:36 GMT-0500 (Central Daylight Time),229040.5,napkin,900,O,m,m,None,445,245.0,200.0,106,1,1879.0,227161.5,7226,napkin,AF,C,225123,225123,223494,224407,223494,225373,224923,224923,225372,59
51,test,1,inc,1,z,Fri Oct 10 2025 13:31:36 GMT-0500 (Central Daylight Time),231155.5,film,1100,O,z,z,None,457,258.0,199.0,48,1,2096.5999999046326,229058.90000009537,7226,hate,AF,C,227221,227221,225391,226506,225391,227488,227022,227022,227488,60
52,test,1,inc,1,m,Fri Oct 10 2025 13:31:36 GMT-0500 (Central Daylight Time),233105.10000014305,love,1000,O,m,m,None,401,202.0,199.0,87,1,1944.1000001430511,231161.0,7226,bell,AF,C,229221,229221,227493,228505,227493,229437,229021,229021,229437,61
53,test,1,inc,1,m,Fri Oct 10 2025 13:31:36 GMT-0500 (Central Daylight Time),235305.10000014305,hate,1100,O,m,m,None,561,361.0,200.0,88,1,2194.300000190735,233110.79999995232,7226,bell,AF,C,231271,231271,229443,230555,229443,231637,231071,231071,231637,62
54,test,1,inc,1,m,Fri Oct 10 2025 13:31:36 GMT-0500 (Central Daylight Time),237604.20000004768,temper,1000,O,m,m,None,740,541.0,199.0,127,1,2278.0999999046326,235326.10000014305,7226,window,AF,C,233387,233387,231658,232670,231659,233936,233187,233187,233936,63
55,test,1,inc,1,m,Fri Oct 10 2025 13:31:36 GMT-0500 (Central Daylight Time),239470.29999995232,kind,900,O,m,m,None,413,214.0,199.0,70,1,1847.0999999046326,237623.20000004768,7226,step,AF,C,235586,235586,233955,234870,233956,235802,235386,235386,235802,64
56,test,1,inc,1,m,Fri Oct 10 2025 13:31:36 GMT-0500 (Central Daylight Time),241586.40000009537,friend,1100,O,m,m,None,452,252.0,200.0,112,1,2097.5,239488.90000009537,7226,napkin,AF,C,237652,237652,235821,236936,235822,237919,237452,237452,237918,65
57,test,1,con,1,m,Fri Oct 10 2025 13:31:36 GMT-0500 (Central Daylight Time),243602.40000009537,film,1100,O,m,m,None,359,159.0,200.0,92,1,1996.5,241605.90000009537,7226,film,AF,C,239769,239769,237938,239052,237939,239935,239568,239568,239934,66
57,test,1,inc,0,z,Fri Oct 10 2025 13:31:36 GMT-0500 (Central Daylight Time),245468.60000014305,step,800,O,m,m,None,516,316.0,200.0,53,1,1845.5,243623.10000014305,7226,rage,AF,C,241484,241484,239955,240768,239956,241801,241284,241284,241801,67
58,test,1,con,1,z,Fri Oct 10 2025 13:31:36 GMT-0500 (Central Daylight Time),247450.90000009537,kind,1000,O,z,z,None,426,226.0,200.0,11,1,1963.2000000476837,245487.70000004768,7226,kind,AF,C,243550,243550,241820,242834,241821,243783,243350,243350,243783,68
59,test,1,inc,1,m,Fri Oct 10 2025 13:31:36 GMT-0500 (Central Daylight Time),249217.20000004768,rage,800,O,m,m,None,410,211.0,199.0,77,1,1746.9000000953674,247470.29999995232,7226,rock,AF,C,245333,245333,243802,244617,243803,245549,245133,245133,245549,69
59,test,1,inc,0,z,Fri Oct 10 2025 13:31:36 GMT-0500 (Central Daylight Time),251316.60000014305,step,800,O,m,m,None,749,549.0,200.0,13,1,2081.0,249235.60000014305,7226,kind,AF,C,247099,247099,245568,246383,245569,247649,246899,246899,247649,70
60,test,1,inc,1,m,Fri Oct 10 2025 13:31:36 GMT-0500 (Central Daylight Time),253165.60000014305,kind,900,O,m,m,None,396,197.0,199.0,94,1,1830.5,251335.10000014305,7226,film,AF,C,249299,249299,247667,248582,247668,249498,249099,249099,249498,71
61,test,1,con,1,z,Fri Oct 10 2025 13:31:36 GMT-0500 (Central Daylight Time),255581.5,brutal,1000,O,z,z,None,863,664.0,199.0,35,1,2395.399999856949,253186.10000014305,7226,brutal,AF,C,251248,251248,249518,250531,249519,251914,251048,251048,251914,72
62,test,1,inc,1,m,Fri Oct 10 2025 13:31:36 GMT-0500 (Central Daylight Time),257963.90000009537,temper,1000,O,m,m,None,814,615.0,199.0,103,1,2362.9000000953674,255601.0,7226,jacket,AF,C,253664,253664,251933,252947,251934,254296,253464,253464,254296,73
63,test,1,con,1,m,Fri Oct 10 2025 13:31:36 GMT-0500 (Central Daylight Time),259913.79999995232,rock,800,O,m,m,None,609,410.0,199.0,73,1,1937.0,257976.79999995232,7226,rock,AF,C,255830,255830,254309,255113,254310,256246,255630,255630,256246,74
63,test,1,con,0,z,Fri Oct 10 2025 13:31:36 GMT-0500 (Central Daylight Time),261829.70000004768,love,900,O,m,m,None,455,256.0,199.0,18,1,1897.2000000476837,259932.5,7226,love,AF,C,257896,257896,256265,257179,256266,258162,257696,257696,258162,75
64,test,1,con,1,m,Fri Oct 10 2025 13:31:36 GMT-0500 (Central Daylight Time),263812.40000009537,film,1000,O,m,m,None,415,216.0,199.0,91,1,1964.2999999523163,261848.10000014305,7226,film,AF,C,259912,259912,258180,259195,258181,260145,259712,259712,260144,76
65,test,1,con,1,m,Fri Oct 10 2025 13:31:36 GMT-0500 (Central Daylight Time),266378.0,jacket,1100,O,m,m,None,901,702.0,199.0,100,1,2546.7999999523163,263831.2000000477,7226,jacket,AF,C,261994,261994,260163,261278,260164,262710,261794,261795,262710,77
66,test,1,con,1,z,Fri Oct 10 2025 13:31:36 GMT-0500 (Central Daylight Time),268260.10000014305,hate,900,O,z,z,None,439,224.0,215.0,42,1,1870.4000000953674,266389.7000000477,7226,hate,AF,C,264359,264359,262722,263627,262722,264592,264144,264144,264592,78
67,test,1,con,1,m,Fri Oct 10 2025 13:31:36 GMT-0500 (Central Daylight Time),270093.90000009537,napkin,800,O,m,m,None,489,290.0,199.0,105,1,1828.1000001430511,268265.7999999523,7226,napkin,AF,C,266127,266127,264598,265410,264598,266426,265927,265927,266426,79
68,test,1,inc,1,m,Fri Oct 10 2025 13:31:36 GMT-0500 (Central Daylight Time),272376.0,temper,1000,O,m,m,None,727,528.0,199.0,111,1,2262.5,270113.5,7226,napkin,AF,C,268176,268176,266446,267459,266447,268708,267976,267976,268708,80
69,test,1,inc,1,z,Fri Oct 10 2025 13:31:36 GMT-0500 (Central Daylight Time),274375.7999999523,bell,1000,O,z,z,None,439,238.0,201.0,23,1,1981.5,272394.2999999523,7226,love,AF,C,270458,270458,268726,269742,268727,270708,270257,270257,270708,81
70,test,1,con,1,z,Fri Oct 10 2025 13:31:36 GMT-0500 (Central Daylight Time),276291.60000014305,kind,900,O,z,z,None,449,250.0,199.0,10,1,1896.3000001907349,274395.2999999523,7226,kind,AF,C,272358,272358,270727,271641,270728,272624,272158,272158,272624,82
70,test,1,con,0,m,Fri Oct 10 2025 13:31:36 GMT-0500 (Central Daylight Time),278274.40000009537,jacket,1000,O,z,z,None,417,218.0,199.0,99,1,1964.1000001430511,276310.2999999523,7226,jacket,AF,C,274374,274374,272642,273657,272643,274607,274174,274174,274606,83
71,test,1,inc,1,z,Fri Oct 10 2025 13:31:36 GMT-0500 (Central Daylight Time),280157.2000000477,jacket,800,O,z,z,None,533,333.0,200.0,5,1,1862.7999999523163,278294.40000009537,7226,elated,AF,C,276156,276156,274626,275440,274627,276489,275956,275956,276489,84
72,test,1,inc,1,z,Fri Oct 10 2025 13:31:36 GMT-0500 (Central Daylight Time),282639.2999999523,window,1100,O,z,z,None,828,629.0,199.0,32,1,2462.399999856949,280176.90000009537,7226,friend,AF,C,278339,278339,276509,277622,276510,278972,278139,278139,278971,85
73,test,1,con,1,z,Fri Oct 10 2025 13:31:36 GMT-0500 (Central Daylight Time),284872.2000000477,elated,1000,O,z,z,None,669,470.0,199.0,3,1,2212.7000000476837,282659.5,7226,elated,AF,C,280721,280722,278992,280005,278992,281204,280522,280522,281204,86
74,test,1,inc,1,z,Fri Oct 10 2025 13:31:36 GMT-0500 (Central Daylight Time),286955.0,bell,1000,O,z,z,None,517,318.0,199.0,15,1,2064.0999999046326,284890.90000009537,7226,kind,AF,C,282954,282954,281223,282238,281224,283287,282754,282754,283287,87
75,test,1,con,1,m,Fri Oct 10 2025 13:31:36 GMT-0500 (Central Daylight Time),288837.10000014305,bell,800,O,m,m,None,530,331.0,199.0,81,1,1863.6000001430511,286973.5,7226,bell,AF,C,284837,284837,283306,284120,283307,285169,284637,284637,285169,88
76,test,1,inc,1,z,Fri Oct 10 2025 13:31:36 GMT-0500 (Central Daylight Time),290902.60000014305,film,1100,O,z,z,None,410,211.0,199.0,56,1,2046.3000001907349,288856.2999999523,7226,rage,AF,C,287019,287020,285188,286303,285189,287235,286819,286820,287235,89
77,test,1,con,1,z,Fri Oct 10 2025 13:31:36 GMT-0500 (Central Daylight Time),292986.2000000477,hate,1100,O,z,z,None,442,243.0,199.0,44,1,2078.0,290908.2000000477,7226,hate,AF,C,289069,289069,287240,288352,287241,289318,288869,288869,289318,90
78,test,1,inc,1,z,Fri Oct 10 2025 13:31:36 GMT-0500 (Central Daylight Time),294885.2000000477,rock,900,O,z,z,None,447,247.0,200.0,22,1,1879.5,293005.7000000477,7226,love,AF,C,290968,290969,289338,290251,289339,291217,290768,290768,291217,91
79,test,1,con,1,z,Fri Oct 10 2025 13:31:36 GMT-0500 (Central Daylight Time),296585.10000014305,brutal,800,O,z,z,None,360,161.0,199.0,33,1,1688.8000001907349,294896.2999999523,7226,brutal,AF,C,292751,292751,291228,292035,291229,292917,292551,292551,292917,92
80,test,1,con,1,z,Fri Oct 10 2025 13:31:36 GMT-0500 (Central Daylight Time),298351.2000000477,hate,800,O,z,z,None,404,205.0,199.0,41,1,1747.7000000476837,296603.5,7226,hate,AF,C,294467,294467,292935,293751,292937,294683,294267,294267,294683,93
80,test,1,inc,0,z,Fri Oct 10 2025 13:31:36 GMT-0500 (Central Daylight Time),300033.90000009537,jacket,800,O,m,m,None,319,119.0,200.0,29,1,1663.2999999523163,298370.60000014305,7226,friend,AF,C,296233,296233,294703,295517,294704,296366,296033,296033,296366,94
81,test,1,con,1,m,Fri Oct 10 2025 13:31:36 GMT-0500 (Central Daylight Time),301949.5,window,1000,O,m,m,None,364,165.0,199.0,123,1,1895.5999999046326,300053.90000009537,7226,window,AF,C,298116,298116,296386,297399,296387,298282,297916,297916,298282,95
82,test,1,inc,1,m,Fri Oct 10 2025 13:31:36 GMT-0500 (Central Daylight Time),303932.7000000477,love,1000,O,m,m,None,431,232.0,199.0,79,1,1964.0,301968.7000000477,7226,rock,AF,C,300032,300032,298301,299315,298302,300265,299832,299832,300265,96
83,test,1,con,1,m,Fri Oct 10 2025 13:31:36 GMT-0500 (Central Daylight Time),305981.7000000477,window,1100,O,m,m,None,396,197.0,199.0,124,1,2029.7000000476837,303952.0,7226,window,AF,C,302115,302115,300284,301398,300285,302314,301915,301915,302314,97
84,test,1,con,1,m,Fri Oct 10 2025 13:31:36 GMT-0500 (Central Daylight Time),307698.0,jacket,800,O,m,m,None,351,152.0,199.0,97,1,1697.2999999523163,306000.7000000477,7226,jacket,AF,C,303864,303864,302333,303147,302334,304030,303664,303664,304030,98
85,test,1,inc,1,z,Fri Oct 10 2025 13:31:36 GMT-0500 (Central Daylight Time),309563.2000000477,napkin,900,O,z,z,None,408,208.0,200.0,30,1,1846.2000000476837,307717.0,7226,friend,AF,C,305679,305679,304049,304964,304050,305895,305479,305479,305895,99
86,test,1,inc,1,m,Fri Oct 10 2025 13:31:36 GMT-0500 (Central Daylight Time),311730.2000000477,hate,1100,O,m,m,None,518,319.0,199.0,72,1,2161.2999999523163,309568.90000009537,7226,step,AF,C,307729,307729,305901,307012,305901,308062,307529,307530,308062,100
87,test,1,inc,1,z,Fri Oct 10 2025 13:31:36 GMT-0500 (Central Daylight Time),313812.60000014305,rock,900,O,z,z,None,616,412.0,204.0,54,1,2063.0,311749.60000014305,7226,rage,AF,C,309716,309716,308082,308995,308083,310145,309512,309512,310145,101
88,test,1,con,1,m,Fri Oct 10 2025 13:31:36 GMT-0500 (Central Daylight Time),315845.2999999523,remote,1100,O,m,m,None,373,173.0,200.0,116,1,2013.6999998092651,313831.60000014305,7226,remote,AF,C,311995,311995,310164,311277,310165,312177,311794,311794,312177,102
89,test,1,inc,1,m,Fri Oct 10 2025 13:31:36 GMT-0500 (Central Daylight Time),317893.7999999523,friend,1100,O,m,m,None,396,197.0,199.0,104,1,2029.7999999523163,315864.0,7226,jacket,AF,C,314026,314026,312196,313311,312197,314226,313827,313827,314226,103
90,test,1,con,1,z,Fri Oct 10 2025 13:31:36 GMT-0500 (Central Daylight Time),319577.2999999523,love,800,O,z,z,None,343,144.0,199.0,17,1,1676.6999998092651,317900.60000014305,7226,love,AF,C,315760,315760,314233,315043,314237,315909,315560,315560,315909,104
91,test,1,con,1,z,Fri Oct 10 2025 13:31:36 GMT-0500 (Central Daylight Time),321626.7999999523,elated,1100,O,z,z,None,385,185.0,200.0,4,1,2030.2999999523163,319596.5,7226,elated,AF,C,317759,317759,315929,317043,315930,317959,317559,317559,317959,105
92,test,1,inc,1,z,Fri Oct 10 2025 13:31:36 GMT-0500 (Central Daylight Time),323676.40000009537,rock,900,O,z,z,None,590,391.0,199.0,14,1,2030.4000000953674,321646.0,7226,kind,AF,C,319609,319609,317978,318892,317979,320008,319409,319409,320008,106
92,test,1,inc,0,m,Fri Oct 10 2025 13:31:36 GMT-0500 (Central Daylight Time),326208.7000000477,friend,1100,O,z,z,None,870,671.0,199.0,120,1,2512.2000000476837,323696.5,7226,remote,AF,C,321858,321858,320029,321142,320030,322541,321658,321658,322541,107
93,test,1,con,1,z,Fri Oct 10 2025 13:31:36 GMT-0500 (Central Daylight Time),328624.40000009537,love,1000,O,z,z,None,853,653.0,200.0,19,1,2396.9000000953674,326227.5,7226,love,AF,C,324291,324291,322559,323574,322561,324957,324090,324090,324956,108
94,test,1,con,1,z,Fri Oct 10 2025 13:31:36 GMT-0500 (Central Daylight Time),330973.40000009537,love,1100,O,z,z,None,697,497.0,200.0,20,1,2327.5,328645.90000009537,7226,love,AF,C,326807,326807,324978,326090,324979,327306,326606,326606,327305,109
94,test,1,con,0,z,Fri Oct 10 2025 13:31:36 GMT-0500 (Central Daylight Time),334339.2000000477,rage,800,O,None,None,None,1815,1815.0,199.0,49,1,3346.7000000476837,330992.5,7226,rage,AF,C,328856,328856,327325,328139,327326,330671,328656,328656,330671,110
95,test,1,inc,1,z,Fri Oct 10 2025 13:31:36 GMT-0500 (Central Daylight Time),336371.60000014305,napkin,900,O,z,z,None,575,375.0,200.0,38,1,2012.5,334359.10000014305,7226,brutal,AF,C,332321,332322,330691,331605,330692,332704,332121,332121,332704,111
96,test,1,con,1,m,Fri Oct 10 2025 13:31:36 GMT-0500 (Central Daylight Time),338304.5,bell,900,O,m,m,None,477,278.0,199.0,82,1,1913.0,336391.5,7226,bell,AF,C,334354,334354,332724,333637,332724,334637,334154,334154,334637,112
97,test,1,con,1,m,Fri Oct 10 2025 13:31:36 GMT-0500 (Central Daylight Time),340386.60000014305,rock,1100,O,m,m,None,423,224.0,199.0,76,1,2064.100000143051,338322.5,7226,rock,AF,C,336487,336487,334655,335769,334655,336719,336287,336287,336719,113
98,test,1,inc,1,z,Fri Oct 10 2025 13:31:36 GMT-0500 (Central Daylight Time),342320.0,bell,1000,O,z,z,None,386,187.0,199.0,55,1,1924.2000000476837,340395.7999999523,7226,rage,AF,C,338453,338453,336728,337736,336728,338652,338252,338253,338652,114
99,test,1,con,1,z,Fri Oct 10 2025 13:31:36 GMT-0500 (Central Daylight Time),344436.10000014305,friend,1100,O,z,z,None,457,258.0,199.0,28,1,2097.600000143051,342338.5,7226,friend,AF,C,340502,340502,338671,339785,338671,340768,340302,340302,340768,115
100,test,1,con,1,m,Fri Oct 10 2025 13:31:36 GMT-0500 (Central Daylight Time),346185.40000009537,window,800,O,m,m,None,385,186.0,199.0,121,1,1730.0,344455.40000009537,7226,window,AF,C,342318,342318,340787,341601,340788,342517,342118,342118,342517,116
101,test,1,inc,1,z,Fri Oct 10 2025 13:31:36 GMT-0500 (Central Daylight Time),348018.2000000477,rock,900,O,z,z,None,378,178.0,200.0,46,1,1813.2000000476837,346205.0,7226,hate,AF,C,344167,344167,342537,343451,342538,344350,343967,343967,344350,117
102,test,1,inc,1,m,Fri Oct 10 2025 13:31:36 GMT-0500 (Central Daylight Time),350217.40000009537,love,1000,O,m,m,None,643,444.0,199.0,95,1,2179.7999999523163,348037.60000014305,7226,film,AF,C,346100,346100,344370,345383,344371,346549,345900,345900,346549,118
103,test,1,inc,1,z,Fri Oct 10 2025 13:31:36 GMT-0500 (Central Daylight Time),352616.2999999523,film,1100,O,z,z,None,745,545.0,200.0,24,1,2380.399999856949,350235.90000009537,7226,love,AF,C,348399,348399,346568,347683,346569,348948,348199,348199,348948,119
104,test,1,con,1,m,Fri Oct 10 2025 13:31:36 GMT-0500 (Central Daylight Time),354749.2999999523,step,800,O,m,m,None,772,573.0,199.0,65,1,2114.5,352634.7999999523,7226,step,AF,C,350499,350499,348967,349781,348968,351081,350299,350299,351081,120
105,test,1,inc,1,m,Fri Oct 10 2025 13:31:36 GMT-0500 (Central Daylight Time),356748.90000009537,brutal,900,O,m,m,None,549,349.0,200.0,102,1,1981.5,354767.40000009537,7226,jacket,AF,C,352731,352731,351099,352015,351100,353081,352531,352531,353081,121
105,test,1,inc,0,z,Fri Oct 10 2025 13:31:36 GMT-0500 (Central Daylight Time),358781.2000000477,remote,1000,O,m,m,None,483,283.0,200.0,7,1,2013.2999999523163,356767.90000009537,7226,elated,AF,C,354830,354830,353100,354115,353101,355113,354630,354630,355113,122
106,test,1,inc,1,m,Fri Oct 10 2025 13:31:36 GMT-0500 (Central Daylight Time),360813.0,love,1000,O,m,m,None,479,280.0,199.0,71,1,2011.8999998569489,358801.10000014305,7226,step,AF,C,356863,356863,355133,356147,355134,357145,356663,356663,357145,123
107,test,1,con,1,m,Fri Oct 10 2025 13:31:36 GMT-0500 (Central Daylight Time),362746.40000009537,napkin,1000,O,m,m,None,393,193.0,200.0,107,1,1927.0,360819.40000009537,7226,napkin,AF,C,358879,358879,357151,358163,357152,359079,358679,358679,359078,124
108,test,1,con,1,m,Fri Oct 10 2025 13:31:36 GMT-0500 (Central Daylight Time),364712.7000000477,rock,1000,O,m,m,None,411,212.0,199.0,75,1,1947.0999999046326,362765.60000014305,7226,rock,AF,C,360828,360828,359098,360112,359099,361045,360629,360629,361045,125
109,test,1,inc,1,z,Fri Oct 10 2025 13:31:36 GMT-0500 (Central Daylight Time),366445.2000000477,step,800,O,z,z,None,380,181.0,199.0,21,1,1714.0999999046326,364731.10000014305,7226,love,AF,C,362595,362595,361063,361878,361064,362777,362394,362395,362777,126
110,test,1,con,1,m,Fri Oct 10 2025 13:31:36 GMT-0500 (Central Daylight Time),368494.90000009537,remote,1000,O,m,m,None,496,296.0,200.0,115,1,2033.9000000953674,366461.0,7226,remote,AF,C,364528,364528,362793,363810,362793,364827,364327,364327,364827,127
111,test,1,con,1,z,Fri Oct 10 2025 13:31:36 GMT-0500 (Central Daylight Time),370343.90000009537,elated,800,O,z,z,None,494,295.0,199.0,1,1,1828.7000000476837,368515.2000000477,7226,elated,AF,C,366377,366377,364847,365660,364848,366676,366177,366177,366676,128
