Number,acc_sum,block,block_c,block_cond,con_img,correct,correct_response,datetime,endtime,jitter,project,response,response_time,row_sel,session_number,start_end,starttime,subject_id,task,task_vers,trial
7,1,prac,1,A,circle.png,1,m,Thu May 14 2026 09:11:13 GMT-0500 (Central Daylight Time),54978.30000001192,1700,I,m,797,6,2,3276.5,51701.80000001192,8085,NTS,C,1
9,2,prac,1,A,circle.png,1,m,Thu May 14 2026 09:11:13 GMT-0500 (Central Daylight Time),57860.59999999404,1500,I,m,585,8,2,2875.7999999821186,54984.80000001192,8085,NTS,C,2
8,3,prac,1,A,circle.png,1,m,Thu May 14 2026 09:11:13 GMT-0500 (Central Daylight Time),60760.80000001192,1600,I,m,507,7,2,2894.600000023842,57866.19999998808,8085,NTS,C,3
3,4,prac,1,A,circle.png,1,z,Thu May 14 2026 09:11:13 GMT-0500 (Central Daylight Time),63325.69999998808,1200,I,z,575,3,2,2558.199999988079,60767.5,8085,NTS,C,4
1,5,prac,1,A,circle.png,1,z,Thu May 14 2026 09:11:13 GMT-0500 (Central Daylight Time),65788.90000000596,1000,I,z,601,1,2,2457.5999999940395,63331.30000001192,8085,NTS,C,5
2,6,prac,1,A,circle.png,1,z,Thu May 14 2026 09:11:13 GMT-0500 (Central Daylight Time),69190.40000000596,2000,I,z,599,2,2,3395.300000011921,65795.09999999404,8085,NTS,C,6
6,7,prac,1,A,circle.png,1,m,Thu May 14 2026 09:11:13 GMT-0500 (Central Daylight Time),72439.40000000596,1900,I,m,550,5,2,3243.7000000178814,69195.69999998808,8085,NTS,C,7
2,8,prac,1,A,circle.png,1,z,Thu May 14 2026 09:11:13 GMT-0500 (Central Daylight Time),75805.0,2000,I,z,568,2,2,3360.4000000059605,72444.59999999404,8085,NTS,C,8
7,9,prac,1,A,circle.png,1,m,Thu May 14 2026 09:11:13 GMT-0500 (Central Daylight Time),78820.59999999404,1700,I,m,527,6,2,3010.5999999940395,75810.0,8085,NTS,C,9
9,10,prac,1,A,circle.png,1,m,Thu May 14 2026 09:11:13 GMT-0500 (Central Daylight Time),81636.40000000596,1500,I,m,519,8,2,2810.9000000059605,78825.5,8085,NTS,C,10
4,11,prac,1,A,circle.png,1,z,Thu May 14 2026 09:11:13 GMT-0500 (Central Daylight Time),84402.19999998808,1400,I,z,579,4,2,2760.5999999940395,81641.59999999404,8085,NTS,C,11
4,12,prac,1,A,circle.png,1,z,Thu May 14 2026 09:11:13 GMT-0500 (Central Daylight Time),87167.80000001192,1400,I,z,581,4,2,2760.300000011921,84407.5,8085,NTS,C,12
6,1,prac,1,B,triangle.png,1,m,Thu May 14 2026 09:11:13 GMT-0500 (Central Daylight Time),119857.69999998808,1000,I,m,739,5,2,2527.5,117330.19999998808,8085,NTS,C,1
1,2,prac,1,B,triangle.png,1,z,Thu May 14 2026 09:11:13 GMT-0500 (Central Daylight Time),123073.5,1900,I,z,523,1,2,3210.300000011921,119863.19999998808,8085,NTS,C,2
3,3,prac,1,B,triangle.png,1,z,Thu May 14 2026 09:11:13 GMT-0500 (Central Daylight Time),126239.0,1600,I,z,775,3,2,3159.5999999940395,123079.40000000596,8085,NTS,C,3
9,4,prac,1,B,triangle.png,1,z,Thu May 14 2026 09:11:13 GMT-0500 (Central Daylight Time),129088.09999999404,1400,I,z,664,8,2,2844.0,126244.09999999404,8085,NTS,C,4
1,5,prac,1,B,triangle.png,1,z,Thu May 14 2026 09:11:13 GMT-0500 (Central Daylight Time),132453.80000001192,1900,I,z,677,1,2,3360.800000011921,129093.0,8085,NTS,C,5
2,6,prac,1,B,triangle.png,1,m,Thu May 14 2026 09:11:13 GMT-0500 (Central Daylight Time),135602.80000001192,1700,I,m,655,2,2,3143.800000011921,132459.0,8085,NTS,C,6
7,7,prac,1,B,triangle.png,1,z,Thu May 14 2026 09:11:13 GMT-0500 (Central Daylight Time),139301.59999999404,2000,I,z,908,6,2,3694.0,135607.59999999404,8085,NTS,C,7
3,8,prac,1,B,triangle.png,1,z,Thu May 14 2026 09:11:13 GMT-0500 (Central Daylight Time),142517.19999998808,1600,I,z,818,3,2,3210.699999988079,139306.5,8085,NTS,C,8
2,9,prac,1,B,triangle.png,1,m,Thu May 14 2026 09:11:13 GMT-0500 (Central Daylight Time),145682.90000000596,1700,I,m,678,2,2,3160.5999999940395,142522.30000001192,8085,NTS,C,9
8,10,prac,1,B,triangle.png,1,m,Thu May 14 2026 09:11:13 GMT-0500 (Central Daylight Time),148298.90000000596,1200,I,m,629,7,2,2610.9000000059605,145688.0,8085,NTS,C,10
4,11,prac,1,B,triangle.png,1,m,Thu May 14 2026 09:11:13 GMT-0500 (Central Daylight Time),151280.90000000596,1500,I,m,697,4,2,2976.800000011921,148304.09999999404,8085,NTS,C,11
4,12,prac,1,B,triangle.png,1,m,Thu May 14 2026 09:11:13 GMT-0500 (Central Daylight Time),154113.59999999404,1500,I,m,547,4,2,2827.9000000059605,151285.69999998808,8085,NTS,C,12
4,1,test,1,A,circle.png,1,z,Thu May 14 2026 09:11:13 GMT-0500 (Central Daylight Time),175723.5,1400,I,z,830,4,2,2244.9000000059605,173478.59999999404,8085,NTS,C,1
6,2,test,1,A,circle.png,1,m,Thu May 14 2026 09:11:13 GMT-0500 (Central Daylight Time),178339.19999998808,1900,I,m,696,5,2,2611.0999999940395,175728.09999999404,8085,NTS,C,2
3,3,test,1,A,circle.png,1,z,Thu May 14 2026 09:11:13 GMT-0500 (Central Daylight Time),180155.5,1200,I,z,588,3,2,1812.5,178343.0,8085,NTS,C,3
3,4,test,1,A,circle.png,1,z,Thu May 14 2026 09:11:13 GMT-0500 (Central Daylight Time),181904.80000001192,1200,I,z,525,3,2,1745.5,180159.30000001192,8085,NTS,C,4
1,5,test,1,A,circle.png,1,z,Thu May 14 2026 09:11:13 GMT-0500 (Central Daylight Time),183437.80000001192,1000,I,z,510,1,2,1529.2000000178814,181908.59999999404,8085,NTS,C,5
2,6,test,1,A,circle.png,1,z,Thu May 14 2026 09:11:13 GMT-0500 (Central Daylight Time),186786.59999999404,2000,I,z,1322,2,2,3344.4000000059605,183442.19999998808,8085,NTS,C,6
8,7,test,1,A,circle.png,1,m,Thu May 14 2026 09:11:13 GMT-0500 (Central Daylight Time),188952.69999998808,1600,I,m,534,7,2,2162.5,186790.19999998808,8085,NTS,C,7
2,8,test,1,A,circle.png,1,z,Thu May 14 2026 09:11:13 GMT-0500 (Central Daylight Time),191435.19999998808,2000,I,z,463,2,2,2478.699999988079,188956.5,8085,NTS,C,8
7,9,test,1,A,circle.png,1,m,Thu May 14 2026 09:11:13 GMT-0500 (Central Daylight Time),193684.5,1700,I,m,529,6,2,2245.699999988079,191438.80000001192,8085,NTS,C,9
6,10,test,1,A,circle.png,1,m,Thu May 14 2026 09:11:13 GMT-0500 (Central Daylight Time),196200.5,1900,I,m,591,5,2,2512.4000000059605,193688.09999999404,8085,NTS,C,10
2,11,test,1,A,circle.png,1,z,Thu May 14 2026 09:11:13 GMT-0500 (Central Daylight Time),198849.40000000596,2000,I,z,631,2,2,2644.800000011921,196204.59999999404,8085,NTS,C,11
6,12,test,1,A,circle.png,1,m,Thu May 14 2026 09:11:13 GMT-0500 (Central Daylight Time),201316.30000001192,1900,I,m,538,5,2,2463.4000000059605,198852.90000000596,8085,NTS,C,12
1,13,test,1,A,circle.png,1,z,Thu May 14 2026 09:11:13 GMT-0500 (Central Daylight Time),202864.69999998808,1000,I,z,525,1,2,1544.2999999821186,201320.40000000596,8085,NTS,C,13
7,14,test,1,A,circle.png,1,m,Thu May 14 2026 09:11:13 GMT-0500 (Central Daylight Time),205180.69999998808,1700,I,m,595,6,2,2312.0,202868.69999998808,8085,NTS,C,14
9,15,test,1,A,circle.png,1,m,Thu May 14 2026 09:11:13 GMT-0500 (Central Daylight Time),207340.69999998808,1500,I,m,643,8,2,2156.199999988079,205184.5,8085,NTS,C,15
9,16,test,1,A,circle.png,1,m,Thu May 14 2026 09:11:13 GMT-0500 (Central Daylight Time),209412.5,1500,I,m,561,8,2,2067.5,207345.0,8085,NTS,C,16
9,17,test,1,A,circle.png,1,m,Thu May 14 2026 09:11:13 GMT-0500 (Central Daylight Time),211462.0,1500,I,m,518,8,2,2046.0,209416.0,8085,NTS,C,17
7,18,test,1,A,circle.png,1,m,Thu May 14 2026 09:11:13 GMT-0500 (Central Daylight Time),213961.19999998808,1700,I,m,774,6,2,2495.0999999940395,211466.09999999404,8085,NTS,C,18
2,19,test,1,A,circle.png,1,z,Thu May 14 2026 09:11:13 GMT-0500 (Central Daylight Time),216578.09999999404,2000,I,z,598,2,2,2613.199999988079,213964.90000000596,8085,NTS,C,19
8,20,test,1,A,circle.png,1,m,Thu May 14 2026 09:11:13 GMT-0500 (Central Daylight Time),218692.90000000596,1600,I,m,494,7,2,2109.0999999940395,216583.80000001192,8085,NTS,C,20
4,21,test,1,A,circle.png,1,z,Thu May 14 2026 09:11:13 GMT-0500 (Central Daylight Time),220809.19999998808,1400,I,z,683,4,2,2112.5,218696.69999998808,8085,NTS,C,21
1,22,test,1,A,circle.png,1,z,Thu May 14 2026 09:11:13 GMT-0500 (Central Daylight Time),222342.09999999404,1000,I,z,502,1,2,1529.4000000059605,220812.69999998808,8085,NTS,C,22
1,23,test,1,A,circle.png,1,z,Thu May 14 2026 09:11:13 GMT-0500 (Central Daylight Time),223824.69999998808,1000,I,z,465,1,2,1478.7999999821186,222345.90000000596,8085,NTS,C,23
4,24,test,1,A,circle.png,1,z,Thu May 14 2026 09:11:13 GMT-0500 (Central Daylight Time),225957.59999999404,1400,I,z,711,4,2,2129.5999999940395,223828.0,8085,NTS,C,24
7,1,test,1,B,triangle.png,1,z,Thu May 14 2026 09:11:13 GMT-0500 (Central Daylight Time),240619.69999998808,1600,I,z,854,14,2,2480.0,238139.69999998808,8085,NTS,C,1
1,2,test,1,B,triangle.png,1,z,Thu May 14 2026 09:11:13 GMT-0500 (Central Daylight Time),243185.59999999404,1900,I,z,633,1,2,2562.0,240623.59999999404,8085,NTS,C,2
2,3,test,1,B,triangle.png,1,m,Thu May 14 2026 09:11:13 GMT-0500 (Central Daylight Time),245718.0,1700,I,m,810,2,2,2528.9000000059605,243189.09999999404,8085,NTS,C,3
6,4,test,1,B,triangle.png,1,m,Thu May 14 2026 09:11:13 GMT-0500 (Central Daylight Time),247334.19999998808,1000,I,m,586,5,2,1611.5,245722.69999998808,8085,NTS,C,4
4,5,test,1,B,triangle.png,1,m,Thu May 14 2026 09:11:13 GMT-0500 (Central Daylight Time),249583.5,1500,I,m,717,4,2,2245.5999999940395,247337.90000000596,8085,NTS,C,5
9,6,test,1,B,triangle.png,1,z,Thu May 14 2026 09:11:13 GMT-0500 (Central Daylight Time),252265.90000000596,1900,I,z,757,16,2,2678.7000000178814,249587.19999998808,8085,NTS,C,6
2,7,test,1,B,triangle.png,1,m,Thu May 14 2026 09:11:13 GMT-0500 (Central Daylight Time),254815.0,1700,I,m,817,2,2,2545.300000011921,252269.69999998808,8085,NTS,C,7
4,8,test,1,B,triangle.png,1,m,Thu May 14 2026 09:11:13 GMT-0500 (Central Daylight Time),256581.30000001192,1000,I,m,736,12,2,1762.1000000238419,254819.19999998808,8085,NTS,C,8
7,9,test,1,B,triangle.png,1,z,Thu May 14 2026 09:11:13 GMT-0500 (Central Daylight Time),259663.69999998808,2000,I,z,1058,6,2,3078.699999988079,256585.0,8085,NTS,C,9
7,10,test,1,B,triangle.png,1,z,Thu May 14 2026 09:11:13 GMT-0500 (Central Daylight Time),262263.0,2000,I,z,576,6,2,2595.199999988079,259667.80000001192,8085,NTS,C,10
3,11,test,1,B,triangle.png,1,z,Thu May 14 2026 09:11:13 GMT-0500 (Central Daylight Time),264895.6999999881,2000,I,z,610,11,2,2629.0999999940395,262266.59999999404,8085,NTS,C,11
2,12,test,1,B,triangle.png,1,m,Thu May 14 2026 09:11:13 GMT-0500 (Central Daylight Time),267394.5,1200,I,m,1280,10,2,2494.9000000059605,264899.59999999404,8085,NTS,C,12
8,13,test,1,B,triangle.png,1,m,Thu May 14 2026 09:11:13 GMT-0500 (Central Daylight Time),269244.0,1200,I,m,630,7,2,1846.0,267398.0,8085,NTS,C,13
8,14,test,1,B,triangle.png,1,m,Thu May 14 2026 09:11:13 GMT-0500 (Central Daylight Time),271526.6999999881,1700,I,m,560,15,2,2279.2999999821186,269247.40000000596,8085,NTS,C,14
8,15,test,1,B,triangle.png,1,m,Thu May 14 2026 09:11:13 GMT-0500 (Central Daylight Time),273992.6999999881,1700,I,m,741,15,2,2462.2999999821186,271530.40000000596,8085,NTS,C,15
1,16,test,1,B,triangle.png,1,z,Thu May 14 2026 09:11:13 GMT-0500 (Central Daylight Time),276625.1999999881,1900,I,z,700,1,2,2628.7999999821186,273996.40000000596,8085,NTS,C,16
9,17,test,1,B,triangle.png,1,z,Thu May 14 2026 09:11:13 GMT-0500 (Central Daylight Time),278790.59999999404,1400,I,z,707,8,2,2161.5,276629.09999999404,8085,NTS,C,17
4,18,test,1,B,triangle.png,1,m,Thu May 14 2026 09:11:13 GMT-0500 (Central Daylight Time),280656.90000000596,1000,I,m,833,12,2,1863.0,278793.90000000596,8085,NTS,C,18
3,19,test,1,B,triangle.png,1,z,Thu May 14 2026 09:11:13 GMT-0500 (Central Daylight Time),283023.09999999404,1600,I,z,735,3,2,2362.4000000059605,280660.6999999881,8085,NTS,C,19
9,20,test,1,B,triangle.png,1,z,Thu May 14 2026 09:11:13 GMT-0500 (Central Daylight Time),285705.40000000596,1900,I,z,758,16,2,2678.5999999940395,283026.8000000119,8085,NTS,C,20
1,21,test,1,B,triangle.png,1,z,Thu May 14 2026 09:11:13 GMT-0500 (Central Daylight Time),287688.3000000119,1400,I,z,566,9,2,1979.0,285709.3000000119,8085,NTS,C,21
8,22,test,1,B,triangle.png,1,m,Thu May 14 2026 09:11:13 GMT-0500 (Central Daylight Time),289504.3000000119,1200,I,m,592,7,2,1812.0,287692.3000000119,8085,NTS,C,22
7,23,test,1,B,triangle.png,1,z,Thu May 14 2026 09:11:13 GMT-0500 (Central Daylight Time),291903.8000000119,1600,I,z,768,14,2,2396.0,289507.8000000119,8085,NTS,C,23
6,24,test,1,B,triangle.png,1,m,Thu May 14 2026 09:11:13 GMT-0500 (Central Daylight Time),294035.90000000596,1500,I,m,604,13,2,2128.5,291907.40000000596,8085,NTS,C,24
2,0,prac,1,C,triangle.png,0,m,Thu May 14 2026 09:11:13 GMT-0500 (Central Daylight Time),335890.8000000119,1600,I,None,1516,2,2,3878.9000000059605,332011.90000000596,8085,NTS,C,1
7,1,prac,1,C,triangle.png,1,z,Thu May 14 2026 09:11:13 GMT-0500 (Central Daylight Time),338840.0,1200,I,z,950,6,2,2942.5999999940395,335897.40000000596,8085,NTS,C,2
2,2,prac,1,C,triangle.png,1,m,Thu May 14 2026 09:11:13 GMT-0500 (Central Daylight Time),342054.59999999404,1600,I,m,826,2,2,3209.7999999821186,338844.8000000119,8085,NTS,C,3
8,2,prac,1,C,triangle.png,0,m,Thu May 14 2026 09:11:13 GMT-0500 (Central Daylight Time),345753.3000000119,1400,I,None,1516,7,2,3693.7000000178814,342059.59999999404,8085,NTS,C,4
3,3,prac,1,C,triangle.png,1,z,Thu May 14 2026 09:11:13 GMT-0500 (Central Daylight Time),349369.0,1500,I,z,1347,3,2,3611.0,345758.0,8085,NTS,C,5
1,4,prac,1,C,circle.png,1,z,Thu May 14 2026 09:11:13 GMT-0500 (Central Daylight Time),352601.40000000596,1700,I,z,739,1,2,3225.2000000178814,349376.1999999881,8085,NTS,C,6
9,4,prac,1,C,circle.png,0,m,Thu May 14 2026 09:11:13 GMT-0500 (Central Daylight Time),356799.8000000119,1900,I,None,1517,8,2,4193.300000011921,352606.5,8085,NTS,C,7
6,5,prac,1,C,circle.png,1,m,Thu May 14 2026 09:11:13 GMT-0500 (Central Daylight Time),360532.0,2000,I,m,945,5,2,3727.0999999940395,356804.90000000596,8085,NTS,C,8
7,6,prac,1,C,triangle.png,1,z,Thu May 14 2026 09:11:13 GMT-0500 (Central Daylight Time),363481.1999999881,1200,I,z,964,6,2,2944.0,360537.1999999881,8085,NTS,C,9
8,7,prac,1,C,triangle.png,1,m,Thu May 14 2026 09:11:13 GMT-0500 (Central Daylight Time),366380.3000000119,1400,I,m,710,7,2,2894.4000000059605,363485.90000000596,8085,NTS,C,10
6,8,prac,1,C,circle.png,1,m,Thu May 14 2026 09:11:13 GMT-0500 (Central Daylight Time),369995.6999999881,2000,I,m,821,5,2,3610.399999976158,366385.3000000119,8085,NTS,C,11
4,8,prac,1,C,circle.png,0,z,Thu May 14 2026 09:11:13 GMT-0500 (Central Daylight Time),372761.59999999404,1000,I,m,981,4,2,2761.0999999940395,370000.5,8085,NTS,C,12
4,0,test,1,C,triangle.png,0,m,Thu May 14 2026 09:11:13 GMT-0500 (Central Daylight Time),405951.0,1500,I,z,1401,12,2,2929.300000011921,403021.6999999881,8085,NTS,C,1
2,0,test,1,C,triangle.png,0,m,Thu May 14 2026 09:11:13 GMT-0500 (Central Daylight Time),409033.3000000119,2000,I,z,1050,2,2,3077.4000000059605,405955.90000000596,8085,NTS,C,2
6,1,test,1,C,triangle.png,1,m,Thu May 14 2026 09:11:13 GMT-0500 (Central Daylight Time),411016.1999999881,1000,I,m,959,13,2,1979.2999999821186,409036.90000000596,8085,NTS,C,3
3,2,test,1,C,circle.png,1,z,Thu May 14 2026 09:11:13 GMT-0500 (Central Daylight Time),413298.5,1600,I,z,655,11,2,2278.5,411020.0,8085,NTS,C,4
2,3,test,1,C,circle.png,1,z,Thu May 14 2026 09:11:13 GMT-0500 (Central Daylight Time),415931.3000000119,1700,I,z,906,18,2,2629.0,413302.3000000119,8085,NTS,C,5
9,4,test,1,C,circle.png,1,m,Thu May 14 2026 09:11:13 GMT-0500 (Central Daylight Time),418197.3000000119,1500,I,m,745,8,2,2262.300000011921,415935.0,8085,NTS,C,6
1,5,test,1,C,triangle.png,1,z,Thu May 14 2026 09:11:13 GMT-0500 (Central Daylight Time),420713.1999999881,1900,I,z,590,17,2,2512.0,418201.1999999881,8085,NTS,C,7
7,5,test,1,C,triangle.png,0,z,Thu May 14 2026 09:11:13 GMT-0500 (Central Daylight Time),422979.0,1700,I,m,547,22,2,2261.9000000059605,420717.09999999404,8085,NTS,C,8
2,5,test,1,C,circle.png,0,z,Thu May 14 2026 09:11:13 GMT-0500 (Central Daylight Time),425395.09999999404,1700,I,m,698,10,2,2412.0999999940395,422983.0,8085,NTS,C,9
6,6,test,1,C,circle.png,1,m,Thu May 14 2026 09:11:13 GMT-0500 (Central Daylight Time),428027.3000000119,1900,I,m,705,21,2,2628.300000011921,425399.0,8085,NTS,C,10
4,7,test,1,C,circle.png,1,z,Thu May 14 2026 09:11:13 GMT-0500 (Central Daylight Time),430359.8000000119,1400,I,z,909,4,2,2328.7000000178814,428031.09999999404,8085,NTS,C,11
3,8,test,1,C,circle.png,1,z,Thu May 14 2026 09:11:13 GMT-0500 (Central Daylight Time),432826.0,1600,I,z,841,19,2,2462.0,430364.0,8085,NTS,C,12
8,9,test,1,C,circle.png,1,m,Thu May 14 2026 09:11:13 GMT-0500 (Central Daylight Time),434775.09999999404,1200,I,m,717,15,2,1945.2999999821186,432829.8000000119,8085,NTS,C,13
7,9,test,1,C,triangle.png,0,z,Thu May 14 2026 09:11:13 GMT-0500 (Central Daylight Time),437357.6999999881,1700,I,m,853,6,2,2578.5,434779.1999999881,8085,NTS,C,14
6,10,test,1,C,circle.png,1,m,Thu May 14 2026 09:11:13 GMT-0500 (Central Daylight Time),440107.0,1900,I,m,831,5,2,2745.300000011921,437361.6999999881,8085,NTS,C,15
8,10,test,1,C,triangle.png,0,m,Thu May 14 2026 09:11:13 GMT-0500 (Central Daylight Time),442851.3000000119,1600,I,z,1005,23,2,2740.600000023842,440110.6999999881,8085,NTS,C,16
8,11,test,1,C,triangle.png,1,m,Thu May 14 2026 09:11:13 GMT-0500 (Central Daylight Time),445055.3000000119,1600,I,m,576,7,2,2199.600000023842,442855.6999999881,8085,NTS,C,17
9,12,test,1,C,triangle.png,1,z,Thu May 14 2026 09:11:13 GMT-0500 (Central Daylight Time),447221.59999999404,1400,I,z,737,16,2,2162.9000000059605,445058.6999999881,8085,NTS,C,18
7,13,test,1,C,circle.png,1,m,Thu May 14 2026 09:11:13 GMT-0500 (Central Daylight Time),450221.40000000596,2000,I,m,972,14,2,2995.5999999940395,447225.8000000119,8085,NTS,C,19
1,14,test,1,C,triangle.png,1,z,Thu May 14 2026 09:11:13 GMT-0500 (Central Daylight Time),452819.5,1900,I,z,672,9,2,2594.0,450225.5,8085,NTS,C,20
4,15,test,1,C,triangle.png,1,m,Thu May 14 2026 09:11:13 GMT-0500 (Central Daylight Time),455052.1999999881,1500,I,m,712,20,2,2229.199999988079,452823.0,8085,NTS,C,21
3,16,test,1,C,triangle.png,1,z,Thu May 14 2026 09:11:13 GMT-0500 (Central Daylight Time),457036.0,1200,I,z,764,3,2,1979.5,455056.5,8085,NTS,C,22
1,17,test,1,C,circle.png,1,z,Thu May 14 2026 09:11:13 GMT-0500 (Central Daylight Time),459134.3000000119,1000,I,z,1077,1,2,2094.300000011921,457040.0,8085,NTS,C,23
9,17,test,1,C,circle.png,0,m,Thu May 14 2026 09:11:13 GMT-0500 (Central Daylight Time),461899.90000000596,1500,I,z,1237,24,2,2761.800000011921,459138.09999999404,8085,NTS,C,24
2,1,test,2,C,circle.png,1,z,Thu May 14 2026 09:11:13 GMT-0500 (Central Daylight Time),467298.5,1700,I,z,1040,18,2,2763.0,464535.5,8085,NTS,C,1
8,2,test,2,C,circle.png,1,m,Thu May 14 2026 09:11:13 GMT-0500 (Central Daylight Time),469247.59999999404,1200,I,m,725,23,2,1944.5999999940395,467303.0,8085,NTS,C,2
2,3,test,2,C,circle.png,1,z,Thu May 14 2026 09:11:13 GMT-0500 (Central Daylight Time),471747.1999999881,1700,I,z,773,10,2,2495.5999999940395,469251.59999999404,8085,NTS,C,3
8,4,test,2,C,triangle.png,1,m,Thu May 14 2026 09:11:13 GMT-0500 (Central Daylight Time),474379.5,1600,I,m,1004,7,2,2628.9000000059605,471750.59999999404,8085,NTS,C,4
3,5,test,2,C,triangle.png,1,z,Thu May 14 2026 09:11:13 GMT-0500 (Central Daylight Time),476212.09999999404,1200,I,z,613,3,2,1828.5999999940395,474383.5,8085,NTS,C,5
3,6,test,2,C,circle.png,1,z,Thu May 14 2026 09:11:13 GMT-0500 (Central Daylight Time),478496.1999999881,1600,I,z,667,19,2,2280.699999988079,476215.5,8085,NTS,C,6
1,7,test,2,C,triangle.png,1,z,Thu May 14 2026 09:11:13 GMT-0500 (Central Daylight Time),481044.0,1900,I,z,630,17,2,2543.800000011921,478500.1999999881,8085,NTS,C,7
6,8,test,2,C,triangle.png,1,m,Thu May 14 2026 09:11:13 GMT-0500 (Central Daylight Time),482760.5,1000,I,m,692,21,2,1712.699999988079,481047.8000000119,8085,NTS,C,8
4,8,test,2,C,triangle.png,0,m,Thu May 14 2026 09:11:13 GMT-0500 (Central Daylight Time),485176.90000000596,1500,I,z,892,20,2,2412.800000011921,482764.09999999404,8085,NTS,C,9
7,9,test,2,C,circle.png,1,m,Thu May 14 2026 09:11:13 GMT-0500 (Central Daylight Time),487908.90000000596,2000,I,m,704,22,2,2728.5,485180.40000000596,8085,NTS,C,10
3,10,test,2,C,circle.png,1,z,Thu May 14 2026 09:11:13 GMT-0500 (Central Daylight Time),490224.40000000596,1600,I,z,699,11,2,2311.800000011921,487912.59999999404,8085,NTS,C,11
9,11,test,2,C,circle.png,1,m,Thu May 14 2026 09:11:13 GMT-0500 (Central Daylight Time),492440.59999999404,1500,I,m,683,8,2,2212.0999999940395,490228.5,8085,NTS,C,12
2,12,test,2,C,triangle.png,1,m,Thu May 14 2026 09:11:13 GMT-0500 (Central Daylight Time),495139.8000000119,2000,I,m,679,2,2,2695.4000000059605,492444.40000000596,8085,NTS,C,13
7,13,test,2,C,circle.png,1,m,Thu May 14 2026 09:11:13 GMT-0500 (Central Daylight Time),498455.3000000119,2000,I,m,1292,14,2,3311.600000023842,495143.6999999881,8085,NTS,C,14
6,14,test,2,C,triangle.png,1,m,Thu May 14 2026 09:11:13 GMT-0500 (Central Daylight Time),500672.1999999881,1000,I,m,1199,13,2,2213.0,498459.1999999881,8085,NTS,C,15
4,15,test,2,C,triangle.png,1,m,Thu May 14 2026 09:11:13 GMT-0500 (Central Daylight Time),503170.40000000596,1500,I,m,973,12,2,2494.5,500675.90000000596,8085,NTS,C,16
8,16,test,2,C,circle.png,1,m,Thu May 14 2026 09:11:13 GMT-0500 (Central Daylight Time),505153.1999999881,1200,I,m,750,15,2,1978.8999999761581,503174.3000000119,8085,NTS,C,17
9,16,test,2,C,triangle.png,0,z,Thu May 14 2026 09:11:13 GMT-0500 (Central Daylight Time),507285.59999999404,1400,I,m,701,24,2,2128.199999988079,505157.40000000596,8085,NTS,C,18
4,16,test,2,C,circle.png,0,z,Thu May 14 2026 09:11:13 GMT-0500 (Central Daylight Time),509468.1999999881,1400,I,m,770,4,2,2178.7999999821186,507289.40000000596,8085,NTS,C,19
6,17,test,2,C,circle.png,1,m,Thu May 14 2026 09:11:13 GMT-0500 (Central Daylight Time),512234.3000000119,1900,I,m,847,5,2,2762.300000011921,509472.0,8085,NTS,C,20
9,18,test,2,C,triangle.png,1,z,Thu May 14 2026 09:11:13 GMT-0500 (Central Daylight Time),514517.09999999404,1400,I,z,826,16,2,2278.4000000059605,512238.6999999881,8085,NTS,C,21
1,19,test,2,C,triangle.png,1,z,Thu May 14 2026 09:11:13 GMT-0500 (Central Daylight Time),517050.40000000596,1900,I,z,615,9,2,2529.4000000059605,514521.0,8085,NTS,C,22
7,20,test,2,C,triangle.png,1,z,Thu May 14 2026 09:11:13 GMT-0500 (Central Daylight Time),519598.8000000119,1700,I,z,820,6,2,2544.0,517054.8000000119,8085,NTS,C,23
1,21,test,2,C,circle.png,1,z,Thu May 14 2026 09:11:13 GMT-0500 (Central Daylight Time),521298.1999999881,1000,I,z,673,1,2,1695.3999999761581,519602.8000000119,8085,NTS,C,24
9,0,test,3,C,circle.png,0,m,Thu May 14 2026 09:11:13 GMT-0500 (Central Daylight Time),526080.3000000119,1500,I,z,1000,8,2,2529.600000023842,523550.6999999881,8085,NTS,C,1
8,1,test,3,C,circle.png,1,m,Thu May 14 2026 09:11:13 GMT-0500 (Central Daylight Time),528146.0,1200,I,m,841,15,2,2061.800000011921,526084.1999999881,8085,NTS,C,2
4,2,test,3,C,circle.png,1,z,Thu May 14 2026 09:11:13 GMT-0500 (Central Daylight Time),530395.400000006,1400,I,z,821,20,2,2244.9000000059605,528150.5,8085,NTS,C,3
6,2,test,3,C,triangle.png,0,m,Thu May 14 2026 09:11:13 GMT-0500 (Central Daylight Time),532511.1999999881,1000,I,z,1092,13,2,2111.7999999821186,530399.400000006,8085,NTS,C,4
2,3,test,3,C,triangle.png,1,m,Thu May 14 2026 09:11:13 GMT-0500 (Central Daylight Time),535893.599999994,2000,I,m,1361,2,2,3378.699999988079,532514.900000006,8085,NTS,C,5
6,4,test,3,C,circle.png,1,m,Thu May 14 2026 09:11:13 GMT-0500 (Central Daylight Time),538592.5,1900,I,m,782,5,2,2694.9000000059605,535897.599999994,8085,NTS,C,6
9,5,test,3,C,circle.png,1,m,Thu May 14 2026 09:11:13 GMT-0500 (Central Daylight Time),540875.3000000119,1500,I,m,763,24,2,2278.800000011921,538596.5,8085,NTS,C,7
8,6,test,3,C,triangle.png,1,m,Thu May 14 2026 09:11:13 GMT-0500 (Central Daylight Time),543224.5,1600,I,m,732,23,2,2345.300000011921,540879.1999999881,8085,NTS,C,8
6,7,test,3,C,circle.png,1,m,Thu May 14 2026 09:11:13 GMT-0500 (Central Daylight Time),545940.3000000119,1900,I,m,795,21,2,2712.100000023842,543228.1999999881,8085,NTS,C,9
7,8,test,3,C,triangle.png,1,z,Thu May 14 2026 09:11:13 GMT-0500 (Central Daylight Time),548489.5,1700,I,z,822,6,2,2545.4000000059605,545944.099999994,8085,NTS,C,10
8,9,test,3,C,triangle.png,1,m,Thu May 14 2026 09:11:13 GMT-0500 (Central Daylight Time),550756.8000000119,1600,I,m,638,7,2,2263.600000023842,548493.1999999881,8085,NTS,C,11
3,10,test,3,C,triangle.png,1,z,Thu May 14 2026 09:11:13 GMT-0500 (Central Daylight Time),552838.3000000119,1200,I,z,853,19,2,2077.4000000059605,550760.900000006,8085,NTS,C,12
1,11,test,3,C,circle.png,1,z,Thu May 14 2026 09:11:13 GMT-0500 (Central Daylight Time),554604.1999999881,1000,I,z,746,1,2,1762.0999999940395,552842.099999994,8085,NTS,C,13
1,12,test,3,C,triangle.png,1,z,Thu May 14 2026 09:11:13 GMT-0500 (Central Daylight Time),557303.400000006,1900,I,z,775,9,2,2695.300000011921,554608.099999994,8085,NTS,C,14
7,13,test,3,C,circle.png,1,m,Thu May 14 2026 09:11:13 GMT-0500 (Central Daylight Time),560069.3000000119,2000,I,m,744,14,2,2762.2000000178814,557307.099999994,8085,NTS,C,15
3,14,test,3,C,circle.png,1,z,Thu May 14 2026 09:11:13 GMT-0500 (Central Daylight Time),562518.3000000119,1600,I,z,818,11,2,2445.300000011921,560073.0,8085,NTS,C,16
7,15,test,3,C,triangle.png,1,z,Thu May 14 2026 09:11:13 GMT-0500 (Central Daylight Time),565051.099999994,1700,I,z,814,22,2,2528.699999988079,562522.400000006,8085,NTS,C,17
3,16,test,3,C,triangle.png,1,z,Thu May 14 2026 09:11:13 GMT-0500 (Central Daylight Time),567117.0,1200,I,z,844,3,2,2062.199999988079,565054.8000000119,8085,NTS,C,18
2,17,test,3,C,triangle.png,1,m,Thu May 14 2026 09:11:13 GMT-0500 (Central Daylight Time),569899.5,2000,I,m,764,18,2,2778.699999988079,567120.8000000119,8085,NTS,C,19
4,17,test,3,C,triangle.png,0,m,Thu May 14 2026 09:11:13 GMT-0500 (Central Daylight Time),572648.599999994,1500,I,z,1232,12,2,2745.5,569903.099999994,8085,NTS,C,20
9,18,test,3,C,triangle.png,1,z,Thu May 14 2026 09:11:13 GMT-0500 (Central Daylight Time),574898.900000006,1400,I,z,831,16,2,2246.5,572652.400000006,8085,NTS,C,21
2,19,test,3,C,circle.png,1,z,Thu May 14 2026 09:11:13 GMT-0500 (Central Daylight Time),577563.6999999881,1700,I,z,945,10,2,2660.7999999821186,574902.900000006,8085,NTS,C,22
1,20,test,3,C,circle.png,1,z,Thu May 14 2026 09:11:13 GMT-0500 (Central Daylight Time),579263.1999999881,1000,I,z,668,17,2,1695.699999988079,577567.5,8085,NTS,C,23
4,20,test,3,C,circle.png,0,z,Thu May 14 2026 09:11:13 GMT-0500 (Central Daylight Time),581579.099999994,1400,I,m,888,4,2,2312.0999999940395,579267.0,8085,NTS,C,24
4,1,test,4,C,triangle.png,1,m,Thu May 14 2026 09:11:13 GMT-0500 (Central Daylight Time),586612.099999994,1500,I,m,1231,12,2,2747.199999988079,583864.900000006,8085,NTS,C,1
6,2,test,4,C,triangle.png,1,m,Thu May 14 2026 09:11:13 GMT-0500 (Central Daylight Time),588293.6999999881,1000,I,m,661,13,2,1677.699999988079,586616.0,8085,NTS,C,2
6,3,test,4,C,circle.png,1,m,Thu May 14 2026 09:11:13 GMT-0500 (Central Daylight Time),590826.3000000119,1900,I,m,607,21,2,2528.600000023842,588297.6999999881,8085,NTS,C,3
3,4,test,4,C,circle.png,1,z,Thu May 14 2026 09:11:13 GMT-0500 (Central Daylight Time),593508.599999994,1600,I,z,1060,11,2,2678.2999999821186,590830.3000000119,8085,NTS,C,4
4,5,test,4,C,circle.png,1,z,Thu May 14 2026 09:11:13 GMT-0500 (Central Daylight Time),595591.1999999881,1400,I,z,659,4,2,2078.699999988079,593512.5,8085,NTS,C,5
2,6,test,4,C,triangle.png,1,m,Thu May 14 2026 09:11:13 GMT-0500 (Central Daylight Time),598575.0,2000,I,m,952,2,2,2980.0999999940395,595594.900000006,8085,NTS,C,6
9,7,test,4,C,triangle.png,1,z,Thu May 14 2026 09:11:13 GMT-0500 (Central Daylight Time),600756.400000006,1400,I,z,762,16,2,2177.0999999940395,598579.3000000119,8085,NTS,C,7
7,8,test,4,C,triangle.png,1,z,Thu May 14 2026 09:11:13 GMT-0500 (Central Daylight Time),603255.8000000119,1700,I,z,767,22,2,2495.7000000178814,600760.099999994,8085,NTS,C,8
4,8,test,4,C,circle.png,0,z,Thu May 14 2026 09:11:13 GMT-0500 (Central Daylight Time),605621.8000000119,1400,I,m,936,20,2,2362.300000011921,603259.5,8085,NTS,C,9
6,9,test,4,C,circle.png,1,m,Thu May 14 2026 09:11:13 GMT-0500 (Central Daylight Time),608353.900000006,1900,I,m,815,5,2,2728.5,605625.400000006,8085,NTS,C,10
7,10,test,4,C,circle.png,1,m,Thu May 14 2026 09:11:13 GMT-0500 (Central Daylight Time),611136.6999999881,2000,I,m,751,14,2,2779.2999999821186,608357.400000006,8085,NTS,C,11
2,11,test,4,C,circle.png,1,z,Thu May 14 2026 09:11:13 GMT-0500 (Central Daylight Time),613619.1999999881,1700,I,z,763,10,2,2478.699999988079,611140.5,8085,NTS,C,12
8,12,test,4,C,triangle.png,1,m,Thu May 14 2026 09:11:13 GMT-0500 (Central Daylight Time),616468.1999999881,1600,I,m,1230,23,2,2844.7999999821186,613623.400000006,8085,NTS,C,13
1,13,test,4,C,triangle.png,1,z,Thu May 14 2026 09:11:13 GMT-0500 (Central Daylight Time),618884.1999999881,1900,I,z,497,9,2,2412.0,616472.1999999881,8085,NTS,C,14
3,14,test,4,C,triangle.png,1,z,Thu May 14 2026 09:11:13 GMT-0500 (Central Daylight Time),620683.400000006,1200,I,z,580,19,2,1794.9000000059605,618888.5,8085,NTS,C,15
9,15,test,4,C,circle.png,1,m,Thu May 14 2026 09:11:13 GMT-0500 (Central Daylight Time),623232.900000006,1500,I,m,1017,8,2,2545.7000000178814,620687.1999999881,8085,NTS,C,16
1,16,test,4,C,circle.png,1,z,Thu May 14 2026 09:11:13 GMT-0500 (Central Daylight Time),625165.6999999881,1000,I,z,912,1,2,1928.5999999940395,623237.099999994,8085,NTS,C,17
7,17,test,4,C,triangle.png,1,z,Thu May 14 2026 09:11:13 GMT-0500 (Central Daylight Time),628298.8000000119,1700,I,z,1415,6,2,3129.4000000059605,625169.400000006,8085,NTS,C,18
1,18,test,4,C,circle.png,1,z,Thu May 14 2026 09:11:13 GMT-0500 (Central Daylight Time),630380.400000006,1000,I,z,1062,17,2,2077.5999999940395,628302.8000000119,8085,NTS,C,19
3,19,test,4,C,triangle.png,1,z,Thu May 14 2026 09:11:13 GMT-0500 (Central Daylight Time),632446.599999994,1200,I,z,835,3,2,2062.699999988079,630383.900000006,8085,NTS,C,20
2,19,test,4,C,triangle.png,0,m,Thu May 14 2026 09:11:13 GMT-0500 (Central Daylight Time),635362.3000000119,2000,I,z,890,18,2,2911.800000011921,632450.5,8085,NTS,C,21
9,20,test,4,C,circle.png,1,m,Thu May 14 2026 09:11:13 GMT-0500 (Central Daylight Time),637711.599999994,1500,I,m,817,24,2,2345.5,635366.099999994,8085,NTS,C,22
8,21,test,4,C,triangle.png,1,m,Thu May 14 2026 09:11:13 GMT-0500 (Central Daylight Time),640177.400000006,1600,I,m,849,7,2,2461.9000000059605,637715.5,8085,NTS,C,23
8,22,test,4,C,circle.png,1,m,Thu May 14 2026 09:11:13 GMT-0500 (Central Daylight Time),642176.6999999881,1200,I,m,782,15,2,1995.7999999821186,640180.900000006,8085,NTS,C,24
