acc_sum,block,block_c,condition,correct,correct_response,datetime,endtime,flanker,jitter,project,response,response_test_buffer_response,response_test_target_response,response_time,response_time_test_buffer_response,response_time_test_target_response,row_sel,session_number,start_end,starttime,subject_id,target,task,task_vers,time_test_buffer,time_test_buffer_response,time_test_constants,time_test_flanker,time_test_jitter,time_test_logger,time_test_target,time_test_target_response,time_test_variables,trial
1,prac,1,inc,1,z,Wed May 28 2025 16:02:38 GMT-0400 (Eastern Daylight Time),152994.70000004768,cobalt,1100,I,z,,,1350,,,4,1,3757.400000035763,149237.30000001192,9019,raisin,NF,C,,,,,,,,,,1
2,prac,1,con,1,m,Wed May 28 2025 16:02:38 GMT-0400 (Eastern Daylight Time),156111.40000003576,silver,1000,I,m,,,811,,,11,1,3106.100000023842,153005.30000001192,9019,silver,NF,C,,,,,,,,,,2
3,prac,1,inc,1,m,Wed May 28 2025 16:02:38 GMT-0400 (Eastern Daylight Time),158977.70000004768,cherry,900,I,m,,,651,,,10,1,2853.100000023842,156124.60000002384,9019,copper,NF,C,,,,,,,,,,3
4,prac,1,con,1,z,Wed May 28 2025 16:02:38 GMT-0400 (Eastern Daylight Time),162044.40000003576,banana,800,I,z,,,949,,,1,1,3056.199999988079,158988.20000004768,9019,banana,NF,C,,,,,,,,,,4
5,prac,1,inc,1,m,Wed May 28 2025 16:02:38 GMT-0400 (Eastern Daylight Time),165127.70000004768,raisin,1100,I,m,,,671,,,12,1,3073.400000035763,162054.30000001192,9019,cobalt,NF,C,,,,,,,,,,5
6,prac,1,con,1,m,Wed May 28 2025 16:02:38 GMT-0400 (Eastern Daylight Time),168144.40000003576,gold,800,I,m,,,903,,,13,1,3005.400000035763,165139.0,9019,gold,NF,C,,,,,,,,,,6
7,prac,1,inc,1,z,Wed May 28 2025 16:02:38 GMT-0400 (Eastern Daylight Time),171027.90000003576,iron,900,I,z,,,666,,,6,1,2873.100000023842,168154.80000001192,9019,pear,NF,C,,,,,,,,,,7
8,prac,1,con,1,z,Wed May 28 2025 16:02:38 GMT-0400 (Eastern Daylight Time),173961.10000002384,lime,800,I,z,,,827,,,5,1,2923.100000023842,171038.0,9019,lime,NF,C,,,,,,,,,,8
9,prac,1,con,1,m,Wed May 28 2025 16:02:38 GMT-0400 (Eastern Daylight Time),176961.10000002384,zinc,1000,I,m,,,686,,,15,1,2990.300000011921,173970.80000001192,9019,zinc,NF,C,,,,,,,,,,9
10,prac,1,con,1,z,Wed May 28 2025 16:02:38 GMT-0400 (Eastern Daylight Time),179444.40000003576,orange,1000,I,z,,,175,,,3,1,2474.100000023842,176970.30000001192,9019,orange,NF,C,,,,,,,,,,10
11,prac,1,inc,1,z,Wed May 28 2025 16:02:38 GMT-0400 (Eastern Daylight Time),182611.30000001192,lead,1100,I,z,,,758,,,8,1,3155.800000011921,179455.5,9019,plum,NF,C,,,,,,,,,,11
12,prac,1,inc,1,z,Wed May 28 2025 16:02:38 GMT-0400 (Eastern Daylight Time),185627.80000001192,copper,900,I,z,,,807,,,2,1,3006.800000011921,182621.0,9019,cherry,NF,C,,,,,,,,,,12
13,prac,1,inc,1,m,Wed May 28 2025 16:02:38 GMT-0400 (Eastern Daylight Time),188694.40000003576,plum,1100,I,m,,,663,,,16,1,3055.400000035763,185639.0,9019,lead,NF,C,,,,,,,,,,13
14,prac,1,con,1,z,Wed May 28 2025 16:02:38 GMT-0400 (Eastern Daylight Time),191644.0,kiwi,1000,I,z,,,649,,,7,1,2939.399999976158,188704.60000002384,9019,kiwi,NF,C,,,,,,,,,,14
15,prac,1,con,1,m,Wed May 28 2025 16:02:38 GMT-0400 (Eastern Daylight Time),194461.10000002384,bronze,800,I,m,,,715,,,9,1,2810.600000023842,191650.5,9019,bronze,NF,C,,,,,,,,,,15
16,prac,1,inc,1,m,Wed May 28 2025 16:02:38 GMT-0400 (Eastern Daylight Time),197261.0,pear,900,I,m,,,590,,,14,1,2790.099999964237,194470.90000003576,9019,iron,NF,C,,,,,,,,,,16
1,test,1,inc,1,z,Wed May 28 2025 16:02:38 GMT-0400 (Eastern Daylight Time),212761.30000001192,copper,900,I,z,z,None,622,422.0,200.0,6,1,2058.599999964237,210702.70000004768,9019,banana,NF,C,207298,207298,205673,206582,205673,207731,207098,207098,207731,1
2,test,1,con,1,m,Wed May 28 2025 16:02:38 GMT-0400 (Eastern Daylight Time),214894.60000002384,copper,800,I,m,m,None,798,599.0,199.0,73,1,2120.800000011921,212773.80000001192,9019,copper,NF,C,209265,209265,207744,208548,207744,209865,209065,209065,209864,2
3,test,1,con,1,m,Wed May 28 2025 16:02:38 GMT-0400 (Eastern Daylight Time),217077.60000002384,lead,1100,I,m,m,None,541,342.0,199.0,124,1,2172.699999988079,214904.90000003576,9019,lead,NF,C,211698,211698,209875,210982,209876,212048,211499,211499,212048,3
4,test,1,con,1,z,Wed May 28 2025 16:02:38 GMT-0400 (Eastern Daylight Time),219277.70000004768,lime,1100,I,z,z,None,549,350.0,199.0,36,1,2188.400000035763,217089.30000001192,9019,lime,NF,C,213882,213882,212059,213165,212060,214248,213682,213682,214248,4
5,test,1,con,1,z,Wed May 28 2025 16:02:38 GMT-0400 (Eastern Daylight Time),221394.30000001192,cherry,800,I,z,z,None,777,578.0,199.0,9,1,2107.099999964237,219287.20000004768,9019,cherry,NF,C,215781,215782,214257,215065,214258,216364,215582,215582,216364,5
6,test,1,inc,1,m,Wed May 28 2025 16:02:38 GMT-0400 (Eastern Daylight Time),223295.20000004768,banana,800,I,m,m,None,564,365.0,199.0,77,1,1891.5,221403.70000004768,9019,copper,NF,C,217898,217898,216374,217182,216374,218265,217699,217699,218265,6
7,test,1,con,1,m,Wed May 28 2025 16:02:38 GMT-0400 (Eastern Daylight Time),225561.0,bronze,1000,I,m,m,None,720,521.0,199.0,67,1,2255.0,223306.0,9019,bronze,NF,C,219998,219999,218276,219281,218277,220531,219799,219799,220531,7
8,test,1,con,1,m,Wed May 28 2025 16:02:38 GMT-0400 (Eastern Daylight Time),227944.30000001192,silver,1000,I,m,m,None,839,640.0,199.0,83,1,2373.5,225570.80000001192,9019,silver,NF,C,222264,222264,220541,221548,220541,222914,222065,222065,222914,8
9,test,1,con,1,m,Wed May 28 2025 16:02:38 GMT-0400 (Eastern Daylight Time),229994.40000003576,gold,900,I,m,m,None,604,404.0,200.0,98,1,2040.300000011921,227954.10000002384,9019,gold,NF,C,224548,224548,222924,223832,222925,224964,224348,224348,224964,9
10,test,1,inc,1,m,Wed May 28 2025 16:02:38 GMT-0400 (Eastern Daylight Time),232261.0,plum,1100,I,m,m,None,625,426.0,199.0,112,1,2254.199999988079,230006.80000001192,9019,iron,NF,C,226798,226798,224977,226082,224977,227231,226599,226599,227231,10
11,test,1,inc,1,m,Wed May 28 2025 16:02:38 GMT-0400 (Eastern Daylight Time),234527.80000001192,cherry,900,I,m,m,None,822,623.0,199.0,78,1,2255.899999976158,232271.90000003576,9019,copper,NF,C,228865,228865,227242,228149,227243,229498,228665,228665,229498,11
12,test,1,inc,1,m,Wed May 28 2025 16:02:38 GMT-0400 (Eastern Daylight Time),236694.40000003576,kiwi,1000,I,m,m,None,631,432.0,199.0,103,1,2156.800000011921,234537.60000002384,9019,gold,NF,C,231232,231232,229508,230515,229508,231664,231032,231032,231664,12
13,test,1,con,1,z,Wed May 28 2025 16:02:38 GMT-0400 (Eastern Daylight Time),238894.60000002384,raisin,1000,I,z,z,None,665,450.0,215.0,27,1,2193.0,236701.60000002384,9019,raisin,NF,C,233414,233414,231672,232682,231672,233865,233199,233199,233865,13
14,test,1,inc,1,m,Wed May 28 2025 16:02:38 GMT-0400 (Eastern Daylight Time),241061.0,kiwi,1000,I,m,m,None,616,417.0,199.0,111,1,2158.2999999523163,238902.70000004768,9019,iron,NF,C,235598,235598,233873,234882,233873,236031,235399,235399,236031,14
15,test,1,inc,1,z,Wed May 28 2025 16:02:38 GMT-0400 (Eastern Daylight Time),243227.70000004768,silver,1000,I,z,z,None,626,427.0,199.0,7,1,2158.100000023842,241069.60000002384,9019,banana,NF,C,237765,237765,236040,237049,236040,238198,237565,237565,238198,15
16,test,1,con,1,z,Wed May 28 2025 16:02:38 GMT-0400 (Eastern Daylight Time),245561.60000002384,kiwi,900,I,z,z,None,894,695.0,199.0,50,1,2322.800000011921,243238.80000001192,9019,kiwi,NF,C,239832,239832,238209,239115,238209,240532,239632,239632,240532,16
17,test,1,inc,1,m,Wed May 28 2025 16:02:38 GMT-0400 (Eastern Daylight Time),247461.0,lime,800,I,m,m,None,549,350.0,199.0,101,1,1891.699999988079,245569.30000001192,9019,gold,NF,C,242065,242065,240539,241348,240540,242431,241865,241865,242431,17
18,test,1,inc,1,z,Wed May 28 2025 16:02:38 GMT-0400 (Eastern Daylight Time),249594.10000002384,silver,1000,I,z,z,None,585,386.0,199.0,15,1,2123.800000011921,247470.30000001192,9019,cherry,NF,C,244165,244165,242440,243449,242441,244564,243965,243965,244564,18
19,test,1,con,1,z,Wed May 28 2025 16:02:38 GMT-0400 (Eastern Daylight Time),251561.5,lime,800,I,z,z,None,629,430.0,199.0,33,1,1959.5999999642372,249601.90000003576,9019,lime,NF,C,246098,246098,244572,245382,244572,246532,245899,245899,246532,19
20,test,1,inc,1,m,Wed May 28 2025 16:02:38 GMT-0400 (Eastern Daylight Time),253744.10000002384,orange,1000,I,m,m,None,646,447.0,199.0,71,1,2177.0,251567.10000002384,9019,bronze,NF,C,248265,248265,246537,247548,246538,248714,248065,248065,248714,20
21,test,1,con,1,z,Wed May 28 2025 16:02:38 GMT-0400 (Eastern Daylight Time),255894.40000003576,lime,900,I,z,z,None,698,499.0,199.0,34,1,2133.300000011921,253761.10000002384,9019,lime,NF,C,250365,250365,248731,249649,248732,250865,250165,250165,250864,21
22,test,1,con,1,m,Wed May 28 2025 16:02:38 GMT-0400 (Eastern Daylight Time),258027.60000002384,iron,900,I,m,m,None,693,494.0,199.0,106,1,2123.100000023842,255904.5,9019,iron,NF,C,252498,252498,250875,251782,250875,252998,252299,252299,252998,22
23,test,1,inc,1,z,Wed May 28 2025 16:02:38 GMT-0400 (Eastern Daylight Time),260261.0,lead,1100,I,z,z,None,584,384.0,200.0,40,1,2223.699999988079,258037.30000001192,9019,lime,NF,C,254832,254832,253007,254115,253008,255231,254631,254631,255231,23
24,test,1,inc,1,z,Wed May 28 2025 16:02:38 GMT-0400 (Eastern Daylight Time),262544.2000000477,lead,1100,I,z,z,None,646,447.0,199.0,56,1,2273.5,260270.70000004768,9019,kiwi,NF,C,257065,257065,255241,256349,255241,257514,256865,256865,257514,24
25,test,1,con,1,m,Wed May 28 2025 16:02:38 GMT-0400 (Eastern Daylight Time),264777.7000000477,bronze,1100,I,m,m,None,587,388.0,199.0,68,1,2224.2000000476837,262553.5,9019,bronze,NF,C,259348,259348,257524,258632,257524,259748,259149,259149,259748,25
26,test,1,con,1,m,Wed May 28 2025 16:02:38 GMT-0400 (Eastern Daylight Time),266744.10000002384,zinc,800,I,m,m,None,628,429.0,199.0,113,1,1956.5,264787.60000002384,9019,zinc,NF,C,261282,261282,259758,260565,259758,261714,261082,261082,261714,26
27,test,1,inc,1,z,Wed May 28 2025 16:02:38 GMT-0400 (Eastern Daylight Time),268661.0,bronze,800,I,z,z,None,567,368.0,199.0,5,1,1911.0999999642372,266749.90000003576,9019,banana,NF,C,263248,263248,261720,262534,261720,263631,263048,263049,263631,27
28,test,1,con,1,m,Wed May 28 2025 16:02:38 GMT-0400 (Eastern Daylight Time),270910.7000000477,cobalt,1000,I,m,m,None,714,515.0,199.0,91,1,2240.800000011921,268669.90000003576,9019,cobalt,NF,C,265365,265365,263640,264648,263640,265881,265165,265165,265881,28
29,test,1,con,1,m,Wed May 28 2025 16:02:38 GMT-0400 (Eastern Daylight Time),272927.5,lead,800,I,m,m,None,663,464.0,199.0,121,1,2001.0,270926.5,9019,lead,NF,C,267432,267432,265897,266715,265898,267898,267232,267232,267897,29
30,test,1,inc,1,m,Wed May 28 2025 16:02:38 GMT-0400 (Eastern Daylight Time),274927.7000000477,lime,800,I,m,m,None,639,440.0,199.0,109,1,1984.5,272943.2000000477,9019,iron,NF,C,269448,269448,267913,268732,267915,269898,269249,269249,269898,30
31,test,1,con,1,m,Wed May 28 2025 16:02:38 GMT-0400 (Eastern Daylight Time),277211.0,iron,1100,I,m,m,None,627,428.0,199.0,108,1,2267.699999988079,274943.3000000119,9019,iron,NF,C,271748,271748,269913,271032,269915,272181,271549,271549,272181,31
32,test,1,inc,1,m,Wed May 28 2025 16:02:38 GMT-0400 (Eastern Daylight Time),279327.90000003576,orange,1000,I,m,m,None,572,373.0,199.0,87,1,2108.300000011921,277219.60000002384,9019,silver,NF,C,273915,273915,272190,273198,272190,274298,273715,273715,274298,32
33,test,1,con,1,m,Wed May 28 2025 16:02:38 GMT-0400 (Eastern Daylight Time),281860.8000000119,iron,1000,I,m,m,None,983,784.0,199.0,107,1,2523.199999988079,279337.60000002384,9019,iron,NF,C,276032,276032,274308,275315,274308,276831,275832,275832,276831,33
34,test,1,inc,1,z,Wed May 28 2025 16:02:38 GMT-0400 (Eastern Daylight Time),283844.3000000119,gold,800,I,z,z,None,642,443.0,199.0,37,1,1972.8999999761581,281871.40000003576,9019,lime,NF,C,278365,278365,276841,277648,276842,278814,278165,278165,278814,34
35,test,1,con,1,m,Wed May 28 2025 16:02:38 GMT-0400 (Eastern Daylight Time),285861.0,gold,800,I,m,m,None,674,475.0,199.0,97,1,2007.5,283853.5,9019,gold,NF,C,280349,280349,278824,279632,278824,280831,280148,280149,280831,35
36,test,1,con,1,m,Wed May 28 2025 16:02:38 GMT-0400 (Eastern Daylight Time),287994.3000000119,bronze,800,I,m,m,None,793,594.0,199.0,65,1,2124.899999976158,285869.40000003576,9019,bronze,NF,C,282365,282365,280839,281649,280840,282964,282165,282165,282964,36
37,test,1,con,1,m,Wed May 28 2025 16:02:38 GMT-0400 (Eastern Daylight Time),290361.0,lead,1000,I,m,m,None,829,630.0,199.0,123,1,2357.599999964237,288003.40000003576,9019,lead,NF,C,284698,284698,282973,283982,282974,285331,284499,284499,285331,37
38,test,1,con,1,z,Wed May 28 2025 16:02:38 GMT-0400 (Eastern Daylight Time),292327.5,orange,900,I,z,z,None,531,332.0,199.0,18,1,1955.7999999523163,290371.7000000477,9019,orange,NF,C,286964,286964,285342,286248,285342,287298,286765,286765,287297,38
39,test,1,con,1,m,Wed May 28 2025 16:02:38 GMT-0400 (Eastern Daylight Time),294494.60000002384,zinc,900,I,m,m,None,731,532.0,199.0,114,1,2157.800000011921,292336.8000000119,9019,zinc,NF,C,288932,288932,287307,288215,287307,289465,288732,288732,289465,39
40,test,1,inc,1,m,Wed May 28 2025 16:02:38 GMT-0400 (Eastern Daylight Time),296494.40000003576,pear,900,I,m,m,None,556,341.0,215.0,118,1,1990.9000000357628,294503.5,9019,zinc,NF,C,291115,291115,289473,290382,289474,291465,290899,290899,291464,40
41,test,1,inc,1,z,Wed May 28 2025 16:02:38 GMT-0400 (Eastern Daylight Time),298644.40000003576,gold,800,I,z,z,None,809,610.0,199.0,61,1,2140.699999988079,296503.7000000477,9019,plum,NF,C,292998,292998,291474,292282,291474,293614,292799,292799,293614,41
42,test,1,inc,1,m,Wed May 28 2025 16:02:38 GMT-0400 (Eastern Daylight Time),300910.8000000119,raisin,1100,I,m,m,None,631,432.0,199.0,80,1,2257.099999964237,298653.7000000477,9019,copper,NF,C,295448,295448,293624,294732,293624,295881,295249,295249,295881,42
43,test,1,con,1,m,Wed May 28 2025 16:02:38 GMT-0400 (Eastern Daylight Time),303310.7000000477,silver,1100,I,m,m,None,764,565.0,199.0,84,1,2388.300000011921,300922.40000003576,9019,silver,NF,C,297715,297715,295892,296998,295893,298281,297515,297515,298281,43
44,test,1,con,1,z,Wed May 28 2025 16:02:38 GMT-0400 (Eastern Daylight Time),305277.8000000119,kiwi,800,I,z,z,None,631,432.0,199.0,49,1,1958.699999988079,303319.10000002384,9019,kiwi,NF,C,299815,299815,298289,299098,298289,300248,299615,299615,300248,44
45,test,1,con,1,m,Wed May 28 2025 16:02:38 GMT-0400 (Eastern Daylight Time),307361.10000002384,silver,800,I,m,m,None,737,538.0,199.0,81,1,2075.5,305285.60000002384,9019,silver,NF,C,301782,301782,300256,301065,300256,302331,301582,301582,302331,45
46,test,1,con,1,z,Wed May 28 2025 16:02:38 GMT-0400 (Eastern Daylight Time),309411.10000002384,orange,800,I,z,z,None,710,511.0,199.0,17,1,2041.0,307370.10000002384,9019,orange,NF,C,303865,303865,302340,303148,302341,304381,303665,303665,304381,46
47,test,1,con,1,m,Wed May 28 2025 16:02:38 GMT-0400 (Eastern Daylight Time),311611.0,gold,1100,I,m,m,None,560,361.0,199.0,100,1,2190.7999999523163,309420.2000000477,9019,gold,NF,C,306215,306215,304390,305499,304391,306581,306015,306015,306581,47
48,test,1,inc,1,z,Wed May 28 2025 16:02:38 GMT-0400 (Eastern Daylight Time),313861.10000002384,copper,900,I,z,z,None,801,602.0,199.0,22,1,2241.0,311620.10000002384,9019,orange,NF,C,308214,308214,306590,307498,306591,308831,308015,308015,308831,48
49,test,1,con,1,z,Wed May 28 2025 16:02:38 GMT-0400 (Eastern Daylight Time),316044.40000003576,cherry,900,I,z,z,None,742,543.0,199.0,10,1,2173.400000035763,313871.0,9019,cherry,NF,C,310465,310465,308841,309748,308841,311014,310265,310265,311014,49
50,test,1,inc,1,m,Wed May 28 2025 16:02:38 GMT-0400 (Eastern Daylight Time),318011.0,banana,800,I,m,m,None,619,420.0,199.0,93,1,1957.5,316053.5,9019,cobalt,NF,C,312548,312548,311023,311831,311024,312981,312348,312349,312981,50
51,test,1,con,1,z,Wed May 28 2025 16:02:38 GMT-0400 (Eastern Daylight Time),320144.40000003576,pear,1000,I,z,z,None,588,389.0,199.0,43,1,2124.800000011921,318019.60000002384,9019,pear,NF,C,314715,314715,312990,313999,312990,315115,314515,314515,315114,51
52,test,1,con,1,z,Wed May 28 2025 16:02:38 GMT-0400 (Eastern Daylight Time),322360.8000000119,banana,1000,I,z,z,None,678,479.0,199.0,3,1,2207.0,320153.8000000119,9019,banana,NF,C,316848,316848,315124,316132,315124,317331,316649,316649,317331,52
53,test,1,inc,1,m,Wed May 28 2025 16:02:38 GMT-0400 (Eastern Daylight Time),324360.8000000119,cherry,900,I,m,m,None,553,354.0,199.0,94,1,1992.800000011921,322368.0,9019,cobalt,NF,C,318965,318965,317338,318249,317339,319331,318765,318765,319331,53
54,test,1,con,1,z,Wed May 28 2025 16:02:38 GMT-0400 (Eastern Daylight Time),326544.40000003576,raisin,800,I,z,z,None,838,639.0,199.0,25,1,2176.300000011921,324368.10000002384,9019,raisin,NF,C,320865,320865,319338,320149,319338,321515,320665,320665,321514,54
55,test,1,con,1,z,Wed May 28 2025 16:02:38 GMT-0400 (Eastern Daylight Time),328694.90000003576,pear,1100,I,z,z,None,515,316.0,199.0,44,1,2141.600000023842,326553.3000000119,9019,pear,NF,C,323348,323348,321523,322632,321524,323665,323149,323149,323665,55
56,test,1,inc,1,m,Wed May 28 2025 16:02:38 GMT-0400 (Eastern Daylight Time),330961.10000002384,raisin,1100,I,m,m,None,621,422.0,199.0,72,1,2255.800000011921,328705.3000000119,9019,bronze,NF,C,325498,325498,323675,324782,323676,325931,325299,325299,325931,56
57,test,1,inc,1,z,Wed May 28 2025 16:02:38 GMT-0400 (Eastern Daylight Time),333194.40000003576,cobalt,1100,I,z,z,None,585,370.0,215.0,24,1,2224.699999988079,330969.7000000477,9019,orange,NF,C,327782,327782,325940,327049,325940,328165,327566,327566,328164,57
58,test,1,con,1,z,Wed May 28 2025 16:02:38 GMT-0400 (Eastern Daylight Time),335327.7000000477,plum,900,I,z,z,None,689,490.0,199.0,58,1,2121.5,333206.2000000477,9019,plum,NF,C,329798,329798,328176,329081,328177,330298,329599,329599,330298,58
59,test,1,inc,1,z,Wed May 28 2025 16:02:38 GMT-0400 (Eastern Daylight Time),337294.5,gold,800,I,z,z,None,615,416.0,199.0,53,1,1957.3999999761581,335337.10000002384,9019,kiwi,NF,C,331832,331832,330307,331115,330308,332265,331632,331632,332264,59
60,test,1,inc,1,m,Wed May 28 2025 16:02:38 GMT-0400 (Eastern Daylight Time),339844.40000003576,plum,1100,I,m,m,None,901,686.0,215.0,120,1,2540.800000011921,337303.60000002384,9019,zinc,NF,C,334114,334114,332274,333382,332274,334815,333899,333899,334814,60
61,test,1,con,1,m,Wed May 28 2025 16:02:38 GMT-0400 (Eastern Daylight Time),342127.5,bronze,900,I,m,m,None,847,648.0,199.0,66,1,2272.899999976158,339854.60000002384,9019,bronze,NF,C,336448,336448,334825,335732,334825,337098,336249,336249,337098,61
62,test,1,con,1,z,Wed May 28 2025 16:02:38 GMT-0400 (Eastern Daylight Time),344310.8000000119,raisin,900,I,z,z,None,748,548.0,200.0,26,1,2171.099999964237,342139.7000000477,9019,raisin,NF,C,338731,338732,337110,338015,337110,339281,338531,338531,339281,62
63,test,1,con,1,m,Wed May 28 2025 16:02:38 GMT-0400 (Eastern Daylight Time),346727.5,silver,900,I,m,m,None,980,781.0,199.0,82,1,2408.2999999523163,344319.2000000477,9019,silver,NF,C,340915,340915,339289,340198,339290,341698,340715,340715,341698,63
64,test,1,con,1,z,Wed May 28 2025 16:02:38 GMT-0400 (Eastern Daylight Time),349244.40000003576,cherry,1100,I,z,z,None,875,676.0,199.0,12,1,2508.199999988079,346736.2000000477,9019,cherry,NF,C,343532,343532,341706,342815,341707,344215,343332,343332,344214,64
65,test,1,inc,1,m,Wed May 28 2025 16:02:38 GMT-0400 (Eastern Daylight Time),351177.8000000119,banana,800,I,m,m,None,587,388.0,199.0,85,1,1922.5,349255.3000000119,9019,silver,NF,C,345748,345748,344225,345032,344226,346148,345549,345549,346148,65
66,test,1,inc,1,m,Wed May 28 2025 16:02:38 GMT-0400 (Eastern Daylight Time),353077.7000000477,lime,800,I,m,m,None,550,351.0,199.0,117,1,1890.1000000238419,351187.60000002384,9019,zinc,NF,C,347681,347681,346158,346965,346158,348048,347482,347482,348048,66
67,test,1,con,1,z,Wed May 28 2025 16:02:38 GMT-0400 (Eastern Daylight Time),354861.10000002384,banana,800,I,z,z,None,433,234.0,199.0,1,1,1773.8999999761581,353087.2000000477,9019,banana,NF,C,349582,349582,348057,348865,348058,349831,349382,349382,349831,67
68,test,1,inc,1,z,Wed May 28 2025 16:02:38 GMT-0400 (Eastern Daylight Time),356977.8000000119,zinc,1000,I,z,z,None,578,379.0,199.0,55,1,2107.300000011921,354870.5,9019,kiwi,NF,C,351565,351565,349841,350849,349841,351948,351365,351365,351948,68
69,test,1,con,1,m,Wed May 28 2025 16:02:38 GMT-0400 (Eastern Daylight Time),359027.8000000119,cobalt,900,I,m,m,None,601,402.0,199.0,90,1,2040.300000011921,356987.5,9019,cobalt,NF,C,353582,353582,351958,352865,351958,353998,353382,353382,353998,69
70,test,1,inc,1,m,Wed May 28 2025 16:02:38 GMT-0400 (Eastern Daylight Time),361044.5,lime,800,I,m,m,None,667,468.0,199.0,125,1,2005.2999999523163,359039.2000000477,9019,lead,NF,C,355532,355532,354009,354815,354010,356015,355332,355332,356014,70
71,test,1,con,1,z,Wed May 28 2025 16:02:38 GMT-0400 (Eastern Daylight Time),363261.10000002384,kiwi,1000,I,z,z,None,667,468.0,199.0,51,1,2207.5,361053.60000002384,9019,kiwi,NF,C,357748,357748,356024,357032,356024,358231,357548,357548,358231,71
72,test,1,con,1,z,Wed May 28 2025 16:02:38 GMT-0400 (Eastern Daylight Time),365477.8000000119,lime,1000,I,z,z,None,675,475.0,200.0,35,1,2207.399999976158,363270.40000003576,9019,lime,NF,C,359965,359965,358240,359249,358241,360448,359764,359764,360448,72
73,test,1,inc,1,z,Wed May 28 2025 16:02:38 GMT-0400 (Eastern Daylight Time),367744.5,lead,1100,I,z,z,None,621,422.0,199.0,64,1,2257.199999988079,365487.3000000119,9019,plum,NF,C,362282,362282,360457,361565,360458,362715,362082,362082,362714,73
74,test,1,con,1,z,Wed May 28 2025 16:02:38 GMT-0400 (Eastern Daylight Time),369627.8000000119,plum,800,I,z,z,None,535,336.0,199.0,57,1,1874.199999988079,367753.60000002384,9019,plum,NF,C,364248,364248,362724,363532,362724,364598,364049,364049,364598,74
75,test,1,inc,1,z,Wed May 28 2025 16:02:38 GMT-0400 (Eastern Daylight Time),371627.90000003576,iron,900,I,z,z,None,551,352.0,199.0,62,1,1990.800000011921,369637.10000002384,9019,plum,NF,C,366232,366232,364607,365515,364608,366598,366032,366032,366598,75
76,test,1,inc,1,z,Wed May 28 2025 16:02:38 GMT-0400 (Eastern Daylight Time),373844.5,cobalt,1100,I,z,z,None,568,369.0,199.0,32,1,2205.899999976158,371638.60000002384,9019,raisin,NF,C,368432,368432,366609,367715,366609,368815,368232,368232,368814,76
77,test,1,inc,1,z,Wed May 28 2025 16:02:38 GMT-0400 (Eastern Daylight Time),376010.8000000119,cobalt,1100,I,z,z,None,527,328.0,199.0,16,1,2154.800000011921,373856.0,9019,cherry,NF,C,370648,370648,368826,369932,368827,370981,370449,370449,370981,77
78,test,1,con,1,m,Wed May 28 2025 16:02:38 GMT-0400 (Eastern Daylight Time),377928.5,lead,900,I,m,m,None,472,273.0,199.0,122,1,1912.3999999761581,376016.10000002384,9019,lead,NF,C,372615,372615,370986,371898,370986,372899,372415,372415,372899,78
79,test,1,inc,1,m,Wed May 28 2025 16:02:38 GMT-0400 (Eastern Daylight Time),379994.3000000119,banana,800,I,m,m,None,726,527.0,199.0,69,1,2060.699999988079,377933.60000002384,9019,bronze,NF,C,374432,374432,372904,373715,372904,374964,374232,374232,374964,79
80,test,1,con,1,m,Wed May 28 2025 16:02:38 GMT-0400 (Eastern Daylight Time),382127.60000002384,zinc,1000,I,m,m,None,597,398.0,199.0,115,1,2123.600000023842,380004.0,9019,zinc,NF,C,376698,376698,374974,375982,374975,377098,376499,376499,377098,80
81,test,1,inc,1,m,Wed May 28 2025 16:02:38 GMT-0400 (Eastern Daylight Time),384194.5,cherry,900,I,m,m,None,619,420.0,199.0,86,1,2056.099999964237,382138.40000003576,9019,silver,NF,C,378732,378732,377108,378015,377109,379165,378532,378532,379165,81
82,test,1,inc,1,z,Wed May 28 2025 16:02:38 GMT-0400 (Eastern Daylight Time),386177.8000000119,copper,900,I,z,z,None,537,338.0,199.0,30,1,1974.300000011921,384203.5,9019,raisin,NF,C,380798,380798,379174,380082,379174,381148,380599,380599,381148,82
83,test,1,inc,1,m,Wed May 28 2025 16:02:38 GMT-0400 (Eastern Daylight Time),388261.3000000119,pear,900,I,m,m,None,641,442.0,199.0,126,1,2069.599999964237,386191.7000000477,9019,lead,NF,C,382782,382782,381162,382065,381162,383231,382582,382582,383231,83
84,test,1,con,1,m,Wed May 28 2025 16:02:38 GMT-0400 (Eastern Daylight Time),390627.90000003576,copper,1100,I,m,m,None,726,527.0,199.0,76,1,2358.100000023842,388269.8000000119,9019,copper,NF,C,385064,385065,383240,384349,383240,385598,384865,384865,385598,84
85,test,1,con,1,m,Wed May 28 2025 16:02:38 GMT-0400 (Eastern Daylight Time),392727.90000003576,cobalt,1100,I,m,m,None,455,256.0,199.0,92,1,2089.600000023842,390638.3000000119,9019,cobalt,NF,C,387432,387432,385608,386715,385609,387698,387232,387232,387698,85
86,test,1,inc,1,z,Wed May 28 2025 16:02:38 GMT-0400 (Eastern Daylight Time),394811.2000000477,silver,1000,I,z,z,None,543,344.0,199.0,31,1,2074.5,392736.7000000477,9019,raisin,NF,C,389432,389432,387707,388715,387707,389781,389232,389232,389781,86
87,test,1,con,1,z,Wed May 28 2025 16:02:38 GMT-0400 (Eastern Daylight Time),397444.5,plum,1100,I,z,z,None,984,785.0,199.0,60,1,2622.2999999523163,394822.2000000477,9019,plum,NF,C,391615,391615,389792,390899,389793,392415,391415,391415,392415,87
88,test,1,inc,1,m,Wed May 28 2025 16:02:38 GMT-0400 (Eastern Daylight Time),400061.2000000477,orange,1000,I,m,m,None,1067,868.0,199.0,95,1,2607.400000035763,397453.8000000119,9019,cobalt,NF,C,394148,394148,392424,393432,392424,395031,393949,393949,395031,88
89,test,1,inc,1,z,Wed May 28 2025 16:02:38 GMT-0400 (Eastern Daylight Time),402144.5,copper,900,I,z,z,None,638,439.0,199.0,14,1,2074.5,400070.0,9019,cherry,NF,C,396665,396665,395040,395949,395040,397115,396465,396465,397115,89
90,test,1,con,1,m,Wed May 28 2025 16:02:38 GMT-0400 (Eastern Daylight Time),404327.8000000119,gold,1000,I,m,m,None,639,440.0,199.0,99,1,2174.399999976158,402153.40000003576,9019,gold,NF,C,398848,398848,397123,398132,397124,399298,398649,398649,399298,90
91,test,1,inc,1,m,Wed May 28 2025 16:02:38 GMT-0400 (Eastern Daylight Time),406794.5,pear,900,I,m,m,None,1027,828.0,199.0,102,1,2457.599999964237,404336.90000003576,9019,gold,NF,C,400932,400932,399307,400215,399307,401765,400732,400732,401765,91
92,test,1,inc,1,z,Wed May 28 2025 16:02:38 GMT-0400 (Eastern Daylight Time),408844.5,iron,900,I,z,z,None,610,410.0,200.0,54,1,2039.199999988079,406805.3000000119,9019,kiwi,NF,C,403398,403398,401775,402682,401776,403815,403198,403198,403814,92
93,test,1,inc,1,z,Wed May 28 2025 16:02:38 GMT-0400 (Eastern Daylight Time),411077.90000003576,zinc,1000,I,z,z,None,692,492.0,200.0,39,1,2224.5,408853.40000003576,9019,lime,NF,C,405548,405548,403823,404832,403824,406048,405348,405348,406048,93
94,test,1,con,1,z,Wed May 28 2025 16:02:38 GMT-0400 (Eastern Daylight Time),413277.8000000119,banana,1100,I,z,z,None,557,358.0,199.0,4,1,2191.199999988079,411086.60000002384,9019,banana,NF,C,407882,407882,406057,407165,406057,408248,407682,407682,408248,94
95,test,1,con,1,z,Wed May 28 2025 16:02:38 GMT-0400 (Eastern Daylight Time),415511.10000002384,pear,900,I,z,z,None,789,590.0,199.0,42,1,2222.0,413289.10000002384,9019,pear,NF,C,409882,409882,408259,409165,408259,410481,409682,409682,410481,95
96,test,1,con,1,z,Wed May 28 2025 16:02:38 GMT-0400 (Eastern Daylight Time),417727.90000003576,cherry,1000,I,z,z,None,673,473.0,200.0,11,1,2205.800000011921,415522.10000002384,9019,cherry,NF,C,412215,412215,410492,411499,410493,412698,412015,412015,412698,96
97,test,1,inc,1,m,Wed May 28 2025 16:02:38 GMT-0400 (Eastern Daylight Time),419844.5,plum,1100,I,m,m,None,475,276.0,199.0,128,1,2108.5,417736.0,9019,lead,NF,C,414532,414532,412706,413815,412706,414815,414332,414332,414815,97
98,test,1,inc,1,m,Wed May 28 2025 16:02:38 GMT-0400 (Eastern Daylight Time),422061.2000000477,plum,1100,I,m,m,None,575,376.0,199.0,104,1,2206.2000000476837,419855.0,9019,gold,NF,C,416648,416648,414825,415932,414825,417031,416449,416449,417031,98
99,test,1,inc,1,m,Wed May 28 2025 16:02:38 GMT-0400 (Eastern Daylight Time),424261.3000000119,pear,900,I,m,m,None,748,533.0,215.0,110,1,2190.599999964237,422070.7000000477,9019,iron,NF,C,418682,418682,417041,417949,417041,419231,418466,418466,419231,99
100,test,1,con,1,m,Wed May 28 2025 16:02:38 GMT-0400 (Eastern Daylight Time),426394.5,copper,1000,I,m,m,None,594,395.0,199.0,75,1,2124.0,424270.5,9019,copper,NF,C,420965,420965,419241,420249,419241,421365,420766,420766,421365,100
101,test,1,con,1,m,Wed May 28 2025 16:02:38 GMT-0400 (Eastern Daylight Time),428327.90000003576,copper,900,I,m,m,None,489,290.0,199.0,74,1,1924.4000000357628,426403.5,9019,copper,NF,C,422998,422998,421374,422282,421374,423298,422799,422799,423298,101
102,test,1,con,1,z,Wed May 28 2025 16:02:38 GMT-0400 (Eastern Daylight Time),430361.2000000477,banana,900,I,z,z,None,587,388.0,199.0,2,1,2023.5,428337.7000000477,9019,banana,NF,C,424932,424932,423308,424215,423308,425331,424732,424732,425331,102
103,test,1,inc,1,m,Wed May 28 2025 16:02:38 GMT-0400 (Eastern Daylight Time),432494.5,raisin,1100,I,m,m,None,490,291.0,199.0,96,1,2124.0,430370.5,9019,cobalt,NF,C,427165,427165,425341,426449,425341,427465,426965,426965,427465,103
104,test,1,inc,1,z,Wed May 28 2025 16:02:38 GMT-0400 (Eastern Daylight Time),434394.60000002384,gold,800,I,z,z,None,561,362.0,199.0,45,1,1889.699999988079,432504.90000003576,9019,pear,NF,C,428998,428998,427475,428282,427475,429365,428799,428799,429365,104
105,test,1,inc,1,z,Wed May 28 2025 16:02:38 GMT-0400 (Eastern Daylight Time),436261.2000000477,bronze,800,I,z,z,None,517,318.0,199.0,21,1,1857.7000000476837,434403.5,9019,orange,NF,C,430898,430898,429374,430182,429374,431231,430699,430699,431231,105
106,test,1,inc,1,z,Wed May 28 2025 16:02:38 GMT-0400 (Eastern Daylight Time),438411.10000002384,zinc,1000,I,z,z,None,602,403.0,199.0,47,1,2140.0,436271.10000002384,9019,pear,NF,C,432965,432965,431241,432249,431242,433381,432765,432765,433381,106
107,test,1,con,1,z,Wed May 28 2025 16:02:38 GMT-0400 (Eastern Daylight Time),440527.60000002384,orange,1100,I,z,z,None,480,281.0,199.0,20,1,2106.199999988079,438421.40000003576,9019,orange,NF,C,435215,435215,433391,434499,433392,435498,435015,435015,435498,107
108,test,1,con,1,z,Wed May 28 2025 16:02:38 GMT-0400 (Eastern Daylight Time),442511.2000000477,orange,1000,I,z,z,None,439,240.0,199.0,19,1,1972.2000000476837,440539.0,9019,orange,NF,C,437232,437232,435509,436515,435509,437481,437032,437032,437481,108
109,test,1,con,1,z,Wed May 28 2025 16:02:38 GMT-0400 (Eastern Daylight Time),444693.90000003576,plum,1000,I,z,z,None,648,448.0,200.0,59,1,2174.100000023842,442519.8000000119,9019,plum,NF,C,439215,439215,437490,438499,437490,439664,439015,439015,439664,109
110,test,1,con,1,z,Wed May 28 2025 16:02:38 GMT-0400 (Eastern Daylight Time),446877.90000003576,raisin,1100,I,z,z,None,532,333.0,199.0,28,1,2176.699999988079,444701.2000000477,9019,raisin,NF,C,441498,441499,439671,440782,439672,441848,441299,441299,441848,110
111,test,1,inc,1,z,Wed May 28 2025 16:02:38 GMT-0400 (Eastern Daylight Time),449061.2000000477,cobalt,1100,I,z,z,None,534,335.0,199.0,8,1,2175.2000000476837,446886.0,9019,banana,NF,C,443681,443681,441856,442965,441857,444031,443482,443482,444031,111
112,test,1,inc,1,m,Wed May 28 2025 16:02:38 GMT-0400 (Eastern Daylight Time),451161.2000000477,orange,1000,I,m,m,None,555,355.0,200.0,79,1,2089.600000023842,449071.60000002384,9019,copper,NF,C,445765,445765,444042,445049,444042,446131,445565,445565,446131,112
112,test,1,inc,0,m,Wed May 28 2025 16:02:38 GMT-0400 (Eastern Daylight Time),453261.10000002384,cherry,900,I,z,z,None,658,459.0,199.0,70,1,2090.300000011921,451170.8000000119,9019,bronze,NF,C,447765,447765,446141,447049,446141,448231,447565,447565,448231,113
113,test,1,inc,1,z,Wed May 28 2025 16:02:38 GMT-0400 (Eastern Daylight Time),455577.90000003576,silver,1000,I,z,z,None,770,571.0,199.0,23,1,2308.699999988079,453269.2000000477,9019,orange,NF,C,449965,449965,448239,449249,448240,450548,449766,449766,450548,114
114,test,1,inc,1,z,Wed May 28 2025 16:02:38 GMT-0400 (Eastern Daylight Time),457644.60000002384,bronze,800,I,z,z,None,717,518.0,199.0,29,1,2058.399999976158,455586.2000000477,9019,raisin,NF,C,452082,452082,450556,451365,450557,452615,451882,451882,452615,115
115,test,1,con,1,m,Wed May 28 2025 16:02:38 GMT-0400 (Eastern Daylight Time),459877.7000000477,cobalt,800,I,m,m,None,866,666.0,200.0,89,1,2218.2000000476837,457659.5,9019,cobalt,NF,C,454165,454165,452630,453449,452631,454848,453965,453965,454848,116
116,test,1,con,1,z,Wed May 28 2025 16:02:38 GMT-0400 (Eastern Daylight Time),462211.10000002384,pear,800,I,z,z,None,993,794.0,199.0,41,1,2325.600000023842,459885.5,9019,pear,NF,C,456382,456382,454856,455665,454856,457181,456182,456182,457181,117
117,test,1,inc,1,m,Wed May 28 2025 16:02:38 GMT-0400 (Eastern Daylight Time),464711.3000000119,raisin,1100,I,m,m,None,856,657.0,199.0,88,1,2489.399999976158,462221.90000003576,9019,silver,NF,C,459015,459015,457192,458299,457192,459681,458815,458815,459681,118
118,test,1,inc,1,z,Wed May 28 2025 16:02:38 GMT-0400 (Eastern Daylight Time),467077.90000003576,iron,900,I,z,z,None,917,717.0,200.0,46,1,2356.0,464721.90000003576,9019,pear,NF,C,461315,461315,459692,460599,459692,462048,461115,461115,462048,119
119,test,1,inc,1,z,Wed May 28 2025 16:02:38 GMT-0400 (Eastern Daylight Time),469328.0,zinc,1000,I,z,z,None,705,506.0,199.0,63,1,2241.399999976158,467086.60000002384,9019,plum,NF,C,463782,463782,462057,463065,462057,464298,463582,463582,464298,120
120,test,1,inc,1,z,Wed May 28 2025 16:02:38 GMT-0400 (Eastern Daylight Time),471311.10000002384,bronze,800,I,z,z,None,647,448.0,199.0,13,1,1973.300000011921,469337.8000000119,9019,cherry,NF,C,465832,465832,464308,465115,464308,466281,465632,465632,466281,121
121,test,1,inc,1,m,Wed May 28 2025 16:02:38 GMT-0400 (Eastern Daylight Time),473611.10000002384,kiwi,1000,I,m,m,None,760,561.0,199.0,127,1,2292.600000023842,471318.5,9019,lead,NF,C,468015,468015,466289,467299,466289,468581,467816,467816,468581,122
122,test,1,con,1,m,Wed May 28 2025 16:02:38 GMT-0400 (Eastern Daylight Time),475961.10000002384,zinc,1100,I,m,m,None,712,513.0,199.0,116,1,2340.899999976158,473620.2000000477,9019,zinc,NF,C,470415,470415,468590,469699,468591,470931,470215,470215,470931,123
123,test,1,inc,1,z,Wed May 28 2025 16:02:38 GMT-0400 (Eastern Daylight Time),477977.90000003576,iron,900,I,z,z,None,579,379.0,200.0,38,1,2007.800000011921,475970.10000002384,9019,lime,NF,C,472565,472565,470940,471849,470941,472948,472365,472365,472948,124
124,test,1,con,1,m,Wed May 28 2025 16:02:38 GMT-0400 (Eastern Daylight Time),480027.90000003576,iron,800,I,m,m,None,709,510.0,199.0,105,1,2040.300000011921,477987.60000002384,9019,iron,NF,C,474482,474482,472958,473765,472958,474998,474282,474282,474998,125
124,test,1,con,0,z,Wed May 28 2025 16:02:38 GMT-0400 (Eastern Daylight Time),482511.3000000119,kiwi,1100,I,m,m,None,839,640.0,199.0,52,1,2473.0,480038.3000000119,9019,kiwi,NF,C,476832,476832,475008,476115,475009,477481,476632,476632,477481,126
125,test,1,inc,1,z,Wed May 28 2025 16:02:38 GMT-0400 (Eastern Daylight Time),484927.60000002384,lead,1100,I,z,z,None,781,581.0,200.0,48,1,2407.899999976158,482519.7000000477,9019,pear,NF,C,479315,479315,477490,478599,477490,479898,479115,479115,479898,127
126,test,1,inc,1,m,Wed May 28 2025 16:02:38 GMT-0400 (Eastern Daylight Time),487094.60000002384,kiwi,1000,I,m,m,None,623,424.0,199.0,119,1,2158.600000023842,484936.0,9019,zinc,NF,C,481632,481632,479906,480915,479906,482065,481432,481432,482065,128
