acc_sum,block_c,block_dur,condition,correct,correct_response,countdown,datetime,endtime,project,response,response_time,response_time_test1_response,response_time_test2_response,row_sel,same,session_number,start_end,starttime,stim1,stim2,subject_id,task,task_vers,time_test1,time_test2,trial
1,1,0.0,prac,1,z,30000.0,Wed May 13 2026 14:38:57 GMT-0500 (Central Daylight Time),36014.70000000298,O,z,4221,,,6,yes,1,5745.29999999702,30269.40000000596,CSDBFPHXZ,CSDBFPHXZ,7807,LC,A,,,1
2,1,0.0,prac,1,z,30000.0,Wed May 13 2026 14:38:57 GMT-0500 (Central Daylight Time),38613.09999999404,O,z,1058,,,4,yes,1,2589.3999999910593,36023.70000000298,RSM,RSM,7807,LC,A,,,2
3,1,0.0,prac,1,m,30000.0,Wed May 13 2026 14:38:57 GMT-0500 (Central Daylight Time),40981.40000000596,O,m,845,,,1,no,1,2361.300000011921,38620.09999999404,RNV,FNV,7807,LC,A,,,3
4,1,0.0,prac,1,m,30000.0,Wed May 13 2026 14:38:57 GMT-0500 (Central Daylight Time),44628.59999999404,O,m,2118,,,3,no,1,3640.0,40988.59999999404,QHZXPC,QHZWPC,7807,LC,A,,,4
5,1,0.0,prac,1,m,30000.0,Wed May 13 2026 14:38:57 GMT-0500 (Central Daylight Time),48243.5,O,m,2081,,,5,no,1,3609.7999999970198,44633.70000000298,LNDPRSKQB,LNDPRSJQB,7807,LC,A,,,5
6,1,0.0,prac,1,z,30000.0,Wed May 13 2026 14:38:57 GMT-0500 (Central Daylight Time),51609.5,O,z,1831,,,2,yes,1,3358.0,48251.5,NBGFSM,NBGFSM,7807,LC,A,,,6
1,1,1.7999999523162842,test,1,m,28200.000047683716,Wed May 13 2026 14:38:57 GMT-0500 (Central Daylight Time),56075.40000000596,O,m,1791,1791,,1,no,1,1798.6000000089407,54276.79999999702,HCF,RCF,7807,LC,A,51953,,1
2,1,3.433000087738037,test,1,m,26566.999912261963,Wed May 13 2026 14:38:57 GMT-0500 (Central Daylight Time),57708.0,O,m,1619,1619,,2,no,1,1629.4000000059605,56078.59999999404,QTPRJX,QTPNJX,7807,LC,A,53755,,2
3,1,7.013999938964844,test,1,m,22986.000061035156,Wed May 13 2026 14:38:57 GMT-0500 (Central Daylight Time),61289.59999999404,O,m,3564,3564,,3,no,1,3579.3999999910593,57710.20000000298,MZDYGVGKQ,MZDYGLBKQ,7807,LC,A,55387,,3
4,1,9.11299991607666,test,1,m,20887.00008392334,Wed May 13 2026 14:38:57 GMT-0500 (Central Daylight Time),63388.40000000596,O,m,2095,2095,,4,no,1,2095.6000000089407,61292.79999999702,FQTNMK,JQTNMK,7807,LC,A,58969,,4
5,1,10.611999988555908,test,1,z,19388.00001144409,Wed May 13 2026 14:38:57 GMT-0500 (Central Daylight Time),64887.70000000298,O,z,1488,1488,,5,yes,1,1494.6000000089407,63393.09999999404,CLJ,CLJ,7807,LC,A,61070,,5
5,1,14.01200008392334,test,0,m,15987.99991607666,Wed May 13 2026 14:38:57 GMT-0500 (Central Daylight Time),68287.29999999702,O,z,3392,3392,,6,no,1,3396.5,64890.79999999702,JGDMNSVPW,JGZMNSVPW,7807,LC,A,62567,,6
6,1,17.361000061035156,test,1,z,12638.999938964844,Wed May 13 2026 14:38:57 GMT-0500 (Central Daylight Time),71636.09999999404,O,z,3338,3338,,7,yes,1,3346.199999988079,68289.90000000596,FPTVHKCBJ,FPTVHKCBJ,7807,LC,A,65966,,7
7,1,18.677000045776367,test,1,m,11322.999954223633,Wed May 13 2026 14:38:57 GMT-0500 (Central Daylight Time),72952.79999999702,O,m,1305,1305,,8,no,1,1312.7000000029802,71640.09999999404,XRPZBS,ZRPBDH,7807,LC,A,69317,,8
8,1,19.861000061035156,test,1,m,10138.999938964844,Wed May 13 2026 14:38:57 GMT-0500 (Central Daylight Time),74136.20000000298,O,m,1167,1167,,9,no,1,1180.2999999970198,72955.90000000596,ZSQ,ZSP,7807,LC,A,70632,,9
8,1,22.026000022888184,test,0,z,7973.999977111816,Wed May 13 2026 14:38:57 GMT-0500 (Central Daylight Time),76301.70000000298,O,m,2151,2151,,10,yes,1,2162.2999999970198,74139.40000000596,MPZRXL,MPZRXL,7807,LC,A,71816,,10
9,1,23.441999912261963,test,1,m,6558.000087738037,Wed May 13 2026 14:38:57 GMT-0500 (Central Daylight Time),77717.5,O,m,1401,1401,,11,no,1,1411.5,76306.0,KJH,KRH,7807,LC,A,73982,,11
10,1,28.891000032424927,test,1,z,1108.9999675750732,Wed May 13 2026 14:38:57 GMT-0500 (Central Daylight Time),83166.29999999702,O,z,5434,5434,,12,yes,1,5446.0,77720.29999999702,SMNHVTFCB,SMNHVTFCB,7807,LC,A,75397,,12
10,1,30.007999897003174,test,0,z,-7.999897003173828,Wed May 13 2026 14:38:57 GMT-0500 (Central Daylight Time),84283.29999999702,O,None,1111,1111,,13,yes,1,1112.0,83171.29999999702,KJWTQF,KJWTQF,7807,LC,A,80848,,13
1,2,3.449000120162964,test,1,z,26550.999879837036,Wed May 13 2026 14:38:57 GMT-0500 (Central Daylight Time),89913.59999999404,O,z,3439,,3439.0,1,yes,1,6742.29999999702,83171.29999999702,PRDBZTYFN,PRDBZTYFN,7807,LC,A,,84144.0,1
2,2,5.598999977111816,test,1,m,24401.000022888184,Wed May 13 2026 14:38:57 GMT-0500 (Central Daylight Time),92063.0,O,m,2133,,2133.0,2,no,1,8891.70000000298,83171.29999999702,NCWJDZ,NCMJDZ,7807,LC,A,,87593.0,2
3,2,6.817000150680542,test,1,m,23182.999849319458,Wed May 13 2026 14:38:57 GMT-0500 (Central Daylight Time),93281.09999999404,O,m,1207,,1207.0,3,no,1,10109.79999999702,83171.29999999702,KHW,KBW,7807,LC,A,,89743.0,3
4,2,8.71399998664856,test,1,m,21286.00001335144,Wed May 13 2026 14:38:57 GMT-0500 (Central Daylight Time),95178.79999999702,O,m,1887,,1887.0,4,no,1,12007.5,83171.29999999702,ZRBGMF,ZRBCMF,7807,LC,A,,90960.0,4
5,2,10.164000034332275,test,1,m,19835.999965667725,Wed May 13 2026 14:38:57 GMT-0500 (Central Daylight Time),96628.79999999702,O,m,1444,,1444.0,5,no,1,13457.5,83171.29999999702,BTH,BYH,7807,LC,A,,92859.0,5
6,2,13.92900013923645,test,1,z,16070.99986076355,Wed May 13 2026 14:38:57 GMT-0500 (Central Daylight Time),100393.5,O,z,3755,,3755.0,6,yes,1,17222.20000000298,83171.29999999702,XWKQRYCNZ,XWKQRYCNZ,7807,LC,A,,94308.0,6
7,2,16.24500012397766,test,1,z,13754.999876022339,Wed May 13 2026 14:38:57 GMT-0500 (Central Daylight Time),102709.0,O,z,2310,,2310.0,7,yes,1,19537.70000000298,83171.29999999702,HNPDLK,HNPDLK,7807,LC,A,,98072.0,7
8,2,18.712000131607056,test,1,m,11287.999868392944,Wed May 13 2026 14:38:57 GMT-0500 (Central Daylight Time),105176.59999999404,O,m,2458,,2458.0,8,no,1,22005.29999999702,83171.29999999702,WMQTRSGLZ,WMQTRZGLZ,7807,LC,A,,100389.0,8
9,2,19.978000164031982,test,1,z,10021.999835968018,Wed May 13 2026 14:38:57 GMT-0500 (Central Daylight Time),106442.09999999404,O,z,1255,,1255.0,9,yes,1,23270.79999999702,83171.29999999702,JPN,JPN,7807,LC,A,,102856.0,9
10,2,21.261000156402588,test,1,m,8738.999843597412,Wed May 13 2026 14:38:57 GMT-0500 (Central Daylight Time),107725.79999999702,O,m,1279,,1279.0,10,no,1,24554.5,83171.29999999702,QLXSVT,QLNSVT,7807,LC,A,,104121.0,10
10,2,25.009999990463257,test,0,z,4990.000009536743,Wed May 13 2026 14:38:57 GMT-0500 (Central Daylight Time),111474.5,O,m,3737,,3737.0,11,yes,1,28303.20000000298,83171.29999999702,YXHKZVFPB,YXHKZVFPD,7807,LC,A,,105406.0,11
11,2,26.575000047683716,test,1,z,3424.999952316284,Wed May 13 2026 14:38:57 GMT-0500 (Central Daylight Time),113039.90000000596,O,z,1557,,1557.0,12,yes,1,29868.60000000894,83171.29999999702,RJZ,RJZ,7807,LC,A,,109154.0,12
12,2,29.723999977111816,test,1,z,276.0000228881836,Wed May 13 2026 14:38:57 GMT-0500 (Central Daylight Time),116189.0,O,z,3136,,3136.0,13,yes,1,33017.70000000298,83171.29999999702,CLNPZD,CLNPZD,7807,LC,A,,110720.0,13
12,2,30.008000135421753,test,0,m,-8.00013542175293,Wed May 13 2026 14:38:57 GMT-0500 (Central Daylight Time),116472.5,O,None,279,,279.0,14,no,1,33301.20000000298,83171.29999999702,DCBPFHXYJ,DCBPFHLYJ,7807,LC,A,,113869.0,14
