block_c,block_dur,condition,countdown,datetime,endtime,list,multichar_response,project,response,response_time,session_number,start_end,starttime,subject_id,task,task_vers,trial
,,,,Mon May 05 2025 19:06:34 GMT-0500 (Central Daylight Time),,,,O,space,2474,1,,,7137,WL,C,
prac,,0,,Mon May 05 2025 19:06:34 GMT-0500 (Central Daylight Time),,NA,b,O,b,2356,1,,,7137,WL,C,1.0
prac,,0,,Mon May 05 2025 19:06:34 GMT-0500 (Central Daylight Time),,NA,bo,O,o,1778,1,,,7137,WL,C,1.0
prac,,0,,Mon May 05 2025 19:06:34 GMT-0500 (Central Daylight Time),,NA,bos,O,s,107,1,,,7137,WL,C,1.0
prac,,0,,Mon May 05 2025 19:06:34 GMT-0500 (Central Daylight Time),,NA,boso,O,o,22,1,,,7137,WL,C,1.0
prac,,0,,Mon May 05 2025 19:06:34 GMT-0500 (Central Daylight Time),,NA,bosot,O,t,326,1,,,7137,WL,C,1.0
prac,,0,,Mon May 05 2025 19:06:34 GMT-0500 (Central Daylight Time),,NA,boso,O,backspace,456,1,,,7137,WL,C,1.0
prac,,0,,Mon May 05 2025 19:06:34 GMT-0500 (Central Daylight Time),,NA,bos,O,backspace,205,1,,,7137,WL,C,1.0
prac,,0,,Mon May 05 2025 19:06:34 GMT-0500 (Central Daylight Time),,NA,bo,O,backspace,620,1,,,7137,WL,C,1.0
prac,,0,,Mon May 05 2025 19:06:34 GMT-0500 (Central Daylight Time),,NA,boo,O,o,483,1,,,7137,WL,C,1.0
prac,,0,,Mon May 05 2025 19:06:34 GMT-0500 (Central Daylight Time),,NA,boos,O,s,64,1,,,7137,WL,C,1.0
prac,,0,,Mon May 05 2025 19:06:34 GMT-0500 (Central Daylight Time),,NA,boost,O,t,165,1,,,7137,WL,C,1.0
prac,,0,,Mon May 05 2025 19:06:34 GMT-0500 (Central Daylight Time),,NA,boostenter,O,enter,341,1,,,7137,WL,C,1.0
1,18.128000020980835,learn,41871.999979019165,Mon May 05 2025 19:06:34 GMT-0500 (Central Daylight Time),1240494.6000000238,A,w,O,w,18110,1,18127.5,1222367.1000000238,7137,WL,C,1.0
1,18.378000020980835,learn,41621.999979019165,Mon May 05 2025 19:06:34 GMT-0500 (Central Daylight Time),1240744.300000012,A,wh,O,h,229,1,18377.19999998808,1222367.1000000238,7137,WL,C,1.0
1,18.944999933242798,learn,41055.0000667572,Mon May 05 2025 19:06:34 GMT-0500 (Central Daylight Time),1241310.800000012,A,whe,O,e,556,1,18943.69999998808,1222367.1000000238,7137,WL,C,1.0
1,19.09500002861023,learn,40904.99997138977,Mon May 05 2025 19:06:34 GMT-0500 (Central Daylight Time),1241460.7000000477,A,whea,O,a,142,1,19093.600000023842,1222367.1000000238,7137,WL,C,1.0
1,19.32800006866455,learn,40671.99993133545,Mon May 05 2025 19:06:34 GMT-0500 (Central Daylight Time),1241694.0,A,wheat,O,t,224,1,19326.899999976158,1222367.1000000238,7137,WL,C,1.0
1,20.844000101089478,learn,39155.99989891052,Mon May 05 2025 19:06:34 GMT-0500 (Central Daylight Time),1243210.300000012,A,wheatenter,O,enter,1510,1,20843.19999998808,1222367.1000000238,7137,WL,C,1.0
1,23.460000038146973,learn,36539.99996185303,Mon May 05 2025 19:06:34 GMT-0500 (Central Daylight Time),1245826.2000000477,A,h,O,h,2594,1,2615.600000023842,1243210.6000000238,7137,WL,C,2.0
1,23.592999935150146,learn,36407.00006484985,Mon May 05 2025 19:06:34 GMT-0500 (Central Daylight Time),1245959.1000000238,A,ho,O,o,122,1,2748.5,1243210.6000000238,7137,WL,C,2.0
1,23.80999994277954,learn,36190.00005722046,Mon May 05 2025 19:06:34 GMT-0500 (Central Daylight Time),1246175.800000012,A,hom,O,m,206,1,2965.199999988079,1243210.6000000238,7137,WL,C,2.0
1,23.993000030517578,learn,36006.99996948242,Mon May 05 2025 19:06:34 GMT-0500 (Central Daylight Time),1246359.0,A,home,O,e,173,1,3148.399999976158,1243210.6000000238,7137,WL,C,2.0
1,24.875999927520752,learn,35124.00007247925,Mon May 05 2025 19:06:34 GMT-0500 (Central Daylight Time),1247242.2000000477,A,homeenter,O,enter,862,1,4031.600000023842,1243210.6000000238,7137,WL,C,2.0
1,25.608999967575073,learn,34391.00003242493,Mon May 05 2025 19:06:34 GMT-0500 (Central Daylight Time),1247975.5,A,f,O,f,722,1,732.7999999523163,1247242.7000000477,7137,WL,C,3.0
1,25.858999967575073,learn,34141.00003242493,Mon May 05 2025 19:06:34 GMT-0500 (Central Daylight Time),1248225.300000012,A,fl,O,l,237,1,982.5999999642372,1247242.7000000477,7137,WL,C,3.0
1,26.20900011062622,learn,33790.99988937378,Mon May 05 2025 19:06:34 GMT-0500 (Central Daylight Time),1248575.1000000238,A,fla,O,a,339,1,1332.3999999761581,1247242.7000000477,7137,WL,C,3.0
1,26.70900011062622,learn,33290.99988937378,Mon May 05 2025 19:06:34 GMT-0500 (Central Daylight Time),1249074.9000000358,A,flaf,O,f,486,1,1832.199999988079,1247242.7000000477,7137,WL,C,3.0
1,27.89199995994568,learn,32108.00004005432,Mon May 05 2025 19:06:34 GMT-0500 (Central Daylight Time),1250258.0,A,fla,O,backspace,1162,1,3015.2999999523163,1247242.7000000477,7137,WL,C,3.0
1,28.058000087738037,learn,31941.999912261963,Mon May 05 2025 19:06:34 GMT-0500 (Central Daylight Time),1250424.5,A,flag,O,g,155,1,3181.7999999523163,1247242.7000000477,7137,WL,C,3.0
1,28.825000047683716,learn,31174.999952316284,Mon May 05 2025 19:06:34 GMT-0500 (Central Daylight Time),1251191.0,A,flagenter,O,enter,757,1,3948.2999999523163,1247242.7000000477,7137,WL,C,3.0
1,29.757999897003174,learn,30242.000102996826,Mon May 05 2025 19:06:34 GMT-0500 (Central Daylight Time),1252124.1000000238,A,b,O,b,917,1,932.6000000238419,1251191.5,7137,WL,C,4.0
1,30.157999992370605,learn,29842.000007629395,Mon May 05 2025 19:06:34 GMT-0500 (Central Daylight Time),1252524.0,A,bo,O,o,385,1,1332.5,1251191.5,7137,WL,C,4.0
1,30.407999992370605,learn,29592.000007629395,Mon May 05 2025 19:06:34 GMT-0500 (Central Daylight Time),1252774.0,A,boy,O,y,233,1,1582.5,1251191.5,7137,WL,C,4.0
1,31.19099998474121,learn,28809.00001525879,Mon May 05 2025 19:06:34 GMT-0500 (Central Daylight Time),1253556.9000000358,A,boyenter,O,enter,775,1,2365.400000035763,1251191.5,7137,WL,C,4.0
1,33.17300009727478,learn,26826.99990272522,Mon May 05 2025 19:06:34 GMT-0500 (Central Daylight Time),1255539.4000000358,A,d,O,d,1976,1,1982.1000000238419,1253557.300000012,7137,WL,C,5.0
1,33.306999921798706,learn,26693.000078201294,Mon May 05 2025 19:06:34 GMT-0500 (Central Daylight Time),1255672.9000000358,A,do,O,o,121,1,2115.600000023842,1253557.300000012,7137,WL,C,5.0
1,33.573999881744385,learn,26426.000118255615,Mon May 05 2025 19:06:34 GMT-0500 (Central Daylight Time),1255940.6000000238,A,doc,O,c,251,1,2383.300000011921,1253557.300000012,7137,WL,C,5.0
1,33.806999921798706,learn,26193.000078201294,Mon May 05 2025 19:06:34 GMT-0500 (Central Daylight Time),1256172.7000000477,A,doct,O,t,216,1,2615.400000035763,1253557.300000012,7137,WL,C,5.0
1,33.92400002479553,learn,26075.999975204468,Mon May 05 2025 19:06:34 GMT-0500 (Central Daylight Time),1256289.800000012,A,docto,O,o,104,1,2732.5,1253557.300000012,7137,WL,C,5.0
1,34.08999991416931,learn,25910.00008583069,Mon May 05 2025 19:06:34 GMT-0500 (Central Daylight Time),1256456.0,A,doctor,O,r,147,1,2898.699999988079,1253557.300000012,7137,WL,C,5.0
1,34.90599989891052,learn,25094.000101089478,Mon May 05 2025 19:06:34 GMT-0500 (Central Daylight Time),1257272.300000012,A,doctorenter,O,enter,805,1,3715.0,1253557.300000012,7137,WL,C,5.0
1,37.7039999961853,learn,22296.000003814697,Mon May 05 2025 19:06:34 GMT-0500 (Central Daylight Time),1260071.4000000358,A,c,O,c,2788,1,2798.699999988079,1257272.7000000477,7137,WL,C,6.0
1,37.88800001144409,learn,22111.99998855591,Mon May 05 2025 19:06:34 GMT-0500 (Central Daylight Time),1260254.6000000238,A,ca,O,a,173,1,2981.899999976158,1257272.7000000477,7137,WL,C,6.0
1,38.13800001144409,learn,21861.99998855591,Mon May 05 2025 19:06:34 GMT-0500 (Central Daylight Time),1260504.9000000358,A,cam,O,m,238,1,3232.199999988079,1257272.7000000477,7137,WL,C,6.0
1,38.354000091552734,learn,21645.999908447266,Mon May 05 2025 19:06:34 GMT-0500 (Central Daylight Time),1260721.2000000477,A,camp,O,p,197,1,3448.5,1257272.7000000477,7137,WL,C,6.0
1,39.12100005149841,learn,20878.999948501587,Mon May 05 2025 19:06:34 GMT-0500 (Central Daylight Time),1261487.7000000477,A,campenter,O,enter,748,1,4215.0,1257272.7000000477,7137,WL,C,6.0
1,46.818000078201294,learn,13181.999921798706,Mon May 05 2025 19:06:34 GMT-0500 (Central Daylight Time),1269185.2000000477,A,h,O,h,7685,1,7697.100000023842,1261488.1000000238,7137,WL,C,7.0
1,46.95199990272522,learn,13048.00009727478,Mon May 05 2025 19:06:34 GMT-0500 (Central Daylight Time),1269318.5,A,ho,O,o,123,1,7830.399999976158,1261488.1000000238,7137,WL,C,7.0
1,47.151999950408936,learn,12848.000049591064,Mon May 05 2025 19:06:34 GMT-0500 (Central Daylight Time),1269518.4000000358,A,hom,O,m,183,1,8030.300000011921,1261488.1000000238,7137,WL,C,7.0
1,47.318000078201294,learn,12681.999921798706,Mon May 05 2025 19:06:34 GMT-0500 (Central Daylight Time),1269685.1000000238,A,home,O,e,150,1,8197.0,1261488.1000000238,7137,WL,C,7.0
1,48.03500008583069,learn,11964.999914169312,Mon May 05 2025 19:06:34 GMT-0500 (Central Daylight Time),1270401.6000000238,A,homeenter,O,enter,704,1,8913.5,1261488.1000000238,7137,WL,C,7.0
1,52.58400011062622,learn,7415.999889373779,Mon May 05 2025 19:06:34 GMT-0500 (Central Daylight Time),1274950.5,A,c,O,c,4540,1,4548.599999964237,1270401.9000000358,7137,WL,C,8.0
1,52.73300004005432,learn,7266.999959945679,Mon May 05 2025 19:06:34 GMT-0500 (Central Daylight Time),1275100.2000000477,A,co,O,o,143,1,4698.300000011921,1270401.9000000358,7137,WL,C,8.0
1,52.98399996757507,learn,7016.000032424927,Mon May 05 2025 19:06:34 GMT-0500 (Central Daylight Time),1275350.7000000477,A,cor,O,r,233,1,4948.800000011921,1270401.9000000358,7137,WL,C,8.0
1,53.132999897003174,learn,6867.000102996826,Mon May 05 2025 19:06:34 GMT-0500 (Central Daylight Time),1275500.0,A,corn,O,n,135,1,5098.099999964237,1270401.9000000358,7137,WL,C,8.0
1,53.8989999294281,learn,6101.000070571899,Mon May 05 2025 19:06:34 GMT-0500 (Central Daylight Time),1276266.300000012,A,cornenter,O,enter,753,1,5864.399999976158,1270401.9000000358,7137,WL,C,8.0
1,56.54900002479553,learn,3450.999975204468,Mon May 05 2025 19:06:34 GMT-0500 (Central Daylight Time),1278915.5,A,n,O,n,2635,1,2648.899999976158,1276266.6000000238,7137,WL,C,9.0
1,56.8989999294281,learn,3101.0000705718994,Mon May 05 2025 19:06:34 GMT-0500 (Central Daylight Time),1279265.4000000358,A,ni,O,i,330,1,2998.800000011921,1276266.6000000238,7137,WL,C,9.0
1,57.515000104904175,learn,2484.999895095825,Mon May 05 2025 19:06:34 GMT-0500 (Central Daylight Time),1279881.9000000358,A,n,O,backspace,604,1,3615.300000011921,1276266.6000000238,7137,WL,C,9.0
1,57.73199987411499,learn,2268.0001258850098,Mon May 05 2025 19:06:34 GMT-0500 (Central Daylight Time),1280098.4000000358,A,na,O,a,195,1,3831.800000011921,1276266.6000000238,7137,WL,C,9.0
1,57.848000049591064,learn,2151.9999504089355,Mon May 05 2025 19:06:34 GMT-0500 (Central Daylight Time),1280215.2000000477,A,nai,O,i,99,1,3948.600000023842,1276266.6000000238,7137,WL,C,9.0
1,58.11500000953674,learn,1884.9999904632568,Mon May 05 2025 19:06:34 GMT-0500 (Central Daylight Time),1280481.7000000477,A,nail,O,l,254,1,4215.100000023842,1276266.6000000238,7137,WL,C,9.0
1,58.86500000953674,learn,1134.9999904632568,Mon May 05 2025 19:06:34 GMT-0500 (Central Daylight Time),1281231.5,A,nailenter,O,enter,732,1,4964.899999976158,1276266.6000000238,7137,WL,C,9.0
1,60.013999938964844,learn,-13.99993896484375,Mon May 05 2025 19:06:34 GMT-0500 (Central Daylight Time),1282381.2000000477,A,None,O,None,1145,1,1149.4000000357628,1281231.800000012,7137,WL,C,10.0
2,1.9660000801086426,learn,58033.99991989136,Mon May 05 2025 19:06:34 GMT-0500 (Central Daylight Time),1358141.0,A,q,O,q,1951,1,1966.0,1356175.0,7137,WL,C,1.0
2,2.2160000801086426,learn,57783.99991989136,Mon May 05 2025 19:06:34 GMT-0500 (Central Daylight Time),1358390.800000012,A,qu,O,u,232,1,2215.800000011921,1356175.0,7137,WL,C,1.0
2,2.5,learn,57500.0,Mon May 05 2025 19:06:34 GMT-0500 (Central Daylight Time),1358674.0,A,que,O,e,263,1,2499.0,1356175.0,7137,WL,C,1.0
2,2.616000175476074,learn,57383.999824523926,Mon May 05 2025 19:06:34 GMT-0500 (Central Daylight Time),1358790.7000000477,A,quee,O,e,99,1,2615.7000000476837,1356175.0,7137,WL,C,1.0
2,2.8320000171661377,learn,57167.99998283386,Mon May 05 2025 19:06:34 GMT-0500 (Central Daylight Time),1359006.800000012,A,queen,O,n,206,1,2831.800000011921,1356175.0,7137,WL,C,1.0
2,3.7320001125335693,learn,56267.99988746643,Mon May 05 2025 19:06:34 GMT-0500 (Central Daylight Time),1359906.6000000238,A,queenenter,O,enter,894,1,3731.600000023842,1356175.0,7137,WL,C,1.0
2,4.616000175476074,learn,55383.999824523926,Mon May 05 2025 19:06:34 GMT-0500 (Central Daylight Time),1360790.1000000238,A,w,O,w,867,1,883.3000000119209,1359906.800000012,7137,WL,C,2.0
2,4.732000112533569,learn,55267.99988746643,Mon May 05 2025 19:06:34 GMT-0500 (Central Daylight Time),1360906.6000000238,A,wh,O,h,103,1,999.8000000119209,1359906.800000012,7137,WL,C,2.0
2,5.182000160217285,learn,54817.999839782715,Mon May 05 2025 19:06:34 GMT-0500 (Central Daylight Time),1361356.4000000358,A,whe,O,e,434,1,1449.6000000238419,1359906.800000012,7137,WL,C,2.0
2,5.332000017166138,learn,54667.99998283386,Mon May 05 2025 19:06:34 GMT-0500 (Central Daylight Time),1361506.5,A,whea,O,a,145,1,1599.699999988079,1359906.800000012,7137,WL,C,2.0
2,5.5320000648498535,learn,54467.99993515015,Mon May 05 2025 19:06:34 GMT-0500 (Central Daylight Time),1361706.300000012,A,wheat,O,t,187,1,1799.5,1359906.800000012,7137,WL,C,2.0
2,6.281000137329102,learn,53718.9998626709,Mon May 05 2025 19:06:34 GMT-0500 (Central Daylight Time),1362455.800000012,A,wheatenter,O,enter,739,1,2549.0,1359906.800000012,7137,WL,C,2.0
2,6.865000009536743,learn,53134.99999046326,Mon May 05 2025 19:06:34 GMT-0500 (Central Daylight Time),1363039.2000000477,A,s,O,s,574,1,583.2000000476837,1362456.0,7137,WL,C,3.0
2,7.065000057220459,learn,52934.99994277954,Mon May 05 2025 19:06:34 GMT-0500 (Central Daylight Time),1363239.1000000238,A,su,O,u,190,1,783.1000000238419,1362456.0,7137,WL,C,3.0
2,7.447999954223633,learn,52552.00004577637,Mon May 05 2025 19:06:34 GMT-0500 (Central Daylight Time),1363622.4000000358,A,sug,O,g,374,1,1166.4000000357628,1362456.0,7137,WL,C,3.0
2,7.63100004196167,learn,52368.99995803833,Mon May 05 2025 19:06:34 GMT-0500 (Central Daylight Time),1363805.6000000238,A,suga,O,a,175,1,1349.6000000238419,1362456.0,7137,WL,C,3.0
2,7.864000082015991,learn,52135.99991798401,Mon May 05 2025 19:06:34 GMT-0500 (Central Daylight Time),1364039.0,A,sugar,O,r,216,1,1583.0,1362456.0,7137,WL,C,3.0
2,8.564000129699707,learn,51435.99987030029,Mon May 05 2025 19:06:34 GMT-0500 (Central Daylight Time),1364738.7000000477,A,sugarenter,O,enter,686,1,2282.7000000476837,1362456.0,7137,WL,C,3.0
2,10.147000074386597,learn,49852.9999256134,Mon May 05 2025 19:06:34 GMT-0500 (Central Daylight Time),1366321.7000000477,A,t,O,t,1563,1,1582.7000000476837,1364739.0,7137,WL,C,4.0
2,10.414000034332275,learn,49585.999965667725,Mon May 05 2025 19:06:34 GMT-0500 (Central Daylight Time),1366588.2000000477,A,to,O,o,259,1,1849.2000000476837,1364739.0,7137,WL,C,4.0
2,10.930000066757202,learn,49069.9999332428,Mon May 05 2025 19:06:34 GMT-0500 (Central Daylight Time),1367104.6000000238,A,tow,O,w,505,1,2365.600000023842,1364739.0,7137,WL,C,4.0
2,11.11300015449524,learn,48886.99984550476,Mon May 05 2025 19:06:34 GMT-0500 (Central Daylight Time),1367287.9000000358,A,towe,O,e,165,1,2548.900000035763,1364739.0,7137,WL,C,4.0
2,11.230000019073486,learn,48769.999980926514,Mon May 05 2025 19:06:34 GMT-0500 (Central Daylight Time),1367404.5,A,tower,O,r,101,1,2665.5,1364739.0,7137,WL,C,4.0
2,11.680000066757202,learn,48319.9999332428,Mon May 05 2025 19:06:34 GMT-0500 (Central Daylight Time),1367854.4000000358,A,towerenter,O,enter,441,1,3115.400000035763,1364739.0,7137,WL,C,4.0
2,12.996000051498413,learn,47003.99994850159,Mon May 05 2025 19:06:34 GMT-0500 (Central Daylight Time),1369170.6000000238,A,f,O,f,1303,1,1315.800000011921,1367854.800000012,7137,WL,C,5.0
2,13.180000066757202,learn,46819.9999332428,Mon May 05 2025 19:06:34 GMT-0500 (Central Daylight Time),1369354.300000012,A,fl,O,l,178,1,1499.5,1367854.800000012,7137,WL,C,5.0
2,13.896000146865845,learn,46103.999853134155,Mon May 05 2025 19:06:34 GMT-0500 (Central Daylight Time),1370070.5,A,fla,O,a,699,1,2215.699999988079,1367854.800000012,7137,WL,C,5.0
2,14.246000051498413,learn,45753.99994850159,Mon May 05 2025 19:06:34 GMT-0500 (Central Daylight Time),1370420.4000000358,A,flag,O,g,335,1,2565.600000023842,1367854.800000012,7137,WL,C,5.0
2,14.796000003814697,learn,45203.9999961853,Mon May 05 2025 19:06:34 GMT-0500 (Central Daylight Time),1370970.300000012,A,flagenter,O,enter,529,1,3115.5,1367854.800000012,7137,WL,C,5.0
2,15.328999996185303,learn,44671.0000038147,Mon May 05 2025 19:06:34 GMT-0500 (Central Daylight Time),1371503.2000000477,A,h,O,h,515,1,532.6000000238419,1370970.6000000238,7137,WL,C,6.0
2,15.445000171661377,learn,44554.99982833862,Mon May 05 2025 19:06:34 GMT-0500 (Central Daylight Time),1371620.0,A,ho,O,o,110,1,649.3999999761581,1370970.6000000238,7137,WL,C,6.0
2,15.662000179290771,learn,44337.99982070923,Mon May 05 2025 19:06:34 GMT-0500 (Central Daylight Time),1371836.4000000358,A,hom,O,m,201,1,865.8000000119209,1370970.6000000238,7137,WL,C,6.0
2,16.09500002861023,learn,43904.99997138977,Mon May 05 2025 19:06:34 GMT-0500 (Central Daylight Time),1372269.6000000238,A,home,O,e,425,1,1299.0,1370970.6000000238,7137,WL,C,6.0
2,16.361999988555908,learn,43638.00001144409,Mon May 05 2025 19:06:34 GMT-0500 (Central Daylight Time),1372536.1000000238,A,homeenter,O,enter,248,1,1565.5,1370970.6000000238,7137,WL,C,6.0
2,17.01200008392334,learn,42987.99991607666,Mon May 05 2025 19:06:34 GMT-0500 (Central Daylight Time),1373186.1000000238,A,b,O,b,636,1,649.6999999880791,1372536.4000000358,7137,WL,C,7.0
2,17.278000116348267,learn,42721.99988365173,Mon May 05 2025 19:06:34 GMT-0500 (Central Daylight Time),1373452.7000000477,A,by,O,y,251,1,916.3000000119209,1372536.4000000358,7137,WL,C,7.0
2,17.861000061035156,learn,42138.999938964844,Mon May 05 2025 19:06:34 GMT-0500 (Central Daylight Time),1374036.0,A,b,O,backspace,577,1,1499.5999999642372,1372536.4000000358,7137,WL,C,7.0
2,18.16100001335144,learn,41838.99998664856,Mon May 05 2025 19:06:34 GMT-0500 (Central Daylight Time),1374335.6000000238,A,bo,O,o,281,1,1799.199999988079,1372536.4000000358,7137,WL,C,7.0
2,18.361000061035156,learn,41638.999938964844,Mon May 05 2025 19:06:34 GMT-0500 (Central Daylight Time),1374535.6000000238,A,boy,O,y,189,1,1999.199999988079,1372536.4000000358,7137,WL,C,7.0
2,18.728000164031982,learn,41271.99983596802,Mon May 05 2025 19:06:34 GMT-0500 (Central Daylight Time),1374902.1000000238,A,boyenter,O,enter,358,1,2365.699999988079,1372536.4000000358,7137,WL,C,7.0
2,20.39400005340576,learn,39605.99994659424,Mon May 05 2025 19:06:34 GMT-0500 (Central Daylight Time),1376568.6000000238,A,d,O,d,1655,1,1666.1000000238419,1374902.5,7137,WL,C,8.0
2,20.544000148773193,learn,39455.99985122681,Mon May 05 2025 19:06:34 GMT-0500 (Central Daylight Time),1376718.4000000358,A,do,O,o,141,1,1815.9000000357628,1374902.5,7137,WL,C,8.0
2,20.72699999809265,learn,39273.00000190735,Mon May 05 2025 19:06:34 GMT-0500 (Central Daylight Time),1376901.5,A,doc,O,c,167,1,1999.0,1374902.5,7137,WL,C,8.0
2,20.927000045776367,learn,39072.99995422363,Mon May 05 2025 19:06:34 GMT-0500 (Central Daylight Time),1377101.6000000238,A,doct,O,t,192,1,2199.100000023842,1374902.5,7137,WL,C,8.0
2,21.0770001411438,learn,38922.9998588562,Mon May 05 2025 19:06:34 GMT-0500 (Central Daylight Time),1377251.2000000477,A,docto,O,o,144,1,2348.7000000476837,1374902.5,7137,WL,C,8.0
2,21.194000005722046,learn,38805.999994277954,Mon May 05 2025 19:06:34 GMT-0500 (Central Daylight Time),1377368.1000000238,A,doctor,O,r,106,1,2465.600000023842,1374902.5,7137,WL,C,8.0
2,21.627000093460083,learn,38372.99990653992,Mon May 05 2025 19:06:34 GMT-0500 (Central Daylight Time),1377801.2000000477,A,doctorenter,O,enter,413,1,2898.7000000476837,1374902.5,7137,WL,C,8.0
2,22.80900001525879,learn,37190.99998474121,Mon May 05 2025 19:06:34 GMT-0500 (Central Daylight Time),1378984.5,A,n,O,n,1172,1,1182.8999999761581,1377801.6000000238,7137,WL,C,9.0
2,22.992000102996826,learn,37007.999897003174,Mon May 05 2025 19:06:34 GMT-0500 (Central Daylight Time),1379167.5,A,na,O,a,165,1,1365.8999999761581,1377801.6000000238,7137,WL,C,9.0
2,23.092000007629395,learn,36907.999992370605,Mon May 05 2025 19:06:34 GMT-0500 (Central Daylight Time),1379267.4000000358,A,nai,O,i,86,1,1465.800000011921,1377801.6000000238,7137,WL,C,9.0
2,23.276000022888184,learn,36723.99997711182,Mon May 05 2025 19:06:34 GMT-0500 (Central Daylight Time),1379450.800000012,A,nail,O,l,170,1,1649.199999988079,1377801.6000000238,7137,WL,C,9.0
2,23.70900011062622,learn,36290.99988937378,Mon May 05 2025 19:06:34 GMT-0500 (Central Daylight Time),1379884.0,A,nailenter,O,enter,426,1,2082.399999976158,1377801.6000000238,7137,WL,C,9.0
2,24.625,learn,35375.0,Mon May 05 2025 19:06:34 GMT-0500 (Central Daylight Time),1380800.4000000358,A,c,O,c,897,1,916.1000000238419,1379884.300000012,7137,WL,C,10.0
2,24.858999967575073,learn,35141.00003242493,Mon May 05 2025 19:06:34 GMT-0500 (Central Daylight Time),1381033.7000000477,A,co,O,o,213,1,1149.4000000357628,1379884.300000012,7137,WL,C,10.0
2,25.058000087738037,learn,34941.99991226196,Mon May 05 2025 19:06:34 GMT-0500 (Central Daylight Time),1381233.5,A,cor,O,r,179,1,1349.199999988079,1379884.300000012,7137,WL,C,10.0
2,25.174999952316284,learn,34825.000047683716,Mon May 05 2025 19:06:34 GMT-0500 (Central Daylight Time),1381350.300000012,A,corn,O,n,108,1,1466.0,1379884.300000012,7137,WL,C,10.0
2,25.475000143051147,learn,34524.99985694885,Mon May 05 2025 19:06:34 GMT-0500 (Central Daylight Time),1381650.2000000477,A,cornenter,O,enter,295,1,1765.9000000357628,1379884.300000012,7137,WL,C,10.0
2,26.574000120162964,learn,33425.999879837036,Mon May 05 2025 19:06:34 GMT-0500 (Central Daylight Time),1382749.5,A,c,O,c,1083,1,1099.0,1381650.5,7137,WL,C,11.0
2,26.77400016784668,learn,33225.99983215332,Mon May 05 2025 19:06:34 GMT-0500 (Central Daylight Time),1382949.300000012,A,ca,O,a,191,1,1298.800000011921,1381650.5,7137,WL,C,11.0
2,26.973999977111816,learn,33026.00002288818,Mon May 05 2025 19:06:34 GMT-0500 (Central Daylight Time),1383149.5,A,cat,O,t,184,1,1499.0,1381650.5,7137,WL,C,11.0
2,27.10800004005432,learn,32891.99995994568,Mon May 05 2025 19:06:34 GMT-0500 (Central Daylight Time),1383282.7000000477,A,catt,O,t,120,1,1632.2000000476837,1381650.5,7137,WL,C,11.0
2,27.35700011253357,learn,32642.99988746643,Mon May 05 2025 19:06:34 GMT-0500 (Central Daylight Time),1383532.5,A,cattl,O,l,234,1,1882.0,1381650.5,7137,WL,C,11.0
2,27.60800004005432,learn,32391.99995994568,Mon May 05 2025 19:06:34 GMT-0500 (Central Daylight Time),1383782.7000000477,A,cattle,O,e,233,1,2132.2000000476837,1381650.5,7137,WL,C,11.0
2,28.19099998474121,learn,31809.00001525879,Mon May 05 2025 19:06:34 GMT-0500 (Central Daylight Time),1384366.0,A,cattleenter,O,enter,573,1,2715.5,1381650.5,7137,WL,C,11.0
2,30.10700011253357,learn,29892.99988746643,Mon May 05 2025 19:06:34 GMT-0500 (Central Daylight Time),1386282.1000000238,A,b,O,b,1895,1,1915.800000011921,1384366.300000012,7137,WL,C,12.0
2,30.92300009727478,learn,29076.99990272522,Mon May 05 2025 19:06:34 GMT-0500 (Central Daylight Time),1387098.4000000358,A,bo,O,o,811,1,2732.100000023842,1384366.300000012,7137,WL,C,12.0
2,31.52300000190735,learn,28476.99999809265,Mon May 05 2025 19:06:34 GMT-0500 (Central Daylight Time),1387698.2000000477,A,bod,O,d,595,1,3331.900000035763,1384366.300000012,7137,WL,C,12.0
2,31.6560001373291,learn,28343.9998626709,Mon May 05 2025 19:06:34 GMT-0500 (Central Daylight Time),1387831.4000000358,A,body,O,y,115,1,3465.100000023842,1384366.300000012,7137,WL,C,12.0
2,31.956000089645386,learn,28043.999910354614,Mon May 05 2025 19:06:34 GMT-0500 (Central Daylight Time),1388131.300000012,A,bodyenter,O,enter,294,1,3765.0,1384366.300000012,7137,WL,C,12.0
2,32.456000089645386,learn,27543.999910354614,Mon May 05 2025 19:06:34 GMT-0500 (Central Daylight Time),1388631.2000000477,A,s,O,s,482,1,499.60000002384186,1388131.6000000238,7137,WL,C,13.0
2,32.58899998664856,learn,27411.00001335144,Mon May 05 2025 19:06:34 GMT-0500 (Central Daylight Time),1388764.7000000477,A,sh,O,h,118,1,633.1000000238419,1388131.6000000238,7137,WL,C,13.0
2,32.723000049591064,learn,27276.999950408936,Mon May 05 2025 19:06:34 GMT-0500 (Central Daylight Time),1388897.9000000358,A,sho,O,o,113,1,766.3000000119209,1388131.6000000238,7137,WL,C,13.0
2,32.93900012969971,learn,27060.999870300293,Mon May 05 2025 19:06:34 GMT-0500 (Central Daylight Time),1389114.300000012,A,shor,O,r,204,1,982.6999999880791,1388131.6000000238,7137,WL,C,13.0
2,33.32200002670288,learn,26677.99997329712,Mon May 05 2025 19:06:34 GMT-0500 (Central Daylight Time),1389497.5,A,shore,O,e,371,1,1365.8999999761581,1388131.6000000238,7137,WL,C,13.0
2,33.871999979019165,learn,26128.000020980835,Mon May 05 2025 19:06:34 GMT-0500 (Central Daylight Time),1390047.5,A,shoreenter,O,enter,532,1,1915.8999999761581,1388131.6000000238,7137,WL,C,13.0
2,44.53500008583069,learn,15464.999914169312,Mon May 05 2025 19:06:34 GMT-0500 (Central Daylight Time),1400710.6000000238,A,f,O,f,10654,1,10662.800000011921,1390047.800000012,7137,WL,C,14.0
2,44.71900010108948,learn,15280.999898910522,Mon May 05 2025 19:06:34 GMT-0500 (Central Daylight Time),1400894.2000000477,A,fl,O,l,174,1,10846.400000035763,1390047.800000012,7137,WL,C,14.0
2,44.93500018119812,learn,15064.99981880188,Mon May 05 2025 19:06:34 GMT-0500 (Central Daylight Time),1401110.5,A,fla,O,a,207,1,11062.699999988079,1390047.800000012,7137,WL,C,14.0
2,45.41900014877319,learn,14580.999851226807,Mon May 05 2025 19:06:34 GMT-0500 (Central Daylight Time),1401593.800000012,A,flag,O,g,471,1,11546.0,1390047.800000012,7137,WL,C,14.0
2,45.80200004577637,learn,14197.999954223633,Mon May 05 2025 19:06:34 GMT-0500 (Central Daylight Time),1401977.0,A,flagenter,O,enter,371,1,11929.199999988079,1390047.800000012,7137,WL,C,14.0
2,53.48200011253357,learn,6517.999887466431,Mon May 05 2025 19:06:34 GMT-0500 (Central Daylight Time),1409657.5,A,h,O,h,7668,1,7680.199999988079,1401977.300000012,7137,WL,C,15.0
2,53.616000175476074,learn,6383.999824523926,Mon May 05 2025 19:06:34 GMT-0500 (Central Daylight Time),1409790.800000012,A,ho,O,o,115,1,7813.5,1401977.300000012,7137,WL,C,15.0
2,53.81599998474121,learn,6184.000015258789,Mon May 05 2025 19:06:34 GMT-0500 (Central Daylight Time),1409991.1000000238,A,hom,O,m,183,1,8013.800000011921,1401977.300000012,7137,WL,C,15.0
2,53.98300004005432,learn,6016.999959945679,Mon May 05 2025 19:06:34 GMT-0500 (Central Daylight Time),1410157.9000000358,A,home,O,e,159,1,8180.600000023842,1401977.300000012,7137,WL,C,15.0
2,54.16600012779236,learn,5833.999872207642,Mon May 05 2025 19:06:34 GMT-0500 (Central Daylight Time),1410341.2000000477,A,homeenter,O,enter,175,1,8363.900000035763,1401977.300000012,7137,WL,C,15.0
3,2.2829999923706055,learn,57717.000007629395,Mon May 05 2025 19:06:34 GMT-0500 (Central Daylight Time),1484467.9000000358,A,t,O,t,2277,1,2282.5,1482185.4000000358,7137,WL,C,1.0
3,2.5160000324249268,learn,57483.99996757507,Mon May 05 2025 19:06:34 GMT-0500 (Central Daylight Time),1484701.2000000477,A,to,O,o,225,1,2515.800000011921,1482185.4000000358,7137,WL,C,1.0
3,2.882999897003174,learn,57117.000102996826,Mon May 05 2025 19:06:34 GMT-0500 (Central Daylight Time),1485067.7000000477,A,tow,O,w,360,1,2882.300000011921,1482185.4000000358,7137,WL,C,1.0
3,2.999000072479248,learn,57000.99992752075,Mon May 05 2025 19:06:34 GMT-0500 (Central Daylight Time),1485184.1000000238,A,towe,O,e,105,1,2998.699999988079,1482185.4000000358,7137,WL,C,1.0
3,4.332000017166138,learn,55667.99998283386,Mon May 05 2025 19:06:34 GMT-0500 (Central Daylight Time),1486517.1000000238,A,tower,O,r,1325,1,4331.699999988079,1482185.4000000358,7137,WL,C,1.0
3,4.716000080108643,learn,55283.99991989136,Mon May 05 2025 19:06:34 GMT-0500 (Central Daylight Time),1486900.300000012,A,towerenter,O,enter,368,1,4714.899999976158,1482185.4000000358,7137,WL,C,1.0
3,5.799000024795532,learn,54200.99997520447,Mon May 05 2025 19:06:34 GMT-0500 (Central Daylight Time),1487983.4000000358,A,q,O,q,1073,1,1082.699999988079,1486900.7000000477,7137,WL,C,2.0
3,5.947999954223633,learn,54052.00004577637,Mon May 05 2025 19:06:34 GMT-0500 (Central Daylight Time),1488133.2000000477,A,qu,O,u,142,1,1232.5,1486900.7000000477,7137,WL,C,2.0
3,6.332000017166138,learn,53667.99998283386,Mon May 05 2025 19:06:34 GMT-0500 (Central Daylight Time),1488516.4000000358,A,que,O,e,376,1,1615.699999988079,1486900.7000000477,7137,WL,C,2.0
3,6.482000112533569,learn,53517.99988746643,Mon May 05 2025 19:06:34 GMT-0500 (Central Daylight Time),1488666.800000012,A,quee,O,e,130,1,1766.0999999642372,1486900.7000000477,7137,WL,C,2.0
3,6.5980000495910645,learn,53401.999950408936,Mon May 05 2025 19:06:34 GMT-0500 (Central Daylight Time),1488783.1000000238,A,queen,O,n,107,1,1882.3999999761581,1486900.7000000477,7137,WL,C,2.0
3,7.04800009727478,learn,52951.99990272522,Mon May 05 2025 19:06:34 GMT-0500 (Central Daylight Time),1489233.1000000238,A,queenenter,O,enter,438,1,2332.399999976158,1486900.7000000477,7137,WL,C,2.0
3,8.398000001907349,learn,51601.99999809265,Mon May 05 2025 19:06:34 GMT-0500 (Central Daylight Time),1490582.6000000238,A,s,O,s,1332,1,1349.1000000238419,1489233.5,7137,WL,C,3.0
3,8.565000057220459,learn,51434.99994277954,Mon May 05 2025 19:06:34 GMT-0500 (Central Daylight Time),1490749.300000012,A,su,O,u,151,1,1515.800000011921,1489233.5,7137,WL,C,3.0
3,8.831000089645386,learn,51168.999910354614,Mon May 05 2025 19:06:34 GMT-0500 (Central Daylight Time),1491016.0,A,sug,O,g,248,1,1782.5,1489233.5,7137,WL,C,3.0
3,9.081000089645386,learn,50918.999910354614,Mon May 05 2025 19:06:34 GMT-0500 (Central Daylight Time),1491265.7000000477,A,suga,O,a,237,1,2032.2000000476837,1489233.5,7137,WL,C,3.0
3,9.313999891281128,learn,50686.00010871887,Mon May 05 2025 19:06:34 GMT-0500 (Central Daylight Time),1491498.7000000477,A,sugar,O,r,228,1,2265.2000000476837,1489233.5,7137,WL,C,3.0
3,9.763999938964844,learn,50236.000061035156,Mon May 05 2025 19:06:34 GMT-0500 (Central Daylight Time),1491948.9000000358,A,sugarenter,O,enter,435,1,2715.400000035763,1489233.5,7137,WL,C,3.0
3,16.644999980926514,learn,43355.000019073486,Mon May 05 2025 19:06:34 GMT-0500 (Central Daylight Time),1498830.1000000238,A,h,O,h,6865,1,6880.899999976158,1491949.2000000477,7137,WL,C,4.0
3,16.91100001335144,learn,43088.99998664856,Mon May 05 2025 19:06:34 GMT-0500 (Central Daylight Time),1499096.5,A,ho,O,o,247,1,7147.299999952316,1491949.2000000477,7137,WL,C,4.0
3,17.111000061035156,learn,42888.999938964844,Mon May 05 2025 19:06:34 GMT-0500 (Central Daylight Time),1499296.4000000358,A,hom,O,m,181,1,7347.199999988079,1491949.2000000477,7137,WL,C,4.0
3,17.311000108718872,learn,42688.99989128113,Mon May 05 2025 19:06:34 GMT-0500 (Central Daylight Time),1499496.7000000477,A,home,O,e,189,1,7547.5,1491949.2000000477,7137,WL,C,4.0
3,17.51099991798401,learn,42489.00008201599,Mon May 05 2025 19:06:34 GMT-0500 (Central Daylight Time),1499696.2000000477,A,homeenter,O,enter,181,1,7747.0,1491949.2000000477,7137,WL,C,4.0
3,18.17799997329712,learn,41822.00002670288,Mon May 05 2025 19:06:34 GMT-0500 (Central Daylight Time),1500362.9000000358,A,b,O,b,653,1,666.3000000119209,1499696.6000000238,7137,WL,C,5.0
3,18.378000020980835,learn,41621.999979019165,Mon May 05 2025 19:06:34 GMT-0500 (Central Daylight Time),1500562.9000000358,A,bo,O,o,186,1,866.3000000119209,1499696.6000000238,7137,WL,C,5.0
3,18.611000061035156,learn,41388.999938964844,Mon May 05 2025 19:06:34 GMT-0500 (Central Daylight Time),1500796.1000000238,A,boy,O,y,219,1,1099.5,1499696.6000000238,7137,WL,C,5.0
3,19.776999950408936,learn,40223.000049591064,Mon May 05 2025 19:06:34 GMT-0500 (Central Daylight Time),1501962.2000000477,A,boyenter,O,enter,1153,1,2265.600000023842,1499696.6000000238,7137,WL,C,5.0
3,20.460000038146973,learn,39539.99996185303,Mon May 05 2025 19:06:34 GMT-0500 (Central Daylight Time),1502645.4000000358,A,c,O,c,675,1,682.8000000119209,1501962.6000000238,7137,WL,C,6.0
3,20.627000093460083,learn,39372.99990653992,Mon May 05 2025 19:06:34 GMT-0500 (Central Daylight Time),1502812.2000000477,A,ca,O,a,152,1,849.6000000238419,1501962.6000000238,7137,WL,C,6.0
3,20.743000030517578,learn,39256.99996948242,Mon May 05 2025 19:06:34 GMT-0500 (Central Daylight Time),1502928.800000012,A,cam,O,m,97,1,966.1999999880791,1501962.6000000238,7137,WL,C,6.0
3,20.993000030517578,learn,39006.99996948242,Mon May 05 2025 19:06:34 GMT-0500 (Central Daylight Time),1503178.800000012,A,camp,O,p,229,1,1216.199999988079,1501962.6000000238,7137,WL,C,6.0
3,21.444999933242798,learn,38555.0000667572,Mon May 05 2025 19:06:34 GMT-0500 (Central Daylight Time),1503630.4000000358,A,campenter,O,enter,434,1,1667.800000011921,1501962.6000000238,7137,WL,C,6.0
3,23.109999895095825,learn,36890.000104904175,Mon May 05 2025 19:06:34 GMT-0500 (Central Daylight Time),1505295.800000012,A,d,O,d,1644,1,1662.8999999761581,1503632.9000000358,7137,WL,C,7.0
3,23.242000102996826,learn,36757.999897003174,Mon May 05 2025 19:06:34 GMT-0500 (Central Daylight Time),1505427.6000000238,A,do,O,o,125,1,1794.699999988079,1503632.9000000358,7137,WL,C,7.0
3,23.408999919891357,learn,36591.00008010864,Mon May 05 2025 19:06:34 GMT-0500 (Central Daylight Time),1505594.5,A,doc,O,c,145,1,1961.5999999642372,1503632.9000000358,7137,WL,C,7.0
3,23.658999919891357,learn,36341.00008010864,Mon May 05 2025 19:06:34 GMT-0500 (Central Daylight Time),1505844.5,A,doct,O,t,235,1,2211.599999964237,1503632.9000000358,7137,WL,C,7.0
3,23.80900001525879,learn,36190.99998474121,Mon May 05 2025 19:06:34 GMT-0500 (Central Daylight Time),1505994.5,A,docto,O,o,145,1,2361.599999964237,1503632.9000000358,7137,WL,C,7.0
3,23.95900011062622,learn,36040.99988937378,Mon May 05 2025 19:06:34 GMT-0500 (Central Daylight Time),1506144.300000012,A,doctor,O,r,131,1,2511.399999976158,1503632.9000000358,7137,WL,C,7.0
3,24.325999975204468,learn,35674.00002479553,Mon May 05 2025 19:06:34 GMT-0500 (Central Daylight Time),1506511.1000000238,A,doctorenter,O,enter,349,1,2878.199999988079,1503632.9000000358,7137,WL,C,7.0
3,26.492000102996826,learn,33507.999897003174,Mon May 05 2025 19:06:34 GMT-0500 (Central Daylight Time),1508677.0,A,f,O,f,2158,1,2165.5,1506511.5,7137,WL,C,8.0
3,26.72499990463257,learn,33275.00009536743,Mon May 05 2025 19:06:34 GMT-0500 (Central Daylight Time),1508910.2000000477,A,fl,O,l,216,1,2398.7000000476837,1506511.5,7137,WL,C,8.0
3,27.174999952316284,learn,32825.000047683716,Mon May 05 2025 19:06:34 GMT-0500 (Central Daylight Time),1509360.2000000477,A,fla,O,a,431,1,2848.7000000476837,1506511.5,7137,WL,C,8.0
3,27.44099998474121,learn,32559.00001525879,Mon May 05 2025 19:06:34 GMT-0500 (Central Daylight Time),1509626.6000000238,A,flag,O,g,245,1,3115.100000023842,1506511.5,7137,WL,C,8.0
3,27.808000087738037,learn,32191.999912261963,Mon May 05 2025 19:06:34 GMT-0500 (Central Daylight Time),1509993.4000000358,A,flagenter,O,enter,347,1,3481.900000035763,1506511.5,7137,WL,C,8.0
3,30.174000024795532,learn,29825.999975204468,Mon May 05 2025 19:06:34 GMT-0500 (Central Daylight Time),1512359.0,A,l,O,l,2348,1,2365.2999999523163,1509993.7000000477,7137,WL,C,9.0
3,30.33999991416931,learn,29660.00008583069,Mon May 05 2025 19:06:34 GMT-0500 (Central Daylight Time),1512525.7000000477,A,le,O,e,158,1,2532.0,1509993.7000000477,7137,WL,C,9.0
3,30.60700011253357,learn,29392.99988746643,Mon May 05 2025 19:06:34 GMT-0500 (Central Daylight Time),1512792.2000000477,A,let,O,t,247,1,2798.5,1509993.7000000477,7137,WL,C,9.0
3,30.707000017166138,learn,29292.999982833862,Mon May 05 2025 19:06:34 GMT-0500 (Central Daylight Time),1512892.4000000358,A,lett,O,t,93,1,2898.699999988079,1509993.7000000477,7137,WL,C,9.0
3,30.83999991416931,learn,29160.00008583069,Mon May 05 2025 19:06:34 GMT-0500 (Central Daylight Time),1513025.800000012,A,lette,O,e,121,1,3032.099999964237,1509993.7000000477,7137,WL,C,9.0
3,30.924000024795532,learn,29075.999975204468,Mon May 05 2025 19:06:34 GMT-0500 (Central Daylight Time),1513109.9000000358,A,letter,O,r,76,1,3116.199999988079,1509993.7000000477,7137,WL,C,9.0
3,31.256999969482422,learn,28743.000030517578,Mon May 05 2025 19:06:34 GMT-0500 (Central Daylight Time),1513442.1000000238,A,letterenter,O,enter,312,1,3448.399999976158,1509993.7000000477,7137,WL,C,9.0
3,32.67300009727478,learn,27326.99990272522,Mon May 05 2025 19:06:34 GMT-0500 (Central Daylight Time),1514858.2000000477,A,n,O,n,1403,1,1415.800000011921,1513442.4000000358,7137,WL,C,10.0
3,32.85599994659424,learn,27144.00005340576,Mon May 05 2025 19:06:34 GMT-0500 (Central Daylight Time),1515041.7000000477,A,na,O,a,171,1,1599.300000011921,1513442.4000000358,7137,WL,C,10.0
3,32.99000000953674,learn,27009.999990463257,Mon May 05 2025 19:06:34 GMT-0500 (Central Daylight Time),1515175.2000000477,A,nai,O,i,116,1,1732.800000011921,1513442.4000000358,7137,WL,C,10.0
3,34.67199993133545,learn,25328.00006866455,Mon May 05 2025 19:06:34 GMT-0500 (Central Daylight Time),1516857.800000012,A,nail,O,l,1670,1,3415.399999976158,1513442.4000000358,7137,WL,C,10.0
3,35.055999994277954,learn,24944.000005722046,Mon May 05 2025 19:06:34 GMT-0500 (Central Daylight Time),1517241.1000000238,A,nailenter,O,enter,372,1,3798.699999988079,1513442.4000000358,7137,WL,C,10.0
3,35.92199993133545,learn,24078.00006866455,Mon May 05 2025 19:06:34 GMT-0500 (Central Daylight Time),1518107.0,A,c,O,c,860,1,865.5999999642372,1517241.4000000358,7137,WL,C,11.0
3,36.105000019073486,learn,23894.999980926514,Mon May 05 2025 19:06:34 GMT-0500 (Central Daylight Time),1518290.5,A,ca,O,a,178,1,1049.0999999642372,1517241.4000000358,7137,WL,C,11.0
3,36.355000019073486,learn,23644.999980926514,Mon May 05 2025 19:06:34 GMT-0500 (Central Daylight Time),1518540.5,A,cat,O,t,243,1,1299.0999999642372,1517241.4000000358,7137,WL,C,11.0
3,36.50500011444092,learn,23494.999885559082,Mon May 05 2025 19:06:34 GMT-0500 (Central Daylight Time),1518690.4000000358,A,catt,O,t,144,1,1449.0,1517241.4000000358,7137,WL,C,11.0
3,36.73799991607666,learn,23262.00008392334,Mon May 05 2025 19:06:34 GMT-0500 (Central Daylight Time),1518923.6000000238,A,cattl,O,l,227,1,1682.199999988079,1517241.4000000358,7137,WL,C,11.0
3,36.954999923706055,learn,23045.000076293945,Mon May 05 2025 19:06:34 GMT-0500 (Central Daylight Time),1519140.4000000358,A,cattle,O,e,202,1,1899.0,1517241.4000000358,7137,WL,C,11.0
3,37.52300000190735,learn,22476.99999809265,Mon May 05 2025 19:06:34 GMT-0500 (Central Daylight Time),1519708.0,A,cattleenter,O,enter,561,1,2466.599999964237,1517241.4000000358,7137,WL,C,11.0
3,53.25,learn,6750.0,Mon May 05 2025 19:06:34 GMT-0500 (Central Daylight Time),1535434.9000000358,A,s,O,s,15721,1,15726.5,1519708.4000000358,7137,WL,C,12.0
3,53.40000009536743,learn,6599.999904632568,Mon May 05 2025 19:06:34 GMT-0500 (Central Daylight Time),1535585.4000000358,A,sh,O,h,130,1,15877.0,1519708.4000000358,7137,WL,C,12.0
3,53.532999992370605,learn,6467.0000076293945,Mon May 05 2025 19:06:34 GMT-0500 (Central Daylight Time),1535718.5,A,sho,O,o,116,1,16010.099999964237,1519708.4000000358,7137,WL,C,12.0
3,53.700000047683716,learn,6299.999952316284,Mon May 05 2025 19:06:34 GMT-0500 (Central Daylight Time),1535885.0,A,shor,O,r,151,1,16176.599999964237,1519708.4000000358,7137,WL,C,12.0
3,54.25,learn,5750.0,Mon May 05 2025 19:06:34 GMT-0500 (Central Daylight Time),1536435.1000000238,A,shore,O,e,536,1,16726.69999998808,1519708.4000000358,7137,WL,C,12.0
3,54.6489999294281,learn,5351.000070571899,Mon May 05 2025 19:06:34 GMT-0500 (Central Daylight Time),1536834.7000000477,A,shoreenter,O,enter,386,1,17126.30000001192,1519708.4000000358,7137,WL,C,12.0
3,60.015000104904175,learn,-15.000104904174805,Mon May 05 2025 19:06:34 GMT-0500 (Central Daylight Time),1542199.9000000358,A,None,O,None,5361,1,5364.900000035763,1536835.0,7137,WL,C,13.0
4,2.2170000076293945,learn,57782.999992370605,Mon May 05 2025 19:06:34 GMT-0500 (Central Daylight Time),1618642.5,A,t,O,t,2195,1,2215.899999976158,1616426.6000000238,7137,WL,C,1.0
4,2.5829999446868896,learn,57417.00005531311,Mon May 05 2025 19:06:34 GMT-0500 (Central Daylight Time),1619009.5,A,to,O,o,346,1,2582.899999976158,1616426.6000000238,7137,WL,C,1.0
4,2.8489999771118164,learn,57151.00002288818,Mon May 05 2025 19:06:34 GMT-0500 (Central Daylight Time),1619275.6000000238,A,tow,O,w,260,1,2849.0,1616426.6000000238,7137,WL,C,1.0
4,3.0160000324249268,learn,56983.99996757507,Mon May 05 2025 19:06:34 GMT-0500 (Central Daylight Time),1619442.2000000477,A,towe,O,e,146,1,3015.600000023842,1616426.6000000238,7137,WL,C,1.0
4,3.2820000648498535,learn,56717.99993515015,Mon May 05 2025 19:06:34 GMT-0500 (Central Daylight Time),1619708.9000000358,A,tower,O,r,259,1,3282.300000011921,1616426.6000000238,7137,WL,C,1.0
4,4.015000104904175,learn,55984.999895095825,Mon May 05 2025 19:06:34 GMT-0500 (Central Daylight Time),1620442.0,A,towerenter,O,enter,713,1,4015.399999976158,1616426.6000000238,7137,WL,C,1.0
4,5.0290000438690186,learn,54970.99995613098,Mon May 05 2025 19:06:34 GMT-0500 (Central Daylight Time),1621455.5,A,q,O,q,993,1,1013.1999999880791,1620442.300000012,7137,WL,C,2.0
4,5.232000112533569,learn,54767.99988746643,Mon May 05 2025 19:06:34 GMT-0500 (Central Daylight Time),1621658.300000012,A,qu,O,u,189,1,1216.0,1620442.300000012,7137,WL,C,2.0
4,5.482000112533569,learn,54517.99988746643,Mon May 05 2025 19:06:34 GMT-0500 (Central Daylight Time),1621908.4000000358,A,que,O,e,235,1,1466.1000000238419,1620442.300000012,7137,WL,C,2.0
4,5.648000001907349,learn,54351.99999809265,Mon May 05 2025 19:06:34 GMT-0500 (Central Daylight Time),1622074.800000012,A,quee,O,e,153,1,1632.5,1620442.300000012,7137,WL,C,2.0
4,5.8480000495910645,learn,54151.999950408936,Mon May 05 2025 19:06:34 GMT-0500 (Central Daylight Time),1622274.6000000238,A,queen,O,n,187,1,1832.300000011921,1620442.300000012,7137,WL,C,2.0
4,6.2809998989105225,learn,53719.00010108948,Mon May 05 2025 19:06:34 GMT-0500 (Central Daylight Time),1622707.800000012,A,queenenter,O,enter,419,1,2265.5,1620442.300000012,7137,WL,C,2.0
4,7.430999994277954,learn,52569.000005722046,Mon May 05 2025 19:06:34 GMT-0500 (Central Daylight Time),1623857.5,A,s,O,s,1137,1,1149.3999999761581,1622708.1000000238,7137,WL,C,3.0
4,7.648000001907349,learn,52351.99999809265,Mon May 05 2025 19:06:34 GMT-0500 (Central Daylight Time),1624074.1000000238,A,su,O,u,195,1,1366.0,1622708.1000000238,7137,WL,C,3.0
4,8.148000001907349,learn,51851.99999809265,Mon May 05 2025 19:06:34 GMT-0500 (Central Daylight Time),1624574.1000000238,A,sug,O,g,483,1,1866.0,1622708.1000000238,7137,WL,C,3.0
4,8.331000089645386,learn,51668.999910354614,Mon May 05 2025 19:06:34 GMT-0500 (Central Daylight Time),1624757.2000000477,A,suga,O,a,167,1,2049.100000023842,1622708.1000000238,7137,WL,C,3.0
4,8.563999891281128,learn,51436.00010871887,Mon May 05 2025 19:06:34 GMT-0500 (Central Daylight Time),1624990.5,A,sugar,O,r,224,1,2282.399999976158,1622708.1000000238,7137,WL,C,3.0
4,9.030999898910522,learn,50969.00010108948,Mon May 05 2025 19:06:34 GMT-0500 (Central Daylight Time),1625457.0,A,sugarenter,O,enter,447,1,2748.899999976158,1622708.1000000238,7137,WL,C,3.0
4,13.446000099182129,learn,46553.99990081787,Mon May 05 2025 19:06:34 GMT-0500 (Central Daylight Time),1629872.300000012,A,w,O,w,4396,1,4415.0,1625457.300000012,7137,WL,C,4.0
4,13.628999948501587,learn,46371.00005149841,Mon May 05 2025 19:06:34 GMT-0500 (Central Daylight Time),1630055.5,A,wh,O,h,165,1,4598.199999988079,1625457.300000012,7137,WL,C,4.0
4,13.946000099182129,learn,46053.99990081787,Mon May 05 2025 19:06:34 GMT-0500 (Central Daylight Time),1630372.2000000477,A,whe,O,e,310,1,4914.900000035763,1625457.300000012,7137,WL,C,4.0
4,14.161999940872192,learn,45838.00005912781,Mon May 05 2025 19:06:34 GMT-0500 (Central Daylight Time),1630588.800000012,A,whea,O,a,201,1,5131.5,1625457.300000012,7137,WL,C,4.0
4,14.378999948501587,learn,45621.00005149841,Mon May 05 2025 19:06:34 GMT-0500 (Central Daylight Time),1630805.1000000238,A,wheat,O,t,209,1,5347.800000011921,1625457.300000012,7137,WL,C,4.0
4,14.861999988555908,learn,45138.00001144409,Mon May 05 2025 19:06:34 GMT-0500 (Central Daylight Time),1631288.4000000358,A,wheatenter,O,enter,472,1,5831.100000023842,1625457.300000012,7137,WL,C,4.0
4,16.411999940872192,learn,43588.00005912781,Mon May 05 2025 19:06:34 GMT-0500 (Central Daylight Time),1632838.2000000477,A,h,O,h,1541,1,1549.5,1631288.7000000477,7137,WL,C,5.0
4,16.59500002861023,learn,43404.99997138977,Mon May 05 2025 19:06:34 GMT-0500 (Central Daylight Time),1633021.300000012,A,ho,O,o,167,1,1732.5999999642372,1631288.7000000477,7137,WL,C,5.0
4,16.778000116348267,learn,43221.99988365173,Mon May 05 2025 19:06:34 GMT-0500 (Central Daylight Time),1633204.5,A,hom,O,m,176,1,1915.7999999523163,1631288.7000000477,7137,WL,C,5.0
4,17.01099991798401,learn,42989.00008201599,Mon May 05 2025 19:06:34 GMT-0500 (Central Daylight Time),1633437.800000012,A,home,O,e,217,1,2149.099999964237,1631288.7000000477,7137,WL,C,5.0
4,17.34500002861023,learn,42654.99997138977,Mon May 05 2025 19:06:34 GMT-0500 (Central Daylight Time),1633771.2000000477,A,homeenter,O,enter,320,1,2482.5,1631288.7000000477,7137,WL,C,5.0
4,18.17799997329712,learn,41822.00002670288,Mon May 05 2025 19:06:34 GMT-0500 (Central Daylight Time),1634604.300000012,A,b,O,b,818,1,832.8000000119209,1633771.5,7137,WL,C,6.0
4,18.42799997329712,learn,41572.00002670288,Mon May 05 2025 19:06:34 GMT-0500 (Central Daylight Time),1634854.1000000238,A,bo,O,o,233,1,1082.6000000238419,1633771.5,7137,WL,C,6.0
4,18.793999910354614,learn,41206.000089645386,Mon May 05 2025 19:06:34 GMT-0500 (Central Daylight Time),1635220.5,A,boy,O,y,359,1,1449.0,1633771.5,7137,WL,C,6.0
4,19.710000038146973,learn,40289.99996185303,Mon May 05 2025 19:06:34 GMT-0500 (Central Daylight Time),1636137.0,A,boyenter,O,enter,905,1,2365.5,1633771.5,7137,WL,C,6.0
4,20.776999950408936,learn,39223.000049591064,Mon May 05 2025 19:06:34 GMT-0500 (Central Daylight Time),1637203.1000000238,A,d,O,d,1061,1,1065.800000011921,1636137.300000012,7137,WL,C,7.0
4,20.943000078201294,learn,39056.999921798706,Mon May 05 2025 19:06:34 GMT-0500 (Central Daylight Time),1637370.0,A,do,O,o,146,1,1232.699999988079,1636137.300000012,7137,WL,C,7.0
4,21.07699990272522,learn,38923.00009727478,Mon May 05 2025 19:06:34 GMT-0500 (Central Daylight Time),1637503.300000012,A,doc,O,c,123,1,1366.0,1636137.300000012,7137,WL,C,7.0
4,21.342999935150146,learn,38657.00006484985,Mon May 05 2025 19:06:34 GMT-0500 (Central Daylight Time),1637769.9000000358,A,doct,O,t,254,1,1632.6000000238419,1636137.300000012,7137,WL,C,7.0
4,21.493000030517578,learn,38506.99996948242,Mon May 05 2025 19:06:34 GMT-0500 (Central Daylight Time),1637919.800000012,A,docto,O,o,140,1,1782.5,1636137.300000012,7137,WL,C,7.0
4,21.693000078201294,learn,38306.999921798706,Mon May 05 2025 19:06:34 GMT-0500 (Central Daylight Time),1638119.7000000477,A,doctor,O,r,190,1,1982.4000000357628,1636137.300000012,7137,WL,C,7.0
4,22.175999879837036,learn,37824.000120162964,Mon May 05 2025 19:06:34 GMT-0500 (Central Daylight Time),1638602.9000000358,A,doctorenter,O,enter,470,1,2465.600000023842,1636137.300000012,7137,WL,C,7.0
4,22.710000038146973,learn,37289.99996185303,Mon May 05 2025 19:06:34 GMT-0500 (Central Daylight Time),1639136.2000000477,A,c,O,c,522,1,532.9000000357628,1638603.300000012,7137,WL,C,8.0
4,22.875999927520752,learn,37124.00007247925,Mon May 05 2025 19:06:34 GMT-0500 (Central Daylight Time),1639302.800000012,A,ca,O,a,149,1,699.5,1638603.300000012,7137,WL,C,8.0
4,23.075999975204468,learn,36924.00002479553,Mon May 05 2025 19:06:34 GMT-0500 (Central Daylight Time),1639502.800000012,A,cam,O,m,190,1,899.5,1638603.300000012,7137,WL,C,8.0
4,23.425999879837036,learn,36574.000120162964,Mon May 05 2025 19:06:34 GMT-0500 (Central Daylight Time),1639852.300000012,A,camp,O,p,335,1,1249.0,1638603.300000012,7137,WL,C,8.0
4,23.925999879837036,learn,36074.000120162964,Mon May 05 2025 19:06:34 GMT-0500 (Central Daylight Time),1640352.2000000477,A,campenter,O,enter,489,1,1748.9000000357628,1638603.300000012,7137,WL,C,8.0
4,26.05900001525879,learn,33940.99998474121,Mon May 05 2025 19:06:34 GMT-0500 (Central Daylight Time),1642485.1000000238,A,f,O,f,2125,1,2132.600000023842,1640352.5,7137,WL,C,9.0
4,26.507999897003174,learn,33492.000102996826,Mon May 05 2025 19:06:34 GMT-0500 (Central Daylight Time),1642934.9000000358,A,fl,O,l,440,1,2582.400000035763,1640352.5,7137,WL,C,9.0
4,26.674999952316284,learn,33325.000047683716,Mon May 05 2025 19:06:34 GMT-0500 (Central Daylight Time),1643101.5,A,fla,O,a,150,1,2749.0,1640352.5,7137,WL,C,9.0
4,27.591000080108643,learn,32408.999919891357,Mon May 05 2025 19:06:34 GMT-0500 (Central Daylight Time),1644018.0,A,flaf,O,f,896,1,3665.5,1640352.5,7137,WL,C,9.0
4,28.174999952316284,learn,31825.000047683716,Mon May 05 2025 19:06:34 GMT-0500 (Central Daylight Time),1644601.2000000477,A,fla,O,backspace,564,1,4248.700000047684,1640352.5,7137,WL,C,9.0
4,28.374000072479248,learn,31625.999927520752,Mon May 05 2025 19:06:34 GMT-0500 (Central Daylight Time),1644800.5,A,flag,O,g,194,1,4448.0,1640352.5,7137,WL,C,9.0
4,28.624000072479248,learn,31375.999927520752,Mon May 05 2025 19:06:34 GMT-0500 (Central Daylight Time),1645050.6000000238,A,flagenter,O,enter,237,1,4698.100000023842,1640352.5,7137,WL,C,9.0
4,32.85599994659424,learn,27144.00005340576,Mon May 05 2025 19:06:34 GMT-0500 (Central Daylight Time),1649282.9000000358,A,c,O,c,4219,1,4232.100000023842,1645050.800000012,7137,WL,C,10.0
4,33.00600004196167,learn,26993.99995803833,Mon May 05 2025 19:06:34 GMT-0500 (Central Daylight Time),1649432.9000000358,A,co,O,o,131,1,4382.100000023842,1645050.800000012,7137,WL,C,10.0
4,33.17300009727478,learn,26826.99990272522,Mon May 05 2025 19:06:34 GMT-0500 (Central Daylight Time),1649599.800000012,A,cor,O,r,148,1,4549.0,1645050.800000012,7137,WL,C,10.0
4,33.37299990653992,learn,26627.000093460083,Mon May 05 2025 19:06:34 GMT-0500 (Central Daylight Time),1649799.300000012,A,corn,O,n,182,1,4748.5,1645050.800000012,7137,WL,C,10.0
4,33.723000049591064,learn,26276.999950408936,Mon May 05 2025 19:06:34 GMT-0500 (Central Daylight Time),1650149.1000000238,A,cornenter,O,enter,334,1,5098.300000011921,1645050.800000012,7137,WL,C,10.0
4,34.35599994659424,learn,25644.00005340576,Mon May 05 2025 19:06:34 GMT-0500 (Central Daylight Time),1650782.2000000477,A,l,O,l,617,1,632.9000000357628,1650149.300000012,7137,WL,C,11.0
4,34.50600004196167,learn,25493.99995803833,Mon May 05 2025 19:06:34 GMT-0500 (Central Daylight Time),1650932.4000000358,A,le,O,e,135,1,783.1000000238419,1650149.300000012,7137,WL,C,11.0
4,34.83899998664856,learn,25161.00001335144,Mon May 05 2025 19:06:34 GMT-0500 (Central Daylight Time),1651265.5,A,let,O,t,313,1,1116.199999988079,1650149.300000012,7137,WL,C,11.0
4,35.121999979019165,learn,24878.000020980835,Mon May 05 2025 19:06:34 GMT-0500 (Central Daylight Time),1651548.800000012,A,lett,O,t,276,1,1399.5,1650149.300000012,7137,WL,C,11.0
4,35.33899998664856,learn,24661.00001335144,Mon May 05 2025 19:06:34 GMT-0500 (Central Daylight Time),1651765.300000012,A,lette,O,e,209,1,1616.0,1650149.300000012,7137,WL,C,11.0
4,35.388999938964844,learn,24611.000061035156,Mon May 05 2025 19:06:34 GMT-0500 (Central Daylight Time),1651815.1000000238,A,letter,O,r,32,1,1665.800000011921,1650149.300000012,7137,WL,C,11.0
4,35.871999979019165,learn,24128.000020980835,Mon May 05 2025 19:06:34 GMT-0500 (Central Daylight Time),1652298.5,A,letterenter,O,enter,478,1,2149.199999988079,1650149.300000012,7137,WL,C,11.0
4,38.0550000667572,learn,21944.999933242798,Mon May 05 2025 19:06:34 GMT-0500 (Central Daylight Time),1654481.1000000238,A,s,O,s,2163,1,2182.399999976158,1652298.7000000477,7137,WL,C,12.0
4,38.204999923706055,learn,21795.000076293945,Mon May 05 2025 19:06:34 GMT-0500 (Central Daylight Time),1654631.4000000358,A,sh,O,h,140,1,2332.699999988079,1652298.7000000477,7137,WL,C,12.0
4,38.37100005149841,learn,21628.999948501587,Mon May 05 2025 19:06:34 GMT-0500 (Central Daylight Time),1654797.9000000358,A,sho,O,o,158,1,2499.199999988079,1652298.7000000477,7137,WL,C,12.0
4,38.770999908447266,learn,21229.000091552734,Mon May 05 2025 19:06:34 GMT-0500 (Central Daylight Time),1655197.5,A,shor,O,r,384,1,2898.7999999523163,1652298.7000000477,7137,WL,C,12.0
4,39.354000091552734,learn,20645.999908447266,Mon May 05 2025 19:06:34 GMT-0500 (Central Daylight Time),1655780.9000000358,A,shore,O,e,575,1,3482.199999988079,1652298.7000000477,7137,WL,C,12.0
4,39.7039999961853,learn,20296.000003814697,Mon May 05 2025 19:06:34 GMT-0500 (Central Daylight Time),1656130.800000012,A,shoreenter,O,enter,337,1,3832.099999964237,1652298.7000000477,7137,WL,C,12.0
4,40.62100005149841,learn,19378.999948501587,Mon May 05 2025 19:06:34 GMT-0500 (Central Daylight Time),1657047.1000000238,A,b,O,b,907,1,915.8999999761581,1656131.2000000477,7137,WL,C,13.0
4,40.90400004386902,learn,19095.99995613098,Mon May 05 2025 19:06:34 GMT-0500 (Central Daylight Time),1657330.2000000477,A,bo,O,o,270,1,1199.0,1656131.2000000477,7137,WL,C,13.0
4,41.33699989318848,learn,18663.000106811523,Mon May 05 2025 19:06:34 GMT-0500 (Central Daylight Time),1657763.4000000358,A,bod,O,d,419,1,1632.199999988079,1656131.2000000477,7137,WL,C,13.0
4,41.53699994087219,learn,18463.000059127808,Mon May 05 2025 19:06:34 GMT-0500 (Central Daylight Time),1657963.7000000477,A,body,O,y,186,1,1832.5,1656131.2000000477,7137,WL,C,13.0
4,42.0699999332428,learn,17930.000066757202,Mon May 05 2025 19:06:34 GMT-0500 (Central Daylight Time),1658496.6000000238,A,bodyenter,O,enter,514,1,2365.399999976158,1656131.2000000477,7137,WL,C,13.0
4,43.03600001335144,learn,16963.99998664856,Mon May 05 2025 19:06:34 GMT-0500 (Central Daylight Time),1659462.7000000477,A,c,O,c,949,1,965.7000000476837,1658497.0,7137,WL,C,14.0
4,43.8529999256134,learn,16147.000074386597,Mon May 05 2025 19:06:34 GMT-0500 (Central Daylight Time),1660279.4000000358,A,ca,O,a,807,1,1782.4000000357628,1658497.0,7137,WL,C,14.0
4,44.3199999332428,learn,15680.000066757202,Mon May 05 2025 19:06:34 GMT-0500 (Central Daylight Time),1660746.1000000238,A,car,O,r,446,1,2249.100000023842,1658497.0,7137,WL,C,14.0
4,44.503000020980835,learn,15496.999979019165,Mon May 05 2025 19:06:34 GMT-0500 (Central Daylight Time),1660929.2000000477,A,carr,O,r,163,1,2432.2000000476837,1658497.0,7137,WL,C,14.0
4,44.8529999256134,learn,15147.000074386597,Mon May 05 2025 19:06:34 GMT-0500 (Central Daylight Time),1661279.1000000238,A,car,O,backspace,332,1,2782.100000023842,1658497.0,7137,WL,C,14.0
4,44.96900010108948,learn,15030.999898910522,Mon May 05 2025 19:06:34 GMT-0500 (Central Daylight Time),1661395.800000012,A,ca,O,backspace,110,1,2898.800000011921,1658497.0,7137,WL,C,14.0
4,45.18600010871887,learn,14813.999891281128,Mon May 05 2025 19:06:34 GMT-0500 (Central Daylight Time),1661612.300000012,A,cat,O,t,210,1,3115.300000011921,1658497.0,7137,WL,C,14.0
4,45.319000005722046,learn,14680.999994277954,Mon May 05 2025 19:06:34 GMT-0500 (Central Daylight Time),1661745.800000012,A,catt,O,t,113,1,3248.800000011921,1658497.0,7137,WL,C,14.0
4,45.53600001335144,learn,14463.99998664856,Mon May 05 2025 19:06:34 GMT-0500 (Central Daylight Time),1661962.6000000238,A,cattl,O,l,196,1,3465.600000023842,1658497.0,7137,WL,C,14.0
4,45.75200009346008,learn,14247.999906539917,Mon May 05 2025 19:06:34 GMT-0500 (Central Daylight Time),1662178.800000012,A,cattle,O,e,203,1,3681.800000011921,1658497.0,7137,WL,C,14.0
4,46.25200009346008,learn,13747.999906539917,Mon May 05 2025 19:06:34 GMT-0500 (Central Daylight Time),1662678.7000000477,A,cattleenter,O,enter,491,1,4181.700000047684,1658497.0,7137,WL,C,14.0
4,52.59999990463257,learn,7400.000095367432,Mon May 05 2025 19:06:34 GMT-0500 (Central Daylight Time),1669026.6000000238,A,w,O,w,6327,1,6347.600000023842,1662679.0,7137,WL,C,15.0
4,52.76699995994568,learn,7233.000040054321,Mon May 05 2025 19:06:34 GMT-0500 (Central Daylight Time),1669193.300000012,A,wh,O,h,147,1,6514.300000011921,1662679.0,7137,WL,C,15.0
4,53.08400011062622,learn,6915.999889373779,Mon May 05 2025 19:06:34 GMT-0500 (Central Daylight Time),1669511.0,A,whe,O,e,300,1,6832.0,1662679.0,7137,WL,C,15.0
4,53.21600008010864,learn,6783.999919891357,Mon May 05 2025 19:06:34 GMT-0500 (Central Daylight Time),1669642.9000000358,A,whea,O,a,119,1,6963.900000035763,1662679.0,7137,WL,C,15.0
4,53.40000009536743,learn,6599.999904632568,Mon May 05 2025 19:06:34 GMT-0500 (Central Daylight Time),1669826.5,A,wheat,O,t,163,1,7147.5,1662679.0,7137,WL,C,15.0
4,53.71600008010864,learn,6283.999919891357,Mon May 05 2025 19:06:34 GMT-0500 (Central Daylight Time),1670142.9000000358,A,wheatenter,O,enter,299,1,7463.900000035763,1662679.0,7137,WL,C,15.0
5,2.3330001831054688,learn,60000.0,Mon May 05 2025 19:06:34 GMT-0500 (Central Daylight Time),1742903.7000000477,A,t,O,t,2323,1,2332.7000000476837,1740571.0,7137,WL,C,1.0
5,2.6000001430511475,learn,60000.0,Mon May 05 2025 19:06:34 GMT-0500 (Central Daylight Time),1743170.5,A,to,O,o,245,1,2599.5,1740571.0,7137,WL,C,1.0
5,2.9160001277923584,learn,60000.0,Mon May 05 2025 19:06:34 GMT-0500 (Central Daylight Time),1743486.6000000238,A,tow,O,w,307,1,2915.600000023842,1740571.0,7137,WL,C,1.0
5,3.183000087738037,learn,60000.0,Mon May 05 2025 19:06:34 GMT-0500 (Central Daylight Time),1743753.2000000477,A,towe,O,e,247,1,3182.2000000476837,1740571.0,7137,WL,C,1.0
5,3.6490001678466797,learn,60000.0,Mon May 05 2025 19:06:34 GMT-0500 (Central Daylight Time),1744219.9000000358,A,tower,O,r,460,1,3648.900000035763,1740571.0,7137,WL,C,1.0
5,4.982000112533569,learn,60000.0,Mon May 05 2025 19:06:34 GMT-0500 (Central Daylight Time),1745552.9000000358,A,towerenter,O,enter,1314,1,4981.900000035763,1740571.0,7137,WL,C,1.0
5,6.465000152587891,learn,60000.0,Mon May 05 2025 19:06:34 GMT-0500 (Central Daylight Time),1747035.4000000358,A,q,O,q,1469,1,1482.199999988079,1745553.2000000477,7137,WL,C,2.0
5,6.648000001907349,learn,60000.0,Mon May 05 2025 19:06:34 GMT-0500 (Central Daylight Time),1747218.7000000477,A,qu,O,u,178,1,1665.5,1745553.2000000477,7137,WL,C,2.0
5,6.832000017166138,learn,60000.0,Mon May 05 2025 19:06:34 GMT-0500 (Central Daylight Time),1747402.1000000238,A,que,O,e,171,1,1848.8999999761581,1745553.2000000477,7137,WL,C,2.0
5,7.0320000648498535,learn,60000.0,Mon May 05 2025 19:06:34 GMT-0500 (Central Daylight Time),1747602.2000000477,A,quee,O,e,187,1,2049.0,1745553.2000000477,7137,WL,C,2.0
5,7.331000089645386,learn,60000.0,Mon May 05 2025 19:06:34 GMT-0500 (Central Daylight Time),1747902.1000000238,A,queen,O,n,291,1,2348.899999976158,1745553.2000000477,7137,WL,C,2.0
5,7.781000137329102,learn,60000.0,Mon May 05 2025 19:06:34 GMT-0500 (Central Daylight Time),1748352.0,A,queenenter,O,enter,439,1,2798.7999999523163,1745553.2000000477,7137,WL,C,2.0
5,11.080000162124634,learn,60000.0,Mon May 05 2025 19:06:34 GMT-0500 (Central Daylight Time),1751650.7000000477,A,w,O,w,3286,1,3298.400000035763,1748352.300000012,7137,WL,C,3.0
5,11.247000217437744,learn,60000.0,Mon May 05 2025 19:06:34 GMT-0500 (Central Daylight Time),1751817.300000012,A,wh,O,h,146,1,3465.0,1748352.300000012,7137,WL,C,3.0
5,11.514000177383423,learn,60000.0,Mon May 05 2025 19:06:34 GMT-0500 (Central Daylight Time),1752084.800000012,A,whe,O,e,260,1,3732.5,1748352.300000012,7137,WL,C,3.0
5,11.630000114440918,learn,60000.0,Mon May 05 2025 19:06:34 GMT-0500 (Central Daylight Time),1752200.6000000238,A,whea,O,a,104,1,3848.300000011921,1748352.300000012,7137,WL,C,3.0
5,11.880000114440918,learn,60000.0,Mon May 05 2025 19:06:34 GMT-0500 (Central Daylight Time),1752450.5,A,wheat,O,t,236,1,4098.199999988079,1748352.300000012,7137,WL,C,3.0
5,12.364000082015991,learn,60000.0,Mon May 05 2025 19:06:34 GMT-0500 (Central Daylight Time),1752934.9000000358,A,wheatenter,O,enter,475,1,4582.600000023842,1748352.300000012,7137,WL,C,3.0
5,13.446000099182129,learn,60000.0,Mon May 05 2025 19:06:34 GMT-0500 (Central Daylight Time),1754016.800000012,A,s,O,s,1071,1,1081.5999999642372,1752935.2000000477,7137,WL,C,4.0
5,13.59600019454956,learn,60000.0,Mon May 05 2025 19:06:34 GMT-0500 (Central Daylight Time),1754166.6000000238,A,su,O,u,133,1,1231.3999999761581,1752935.2000000477,7137,WL,C,4.0
5,14.496000051498413,learn,60000.0,Mon May 05 2025 19:06:34 GMT-0500 (Central Daylight Time),1755066.6000000238,A,sug,O,g,879,1,2131.399999976158,1752935.2000000477,7137,WL,C,4.0
5,14.646000146865845,learn,60000.0,Mon May 05 2025 19:06:34 GMT-0500 (Central Daylight Time),1755216.300000012,A,suga,O,a,131,1,2281.099999964237,1752935.2000000477,7137,WL,C,4.0
5,14.76200008392334,learn,60000.0,Mon May 05 2025 19:06:34 GMT-0500 (Central Daylight Time),1755333.0,A,sugar,O,r,101,1,2397.7999999523163,1752935.2000000477,7137,WL,C,4.0
5,15.212000131607056,learn,60000.0,Mon May 05 2025 19:06:34 GMT-0500 (Central Daylight Time),1755782.800000012,A,sugarenter,O,enter,440,1,2847.599999964237,1752935.2000000477,7137,WL,C,4.0
5,16.379000186920166,learn,60000.0,Mon May 05 2025 19:06:34 GMT-0500 (Central Daylight Time),1756949.300000012,A,h,O,h,1159,1,1166.0999999642372,1755783.2000000477,7137,WL,C,5.0
5,16.51200008392334,learn,60000.0,Mon May 05 2025 19:06:34 GMT-0500 (Central Daylight Time),1757082.6000000238,A,ho,O,o,128,1,1299.3999999761581,1755783.2000000477,7137,WL,C,5.0
5,16.695000171661377,learn,60000.0,Mon May 05 2025 19:06:34 GMT-0500 (Central Daylight Time),1757265.6000000238,A,hom,O,m,163,1,1482.3999999761581,1755783.2000000477,7137,WL,C,5.0
5,16.91200017929077,learn,60000.0,Mon May 05 2025 19:06:34 GMT-0500 (Central Daylight Time),1757482.300000012,A,home,O,e,197,1,1699.0999999642372,1755783.2000000477,7137,WL,C,5.0
5,17.128000020980835,learn,60000.0,Mon May 05 2025 19:06:34 GMT-0500 (Central Daylight Time),1757698.9000000358,A,homeenter,O,enter,211,1,1915.699999988079,1755783.2000000477,7137,WL,C,5.0
5,18.978000164031982,learn,60000.0,Mon May 05 2025 19:06:34 GMT-0500 (Central Daylight Time),1759548.2000000477,A,b,O,b,1835,1,1849.0,1757699.2000000477,7137,WL,C,6.0
5,19.1780002117157,learn,60000.0,Mon May 05 2025 19:06:34 GMT-0500 (Central Daylight Time),1759748.4000000358,A,bo,O,o,185,1,2049.199999988079,1757699.2000000477,7137,WL,C,6.0
5,19.478000164031982,learn,60000.0,Mon May 05 2025 19:06:34 GMT-0500 (Central Daylight Time),1760048.2000000477,A,boy,O,y,290,1,2349.0,1757699.2000000477,7137,WL,C,6.0
5,19.89400005340576,learn,60000.0,Mon May 05 2025 19:06:34 GMT-0500 (Central Daylight Time),1760464.9000000358,A,boyenter,O,enter,405,1,2765.699999988079,1757699.2000000477,7137,WL,C,6.0
5,21.360000133514404,learn,60000.0,Mon May 05 2025 19:06:34 GMT-0500 (Central Daylight Time),1761930.7000000477,A,d,O,d,1461,1,1465.4000000357628,1760465.300000012,7137,WL,C,7.0
5,21.527000188827515,learn,60000.0,Mon May 05 2025 19:06:34 GMT-0500 (Central Daylight Time),1762097.5,A,do,O,o,155,1,1632.199999988079,1760465.300000012,7137,WL,C,7.0
5,21.627000093460083,learn,60000.0,Mon May 05 2025 19:06:34 GMT-0500 (Central Daylight Time),1762197.6000000238,A,doc,O,c,92,1,1732.300000011921,1760465.300000012,7137,WL,C,7.0
5,21.992000102996826,learn,60000.0,Mon May 05 2025 19:06:34 GMT-0500 (Central Daylight Time),1762563.0,A,doct,O,t,216,1,2097.699999988079,1760465.300000012,7137,WL,C,7.0
5,22.157999992370605,learn,60000.0,Mon May 05 2025 19:06:34 GMT-0500 (Central Daylight Time),1762728.800000012,A,doctr,O,r,146,1,2263.5,1760465.300000012,7137,WL,C,7.0
5,22.760000228881836,learn,60000.0,Mon May 05 2025 19:06:34 GMT-0500 (Central Daylight Time),1763330.4000000358,A,doct,O,backspace,588,1,2865.100000023842,1760465.300000012,7137,WL,C,7.0
5,23.29300022125244,learn,60000.0,Mon May 05 2025 19:06:34 GMT-0500 (Central Daylight Time),1763863.7000000477,A,docto,O,o,515,1,3398.400000035763,1760465.300000012,7137,WL,C,7.0
5,23.843000173568726,learn,60000.0,Mon May 05 2025 19:06:34 GMT-0500 (Central Daylight Time),1764413.4000000358,A,doctor,O,r,542,1,3948.100000023842,1760465.300000012,7137,WL,C,7.0
5,24.109000205993652,learn,60000.0,Mon May 05 2025 19:06:34 GMT-0500 (Central Daylight Time),1764680.1000000238,A,doctorenter,O,enter,248,1,4214.800000011921,1760465.300000012,7137,WL,C,7.0
5,24.843000173568726,learn,60000.0,Mon May 05 2025 19:06:34 GMT-0500 (Central Daylight Time),1765413.2000000477,A,c,O,c,725,1,732.8000000119209,1764680.4000000358,7137,WL,C,8.0
5,25.04300022125244,learn,60000.0,Mon May 05 2025 19:06:34 GMT-0500 (Central Daylight Time),1765613.2000000477,A,ca,O,a,192,1,932.8000000119209,1764680.4000000358,7137,WL,C,8.0
5,25.259000062942505,learn,60000.0,Mon May 05 2025 19:06:34 GMT-0500 (Central Daylight Time),1765829.6000000238,A,cam,O,m,200,1,1149.199999988079,1764680.4000000358,7137,WL,C,8.0
5,25.592000007629395,learn,60000.0,Mon May 05 2025 19:06:34 GMT-0500 (Central Daylight Time),1766163.0,A,camp,O,p,320,1,1482.5999999642372,1764680.4000000358,7137,WL,C,8.0
5,26.12600016593933,learn,60000.0,Mon May 05 2025 19:06:34 GMT-0500 (Central Daylight Time),1766696.1000000238,A,campenter,O,enter,523,1,2015.699999988079,1764680.4000000358,7137,WL,C,8.0
5,26.675000190734863,learn,60000.0,Mon May 05 2025 19:06:34 GMT-0500 (Central Daylight Time),1767246.1000000238,A,f,O,f,533,1,549.6000000238419,1766696.5,7137,WL,C,9.0
5,26.808000087738037,learn,60000.0,Mon May 05 2025 19:06:34 GMT-0500 (Central Daylight Time),1767378.800000012,A,fa,O,a,128,1,682.3000000119209,1766696.5,7137,WL,C,9.0
5,26.992000102996826,learn,60000.0,Mon May 05 2025 19:06:34 GMT-0500 (Central Daylight Time),1767562.300000012,A,fal,O,l,164,1,865.8000000119209,1766696.5,7137,WL,C,9.0
5,27.642000198364258,learn,60000.0,Mon May 05 2025 19:06:34 GMT-0500 (Central Daylight Time),1768212.4000000358,A,fa,O,backspace,643,1,1515.9000000357628,1766696.5,7137,WL,C,9.0
5,27.77500009536743,learn,60000.0,Mon May 05 2025 19:06:34 GMT-0500 (Central Daylight Time),1768345.5,A,f,O,backspace,121,1,1649.0,1766696.5,7137,WL,C,9.0
5,28.009000062942505,learn,60000.0,Mon May 05 2025 19:06:34 GMT-0500 (Central Daylight Time),1768580.0,A,fl,O,l,228,1,1883.5,1766696.5,7137,WL,C,9.0
5,28.157999992370605,learn,60000.0,Mon May 05 2025 19:06:34 GMT-0500 (Central Daylight Time),1768729.1000000238,A,fla,O,a,137,1,2032.6000000238419,1766696.5,7137,WL,C,9.0
5,28.45800018310547,learn,60000.0,Mon May 05 2025 19:06:34 GMT-0500 (Central Daylight Time),1769028.7000000477,A,flag,O,g,284,1,2332.2000000476837,1766696.5,7137,WL,C,9.0
5,29.574000120162964,learn,60000.0,Mon May 05 2025 19:06:34 GMT-0500 (Central Daylight Time),1770145.1000000238,A,flagenter,O,enter,1105,1,3448.600000023842,1766696.5,7137,WL,C,9.0
5,30.27400016784668,learn,60000.0,Mon May 05 2025 19:06:34 GMT-0500 (Central Daylight Time),1770844.800000012,A,c,O,c,692,1,699.3999999761581,1770145.4000000358,7137,WL,C,10.0
5,30.391000032424927,learn,60000.0,Mon May 05 2025 19:06:34 GMT-0500 (Central Daylight Time),1770961.6000000238,A,co,O,o,97,1,816.1999999880791,1770145.4000000358,7137,WL,C,10.0
5,30.957000017166138,learn,60000.0,Mon May 05 2025 19:06:34 GMT-0500 (Central Daylight Time),1771527.9000000358,A,cor,O,r,556,1,1382.5,1770145.4000000358,7137,WL,C,10.0
5,31.29100012779236,learn,60000.0,Mon May 05 2025 19:06:34 GMT-0500 (Central Daylight Time),1771861.300000012,A,corn,O,n,326,1,1715.8999999761581,1770145.4000000358,7137,WL,C,10.0
5,31.824000120162964,learn,60000.0,Mon May 05 2025 19:06:34 GMT-0500 (Central Daylight Time),1772394.300000012,A,cornl,O,l,520,1,2248.899999976158,1770145.4000000358,7137,WL,C,10.0
5,31.957000017166138,learn,60000.0,Mon May 05 2025 19:06:34 GMT-0500 (Central Daylight Time),1772527.6000000238,A,cornle,O,e,123,1,2382.199999988079,1770145.4000000358,7137,WL,C,10.0
5,32.42400002479553,learn,60000.0,Mon May 05 2025 19:06:34 GMT-0500 (Central Daylight Time),1772994.300000012,A,cornl,O,backspace,462,1,2848.899999976158,1770145.4000000358,7137,WL,C,10.0
5,32.557000160217285,learn,60000.0,Mon May 05 2025 19:06:34 GMT-0500 (Central Daylight Time),1773127.800000012,A,corn,O,backspace,115,1,2982.399999976158,1770145.4000000358,7137,WL,C,10.0
5,32.94000005722046,learn,60000.0,Mon May 05 2025 19:06:34 GMT-0500 (Central Daylight Time),1773510.7000000477,A,cornenter,O,enter,374,1,3365.300000011921,1770145.4000000358,7137,WL,C,10.0
5,33.77300000190735,learn,60000.0,Mon May 05 2025 19:06:34 GMT-0500 (Central Daylight Time),1774343.5,A,l,O,l,823,1,832.3999999761581,1773511.1000000238,7137,WL,C,11.0
5,33.94000005722046,learn,60000.0,Mon May 05 2025 19:06:34 GMT-0500 (Central Daylight Time),1774510.5,A,le,O,e,158,1,999.3999999761581,1773511.1000000238,7137,WL,C,11.0
5,34.305999994277954,learn,60000.0,Mon May 05 2025 19:06:34 GMT-0500 (Central Daylight Time),1774876.9000000358,A,let,O,t,359,1,1365.800000011921,1773511.1000000238,7137,WL,C,11.0
5,34.540000200271606,learn,60000.0,Mon May 05 2025 19:06:34 GMT-0500 (Central Daylight Time),1775110.2000000477,A,lett,O,t,217,1,1599.1000000238419,1773511.1000000238,7137,WL,C,11.0
5,34.723000049591064,learn,60000.0,Mon May 05 2025 19:06:34 GMT-0500 (Central Daylight Time),1775293.300000012,A,lette,O,e,175,1,1782.199999988079,1773511.1000000238,7137,WL,C,11.0
5,34.805999994277954,learn,60000.0,Mon May 05 2025 19:06:34 GMT-0500 (Central Daylight Time),1775376.6000000238,A,letter,O,r,64,1,1865.5,1773511.1000000238,7137,WL,C,11.0
5,35.623000144958496,learn,60000.0,Mon May 05 2025 19:06:34 GMT-0500 (Central Daylight Time),1776193.6000000238,A,letterenter,O,enter,797,1,2682.5,1773511.1000000238,7137,WL,C,11.0
5,36.706000089645386,learn,60000.0,Mon May 05 2025 19:06:34 GMT-0500 (Central Daylight Time),1777276.2000000477,A,n,O,n,1076,1,1082.300000011921,1776193.9000000358,7137,WL,C,12.0
5,36.88900017738342,learn,60000.0,Mon May 05 2025 19:06:34 GMT-0500 (Central Daylight Time),1777459.4000000358,A,na,O,a,170,1,1265.5,1776193.9000000358,7137,WL,C,12.0
5,37.0220000743866,learn,60000.0,Mon May 05 2025 19:06:34 GMT-0500 (Central Daylight Time),1777592.6000000238,A,nai,O,i,114,1,1398.699999988079,1776193.9000000358,7137,WL,C,12.0
5,37.23900008201599,learn,60000.0,Mon May 05 2025 19:06:34 GMT-0500 (Central Daylight Time),1777809.2000000477,A,nail,O,l,205,1,1615.300000011921,1776193.9000000358,7137,WL,C,12.0
5,37.706000089645386,learn,60000.0,Mon May 05 2025 19:06:34 GMT-0500 (Central Daylight Time),1778276.2000000477,A,nailenter,O,enter,460,1,2082.300000011921,1776193.9000000358,7137,WL,C,12.0
5,38.25500011444092,learn,60000.0,Mon May 05 2025 19:06:34 GMT-0500 (Central Daylight Time),1778825.800000012,A,c,O,c,537,1,549.3000000119209,1778276.5,7137,WL,C,13.0
5,38.455000162124634,learn,60000.0,Mon May 05 2025 19:06:34 GMT-0500 (Central Daylight Time),1779025.300000012,A,ca,O,a,180,1,748.8000000119209,1778276.5,7137,WL,C,13.0
5,38.6710000038147,learn,60000.0,Mon May 05 2025 19:06:34 GMT-0500 (Central Daylight Time),1779241.800000012,A,cat,O,t,196,1,965.3000000119209,1778276.5,7137,WL,C,13.0
5,38.97100019454956,learn,60000.0,Mon May 05 2025 19:06:34 GMT-0500 (Central Daylight Time),1779541.7000000477,A,catt,O,t,284,1,1265.2000000476837,1778276.5,7137,WL,C,13.0
5,39.28800010681152,learn,60000.0,Mon May 05 2025 19:06:34 GMT-0500 (Central Daylight Time),1779858.2000000477,A,cattl,O,l,304,1,1581.7000000476837,1778276.5,7137,WL,C,13.0
5,39.98800015449524,learn,60000.0,Mon May 05 2025 19:06:34 GMT-0500 (Central Daylight Time),1780558.300000012,A,cattle,O,e,683,1,2281.800000011921,1778276.5,7137,WL,C,13.0
5,40.37100005149841,learn,60000.0,Mon May 05 2025 19:06:34 GMT-0500 (Central Daylight Time),1780941.6000000238,A,cattleenter,O,enter,375,1,2665.100000023842,1778276.5,7137,WL,C,13.0
5,41.33800005912781,learn,60000.0,Mon May 05 2025 19:06:34 GMT-0500 (Central Daylight Time),1781908.1000000238,A,s,O,s,951,1,966.1000000238419,1780942.0,7137,WL,C,14.0
5,41.4539999961853,learn,60000.0,Mon May 05 2025 19:06:34 GMT-0500 (Central Daylight Time),1782024.7000000477,A,sh,O,h,105,1,1082.7000000476837,1780942.0,7137,WL,C,14.0
5,41.57100009918213,learn,60000.0,Mon May 05 2025 19:06:34 GMT-0500 (Central Daylight Time),1782141.300000012,A,sho,O,o,109,1,1199.300000011921,1780942.0,7137,WL,C,14.0
5,41.78700017929077,learn,60000.0,Mon May 05 2025 19:06:34 GMT-0500 (Central Daylight Time),1782357.9000000358,A,shor,O,r,208,1,1415.9000000357628,1780942.0,7137,WL,C,14.0
5,42.65400004386902,learn,60000.0,Mon May 05 2025 19:06:34 GMT-0500 (Central Daylight Time),1783224.4000000358,A,shore,O,e,856,1,2282.400000035763,1780942.0,7137,WL,C,14.0
5,43.170000076293945,learn,60000.0,Mon May 05 2025 19:06:34 GMT-0500 (Central Daylight Time),1783740.800000012,A,shoreenter,O,enter,509,1,2798.800000011921,1780942.0,7137,WL,C,14.0
5,44.07000017166138,learn,60000.0,Mon May 05 2025 19:06:34 GMT-0500 (Central Daylight Time),1784640.4000000358,A,b,O,b,889,1,899.1999999880791,1783741.2000000477,7137,WL,C,15.0
5,44.253000020980835,learn,60000.0,Mon May 05 2025 19:06:34 GMT-0500 (Central Daylight Time),1784823.9000000358,A,bo,O,o,173,1,1082.699999988079,1783741.2000000477,7137,WL,C,15.0
5,44.670000076293945,learn,60000.0,Mon May 05 2025 19:06:34 GMT-0500 (Central Daylight Time),1785240.2000000477,A,bod,O,d,398,1,1499.0,1783741.2000000477,7137,WL,C,15.0
5,45.37000012397766,learn,60000.0,Mon May 05 2025 19:06:34 GMT-0500 (Central Daylight Time),1785940.1000000238,A,bodt,O,t,685,1,2198.899999976158,1783741.2000000477,7137,WL,C,15.0
5,45.986000061035156,learn,60000.0,Mon May 05 2025 19:06:34 GMT-0500 (Central Daylight Time),1786556.6000000238,A,bod,O,backspace,601,1,2815.399999976158,1783741.2000000477,7137,WL,C,15.0
5,47.069000005722046,learn,60000.0,Mon May 05 2025 19:06:34 GMT-0500 (Central Daylight Time),1787639.5,A,body,O,y,1073,1,3898.2999999523163,1783741.2000000477,7137,WL,C,15.0
5,47.569000005722046,learn,60000.0,Mon May 05 2025 19:06:34 GMT-0500 (Central Daylight Time),1788139.2000000477,A,bodyenter,O,enter,486,1,4398.0,1783741.2000000477,7137,WL,C,15.0
6,5.414999961853027,distr,54585.00003814697,Mon May 05 2025 19:06:34 GMT-0500 (Central Daylight Time),1869913.800000012,B,m,O,m,5395,1,5415.0,1864498.800000012,7137,WL,C,1.0
6,5.697999954223633,distr,54302.00004577637,Mon May 05 2025 19:06:34 GMT-0500 (Central Daylight Time),1870197.0,B,mo,O,o,275,1,5698.199999988079,1864498.800000012,7137,WL,C,1.0
6,6.0320000648498535,distr,53967.99993515015,Mon May 05 2025 19:06:34 GMT-0500 (Central Daylight Time),1870530.4000000358,B,mot,O,t,320,1,6031.600000023842,1864498.800000012,7137,WL,C,1.0
6,6.148000001907349,distr,53851.99999809265,Mon May 05 2025 19:06:34 GMT-0500 (Central Daylight Time),1870647.1000000238,B,moth,O,h,106,1,6148.300000011921,1864498.800000012,7137,WL,C,1.0
6,6.565000057220459,distr,53434.99994277954,Mon May 05 2025 19:06:34 GMT-0500 (Central Daylight Time),1871063.4000000358,B,mothe,O,e,407,1,6564.600000023842,1864498.800000012,7137,WL,C,1.0
6,6.730999946594238,distr,53269.00005340576,Mon May 05 2025 19:06:34 GMT-0500 (Central Daylight Time),1871230.1000000238,B,mother,O,r,150,1,6731.300000011921,1864498.800000012,7137,WL,C,1.0
6,7.180999994277954,distr,52819.000005722046,Mon May 05 2025 19:06:34 GMT-0500 (Central Daylight Time),1871680.0,B,motherenter,O,enter,439,1,7181.199999988079,1864498.800000012,7137,WL,C,1.0
6,7.998000144958496,distr,52001.999855041504,Mon May 05 2025 19:06:34 GMT-0500 (Central Daylight Time),1872496.300000012,B,c,O,c,798,1,816.0,1871680.300000012,7137,WL,C,2.0
6,8.114000082015991,distr,51885.99991798401,Mon May 05 2025 19:06:34 GMT-0500 (Central Daylight Time),1872612.9000000358,B,ch,O,h,101,1,932.6000000238419,1871680.300000012,7137,WL,C,2.0
6,8.331000089645386,distr,51668.999910354614,Mon May 05 2025 19:06:34 GMT-0500 (Central Daylight Time),1872829.4000000358,B,chr,O,r,209,1,1149.1000000238419,1871680.300000012,7137,WL,C,2.0
6,8.430999994277954,distr,51569.000005722046,Mon May 05 2025 19:06:34 GMT-0500 (Central Daylight Time),1872929.5,B,chri,O,i,80,1,1249.199999988079,1871680.300000012,7137,WL,C,2.0
6,8.71399998664856,distr,51286.00001335144,Mon May 05 2025 19:06:34 GMT-0500 (Central Daylight Time),1873212.7000000477,B,chris,O,s,268,1,1532.4000000357628,1871680.300000012,7137,WL,C,2.0
6,8.96399998664856,distr,51036.00001335144,Mon May 05 2025 19:06:34 GMT-0500 (Central Daylight Time),1873462.5,B,christ,O,t,233,1,1782.199999988079,1871680.300000012,7137,WL,C,2.0
6,9.48200011253357,distr,50517.99988746643,Mon May 05 2025 19:06:34 GMT-0500 (Central Daylight Time),1873980.1000000238,B,christm,O,m,511,1,2299.800000011921,1871680.300000012,7137,WL,C,2.0
6,9.71399998664856,distr,50286.00001335144,Mon May 05 2025 19:06:34 GMT-0500 (Central Daylight Time),1874212.300000012,B,christma,O,a,217,1,2532.0,1871680.300000012,7137,WL,C,2.0
6,10.21399998664856,distr,49786.00001335144,Mon May 05 2025 19:06:34 GMT-0500 (Central Daylight Time),1874712.4000000358,B,christmas,O,s,490,1,3032.100000023842,1871680.300000012,7137,WL,C,2.0
6,10.663000106811523,distr,49336.99989318848,Mon May 05 2025 19:06:34 GMT-0500 (Central Daylight Time),1875162.1000000238,B,christmasenter,O,enter,429,1,3481.800000011921,1871680.300000012,7137,WL,C,2.0
6,11.263000011444092,distr,48736.99998855591,Mon May 05 2025 19:06:34 GMT-0500 (Central Daylight Time),1875762.0,B,t,O,t,579,1,599.5999999642372,1875162.4000000358,7137,WL,C,3.0
6,11.413000106811523,distr,48586.99989318848,Mon May 05 2025 19:06:34 GMT-0500 (Central Daylight Time),1875911.7000000477,B,to,O,o,131,1,749.3000000119209,1875162.4000000358,7137,WL,C,3.0
6,11.546000003814697,distr,48453.9999961853,Mon May 05 2025 19:06:34 GMT-0500 (Central Daylight Time),1876044.9000000358,B,too,O,o,118,1,882.5,1875162.4000000358,7137,WL,C,3.0
6,11.880000114440918,distr,48119.99988555908,Mon May 05 2025 19:06:34 GMT-0500 (Central Daylight Time),1876378.4000000358,B,tool,O,l,312,1,1216.0,1875162.4000000358,7137,WL,C,3.0
6,13.163000106811523,distr,46836.99989318848,Mon May 05 2025 19:06:34 GMT-0500 (Central Daylight Time),1877661.2000000477,B,toolenter,O,enter,1267,1,2498.800000011921,1875162.4000000358,7137,WL,C,3.0
6,14.229000091552734,distr,45770.999908447266,Mon May 05 2025 19:06:34 GMT-0500 (Central Daylight Time),1878727.7000000477,B,d,O,d,1048,1,1066.1000000238419,1877661.6000000238,7137,WL,C,4.0
6,14.361999988555908,distr,45638.00001144409,Mon May 05 2025 19:06:34 GMT-0500 (Central Daylight Time),1878861.1000000238,B,do,O,o,126,1,1199.5,1877661.6000000238,7137,WL,C,4.0
6,15.029000043869019,distr,44970.99995613098,Mon May 05 2025 19:06:34 GMT-0500 (Central Daylight Time),1879527.6000000238,B,d,O,backspace,656,1,1866.0,1877661.6000000238,7137,WL,C,4.0
6,15.162000179290771,distr,44837.99982070923,Mon May 05 2025 19:06:34 GMT-0500 (Central Daylight Time),1879660.7000000477,B,,O,backspace,126,1,1999.1000000238419,1877661.6000000238,7137,WL,C,4.0
6,15.446000099182129,distr,44553.99990081787,Mon May 05 2025 19:06:34 GMT-0500 (Central Daylight Time),1879944.2000000477,B,s,O,s,273,1,2282.600000023842,1877661.6000000238,7137,WL,C,4.0
6,15.973000049591064,distr,44026.999950408936,Mon May 05 2025 19:06:34 GMT-0500 (Central Daylight Time),1880471.4000000358,B,sy,O,y,522,1,2809.800000011921,1877661.6000000238,7137,WL,C,4.0
6,16.394999980926514,distr,43605.000019073486,Mon May 05 2025 19:06:34 GMT-0500 (Central Daylight Time),1880893.7000000477,B,s,O,backspace,406,1,3232.100000023842,1877661.6000000238,7137,WL,C,4.0
6,17.17799997329712,distr,42822.00002670288,Mon May 05 2025 19:06:34 GMT-0500 (Central Daylight Time),1881676.7000000477,B,sk,O,k,776,1,4015.100000023842,1877661.6000000238,7137,WL,C,4.0
6,17.478000164031982,distr,42521.99983596802,Mon May 05 2025 19:06:34 GMT-0500 (Central Daylight Time),1881976.7000000477,B,sky,O,y,281,1,4315.100000023842,1877661.6000000238,7137,WL,C,4.0
6,17.811000108718872,distr,42188.99989128113,Mon May 05 2025 19:06:34 GMT-0500 (Central Daylight Time),1882310.0,B,skyenter,O,enter,317,1,4648.399999976158,1877661.6000000238,7137,WL,C,4.0
6,18.99399995803833,distr,41006.00004196167,Mon May 05 2025 19:06:34 GMT-0500 (Central Daylight Time),1883493.1000000238,B,d,O,d,1175,1,1182.800000011921,1882310.300000012,7137,WL,C,5.0
6,19.14400005340576,distr,40855.99994659424,Mon May 05 2025 19:06:34 GMT-0500 (Central Daylight Time),1883642.6000000238,B,do,O,o,144,1,1332.300000011921,1882310.300000012,7137,WL,C,5.0
6,19.344000101089478,distr,40655.99989891052,Mon May 05 2025 19:06:34 GMT-0500 (Central Daylight Time),1883842.7000000477,B,dol,O,l,187,1,1532.4000000357628,1882310.300000012,7137,WL,C,5.0
6,19.444000005722046,distr,40555.999994277954,Mon May 05 2025 19:06:34 GMT-0500 (Central Daylight Time),1883942.7000000477,B,doll,O,l,91,1,1632.4000000357628,1882310.300000012,7137,WL,C,5.0
6,19.710999965667725,distr,40289.000034332275,Mon May 05 2025 19:06:34 GMT-0500 (Central Daylight Time),1884209.4000000358,B,dolla,O,a,247,1,1899.1000000238419,1882310.300000012,7137,WL,C,5.0
6,19.877000093460083,distr,40122.99990653992,Mon May 05 2025 19:06:34 GMT-0500 (Central Daylight Time),1884375.9000000358,B,dollar,O,r,148,1,2065.600000023842,1882310.300000012,7137,WL,C,5.0
6,20.3270001411438,distr,39672.9998588562,Mon May 05 2025 19:06:34 GMT-0500 (Central Daylight Time),1884825.800000012,B,dollarenter,O,enter,437,1,2515.5,1882310.300000012,7137,WL,C,5.0
6,21.927000045776367,distr,38072.99995422363,Mon May 05 2025 19:06:34 GMT-0500 (Central Daylight Time),1886425.4000000358,B,d,O,d,1580,1,1599.300000011921,1884826.1000000238,7137,WL,C,6.0
6,22.042999982833862,distr,37957.00001716614,Mon May 05 2025 19:06:34 GMT-0500 (Central Daylight Time),1886542.2000000477,B,di,O,i,100,1,1716.1000000238419,1884826.1000000238,7137,WL,C,6.0
6,22.509999990463257,distr,37490.00000953674,Mon May 05 2025 19:06:34 GMT-0500 (Central Daylight Time),1887008.300000012,B,dia,O,a,455,1,2182.199999988079,1884826.1000000238,7137,WL,C,6.0
6,22.759999990463257,distr,37240.00000953674,Mon May 05 2025 19:06:34 GMT-0500 (Central Daylight Time),1887258.300000012,B,diam,O,m,237,1,2432.199999988079,1884826.1000000238,7137,WL,C,6.0
6,22.960000038146973,distr,37039.99996185303,Mon May 05 2025 19:06:34 GMT-0500 (Central Daylight Time),1887458.2000000477,B,diamo,O,o,179,1,2632.100000023842,1884826.1000000238,7137,WL,C,6.0
6,23.110000133514404,distr,36889.999866485596,Mon May 05 2025 19:06:34 GMT-0500 (Central Daylight Time),1887608.300000012,B,diamon,O,n,139,1,2782.199999988079,1884826.1000000238,7137,WL,C,6.0
6,23.493000030517578,distr,36506.99996948242,Mon May 05 2025 19:06:34 GMT-0500 (Central Daylight Time),1887991.5,B,diamond,O,d,373,1,3165.399999976158,1884826.1000000238,7137,WL,C,6.0
6,23.993000030517578,distr,36006.99996948242,Mon May 05 2025 19:06:34 GMT-0500 (Central Daylight Time),1888491.4000000358,B,diamondenter,O,enter,486,1,3665.300000011921,1884826.1000000238,7137,WL,C,6.0
6,25.05900001525879,distr,34940.99998474121,Mon May 05 2025 19:06:34 GMT-0500 (Central Daylight Time),1889557.6000000238,B,v,O,v,1058,1,1065.8999999761581,1888491.7000000477,7137,WL,C,7.0
6,25.45900011062622,distr,34540.99988937378,Mon May 05 2025 19:06:34 GMT-0500 (Central Daylight Time),1889957.300000012,B,va,O,a,392,1,1465.5999999642372,1888491.7000000477,7137,WL,C,7.0
6,25.692000150680542,distr,34307.99984931946,Mon May 05 2025 19:06:34 GMT-0500 (Central Daylight Time),1890190.800000012,B,val,O,l,216,1,1699.0999999642372,1888491.7000000477,7137,WL,C,7.0
6,25.808000087738037,distr,34191.99991226196,Mon May 05 2025 19:06:34 GMT-0500 (Central Daylight Time),1890307.1000000238,B,vall,O,l,111,1,1815.3999999761581,1888491.7000000477,7137,WL,C,7.0
6,25.992000102996826,distr,34007.999897003174,Mon May 05 2025 19:06:34 GMT-0500 (Central Daylight Time),1890490.6000000238,B,valle,O,e,170,1,1998.8999999761581,1888491.7000000477,7137,WL,C,7.0
6,26.174999952316284,distr,33825.000047683716,Mon May 05 2025 19:06:34 GMT-0500 (Central Daylight Time),1890673.9000000358,B,valley,O,y,171,1,2182.199999988079,1888491.7000000477,7137,WL,C,7.0
6,26.64199995994568,distr,33358.00004005432,Mon May 05 2025 19:06:34 GMT-0500 (Central Daylight Time),1891140.5,B,valleyenter,O,enter,459,1,2648.7999999523163,1888491.7000000477,7137,WL,C,7.0
6,31.490000009536743,distr,28509.999990463257,Mon May 05 2025 19:06:34 GMT-0500 (Central Daylight Time),1895988.9000000358,B,m,O,m,4841,1,4848.0,1891140.9000000358,7137,WL,C,8.0
6,31.69000005722046,distr,28309.99994277954,Mon May 05 2025 19:06:34 GMT-0500 (Central Daylight Time),1896188.800000012,B,mo,O,o,192,1,5047.899999976158,1891140.9000000358,7137,WL,C,8.0
6,31.890000104904175,distr,28109.999895095825,Mon May 05 2025 19:06:34 GMT-0500 (Central Daylight Time),1896388.800000012,B,mon,O,n,185,1,5247.899999976158,1891140.9000000358,7137,WL,C,8.0
6,32.40700006484985,distr,27592.999935150146,Mon May 05 2025 19:06:34 GMT-0500 (Central Daylight Time),1896905.4000000358,B,mone,O,e,505,1,5764.5,1891140.9000000358,7137,WL,C,8.0
6,32.57299995422363,distr,27427.000045776367,Mon May 05 2025 19:06:34 GMT-0500 (Central Daylight Time),1897072.0,B,money,O,y,156,1,5931.099999964237,1891140.9000000358,7137,WL,C,8.0
6,32.973000049591064,distr,27026.999950408936,Mon May 05 2025 19:06:34 GMT-0500 (Central Daylight Time),1897471.7000000477,B,moneyenter,O,enter,390,1,6330.800000011921,1891140.9000000358,7137,WL,C,8.0
6,37.955000162124634,distr,22044.999837875366,Mon May 05 2025 19:06:34 GMT-0500 (Central Daylight Time),1902453.6000000238,B,m,O,m,4973,1,4981.600000023842,1897472.0,7137,WL,C,9.0
6,38.187999963760376,distr,21812.000036239624,Mon May 05 2025 19:06:34 GMT-0500 (Central Daylight Time),1902686.800000012,B,me,O,e,224,1,5214.800000011921,1897472.0,7137,WL,C,9.0
6,38.6710000038147,distr,21328.999996185303,Mon May 05 2025 19:06:34 GMT-0500 (Central Daylight Time),1903170.0,B,mea,O,a,470,1,5698.0,1897472.0,7137,WL,C,9.0
6,38.9210000038147,distr,21078.999996185303,Mon May 05 2025 19:06:34 GMT-0500 (Central Daylight Time),1903419.9000000358,B,meat,O,t,243,1,5947.900000035763,1897472.0,7137,WL,C,9.0
6,39.40400004386902,distr,20595.99995613098,Mon May 05 2025 19:06:34 GMT-0500 (Central Daylight Time),1903902.6000000238,B,meatenter,O,enter,329,1,6430.600000023842,1897472.0,7137,WL,C,9.0
6,46.835999965667725,distr,13164.000034332275,Mon May 05 2025 19:06:34 GMT-0500 (Central Daylight Time),1911334.300000012,B,f,O,f,7423,1,7431.199999988079,1903903.1000000238,7137,WL,C,10.0
6,47.00200009346008,distr,12997.999906539917,Mon May 05 2025 19:06:34 GMT-0500 (Central Daylight Time),1911500.9000000358,B,fo,O,o,159,1,7597.800000011921,1903903.1000000238,7137,WL,C,10.0
6,47.2020001411438,distr,12797.999858856201,Mon May 05 2025 19:06:34 GMT-0500 (Central Daylight Time),1911700.6000000238,B,for,O,r,185,1,7797.5,1903903.1000000238,7137,WL,C,10.0
6,47.819000005722046,distr,12180.999994277954,Mon May 05 2025 19:06:34 GMT-0500 (Central Daylight Time),1912317.1000000238,B,fore,O,e,601,1,8414.0,1903903.1000000238,7137,WL,C,10.0
6,47.9520001411438,distr,12047.999858856201,Mon May 05 2025 19:06:34 GMT-0500 (Central Daylight Time),1912450.300000012,B,fores,O,s,112,1,8547.199999988079,1903903.1000000238,7137,WL,C,10.0
6,48.13499999046326,distr,11865.000009536743,Mon May 05 2025 19:06:34 GMT-0500 (Central Daylight Time),1912633.6000000238,B,forest,O,t,171,1,8730.5,1903903.1000000238,7137,WL,C,10.0
6,48.485000133514404,distr,11514.999866485596,Mon May 05 2025 19:06:34 GMT-0500 (Central Daylight Time),1912983.4000000358,B,forestenter,O,enter,332,1,9080.300000011921,1903903.1000000238,7137,WL,C,10.0
6,60.01400017738342,distr,-14.000177383422852,Mon May 05 2025 19:06:34 GMT-0500 (Central Daylight Time),1924513.300000012,B,None,O,None,11525,1,11529.5,1912983.800000012,7137,WL,C,11.0
7,19.32699990272522,immed,40673.00009727478,Mon May 05 2025 19:06:34 GMT-0500 (Central Daylight Time),1947722.6000000238,A,enter,O,enter,19315,1,19326.899999976158,1928395.7000000477,7137,WL,C,1.0
7,40.7039999961853,immed,19296.000003814697,Mon May 05 2025 19:06:34 GMT-0500 (Central Daylight Time),1969099.1000000238,A,t,O,t,21370,1,21376.19999998808,1947722.9000000358,7137,WL,C,2.0
7,40.98699998855591,immed,19013.00001144409,Mon May 05 2025 19:06:34 GMT-0500 (Central Daylight Time),1969382.6000000238,A,to,O,o,274,1,21659.69999998808,1947722.9000000358,7137,WL,C,2.0
7,41.353999853134155,immed,18646.000146865845,Mon May 05 2025 19:06:34 GMT-0500 (Central Daylight Time),1969749.2000000477,A,tow,O,w,351,1,22026.30000001192,1947722.9000000358,7137,WL,C,2.0
7,41.6710000038147,immed,18328.999996185303,Mon May 05 2025 19:06:34 GMT-0500 (Central Daylight Time),1970065.9000000358,A,towe,O,e,296,1,22343.0,1947722.9000000358,7137,WL,C,2.0
7,41.83699989318848,immed,18163.000106811523,Mon May 05 2025 19:06:34 GMT-0500 (Central Daylight Time),1970232.300000012,A,tower,O,r,155,1,22509.399999976158,1947722.9000000358,7137,WL,C,2.0
7,43.36999988555908,immed,16630.000114440918,Mon May 05 2025 19:06:34 GMT-0500 (Central Daylight Time),1971765.300000012,A,towerenter,O,enter,1525,1,24042.399999976158,1947722.9000000358,7137,WL,C,2.0
7,46.31599998474121,immed,13684.000015258789,Mon May 05 2025 19:06:34 GMT-0500 (Central Daylight Time),1974711.1000000238,A,q,O,q,2941,1,2945.399999976158,1971765.7000000477,7137,WL,C,3.0
7,46.4689998626709,immed,13531.000137329102,Mon May 05 2025 19:06:34 GMT-0500 (Central Daylight Time),1974864.0,A,qu,O,u,134,1,3098.2999999523163,1971765.7000000477,7137,WL,C,3.0
7,46.63599991798401,immed,13364.000082015991,Mon May 05 2025 19:06:34 GMT-0500 (Central Daylight Time),1975030.9000000358,A,que,O,e,157,1,3265.199999988079,1971765.7000000477,7137,WL,C,3.0
7,46.78600001335144,immed,13213.99998664856,Mon May 05 2025 19:06:34 GMT-0500 (Central Daylight Time),1975180.7000000477,A,quee,O,e,135,1,3415.0,1971765.7000000477,7137,WL,C,3.0
7,46.9689998626709,immed,13031.000137329102,Mon May 05 2025 19:06:34 GMT-0500 (Central Daylight Time),1975364.2000000477,A,queen,O,n,177,1,3598.5,1971765.7000000477,7137,WL,C,3.0
7,47.30199980735779,immed,12698.000192642212,Mon May 05 2025 19:06:34 GMT-0500 (Central Daylight Time),1975697.300000012,A,queenenter,O,enter,313,1,3931.599999964237,1971765.7000000477,7137,WL,C,3.0
7,48.28499984741211,immed,11715.00015258789,Mon May 05 2025 19:06:34 GMT-0500 (Central Daylight Time),1976680.300000012,A,s,O,s,972,1,982.6999999880791,1975697.6000000238,7137,WL,C,4.0
7,48.484999895095825,immed,11515.000104904175,Mon May 05 2025 19:06:34 GMT-0500 (Central Daylight Time),1976880.300000012,A,su,O,u,181,1,1182.699999988079,1975697.6000000238,7137,WL,C,4.0
7,48.60199999809265,immed,11398.000001907349,Mon May 05 2025 19:06:34 GMT-0500 (Central Daylight Time),1976996.800000012,A,sug,O,g,101,1,1299.199999988079,1975697.6000000238,7137,WL,C,4.0
7,48.734999895095825,immed,11265.000104904175,Mon May 05 2025 19:06:34 GMT-0500 (Central Daylight Time),1977130.1000000238,A,suga,O,a,121,1,1432.5,1975697.6000000238,7137,WL,C,4.0
7,48.91799998283386,immed,11082.000017166138,Mon May 05 2025 19:06:34 GMT-0500 (Central Daylight Time),1977313.5,A,sugar,O,r,171,1,1615.8999999761581,1975697.6000000238,7137,WL,C,4.0
7,49.251999855041504,immed,10748.000144958496,Mon May 05 2025 19:06:34 GMT-0500 (Central Daylight Time),1977646.7000000477,A,sugarenter,O,enter,324,1,1949.1000000238419,1975697.6000000238,7137,WL,C,4.0
7,51.633999824523926,immed,8366.000175476074,Mon May 05 2025 19:06:34 GMT-0500 (Central Daylight Time),1980029.300000012,A,w,O,w,2374,1,2382.199999988079,1977647.1000000238,7137,WL,C,5.0
7,51.782999992370605,immed,8217.000007629395,Mon May 05 2025 19:06:34 GMT-0500 (Central Daylight Time),1980179.0,A,wh,O,h,144,1,2531.899999976158,1977647.1000000238,7137,WL,C,5.0
7,52.01699995994568,immed,7983.000040054321,Mon May 05 2025 19:06:34 GMT-0500 (Central Daylight Time),1980412.5,A,whe,O,e,219,1,2765.399999976158,1977647.1000000238,7137,WL,C,5.0
7,52.14999985694885,immed,7850.0001430511475,Mon May 05 2025 19:06:34 GMT-0500 (Central Daylight Time),1980545.9000000358,A,whea,O,a,121,1,2898.800000011921,1977647.1000000238,7137,WL,C,5.0
7,52.26699995994568,immed,7733.000040054321,Mon May 05 2025 19:06:34 GMT-0500 (Central Daylight Time),1980662.300000012,A,whear,O,r,108,1,3015.199999988079,1977647.1000000238,7137,WL,C,5.0
7,52.81699991226196,immed,7183.000087738037,Mon May 05 2025 19:06:34 GMT-0500 (Central Daylight Time),1981212.5,A,whea,O,backspace,535,1,3565.399999976158,1977647.1000000238,7137,WL,C,5.0
7,52.91699981689453,immed,7083.000183105469,Mon May 05 2025 19:06:34 GMT-0500 (Central Daylight Time),1981312.4000000358,A,wheat,O,t,89,1,3665.300000011921,1977647.1000000238,7137,WL,C,5.0
7,53.23299980163574,immed,6767.000198364258,Mon May 05 2025 19:06:34 GMT-0500 (Central Daylight Time),1981628.800000012,A,wheatenter,O,enter,301,1,3981.699999988079,1977647.1000000238,7137,WL,C,5.0
7,54.198999881744385,immed,5801.000118255615,Mon May 05 2025 19:06:34 GMT-0500 (Central Daylight Time),1982594.9000000358,A,h,O,h,961,1,965.8000000119209,1981629.1000000238,7137,WL,C,6.0
7,54.33299994468689,immed,5667.00005531311,Mon May 05 2025 19:06:34 GMT-0500 (Central Daylight Time),1982728.5,A,ho,O,o,123,1,1099.3999999761581,1981629.1000000238,7137,WL,C,6.0
7,54.49899983406067,immed,5501.000165939331,Mon May 05 2025 19:06:34 GMT-0500 (Central Daylight Time),1982895.0,A,hom,O,m,157,1,1265.8999999761581,1981629.1000000238,7137,WL,C,6.0
7,54.698999881744385,immed,5301.000118255615,Mon May 05 2025 19:06:34 GMT-0500 (Central Daylight Time),1983095.0,A,home,O,e,182,1,1465.8999999761581,1981629.1000000238,7137,WL,C,6.0
7,54.865999937057495,immed,5134.000062942505,Mon May 05 2025 19:06:34 GMT-0500 (Central Daylight Time),1983261.800000012,A,homeenter,O,enter,150,1,1632.699999988079,1981629.1000000238,7137,WL,C,6.0
7,55.41599988937378,immed,4584.000110626221,Mon May 05 2025 19:06:34 GMT-0500 (Central Daylight Time),1983811.300000012,A,b,O,b,545,1,549.1999999880791,1983262.1000000238,7137,WL,C,7.0
7,55.598999977111816,immed,4401.000022888184,Mon May 05 2025 19:06:34 GMT-0500 (Central Daylight Time),1983994.800000012,A,bo,O,o,170,1,732.6999999880791,1983262.1000000238,7137,WL,C,7.0
7,55.79900002479553,immed,4200.999975204468,Mon May 05 2025 19:06:34 GMT-0500 (Central Daylight Time),1984194.7000000477,A,boy,O,y,187,1,932.6000000238419,1983262.1000000238,7137,WL,C,7.0
7,56.1489999294281,immed,3851.0000705718994,Mon May 05 2025 19:06:34 GMT-0500 (Central Daylight Time),1984544.6000000238,A,boyenter,O,enter,339,1,1282.5,1983262.1000000238,7137,WL,C,7.0
7,58.71499991416931,immed,1285.0000858306885,Mon May 05 2025 19:06:34 GMT-0500 (Central Daylight Time),1987110.300000012,A,d,O,d,2549,1,2565.399999976158,1984544.9000000358,7137,WL,C,8.0
7,58.83299994468689,immed,1167.0000553131104,Mon May 05 2025 19:06:34 GMT-0500 (Central Daylight Time),1987228.2000000477,A,do,O,o,103,1,2683.300000011921,1984544.9000000358,7137,WL,C,8.0
7,58.930999994277954,immed,1069.000005722046,Mon May 05 2025 19:06:34 GMT-0500 (Central Daylight Time),1987327.0,A,doc,O,c,89,1,2782.099999964237,1984544.9000000358,7137,WL,C,8.0
7,59.36500000953674,immed,634.9999904632568,Mon May 05 2025 19:06:34 GMT-0500 (Central Daylight Time),1987760.300000012,A,doct,O,t,422,1,3215.399999976158,1984544.9000000358,7137,WL,C,8.0
7,59.58099985122681,immed,419.00014877319336,Mon May 05 2025 19:06:34 GMT-0500 (Central Daylight Time),1987977.0,A,docto,O,o,197,1,3432.099999964237,1984544.9000000358,7137,WL,C,8.0
7,59.69799995422363,immed,302.0000457763672,Mon May 05 2025 19:06:34 GMT-0500 (Central Daylight Time),1988093.4000000358,A,doctor,O,r,108,1,3548.5,1984544.9000000358,7137,WL,C,8.0
7,59.914000034332275,immed,85.99996566772461,Mon May 05 2025 19:06:34 GMT-0500 (Central Daylight Time),1988310.0,A,doctorenter,O,enter,208,1,3765.099999964237,1984544.9000000358,7137,WL,C,8.0
7,60.013999938964844,immed,-13.99993896484375,Mon May 05 2025 19:06:34 GMT-0500 (Central Daylight Time),1988409.800000012,A,None,O,None,96,1,99.5,1988310.300000012,7137,WL,C,9.0
