acc_sum,block,block_c,change,condition,correct,correct_response,datetime,endtime,face,project,response,response_time,row_sel,session_number,start_end,starttime,subject_id,task,task_vers,trial
0,prac,1,,1-Back,,,Tue May 05 2026 09:56:58 GMT-0500 (Central Daylight Time),,012_o_f_d_a.png,O,space,6814,1,1,,,7799,VNB,C,0
1,prac,1,0.0,1-Back,1.0,m,Tue May 05 2026 09:56:58 GMT-0500 (Central Daylight Time),154529.19999992847,022_y_f_n_a.png,O,m,1485,2,1,2351.1999999284744,152178.0,7799,VNB,C,1
2,prac,1,0.0,1-Back,1.0,m,Tue May 05 2026 09:56:58 GMT-0500 (Central Daylight Time),156860.60000002384,014_m_m_h_a.png,O,m,1482,3,1,2326.9000000953674,154533.69999992847,7799,VNB,C,2
3,prac,1,0.0,1-Back,1.0,m,Tue May 05 2026 09:56:58 GMT-0500 (Central Daylight Time),159392.39999997616,025_y_m_d_a.png,O,m,1674,4,1,2521.100000023842,156871.29999995232,7799,VNB,C,3
4,prac,1,0.0,1-Back,1.0,m,Tue May 05 2026 09:56:58 GMT-0500 (Central Daylight Time),161892.79999995232,012_o_f_n_a.png,O,m,1648,5,1,2495.2999999523163,159397.5,7799,VNB,C,4
5,prac,1,1.0,1-Back,1.0,z,Tue May 05 2026 09:56:58 GMT-0500 (Central Daylight Time),163842.19999992847,025_y_m_n_a.png,O,z,1102,6,1,1938.6999999284744,161903.5,7799,VNB,C,5
6,prac,1,0.0,1-Back,1.0,m,Tue May 05 2026 09:56:58 GMT-0500 (Central Daylight Time),166191.69999992847,015_o_m_h_a.png,O,m,1497,7,1,2344.6999999284744,163847.0,7799,VNB,C,6
6,prac,1,0.0,1-Back,0.0,m,Tue May 05 2026 09:56:58 GMT-0500 (Central Daylight Time),168625.0,019_m_f_d_a.png,O,z,1550,8,1,2422.600000023842,166202.39999997616,7799,VNB,C,7
7,prac,1,1.0,1-Back,1.0,z,Tue May 05 2026 09:56:58 GMT-0500 (Central Daylight Time),170424.10000002384,022_y_f_d_a.png,O,z,937,9,1,1793.4000000953674,168630.69999992847,7799,VNB,C,8
8,prac,1,0.0,1-Back,1.0,m,Tue May 05 2026 09:56:58 GMT-0500 (Central Daylight Time),172823.79999995232,014_m_m_n_a.png,O,m,1534,10,1,2383.100000023842,170440.69999992847,7799,VNB,C,9
8,prac,1,0.0,1-Back,0.0,m,Tue May 05 2026 09:56:58 GMT-0500 (Central Daylight Time),175671.5,012_o_f_h_a.png,O,z,1993,11,1,2842.399999976158,172829.10000002384,7799,VNB,C,10
9,prac,1,0.0,1-Back,1.0,m,Tue May 05 2026 09:56:58 GMT-0500 (Central Daylight Time),178338.39999997616,025_y_m_d_a.png,O,m,1819,12,1,2655.899999976158,175682.5,7799,VNB,C,11
0,test,1,0.0,1-Back,,,Tue May 05 2026 09:56:58 GMT-0500 (Central Daylight Time),178338.39999997616,022_y_f_d_a.png,O,space,11135,1,1,2655.899999976158,175682.5,7799,VNB,C,0
1,test,1,0.0,1-Back,1.0,m,Tue May 05 2026 09:56:58 GMT-0500 (Central Daylight Time),203546.39999997616,019_m_f_n_a.png,O,m,583,2,1,1585.7999999523163,201960.60000002384,7799,VNB,C,1
2,test,1,0.0,1-Back,1.0,m,Tue May 05 2026 09:56:58 GMT-0500 (Central Daylight Time),206460.79999995232,015_o_m_h_a.png,O,m,1887,3,1,2909.6999999284744,203551.10000002384,7799,VNB,C,2
3,test,1,1.0,1-Back,1.0,z,Tue May 05 2026 09:56:58 GMT-0500 (Central Daylight Time),208526.89999997616,014_m_m_h_a.png,O,z,1035,4,1,2058.399999976158,206468.5,7799,VNB,C,3
4,test,1,0.0,1-Back,1.0,m,Tue May 05 2026 09:56:58 GMT-0500 (Central Daylight Time),210609.89999997616,012_o_f_n_a.png,O,m,1050,5,1,2078.600000023842,208531.29999995232,7799,VNB,C,4
4,test,1,0.0,1-Back,0.0,m,Tue May 05 2026 09:56:58 GMT-0500 (Central Daylight Time),212808.79999995232,025_y_m_d_a.png,O,z,1175,6,1,2191.399999976158,210617.39999997616,7799,VNB,C,5
5,test,1,1.0,1-Back,1.0,z,Tue May 05 2026 09:56:58 GMT-0500 (Central Daylight Time),214691.79999995232,019_m_f_d_a.png,O,z,855,7,1,1878.5,212813.29999995232,7799,VNB,C,6
6,test,1,0.0,1-Back,1.0,m,Tue May 05 2026 09:56:58 GMT-0500 (Central Daylight Time),216658.29999995232,022_y_f_h_a.png,O,m,949,8,1,1958.2999999523163,214700.0,7799,VNB,C,7
7,test,1,0.0,1-Back,1.0,m,Tue May 05 2026 09:56:58 GMT-0500 (Central Daylight Time),218840.10000002384,015_o_m_n_a.png,O,m,1158,9,1,2175.100000023842,216665.0,7799,VNB,C,8
8,test,1,0.0,1-Back,1.0,m,Tue May 05 2026 09:56:58 GMT-0500 (Central Daylight Time),221339.60000002384,025_y_m_h_a.png,O,m,1481,10,1,2489.7000000476837,218849.89999997616,7799,VNB,C,9
9,test,1,0.0,1-Back,1.0,m,Tue May 05 2026 09:56:58 GMT-0500 (Central Daylight Time),223522.0,015_o_m_d_a.png,O,m,1165,11,1,2177.3000000715256,221344.69999992847,7799,VNB,C,10
10,test,1,1.0,1-Back,1.0,z,Tue May 05 2026 09:56:58 GMT-0500 (Central Daylight Time),226454.0,012_o_f_d_a.png,O,z,1910,12,1,2924.3000000715256,223529.69999992847,7799,VNB,C,11
11,test,1,0.0,1-Back,1.0,m,Tue May 05 2026 09:56:58 GMT-0500 (Central Daylight Time),228904.89999997616,014_m_m_n_a.png,O,m,1416,13,1,2448.100000023842,226456.79999995232,7799,VNB,C,12
12,test,1,1.0,1-Back,1.0,z,Tue May 05 2026 09:56:58 GMT-0500 (Central Daylight Time),231670.10000002384,022_y_f_n_a.png,O,z,1738,14,1,2757.3000000715256,228912.79999995232,7799,VNB,C,13
13,test,1,0.0,1-Back,1.0,m,Tue May 05 2026 09:56:58 GMT-0500 (Central Daylight Time),233834.39999997616,019_m_f_h_a.png,O,m,1138,15,1,2161.2999999523163,231673.10000002384,7799,VNB,C,14
13,test,1,0.0,1-Back,0.0,m,Tue May 05 2026 09:56:58 GMT-0500 (Central Daylight Time),235885.60000002384,014_m_m_d_a.png,O,z,1021,16,1,2043.6000000238419,233842.0,7799,VNB,C,15
14,test,1,0.0,1-Back,1.0,m,Tue May 05 2026 09:56:58 GMT-0500 (Central Daylight Time),238302.60000002384,025_y_m_n_a.png,O,m,1396,17,1,2413.100000023842,235889.5,7799,VNB,C,16
15,test,1,0.0,1-Back,1.0,m,Tue May 05 2026 09:56:58 GMT-0500 (Central Daylight Time),240882.60000002384,012_o_f_h_a.png,O,m,1554,18,1,2571.3000000715256,238311.29999995232,7799,VNB,C,17
0,test,2,0.0,1-Back,,,Tue May 05 2026 09:56:58 GMT-0500 (Central Daylight Time),240882.60000002384,025_y_m_n_a.png,O,space,975,1,1,2571.3000000715256,238311.29999995232,7799,VNB,C,0
1,test,2,0.0,1-Back,1.0,m,Tue May 05 2026 09:56:58 GMT-0500 (Central Daylight Time),246049.0,022_y_f_h_a.png,O,m,1141,2,1,2155.100000023842,243893.89999997616,7799,VNB,C,1
2,test,2,1.0,1-Back,1.0,m,Tue May 05 2026 09:56:58 GMT-0500 (Central Daylight Time),248265.60000002384,015_o_m_n_a.png,O,m,1192,3,1,2213.8000000715256,246051.79999995232,7799,VNB,C,2
3,test,2,0.0,1-Back,1.0,m,Tue May 05 2026 09:56:58 GMT-0500 (Central Daylight Time),250498.39999997616,019_m_f_d_a.png,O,m,1216,4,1,2226.7000000476837,248271.69999992847,7799,VNB,C,3
4,test,2,0.0,1-Back,1.0,z,Tue May 05 2026 09:56:58 GMT-0500 (Central Daylight Time),252297.39999997616,014_m_m_d_a.png,O,z,777,5,1,1795.2000000476837,250502.19999992847,7799,VNB,C,4
5,test,2,0.0,1-Back,1.0,m,Tue May 05 2026 09:56:58 GMT-0500 (Central Daylight Time),254213.19999992847,025_y_m_h_a.png,O,m,897,6,1,1909.3999999761581,252303.79999995232,7799,VNB,C,5
6,test,2,1.0,1-Back,1.0,z,Tue May 05 2026 09:56:58 GMT-0500 (Central Daylight Time),256727.10000002384,012_o_f_h_a.png,O,z,1481,7,1,2510.8000000715256,254216.29999995232,7799,VNB,C,6
7,test,2,0.0,1-Back,1.0,m,Tue May 05 2026 09:56:58 GMT-0500 (Central Daylight Time),258546.29999995232,019_m_f_n_a.png,O,m,791,8,1,1815.1999999284744,256731.10000002384,7799,VNB,C,7
7,test,2,0.0,1-Back,0.0,m,Tue May 05 2026 09:56:58 GMT-0500 (Central Daylight Time),260427.39999997616,022_y_f_d_a.png,O,z,865,9,1,1878.8999999761581,258548.5,7799,VNB,C,8
8,test,2,0.0,1-Back,1.0,m,Tue May 05 2026 09:56:58 GMT-0500 (Central Daylight Time),263194.5,014_m_m_n_a.png,O,m,1749,10,1,2755.7000000476837,260438.79999995232,7799,VNB,C,9
9,test,2,1.0,1-Back,1.0,m,Tue May 05 2026 09:56:58 GMT-0500 (Central Daylight Time),265076.5,019_m_f_h_a.png,O,m,855,11,1,1878.6000000238419,263197.89999997616,7799,VNB,C,10
9,test,2,0.0,1-Back,0.0,z,Tue May 05 2026 09:56:58 GMT-0500 (Central Daylight Time),267091.1999999285,015_o_m_h_a.png,O,m,989,12,1,2010.5,265080.6999999285,7799,VNB,C,11
10,test,2,0.0,1-Back,1.0,m,Tue May 05 2026 09:56:58 GMT-0500 (Central Daylight Time),269142.10000002384,025_y_m_d_a.png,O,m,1027,13,1,2048.3000000715256,267093.7999999523,7799,VNB,C,12
11,test,2,0.0,1-Back,1.0,m,Tue May 05 2026 09:56:58 GMT-0500 (Central Daylight Time),271440.7999999523,012_o_f_n_a.png,O,m,1276,14,1,2291.7999999523163,269149.0,7799,VNB,C,13
12,test,2,0.0,1-Back,1.0,z,Tue May 05 2026 09:56:58 GMT-0500 (Central Daylight Time),273674.7999999523,022_y_f_n_a.png,O,z,1208,15,1,2231.600000023842,271443.1999999285,7799,VNB,C,14
13,test,2,1.0,1-Back,1.0,m,Tue May 05 2026 09:56:58 GMT-0500 (Central Daylight Time),275705.10000002384,014_m_m_h_a.png,O,m,1007,16,1,2022.1000000238419,273683.0,7799,VNB,C,15
13,test,2,0.0,1-Back,0.0,m,Tue May 05 2026 09:56:58 GMT-0500 (Central Daylight Time),277722.0,012_o_f_d_a.png,O,z,990,17,1,2013.8999999761581,275708.10000002384,7799,VNB,C,16
13,test,2,1.0,1-Back,0.0,z,Tue May 05 2026 09:56:58 GMT-0500 (Central Daylight Time),280136.89999997616,015_o_m_d_a.png,O,m,1398,18,1,2407.2000000476837,277729.6999999285,7799,VNB,C,17
0,test,3,1.0,1-Back,,,Tue May 05 2026 09:56:58 GMT-0500 (Central Daylight Time),280136.89999997616,012_o_f_h_a.png,O,space,1064,1,1,2407.2000000476837,277729.6999999285,7799,VNB,C,0
0,test,3,0.0,1-Back,0.0,m,Tue May 05 2026 09:56:58 GMT-0500 (Central Daylight Time),285401.0,019_m_f_d_a.png,O,z,1078,2,1,2083.899999976158,283317.10000002384,7799,VNB,C,1
1,test,3,1.0,1-Back,1.0,m,Tue May 05 2026 09:56:58 GMT-0500 (Central Daylight Time),287953.1999999285,014_m_m_n_a.png,O,m,1517,3,1,2550.399999976158,285402.7999999523,7799,VNB,C,2
2,test,3,0.0,1-Back,1.0,z,Tue May 05 2026 09:56:58 GMT-0500 (Central Daylight Time),290084.5,012_o_f_n_a.png,O,z,1115,4,1,2121.8000000715256,287962.6999999285,7799,VNB,C,3
2,test,3,1.0,1-Back,0.0,m,Tue May 05 2026 09:56:58 GMT-0500 (Central Daylight Time),292585.60000002384,015_o_m_d_a.png,O,z,1483,5,1,2497.9000000953674,290087.6999999285,7799,VNB,C,4
3,test,3,0.0,1-Back,1.0,m,Tue May 05 2026 09:56:58 GMT-0500 (Central Daylight Time),294866.39999997616,022_y_f_h_a.png,O,m,1265,6,1,2275.2000000476837,292591.1999999285,7799,VNB,C,5
4,test,3,0.0,1-Back,1.0,z,Tue May 05 2026 09:56:58 GMT-0500 (Central Daylight Time),297132.1999999285,025_y_m_h_a.png,O,z,1246,7,1,2262.6999999284744,294869.5,7799,VNB,C,6
5,test,3,0.0,1-Back,1.0,m,Tue May 05 2026 09:56:58 GMT-0500 (Central Daylight Time),299099.0,019_m_f_n_a.png,O,m,942,8,1,1958.8000000715256,297140.1999999285,7799,VNB,C,7
5,test,3,0.0,1-Back,0.0,m,Tue May 05 2026 09:56:58 GMT-0500 (Central Daylight Time),301080.1999999285,022_y_f_d_a.png,O,z,956,9,1,1978.5999999046326,299101.60000002384,7799,VNB,C,8
6,test,3,1.0,1-Back,1.0,m,Tue May 05 2026 09:56:58 GMT-0500 (Central Daylight Time),303364.7999999523,015_o_m_n_a.png,O,m,1265,10,1,2280.7999999523163,301084.0,7799,VNB,C,9
7,test,3,0.0,1-Back,1.0,m,Tue May 05 2026 09:56:58 GMT-0500 (Central Daylight Time),305764.39999997616,014_m_m_h_a.png,O,m,1384,11,1,2395.5,303368.89999997616,7799,VNB,C,10
8,test,3,0.0,1-Back,1.0,z,Tue May 05 2026 09:56:58 GMT-0500 (Central Daylight Time),307894.10000002384,019_m_f_h_a.png,O,z,1108,12,1,2122.100000023842,305772.0,7799,VNB,C,11
9,test,3,1.0,1-Back,1.0,m,Tue May 05 2026 09:56:58 GMT-0500 (Central Daylight Time),310129.10000002384,012_o_f_d_a.png,O,m,1215,13,1,2233.2000000476837,307895.89999997616,7799,VNB,C,12
10,test,3,0.0,1-Back,1.0,z,Tue May 05 2026 09:56:58 GMT-0500 (Central Daylight Time),312377.5,014_m_m_d_a.png,O,z,1223,14,1,2239.600000023842,310137.89999997616,7799,VNB,C,13
11,test,3,0.0,1-Back,1.0,m,Tue May 05 2026 09:56:58 GMT-0500 (Central Daylight Time),314626.39999997616,025_y_m_n_a.png,O,m,1223,15,1,2245.600000023842,312380.7999999523,7799,VNB,C,14
12,test,3,1.0,1-Back,1.0,m,Tue May 05 2026 09:56:58 GMT-0500 (Central Daylight Time),316926.7999999523,015_o_m_h_a.png,O,m,1269,16,1,2293.5,314633.2999999523,7799,VNB,C,15
13,test,3,0.0,1-Back,1.0,m,Tue May 05 2026 09:56:58 GMT-0500 (Central Daylight Time),318942.5,025_y_m_d_a.png,O,m,994,17,1,2012.3000000715256,316930.1999999285,7799,VNB,C,16
14,test,3,1.0,1-Back,1.0,m,Tue May 05 2026 09:56:58 GMT-0500 (Central Daylight Time),321557.5,022_y_f_n_a.png,O,m,1585,18,1,2607.399999976158,318950.10000002384,7799,VNB,C,17
0,test,4,1.0,1-Back,,,Tue May 05 2026 09:56:58 GMT-0500 (Central Daylight Time),321557.5,014_m_m_d_a.png,O,space,1067,1,1,2607.399999976158,318950.10000002384,7799,VNB,C,0
1,test,4,0.0,1-Back,1.0,z,Tue May 05 2026 09:56:58 GMT-0500 (Central Daylight Time),327356.39999997616,015_o_m_d_a.png,O,z,1671,2,1,2691.600000023842,324664.7999999523,7799,VNB,C,1
2,test,4,0.0,1-Back,1.0,m,Tue May 05 2026 09:56:58 GMT-0500 (Central Daylight Time),329505.10000002384,025_y_m_h_a.png,O,m,1124,3,1,2145.3000000715256,327359.7999999523,7799,VNB,C,2
2,test,4,0.0,1-Back,0.0,m,Tue May 05 2026 09:56:58 GMT-0500 (Central Daylight Time),331486.7999999523,019_m_f_n_a.png,O,z,951,4,1,1969.6000000238419,329517.1999999285,7799,VNB,C,3
3,test,4,1.0,1-Back,1.0,m,Tue May 05 2026 09:56:58 GMT-0500 (Central Daylight Time),334139.1999999285,012_o_f_h_a.png,O,m,1623,5,1,2648.1999999284744,331491.0,7799,VNB,C,4
4,test,4,0.0,1-Back,1.0,m,Tue May 05 2026 09:56:58 GMT-0500 (Central Daylight Time),336186.10000002384,014_m_m_n_a.png,O,m,1022,6,1,2037.7000000476837,334148.39999997616,7799,VNB,C,5
5,test,4,0.0,1-Back,1.0,m,Tue May 05 2026 09:56:58 GMT-0500 (Central Daylight Time),338068.6999999285,025_y_m_d_a.png,O,m,862,7,1,1880.0,336188.6999999285,7799,VNB,C,6
6,test,4,1.0,1-Back,1.0,z,Tue May 05 2026 09:56:58 GMT-0500 (Central Daylight Time),340035.10000002384,022_y_f_d_a.png,O,z,940,8,1,1956.6000000238419,338078.5,7799,VNB,C,7
7,test,4,0.0,1-Back,1.0,m,Tue May 05 2026 09:56:58 GMT-0500 (Central Daylight Time),342017.6999999285,019_m_f_h_a.png,O,m,956,9,1,1977.1999999284744,340040.5,7799,VNB,C,8
8,test,4,0.0,1-Back,1.0,z,Tue May 05 2026 09:56:58 GMT-0500 (Central Daylight Time),344315.7999999523,015_o_m_h_a.png,O,z,1269,10,1,2289.5,342026.2999999523,7799,VNB,C,9
9,test,4,1.0,1-Back,1.0,m,Tue May 05 2026 09:56:58 GMT-0500 (Central Daylight Time),346568.39999997616,012_o_f_n_a.png,O,m,1218,11,1,2250.5,344317.89999997616,7799,VNB,C,10
10,test,4,0.0,1-Back,1.0,m,Tue May 05 2026 09:56:58 GMT-0500 (Central Daylight Time),348615.7999999523,019_m_f_d_a.png,O,m,1025,12,1,2036.2999999523163,346579.5,7799,VNB,C,11
11,test,4,0.0,1-Back,1.0,m,Tue May 05 2026 09:56:58 GMT-0500 (Central Daylight Time),350531.6999999285,022_y_f_n_a.png,O,m,888,13,1,1913.5999999046326,348618.10000002384,7799,VNB,C,12
12,test,4,0.0,1-Back,1.0,m,Tue May 05 2026 09:56:58 GMT-0500 (Central Daylight Time),352614.60000002384,012_o_f_d_a.png,O,m,1060,14,1,2075.2000000476837,350539.39999997616,7799,VNB,C,13
13,test,4,0.0,1-Back,1.0,m,Tue May 05 2026 09:56:58 GMT-0500 (Central Daylight Time),354564.6999999285,022_y_f_h_a.png,O,m,922,15,1,1947.8999999761581,352616.7999999523,7799,VNB,C,14
14,test,4,1.0,1-Back,1.0,z,Tue May 05 2026 09:56:58 GMT-0500 (Central Daylight Time),356813.39999997616,014_m_m_h_a.png,O,z,1227,16,1,2240.2999999523163,354573.10000002384,7799,VNB,C,15
15,test,4,0.0,1-Back,1.0,m,Tue May 05 2026 09:56:58 GMT-0500 (Central Daylight Time),358827.7999999523,015_o_m_n_a.png,O,m,995,17,1,2012.6999999284744,356815.10000002384,7799,VNB,C,16
16,test,4,1.0,1-Back,1.0,z,Tue May 05 2026 09:56:58 GMT-0500 (Central Daylight Time),361411.7999999523,025_y_m_n_a.png,O,z,1564,18,1,2579.5,358832.2999999523,7799,VNB,C,17
0,test,5,1.0,1-Back,,,Tue May 05 2026 09:56:58 GMT-0500 (Central Daylight Time),361411.7999999523,015_o_m_n_a.png,O,space,1427,1,1,2579.5,358832.2999999523,7799,VNB,C,0
1,test,5,1.0,1-Back,1.0,m,Tue May 05 2026 09:56:58 GMT-0500 (Central Daylight Time),366909.39999997616,012_o_f_h_a.png,O,m,1030,2,1,2042.3999999761581,364867.0,7799,VNB,C,1
2,test,5,0.0,1-Back,1.0,m,Tue May 05 2026 09:56:58 GMT-0500 (Central Daylight Time),369109.89999997616,025_y_m_d_a.png,O,m,1179,3,1,2197.0,366912.89999997616,7799,VNB,C,2
3,test,5,0.0,1-Back,1.0,z,Tue May 05 2026 09:56:58 GMT-0500 (Central Daylight Time),372059.1999999285,015_o_m_d_a.png,O,z,1922,4,1,2942.7999999523163,369116.39999997616,7799,VNB,C,3
4,test,5,0.0,1-Back,1.0,m,Tue May 05 2026 09:56:58 GMT-0500 (Central Daylight Time),374408.1999999285,019_m_f_h_a.png,O,m,1324,5,1,2345.5,372062.6999999285,7799,VNB,C,4
5,test,5,0.0,1-Back,1.0,m,Tue May 05 2026 09:56:58 GMT-0500 (Central Daylight Time),376508.6999999285,022_y_f_n_a.png,O,m,1084,6,1,2091.5999999046326,374417.10000002384,7799,VNB,C,5
6,test,5,1.0,1-Back,1.0,z,Tue May 05 2026 09:56:58 GMT-0500 (Central Daylight Time),378739.1999999285,012_o_f_n_a.png,O,z,1214,7,1,2226.899999976158,376512.2999999523,7799,VNB,C,6
7,test,5,0.0,1-Back,1.0,m,Tue May 05 2026 09:56:58 GMT-0500 (Central Daylight Time),380707.2999999523,019_m_f_d_a.png,O,m,942,8,1,1962.2999999523163,378745.0,7799,VNB,C,7
8,test,5,0.0,1-Back,1.0,m,Tue May 05 2026 09:56:58 GMT-0500 (Central Daylight Time),382771.7999999523,025_y_m_h_a.png,O,m,1038,9,1,2061.399999976158,380710.39999997616,7799,VNB,C,8
9,test,5,0.0,1-Back,1.0,m,Tue May 05 2026 09:56:58 GMT-0500 (Central Daylight Time),384720.89999997616,022_y_f_d_a.png,O,m,924,10,1,1939.7000000476837,382781.1999999285,7799,VNB,C,9
9,test,5,0.0,1-Back,0.0,m,Tue May 05 2026 09:56:58 GMT-0500 (Central Daylight Time),386737.39999997616,014_m_m_n_a.png,O,z,991,11,1,2013.3999999761581,384724.0,7799,VNB,C,10
9,test,5,1.0,1-Back,0.0,z,Tue May 05 2026 09:56:58 GMT-0500 (Central Daylight Time),388835.10000002384,019_m_f_n_a.png,O,m,1078,12,1,2088.5,386746.60000002384,7799,VNB,C,11
10,test,5,0.0,1-Back,1.0,m,Tue May 05 2026 09:56:58 GMT-0500 (Central Daylight Time),390969.89999997616,015_o_m_h_a.png,O,m,1101,13,1,2133.100000023842,388836.7999999523,7799,VNB,C,12
10,test,5,0.0,1-Back,0.0,z,Tue May 05 2026 09:56:58 GMT-0500 (Central Daylight Time),393451.2999999523,014_m_m_h_a.png,O,m,1465,14,1,2474.1999999284744,390977.10000002384,7799,VNB,C,13
11,test,5,1.0,1-Back,1.0,m,Tue May 05 2026 09:56:58 GMT-0500 (Central Daylight Time),395434.6999999285,012_o_f_d_a.png,O,m,956,15,1,1981.3999999761581,393453.2999999523,7799,VNB,C,14
12,test,5,0.0,1-Back,1.0,m,Tue May 05 2026 09:56:58 GMT-0500 (Central Daylight Time),397784.10000002384,025_y_m_n_a.png,O,m,1318,16,1,2339.3000000715256,395444.7999999523,7799,VNB,C,15
13,test,5,0.0,1-Back,1.0,m,Tue May 05 2026 09:56:58 GMT-0500 (Central Daylight Time),399716.60000002384,022_y_f_h_a.png,O,m,905,17,1,1929.0,397787.60000002384,7799,VNB,C,16
14,test,5,0.0,1-Back,1.0,m,Tue May 05 2026 09:56:58 GMT-0500 (Central Daylight Time),401900.60000002384,014_m_m_d_a.png,O,m,1167,18,1,2175.8000000715256,399724.7999999523,7799,VNB,C,17
0,prac,1,0.0,2-Back,,,Tue May 05 2026 09:56:58 GMT-0500 (Central Daylight Time),401900.60000002384,019_m_f_n_a.png,O,space,2335,1,1,2175.8000000715256,399724.7999999523,7799,VNB,C,0
0,prac,1,0.0,2-Back,,,Tue May 05 2026 09:56:58 GMT-0500 (Central Daylight Time),401900.60000002384,012_o_f_h_a.png,O,space,2335,2,1,2175.8000000715256,399724.7999999523,7799,VNB,C,0
1,prac,1,0.0,2-Back,1.0,m,Tue May 05 2026 09:56:58 GMT-0500 (Central Daylight Time),483206.89999997616,015_o_m_d_a.png,O,m,1961,3,1,2808.7000000476837,480398.1999999285,7799,VNB,C,1
2,prac,1,1.0,2-Back,1.0,z,Tue May 05 2026 09:56:58 GMT-0500 (Central Daylight Time),485222.6999999285,014_m_m_h_a.png,O,z,1156,4,1,2003.5999999046326,483219.10000002384,7799,VNB,C,2
3,prac,1,0.0,2-Back,1.0,m,Tue May 05 2026 09:56:58 GMT-0500 (Central Daylight Time),487588.7999999523,022_y_f_n_a.png,O,m,1488,5,1,2359.7999999523163,485229.0,7799,VNB,C,3
3,prac,1,1.0,2-Back,0.0,z,Tue May 05 2026 09:56:58 GMT-0500 (Central Daylight Time),490471.2999999523,015_o_m_h_a.png,O,None,2007,6,1,2869.6999999284744,487601.60000002384,7799,VNB,C,4
3,prac,1,1.0,2-Back,0.0,z,Tue May 05 2026 09:56:58 GMT-0500 (Central Daylight Time),493205.0,025_y_m_n_a.png,O,m,1893,7,1,2729.100000023842,490475.89999997616,7799,VNB,C,5
3,prac,1,0.0,2-Back,0.0,m,Tue May 05 2026 09:56:58 GMT-0500 (Central Daylight Time),495836.0,019_m_f_d_a.png,O,z,1747,8,1,2620.8000000715256,493215.1999999285,7799,VNB,C,6
3,prac,1,0.0,2-Back,0.0,m,Tue May 05 2026 09:56:58 GMT-0500 (Central Daylight Time),498684.7999999523,012_o_f_d_a.png,O,None,2008,9,1,2844.0,495840.7999999523,7799,VNB,C,7
4,prac,1,0.0,2-Back,1.0,m,Tue May 05 2026 09:56:58 GMT-0500 (Central Daylight Time),500900.39999997616,014_m_m_h_a.png,O,m,1433,10,1,2204.5,498695.89999997616,7799,VNB,C,8
4,prac,1,1.0,2-Back,0.0,z,Tue May 05 2026 09:56:58 GMT-0500 (Central Daylight Time),503067.5,022_y_f_d_a.png,O,m,1302,11,1,2161.600000023842,500905.89999997616,7799,VNB,C,9
4,prac,1,0.0,2-Back,0.0,m,Tue May 05 2026 09:56:58 GMT-0500 (Central Daylight Time),505450.7999999523,015_o_m_n_a.png,O,z,1504,12,1,2374.1999999284744,503076.60000002384,7799,VNB,C,10
0,prac,2,0.0,2-Back,,,Tue May 05 2026 09:56:58 GMT-0500 (Central Daylight Time),505450.7999999523,019_m_f_n_a.png,O,a,4789,1,1,2374.1999999284744,503076.60000002384,7799,VNB,C,0
0,prac,2,0.0,2-Back,,,Tue May 05 2026 09:56:58 GMT-0500 (Central Daylight Time),505450.7999999523,012_o_f_h_a.png,O,a,4789,2,1,2374.1999999284744,503076.60000002384,7799,VNB,C,0
1,prac,2,0.0,2-Back,1.0,m,Tue May 05 2026 09:56:58 GMT-0500 (Central Daylight Time),518278.60000002384,015_o_m_d_a.png,O,m,1956,3,1,2825.600000023842,515453.0,7799,VNB,C,1
1,prac,2,1.0,2-Back,0.0,z,Tue May 05 2026 09:56:58 GMT-0500 (Central Daylight Time),520378.7999999523,014_m_m_h_a.png,O,m,1337,4,1,2089.6999999284744,518289.10000002384,7799,VNB,C,2
1,prac,2,0.0,2-Back,0.0,m,Tue May 05 2026 09:56:58 GMT-0500 (Central Daylight Time),523242.60000002384,022_y_f_n_a.png,O,None,2010,5,1,2861.0,520381.60000002384,7799,VNB,C,3
1,prac,2,1.0,2-Back,0.0,z,Tue May 05 2026 09:56:58 GMT-0500 (Central Daylight Time),525644.5,015_o_m_h_a.png,O,m,1542,6,1,2395.2000000476837,523249.2999999523,7799,VNB,C,4
2,prac,2,1.0,2-Back,1.0,z,Tue May 05 2026 09:56:58 GMT-0500 (Central Daylight Time),527709.2999999523,025_y_m_n_a.png,O,z,1220,7,1,2060.2999999523163,525649.0,7799,VNB,C,5
3,prac,2,0.0,2-Back,1.0,m,Tue May 05 2026 09:56:58 GMT-0500 (Central Daylight Time),529858.6999999285,019_m_f_d_a.png,O,m,1270,8,1,2136.7999999523163,527721.8999999762,7799,VNB,C,6
3,prac,2,0.0,2-Back,0.0,m,Tue May 05 2026 09:56:58 GMT-0500 (Central Daylight Time),531958.6999999285,012_o_f_d_a.png,O,z,1254,9,1,2096.1999999284744,529862.5,7799,VNB,C,7
3,prac,2,0.0,2-Back,0.0,m,Tue May 05 2026 09:56:58 GMT-0500 (Central Daylight Time),534357.1999999285,014_m_m_h_a.png,O,z,1604,10,1,2387.2999999523163,531969.8999999762,7799,VNB,C,8
3,prac,2,1.0,2-Back,0.0,z,Tue May 05 2026 09:56:58 GMT-0500 (Central Daylight Time),536473.2999999523,022_y_f_d_a.png,O,m,1247,11,1,2111.399999976158,534361.8999999762,7799,VNB,C,9
3,prac,2,0.0,2-Back,0.0,m,Tue May 05 2026 09:56:58 GMT-0500 (Central Daylight Time),538923.1000000238,015_o_m_n_a.png,O,z,1569,12,1,2439.100000023842,536484.0,7799,VNB,C,10
0,test,1,0.0,2-Back,,,Tue May 05 2026 09:56:58 GMT-0500 (Central Daylight Time),538923.1000000238,025_y_m_h_a.png,O,space,1527,1,1,2439.100000023842,536484.0,7799,VNB,C,0
0,test,1,0.0,2-Back,,,Tue May 05 2026 09:56:58 GMT-0500 (Central Daylight Time),538923.1000000238,012_o_f_n_a.png,O,space,1527,2,1,2439.100000023842,536484.0,7799,VNB,C,0
1,test,1,0.0,2-Back,1.0,z,Tue May 05 2026 09:56:58 GMT-0500 (Central Daylight Time),573194.6000000238,015_o_m_h_a.png,O,z,1132,3,1,2143.4000000953674,571051.1999999285,7799,VNB,C,1
2,test,1,0.0,2-Back,1.0,m,Tue May 05 2026 09:56:58 GMT-0500 (Central Daylight Time),575194.1999999285,019_m_f_d_a.png,O,m,975,4,1,1989.1999999284744,573205.0,7799,VNB,C,2
3,test,1,1.0,2-Back,1.0,m,Tue May 05 2026 09:56:58 GMT-0500 (Central Daylight Time),577576.7999999523,025_y_m_n_a.png,O,m,1360,5,1,2376.6999999284744,575200.1000000238,7799,VNB,C,3
3,test,1,0.0,2-Back,0.0,z,Tue May 05 2026 09:56:58 GMT-0500 (Central Daylight Time),580092.6000000238,022_y_f_d_a.png,O,m,1496,6,1,2501.3000000715256,577591.2999999523,7799,VNB,C,4
3,test,1,0.0,2-Back,0.0,m,Tue May 05 2026 09:56:58 GMT-0500 (Central Daylight Time),582308.0,014_m_m_h_a.png,O,z,1188,7,1,2210.600000023842,580097.3999999762,7799,VNB,C,5
4,test,1,1.0,2-Back,1.0,m,Tue May 05 2026 09:56:58 GMT-0500 (Central Daylight Time),584842.6999999285,022_y_f_n_a.png,O,m,1509,8,1,2523.899999976158,582318.7999999523,7799,VNB,C,6
5,test,1,0.0,2-Back,1.0,z,Tue May 05 2026 09:56:58 GMT-0500 (Central Daylight Time),587108.0,012_o_f_h_a.png,O,z,1240,9,1,2263.100000023842,584844.8999999762,7799,VNB,C,7
5,test,1,0.0,2-Back,0.0,m,Tue May 05 2026 09:56:58 GMT-0500 (Central Daylight Time),589339.6000000238,015_o_m_d_a.png,O,z,1215,10,1,2221.100000023842,587118.5,7799,VNB,C,8
6,test,1,1.0,2-Back,1.0,m,Tue May 05 2026 09:56:58 GMT-0500 (Central Daylight Time),591872.1000000238,014_m_m_d_a.png,O,m,1511,11,1,2528.100000023842,589344.0,7799,VNB,C,9
6,test,1,0.0,2-Back,0.0,m,Tue May 05 2026 09:56:58 GMT-0500 (Central Daylight Time),594522.3999999762,019_m_f_n_a.png,O,z,1632,12,1,2641.2000000476837,591881.1999999285,7799,VNB,C,10
7,test,1,0.0,2-Back,1.0,m,Tue May 05 2026 09:56:58 GMT-0500 (Central Daylight Time),596754.3999999762,022_y_f_h_a.png,O,m,1208,13,1,2228.600000023842,594525.7999999523,7799,VNB,C,11
8,test,1,0.0,2-Back,1.0,z,Tue May 05 2026 09:56:58 GMT-0500 (Central Daylight Time),598953.2999999523,014_m_m_n_a.png,O,z,1175,14,1,2189.6999999284744,596763.6000000238,7799,VNB,C,12
8,test,1,0.0,2-Back,0.0,m,Tue May 05 2026 09:56:58 GMT-0500 (Central Daylight Time),601985.0,025_y_m_d_a.png,O,None,2014,15,1,3028.899999976158,598956.1000000238,7799,VNB,C,13
8,test,1,1.0,2-Back,0.0,m,Tue May 05 2026 09:56:58 GMT-0500 (Central Daylight Time),604486.2999999523,019_m_f_h_a.png,O,z,1470,16,1,2494.5,601991.7999999523,7799,VNB,C,14
8,test,1,0.0,2-Back,0.0,z,Tue May 05 2026 09:56:58 GMT-0500 (Central Daylight Time),606985.0,012_o_f_d_a.png,O,m,1467,17,1,2495.7000000476837,604489.2999999523,7799,VNB,C,15
8,test,1,0.0,2-Back,0.0,m,Tue May 05 2026 09:56:58 GMT-0500 (Central Daylight Time),609448.6999999285,015_o_m_n_a.png,O,z,1440,18,1,2455.399999976158,606993.2999999523,7799,VNB,C,16
0,test,2,0.0,2-Back,,,Tue May 05 2026 09:56:58 GMT-0500 (Central Daylight Time),609448.6999999285,014_m_m_h_a.png,O,space,1146,1,1,2455.399999976158,606993.2999999523,7799,VNB,C,0
0,test,2,0.0,2-Back,,,Tue May 05 2026 09:56:58 GMT-0500 (Central Daylight Time),609448.6999999285,022_y_f_n_a.png,O,space,1146,2,1,2455.399999976158,606993.2999999523,7799,VNB,C,0
1,test,2,1.0,2-Back,1.0,z,Tue May 05 2026 09:56:58 GMT-0500 (Central Daylight Time),617580.8999999762,012_o_f_h_a.png,O,z,764,3,1,1781.7000000476837,615799.1999999285,7799,VNB,C,1
2,test,2,0.0,2-Back,1.0,m,Tue May 05 2026 09:56:58 GMT-0500 (Central Daylight Time),619613.0,015_o_m_d_a.png,O,m,1012,4,1,2024.0,617589.0,7799,VNB,C,2
3,test,2,0.0,2-Back,1.0,m,Tue May 05 2026 09:56:58 GMT-0500 (Central Daylight Time),621930.1999999285,019_m_f_d_a.png,O,m,1282,5,1,2313.899999976158,619616.2999999523,7799,VNB,C,3
3,test,2,0.0,2-Back,0.0,m,Tue May 05 2026 09:56:58 GMT-0500 (Central Daylight Time),623962.6000000238,025_y_m_h_a.png,O,z,1005,6,1,2025.1000000238419,621937.5,7799,VNB,C,4
4,test,2,0.0,2-Back,1.0,m,Tue May 05 2026 09:56:58 GMT-0500 (Central Daylight Time),626492.8999999762,012_o_f_n_a.png,O,m,1501,7,1,2527.600000023842,623965.2999999523,7799,VNB,C,5
5,test,2,1.0,2-Back,1.0,z,Tue May 05 2026 09:56:58 GMT-0500 (Central Daylight Time),628244.1999999285,015_o_m_h_a.png,O,z,723,8,1,1743.5,626500.6999999285,7799,VNB,C,6
6,test,2,0.0,2-Back,1.0,m,Tue May 05 2026 09:56:58 GMT-0500 (Central Daylight Time),630977.2999999523,022_y_f_d_a.png,O,m,1709,9,1,2730.399999976158,628246.8999999762,7799,VNB,C,7
7,test,2,0.0,2-Back,1.0,m,Tue May 05 2026 09:56:58 GMT-0500 (Central Daylight Time),633491.7999999523,025_y_m_d_a.png,O,m,1486,10,1,2506.399999976158,630985.3999999762,7799,VNB,C,8
7,test,2,0.0,2-Back,0.0,m,Tue May 05 2026 09:56:58 GMT-0500 (Central Daylight Time),635626.3999999762,014_m_m_n_a.png,O,z,1101,11,1,2131.0,633495.3999999762,7799,VNB,C,9
7,test,2,0.0,2-Back,0.0,m,Tue May 05 2026 09:56:58 GMT-0500 (Central Daylight Time),638075.1999999285,019_m_f_h_a.png,O,z,1434,12,1,2439.5999999046326,635635.6000000238,7799,VNB,C,10
7,test,2,1.0,2-Back,0.0,z,Tue May 05 2026 09:56:58 GMT-0500 (Central Daylight Time),640406.5,015_o_m_n_a.png,O,m,1302,13,1,2327.399999976158,638079.1000000238,7799,VNB,C,11
7,test,2,0.0,2-Back,0.0,m,Tue May 05 2026 09:56:58 GMT-0500 (Central Daylight Time),642673.1000000238,012_o_f_d_a.png,O,z,1243,14,1,2256.9000000953674,640416.1999999285,7799,VNB,C,12
7,test,2,0.0,2-Back,0.0,m,Tue May 05 2026 09:56:58 GMT-0500 (Central Daylight Time),645121.8999999762,022_y_f_h_a.png,O,z,1423,15,1,2446.0,642675.8999999762,7799,VNB,C,13
7,test,2,0.0,2-Back,0.0,z,Tue May 05 2026 09:56:58 GMT-0500 (Central Daylight Time),647287.6000000238,014_m_m_d_a.png,O,m,1143,16,1,2157.100000023842,645130.5,7799,VNB,C,14
7,test,2,0.0,2-Back,0.0,m,Tue May 05 2026 09:56:58 GMT-0500 (Central Daylight Time),649486.8999999762,025_y_m_n_a.png,O,z,1168,17,1,2196.899999976158,647290.0,7799,VNB,C,15
8,test,2,1.0,2-Back,1.0,m,Tue May 05 2026 09:56:58 GMT-0500 (Central Daylight Time),651636.1000000238,019_m_f_n_a.png,O,m,1130,18,1,2142.7000000476837,649493.3999999762,7799,VNB,C,16
0,test,3,1.0,2-Back,,,Tue May 05 2026 09:56:58 GMT-0500 (Central Daylight Time),651636.1000000238,015_o_m_n_a.png,O,space,990,1,1,2142.7000000476837,649493.3999999762,7799,VNB,C,0
0,test,3,1.0,2-Back,,,Tue May 05 2026 09:56:58 GMT-0500 (Central Daylight Time),651636.1000000238,012_o_f_d_a.png,O,space,990,2,1,2142.7000000476837,649493.3999999762,7799,VNB,C,0
1,test,3,0.0,2-Back,1.0,m,Tue May 05 2026 09:56:58 GMT-0500 (Central Daylight Time),659650.2999999523,022_y_f_h_a.png,O,m,940,3,1,1962.6999999284744,657687.6000000238,7799,VNB,C,1
2,test,3,0.0,2-Back,1.0,z,Tue May 05 2026 09:56:58 GMT-0500 (Central Daylight Time),662365.8999999762,019_m_f_d_a.png,O,z,1695,4,1,2707.5,659658.3999999762,7799,VNB,C,2
3,test,3,1.0,2-Back,1.0,m,Tue May 05 2026 09:56:58 GMT-0500 (Central Daylight Time),664967.1000000238,025_y_m_n_a.png,O,m,1569,5,1,2598.3000000715256,662368.7999999523,7799,VNB,C,3
4,test,3,0.0,2-Back,1.0,m,Tue May 05 2026 09:56:58 GMT-0500 (Central Daylight Time),667364.8999999762,015_o_m_h_a.png,O,m,1372,6,1,2390.899999976158,664974.0,7799,VNB,C,4
5,test,3,0.0,2-Back,1.0,z,Tue May 05 2026 09:56:58 GMT-0500 (Central Daylight Time),669797.5,022_y_f_n_a.png,O,z,1403,7,1,2430.0,667367.5,7799,VNB,C,5
6,test,3,1.0,2-Back,1.0,m,Tue May 05 2026 09:56:58 GMT-0500 (Central Daylight Time),671913.1000000238,014_m_m_d_a.png,O,m,1083,8,1,2108.600000023842,669804.5,7799,VNB,C,6
7,test,3,0.0,2-Back,1.0,m,Tue May 05 2026 09:56:58 GMT-0500 (Central Daylight Time),674162.6000000238,025_y_m_d_a.png,O,m,1224,9,1,2245.7000000476837,671916.8999999762,7799,VNB,C,7
8,test,3,0.0,2-Back,1.0,m,Tue May 05 2026 09:56:58 GMT-0500 (Central Daylight Time),676198.2999999523,012_o_f_h_a.png,O,m,1013,10,1,2026.0,674172.2999999523,7799,VNB,C,8
8,test,3,1.0,2-Back,0.0,m,Tue May 05 2026 09:56:58 GMT-0500 (Central Daylight Time),678528.1999999285,019_m_f_n_a.png,O,z,1307,11,1,2326.0999999046326,676202.1000000238,7799,VNB,C,9
9,test,3,1.0,2-Back,1.0,z,Tue May 05 2026 09:56:58 GMT-0500 (Central Daylight Time),680560.0,014_m_m_h_a.png,O,z,1011,12,1,2022.3999999761581,678537.6000000238,7799,VNB,C,10
10,test,3,0.0,2-Back,1.0,m,Tue May 05 2026 09:56:58 GMT-0500 (Central Daylight Time),682743.3999999762,022_y_f_d_a.png,O,m,1152,13,1,2179.899999976158,680563.5,7799,VNB,C,11
11,test,3,0.0,2-Back,1.0,m,Tue May 05 2026 09:56:58 GMT-0500 (Central Daylight Time),685158.5,012_o_f_n_a.png,O,m,1385,14,1,2405.7000000476837,682752.7999999523,7799,VNB,C,12
11,test,3,0.0,2-Back,0.0,z,Tue May 05 2026 09:56:58 GMT-0500 (Central Daylight Time),687828.0,015_o_m_d_a.png,O,m,1634,15,1,2664.899999976158,685163.1000000238,7799,VNB,C,13
12,test,3,1.0,2-Back,1.0,m,Tue May 05 2026 09:56:58 GMT-0500 (Central Daylight Time),689823.8999999762,019_m_f_h_a.png,O,m,975,16,1,1988.7999999523163,687835.1000000238,7799,VNB,C,14
12,test,3,0.0,2-Back,0.0,m,Tue May 05 2026 09:56:58 GMT-0500 (Central Daylight Time),692057.1999999285,014_m_m_n_a.png,O,z,1211,17,1,2228.399999976158,689828.7999999523,7799,VNB,C,15
12,test,3,0.0,2-Back,0.0,z,Tue May 05 2026 09:56:58 GMT-0500 (Central Daylight Time),694588.7999999523,025_y_m_h_a.png,O,m,1504,18,1,2518.2999999523163,692070.5,7799,VNB,C,16
0,test,4,0.0,2-Back,,,Tue May 05 2026 09:56:58 GMT-0500 (Central Daylight Time),694588.7999999523,019_m_f_n_a.png,O,space,971,1,1,2518.2999999523163,692070.5,7799,VNB,C,0
0,test,4,0.0,2-Back,,,Tue May 05 2026 09:56:58 GMT-0500 (Central Daylight Time),694588.7999999523,015_o_m_n_a.png,O,space,971,2,1,2518.2999999523163,692070.5,7799,VNB,C,0
1,test,4,1.0,2-Back,1.0,m,Tue May 05 2026 09:56:58 GMT-0500 (Central Daylight Time),702536.2999999523,025_y_m_h_a.png,O,m,725,3,1,1742.2999999523163,700794.0,7799,VNB,C,1
2,test,4,1.0,2-Back,1.0,m,Tue May 05 2026 09:56:58 GMT-0500 (Central Daylight Time),704735.6999999285,012_o_f_d_a.png,O,m,1175,4,1,2188.6999999284744,702547.0,7799,VNB,C,2
3,test,4,0.0,2-Back,1.0,z,Tue May 05 2026 09:56:58 GMT-0500 (Central Daylight Time),706402.5,015_o_m_h_a.png,O,z,648,5,1,1664.8999999761581,704737.6000000238,7799,VNB,C,3
3,test,4,0.0,2-Back,0.0,m,Tue May 05 2026 09:56:58 GMT-0500 (Central Daylight Time),709184.8999999762,014_m_m_n_a.png,O,z,1751,6,1,2773.5,706411.3999999762,7799,VNB,C,4
4,test,4,0.0,2-Back,1.0,m,Tue May 05 2026 09:56:58 GMT-0500 (Central Daylight Time),711434.6999999285,019_m_f_d_a.png,O,m,1226,7,1,2245.2999999523163,709189.3999999762,7799,VNB,C,5
4,test,4,0.0,2-Back,0.0,z,Tue May 05 2026 09:56:58 GMT-0500 (Central Daylight Time),714049.5,022_y_f_n_a.png,O,m,1590,8,1,2604.7000000476837,711444.7999999523,7799,VNB,C,6
5,test,4,1.0,2-Back,1.0,m,Tue May 05 2026 09:56:58 GMT-0500 (Central Daylight Time),716164.8999999762,012_o_f_h_a.png,O,m,1095,9,1,2111.7999999523163,714053.1000000238,7799,VNB,C,7
5,test,4,0.0,2-Back,0.0,m,Tue May 05 2026 09:56:58 GMT-0500 (Central Daylight Time),718263.7999999523,014_m_m_h_a.png,O,z,1075,10,1,2091.0,716172.7999999523,7799,VNB,C,8
6,test,4,0.0,2-Back,1.0,m,Tue May 05 2026 09:56:58 GMT-0500 (Central Daylight Time),720531.1000000238,022_y_f_d_a.png,O,m,1239,11,1,2264.5,718266.6000000238,7799,VNB,C,9
7,test,4,0.0,2-Back,1.0,m,Tue May 05 2026 09:56:58 GMT-0500 (Central Daylight Time),722747.7999999523,025_y_m_n_a.png,O,m,1190,12,1,2209.7999999523163,720538.0,7799,VNB,C,10
7,test,4,0.0,2-Back,0.0,z,Tue May 05 2026 09:56:58 GMT-0500 (Central Daylight Time),725096.6999999285,015_o_m_d_a.png,O,m,1327,13,1,2346.2999999523163,722750.3999999762,7799,VNB,C,11
7,test,4,1.0,2-Back,0.0,m,Tue May 05 2026 09:56:58 GMT-0500 (Central Daylight Time),726595.1999999285,019_m_f_h_a.png,O,z,481,14,1,1490.5,725104.6999999285,7799,VNB,C,12
8,test,4,1.0,2-Back,1.0,m,Tue May 05 2026 09:56:58 GMT-0500 (Central Daylight Time),728846.2999999523,022_y_f_h_a.png,O,m,1231,15,1,2247.2999999523163,726599.0,7799,VNB,C,13
8,test,4,0.0,2-Back,0.0,m,Tue May 05 2026 09:56:58 GMT-0500 (Central Daylight Time),730927.7999999523,012_o_f_n_a.png,O,z,1050,16,1,2072.1999999284744,728855.6000000238,7799,VNB,C,14
9,test,4,0.0,2-Back,1.0,m,Tue May 05 2026 09:56:58 GMT-0500 (Central Daylight Time),732860.3999999762,025_y_m_d_a.png,O,m,913,17,1,1928.6000000238419,730931.7999999523,7799,VNB,C,15
10,test,4,1.0,2-Back,1.0,m,Tue May 05 2026 09:56:58 GMT-0500 (Central Daylight Time),735477.1000000238,014_m_m_d_a.png,O,m,1587,18,1,2607.0,732870.1000000238,7799,VNB,C,16
0,test,5,1.0,2-Back,,,Tue May 05 2026 09:56:58 GMT-0500 (Central Daylight Time),735477.1000000238,022_y_f_d_a.png,O,space,982,1,1,2607.0,732870.1000000238,7799,VNB,C,0
0,test,5,1.0,2-Back,,,Tue May 05 2026 09:56:58 GMT-0500 (Central Daylight Time),735477.1000000238,012_o_f_h_a.png,O,space,982,2,1,2607.0,732870.1000000238,7799,VNB,C,0
1,test,5,1.0,2-Back,1.0,z,Tue May 05 2026 09:56:58 GMT-0500 (Central Daylight Time),744274.0,015_o_m_d_a.png,O,z,1584,3,1,2611.2000000476837,741662.7999999523,7799,VNB,C,1
2,test,5,1.0,2-Back,1.0,m,Tue May 05 2026 09:56:58 GMT-0500 (Central Daylight Time),746322.2999999523,019_m_f_n_a.png,O,m,1031,4,1,2038.2999999523163,744284.0,7799,VNB,C,2
2,test,5,0.0,2-Back,0.0,m,Tue May 05 2026 09:56:58 GMT-0500 (Central Daylight Time),749355.5,014_m_m_h_a.png,O,None,2015,5,1,3031.3000000715256,746324.1999999285,7799,VNB,C,3
3,test,5,0.0,2-Back,1.0,z,Tue May 05 2026 09:56:58 GMT-0500 (Central Daylight Time),752087.5,022_y_f_n_a.png,O,z,1701,6,1,2725.0,749362.5,7799,VNB,C,4
3,test,5,0.0,2-Back,0.0,m,Tue May 05 2026 09:56:58 GMT-0500 (Central Daylight Time),755120.6000000238,012_o_f_d_a.png,O,None,2015,7,1,3029.4000000953674,752091.1999999285,7799,VNB,C,5
3,test,5,0.0,2-Back,0.0,m,Tue May 05 2026 09:56:58 GMT-0500 (Central Daylight Time),757570.7999999523,015_o_m_h_a.png,O,z,1435,8,1,2439.1999999284744,755131.6000000238,7799,VNB,C,6
3,test,5,1.0,2-Back,0.0,z,Tue May 05 2026 09:56:58 GMT-0500 (Central Daylight Time),759535.6000000238,019_m_f_d_a.png,O,m,943,9,1,1961.3000000715256,757574.2999999523,7799,VNB,C,7
4,test,5,0.0,2-Back,1.0,m,Tue May 05 2026 09:56:58 GMT-0500 (Central Daylight Time),761968.7999999523,025_y_m_n_a.png,O,m,1410,10,1,2424.1999999284744,759544.6000000238,7799,VNB,C,8
5,test,5,0.0,2-Back,1.0,m,Tue May 05 2026 09:56:58 GMT-0500 (Central Daylight Time),764316.6000000238,014_m_m_n_a.png,O,m,1329,11,1,2345.5,761971.1000000238,7799,VNB,C,9
6,test,5,0.0,2-Back,1.0,m,Tue May 05 2026 09:56:58 GMT-0500 (Central Daylight Time),766465.7999999523,022_y_f_h_a.png,O,m,1124,12,1,2139.2999999523163,764326.5,7799,VNB,C,10
7,test,5,0.0,2-Back,1.0,m,Tue May 05 2026 09:56:58 GMT-0500 (Central Daylight Time),768815.3999999762,025_y_m_d_a.png,O,m,1325,13,1,2346.5,766468.8999999762,7799,VNB,C,11
8,test,5,1.0,2-Back,1.0,z,Tue May 05 2026 09:56:58 GMT-0500 (Central Daylight Time),771299.6000000238,019_m_f_h_a.png,O,z,1455,14,1,2476.4000000953674,768823.1999999285,7799,VNB,C,12
9,test,5,0.0,2-Back,1.0,m,Tue May 05 2026 09:56:58 GMT-0500 (Central Daylight Time),773363.5,015_o_m_n_a.png,O,m,1038,15,1,2060.899999976158,771302.6000000238,7799,VNB,C,13
10,test,5,0.0,2-Back,1.0,m,Tue May 05 2026 09:56:58 GMT-0500 (Central Daylight Time),776013.5,014_m_m_d_a.png,O,m,1620,16,1,2644.5,773369.0,7799,VNB,C,14
11,test,5,0.0,2-Back,1.0,z,Tue May 05 2026 09:56:58 GMT-0500 (Central Daylight Time),778779.3999999762,012_o_f_n_a.png,O,z,1738,17,1,2761.600000023842,776017.7999999523,7799,VNB,C,15
12,test,5,1.0,2-Back,1.0,m,Tue May 05 2026 09:56:58 GMT-0500 (Central Daylight Time),781045.7999999523,025_y_m_h_a.png,O,m,1233,18,1,2263.7999999523163,778782.0,7799,VNB,C,16
