block_c,block_dur,condition,countdown,datetime,endtime,list,multichar_response,project,response,response_time,session_number,start_end,starttime,subject_id,task,task_vers,trial
,,,,Wed Oct 22 2025 16:52:19 GMT-0400 (Eastern Daylight Time),,,,I,space,323,1,,,9034,WL,C,
prac,,0,,Wed Oct 22 2025 16:52:19 GMT-0400 (Eastern Daylight Time),,NA,b,I,b,3533,1,,,9034,WL,C,1.0
prac,,0,,Wed Oct 22 2025 16:52:19 GMT-0400 (Eastern Daylight Time),,NA,bo,I,o,287,1,,,9034,WL,C,1.0
prac,,0,,Wed Oct 22 2025 16:52:19 GMT-0400 (Eastern Daylight Time),,NA,boo,I,o,167,1,,,9034,WL,C,1.0
prac,,0,,Wed Oct 22 2025 16:52:19 GMT-0400 (Eastern Daylight Time),,NA,boos,I,s,192,1,,,9034,WL,C,1.0
prac,,0,,Wed Oct 22 2025 16:52:19 GMT-0400 (Eastern Daylight Time),,NA,boost,I,t,205,1,,,9034,WL,C,1.0
prac,,0,,Wed Oct 22 2025 16:52:19 GMT-0400 (Eastern Daylight Time),,NA,boostenter,I,enter,1306,1,,,9034,WL,C,1.0
1,0.5829999446868896,learn,59417.00005531311,Wed Oct 22 2025 16:52:19 GMT-0400 (Eastern Daylight Time),114380.60000002384,A,t,I,t,567,1,583.0,113797.60000002384,9034,WL,C,1.0
1,0.7829999923706055,learn,59217.000007629395,Wed Oct 22 2025 16:52:19 GMT-0400 (Eastern Daylight Time),114580.19999992847,A,to,I,o,173,1,782.5999999046326,113797.60000002384,9034,WL,C,1.0
1,0.8659999370574951,learn,59134.000062942505,Wed Oct 22 2025 16:52:19 GMT-0400 (Eastern Daylight Time),114663.19999992847,A,tow,I,w,60,1,865.5999999046326,113797.60000002384,9034,WL,C,1.0
1,1.2330000400543213,learn,58766.99995994568,Wed Oct 22 2025 16:52:19 GMT-0400 (Eastern Daylight Time),115029.89999997616,A,towe,I,e,339,1,1232.2999999523163,113797.60000002384,9034,WL,C,1.0
1,1.3829998970031738,learn,58617.000102996826,Wed Oct 22 2025 16:52:19 GMT-0400 (Eastern Daylight Time),115180.39999997616,A,tower,I,r,136,1,1382.7999999523163,113797.60000002384,9034,WL,C,1.0
1,2.1989998817443848,learn,57801.000118255615,Wed Oct 22 2025 16:52:19 GMT-0400 (Eastern Daylight Time),115996.5,A,towerenter,I,enter,798,1,2198.899999976158,113797.60000002384,9034,WL,C,1.0
1,2.75,learn,57250.0,Wed Oct 22 2025 16:52:19 GMT-0400 (Eastern Daylight Time),116547.0,A,q,I,q,530,1,550.0,115997.0,9034,WL,C,2.0
1,2.9000000953674316,learn,57099.99990463257,Wed Oct 22 2025 16:52:19 GMT-0400 (Eastern Daylight Time),116696.69999992847,A,qu,I,u,126,1,699.6999999284744,115997.0,9034,WL,C,2.0
1,3.066999912261963,learn,56933.00008773804,Wed Oct 22 2025 16:52:19 GMT-0400 (Eastern Daylight Time),116863.69999992847,A,que,I,e,143,1,866.6999999284744,115997.0,9034,WL,C,2.0
1,3.2330000400543213,learn,56766.99995994568,Wed Oct 22 2025 16:52:19 GMT-0400 (Eastern Daylight Time),117030.39999997616,A,quee,I,e,130,1,1033.3999999761581,115997.0,9034,WL,C,2.0
1,3.382999897003174,learn,56617.000102996826,Wed Oct 22 2025 16:52:19 GMT-0400 (Eastern Daylight Time),117180.39999997616,A,queen,I,n,121,1,1183.3999999761581,115997.0,9034,WL,C,2.0
1,3.9159998893737793,learn,56084.00011062622,Wed Oct 22 2025 16:52:19 GMT-0400 (Eastern Daylight Time),117713.19999992847,A,queenenter,I,enter,501,1,1716.1999999284744,115997.0,9034,WL,C,2.0
1,5.382999897003174,learn,54617.000102996826,Wed Oct 22 2025 16:52:19 GMT-0400 (Eastern Daylight Time),119179.89999997616,A,d,I,d,1452,1,1466.2000000476837,117713.69999992847,9034,WL,C,3.0
1,5.516000032424927,learn,54483.99996757507,Wed Oct 22 2025 16:52:19 GMT-0400 (Eastern Daylight Time),119313.60000002384,A,do,I,o,114,1,1599.9000000953674,117713.69999992847,9034,WL,C,3.0
1,5.7829999923706055,learn,54217.000007629395,Wed Oct 22 2025 16:52:19 GMT-0400 (Eastern Daylight Time),119580.10000002384,A,doc,I,c,243,1,1866.4000000953674,117713.69999992847,9034,WL,C,3.0
1,6.0329999923706055,learn,53967.000007629395,Wed Oct 22 2025 16:52:19 GMT-0400 (Eastern Daylight Time),119830.29999995232,A,doct,I,t,238,1,2116.600000023842,117713.69999992847,9034,WL,C,3.0
1,6.183000087738037,learn,53816.99991226196,Wed Oct 22 2025 16:52:19 GMT-0400 (Eastern Daylight Time),119980.0,A,docto,I,o,134,1,2266.3000000715256,117713.69999992847,9034,WL,C,3.0
1,6.315999984741211,learn,53684.00001525879,Wed Oct 22 2025 16:52:19 GMT-0400 (Eastern Daylight Time),120113.60000002384,A,doctor,I,r,110,1,2399.9000000953674,117713.69999992847,9034,WL,C,3.0
1,6.766000032424927,learn,53233.99996757507,Wed Oct 22 2025 16:52:19 GMT-0400 (Eastern Daylight Time),120563.10000002384,A,doctorenter,I,enter,419,1,2849.4000000953674,117713.69999992847,9034,WL,C,3.0
1,7.865999937057495,learn,52134.000062942505,Wed Oct 22 2025 16:52:19 GMT-0400 (Eastern Daylight Time),121663.69999992847,A,n,I,n,1084,1,1100.1999999284744,120563.5,9034,WL,C,4.0
1,7.983000040054321,learn,52016.99995994568,Wed Oct 22 2025 16:52:19 GMT-0400 (Eastern Daylight Time),121780.39999997616,A,na,I,a,83,1,1216.8999999761581,120563.5,9034,WL,C,4.0
1,8.115999937057495,learn,51884.000062942505,Wed Oct 22 2025 16:52:19 GMT-0400 (Eastern Daylight Time),121913.5,A,nai,I,i,110,1,1350.0,120563.5,9034,WL,C,4.0
1,8.33299994468689,learn,51667.00005531311,Wed Oct 22 2025 16:52:19 GMT-0400 (Eastern Daylight Time),122129.79999995232,A,nail,I,l,186,1,1566.2999999523163,120563.5,9034,WL,C,4.0
1,8.598999977111816,learn,51401.00002288818,Wed Oct 22 2025 16:52:19 GMT-0400 (Eastern Daylight Time),122396.5,A,nailenter,I,enter,252,1,1833.0,120563.5,9034,WL,C,4.0
1,9.08299994468689,learn,50917.00005531311,Wed Oct 22 2025 16:52:19 GMT-0400 (Eastern Daylight Time),122880.79999995232,A,c,I,c,466,1,483.7999999523163,122397.0,9034,WL,C,5.0
1,9.25,learn,50750.0,Wed Oct 22 2025 16:52:19 GMT-0400 (Eastern Daylight Time),123046.89999997616,A,ca,I,a,149,1,649.8999999761581,122397.0,9034,WL,C,5.0
1,9.349999904632568,learn,50650.00009536743,Wed Oct 22 2025 16:52:19 GMT-0400 (Eastern Daylight Time),123146.69999992847,A,cam,I,m,75,1,749.6999999284744,122397.0,9034,WL,C,5.0
1,9.599999904632568,learn,50400.00009536743,Wed Oct 22 2025 16:52:19 GMT-0400 (Eastern Daylight Time),123396.79999995232,A,camp,I,p,217,1,999.7999999523163,122397.0,9034,WL,C,5.0
1,10.032000064849854,learn,49967.99993515015,Wed Oct 22 2025 16:52:19 GMT-0400 (Eastern Daylight Time),123829.69999992847,A,campenter,I,enter,414,1,1432.6999999284744,122397.0,9034,WL,C,5.0
1,10.33299994468689,learn,49667.00005531311,Wed Oct 22 2025 16:52:19 GMT-0400 (Eastern Daylight Time),124130.0,A,l,I,l,280,1,300.0,123830.0,9034,WL,C,6.0
1,10.433000087738037,learn,49566.99991226196,Wed Oct 22 2025 16:52:19 GMT-0400 (Eastern Daylight Time),124230.39999997616,A,le,I,e,73,1,400.39999997615814,123830.0,9034,WL,C,6.0
1,10.58299994468689,learn,49417.00005531311,Wed Oct 22 2025 16:52:19 GMT-0400 (Eastern Daylight Time),124379.89999997616,A,let,I,t,133,1,549.8999999761581,123830.0,9034,WL,C,6.0
1,10.766999959945679,learn,49233.00004005432,Wed Oct 22 2025 16:52:19 GMT-0400 (Eastern Daylight Time),124563.79999995232,A,lett,I,t,163,1,733.7999999523163,123830.0,9034,WL,C,6.0
1,10.882999897003174,learn,49117.000102996826,Wed Oct 22 2025 16:52:19 GMT-0400 (Eastern Daylight Time),124680.29999995232,A,lette,I,e,104,1,850.2999999523163,123830.0,9034,WL,C,6.0
1,11.032999992370605,learn,48967.000007629395,Wed Oct 22 2025 16:52:19 GMT-0400 (Eastern Daylight Time),124830.39999997616,A,letter,I,r,128,1,1000.3999999761581,123830.0,9034,WL,C,6.0
1,11.766000032424927,learn,48233.99996757507,Wed Oct 22 2025 16:52:19 GMT-0400 (Eastern Daylight Time),125563.0,A,letterenter,I,enter,708,1,1733.0,123830.0,9034,WL,C,6.0
1,12.183000087738037,learn,47816.99991226196,Wed Oct 22 2025 16:52:19 GMT-0400 (Eastern Daylight Time),125980.39999997616,A,b,I,b,403,1,416.89999997615814,125563.5,9034,WL,C,7.0
1,12.282999992370605,learn,47717.000007629395,Wed Oct 22 2025 16:52:19 GMT-0400 (Eastern Daylight Time),126079.89999997616,A,bo,I,o,68,1,516.3999999761581,125563.5,9034,WL,C,7.0
1,12.448999881744385,learn,47551.000118255615,Wed Oct 22 2025 16:52:19 GMT-0400 (Eastern Daylight Time),126246.39999997616,A,boy,I,y,159,1,682.8999999761581,125563.5,9034,WL,C,7.0
1,13.032999992370605,learn,46967.000007629395,Wed Oct 22 2025 16:52:19 GMT-0400 (Eastern Daylight Time),126829.89999997616,A,boyenter,I,enter,568,1,1266.3999999761581,125563.5,9034,WL,C,7.0
1,15.132999897003174,learn,44867.000102996826,Wed Oct 22 2025 16:52:19 GMT-0400 (Eastern Daylight Time),128930.29999995232,A,s,I,s,2080,1,2099.899999976158,126830.39999997616,9034,WL,C,8.0
1,15.25,learn,44750.0,Wed Oct 22 2025 16:52:19 GMT-0400 (Eastern Daylight Time),129046.79999995232,A,su,I,u,106,1,2216.399999976158,126830.39999997616,9034,WL,C,8.0
1,15.41599988937378,learn,44584.00011062622,Wed Oct 22 2025 16:52:19 GMT-0400 (Eastern Daylight Time),129213.60000002384,A,sug,I,g,141,1,2383.2000000476837,126830.39999997616,9034,WL,C,8.0
1,15.549999952316284,learn,44450.000047683716,Wed Oct 22 2025 16:52:19 GMT-0400 (Eastern Daylight Time),129347.0,A,suga,I,a,102,1,2516.600000023842,126830.39999997616,9034,WL,C,8.0
1,15.683000087738037,learn,44316.99991226196,Wed Oct 22 2025 16:52:19 GMT-0400 (Eastern Daylight Time),129480.10000002384,A,sugar,I,r,121,1,2649.7000000476837,126830.39999997616,9034,WL,C,8.0
1,16.132999897003174,learn,43867.000102996826,Wed Oct 22 2025 16:52:19 GMT-0400 (Eastern Daylight Time),129930.0,A,sugarenter,I,enter,428,1,3099.600000023842,126830.39999997616,9034,WL,C,8.0
1,20.58299994468689,learn,39417.00005531311,Wed Oct 22 2025 16:52:19 GMT-0400 (Eastern Daylight Time),134380.69999992847,A,h,I,h,4437,1,4450.199999928474,129930.5,9034,WL,C,9.0
1,20.700000047683716,learn,39299.999952316284,Wed Oct 22 2025 16:52:19 GMT-0400 (Eastern Daylight Time),134497.10000002384,A,ho,I,o,95,1,4566.600000023842,129930.5,9034,WL,C,9.0
1,20.865999937057495,learn,39134.000062942505,Wed Oct 22 2025 16:52:19 GMT-0400 (Eastern Daylight Time),134663.60000002384,A,hom,I,m,144,1,4733.100000023842,129930.5,9034,WL,C,9.0
1,21.032999992370605,learn,38967.000007629395,Wed Oct 22 2025 16:52:19 GMT-0400 (Eastern Daylight Time),134829.69999992847,A,home,I,e,147,1,4899.199999928474,129930.5,9034,WL,C,9.0
1,21.23300004005432,learn,38766.99995994568,Wed Oct 22 2025 16:52:19 GMT-0400 (Eastern Daylight Time),135030.0,A,homeenter,I,enter,177,1,5099.5,129930.5,9034,WL,C,9.0
1,26.0,learn,34000.0,Wed Oct 22 2025 16:52:19 GMT-0400 (Eastern Daylight Time),139796.89999997616,A,c,I,c,4746,1,4766.5,135030.39999997616,9034,WL,C,10.0
1,26.15000009536743,learn,33849.99990463257,Wed Oct 22 2025 16:52:19 GMT-0400 (Eastern Daylight Time),139946.79999995232,A,ca,I,a,133,1,4916.399999976158,135030.39999997616,9034,WL,C,10.0
1,26.282999992370605,learn,33717.000007629395,Wed Oct 22 2025 16:52:19 GMT-0400 (Eastern Daylight Time),140080.39999997616,A,cat,I,t,103,1,5050.0,135030.39999997616,9034,WL,C,10.0
1,26.450000047683716,learn,33549.999952316284,Wed Oct 22 2025 16:52:19 GMT-0400 (Eastern Daylight Time),140246.79999995232,A,catt,I,t,157,1,5216.399999976158,135030.39999997616,9034,WL,C,10.0
1,26.65000009536743,learn,33349.99990463257,Wed Oct 22 2025 16:52:19 GMT-0400 (Eastern Daylight Time),140447.0,A,cattl,I,l,174,1,5416.600000023842,135030.39999997616,9034,WL,C,10.0
1,26.766000032424927,learn,33233.99996757507,Wed Oct 22 2025 16:52:19 GMT-0400 (Eastern Daylight Time),140563.60000002384,A,cattle,I,e,92,1,5533.200000047684,135030.39999997616,9034,WL,C,10.0
1,26.98300004005432,learn,33016.99995994568,Wed Oct 22 2025 16:52:19 GMT-0400 (Eastern Daylight Time),140780.0,A,cattleenter,I,enter,190,1,5749.600000023842,135030.39999997616,9034,WL,C,10.0
1,42.23300004005432,learn,17766.99995994568,Wed Oct 22 2025 16:52:19 GMT-0400 (Eastern Daylight Time),156030.29999995232,A,h,I,h,15236,1,15249.899999976158,140780.39999997616,9034,WL,C,11.0
1,42.365999937057495,learn,17634.000062942505,Wed Oct 22 2025 16:52:19 GMT-0400 (Eastern Daylight Time),156163.60000002384,A,ho,I,o,102,1,15383.200000047684,140780.39999997616,9034,WL,C,11.0
1,42.549999952316284,learn,17450.000047683716,Wed Oct 22 2025 16:52:19 GMT-0400 (Eastern Daylight Time),156347.0,A,hom,I,m,170,1,15566.600000023842,140780.39999997616,9034,WL,C,11.0
1,42.71600008010864,learn,17283.999919891357,Wed Oct 22 2025 16:52:19 GMT-0400 (Eastern Daylight Time),156513.60000002384,A,home,I,e,137,1,15733.200000047684,140780.39999997616,9034,WL,C,11.0
1,42.91599988937378,learn,17084.00011062622,Wed Oct 22 2025 16:52:19 GMT-0400 (Eastern Daylight Time),156713.29999995232,A,homeenter,I,enter,179,1,15932.899999976158,140780.39999997616,9034,WL,C,11.0
1,46.75,learn,13250.0,Wed Oct 22 2025 16:52:19 GMT-0400 (Eastern Daylight Time),160547.0,A,b,I,b,3814,1,3833.399999976158,156713.60000002384,9034,WL,C,12.0
1,46.93300008773804,learn,13066.999912261963,Wed Oct 22 2025 16:52:19 GMT-0400 (Eastern Daylight Time),160730.29999995232,A,bo,I,o,169,1,4016.6999999284744,156713.60000002384,9034,WL,C,12.0
1,47.15000009536743,learn,12849.999904632568,Wed Oct 22 2025 16:52:19 GMT-0400 (Eastern Daylight Time),160947.10000002384,A,boy,I,y,194,1,4233.5,156713.60000002384,9034,WL,C,12.0
1,47.448999881744385,learn,12551.000118255615,Wed Oct 22 2025 16:52:19 GMT-0400 (Eastern Daylight Time),161246.60000002384,A,boyenter,I,enter,280,1,4533.0,156713.60000002384,9034,WL,C,12.0
1,52.532999992370605,learn,7467.0000076293945,Wed Oct 22 2025 16:52:19 GMT-0400 (Eastern Daylight Time),166330.19999992847,A,w,I,w,5073,1,5083.199999928474,161247.0,9034,WL,C,13.0
1,52.66599988937378,learn,7334.000110626221,Wed Oct 22 2025 16:52:19 GMT-0400 (Eastern Daylight Time),166463.60000002384,A,wh,I,h,117,1,5216.600000023842,161247.0,9034,WL,C,13.0
1,52.799999952316284,learn,7200.000047683716,Wed Oct 22 2025 16:52:19 GMT-0400 (Eastern Daylight Time),166597.19999992847,A,whe,I,e,99,1,5350.199999928474,161247.0,9034,WL,C,13.0
1,52.96600008010864,learn,7033.999919891357,Wed Oct 22 2025 16:52:19 GMT-0400 (Eastern Daylight Time),166763.69999992847,A,whea,I,a,143,1,5516.699999928474,161247.0,9034,WL,C,13.0
1,53.08299994468689,learn,6917.00005531311,Wed Oct 22 2025 16:52:19 GMT-0400 (Eastern Daylight Time),166880.0,A,wheat,I,t,95,1,5633.0,161247.0,9034,WL,C,13.0
1,53.3989999294281,learn,6601.000070571899,Wed Oct 22 2025 16:52:19 GMT-0400 (Eastern Daylight Time),167196.69999992847,A,wheatenter,I,enter,303,1,5949.699999928474,161247.0,9034,WL,C,13.0
1,60.01600003242493,learn,-16.000032424926758,Wed Oct 22 2025 16:52:19 GMT-0400 (Eastern Daylight Time),173813.10000002384,A,None,I,None,6610,1,6616.0,167197.10000002384,9034,WL,C,14.0
2,1.068000078201294,learn,58931.999921798706,Wed Oct 22 2025 16:52:19 GMT-0400 (Eastern Daylight Time),244296.89999997616,A,b,I,b,1058,1,1067.1000000238419,243229.79999995232,9034,WL,C,1.0
2,1.2180001735687256,learn,58781.999826431274,Wed Oct 22 2025 16:52:19 GMT-0400 (Eastern Daylight Time),244446.89999997616,A,bo,I,o,133,1,1217.1000000238419,243229.79999995232,9034,WL,C,1.0
2,1.4010000228881836,learn,58598.99997711182,Wed Oct 22 2025 16:52:19 GMT-0400 (Eastern Daylight Time),244630.29999995232,A,bod,I,d,174,1,1400.5,243229.79999995232,9034,WL,C,1.0
2,1.568000078201294,learn,58431.999921798706,Wed Oct 22 2025 16:52:19 GMT-0400 (Eastern Daylight Time),244796.89999997616,A,body,I,y,148,1,1567.1000000238419,243229.79999995232,9034,WL,C,1.0
2,1.8840000629425049,learn,58115.999937057495,Wed Oct 22 2025 16:52:19 GMT-0400 (Eastern Daylight Time),245113.10000002384,A,bodyenter,I,enter,301,1,1883.3000000715256,243229.79999995232,9034,WL,C,1.0
2,2.251000165939331,learn,57748.99983406067,Wed Oct 22 2025 16:52:19 GMT-0400 (Eastern Daylight Time),245479.69999992847,A,n,I,n,358,1,366.1999999284744,245113.5,9034,WL,C,2.0
2,2.434000015258789,learn,57565.99998474121,Wed Oct 22 2025 16:52:19 GMT-0400 (Eastern Daylight Time),245663.5,A,na,I,a,167,1,550.0,245113.5,9034,WL,C,2.0
2,2.618000030517578,learn,57381.99996948242,Wed Oct 22 2025 16:52:19 GMT-0400 (Eastern Daylight Time),245846.89999997616,A,nai,I,i,149,1,733.3999999761581,245113.5,9034,WL,C,2.0
2,2.7840001583099365,learn,57215.99984169006,Wed Oct 22 2025 16:52:19 GMT-0400 (Eastern Daylight Time),246013.60000002384,A,nail,I,l,150,1,900.1000000238419,245113.5,9034,WL,C,2.0
2,3.134000062942505,learn,56865.999937057495,Wed Oct 22 2025 16:52:19 GMT-0400 (Eastern Daylight Time),246363.10000002384,A,nailenter,I,enter,324,1,1249.6000000238419,245113.5,9034,WL,C,2.0
2,3.4839999675750732,learn,56516.00003242493,Wed Oct 22 2025 16:52:19 GMT-0400 (Eastern Daylight Time),246713.5,A,s,I,s,340,1,350.10000002384186,246363.39999997616,9034,WL,C,3.0
2,3.6510000228881836,learn,56348.99997711182,Wed Oct 22 2025 16:52:19 GMT-0400 (Eastern Daylight Time),246880.29999995232,A,sh,I,h,140,1,516.8999999761581,246363.39999997616,9034,WL,C,3.0
2,3.6740000247955322,learn,56325.99997520447,Wed Oct 22 2025 16:52:19 GMT-0400 (Eastern Daylight Time),246903.39999997616,A,sho,I,o,1,1,540.0,246363.39999997616,9034,WL,C,3.0
2,3.8510000705718994,learn,56148.9999294281,Wed Oct 22 2025 16:52:19 GMT-0400 (Eastern Daylight Time),247080.29999995232,A,shor,I,r,158,1,716.8999999761581,246363.39999997616,9034,WL,C,3.0
2,3.9509999752044678,learn,56049.00002479553,Wed Oct 22 2025 16:52:19 GMT-0400 (Eastern Daylight Time),247180.39999997616,A,shore,I,e,76,1,817.0,246363.39999997616,9034,WL,C,3.0
2,4.317000150680542,learn,55682.99984931946,Wed Oct 22 2025 16:52:19 GMT-0400 (Eastern Daylight Time),247546.60000002384,A,shoreenter,I,enter,342,1,1183.2000000476837,246363.39999997616,9034,WL,C,3.0
2,4.834000110626221,learn,55165.99988937378,Wed Oct 22 2025 16:52:19 GMT-0400 (Eastern Daylight Time),248063.5,A,c,I,c,501,1,516.6000000238419,247546.89999997616,9034,WL,C,4.0
2,4.950999975204468,learn,55049.00002479553,Wed Oct 22 2025 16:52:19 GMT-0400 (Eastern Daylight Time),248180.29999995232,A,ca,I,a,83,1,633.3999999761581,247546.89999997616,9034,WL,C,4.0
2,5.184000015258789,learn,54815.99998474121,Wed Oct 22 2025 16:52:19 GMT-0400 (Eastern Daylight Time),248413.19999992847,A,cat,I,t,209,1,866.2999999523163,247546.89999997616,9034,WL,C,4.0
2,5.334000110626221,learn,54665.99988937378,Wed Oct 22 2025 16:52:19 GMT-0400 (Eastern Daylight Time),248563.69999992847,A,catt,I,t,130,1,1016.7999999523163,247546.89999997616,9034,WL,C,4.0
2,5.51800012588501,learn,54481.99987411499,Wed Oct 22 2025 16:52:19 GMT-0400 (Eastern Daylight Time),248747.0,A,cattl,I,l,168,1,1200.1000000238419,247546.89999997616,9034,WL,C,4.0
2,5.634000062942505,learn,54365.999937057495,Wed Oct 22 2025 16:52:19 GMT-0400 (Eastern Daylight Time),248863.5,A,cattle,I,e,87,1,1316.6000000238419,247546.89999997616,9034,WL,C,4.0
2,5.867000102996826,learn,54132.999897003174,Wed Oct 22 2025 16:52:19 GMT-0400 (Eastern Daylight Time),249096.60000002384,A,cattleenter,I,enter,212,1,1549.7000000476837,247546.89999997616,9034,WL,C,4.0
2,6.667999982833862,learn,53332.00001716614,Wed Oct 22 2025 16:52:19 GMT-0400 (Eastern Daylight Time),249896.89999997616,A,q,I,q,790,1,800.0,249096.89999997616,9034,WL,C,5.0
2,6.851000070571899,learn,53148.9999294281,Wed Oct 22 2025 16:52:19 GMT-0400 (Eastern Daylight Time),250080.19999992847,A,qu,I,u,164,1,983.2999999523163,249096.89999997616,9034,WL,C,5.0
2,6.950999975204468,learn,53049.00002479553,Wed Oct 22 2025 16:52:19 GMT-0400 (Eastern Daylight Time),250180.19999992847,A,que,I,e,68,1,1083.2999999523163,249096.89999997616,9034,WL,C,5.0
2,7.084000110626221,learn,52915.99988937378,Wed Oct 22 2025 16:52:19 GMT-0400 (Eastern Daylight Time),250313.60000002384,A,quee,I,e,116,1,1216.7000000476837,249096.89999997616,9034,WL,C,5.0
2,7.450999975204468,learn,52549.00002479553,Wed Oct 22 2025 16:52:19 GMT-0400 (Eastern Daylight Time),250680.19999992847,A,queen,I,n,348,1,1583.2999999523163,249096.89999997616,9034,WL,C,5.0
2,7.751000165939331,learn,52248.99983406067,Wed Oct 22 2025 16:52:19 GMT-0400 (Eastern Daylight Time),250979.79999995232,A,queenenter,I,enter,275,1,1882.8999999761581,249096.89999997616,9034,WL,C,5.0
2,8.034000158309937,learn,51965.99984169006,Wed Oct 22 2025 16:52:19 GMT-0400 (Eastern Daylight Time),251263.5,A,t,I,t,267,1,283.3000000715256,250980.19999992847,9034,WL,C,6.0
2,8.1010000705719,learn,51898.9999294281,Wed Oct 22 2025 16:52:19 GMT-0400 (Eastern Daylight Time),251330.29999995232,A,to,I,o,38,1,350.10000002384186,250980.19999992847,9034,WL,C,6.0
2,8.233999967575073,learn,51766.00003242493,Wed Oct 22 2025 16:52:19 GMT-0400 (Eastern Daylight Time),251463.39999997616,A,tow,I,w,115,1,483.2000000476837,250980.19999992847,9034,WL,C,6.0
2,8.401000022888184,learn,51598.99997711182,Wed Oct 22 2025 16:52:19 GMT-0400 (Eastern Daylight Time),251630.19999992847,A,towe,I,e,143,1,650.0,250980.19999992847,9034,WL,C,6.0
2,8.568000078201294,learn,51431.999921798706,Wed Oct 22 2025 16:52:19 GMT-0400 (Eastern Daylight Time),251797.0,A,tower,I,r,136,1,816.8000000715256,250980.19999992847,9034,WL,C,6.0
2,8.8510000705719,learn,51148.9999294281,Wed Oct 22 2025 16:52:19 GMT-0400 (Eastern Daylight Time),252079.89999997616,A,towerenter,I,enter,258,1,1099.7000000476837,250980.19999992847,9034,WL,C,6.0
2,9.167999982833862,learn,50832.00001716614,Wed Oct 22 2025 16:52:19 GMT-0400 (Eastern Daylight Time),252397.0,A,w,I,w,304,1,316.7000000476837,252080.29999995232,9034,WL,C,7.0
2,9.318000078201294,learn,50681.999921798706,Wed Oct 22 2025 16:52:19 GMT-0400 (Eastern Daylight Time),252546.69999992847,A,wh,I,h,126,1,466.39999997615814,252080.29999995232,9034,WL,C,7.0
2,9.634000062942505,learn,50365.999937057495,Wed Oct 22 2025 16:52:19 GMT-0400 (Eastern Daylight Time),252863.69999992847,A,whe,I,e,298,1,783.3999999761581,252080.29999995232,9034,WL,C,7.0
2,9.801000118255615,learn,50198.999881744385,Wed Oct 22 2025 16:52:19 GMT-0400 (Eastern Daylight Time),253030.19999992847,A,whea,I,a,131,1,949.8999999761581,252080.29999995232,9034,WL,C,7.0
2,9.867000102996826,learn,50132.999897003174,Wed Oct 22 2025 16:52:19 GMT-0400 (Eastern Daylight Time),253096.60000002384,A,wheat,I,t,53,1,1016.3000000715256,252080.29999995232,9034,WL,C,7.0
2,10.217000007629395,learn,49782.999992370605,Wed Oct 22 2025 16:52:19 GMT-0400 (Eastern Daylight Time),253446.5,A,wheats,I,s,339,1,1366.2000000476837,252080.29999995232,9034,WL,C,7.0
2,10.401000022888184,learn,49598.99997711182,Wed Oct 22 2025 16:52:19 GMT-0400 (Eastern Daylight Time),253630.29999995232,A,wheatsu,I,u,169,1,1550.0,252080.29999995232,9034,WL,C,7.0
2,10.784000158309937,learn,49215.99984169006,Wed Oct 22 2025 16:52:19 GMT-0400 (Eastern Daylight Time),254013.69999992847,A,wheats,I,backspace,365,1,1933.3999999761581,252080.29999995232,9034,WL,C,7.0
2,10.950999975204468,learn,49049.00002479553,Wed Oct 22 2025 16:52:19 GMT-0400 (Eastern Daylight Time),254180.29999995232,A,wheat,I,backspace,141,1,2100.0,252080.29999995232,9034,WL,C,7.0
2,11.251000165939331,learn,48748.99983406067,Wed Oct 22 2025 16:52:19 GMT-0400 (Eastern Daylight Time),254479.89999997616,A,wheatenter,I,enter,279,1,2399.600000023842,252080.29999995232,9034,WL,C,7.0
2,12.08400011062622,learn,47915.99988937378,Wed Oct 22 2025 16:52:19 GMT-0400 (Eastern Daylight Time),255313.5,A,w,I,w,815,1,833.2000000476837,254480.29999995232,9034,WL,C,8.0
2,12.26800012588501,learn,47731.99987411499,Wed Oct 22 2025 16:52:19 GMT-0400 (Eastern Daylight Time),255496.89999997616,A,wu,I,u,172,1,1016.6000000238419,254480.29999995232,9034,WL,C,8.0
2,12.884000062942505,learn,47115.999937057495,Wed Oct 22 2025 16:52:19 GMT-0400 (Eastern Daylight Time),256113.60000002384,A,w,I,backspace,596,1,1633.3000000715256,254480.29999995232,9034,WL,C,8.0
2,13.016999959945679,learn,46983.00004005432,Wed Oct 22 2025 16:52:19 GMT-0400 (Eastern Daylight Time),256246.5,A,,I,backspace,121,1,1766.2000000476837,254480.29999995232,9034,WL,C,8.0
2,13.367000102996826,learn,46632.999897003174,Wed Oct 22 2025 16:52:19 GMT-0400 (Eastern Daylight Time),256596.39999997616,A,s,I,s,326,1,2116.100000023842,254480.29999995232,9034,WL,C,8.0
2,13.551000118255615,learn,46448.999881744385,Wed Oct 22 2025 16:52:19 GMT-0400 (Eastern Daylight Time),256780.19999992847,A,su,I,u,171,1,2299.899999976158,254480.29999995232,9034,WL,C,8.0
2,13.868000030517578,learn,46131.99996948242,Wed Oct 22 2025 16:52:19 GMT-0400 (Eastern Daylight Time),257097.0,A,sug,I,g,303,1,2616.7000000476837,254480.29999995232,9034,WL,C,8.0
2,14.068000078201294,learn,45931.999921798706,Wed Oct 22 2025 16:52:19 GMT-0400 (Eastern Daylight Time),257296.79999995232,A,suga,I,a,171,1,2816.5,254480.29999995232,9034,WL,C,8.0
2,14.167999982833862,learn,45832.00001716614,Wed Oct 22 2025 16:52:19 GMT-0400 (Eastern Daylight Time),257396.89999997616,A,sugar,I,r,69,1,2916.600000023842,254480.29999995232,9034,WL,C,8.0
2,14.534000158309937,learn,45465.99984169006,Wed Oct 22 2025 16:52:19 GMT-0400 (Eastern Daylight Time),257763.19999992847,A,sugarenter,I,enter,335,1,3282.899999976158,254480.29999995232,9034,WL,C,8.0
2,15.08400011062622,learn,44915.99988937378,Wed Oct 22 2025 16:52:19 GMT-0400 (Eastern Daylight Time),258313.60000002384,A,c,I,c,539,1,550.0,257763.60000002384,9034,WL,C,9.0
2,15.251000165939331,learn,44748.99983406067,Wed Oct 22 2025 16:52:19 GMT-0400 (Eastern Daylight Time),258479.89999997616,A,ca,I,a,144,1,716.2999999523163,257763.60000002384,9034,WL,C,9.0
2,15.401000022888184,learn,44598.99997711182,Wed Oct 22 2025 16:52:19 GMT-0400 (Eastern Daylight Time),258630.29999995232,A,cam,I,m,142,1,866.6999999284744,257763.60000002384,9034,WL,C,9.0
2,15.667999982833862,learn,44332.00001716614,Wed Oct 22 2025 16:52:19 GMT-0400 (Eastern Daylight Time),258896.89999997616,A,camp,I,p,237,1,1133.2999999523163,257763.60000002384,9034,WL,C,9.0
2,16.41700005531311,learn,43582.99994468689,Wed Oct 22 2025 16:52:19 GMT-0400 (Eastern Daylight Time),259646.60000002384,A,campenter,I,enter,729,1,1883.0,257763.60000002384,9034,WL,C,9.0
2,17.118000030517578,learn,42881.99996948242,Wed Oct 22 2025 16:52:19 GMT-0400 (Eastern Daylight Time),260346.79999995232,A,c,I,c,689,1,699.8999999761581,259646.89999997616,9034,WL,C,10.0
2,17.301000118255615,learn,42698.999881744385,Wed Oct 22 2025 16:52:19 GMT-0400 (Eastern Daylight Time),260530.29999995232,A,co,I,o,153,1,883.3999999761581,259646.89999997616,9034,WL,C,10.0
2,17.450999975204468,learn,42549.00002479553,Wed Oct 22 2025 16:52:19 GMT-0400 (Eastern Daylight Time),260680.10000002384,A,cor,I,r,127,1,1033.2000000476837,259646.89999997616,9034,WL,C,10.0
2,17.618000030517578,learn,42381.99996948242,Wed Oct 22 2025 16:52:19 GMT-0400 (Eastern Daylight Time),260846.79999995232,A,corn,I,n,141,1,1199.8999999761581,259646.89999997616,9034,WL,C,10.0
2,17.867000102996826,learn,42132.999897003174,Wed Oct 22 2025 16:52:19 GMT-0400 (Eastern Daylight Time),261096.5,A,cornenter,I,enter,236,1,1449.6000000238419,259646.89999997616,9034,WL,C,10.0
2,18.18400001525879,learn,41815.99998474121,Wed Oct 22 2025 16:52:19 GMT-0400 (Eastern Daylight Time),261413.60000002384,A,n,I,n,294,1,316.7000000476837,261096.89999997616,9034,WL,C,11.0
2,18.318000078201294,learn,41681.999921798706,Wed Oct 22 2025 16:52:19 GMT-0400 (Eastern Daylight Time),261547.79999995232,A,na,I,a,117,1,450.89999997615814,261096.89999997616,9034,WL,C,11.0
2,18.483999967575073,learn,41516.00003242493,Wed Oct 22 2025 16:52:19 GMT-0400 (Eastern Daylight Time),261713.0,A,nai,I,i,145,1,616.1000000238419,261096.89999997616,9034,WL,C,11.0
2,18.68400001525879,learn,41315.99998474121,Wed Oct 22 2025 16:52:19 GMT-0400 (Eastern Daylight Time),261913.10000002384,A,nail,I,l,189,1,816.2000000476837,261096.89999997616,9034,WL,C,11.0
2,19.200999975204468,learn,40799.00002479553,Wed Oct 22 2025 16:52:19 GMT-0400 (Eastern Daylight Time),262429.6999999285,A,nailenter,I,enter,495,1,1332.7999999523163,261096.89999997616,9034,WL,C,11.0
2,23.233999967575073,learn,36766.00003242493,Wed Oct 22 2025 16:52:19 GMT-0400 (Eastern Daylight Time),266463.0,A,d,I,d,4017,1,4033.0,262430.0,9034,WL,C,12.0
2,23.384000062942505,learn,36615.999937057495,Wed Oct 22 2025 16:52:19 GMT-0400 (Eastern Daylight Time),266613.5,A,do,I,o,129,1,4183.5,262430.0,9034,WL,C,12.0
2,23.483999967575073,learn,36516.00003242493,Wed Oct 22 2025 16:52:19 GMT-0400 (Eastern Daylight Time),266713.5,A,doc,I,c,85,1,4283.5,262430.0,9034,WL,C,12.0
2,23.718000173568726,learn,36281.999826431274,Wed Oct 22 2025 16:52:19 GMT-0400 (Eastern Daylight Time),266947.0,A,doct,I,t,201,1,4517.0,262430.0,9034,WL,C,12.0
2,23.817000150680542,learn,36182.99984931946,Wed Oct 22 2025 16:52:19 GMT-0400 (Eastern Daylight Time),267046.60000002384,A,docto,I,o,88,1,4616.600000023842,262430.0,9034,WL,C,12.0
2,23.950999975204468,learn,36049.00002479553,Wed Oct 22 2025 16:52:19 GMT-0400 (Eastern Daylight Time),267180.1999999285,A,doctor,I,r,109,1,4750.199999928474,262430.0,9034,WL,C,12.0
2,24.50100016593933,learn,35498.99983406067,Wed Oct 22 2025 16:52:19 GMT-0400 (Eastern Daylight Time),267729.89999997616,A,doctorenter,I,enter,520,1,5299.899999976158,262430.0,9034,WL,C,12.0
2,24.985000133514404,learn,35014.999866485596,Wed Oct 22 2025 16:52:19 GMT-0400 (Eastern Daylight Time),268214.6999999285,A,f,I,f,462,1,484.39999997615814,267730.2999999523,9034,WL,C,13.0
2,25.1010000705719,learn,34898.9999294281,Wed Oct 22 2025 16:52:19 GMT-0400 (Eastern Daylight Time),268330.10000002384,A,fl,I,l,104,1,599.8000000715256,267730.2999999523,9034,WL,C,13.0
2,25.200999975204468,learn,34799.00002479553,Wed Oct 22 2025 16:52:19 GMT-0400 (Eastern Daylight Time),268430.1999999285,A,fla,I,a,72,1,699.8999999761581,267730.2999999523,9034,WL,C,13.0
2,25.700999975204468,learn,34299.00002479553,Wed Oct 22 2025 16:52:19 GMT-0400 (Eastern Daylight Time),268930.10000002384,A,flag,I,g,472,1,1199.8000000715256,267730.2999999523,9034,WL,C,13.0
2,26.16700005531311,learn,33832.99994468689,Wed Oct 22 2025 16:52:19 GMT-0400 (Eastern Daylight Time),269396.5,A,flagenter,I,enter,440,1,1666.2000000476837,267730.2999999523,9034,WL,C,13.0
2,39.66799998283386,learn,20332.000017166138,Wed Oct 22 2025 16:52:19 GMT-0400 (Eastern Daylight Time),282896.89999997616,A,c,I,c,13483,1,13500.0,269396.89999997616,9034,WL,C,14.0
2,39.86800003051758,learn,20131.999969482422,Wed Oct 22 2025 16:52:19 GMT-0400 (Eastern Daylight Time),283097.0,A,ca,I,a,186,1,13700.100000023842,269396.89999997616,9034,WL,C,14.0
2,39.98399996757507,learn,20016.000032424927,Wed Oct 22 2025 16:52:19 GMT-0400 (Eastern Daylight Time),283213.5,A,cat,I,t,91,1,13816.600000023842,269396.89999997616,9034,WL,C,14.0
2,40.16799998283386,learn,19832.000017166138,Wed Oct 22 2025 16:52:19 GMT-0400 (Eastern Daylight Time),283397.0,A,catt,I,t,149,1,14000.100000023842,269396.89999997616,9034,WL,C,14.0
2,40.401000022888184,learn,19598.999977111816,Wed Oct 22 2025 16:52:19 GMT-0400 (Eastern Daylight Time),283630.1999999285,A,cattl,I,l,215,1,14233.299999952316,269396.89999997616,9034,WL,C,14.0
2,40.58400011062622,learn,19415.99988937378,Wed Oct 22 2025 16:52:19 GMT-0400 (Eastern Daylight Time),283813.60000002384,A,cattle,I,e,158,1,14416.700000047684,269396.89999997616,9034,WL,C,14.0
2,41.31700015068054,learn,18682.999849319458,Wed Oct 22 2025 16:52:19 GMT-0400 (Eastern Daylight Time),284546.60000002384,A,cattleenter,I,enter,709,1,15149.700000047684,269396.89999997616,9034,WL,C,14.0
2,42.36800003051758,learn,17631.999969482422,Wed Oct 22 2025 16:52:19 GMT-0400 (Eastern Daylight Time),285596.89999997616,A,b,I,b,1037,1,1050.0,284546.89999997616,9034,WL,C,15.0
2,42.50100016593933,learn,17498.99983406067,Wed Oct 22 2025 16:52:19 GMT-0400 (Eastern Daylight Time),285730.1999999285,A,bo,I,o,111,1,1183.2999999523163,284546.89999997616,9034,WL,C,15.0
2,42.66799998283386,learn,17332.000017166138,Wed Oct 22 2025 16:52:19 GMT-0400 (Eastern Daylight Time),285897.0,A,boy,I,y,145,1,1350.1000000238419,284546.89999997616,9034,WL,C,15.0
2,42.95099997520447,learn,17049.000024795532,Wed Oct 22 2025 16:52:19 GMT-0400 (Eastern Daylight Time),286179.7999999523,A,boyenter,I,enter,258,1,1632.8999999761581,284546.89999997616,9034,WL,C,15.0
3,0.6000001430511475,learn,59399.99985694885,Wed Oct 22 2025 16:52:19 GMT-0400 (Eastern Daylight Time),353280.0,A,t,I,t,582,1,599.8999999761581,352680.10000002384,9034,WL,C,1.0
3,0.75,learn,59250.0,Wed Oct 22 2025 16:52:19 GMT-0400 (Eastern Daylight Time),353429.89999997616,A,to,I,o,124,1,749.7999999523163,352680.10000002384,9034,WL,C,1.0
3,0.8680000305175781,learn,59131.99996948242,Wed Oct 22 2025 16:52:19 GMT-0400 (Eastern Daylight Time),353547.89999997616,A,tow,I,w,104,1,867.7999999523163,352680.10000002384,9034,WL,C,1.0
3,1.0329999923706055,learn,58967.000007629395,Wed Oct 22 2025 16:52:19 GMT-0400 (Eastern Daylight Time),353713.5,A,towe,I,e,149,1,1033.3999999761581,352680.10000002384,9034,WL,C,1.0
3,1.1679999828338623,learn,58832.00001716614,Wed Oct 22 2025 16:52:19 GMT-0400 (Eastern Daylight Time),353847.89999997616,A,tower,I,r,115,1,1167.7999999523163,352680.10000002384,9034,WL,C,1.0
3,1.5,learn,58500.0,Wed Oct 22 2025 16:52:19 GMT-0400 (Eastern Daylight Time),354179.7999999523,A,towerenter,I,enter,299,1,1499.6999999284744,352680.10000002384,9034,WL,C,1.0
3,1.9170000553131104,learn,58082.99994468689,Wed Oct 22 2025 16:52:19 GMT-0400 (Eastern Daylight Time),354596.7999999523,A,w,I,w,394,1,416.60000002384186,354180.1999999285,9034,WL,C,2.0
3,2.117000102996826,learn,57882.999897003174,Wed Oct 22 2025 16:52:19 GMT-0400 (Eastern Daylight Time),354796.89999997616,A,wh,I,h,183,1,616.7000000476837,354180.1999999285,9034,WL,C,2.0
3,2.433000087738037,learn,57566.99991226196,Wed Oct 22 2025 16:52:19 GMT-0400 (Eastern Daylight Time),355113.5,A,whe,I,e,295,1,933.3000000715256,354180.1999999285,9034,WL,C,2.0
3,2.567000150680542,learn,57432.99984931946,Wed Oct 22 2025 16:52:19 GMT-0400 (Eastern Daylight Time),355247.0,A,whea,I,a,106,1,1066.8000000715256,354180.1999999285,9034,WL,C,2.0
3,2.75,learn,57250.0,Wed Oct 22 2025 16:52:19 GMT-0400 (Eastern Daylight Time),355430.2999999523,A,wheat,I,t,148,1,1250.1000000238419,354180.1999999285,9034,WL,C,2.0
3,3.315999984741211,learn,56684.00001525879,Wed Oct 22 2025 16:52:19 GMT-0400 (Eastern Daylight Time),355996.2999999523,A,wheatenter,I,enter,540,1,1816.1000000238419,354180.1999999285,9034,WL,C,2.0
3,5.517000198364258,learn,54482.99980163574,Wed Oct 22 2025 16:52:19 GMT-0400 (Eastern Daylight Time),358196.7999999523,A,q,I,q,2179,1,2200.1999999284744,355996.60000002384,9034,WL,C,3.0
3,5.7170000076293945,learn,54282.999992370605,Wed Oct 22 2025 16:52:19 GMT-0400 (Eastern Daylight Time),358396.89999997616,A,qu,I,u,182,1,2400.2999999523163,355996.60000002384,9034,WL,C,3.0
3,5.983000040054321,learn,54016.99995994568,Wed Oct 22 2025 16:52:19 GMT-0400 (Eastern Daylight Time),358662.89999997616,A,que,I,e,247,1,2666.2999999523163,355996.60000002384,9034,WL,C,3.0
3,6.200000047683716,learn,53799.999952316284,Wed Oct 22 2025 16:52:19 GMT-0400 (Eastern Daylight Time),358880.2999999523,A,quee,I,e,200,1,2883.6999999284744,355996.60000002384,9034,WL,C,3.0
3,6.4670000076293945,learn,53532.999992370605,Wed Oct 22 2025 16:52:19 GMT-0400 (Eastern Daylight Time),359147.0,A,queen,I,n,253,1,3150.399999976158,355996.60000002384,9034,WL,C,3.0
3,6.7829999923706055,learn,53217.000007629395,Wed Oct 22 2025 16:52:19 GMT-0400 (Eastern Daylight Time),359463.10000002384,A,queenenter,I,enter,296,1,3466.5,355996.60000002384,9034,WL,C,3.0
3,7.183000087738037,learn,52816.99991226196,Wed Oct 22 2025 16:52:19 GMT-0400 (Eastern Daylight Time),359863.5,A,s,I,s,392,1,400.0,359463.5,9034,WL,C,4.0
3,7.517000198364258,learn,52482.99980163574,Wed Oct 22 2025 16:52:19 GMT-0400 (Eastern Daylight Time),360196.89999997616,A,su,I,u,309,1,733.3999999761581,359463.5,9034,WL,C,4.0
3,7.867000102996826,learn,52132.999897003174,Wed Oct 22 2025 16:52:19 GMT-0400 (Eastern Daylight Time),360546.7999999523,A,sug,I,g,320,1,1083.2999999523163,359463.5,9034,WL,C,4.0
3,8.0,learn,52000.0,Wed Oct 22 2025 16:52:19 GMT-0400 (Eastern Daylight Time),360680.2999999523,A,suga,I,a,121,1,1216.7999999523163,359463.5,9034,WL,C,4.0
3,8.117000102996826,learn,51882.999897003174,Wed Oct 22 2025 16:52:19 GMT-0400 (Eastern Daylight Time),360796.7999999523,A,sugar,I,r,89,1,1333.2999999523163,359463.5,9034,WL,C,4.0
3,8.400000095367432,learn,51599.99990463257,Wed Oct 22 2025 16:52:19 GMT-0400 (Eastern Daylight Time),361079.7999999523,A,sugarenter,I,enter,263,1,1616.2999999523163,359463.5,9034,WL,C,4.0
3,8.700000047683716,learn,51299.999952316284,Wed Oct 22 2025 16:52:19 GMT-0400 (Eastern Daylight Time),361380.10000002384,A,h,I,h,279,1,300.0,361080.10000002384,9034,WL,C,5.0
3,8.782999992370605,learn,51217.000007629395,Wed Oct 22 2025 16:52:19 GMT-0400 (Eastern Daylight Time),361463.5,A,ho,I,o,64,1,383.39999997615814,361080.10000002384,9034,WL,C,5.0
3,9.0,learn,51000.0,Wed Oct 22 2025 16:52:19 GMT-0400 (Eastern Daylight Time),361680.0,A,hom,I,m,195,1,599.8999999761581,361080.10000002384,9034,WL,C,5.0
3,9.200000047683716,learn,50799.999952316284,Wed Oct 22 2025 16:52:19 GMT-0400 (Eastern Daylight Time),361880.2999999523,A,home,I,e,180,1,800.1999999284744,361080.10000002384,9034,WL,C,5.0
3,9.583000183105469,learn,50416.99981689453,Wed Oct 22 2025 16:52:19 GMT-0400 (Eastern Daylight Time),362263.10000002384,A,homeenter,I,enter,372,1,1183.0,361080.10000002384,9034,WL,C,5.0
3,10.532999992370605,learn,49467.000007629395,Wed Oct 22 2025 16:52:19 GMT-0400 (Eastern Daylight Time),363213.10000002384,A,c,I,c,936,1,949.7000000476837,362263.39999997616,9034,WL,C,6.0
3,10.833000183105469,learn,49166.99981689453,Wed Oct 22 2025 16:52:19 GMT-0400 (Eastern Daylight Time),363513.2999999523,A,ca,I,a,289,1,1249.8999999761581,362263.39999997616,9034,WL,C,6.0
3,11.017000198364258,learn,48982.99980163574,Wed Oct 22 2025 16:52:19 GMT-0400 (Eastern Daylight Time),363696.7999999523,A,cam,I,m,162,1,1433.3999999761581,362263.39999997616,9034,WL,C,6.0
3,11.25,learn,48750.0,Wed Oct 22 2025 16:52:19 GMT-0400 (Eastern Daylight Time),363930.2999999523,A,camp,I,p,213,1,1666.8999999761581,362263.39999997616,9034,WL,C,6.0
3,11.617000102996826,learn,48382.999897003174,Wed Oct 22 2025 16:52:19 GMT-0400 (Eastern Daylight Time),364297.60000002384,A,campenter,I,enter,354,1,2034.2000000476837,362263.39999997616,9034,WL,C,6.0
3,11.933000087738037,learn,48066.99991226196,Wed Oct 22 2025 16:52:19 GMT-0400 (Eastern Daylight Time),364613.39999997616,A,l,I,l,293,1,315.39999997615814,364298.0,9034,WL,C,7.0
3,12.032999992370605,learn,47967.000007629395,Wed Oct 22 2025 16:52:19 GMT-0400 (Eastern Daylight Time),364713.39999997616,A,le,I,e,86,1,415.39999997615814,364298.0,9034,WL,C,7.0
3,12.217000007629395,learn,47782.999992370605,Wed Oct 22 2025 16:52:19 GMT-0400 (Eastern Daylight Time),364896.89999997616,A,let,I,t,154,1,598.8999999761581,364298.0,9034,WL,C,7.0
3,12.383000135421753,learn,47616.99986457825,Wed Oct 22 2025 16:52:19 GMT-0400 (Eastern Daylight Time),365063.1999999285,A,lett,I,t,147,1,765.1999999284744,364298.0,9034,WL,C,7.0
3,12.532999992370605,learn,47467.000007629395,Wed Oct 22 2025 16:52:19 GMT-0400 (Eastern Daylight Time),365213.5,A,lette,I,e,134,1,915.5,364298.0,9034,WL,C,7.0
3,12.650000095367432,learn,47349.99990463257,Wed Oct 22 2025 16:52:19 GMT-0400 (Eastern Daylight Time),365330.2999999523,A,letter,I,r,95,1,1032.2999999523163,364298.0,9034,WL,C,7.0
3,13.315999984741211,learn,46684.00001525879,Wed Oct 22 2025 16:52:19 GMT-0400 (Eastern Daylight Time),365996.5,A,letterenter,I,enter,640,1,1698.5,364298.0,9034,WL,C,7.0
3,14.032999992370605,learn,45967.000007629395,Wed Oct 22 2025 16:52:19 GMT-0400 (Eastern Daylight Time),366713.0,A,d,I,d,706,1,716.2000000476837,365996.7999999523,9034,WL,C,8.0
3,14.300000190734863,learn,45699.99980926514,Wed Oct 22 2025 16:52:19 GMT-0400 (Eastern Daylight Time),366980.10000002384,A,do,I,o,244,1,983.3000000715256,365996.7999999523,9034,WL,C,8.0
3,14.333000183105469,learn,45666.99981689453,Wed Oct 22 2025 16:52:19 GMT-0400 (Eastern Daylight Time),367013.1999999285,A,doc,I,c,8,1,1016.3999999761581,365996.7999999523,9034,WL,C,8.0
3,14.650000095367432,learn,45349.99990463257,Wed Oct 22 2025 16:52:19 GMT-0400 (Eastern Daylight Time),367329.89999997616,A,doct,I,t,296,1,1333.1000000238419,365996.7999999523,9034,WL,C,8.0
3,14.782999992370605,learn,45217.000007629395,Wed Oct 22 2025 16:52:19 GMT-0400 (Eastern Daylight Time),367463.60000002384,A,docto,I,o,123,1,1466.8000000715256,365996.7999999523,9034,WL,C,8.0
3,14.883000135421753,learn,45116.99986457825,Wed Oct 22 2025 16:52:19 GMT-0400 (Eastern Daylight Time),367563.5,A,doctor,I,r,76,1,1566.7000000476837,365996.7999999523,9034,WL,C,8.0
3,15.233000040054321,learn,44766.99995994568,Wed Oct 22 2025 16:52:19 GMT-0400 (Eastern Daylight Time),367913.0,A,doctorenter,I,enter,329,1,1916.2000000476837,365996.7999999523,9034,WL,C,8.0
3,15.450000047683716,learn,44549.999952316284,Wed Oct 22 2025 16:52:19 GMT-0400 (Eastern Daylight Time),368130.1999999285,A,f,I,f,197,1,216.79999995231628,367913.39999997616,9034,WL,C,9.0
3,15.567000150680542,learn,44432.99984931946,Wed Oct 22 2025 16:52:19 GMT-0400 (Eastern Daylight Time),368246.89999997616,A,fl,I,l,96,1,333.5,367913.39999997616,9034,WL,C,9.0
3,15.66700005531311,learn,44332.99994468689,Wed Oct 22 2025 16:52:19 GMT-0400 (Eastern Daylight Time),368347.0,A,fla,I,a,87,1,433.60000002384186,367913.39999997616,9034,WL,C,9.0
3,15.916000127792358,learn,44083.99987220764,Wed Oct 22 2025 16:52:19 GMT-0400 (Eastern Daylight Time),368596.5,A,flag,I,g,223,1,683.1000000238419,367913.39999997616,9034,WL,C,9.0
3,16.16600012779236,learn,43833.99987220764,Wed Oct 22 2025 16:52:19 GMT-0400 (Eastern Daylight Time),368846.2999999523,A,flagenter,I,enter,233,1,932.8999999761581,367913.39999997616,9034,WL,C,9.0
3,16.467000007629395,learn,43532.999992370605,Wed Oct 22 2025 16:52:19 GMT-0400 (Eastern Daylight Time),369146.7999999523,A,b,I,b,289,1,300.10000002384186,368846.6999999285,9034,WL,C,10.0
3,16.600000143051147,learn,43399.99985694885,Wed Oct 22 2025 16:52:19 GMT-0400 (Eastern Daylight Time),369280.10000002384,A,bo,I,o,113,1,433.40000009536743,368846.6999999285,9034,WL,C,10.0
3,16.782999992370605,learn,43217.000007629395,Wed Oct 22 2025 16:52:19 GMT-0400 (Eastern Daylight Time),369463.39999997616,A,boy,I,y,161,1,616.7000000476837,368846.6999999285,9034,WL,C,10.0
3,17.266000032424927,learn,42733.99996757507,Wed Oct 22 2025 16:52:19 GMT-0400 (Eastern Daylight Time),369946.5,A,boyenter,I,enter,459,1,1099.8000000715256,368846.6999999285,9034,WL,C,10.0
3,17.866000175476074,learn,42133.999824523926,Wed Oct 22 2025 16:52:19 GMT-0400 (Eastern Daylight Time),370546.5,A,n,I,n,580,1,599.6000000238419,369946.89999997616,9034,WL,C,11.0
3,17.98300004005432,learn,42016.99995994568,Wed Oct 22 2025 16:52:19 GMT-0400 (Eastern Daylight Time),370663.2999999523,A,na,I,a,106,1,716.3999999761581,369946.89999997616,9034,WL,C,11.0
3,18.133000135421753,learn,41866.99986457825,Wed Oct 22 2025 16:52:19 GMT-0400 (Eastern Daylight Time),370813.60000002384,A,nai,I,i,125,1,866.7000000476837,369946.89999997616,9034,WL,C,11.0
3,18.282999992370605,learn,41717.000007629395,Wed Oct 22 2025 16:52:19 GMT-0400 (Eastern Daylight Time),370963.5,A,nail,I,l,118,1,1016.6000000238419,369946.89999997616,9034,WL,C,11.0
3,18.534000158309937,learn,41465.99984169006,Wed Oct 22 2025 16:52:19 GMT-0400 (Eastern Daylight Time),371214.60000002384,A,nailenter,I,enter,223,1,1267.7000000476837,369946.89999997616,9034,WL,C,11.0
3,18.782999992370605,learn,41217.000007629395,Wed Oct 22 2025 16:52:19 GMT-0400 (Eastern Daylight Time),371463.5,A,c,I,c,242,1,248.60000002384186,371214.89999997616,9034,WL,C,12.0
3,19.017000198364258,learn,40982.99980163574,Wed Oct 22 2025 16:52:19 GMT-0400 (Eastern Daylight Time),371696.6999999285,A,ca,I,a,202,1,481.7999999523163,371214.89999997616,9034,WL,C,12.0
3,19.15000009536743,learn,40849.99990463257,Wed Oct 22 2025 16:52:19 GMT-0400 (Eastern Daylight Time),371830.10000002384,A,cat,I,t,123,1,615.2000000476837,371214.89999997616,9034,WL,C,12.0
3,19.33300018310547,learn,40666.99981689453,Wed Oct 22 2025 16:52:19 GMT-0400 (Eastern Daylight Time),372013.2999999523,A,catt,I,t,158,1,798.3999999761581,371214.89999997616,9034,WL,C,12.0
3,19.517000198364258,learn,40482.99980163574,Wed Oct 22 2025 16:52:19 GMT-0400 (Eastern Daylight Time),372196.89999997616,A,cattl,I,l,158,1,982.0,371214.89999997616,9034,WL,C,12.0
3,19.65000009536743,learn,40349.99990463257,Wed Oct 22 2025 16:52:19 GMT-0400 (Eastern Daylight Time),372330.0,A,cattle,I,e,120,1,1115.1000000238419,371214.89999997616,9034,WL,C,12.0
3,20.200000047683716,learn,39799.999952316284,Wed Oct 22 2025 16:52:19 GMT-0400 (Eastern Daylight Time),372879.7999999523,A,cattleenter,I,enter,520,1,1664.8999999761581,371214.89999997616,9034,WL,C,12.0
3,20.75,learn,39250.0,Wed Oct 22 2025 16:52:19 GMT-0400 (Eastern Daylight Time),373430.10000002384,A,s,I,s,528,1,549.9000000953674,372880.1999999285,9034,WL,C,13.0
3,20.91600012779236,learn,39083.99987220764,Wed Oct 22 2025 16:52:19 GMT-0400 (Eastern Daylight Time),373596.60000002384,A,sh,I,h,149,1,716.4000000953674,372880.1999999285,9034,WL,C,13.0
3,21.017000198364258,learn,38982.99980163574,Wed Oct 22 2025 16:52:19 GMT-0400 (Eastern Daylight Time),373696.6999999285,A,sho,I,o,73,1,816.5,372880.1999999285,9034,WL,C,13.0
3,21.16600012779236,learn,38833.99987220764,Wed Oct 22 2025 16:52:19 GMT-0400 (Eastern Daylight Time),373846.5,A,shor,I,r,132,1,966.3000000715256,372880.1999999285,9034,WL,C,13.0
3,21.367000102996826,learn,38632.999897003174,Wed Oct 22 2025 16:52:19 GMT-0400 (Eastern Daylight Time),374046.6999999285,A,shore,I,e,182,1,1166.5,372880.1999999285,9034,WL,C,13.0
3,22.383000135421753,learn,37616.99986457825,Wed Oct 22 2025 16:52:19 GMT-0400 (Eastern Daylight Time),375063.0,A,shoreenter,I,enter,1006,1,2182.8000000715256,372880.1999999285,9034,WL,C,13.0
3,30.866000175476074,learn,29133.999824523926,Wed Oct 22 2025 16:52:19 GMT-0400 (Eastern Daylight Time),383546.5,A,b,I,b,8471,1,8483.100000023842,375063.39999997616,9034,WL,C,14.0
3,31.017000198364258,learn,28982.999801635742,Wed Oct 22 2025 16:52:19 GMT-0400 (Eastern Daylight Time),383696.7999999523,A,bo,I,o,132,1,8633.399999976158,375063.39999997616,9034,WL,C,14.0
3,31.133000135421753,learn,28866.999864578247,Wed Oct 22 2025 16:52:19 GMT-0400 (Eastern Daylight Time),383813.39999997616,A,bod,I,d,101,1,8750.0,375063.39999997616,9034,WL,C,14.0
3,31.317000150680542,learn,28682.999849319458,Wed Oct 22 2025 16:52:19 GMT-0400 (Eastern Daylight Time),383996.7999999523,A,body,I,y,166,1,8933.399999976158,375063.39999997616,9034,WL,C,14.0
3,31.56599998474121,learn,28434.00001525879,Wed Oct 22 2025 16:52:19 GMT-0400 (Eastern Daylight Time),384246.2999999523,A,bodyenter,I,enter,238,1,9182.899999976158,375063.39999997616,9034,WL,C,14.0
3,31.75,learn,28250.0,Wed Oct 22 2025 16:52:19 GMT-0400 (Eastern Daylight Time),384430.39999997616,A,c,I,c,169,1,183.60000002384186,384246.7999999523,9034,WL,C,15.0
3,31.866000175476074,learn,28133.999824523926,Wed Oct 22 2025 16:52:19 GMT-0400 (Eastern Daylight Time),384546.6999999285,A,co,I,o,84,1,299.89999997615814,384246.7999999523,9034,WL,C,15.0
3,32.032999992370605,learn,27967.000007629395,Wed Oct 22 2025 16:52:19 GMT-0400 (Eastern Daylight Time),384713.5,A,cor,I,r,146,1,466.7000000476837,384246.7999999523,9034,WL,C,15.0
3,32.16700005531311,learn,27832.99994468689,Wed Oct 22 2025 16:52:19 GMT-0400 (Eastern Daylight Time),384846.89999997616,A,corn,I,n,115,1,600.1000000238419,384246.7999999523,9034,WL,C,15.0
3,32.40000009536743,learn,27599.99990463257,Wed Oct 22 2025 16:52:19 GMT-0400 (Eastern Daylight Time),385079.7999999523,A,cornenter,I,enter,212,1,833.0,384246.7999999523,9034,WL,C,15.0
4,0.7160000801086426,learn,59283.99991989136,Wed Oct 22 2025 16:52:19 GMT-0400 (Eastern Daylight Time),452763.5,A,t,I,t,701,1,716.1000000238419,452047.39999997616,9034,WL,C,1.0
4,0.8499999046325684,learn,59150.00009536743,Wed Oct 22 2025 16:52:19 GMT-0400 (Eastern Daylight Time),452896.7999999523,A,to,I,o,112,1,849.3999999761581,452047.39999997616,9034,WL,C,1.0
4,0.9830000400543213,learn,59016.99995994568,Wed Oct 22 2025 16:52:19 GMT-0400 (Eastern Daylight Time),453030.10000002384,A,tow,I,w,98,1,982.7000000476837,452047.39999997616,9034,WL,C,1.0
4,1.1159999370574951,learn,58884.000062942505,Wed Oct 22 2025 16:52:19 GMT-0400 (Eastern Daylight Time),453163.1999999285,A,towe,I,e,111,1,1115.7999999523163,452047.39999997616,9034,WL,C,1.0
4,1.2330000400543213,learn,58766.99995994568,Wed Oct 22 2025 16:52:19 GMT-0400 (Eastern Daylight Time),453280.0,A,tower,I,r,90,1,1232.6000000238419,452047.39999997616,9034,WL,C,1.0
4,1.4830000400543213,learn,58516.99995994568,Wed Oct 22 2025 16:52:19 GMT-0400 (Eastern Daylight Time),453529.6999999285,A,towerenter,I,enter,231,1,1482.2999999523163,452047.39999997616,9034,WL,C,1.0
4,1.9660000801086426,learn,58033.99991989136,Wed Oct 22 2025 16:52:19 GMT-0400 (Eastern Daylight Time),454013.39999997616,A,w,I,w,469,1,483.2999999523163,453530.10000002384,9034,WL,C,2.0
4,2.1489999294281006,learn,57851.0000705719,Wed Oct 22 2025 16:52:19 GMT-0400 (Eastern Daylight Time),454196.7999999523,A,wh,I,h,159,1,666.6999999284744,453530.10000002384,9034,WL,C,2.0
4,2.3499999046325684,learn,57650.00009536743,Wed Oct 22 2025 16:52:19 GMT-0400 (Eastern Daylight Time),454396.7999999523,A,whe,I,e,183,1,866.6999999284744,453530.10000002384,9034,WL,C,2.0
4,2.5169999599456787,learn,57483.00004005432,Wed Oct 22 2025 16:52:19 GMT-0400 (Eastern Daylight Time),454563.7999999523,A,whea,I,a,143,1,1033.6999999284744,453530.10000002384,9034,WL,C,2.0
4,2.5989999771118164,learn,57401.00002288818,Wed Oct 22 2025 16:52:19 GMT-0400 (Eastern Daylight Time),454646.60000002384,A,wheat,I,t,70,1,1116.5,453530.10000002384,9034,WL,C,2.0
4,3.384000062942505,learn,56615.999937057495,Wed Oct 22 2025 16:52:19 GMT-0400 (Eastern Daylight Time),455431.0,A,wheatenter,I,enter,774,1,1900.8999999761581,453530.10000002384,9034,WL,C,2.0
4,4.233000040054321,learn,55766.99995994568,Wed Oct 22 2025 16:52:19 GMT-0400 (Eastern Daylight Time),456280.10000002384,A,q,I,q,839,1,848.8000000715256,455431.2999999523,9034,WL,C,3.0
4,4.433000087738037,learn,55566.99991226196,Wed Oct 22 2025 16:52:19 GMT-0400 (Eastern Daylight Time),456480.10000002384,A,qu,I,u,179,1,1048.8000000715256,455431.2999999523,9034,WL,C,3.0
4,4.565999984741211,learn,55434.00001525879,Wed Oct 22 2025 16:52:19 GMT-0400 (Eastern Daylight Time),456613.2999999523,A,que,I,e,97,1,1182.0,455431.2999999523,9034,WL,C,3.0
4,4.716000080108643,learn,55283.99991989136,Wed Oct 22 2025 16:52:19 GMT-0400 (Eastern Daylight Time),456763.39999997616,A,quee,I,e,127,1,1332.1000000238419,455431.2999999523,9034,WL,C,3.0
4,4.865999937057495,learn,55134.000062942505,Wed Oct 22 2025 16:52:19 GMT-0400 (Eastern Daylight Time),456913.39999997616,A,queen,I,n,120,1,1482.1000000238419,455431.2999999523,9034,WL,C,3.0
4,5.098999977111816,learn,54901.00002288818,Wed Oct 22 2025 16:52:19 GMT-0400 (Eastern Daylight Time),457146.39999997616,A,queenenter,I,enter,217,1,1715.1000000238419,455431.2999999523,9034,WL,C,3.0
4,5.448999881744385,learn,54551.000118255615,Wed Oct 22 2025 16:52:19 GMT-0400 (Eastern Daylight Time),457496.5,A,s,I,s,341,1,349.7000000476837,457146.7999999523,9034,WL,C,4.0
4,5.599999904632568,learn,54400.00009536743,Wed Oct 22 2025 16:52:19 GMT-0400 (Eastern Daylight Time),457646.7999999523,A,su,I,u,133,1,500.0,457146.7999999523,9034,WL,C,4.0
4,5.7829999923706055,learn,54217.000007629395,Wed Oct 22 2025 16:52:19 GMT-0400 (Eastern Daylight Time),457830.10000002384,A,sug,I,g,166,1,683.3000000715256,457146.7999999523,9034,WL,C,4.0
4,5.898999929428101,learn,54101.0000705719,Wed Oct 22 2025 16:52:19 GMT-0400 (Eastern Daylight Time),457946.6999999285,A,suga,I,a,103,1,799.8999999761581,457146.7999999523,9034,WL,C,4.0
4,6.016000032424927,learn,53983.99996757507,Wed Oct 22 2025 16:52:19 GMT-0400 (Eastern Daylight Time),458063.39999997616,A,sugar,I,r,98,1,916.6000000238419,457146.7999999523,9034,WL,C,4.0
4,6.398999929428101,learn,53601.0000705719,Wed Oct 22 2025 16:52:19 GMT-0400 (Eastern Daylight Time),458446.5,A,sugarenter,I,enter,363,1,1299.7000000476837,457146.7999999523,9034,WL,C,4.0
4,6.732000112533569,learn,53267.99988746643,Wed Oct 22 2025 16:52:19 GMT-0400 (Eastern Daylight Time),458779.39999997616,A,h,I,h,320,1,332.7000000476837,458446.6999999285,9034,WL,C,5.0
4,6.882999897003174,learn,53117.000102996826,Wed Oct 22 2025 16:52:19 GMT-0400 (Eastern Daylight Time),458930.2999999523,A,ho,I,o,131,1,483.60000002384186,458446.6999999285,9034,WL,C,5.0
4,7.0329999923706055,learn,52967.000007629395,Wed Oct 22 2025 16:52:19 GMT-0400 (Eastern Daylight Time),459080.10000002384,A,hom,I,m,135,1,633.4000000953674,458446.6999999285,9034,WL,C,5.0
4,7.233000040054321,learn,52766.99995994568,Wed Oct 22 2025 16:52:19 GMT-0400 (Eastern Daylight Time),459280.10000002384,A,home,I,e,172,1,833.4000000953674,458446.6999999285,9034,WL,C,5.0
4,7.5329999923706055,learn,52467.000007629395,Wed Oct 22 2025 16:52:19 GMT-0400 (Eastern Daylight Time),459579.7999999523,A,homeenter,I,enter,278,1,1133.1000000238419,458446.6999999285,9034,WL,C,5.0
4,9.549000024795532,learn,50450.99997520447,Wed Oct 22 2025 16:52:19 GMT-0400 (Eastern Daylight Time),461596.6999999285,A,b,I,b,2003,1,2016.5999999046326,459580.10000002384,9034,WL,C,6.0
4,9.700000047683716,learn,50299.999952316284,Wed Oct 22 2025 16:52:19 GMT-0400 (Eastern Daylight Time),461746.7999999523,A,bo,I,o,121,1,2166.6999999284744,459580.10000002384,9034,WL,C,6.0
4,9.882999897003174,learn,50117.000102996826,Wed Oct 22 2025 16:52:19 GMT-0400 (Eastern Daylight Time),461930.10000002384,A,boy,I,y,160,1,2350.0,459580.10000002384,9034,WL,C,6.0
4,10.382999897003174,learn,49617.000102996826,Wed Oct 22 2025 16:52:19 GMT-0400 (Eastern Daylight Time),462429.6999999285,A,boyenter,I,enter,483,1,2849.5999999046326,459580.10000002384,9034,WL,C,6.0
4,10.683000087738037,learn,49316.99991226196,Wed Oct 22 2025 16:52:19 GMT-0400 (Eastern Daylight Time),462730.0,A,d,I,d,291,1,299.89999997615814,462430.10000002384,9034,WL,C,7.0
4,10.849999904632568,learn,49150.00009536743,Wed Oct 22 2025 16:52:19 GMT-0400 (Eastern Daylight Time),462896.6999999285,A,do,I,o,147,1,466.59999990463257,462430.10000002384,9034,WL,C,7.0
4,10.966000080108643,learn,49033.99991989136,Wed Oct 22 2025 16:52:19 GMT-0400 (Eastern Daylight Time),463013.5,A,doc,I,c,81,1,583.3999999761581,462430.10000002384,9034,WL,C,7.0
4,11.16599988937378,learn,48834.00011062622,Wed Oct 22 2025 16:52:19 GMT-0400 (Eastern Daylight Time),463213.2999999523,A,doct,I,t,174,1,783.1999999284744,462430.10000002384,9034,WL,C,7.0
4,11.282999992370605,learn,48717.000007629395,Wed Oct 22 2025 16:52:19 GMT-0400 (Eastern Daylight Time),463330.2999999523,A,docto,I,o,89,1,900.1999999284744,462430.10000002384,9034,WL,C,7.0
4,11.3989999294281,learn,48601.0000705719,Wed Oct 22 2025 16:52:19 GMT-0400 (Eastern Daylight Time),463446.5,A,doctor,I,r,97,1,1016.3999999761581,462430.10000002384,9034,WL,C,7.0
4,11.91599988937378,learn,48084.00011062622,Wed Oct 22 2025 16:52:19 GMT-0400 (Eastern Daylight Time),463962.89999997616,A,doctorenter,I,enter,491,1,1532.7999999523163,462430.10000002384,9034,WL,C,7.0
4,12.183000087738037,learn,47816.99991226196,Wed Oct 22 2025 16:52:19 GMT-0400 (Eastern Daylight Time),464230.1999999285,A,f,I,f,261,1,266.7999999523163,463963.39999997616,9034,WL,C,8.0
4,12.332000017166138,learn,47667.99998283386,Wed Oct 22 2025 16:52:19 GMT-0400 (Eastern Daylight Time),464379.5,A,fl,I,l,133,1,416.10000002384186,463963.39999997616,9034,WL,C,8.0
4,12.483000040054321,learn,47516.99995994568,Wed Oct 22 2025 16:52:19 GMT-0400 (Eastern Daylight Time),464530.10000002384,A,fla,I,a,132,1,566.7000000476837,463963.39999997616,9034,WL,C,8.0
4,12.782999992370605,learn,47217.000007629395,Wed Oct 22 2025 16:52:19 GMT-0400 (Eastern Daylight Time),464830.1999999285,A,flag,I,g,273,1,866.7999999523163,463963.39999997616,9034,WL,C,8.0
4,13.032999992370605,learn,46967.000007629395,Wed Oct 22 2025 16:52:19 GMT-0400 (Eastern Daylight Time),465079.7999999523,A,flagenter,I,enter,228,1,1116.3999999761581,463963.39999997616,9034,WL,C,8.0
4,13.266000032424927,learn,46733.99996757507,Wed Oct 22 2025 16:52:19 GMT-0400 (Eastern Daylight Time),465313.39999997616,A,c,I,c,216,1,233.29999995231628,465080.10000002384,9034,WL,C,9.0
4,13.450000047683716,learn,46549.999952316284,Wed Oct 22 2025 16:52:19 GMT-0400 (Eastern Daylight Time),465496.7999999523,A,ca,I,a,163,1,416.6999999284744,465080.10000002384,9034,WL,C,9.0
4,13.565999984741211,learn,46434.00001525879,Wed Oct 22 2025 16:52:19 GMT-0400 (Eastern Daylight Time),465613.60000002384,A,cam,I,m,98,1,533.5,465080.10000002384,9034,WL,C,9.0
4,13.766000032424927,learn,46233.99996757507,Wed Oct 22 2025 16:52:19 GMT-0400 (Eastern Daylight Time),465813.39999997616,A,camp,I,p,175,1,733.2999999523163,465080.10000002384,9034,WL,C,9.0
4,14.098999977111816,learn,45901.00002288818,Wed Oct 22 2025 16:52:19 GMT-0400 (Eastern Daylight Time),466146.5,A,campenter,I,enter,303,1,1066.3999999761581,465080.10000002384,9034,WL,C,9.0
4,14.382999897003174,learn,45617.000102996826,Wed Oct 22 2025 16:52:19 GMT-0400 (Eastern Daylight Time),466429.6999999285,A,l,I,l,268,1,282.89999997615814,466146.7999999523,9034,WL,C,10.0
4,14.466000080108643,learn,45533.99991989136,Wed Oct 22 2025 16:52:19 GMT-0400 (Eastern Daylight Time),466513.2999999523,A,le,I,e,62,1,366.5,466146.7999999523,9034,WL,C,10.0
4,14.6489999294281,learn,45351.0000705719,Wed Oct 22 2025 16:52:19 GMT-0400 (Eastern Daylight Time),466696.6999999285,A,let,I,t,171,1,549.8999999761581,466146.7999999523,9034,WL,C,10.0
4,14.815999984741211,learn,45184.00001525879,Wed Oct 22 2025 16:52:19 GMT-0400 (Eastern Daylight Time),466863.5,A,lett,I,t,140,1,716.7000000476837,466146.7999999523,9034,WL,C,10.0
4,15.0,learn,45000.0,Wed Oct 22 2025 16:52:19 GMT-0400 (Eastern Daylight Time),467047.0,A,lette,I,e,175,1,900.2000000476837,466146.7999999523,9034,WL,C,10.0
4,15.132999897003174,learn,44867.000102996826,Wed Oct 22 2025 16:52:19 GMT-0400 (Eastern Daylight Time),467180.0,A,letter,I,r,118,1,1033.2000000476837,466146.7999999523,9034,WL,C,10.0
4,15.431999921798706,learn,44568.000078201294,Wed Oct 22 2025 16:52:19 GMT-0400 (Eastern Daylight Time),467479.6999999285,A,letterenter,I,enter,279,1,1332.8999999761581,466146.7999999523,9034,WL,C,10.0
4,16.81599998474121,learn,43184.00001525879,Wed Oct 22 2025 16:52:19 GMT-0400 (Eastern Daylight Time),468863.39999997616,A,c,I,c,1367,1,1383.3999999761581,467480.0,9034,WL,C,11.0
4,16.933000087738037,learn,43066.99991226196,Wed Oct 22 2025 16:52:19 GMT-0400 (Eastern Daylight Time),468979.89999997616,A,co,I,o,92,1,1499.8999999761581,467480.0,9034,WL,C,11.0
4,17.115999937057495,learn,42884.000062942505,Wed Oct 22 2025 16:52:19 GMT-0400 (Eastern Daylight Time),469163.39999997616,A,cor,I,r,161,1,1683.3999999761581,467480.0,9034,WL,C,11.0
4,17.25,learn,42750.0,Wed Oct 22 2025 16:52:19 GMT-0400 (Eastern Daylight Time),469296.7999999523,A,corn,I,n,113,1,1816.7999999523163,467480.0,9034,WL,C,11.0
4,17.582000017166138,learn,42417.99998283386,Wed Oct 22 2025 16:52:19 GMT-0400 (Eastern Daylight Time),469629.6999999285,A,cornenter,I,enter,306,1,2149.6999999284744,467480.0,9034,WL,C,11.0
4,18.098999977111816,learn,41901.00002288818,Wed Oct 22 2025 16:52:19 GMT-0400 (Eastern Daylight Time),470146.39999997616,A,n,I,n,497,1,516.3999999761581,469630.0,9034,WL,C,12.0
4,18.216000080108643,learn,41783.99991989136,Wed Oct 22 2025 16:52:19 GMT-0400 (Eastern Daylight Time),470263.5,A,na,I,a,108,1,633.5,469630.0,9034,WL,C,12.0
4,18.34999990463257,learn,41650.00009536743,Wed Oct 22 2025 16:52:19 GMT-0400 (Eastern Daylight Time),470396.7999999523,A,nai,I,i,116,1,766.7999999523163,469630.0,9034,WL,C,12.0
4,18.532999992370605,learn,41467.000007629395,Wed Oct 22 2025 16:52:19 GMT-0400 (Eastern Daylight Time),470580.10000002384,A,nail,I,l,151,1,950.1000000238419,469630.0,9034,WL,C,12.0
4,19.381999969482422,learn,40618.00003051758,Wed Oct 22 2025 16:52:19 GMT-0400 (Eastern Daylight Time),471429.5,A,nailenter,I,enter,830,1,1799.5,469630.0,9034,WL,C,12.0
4,19.749000072479248,learn,40250.99992752075,Wed Oct 22 2025 16:52:19 GMT-0400 (Eastern Daylight Time),471796.39999997616,A,s,I,s,345,1,366.60000002384186,471429.7999999523,9034,WL,C,13.0
4,19.865999937057495,learn,40134.000062942505,Wed Oct 22 2025 16:52:19 GMT-0400 (Eastern Daylight Time),471913.39999997616,A,sh,I,h,103,1,483.60000002384186,471429.7999999523,9034,WL,C,13.0
4,19.966000080108643,learn,40033.99991989136,Wed Oct 22 2025 16:52:19 GMT-0400 (Eastern Daylight Time),472013.5,A,sho,I,o,81,1,583.7000000476837,471429.7999999523,9034,WL,C,13.0
4,20.183000087738037,learn,39816.99991226196,Wed Oct 22 2025 16:52:19 GMT-0400 (Eastern Daylight Time),472230.2999999523,A,shor,I,r,192,1,800.5,471429.7999999523,9034,WL,C,13.0
4,20.266000032424927,learn,39733.99996757507,Wed Oct 22 2025 16:52:19 GMT-0400 (Eastern Daylight Time),472313.1999999285,A,shore,I,e,60,1,883.3999999761581,471429.7999999523,9034,WL,C,13.0
4,21.049999952316284,learn,38950.000047683716,Wed Oct 22 2025 16:52:19 GMT-0400 (Eastern Daylight Time),473096.89999997616,A,shoreb,I,b,771,1,1667.1000000238419,471429.7999999523,9034,WL,C,13.0
4,21.16599988937378,learn,38834.00011062622,Wed Oct 22 2025 16:52:19 GMT-0400 (Eastern Daylight Time),473213.5,A,shorebo,I,o,99,1,1783.7000000476837,471429.7999999523,9034,WL,C,13.0
4,21.33299994468689,learn,38667.00005531311,Wed Oct 22 2025 16:52:19 GMT-0400 (Eastern Daylight Time),473380.0,A,shorebod,I,d,138,1,1950.2000000476837,471429.7999999523,9034,WL,C,13.0
4,21.799000024795532,learn,38200.99997520447,Wed Oct 22 2025 16:52:19 GMT-0400 (Eastern Daylight Time),473846.1999999285,A,shorebo,I,backspace,447,1,2416.399999976158,471429.7999999523,9034,WL,C,13.0
4,21.966000080108643,learn,38033.99991989136,Wed Oct 22 2025 16:52:19 GMT-0400 (Eastern Daylight Time),474012.89999997616,A,shoreb,I,backspace,153,1,2583.100000023842,471429.7999999523,9034,WL,C,13.0
4,22.132999897003174,learn,37867.000102996826,Wed Oct 22 2025 16:52:19 GMT-0400 (Eastern Daylight Time),474180.10000002384,A,shore,I,backspace,146,1,2750.3000000715256,471429.7999999523,9034,WL,C,13.0
4,22.81599998474121,learn,37184.00001525879,Wed Oct 22 2025 16:52:19 GMT-0400 (Eastern Daylight Time),474863.60000002384,A,shoreb,I,b,664,1,3433.8000000715256,471429.7999999523,9034,WL,C,13.0
4,22.950000047683716,learn,37049.999952316284,Wed Oct 22 2025 16:52:19 GMT-0400 (Eastern Daylight Time),474996.89999997616,A,shorebo,I,o,111,1,3567.100000023842,471429.7999999523,9034,WL,C,13.0
4,23.48300004005432,learn,36516.99995994568,Wed Oct 22 2025 16:52:19 GMT-0400 (Eastern Daylight Time),475530.0,A,shoreb,I,backspace,517,1,4100.200000047684,471429.7999999523,9034,WL,C,13.0
4,23.632999897003174,learn,36367.000102996826,Wed Oct 22 2025 16:52:19 GMT-0400 (Eastern Daylight Time),475680.10000002384,A,shore,I,backspace,130,1,4250.300000071526,471429.7999999523,9034,WL,C,13.0
4,24.115999937057495,learn,35884.000062942505,Wed Oct 22 2025 16:52:19 GMT-0400 (Eastern Daylight Time),476163.10000002384,A,shoreenter,I,enter,458,1,4733.300000071526,471429.7999999523,9034,WL,C,13.0
4,24.882999897003174,learn,35117.000102996826,Wed Oct 22 2025 16:52:19 GMT-0400 (Eastern Daylight Time),476929.89999997616,A,b,I,b,748,1,766.5,476163.39999997616,9034,WL,C,14.0
4,24.999000072479248,learn,35000.99992752075,Wed Oct 22 2025 16:52:19 GMT-0400 (Eastern Daylight Time),477046.6999999285,A,bo,I,o,101,1,883.2999999523163,476163.39999997616,9034,WL,C,14.0
4,25.1489999294281,learn,34851.0000705719,Wed Oct 22 2025 16:52:19 GMT-0400 (Eastern Daylight Time),477196.6999999285,A,bod,I,d,122,1,1033.2999999523163,476163.39999997616,9034,WL,C,14.0
4,25.365999937057495,learn,34634.000062942505,Wed Oct 22 2025 16:52:19 GMT-0400 (Eastern Daylight Time),477413.5,A,body,I,y,184,1,1250.1000000238419,476163.39999997616,9034,WL,C,14.0
4,25.73300004005432,learn,34266.99995994568,Wed Oct 22 2025 16:52:19 GMT-0400 (Eastern Daylight Time),477779.6999999285,A,bodyenter,I,enter,333,1,1616.2999999523163,476163.39999997616,9034,WL,C,14.0
4,35.49900007247925,learn,24500.999927520752,Wed Oct 22 2025 16:52:19 GMT-0400 (Eastern Daylight Time),487546.6999999285,A,c,I,c,9756,1,9766.599999904633,477780.10000002384,9034,WL,C,15.0
4,35.68300008773804,learn,24316.999912261963,Wed Oct 22 2025 16:52:19 GMT-0400 (Eastern Daylight Time),487730.10000002384,A,ca,I,a,163,1,9950.0,477780.10000002384,9034,WL,C,15.0
4,35.79900002479553,learn,24200.999975204468,Wed Oct 22 2025 16:52:19 GMT-0400 (Eastern Daylight Time),487846.5,A,cat,I,t,101,1,10066.399999976158,477780.10000002384,9034,WL,C,15.0
4,35.950000047683716,learn,24049.999952316284,Wed Oct 22 2025 16:52:19 GMT-0400 (Eastern Daylight Time),487996.6999999285,A,catt,I,t,124,1,10216.599999904633,477780.10000002384,9034,WL,C,15.0
4,36.1489999294281,learn,23851.0000705719,Wed Oct 22 2025 16:52:19 GMT-0400 (Eastern Daylight Time),488196.6999999285,A,cattl,I,l,174,1,10416.599999904633,477780.10000002384,9034,WL,C,15.0
4,36.24900007247925,learn,23750.999927520752,Wed Oct 22 2025 16:52:19 GMT-0400 (Eastern Daylight Time),488296.2999999523,A,cattle,I,e,87,1,10516.199999928474,477780.10000002384,9034,WL,C,15.0
4,36.46600008010864,learn,23533.999919891357,Wed Oct 22 2025 16:52:19 GMT-0400 (Eastern Daylight Time),488512.89999997616,A,cattleenter,I,enter,191,1,10732.799999952316,477780.10000002384,9034,WL,C,15.0
5,0.6659998893737793,learn,60000.0,Wed Oct 22 2025 16:52:19 GMT-0400 (Eastern Daylight Time),554113.1000000238,A,t,I,t,637,1,665.4000000953674,553447.6999999285,9034,WL,C,1.0
5,0.748999834060669,learn,60000.0,Wed Oct 22 2025 16:52:19 GMT-0400 (Eastern Daylight Time),554196.6999999285,A,to,I,o,62,1,749.0,553447.6999999285,9034,WL,C,1.0
5,0.8819999694824219,learn,60000.0,Wed Oct 22 2025 16:52:19 GMT-0400 (Eastern Daylight Time),554329.6999999285,A,tow,I,w,114,1,882.0,553447.6999999285,9034,WL,C,1.0
5,1.0329999923706055,learn,60000.0,Wed Oct 22 2025 16:52:19 GMT-0400 (Eastern Daylight Time),554480.0,A,towe,I,e,134,1,1032.3000000715256,553447.6999999285,9034,WL,C,1.0
5,1.1659998893737793,learn,60000.0,Wed Oct 22 2025 16:52:19 GMT-0400 (Eastern Daylight Time),554613.2999999523,A,tower,I,r,102,1,1165.6000000238419,553447.6999999285,9034,WL,C,1.0
5,1.5169999599456787,learn,60000.0,Wed Oct 22 2025 16:52:19 GMT-0400 (Eastern Daylight Time),554964.6999999285,A,towerenter,I,enter,319,1,1517.0,553447.6999999285,9034,WL,C,1.0
5,1.8499999046325684,learn,60000.0,Wed Oct 22 2025 16:52:19 GMT-0400 (Eastern Daylight Time),555296.7999999523,A,q,I,q,313,1,331.6999999284744,554965.1000000238,9034,WL,C,2.0
5,2.0159997940063477,learn,60000.0,Wed Oct 22 2025 16:52:19 GMT-0400 (Eastern Daylight Time),555463.1999999285,A,qu,I,u,146,1,498.09999990463257,554965.1000000238,9034,WL,C,2.0
5,2.1659998893737793,learn,60000.0,Wed Oct 22 2025 16:52:19 GMT-0400 (Eastern Daylight Time),555613.2999999523,A,que,I,e,134,1,648.1999999284744,554965.1000000238,9034,WL,C,2.0
5,2.3329999446868896,learn,60000.0,Wed Oct 22 2025 16:52:19 GMT-0400 (Eastern Daylight Time),555780.1000000238,A,quee,I,e,133,1,815.0,554965.1000000238,9034,WL,C,2.0
5,2.5159997940063477,learn,60000.0,Wed Oct 22 2025 16:52:19 GMT-0400 (Eastern Daylight Time),555963.5,A,queen,I,n,167,1,998.3999999761581,554965.1000000238,9034,WL,C,2.0
5,2.8989999294281006,learn,60000.0,Wed Oct 22 2025 16:52:19 GMT-0400 (Eastern Daylight Time),556346.1000000238,A,queenenter,I,enter,360,1,1381.0,554965.1000000238,9034,WL,C,2.0
5,4.631999969482422,learn,60000.0,Wed Oct 22 2025 16:52:19 GMT-0400 (Eastern Daylight Time),558079.6999999285,A,w,I,w,1717,1,1733.2999999523163,556346.3999999762,9034,WL,C,3.0
5,4.798999786376953,learn,60000.0,Wed Oct 22 2025 16:52:19 GMT-0400 (Eastern Daylight Time),558246.5,A,wh,I,h,159,1,1900.1000000238419,556346.3999999762,9034,WL,C,3.0
5,4.882999897003174,learn,60000.0,Wed Oct 22 2025 16:52:19 GMT-0400 (Eastern Daylight Time),558330.1000000238,A,whe,I,e,61,1,1983.7000000476837,556346.3999999762,9034,WL,C,3.0
5,5.048999786376953,learn,60000.0,Wed Oct 22 2025 16:52:19 GMT-0400 (Eastern Daylight Time),558496.6000000238,A,whea,I,a,137,1,2150.2000000476837,556346.3999999762,9034,WL,C,3.0
5,5.232999801635742,learn,60000.0,Wed Oct 22 2025 16:52:19 GMT-0400 (Eastern Daylight Time),558680.1999999285,A,wheat,I,t,167,1,2333.7999999523163,556346.3999999762,9034,WL,C,3.0
5,5.815999984741211,learn,60000.0,Wed Oct 22 2025 16:52:19 GMT-0400 (Eastern Daylight Time),559263.0,A,wheatenter,I,enter,562,1,2916.600000023842,556346.3999999762,9034,WL,C,3.0
5,7.565999984741211,learn,60000.0,Wed Oct 22 2025 16:52:19 GMT-0400 (Eastern Daylight Time),561013.3999999762,A,s,I,s,1727,1,1750.0,559263.3999999762,9034,WL,C,4.0
5,7.7159998416900635,learn,60000.0,Wed Oct 22 2025 16:52:19 GMT-0400 (Eastern Daylight Time),561163.2999999523,A,su,I,u,135,1,1899.8999999761581,559263.3999999762,9034,WL,C,4.0
5,8.048999786376953,learn,60000.0,Wed Oct 22 2025 16:52:19 GMT-0400 (Eastern Daylight Time),561496.6000000238,A,sug,I,g,311,1,2233.2000000476837,559263.3999999762,9034,WL,C,4.0
5,8.181999921798706,learn,60000.0,Wed Oct 22 2025 16:52:19 GMT-0400 (Eastern Daylight Time),561629.3999999762,A,suga,I,a,114,1,2366.0,559263.3999999762,9034,WL,C,4.0
5,8.281999826431274,learn,60000.0,Wed Oct 22 2025 16:52:19 GMT-0400 (Eastern Daylight Time),561729.5,A,sugar,I,r,76,1,2466.100000023842,559263.3999999762,9034,WL,C,4.0
5,8.632999897003174,learn,60000.0,Wed Oct 22 2025 16:52:19 GMT-0400 (Eastern Daylight Time),562079.6999999285,A,sugarenter,I,enter,333,1,2816.2999999523163,559263.3999999762,9034,WL,C,4.0
5,8.899999856948853,learn,60000.0,Wed Oct 22 2025 16:52:19 GMT-0400 (Eastern Daylight Time),562346.7999999523,A,h,I,h,255,1,266.6999999284744,562080.1000000238,9034,WL,C,5.0
5,8.931999921798706,learn,60000.0,Wed Oct 22 2025 16:52:19 GMT-0400 (Eastern Daylight Time),562379.6000000238,A,ho,I,o,7,1,299.5,562080.1000000238,9034,WL,C,5.0
5,9.482999801635742,learn,60000.0,Wed Oct 22 2025 16:52:19 GMT-0400 (Eastern Daylight Time),562930.1000000238,A,hom,I,m,528,1,850.0,562080.1000000238,9034,WL,C,5.0
5,9.6489999294281,learn,60000.0,Wed Oct 22 2025 16:52:19 GMT-0400 (Eastern Daylight Time),563096.6999999285,A,home,I,e,151,1,1016.5999999046326,562080.1000000238,9034,WL,C,5.0
5,10.082000017166138,learn,60000.0,Wed Oct 22 2025 16:52:19 GMT-0400 (Eastern Daylight Time),563529.6000000238,A,homeenter,I,enter,410,1,1449.5,562080.1000000238,9034,WL,C,5.0
5,10.932999849319458,learn,60000.0,Wed Oct 22 2025 16:52:19 GMT-0400 (Eastern Daylight Time),564380.0,A,b,I,b,837,1,850.0,563530.0,9034,WL,C,6.0
5,11.032999992370605,learn,60000.0,Wed Oct 22 2025 16:52:19 GMT-0400 (Eastern Daylight Time),564480.0,A,bo,I,o,80,1,950.0,563530.0,9034,WL,C,6.0
5,11.198999881744385,learn,60000.0,Wed Oct 22 2025 16:52:19 GMT-0400 (Eastern Daylight Time),564646.3999999762,A,boy,I,y,156,1,1116.3999999761581,563530.0,9034,WL,C,6.0
5,11.448999881744385,learn,60000.0,Wed Oct 22 2025 16:52:19 GMT-0400 (Eastern Daylight Time),564896.2999999523,A,boyenter,I,enter,229,1,1366.2999999523163,563530.0,9034,WL,C,6.0
5,11.631999969482422,learn,60000.0,Wed Oct 22 2025 16:52:19 GMT-0400 (Eastern Daylight Time),565079.2999999523,A,d,I,d,174,1,182.69999992847443,564896.6000000238,9034,WL,C,7.0
5,11.781999826431274,learn,60000.0,Wed Oct 22 2025 16:52:19 GMT-0400 (Eastern Daylight Time),565229.7999999523,A,do,I,o,134,1,333.1999999284744,564896.6000000238,9034,WL,C,7.0
5,11.865999937057495,learn,60000.0,Wed Oct 22 2025 16:52:19 GMT-0400 (Eastern Daylight Time),565312.8999999762,A,doc,I,c,56,1,416.2999999523163,564896.6000000238,9034,WL,C,7.0
5,12.08299994468689,learn,60000.0,Wed Oct 22 2025 16:52:19 GMT-0400 (Eastern Daylight Time),565529.7999999523,A,doct,I,t,206,1,633.1999999284744,564896.6000000238,9034,WL,C,7.0
5,12.16599988937378,learn,60000.0,Wed Oct 22 2025 16:52:19 GMT-0400 (Eastern Daylight Time),565613.3999999762,A,docto,I,o,67,1,716.7999999523163,564896.6000000238,9034,WL,C,7.0
5,12.348999977111816,learn,60000.0,Wed Oct 22 2025 16:52:19 GMT-0400 (Eastern Daylight Time),565796.7999999523,A,doctor,I,r,158,1,900.1999999284744,564896.6000000238,9034,WL,C,7.0
5,13.115999937057495,learn,60000.0,Wed Oct 22 2025 16:52:19 GMT-0400 (Eastern Daylight Time),566563.0,A,doctorenter,I,enter,732,1,1666.3999999761581,564896.6000000238,9034,WL,C,7.0
5,13.815999984741211,learn,60000.0,Wed Oct 22 2025 16:52:19 GMT-0400 (Eastern Daylight Time),567263.1999999285,A,c,I,c,684,1,699.8999999761581,566563.2999999523,9034,WL,C,8.0
5,13.982999801635742,learn,60000.0,Wed Oct 22 2025 16:52:19 GMT-0400 (Eastern Daylight Time),567430.1999999285,A,ca,I,a,139,1,866.8999999761581,566563.2999999523,9034,WL,C,8.0
5,14.08299994468689,learn,60000.0,Wed Oct 22 2025 16:52:19 GMT-0400 (Eastern Daylight Time),567529.6999999285,A,cam,I,m,81,1,966.3999999761581,566563.2999999523,9034,WL,C,8.0
5,14.248999834060669,learn,60000.0,Wed Oct 22 2025 16:52:19 GMT-0400 (Eastern Daylight Time),567696.5,A,camp,I,p,145,1,1133.2000000476837,566563.2999999523,9034,WL,C,8.0
5,14.582000017166138,learn,60000.0,Wed Oct 22 2025 16:52:19 GMT-0400 (Eastern Daylight Time),568029.6999999285,A,campenter,I,enter,307,1,1466.3999999761581,566563.2999999523,9034,WL,C,8.0
5,14.865999937057495,learn,60000.0,Wed Oct 22 2025 16:52:19 GMT-0400 (Eastern Daylight Time),568313.2999999523,A,f,I,f,273,1,283.2999999523163,568030.0,9034,WL,C,9.0
5,14.982999801635742,learn,60000.0,Wed Oct 22 2025 16:52:19 GMT-0400 (Eastern Daylight Time),568429.8999999762,A,fl,I,l,99,1,399.89999997615814,568030.0,9034,WL,C,9.0
5,15.149999856948853,learn,60000.0,Wed Oct 22 2025 16:52:19 GMT-0400 (Eastern Daylight Time),568596.7999999523,A,fla,I,a,136,1,566.7999999523163,568030.0,9034,WL,C,9.0
5,15.35099983215332,learn,60000.0,Wed Oct 22 2025 16:52:19 GMT-0400 (Eastern Daylight Time),568797.7999999523,A,flag,I,g,182,1,767.7999999523163,568030.0,9034,WL,C,9.0
5,15.866999864578247,learn,60000.0,Wed Oct 22 2025 16:52:19 GMT-0400 (Eastern Daylight Time),569314.1999999285,A,flagenter,I,enter,498,1,1284.1999999284744,568030.0,9034,WL,C,9.0
5,23.31599998474121,learn,60000.0,Wed Oct 22 2025 16:52:19 GMT-0400 (Eastern Daylight Time),576763.2999999523,A,l,I,l,7438,1,7448.799999952316,569314.5,9034,WL,C,10.0
5,23.432999849319458,learn,60000.0,Wed Oct 22 2025 16:52:19 GMT-0400 (Eastern Daylight Time),576880.1000000238,A,le,I,e,88,1,7565.600000023842,569314.5,9034,WL,C,10.0
5,23.598999977111816,learn,60000.0,Wed Oct 22 2025 16:52:19 GMT-0400 (Eastern Daylight Time),577046.1999999285,A,let,I,t,155,1,7731.699999928474,569314.5,9034,WL,C,10.0
5,23.715999841690063,learn,60000.0,Wed Oct 22 2025 16:52:19 GMT-0400 (Eastern Daylight Time),577163.1999999285,A,lett,I,t,104,1,7848.699999928474,569314.5,9034,WL,C,10.0
5,24.198999881744385,learn,60000.0,Wed Oct 22 2025 16:52:19 GMT-0400 (Eastern Daylight Time),577646.6999999285,A,lette,I,e,456,1,8332.199999928474,569314.5,9034,WL,C,10.0
5,24.31599998474121,learn,60000.0,Wed Oct 22 2025 16:52:19 GMT-0400 (Eastern Daylight Time),577763.1999999285,A,letter,I,r,84,1,8448.699999928474,569314.5,9034,WL,C,10.0
5,24.598999977111816,learn,60000.0,Wed Oct 22 2025 16:52:19 GMT-0400 (Eastern Daylight Time),578046.2999999523,A,letterenter,I,enter,265,1,8731.799999952316,569314.5,9034,WL,C,10.0
5,25.232999801635742,learn,60000.0,Wed Oct 22 2025 16:52:19 GMT-0400 (Eastern Daylight Time),578679.6999999285,A,s,I,s,624,1,633.0,578046.6999999285,9034,WL,C,11.0
5,25.3989999294281,learn,60000.0,Wed Oct 22 2025 16:52:19 GMT-0400 (Eastern Daylight Time),578846.2999999523,A,sh,I,h,147,1,799.6000000238419,578046.6999999285,9034,WL,C,11.0
5,25.532999992370605,learn,60000.0,Wed Oct 22 2025 16:52:19 GMT-0400 (Eastern Daylight Time),578980.1000000238,A,sho,I,o,112,1,933.4000000953674,578046.6999999285,9034,WL,C,11.0
5,26.1489999294281,learn,60000.0,Wed Oct 22 2025 16:52:19 GMT-0400 (Eastern Daylight Time),579596.1999999285,A,shor,I,r,598,1,1549.5,578046.6999999285,9034,WL,C,11.0
5,26.265999794006348,learn,60000.0,Wed Oct 22 2025 16:52:19 GMT-0400 (Eastern Daylight Time),579713.2999999523,A,shore,I,e,98,1,1666.6000000238419,578046.6999999285,9034,WL,C,11.0
5,27.282999992370605,learn,60000.0,Wed Oct 22 2025 16:52:19 GMT-0400 (Eastern Daylight Time),580729.8999999762,A,shor,I,backspace,995,1,2683.2000000476837,578046.6999999285,9034,WL,C,11.0
5,27.448999881744385,learn,60000.0,Wed Oct 22 2025 16:52:19 GMT-0400 (Eastern Daylight Time),580896.6999999285,A,sho,I,backspace,143,1,2850.0,578046.6999999285,9034,WL,C,11.0
5,27.615999937057495,learn,60000.0,Wed Oct 22 2025 16:52:19 GMT-0400 (Eastern Daylight Time),581063.5,A,sh,I,backspace,148,1,3016.8000000715256,578046.6999999285,9034,WL,C,11.0
5,27.765999794006348,learn,60000.0,Wed Oct 22 2025 16:52:19 GMT-0400 (Eastern Daylight Time),581213.2999999523,A,s,I,backspace,122,1,3166.600000023842,578046.6999999285,9034,WL,C,11.0
5,27.965999841690063,learn,60000.0,Wed Oct 22 2025 16:52:19 GMT-0400 (Eastern Daylight Time),581413.3999999762,A,,I,backspace,167,1,3366.7000000476837,578046.6999999285,9034,WL,C,11.0
5,28.098999977111816,learn,60000.0,Wed Oct 22 2025 16:52:19 GMT-0400 (Eastern Daylight Time),581546.6999999285,A,,I,backspace,119,1,3500.0,578046.6999999285,9034,WL,C,11.0
5,28.765999794006348,learn,60000.0,Wed Oct 22 2025 16:52:19 GMT-0400 (Eastern Daylight Time),582212.7999999523,A,c,I,c,642,1,4166.100000023842,578046.6999999285,9034,WL,C,11.0
5,28.848999977111816,learn,60000.0,Wed Oct 22 2025 16:52:19 GMT-0400 (Eastern Daylight Time),582296.6000000238,A,co,I,o,75,1,4249.900000095367,578046.6999999285,9034,WL,C,11.0
5,29.032999992370605,learn,60000.0,Wed Oct 22 2025 16:52:19 GMT-0400 (Eastern Daylight Time),582479.8999999762,A,cor,I,r,163,1,4433.200000047684,578046.6999999285,9034,WL,C,11.0
5,29.1489999294281,learn,60000.0,Wed Oct 22 2025 16:52:19 GMT-0400 (Eastern Daylight Time),582596.6999999285,A,corn,I,n,84,1,4550.0,578046.6999999285,9034,WL,C,11.0
5,29.531999826431274,learn,60000.0,Wed Oct 22 2025 16:52:19 GMT-0400 (Eastern Daylight Time),582979.6999999285,A,cornenter,I,enter,359,1,4933.0,578046.6999999285,9034,WL,C,11.0
5,29.932999849319458,learn,60000.0,Wed Oct 22 2025 16:52:19 GMT-0400 (Eastern Daylight Time),583379.8999999762,A,n,I,n,379,1,400.0,582979.8999999762,9034,WL,C,12.0
5,30.032999992370605,learn,60000.0,Wed Oct 22 2025 16:52:19 GMT-0400 (Eastern Daylight Time),583479.8999999762,A,na,I,a,89,1,500.0,582979.8999999762,9034,WL,C,12.0
5,30.16699981689453,learn,60000.0,Wed Oct 22 2025 16:52:19 GMT-0400 (Eastern Daylight Time),583614.3999999762,A,nai,I,i,111,1,634.5,582979.8999999762,9034,WL,C,12.0
5,30.282999992370605,learn,60000.0,Wed Oct 22 2025 16:52:19 GMT-0400 (Eastern Daylight Time),583730.0,A,nail,I,l,97,1,750.1000000238419,582979.8999999762,9034,WL,C,12.0
5,30.948999881744385,learn,60000.0,Wed Oct 22 2025 16:52:19 GMT-0400 (Eastern Daylight Time),584396.3999999762,A,nailenter,I,enter,641,1,1416.5,582979.8999999762,9034,WL,C,12.0
5,33.21599984169006,learn,60000.0,Wed Oct 22 2025 16:52:19 GMT-0400 (Eastern Daylight Time),586662.6999999285,A,s,I,s,2258,1,2266.0,584396.6999999285,9034,WL,C,13.0
5,33.598999977111816,learn,60000.0,Wed Oct 22 2025 16:52:19 GMT-0400 (Eastern Daylight Time),587046.5,A,sh,I,h,377,1,2649.8000000715256,584396.6999999285,9034,WL,C,13.0
5,33.74899983406067,learn,60000.0,Wed Oct 22 2025 16:52:19 GMT-0400 (Eastern Daylight Time),587196.6000000238,A,sho,I,o,132,1,2799.9000000953674,584396.6999999285,9034,WL,C,13.0
5,33.96599984169006,learn,60000.0,Wed Oct 22 2025 16:52:19 GMT-0400 (Eastern Daylight Time),587412.6999999285,A,shor,I,r,183,1,3016.0,584396.6999999285,9034,WL,C,13.0
5,34.09999990463257,learn,60000.0,Wed Oct 22 2025 16:52:19 GMT-0400 (Eastern Daylight Time),587547.5,A,shore,I,e,122,1,3150.8000000715256,584396.6999999285,9034,WL,C,13.0
5,34.3989999294281,learn,60000.0,Wed Oct 22 2025 16:52:19 GMT-0400 (Eastern Daylight Time),587846.1999999285,A,shoreenter,I,enter,292,1,3449.5,584396.6999999285,9034,WL,C,13.0
5,35.06599998474121,learn,60000.0,Wed Oct 22 2025 16:52:19 GMT-0400 (Eastern Daylight Time),588513.0,A,b,I,b,649,1,666.5,587846.5,9034,WL,C,14.0
5,35.198999881744385,learn,60000.0,Wed Oct 22 2025 16:52:19 GMT-0400 (Eastern Daylight Time),588646.2999999523,A,bo,I,o,126,1,799.7999999523163,587846.5,9034,WL,C,14.0
5,35.348999977111816,learn,60000.0,Wed Oct 22 2025 16:52:19 GMT-0400 (Eastern Daylight Time),588796.6000000238,A,bod,I,d,127,1,950.1000000238419,587846.5,9034,WL,C,14.0
5,35.531999826431274,learn,60000.0,Wed Oct 22 2025 16:52:19 GMT-0400 (Eastern Daylight Time),588979.6999999285,A,body,I,y,159,1,1133.1999999284744,587846.5,9034,WL,C,14.0
5,36.13199996948242,learn,60000.0,Wed Oct 22 2025 16:52:19 GMT-0400 (Eastern Daylight Time),589579.6999999285,A,bodyenter,I,enter,585,1,1733.1999999284744,587846.5,9034,WL,C,14.0
5,41.64999985694885,learn,60000.0,Wed Oct 22 2025 16:52:19 GMT-0400 (Eastern Daylight Time),595096.8999999762,A,c,I,c,5507,1,5516.899999976158,589580.0,9034,WL,C,15.0
5,41.83299994468689,learn,60000.0,Wed Oct 22 2025 16:52:19 GMT-0400 (Eastern Daylight Time),595280.1999999285,A,ca,I,a,162,1,5700.199999928474,589580.0,9034,WL,C,15.0
5,41.96599984169006,learn,60000.0,Wed Oct 22 2025 16:52:19 GMT-0400 (Eastern Daylight Time),595413.5,A,cat,I,t,99,1,5833.5,589580.0,9034,WL,C,15.0
5,42.098999977111816,learn,60000.0,Wed Oct 22 2025 16:52:19 GMT-0400 (Eastern Daylight Time),595546.6000000238,A,catt,I,t,110,1,5966.600000023842,589580.0,9034,WL,C,15.0
5,42.282999992370605,learn,60000.0,Wed Oct 22 2025 16:52:19 GMT-0400 (Eastern Daylight Time),595729.7999999523,A,cattl,I,l,162,1,6149.799999952316,589580.0,9034,WL,C,15.0
5,42.365999937057495,learn,60000.0,Wed Oct 22 2025 16:52:19 GMT-0400 (Eastern Daylight Time),595813.1000000238,A,cattle,I,e,73,1,6233.100000023842,589580.0,9034,WL,C,15.0
5,42.56599998474121,learn,60000.0,Wed Oct 22 2025 16:52:19 GMT-0400 (Eastern Daylight Time),596012.8999999762,A,cattleenter,I,enter,184,1,6432.899999976158,589580.0,9034,WL,C,15.0
6,0.3840000629425049,distr,59615.999937057495,Wed Oct 22 2025 16:52:19 GMT-0400 (Eastern Daylight Time),662280.1000000238,B,d,I,d,370,1,383.0,661897.1000000238,9034,WL,C,1.0
6,0.5669999122619629,distr,59433.00008773804,Wed Oct 22 2025 16:52:19 GMT-0400 (Eastern Daylight Time),662462.8999999762,B,di,I,i,160,1,565.7999999523163,661897.1000000238,9034,WL,C,1.0
6,0.6840000152587891,distr,59315.99998474121,Wed Oct 22 2025 16:52:19 GMT-0400 (Eastern Daylight Time),662579.7999999523,B,dia,I,a,96,1,682.6999999284744,661897.1000000238,9034,WL,C,1.0
6,0.7999999523162842,distr,59200.000047683716,Wed Oct 22 2025 16:52:19 GMT-0400 (Eastern Daylight Time),662696.6000000238,B,diam,I,m,103,1,799.5,661897.1000000238,9034,WL,C,1.0
6,1.0329999923706055,distr,58967.000007629395,Wed Oct 22 2025 16:52:19 GMT-0400 (Eastern Daylight Time),662929.5,B,diamo,I,o,202,1,1032.3999999761581,661897.1000000238,9034,WL,C,1.0
6,1.1340000629425049,distr,58865.999937057495,Wed Oct 22 2025 16:52:19 GMT-0400 (Eastern Daylight Time),663030.0,B,diamon,I,n,77,1,1132.8999999761581,661897.1000000238,9034,WL,C,1.0
6,1.2839999198913574,distr,58716.00008010864,Wed Oct 22 2025 16:52:19 GMT-0400 (Eastern Daylight Time),663179.7999999523,B,diamone,I,e,134,1,1282.6999999284744,661897.1000000238,9034,WL,C,1.0
6,1.5,distr,58500.0,Wed Oct 22 2025 16:52:19 GMT-0400 (Eastern Daylight Time),663396.1999999285,B,diamoneenter,I,enter,183,1,1499.0999999046326,661897.1000000238,9034,WL,C,1.0
6,2.5,distr,57500.0,Wed Oct 22 2025 16:52:19 GMT-0400 (Eastern Daylight Time),664396.6000000238,B,w,I,w,987,1,1000.1000000238419,663396.5,9034,WL,C,2.0
6,2.5999999046325684,distr,57400.00009536743,Wed Oct 22 2025 16:52:19 GMT-0400 (Eastern Daylight Time),664496.1999999285,B,wi,I,i,79,1,1099.6999999284744,663396.5,9034,WL,C,2.0
6,2.7339999675750732,distr,57266.00003242493,Wed Oct 22 2025 16:52:19 GMT-0400 (Eastern Daylight Time),664629.7999999523,B,win,I,n,103,1,1233.2999999523163,663396.5,9034,WL,C,2.0
6,3.066999912261963,distr,56933.00008773804,Wed Oct 22 2025 16:52:19 GMT-0400 (Eastern Daylight Time),664963.2999999523,B,wint,I,t,301,1,1566.7999999523163,663396.5,9034,WL,C,2.0
6,3.1670000553131104,distr,56832.99994468689,Wed Oct 22 2025 16:52:19 GMT-0400 (Eastern Daylight Time),665062.8999999762,B,winte,I,e,87,1,1666.3999999761581,663396.5,9034,WL,C,2.0
6,3.299999952316284,distr,56700.000047683716,Wed Oct 22 2025 16:52:19 GMT-0400 (Eastern Daylight Time),665196.5,B,winter,I,r,119,1,1800.0,663396.5,9034,WL,C,2.0
6,3.883000135421753,distr,56116.99986457825,Wed Oct 22 2025 16:52:19 GMT-0400 (Eastern Daylight Time),665779.5,B,winterenter,I,enter,550,1,2383.0,663396.5,9034,WL,C,2.0
6,5.367000102996826,distr,54632.999897003174,Wed Oct 22 2025 16:52:19 GMT-0400 (Eastern Daylight Time),667263.1000000238,B,m,I,m,1467,1,1483.2000000476837,665779.8999999762,9034,WL,C,3.0
6,5.4670000076293945,distr,54532.999992370605,Wed Oct 22 2025 16:52:19 GMT-0400 (Eastern Daylight Time),667363.1999999285,B,mo,I,o,69,1,1583.2999999523163,665779.8999999762,9034,WL,C,3.0
6,5.584000110626221,distr,54415.99988937378,Wed Oct 22 2025 16:52:19 GMT-0400 (Eastern Daylight Time),667480.0,B,mot,I,t,104,1,1700.1000000238419,665779.8999999762,9034,WL,C,3.0
6,5.66700005531311,distr,54332.99994468689,Wed Oct 22 2025 16:52:19 GMT-0400 (Eastern Daylight Time),667562.7999999523,B,moth,I,h,57,1,1782.8999999761581,665779.8999999762,9034,WL,C,3.0
6,5.799999952316284,distr,54200.000047683716,Wed Oct 22 2025 16:52:19 GMT-0400 (Eastern Daylight Time),667696.6000000238,B,mothe,I,e,116,1,1916.7000000476837,665779.8999999762,9034,WL,C,3.0
6,5.900000095367432,distr,54099.99990463257,Wed Oct 22 2025 16:52:19 GMT-0400 (Eastern Daylight Time),667796.6000000238,B,mother,I,r,74,1,2016.7000000476837,665779.8999999762,9034,WL,C,3.0
6,6.617000102996826,distr,53382.999897003174,Wed Oct 22 2025 16:52:19 GMT-0400 (Eastern Daylight Time),668512.8999999762,B,motherenter,I,enter,685,1,2733.0,665779.8999999762,9034,WL,C,3.0
6,7.41700005531311,distr,52582.99994468689,Wed Oct 22 2025 16:52:19 GMT-0400 (Eastern Daylight Time),669313.3999999762,B,c,I,c,782,1,800.2000000476837,668513.1999999285,9034,WL,C,4.0
6,7.566999912261963,distr,52433.00008773804,Wed Oct 22 2025 16:52:19 GMT-0400 (Eastern Daylight Time),669463.1000000238,B,ch,I,h,139,1,949.9000000953674,668513.1999999285,9034,WL,C,4.0
6,7.684000015258789,distr,52315.99998474121,Wed Oct 22 2025 16:52:19 GMT-0400 (Eastern Daylight Time),669580.0,B,chr,I,r,94,1,1066.8000000715256,668513.1999999285,9034,WL,C,4.0
6,7.816999912261963,distr,52183.00008773804,Wed Oct 22 2025 16:52:19 GMT-0400 (Eastern Daylight Time),669713.1999999285,B,chri,I,i,103,1,1200.0,668513.1999999285,9034,WL,C,4.0
6,7.849999904632568,distr,52150.00009536743,Wed Oct 22 2025 16:52:19 GMT-0400 (Eastern Daylight Time),669746.1999999285,B,chris,I,s,2,1,1233.0,668513.1999999285,9034,WL,C,4.0
6,7.983999967575073,distr,52016.00003242493,Wed Oct 22 2025 16:52:19 GMT-0400 (Eastern Daylight Time),669879.7999999523,B,christ,I,t,123,1,1366.6000000238419,668513.1999999285,9034,WL,C,4.0
6,8.200000047683716,distr,51799.999952316284,Wed Oct 22 2025 16:52:19 GMT-0400 (Eastern Daylight Time),670096.6999999285,B,christm,I,m,188,1,1583.5,668513.1999999285,9034,WL,C,4.0
6,8.299999952316284,distr,51700.000047683716,Wed Oct 22 2025 16:52:19 GMT-0400 (Eastern Daylight Time),670196.6000000238,B,christma,I,a,75,1,1683.4000000953674,668513.1999999285,9034,WL,C,4.0
6,8.450000047683716,distr,51549.999952316284,Wed Oct 22 2025 16:52:19 GMT-0400 (Eastern Daylight Time),670346.6000000238,B,christmas,I,s,133,1,1833.4000000953674,668513.1999999285,9034,WL,C,4.0
6,9.233000040054321,distr,50766.99995994568,Wed Oct 22 2025 16:52:19 GMT-0400 (Eastern Daylight Time),671129.5,B,christmasenter,I,enter,767,1,2616.3000000715256,668513.1999999285,9034,WL,C,4.0
6,9.58400011062622,distr,50415.99988937378,Wed Oct 22 2025 16:52:19 GMT-0400 (Eastern Daylight Time),671479.8999999762,B,f,I,f,341,1,350.10000002384186,671129.7999999523,9034,WL,C,5.0
6,9.684000015258789,distr,50315.99998474121,Wed Oct 22 2025 16:52:19 GMT-0400 (Eastern Daylight Time),671579.7999999523,B,fo,I,o,84,1,450.0,671129.7999999523,9034,WL,C,5.0
6,9.782999992370605,distr,50217.000007629395,Wed Oct 22 2025 16:52:19 GMT-0400 (Eastern Daylight Time),671679.6000000238,B,for,I,r,71,1,549.8000000715256,671129.7999999523,9034,WL,C,5.0
6,9.900000095367432,distr,50099.99990463257,Wed Oct 22 2025 16:52:19 GMT-0400 (Eastern Daylight Time),671796.6999999285,B,fore,I,e,94,1,666.8999999761581,671129.7999999523,9034,WL,C,5.0
6,10.049999952316284,distr,49950.000047683716,Wed Oct 22 2025 16:52:19 GMT-0400 (Eastern Daylight Time),671946.6000000238,B,fores,I,s,126,1,816.8000000715256,671129.7999999523,9034,WL,C,5.0
6,10.200000047683716,distr,49799.999952316284,Wed Oct 22 2025 16:52:19 GMT-0400 (Eastern Daylight Time),672096.6999999285,B,forest,I,t,129,1,966.8999999761581,671129.7999999523,9034,WL,C,5.0
6,10.883000135421753,distr,49116.99986457825,Wed Oct 22 2025 16:52:19 GMT-0400 (Eastern Daylight Time),672779.5,B,forestenter,I,enter,666,1,1649.7000000476837,671129.7999999523,9034,WL,C,5.0
6,12.217000007629395,distr,47782.999992370605,Wed Oct 22 2025 16:52:19 GMT-0400 (Eastern Daylight Time),674113.1000000238,B,s,I,s,1315,1,1333.2000000476837,672779.8999999762,9034,WL,C,6.0
6,12.733999967575073,distr,47266.00003242493,Wed Oct 22 2025 16:52:19 GMT-0400 (Eastern Daylight Time),674629.7999999523,B,sk,I,k,488,1,1849.8999999761581,672779.8999999762,9034,WL,C,6.0
6,12.950000047683716,distr,47049.999952316284,Wed Oct 22 2025 16:52:19 GMT-0400 (Eastern Daylight Time),674846.7999999523,B,sky,I,y,197,1,2066.899999976158,672779.8999999762,9034,WL,C,6.0
6,13.299999952316284,distr,46700.000047683716,Wed Oct 22 2025 16:52:19 GMT-0400 (Eastern Daylight Time),675196.1999999285,B,skyenter,I,enter,325,1,2416.2999999523163,672779.8999999762,9034,WL,C,6.0
6,14.299999952316284,distr,45700.000047683716,Wed Oct 22 2025 16:52:19 GMT-0400 (Eastern Daylight Time),676196.5,B,h,I,h,977,1,1000.0,675196.5,9034,WL,C,7.0
6,14.367000102996826,distr,45632.999897003174,Wed Oct 22 2025 16:52:19 GMT-0400 (Eastern Daylight Time),676263.1999999285,B,ho,I,o,53,1,1066.6999999284744,675196.5,9034,WL,C,7.0
6,14.516999959945679,distr,45483.00004005432,Wed Oct 22 2025 16:52:19 GMT-0400 (Eastern Daylight Time),676413.2999999523,B,hot,I,t,134,1,1216.7999999523163,675196.5,9034,WL,C,7.0
6,14.634000062942505,distr,45365.999937057495,Wed Oct 22 2025 16:52:19 GMT-0400 (Eastern Daylight Time),676529.8999999762,B,hote,I,e,86,1,1333.3999999761581,675196.5,9034,WL,C,7.0
6,15.016999959945679,distr,44983.00004005432,Wed Oct 22 2025 16:52:19 GMT-0400 (Eastern Daylight Time),676913.5,B,hotel,I,l,353,1,1717.0,675196.5,9034,WL,C,7.0
6,15.282999992370605,distr,44717.000007629395,Wed Oct 22 2025 16:52:19 GMT-0400 (Eastern Daylight Time),677179.6000000238,B,hotelenter,I,enter,244,1,1983.1000000238419,675196.5,9034,WL,C,7.0
6,17.76699995994568,distr,42233.00004005432,Wed Oct 22 2025 16:52:19 GMT-0400 (Eastern Daylight Time),679662.8999999762,B,v,I,v,2467,1,2483.0,677179.8999999762,9034,WL,C,8.0
6,17.90000009536743,distr,42099.99990463257,Wed Oct 22 2025 16:52:19 GMT-0400 (Eastern Daylight Time),679796.6000000238,B,va,I,a,109,1,2616.7000000476837,677179.8999999762,9034,WL,C,8.0
6,18.049999952316284,distr,41950.000047683716,Wed Oct 22 2025 16:52:19 GMT-0400 (Eastern Daylight Time),679946.6999999285,B,val,I,l,136,1,2766.7999999523163,677179.8999999762,9034,WL,C,8.0
6,18.217000007629395,distr,41782.999992370605,Wed Oct 22 2025 16:52:19 GMT-0400 (Eastern Daylight Time),680113.3999999762,B,vall,I,l,136,1,2933.5,677179.8999999762,9034,WL,C,8.0
6,18.33400011062622,distr,41665.99988937378,Wed Oct 22 2025 16:52:19 GMT-0400 (Eastern Daylight Time),680229.8999999762,B,valle,I,e,90,1,3050.0,677179.8999999762,9034,WL,C,8.0
6,18.450000047683716,distr,41549.999952316284,Wed Oct 22 2025 16:52:19 GMT-0400 (Eastern Daylight Time),680346.6999999285,B,valley,I,y,93,1,3166.7999999523163,677179.8999999762,9034,WL,C,8.0
6,18.73300004005432,distr,41266.99995994568,Wed Oct 22 2025 16:52:19 GMT-0400 (Eastern Daylight Time),680629.5,B,valleyenter,I,enter,248,1,3449.600000023842,677179.8999999762,9034,WL,C,8.0
6,23.384000062942505,distr,36615.999937057495,Wed Oct 22 2025 16:52:19 GMT-0400 (Eastern Daylight Time),685279.7999999523,B,d,I,d,4634,1,4650.0,680629.7999999523,9034,WL,C,9.0
6,23.58400011062622,distr,36415.99988937378,Wed Oct 22 2025 16:52:19 GMT-0400 (Eastern Daylight Time),685479.8999999762,B,di,I,i,187,1,4850.100000023842,680629.7999999523,9034,WL,C,9.0
6,23.66700005531311,distr,36332.99994468689,Wed Oct 22 2025 16:52:19 GMT-0400 (Eastern Daylight Time),685563.2999999523,B,dia,I,a,68,1,4933.5,680629.7999999523,9034,WL,C,9.0
6,23.83400011062622,distr,36165.99988937378,Wed Oct 22 2025 16:52:19 GMT-0400 (Eastern Daylight Time),685730.0,B,diam,I,m,134,1,5100.200000047684,680629.7999999523,9034,WL,C,9.0
6,23.967000007629395,distr,36032.999992370605,Wed Oct 22 2025 16:52:19 GMT-0400 (Eastern Daylight Time),685863.1000000238,B,diamo,I,o,112,1,5233.300000071526,680629.7999999523,9034,WL,C,9.0
6,24.09999990463257,distr,35900.00009536743,Wed Oct 22 2025 16:52:19 GMT-0400 (Eastern Daylight Time),685996.6000000238,B,diamon,I,n,117,1,5366.800000071526,680629.7999999523,9034,WL,C,9.0
6,24.633000135421753,distr,35366.99986457825,Wed Oct 22 2025 16:52:19 GMT-0400 (Eastern Daylight Time),686529.5,B,diamone,I,e,510,1,5899.700000047684,680629.7999999523,9034,WL,C,9.0
6,25.033999919891357,distr,34966.00008010864,Wed Oct 22 2025 16:52:19 GMT-0400 (Eastern Daylight Time),686929.8999999762,B,diamon,I,backspace,382,1,6300.100000023842,680629.7999999523,9034,WL,C,9.0
6,25.134000062942505,distr,34865.999937057495,Wed Oct 22 2025 16:52:19 GMT-0400 (Eastern Daylight Time),687030.1000000238,B,diamond,I,d,88,1,6400.300000071526,680629.7999999523,9034,WL,C,9.0
6,25.450000047683716,distr,34549.999952316284,Wed Oct 22 2025 16:52:19 GMT-0400 (Eastern Daylight Time),687346.1999999285,B,diamondenter,I,enter,294,1,6716.399999976158,680629.7999999523,9034,WL,C,9.0
6,25.90000009536743,distr,34099.99990463257,Wed Oct 22 2025 16:52:19 GMT-0400 (Eastern Daylight Time),687796.1000000238,B,w,I,w,428,1,449.60000002384186,687346.5,9034,WL,C,10.0
6,26.066999912261963,distr,33933.00008773804,Wed Oct 22 2025 16:52:19 GMT-0400 (Eastern Daylight Time),687963.1999999285,B,wi,I,i,154,1,616.6999999284744,687346.5,9034,WL,C,10.0
6,26.25,distr,33750.0,Wed Oct 22 2025 16:52:19 GMT-0400 (Eastern Daylight Time),688146.1999999285,B,win,I,n,153,1,799.6999999284744,687346.5,9034,WL,C,10.0
6,26.43400001525879,distr,33565.99998474121,Wed Oct 22 2025 16:52:19 GMT-0400 (Eastern Daylight Time),688329.8999999762,B,wint,I,t,170,1,983.3999999761581,687346.5,9034,WL,C,10.0
6,26.617000102996826,distr,33382.999897003174,Wed Oct 22 2025 16:52:19 GMT-0400 (Eastern Daylight Time),688513.1999999285,B,winte,I,e,162,1,1166.6999999284744,687346.5,9034,WL,C,10.0
6,26.733999967575073,distr,33266.00003242493,Wed Oct 22 2025 16:52:19 GMT-0400 (Eastern Daylight Time),688629.8999999762,B,winter,I,r,99,1,1283.3999999761581,687346.5,9034,WL,C,10.0
6,27.133000135421753,distr,32866.99986457825,Wed Oct 22 2025 16:52:19 GMT-0400 (Eastern Daylight Time),689029.3999999762,B,winterenter,I,enter,381,1,1682.8999999761581,687346.5,9034,WL,C,10.0
6,27.467000007629395,distr,32532.999992370605,Wed Oct 22 2025 16:52:19 GMT-0400 (Eastern Daylight Time),689363.2999999523,B,m,I,m,313,1,333.6999999284744,689029.6000000238,9034,WL,C,11.0
6,27.566999912261963,distr,32433.000087738037,Wed Oct 22 2025 16:52:19 GMT-0400 (Eastern Daylight Time),689463.1000000238,B,mo,I,o,89,1,433.5,689029.6000000238,9034,WL,C,11.0
6,27.75,distr,32250.0,Wed Oct 22 2025 16:52:19 GMT-0400 (Eastern Daylight Time),689646.5,B,mot,I,t,157,1,616.8999999761581,689029.6000000238,9034,WL,C,11.0
6,27.967000007629395,distr,32032.999992370605,Wed Oct 22 2025 16:52:19 GMT-0400 (Eastern Daylight Time),689863.1000000238,B,mote,I,e,203,1,833.5,689029.6000000238,9034,WL,C,11.0
6,28.59999990463257,distr,31400.00009536743,Wed Oct 22 2025 16:52:19 GMT-0400 (Eastern Daylight Time),690496.6000000238,B,mot,I,backspace,612,1,1467.0,689029.6000000238,9034,WL,C,11.0
6,28.799999952316284,distr,31200.000047683716,Wed Oct 22 2025 16:52:19 GMT-0400 (Eastern Daylight Time),690696.6000000238,B,moth,I,h,178,1,1667.0,689029.6000000238,9034,WL,C,11.0
6,28.90000009536743,distr,31099.99990463257,Wed Oct 22 2025 16:52:19 GMT-0400 (Eastern Daylight Time),690796.5,B,mothe,I,e,74,1,1766.8999999761581,689029.6000000238,9034,WL,C,11.0
6,29.066999912261963,distr,30933.000087738037,Wed Oct 22 2025 16:52:19 GMT-0400 (Eastern Daylight Time),690963.1999999285,B,mother,I,r,135,1,1933.5999999046326,689029.6000000238,9034,WL,C,11.0
6,29.65000009536743,distr,30349.99990463257,Wed Oct 22 2025 16:52:19 GMT-0400 (Eastern Daylight Time),691546.0,B,motherenter,I,enter,562,1,2516.399999976158,689029.6000000238,9034,WL,C,11.0
6,30.25,distr,29750.0,Wed Oct 22 2025 16:52:19 GMT-0400 (Eastern Daylight Time),692146.6999999285,B,s,I,s,580,1,600.3999999761581,691546.2999999523,9034,WL,C,12.0
6,30.41700005531311,distr,29582.99994468689,Wed Oct 22 2025 16:52:19 GMT-0400 (Eastern Daylight Time),692312.7999999523,B,sk,I,k,148,1,766.5,691546.2999999523,9034,WL,C,12.0
6,30.634000062942505,distr,29365.999937057495,Wed Oct 22 2025 16:52:19 GMT-0400 (Eastern Daylight Time),692529.6999999285,B,sky,I,y,198,1,983.3999999761581,691546.2999999523,9034,WL,C,12.0
6,31.183000087738037,distr,28816.999912261963,Wed Oct 22 2025 16:52:19 GMT-0400 (Eastern Daylight Time),693079.5,B,skyenter,I,enter,538,1,1533.2000000476837,691546.2999999523,9034,WL,C,12.0
6,34.049999952316284,distr,25950.000047683716,Wed Oct 22 2025 16:52:19 GMT-0400 (Eastern Daylight Time),695946.6000000238,B,f,I,f,2856,1,2866.8000000715256,693079.7999999523,9034,WL,C,13.0
6,34.18400001525879,distr,25815.99998474121,Wed Oct 22 2025 16:52:19 GMT-0400 (Eastern Daylight Time),696080.1000000238,B,fo,I,o,109,1,3000.3000000715256,693079.7999999523,9034,WL,C,13.0
6,34.28399991989136,distr,25716.000080108643,Wed Oct 22 2025 16:52:19 GMT-0400 (Eastern Daylight Time),696179.7999999523,B,for,I,r,76,1,3100.0,693079.7999999523,9034,WL,C,13.0
6,34.43400001525879,distr,25565.99998474121,Wed Oct 22 2025 16:52:19 GMT-0400 (Eastern Daylight Time),696330.0,B,fore,I,e,136,1,3250.2000000476837,693079.7999999523,9034,WL,C,13.0
6,34.617000102996826,distr,25382.999897003174,Wed Oct 22 2025 16:52:19 GMT-0400 (Eastern Daylight Time),696513.2999999523,B,fores,I,s,163,1,3433.5,693079.7999999523,9034,WL,C,13.0
6,34.73300004005432,distr,25266.99995994568,Wed Oct 22 2025 16:52:19 GMT-0400 (Eastern Daylight Time),696629.5,B,forest,I,t,81,1,3549.7000000476837,693079.7999999523,9034,WL,C,13.0
6,35.717000007629395,distr,24282.999992370605,Wed Oct 22 2025 16:52:19 GMT-0400 (Eastern Daylight Time),697612.7999999523,B,forestenter,I,enter,969,1,4533.0,693079.7999999523,9034,WL,C,13.0
6,37.01699995994568,distr,22983.00004005432,Wed Oct 22 2025 16:52:19 GMT-0400 (Eastern Daylight Time),698913.1999999285,B,c,I,c,1282,1,1300.0999999046326,697613.1000000238,9034,WL,C,14.0
6,37.15000009536743,distr,22849.99990463257,Wed Oct 22 2025 16:52:19 GMT-0400 (Eastern Daylight Time),699046.2999999523,B,ch,I,h,114,1,1433.1999999284744,697613.1000000238,9034,WL,C,14.0
6,37.28399991989136,distr,22716.000080108643,Wed Oct 22 2025 16:52:19 GMT-0400 (Eastern Daylight Time),699179.8999999762,B,chr,I,r,110,1,1566.7999999523163,697613.1000000238,9034,WL,C,14.0
6,37.43400001525879,distr,22565.99998474121,Wed Oct 22 2025 16:52:19 GMT-0400 (Eastern Daylight Time),699330.0,B,chri,I,i,119,1,1716.8999999761581,697613.1000000238,9034,WL,C,14.0
6,37.450000047683716,distr,22549.999952316284,Wed Oct 22 2025 16:52:19 GMT-0400 (Eastern Daylight Time),699346.1000000238,B,chris,I,s,1,1,1733.0,697613.1000000238,9034,WL,C,14.0
6,37.56699991226196,distr,22433.000087738037,Wed Oct 22 2025 16:52:19 GMT-0400 (Eastern Daylight Time),699463.2999999523,B,christ,I,t,108,1,1850.1999999284744,697613.1000000238,9034,WL,C,14.0
6,37.78399991989136,distr,22216.000080108643,Wed Oct 22 2025 16:52:19 GMT-0400 (Eastern Daylight Time),699680.1000000238,B,christm,I,m,183,1,2067.0,697613.1000000238,9034,WL,C,14.0
6,37.90000009536743,distr,22099.99990463257,Wed Oct 22 2025 16:52:19 GMT-0400 (Eastern Daylight Time),699796.6999999285,B,christma,I,a,90,1,2183.5999999046326,697613.1000000238,9034,WL,C,14.0
6,38.03399991989136,distr,21966.000080108643,Wed Oct 22 2025 16:52:19 GMT-0400 (Eastern Daylight Time),699930.0,B,christmas,I,s,117,1,2316.899999976158,697613.1000000238,9034,WL,C,14.0
