block_c,block_dur,condition,countdown,datetime,endtime,list,multichar_response,project,response,response_time,session_number,start_end,starttime,subject_id,task,task_vers,trial
,,,,Fri Feb 06 2026 13:47:54 GMT-0500 (Eastern Standard Time),,,,I,space,1104,2,,,9034,WL,B,
prac,,0,,Fri Feb 06 2026 13:47:54 GMT-0500 (Eastern Standard Time),,NA,b,I,b,5617,2,,,9034,WL,B,1.0
prac,,0,,Fri Feb 06 2026 13:47:54 GMT-0500 (Eastern Standard Time),,NA,bo,I,o,147,2,,,9034,WL,B,1.0
prac,,0,,Fri Feb 06 2026 13:47:54 GMT-0500 (Eastern Standard Time),,NA,boo,I,o,125,2,,,9034,WL,B,1.0
prac,,0,,Fri Feb 06 2026 13:47:54 GMT-0500 (Eastern Standard Time),,NA,boos,I,s,130,2,,,9034,WL,B,1.0
prac,,0,,Fri Feb 06 2026 13:47:54 GMT-0500 (Eastern Standard Time),,NA,boost,I,t,107,2,,,9034,WL,B,1.0
prac,,0,,Fri Feb 06 2026 13:47:54 GMT-0500 (Eastern Standard Time),,NA,boostenter,I,enter,210,2,,,9034,WL,B,1.0
1,2.4830000400543213,learn,57516.99995994568,Fri Feb 06 2026 13:47:54 GMT-0500 (Eastern Standard Time),123209.9000005722,A,s,I,s,2460,2,2482.5,120727.4000005722,9034,WL,B,1.0
1,2.7330000400543213,learn,57266.99995994568,Fri Feb 06 2026 13:47:54 GMT-0500 (Eastern Standard Time),123459.80000019073,A,st,I,t,233,2,2732.3999996185303,120727.4000005722,9034,WL,B,1.0
1,2.8499999046325684,learn,57150.00009536743,Fri Feb 06 2026 13:47:54 GMT-0500 (Eastern Standard Time),123576.20000076294,A,sta,I,a,94,2,2848.800000190735,120727.4000005722,9034,WL,B,1.0
1,2.999000072479248,learn,57000.99992752075,Fri Feb 06 2026 13:47:54 GMT-0500 (Eastern Standard Time),123726.0,A,star,I,r,135,2,2998.5999994277954,120727.4000005722,9034,WL,B,1.0
1,3.7330000400543213,learn,56266.99995994568,Fri Feb 06 2026 13:47:54 GMT-0500 (Eastern Standard Time),124459.20000076294,A,starenter,I,enter,708,2,3731.800000190735,120727.4000005722,9034,WL,B,1.0
1,4.165999889373779,learn,55834.00011062622,Fri Feb 06 2026 13:47:54 GMT-0500 (Eastern Standard Time),124893.0,A,w,I,w,410,2,433.29999923706055,124459.70000076294,9034,WL,B,2.0
1,4.266000032424927,learn,55733.99996757507,Fri Feb 06 2026 13:47:54 GMT-0500 (Eastern Standard Time),124992.9000005722,A,wi,I,i,86,2,533.1999998092651,124459.70000076294,9034,WL,B,2.0
1,4.433000087738037,learn,55566.99991226196,Fri Feb 06 2026 13:47:54 GMT-0500 (Eastern Standard Time),125159.60000038147,A,wif,I,f,146,2,699.8999996185303,124459.70000076294,9034,WL,B,2.0
1,4.648999929428101,learn,55351.0000705719,Fri Feb 06 2026 13:47:54 GMT-0500 (Eastern Standard Time),125376.10000038147,A,wife,I,e,193,2,916.3999996185303,124459.70000076294,9034,WL,B,2.0
1,4.933000087738037,learn,55066.99991226196,Fri Feb 06 2026 13:47:54 GMT-0500 (Eastern Standard Time),125659.0,A,wifeenter,I,enter,257,2,1199.2999992370605,124459.70000076294,9034,WL,B,2.0
1,5.450000047683716,learn,54549.999952316284,Fri Feb 06 2026 13:47:54 GMT-0500 (Eastern Standard Time),126176.30000019073,A,g,I,g,503,2,516.5999994277954,125659.70000076294,9034,WL,B,3.0
1,5.632999897003174,learn,54367.000102996826,Fri Feb 06 2026 13:47:54 GMT-0500 (Eastern Standard Time),126359.60000038147,A,gr,I,r,161,2,699.8999996185303,125659.70000076294,9034,WL,B,3.0
1,5.733000040054321,learn,54266.99995994568,Fri Feb 06 2026 13:47:54 GMT-0500 (Eastern Standard Time),126459.60000038147,A,gra,I,a,75,2,799.8999996185303,125659.70000076294,9034,WL,B,3.0
1,5.933000087738037,learn,54066.99991226196,Fri Feb 06 2026 13:47:54 GMT-0500 (Eastern Standard Time),126659.60000038147,A,gras,I,s,174,2,999.8999996185303,125659.70000076294,9034,WL,B,3.0
1,6.099999904632568,learn,53900.00009536743,Fri Feb 06 2026 13:47:54 GMT-0500 (Eastern Standard Time),126826.20000076294,A,grass,I,s,143,2,1166.5,125659.70000076294,9034,WL,B,3.0
1,6.398999929428101,learn,53601.0000705719,Fri Feb 06 2026 13:47:54 GMT-0500 (Eastern Standard Time),127125.70000076294,A,grassenter,I,enter,277,2,1466.0,125659.70000076294,9034,WL,B,3.0
1,6.733000040054321,learn,53266.99995994568,Fri Feb 06 2026 13:47:54 GMT-0500 (Eastern Standard Time),127459.5,A,s,I,s,319,2,333.29999923706055,127126.20000076294,9034,WL,B,4.0
1,6.933000087738037,learn,53066.99991226196,Fri Feb 06 2026 13:47:54 GMT-0500 (Eastern Standard Time),127659.5,A,st,I,t,176,2,533.2999992370605,127126.20000076294,9034,WL,B,4.0
1,7.099999904632568,learn,52900.00009536743,Fri Feb 06 2026 13:47:54 GMT-0500 (Eastern Standard Time),127826.10000038147,A,str,I,r,141,2,699.8999996185303,127126.20000076294,9034,WL,B,4.0
1,7.200000047683716,learn,52799.999952316284,Fri Feb 06 2026 13:47:54 GMT-0500 (Eastern Standard Time),127926.10000038147,A,stre,I,e,81,2,799.8999996185303,127126.20000076294,9034,WL,B,4.0
1,7.382999897003174,learn,52617.000102996826,Fri Feb 06 2026 13:47:54 GMT-0500 (Eastern Standard Time),128109.70000076294,A,stree,I,e,172,2,983.5,127126.20000076294,9034,WL,B,4.0
1,7.516000032424927,learn,52483.99996757507,Fri Feb 06 2026 13:47:54 GMT-0500 (Eastern Standard Time),128242.80000019073,A,street,I,t,116,2,1116.5999994277954,127126.20000076294,9034,WL,B,4.0
1,7.749000072479248,learn,52250.99992752075,Fri Feb 06 2026 13:47:54 GMT-0500 (Eastern Standard Time),128475.80000019073,A,streetenter,I,enter,198,2,1349.5999994277954,127126.20000076294,9034,WL,B,4.0
1,8.733000040054321,learn,51266.99995994568,Fri Feb 06 2026 13:47:54 GMT-0500 (Eastern Standard Time),129459.5,A,p,I,p,970,2,983.2999992370605,128476.20000076294,9034,WL,B,5.0
1,8.91599988937378,learn,51084.00011062622,Fri Feb 06 2026 13:47:54 GMT-0500 (Eastern Standard Time),129642.9000005722,A,pi,I,i,160,2,1166.6999998092651,128476.20000076294,9034,WL,B,5.0
1,9.08299994468689,learn,50917.00005531311,Fri Feb 06 2026 13:47:54 GMT-0500 (Eastern Standard Time),129809.60000038147,A,pip,I,p,152,2,1333.3999996185303,128476.20000076294,9034,WL,B,5.0
1,9.433000087738037,learn,50566.99991226196,Fri Feb 06 2026 13:47:54 GMT-0500 (Eastern Standard Time),130159.60000038147,A,pipe,I,e,328,2,1683.3999996185303,128476.20000076294,9034,WL,B,5.0
1,9.799000024795532,learn,50200.99997520447,Fri Feb 06 2026 13:47:54 GMT-0500 (Eastern Standard Time),130525.60000038147,A,pipeenter,I,enter,354,2,2049.3999996185303,128476.20000076294,9034,WL,B,5.0
1,12.899999856948853,learn,47100.00014305115,Fri Feb 06 2026 13:47:54 GMT-0500 (Eastern Standard Time),133626.20000076294,A,a,I,a,3080,2,3100.2000007629395,130526.0,9034,WL,B,6.0
1,13.049999952316284,learn,46950.000047683716,Fri Feb 06 2026 13:47:54 GMT-0500 (Eastern Standard Time),133776.10000038147,A,ar,I,r,137,2,3250.1000003814697,130526.0,9034,WL,B,6.0
1,13.249000072479248,learn,46750.99992752075,Fri Feb 06 2026 13:47:54 GMT-0500 (Eastern Standard Time),133976.0,A,arm,I,m,170,2,3450.0,130526.0,9034,WL,B,6.0
1,13.66599988937378,learn,46334.00011062622,Fri Feb 06 2026 13:47:54 GMT-0500 (Eastern Standard Time),134392.0,A,armenter,I,enter,384,2,3866.0,130526.0,9034,WL,B,6.0
1,18.25,learn,41750.0,Fri Feb 06 2026 13:47:54 GMT-0500 (Eastern Standard Time),138976.30000019073,A,w,I,w,4574,2,4583.800000190735,134392.5,9034,WL,B,7.0
1,18.382999897003174,learn,41617.000102996826,Fri Feb 06 2026 13:47:54 GMT-0500 (Eastern Standard Time),139109.60000038147,A,wi,I,i,114,2,4717.10000038147,134392.5,9034,WL,B,7.0
1,18.598999977111816,learn,41401.00002288818,Fri Feb 06 2026 13:47:54 GMT-0500 (Eastern Standard Time),139325.9000005722,A,win,I,n,204,2,4933.400000572205,134392.5,9034,WL,B,7.0
1,18.66599988937378,learn,41334.00011062622,Fri Feb 06 2026 13:47:54 GMT-0500 (Eastern Standard Time),139392.5,A,wind,I,d,54,2,5000.0,134392.5,9034,WL,B,7.0
1,18.865999937057495,learn,41134.000062942505,Fri Feb 06 2026 13:47:54 GMT-0500 (Eastern Standard Time),139592.9000005722,A,windo,I,o,176,2,5200.400000572205,134392.5,9034,WL,B,7.0
1,18.999000072479248,learn,41000.99992752075,Fri Feb 06 2026 13:47:54 GMT-0500 (Eastern Standard Time),139725.80000019073,A,window,I,w,122,2,5333.300000190735,134392.5,9034,WL,B,7.0
1,19.381999969482422,learn,40618.00003051758,Fri Feb 06 2026 13:47:54 GMT-0500 (Eastern Standard Time),140108.9000005722,A,windowenter,I,enter,371,2,5716.400000572205,134392.5,9034,WL,B,7.0
1,25.832000017166138,learn,34167.99998283386,Fri Feb 06 2026 13:47:54 GMT-0500 (Eastern Standard Time),146559.0,A,enter,I,enter,6442,2,6449.799999237061,140109.20000076294,9034,WL,B,8.0
1,27.382999897003174,learn,32617.000102996826,Fri Feb 06 2026 13:47:54 GMT-0500 (Eastern Standard Time),148109.10000038147,A,enter,I,enter,1527,2,1549.5,146559.60000038147,9034,WL,B,9.0
1,29.131999969482422,learn,30868.000030517578,Fri Feb 06 2026 13:47:54 GMT-0500 (Eastern Standard Time),149858.9000005722,A,enter,I,enter,1736,2,1749.3000001907349,148109.60000038147,9034,WL,B,10.0
1,33.98199987411499,learn,26018.00012588501,Fri Feb 06 2026 13:47:54 GMT-0500 (Eastern Standard Time),154709.0,A,enter,I,enter,4834,2,4849.599999427795,149859.4000005722,9034,WL,B,11.0
1,34.56599998474121,learn,25434.00001525879,Fri Feb 06 2026 13:47:54 GMT-0500 (Eastern Standard Time),155292.4000005722,A,enter,I,enter,560,2,582.9000005722046,154709.5,9034,WL,B,12.0
1,60.01600003242493,learn,-16.000032424926758,Fri Feb 06 2026 13:47:54 GMT-0500 (Eastern Standard Time),180742.9000005722,A,None,I,None,25443,2,25450.0,155292.9000005722,9034,WL,B,13.0
2,0.68399977684021,learn,59316.00022315979,Fri Feb 06 2026 13:47:54 GMT-0500 (Eastern Standard Time),249626.30000019073,A,c,I,c,662,2,683.3000001907349,248943.0,9034,WL,B,1.0
2,0.7999999523162842,learn,59200.000047683716,Fri Feb 06 2026 13:47:54 GMT-0500 (Eastern Standard Time),249742.10000038147,A,cl,I,l,107,2,799.1000003814697,248943.0,9034,WL,B,1.0
2,1.0,learn,59000.0,Fri Feb 06 2026 13:47:54 GMT-0500 (Eastern Standard Time),249942.80000019073,A,clo,I,o,185,2,999.8000001907349,248943.0,9034,WL,B,1.0
2,1.1339998245239258,learn,58866.000175476074,Fri Feb 06 2026 13:47:54 GMT-0500 (Eastern Standard Time),250076.10000038147,A,cloc,I,c,100,2,1133.1000003814697,248943.0,9034,WL,B,1.0
2,1.2829999923706055,learn,58717.000007629395,Fri Feb 06 2026 13:47:54 GMT-0500 (Eastern Standard Time),250226.0,A,clock,I,k,136,2,1283.0,248943.0,9034,WL,B,1.0
2,1.565999984741211,learn,58434.00001525879,Fri Feb 06 2026 13:47:54 GMT-0500 (Eastern Standard Time),250508.70000076294,A,clockenter,I,enter,263,2,1565.7000007629395,248943.0,9034,WL,B,1.0
2,1.8499999046325684,learn,58150.00009536743,Fri Feb 06 2026 13:47:54 GMT-0500 (Eastern Standard Time),250792.70000076294,A,f,I,f,266,2,283.6000003814697,250509.10000038147,9034,WL,B,2.0
2,1.9499998092651367,learn,58050.00019073486,Fri Feb 06 2026 13:47:54 GMT-0500 (Eastern Standard Time),250892.60000038147,A,fi,I,i,75,2,383.5,250509.10000038147,9034,WL,B,2.0
2,2.066999912261963,learn,57933.00008773804,Fri Feb 06 2026 13:47:54 GMT-0500 (Eastern Standard Time),251009.4000005722,A,fir,I,r,103,2,500.30000019073486,250509.10000038147,9034,WL,B,2.0
2,2.1499998569488525,learn,57850.00014305115,Fri Feb 06 2026 13:47:54 GMT-0500 (Eastern Standard Time),251092.30000019073,A,fire,I,e,57,2,583.1999998092651,250509.10000038147,9034,WL,B,2.0
2,2.4159998893737793,learn,57584.00011062622,Fri Feb 06 2026 13:47:54 GMT-0500 (Eastern Standard Time),251358.80000019073,A,fireenter,I,enter,255,2,849.6999998092651,250509.10000038147,9034,WL,B,2.0
2,2.7669999599456787,learn,57233.00004005432,Fri Feb 06 2026 13:47:54 GMT-0500 (Eastern Standard Time),251709.5,A,a,I,a,343,2,350.19999980926514,251359.30000019073,9034,WL,B,3.0
2,2.9169998168945312,learn,57083.00018310547,Fri Feb 06 2026 13:47:54 GMT-0500 (Eastern Standard Time),251859.4000005722,A,ar,I,r,134,2,500.1000003814697,251359.30000019073,9034,WL,B,3.0
2,3.066999912261963,learn,56933.00008773804,Fri Feb 06 2026 13:47:54 GMT-0500 (Eastern Standard Time),252009.5,A,arm,I,m,127,2,650.1999998092651,251359.30000019073,9034,WL,B,3.0
2,3.299999952316284,learn,56700.000047683716,Fri Feb 06 2026 13:47:54 GMT-0500 (Eastern Standard Time),252242.20000076294,A,armenter,I,enter,216,2,882.9000005722046,251359.30000019073,9034,WL,B,3.0
2,3.5829999446868896,learn,56417.00005531311,Fri Feb 06 2026 13:47:54 GMT-0500 (Eastern Standard Time),252526.0,A,s,I,s,260,2,283.3999996185303,252242.60000038147,9034,WL,B,4.0
2,4.016999959945679,learn,55983.00004005432,Fri Feb 06 2026 13:47:54 GMT-0500 (Eastern Standard Time),252959.4000005722,A,st,I,t,421,2,716.8000001907349,252242.60000038147,9034,WL,B,4.0
2,4.299999952316284,learn,55700.000047683716,Fri Feb 06 2026 13:47:54 GMT-0500 (Eastern Standard Time),253242.70000076294,A,ste,I,e,259,2,1000.1000003814697,252242.60000038147,9034,WL,B,4.0
2,4.4670000076293945,learn,55532.999992370605,Fri Feb 06 2026 13:47:54 GMT-0500 (Eastern Standard Time),253409.4000005722,A,stee,I,e,152,2,1166.8000001907349,252242.60000038147,9034,WL,B,4.0
2,4.632999897003174,learn,55367.000102996826,Fri Feb 06 2026 13:47:54 GMT-0500 (Eastern Standard Time),253576.0,A,steet,I,t,138,2,1333.3999996185303,252242.60000038147,9034,WL,B,4.0
2,5.066999912261963,learn,54933.00008773804,Fri Feb 06 2026 13:47:54 GMT-0500 (Eastern Standard Time),254009.5,A,stee,I,backspace,402,2,1766.8999996185303,252242.60000038147,9034,WL,B,4.0
2,5.199999809265137,learn,54800.00019073486,Fri Feb 06 2026 13:47:54 GMT-0500 (Eastern Standard Time),254142.60000038147,A,ste,I,backspace,120,2,1900.0,252242.60000038147,9034,WL,B,4.0
2,5.366999864578247,learn,54633.00013542175,Fri Feb 06 2026 13:47:54 GMT-0500 (Eastern Standard Time),254309.5,A,st,I,backspace,149,2,2066.8999996185303,252242.60000038147,9034,WL,B,4.0
2,5.5,learn,54500.0,Fri Feb 06 2026 13:47:54 GMT-0500 (Eastern Standard Time),254442.80000019073,A,s,I,backspace,110,2,2200.199999809265,252242.60000038147,9034,WL,B,4.0
2,5.699999809265137,learn,54300.00019073486,Fri Feb 06 2026 13:47:54 GMT-0500 (Eastern Standard Time),254642.70000076294,A,sr,I,r,185,2,2400.1000003814697,252242.60000038147,9034,WL,B,4.0
2,6.299999952316284,learn,53700.000047683716,Fri Feb 06 2026 13:47:54 GMT-0500 (Eastern Standard Time),255242.70000076294,A,s,I,backspace,574,2,3000.1000003814697,252242.60000038147,9034,WL,B,4.0
2,6.432999849319458,learn,53567.00015068054,Fri Feb 06 2026 13:47:54 GMT-0500 (Eastern Standard Time),255375.9000005722,A,st,I,t,121,2,3133.300000190735,252242.60000038147,9034,WL,B,4.0
2,6.6499998569488525,learn,53350.00014305115,Fri Feb 06 2026 13:47:54 GMT-0500 (Eastern Standard Time),255592.70000076294,A,str,I,r,194,2,3350.1000003814697,252242.60000038147,9034,WL,B,4.0
2,6.7829999923706055,learn,53217.000007629395,Fri Feb 06 2026 13:47:54 GMT-0500 (Eastern Standard Time),255725.80000019073,A,stre,I,e,107,2,3483.199999809265,252242.60000038147,9034,WL,B,4.0
2,6.916999816894531,learn,53083.00018310547,Fri Feb 06 2026 13:47:54 GMT-0500 (Eastern Standard Time),255859.30000019073,A,stree,I,e,118,2,3616.699999809265,252242.60000038147,9034,WL,B,4.0
2,7.049999952316284,learn,52950.000047683716,Fri Feb 06 2026 13:47:54 GMT-0500 (Eastern Standard Time),255992.5,A,street,I,t,108,2,3749.8999996185303,252242.60000038147,9034,WL,B,4.0
2,7.25,learn,52750.0,Fri Feb 06 2026 13:47:54 GMT-0500 (Eastern Standard Time),256192.20000076294,A,streetenter,I,enter,187,2,3949.6000003814697,252242.60000038147,9034,WL,B,4.0
2,7.5329999923706055,learn,52467.000007629395,Fri Feb 06 2026 13:47:54 GMT-0500 (Eastern Standard Time),256475.80000019073,A,g,I,g,262,2,283.30000019073486,256192.5,9034,WL,B,5.0
2,7.75,learn,52250.0,Fri Feb 06 2026 13:47:54 GMT-0500 (Eastern Standard Time),256692.80000019073,A,gr,I,r,199,2,500.30000019073486,256192.5,9034,WL,B,5.0
2,7.866999864578247,learn,52133.00013542175,Fri Feb 06 2026 13:47:54 GMT-0500 (Eastern Standard Time),256809.30000019073,A,gra,I,a,95,2,616.8000001907349,256192.5,9034,WL,B,5.0
2,8.032999992370605,learn,51967.000007629395,Fri Feb 06 2026 13:47:54 GMT-0500 (Eastern Standard Time),256976.0,A,gras,I,s,154,2,783.5,256192.5,9034,WL,B,5.0
2,8.217000007629395,learn,51782.999992370605,Fri Feb 06 2026 13:47:54 GMT-0500 (Eastern Standard Time),257159.4000005722,A,grass,I,s,163,2,966.9000005722046,256192.5,9034,WL,B,5.0
2,8.565999984741211,learn,51434.00001525879,Fri Feb 06 2026 13:47:54 GMT-0500 (Eastern Standard Time),257508.9000005722,A,grassenter,I,enter,331,2,1316.4000005722046,256192.5,9034,WL,B,5.0
2,8.782999992370605,learn,51217.000007629395,Fri Feb 06 2026 13:47:54 GMT-0500 (Eastern Standard Time),257725.80000019073,A,a,I,a,210,2,216.5999994277954,257509.20000076294,9034,WL,B,6.0
2,8.916999816894531,learn,51083.00018310547,Fri Feb 06 2026 13:47:54 GMT-0500 (Eastern Standard Time),257859.30000019073,A,ar,I,r,117,2,350.0999994277954,257509.20000076294,9034,WL,B,6.0
2,9.08299994468689,learn,50917.00005531311,Fri Feb 06 2026 13:47:54 GMT-0500 (Eastern Standard Time),258025.9000005722,A,arm,I,m,138,2,516.6999998092651,257509.20000076294,9034,WL,B,6.0
2,9.33299994468689,learn,50667.00005531311,Fri Feb 06 2026 13:47:54 GMT-0500 (Eastern Standard Time),258275.5,A,armenter,I,enter,225,2,766.2999992370605,257509.20000076294,9034,WL,B,6.0
2,9.549999952316284,learn,50450.000047683716,Fri Feb 06 2026 13:47:54 GMT-0500 (Eastern Standard Time),258492.70000076294,A,d,I,d,195,2,216.80000019073486,258275.9000005722,9034,WL,B,7.0
2,9.949999809265137,learn,50050.00019073486,Fri Feb 06 2026 13:47:54 GMT-0500 (Eastern Standard Time),258892.80000019073,A,do,I,o,374,2,616.8999996185303,258275.9000005722,9034,WL,B,7.0
2,10.166999816894531,learn,49833.00018310547,Fri Feb 06 2026 13:47:54 GMT-0500 (Eastern Standard Time),259109.5,A,doo,I,o,199,2,833.5999994277954,258275.9000005722,9034,WL,B,7.0
2,10.632999897003174,learn,49367.000102996826,Fri Feb 06 2026 13:47:54 GMT-0500 (Eastern Standard Time),259576.0,A,door,I,r,437,2,1300.0999994277954,258275.9000005722,9034,WL,B,7.0
2,11.649999856948853,learn,48350.00014305115,Fri Feb 06 2026 13:47:54 GMT-0500 (Eastern Standard Time),260592.20000076294,A,doorenter,I,enter,1002,2,2316.300000190735,258275.9000005722,9034,WL,B,7.0
2,12.016999959945679,learn,47983.00004005432,Fri Feb 06 2026 13:47:54 GMT-0500 (Eastern Standard Time),260959.30000019073,A,w,I,w,359,2,366.80000019073486,260592.5,9034,WL,B,8.0
2,12.099999904632568,learn,47900.00009536743,Fri Feb 06 2026 13:47:54 GMT-0500 (Eastern Standard Time),261042.70000076294,A,wi,I,i,68,2,450.20000076293945,260592.5,9034,WL,B,8.0
2,12.282999992370605,learn,47717.000007629395,Fri Feb 06 2026 13:47:54 GMT-0500 (Eastern Standard Time),261226.10000038147,A,win,I,n,154,2,633.6000003814697,260592.5,9034,WL,B,8.0
2,12.5,learn,47500.0,Fri Feb 06 2026 13:47:54 GMT-0500 (Eastern Standard Time),261442.80000019073,A,winf,I,f,193,2,850.3000001907349,260592.5,9034,WL,B,8.0
2,12.866999864578247,learn,47133.00013542175,Fri Feb 06 2026 13:47:54 GMT-0500 (Eastern Standard Time),261809.4000005722,A,win,I,backspace,352,2,1216.9000005722046,260592.5,9034,WL,B,8.0
2,12.982999801635742,learn,47017.00019836426,Fri Feb 06 2026 13:47:54 GMT-0500 (Eastern Standard Time),261926.10000038147,A,wi,I,backspace,98,2,1333.6000003814697,260592.5,9034,WL,B,8.0
2,13.066999912261963,learn,46933.00008773804,Fri Feb 06 2026 13:47:54 GMT-0500 (Eastern Standard Time),262009.30000019073,A,wif,I,f,62,2,1416.8000001907349,260592.5,9034,WL,B,8.0
2,13.566999912261963,learn,46433.00008773804,Fri Feb 06 2026 13:47:54 GMT-0500 (Eastern Standard Time),262509.4000005722,A,wife,I,e,465,2,1916.9000005722046,260592.5,9034,WL,B,8.0
2,13.75,learn,46250.0,Fri Feb 06 2026 13:47:54 GMT-0500 (Eastern Standard Time),262692.20000076294,A,wifeenter,I,enter,165,2,2099.7000007629395,260592.5,9034,WL,B,8.0
2,14.166999816894531,learn,45833.00018310547,Fri Feb 06 2026 13:47:54 GMT-0500 (Eastern Standard Time),263109.4000005722,A,w,I,w,403,2,416.69999980926514,262692.70000076294,9034,WL,B,9.0
2,14.232999801635742,learn,45767.00019836426,Fri Feb 06 2026 13:47:54 GMT-0500 (Eastern Standard Time),263175.80000019073,A,wi,I,i,46,2,483.0999994277954,262692.70000076294,9034,WL,B,9.0
2,14.366999864578247,learn,45633.00013542175,Fri Feb 06 2026 13:47:54 GMT-0500 (Eastern Standard Time),263309.4000005722,A,win,I,n,108,2,616.6999998092651,262692.70000076294,9034,WL,B,9.0
2,14.516999959945679,learn,45483.00004005432,Fri Feb 06 2026 13:47:54 GMT-0500 (Eastern Standard Time),263459.30000019073,A,wind,I,d,135,2,766.5999994277954,262692.70000076294,9034,WL,B,9.0
2,14.699999809265137,learn,45300.00019073486,Fri Feb 06 2026 13:47:54 GMT-0500 (Eastern Standard Time),263642.70000076294,A,windo,I,o,153,2,950.0,262692.70000076294,9034,WL,B,9.0
2,14.83299994468689,learn,45167.00005531311,Fri Feb 06 2026 13:47:54 GMT-0500 (Eastern Standard Time),263776.0,A,window,I,w,119,2,1083.2999992370605,262692.70000076294,9034,WL,B,9.0
2,15.08299994468689,learn,44917.00005531311,Fri Feb 06 2026 13:47:54 GMT-0500 (Eastern Standard Time),264025.60000038147,A,windowenter,I,enter,226,2,1332.8999996185303,262692.70000076294,9034,WL,B,9.0
2,15.699999809265137,learn,44300.00019073486,Fri Feb 06 2026 13:47:54 GMT-0500 (Eastern Standard Time),264642.70000076294,A,p,I,p,605,2,616.7000007629395,264026.0,9034,WL,B,10.0
2,15.932999849319458,learn,44067.00015068054,Fri Feb 06 2026 13:47:54 GMT-0500 (Eastern Standard Time),264876.0,A,pe,I,e,208,2,850.0,264026.0,9034,WL,B,10.0
2,16.33299994468689,learn,43667.00005531311,Fri Feb 06 2026 13:47:54 GMT-0500 (Eastern Standard Time),265276.10000038147,A,p,I,backspace,376,2,1250.1000003814697,264026.0,9034,WL,B,10.0
2,16.566999912261963,learn,43433.00008773804,Fri Feb 06 2026 13:47:54 GMT-0500 (Eastern Standard Time),265509.30000019073,A,pi,I,i,215,2,1483.3000001907349,264026.0,9034,WL,B,10.0
2,16.76699995994568,learn,43233.00004005432,Fri Feb 06 2026 13:47:54 GMT-0500 (Eastern Standard Time),265709.4000005722,A,pip,I,p,173,2,1683.4000005722046,264026.0,9034,WL,B,10.0
2,17.01699995994568,learn,42983.00004005432,Fri Feb 06 2026 13:47:54 GMT-0500 (Eastern Standard Time),265959.30000019073,A,pipe,I,e,230,2,1933.3000001907349,264026.0,9034,WL,B,10.0
2,17.66599988937378,learn,42334.00011062622,Fri Feb 06 2026 13:47:54 GMT-0500 (Eastern Standard Time),266608.80000019073,A,pipeenter,I,enter,635,2,2582.800000190735,264026.0,9034,WL,B,10.0
2,26.59999990463257,learn,33400.00009536743,Fri Feb 06 2026 13:47:54 GMT-0500 (Eastern Standard Time),275542.60000038147,A,c,I,c,8918,2,8933.5,266609.10000038147,9034,WL,B,11.0
2,26.699999809265137,learn,33300.00019073486,Fri Feb 06 2026 13:47:54 GMT-0500 (Eastern Standard Time),275642.70000076294,A,ci,I,i,76,2,9033.60000038147,266609.10000038147,9034,WL,B,11.0
2,27.0,learn,33000.0,Fri Feb 06 2026 13:47:54 GMT-0500 (Eastern Standard Time),275942.80000019073,A,cit,I,t,280,2,9333.699999809265,266609.10000038147,9034,WL,B,11.0
2,27.132999897003174,learn,32867.000102996826,Fri Feb 06 2026 13:47:54 GMT-0500 (Eastern Standard Time),276076.10000038147,A,city,I,y,108,2,9467.0,266609.10000038147,9034,WL,B,11.0
2,27.432999849319458,learn,32567.000150680542,Fri Feb 06 2026 13:47:54 GMT-0500 (Eastern Standard Time),276375.60000038147,A,cityenter,I,enter,279,2,9766.5,266609.10000038147,9034,WL,B,11.0
2,28.432999849319458,learn,31567.000150680542,Fri Feb 06 2026 13:47:54 GMT-0500 (Eastern Standard Time),277376.0,A,p,I,p,991,2,1000.0999994277954,276375.9000005722,9034,WL,B,12.0
2,28.58299994468689,learn,31417.00005531311,Fri Feb 06 2026 13:47:54 GMT-0500 (Eastern Standard Time),277526.10000038147,A,pu,I,u,131,2,1150.1999998092651,276375.9000005722,9034,WL,B,12.0
2,28.83299994468689,learn,31167.00005531311,Fri Feb 06 2026 13:47:54 GMT-0500 (Eastern Standard Time),277776.0,A,pup,I,p,229,2,1400.0999994277954,276375.9000005722,9034,WL,B,12.0
2,29.16699981689453,learn,30833.00018310547,Fri Feb 06 2026 13:47:54 GMT-0500 (Eastern Standard Time),278109.5,A,pupi,I,i,316,2,1733.5999994277954,276375.9000005722,9034,WL,B,12.0
2,29.51699995994568,learn,30483.00004005432,Fri Feb 06 2026 13:47:54 GMT-0500 (Eastern Standard Time),278459.4000005722,A,pupil,I,l,326,2,2083.5,276375.9000005722,9034,WL,B,12.0
2,29.799999952316284,learn,30200.000047683716,Fri Feb 06 2026 13:47:54 GMT-0500 (Eastern Standard Time),278742.20000076294,A,pupilenter,I,enter,263,2,2366.300000190735,276375.9000005722,9034,WL,B,12.0
2,35.217000007629395,learn,24782.999992370605,Fri Feb 06 2026 13:47:54 GMT-0500 (Eastern Standard Time),284159.30000019073,A,c,I,c,5409,2,5416.800000190735,278742.5,9034,WL,B,13.0
2,35.532999992370605,learn,24467.000007629395,Fri Feb 06 2026 13:47:54 GMT-0500 (Eastern Standard Time),284476.10000038147,A,ca,I,a,290,2,5733.60000038147,278742.5,9034,WL,B,13.0
2,35.81699991226196,learn,24183.000087738037,Fri Feb 06 2026 13:47:54 GMT-0500 (Eastern Standard Time),284759.30000019073,A,cab,I,b,261,2,6016.800000190735,278742.5,9034,WL,B,13.0
2,36.049999952316284,learn,23950.000047683716,Fri Feb 06 2026 13:47:54 GMT-0500 (Eastern Standard Time),284992.70000076294,A,cabi,I,i,219,2,6250.200000762939,278742.5,9034,WL,B,13.0
2,36.23299980163574,learn,23767.000198364258,Fri Feb 06 2026 13:47:54 GMT-0500 (Eastern Standard Time),285175.9000005722,A,cabin,I,n,163,2,6433.400000572205,278742.5,9034,WL,B,13.0
2,36.46599984169006,learn,23534.000158309937,Fri Feb 06 2026 13:47:54 GMT-0500 (Eastern Standard Time),285408.80000019073,A,cabinenter,I,enter,211,2,6666.300000190735,278742.5,9034,WL,B,13.0
2,37.98299980163574,learn,22017.000198364258,Fri Feb 06 2026 13:47:54 GMT-0500 (Eastern Standard Time),286926.0,A,p,I,p,1494,2,1516.7999992370605,285409.20000076294,9034,WL,B,14.0
2,38.14999985694885,learn,21850.000143051147,Fri Feb 06 2026 13:47:54 GMT-0500 (Eastern Standard Time),287092.60000038147,A,pu,I,u,148,2,1683.3999996185303,285409.20000076294,9034,WL,B,14.0
2,38.44999980926514,learn,21550.000190734863,Fri Feb 06 2026 13:47:54 GMT-0500 (Eastern Standard Time),287392.70000076294,A,pup,I,p,286,2,1983.5,285409.20000076294,9034,WL,B,14.0
2,38.58299994468689,learn,21417.00005531311,Fri Feb 06 2026 13:47:54 GMT-0500 (Eastern Standard Time),287526.10000038147,A,pupi,I,i,114,2,2116.8999996185303,285409.20000076294,9034,WL,B,14.0
2,38.882999897003174,learn,21117.000102996826,Fri Feb 06 2026 13:47:54 GMT-0500 (Eastern Standard Time),287826.0,A,pupil,I,l,285,2,2416.7999992370605,285409.20000076294,9034,WL,B,14.0
2,39.19999980926514,learn,20800.000190734863,Fri Feb 06 2026 13:47:54 GMT-0500 (Eastern Standard Time),288142.10000038147,A,pupilenter,I,enter,305,2,2732.8999996185303,285409.20000076294,9034,WL,B,14.0
2,39.73299980163574,learn,20267.000198364258,Fri Feb 06 2026 13:47:54 GMT-0500 (Eastern Standard Time),288676.0,A,s,I,s,520,2,533.5999994277954,288142.4000005722,9034,WL,B,15.0
2,39.93299984931946,learn,20067.000150680542,Fri Feb 06 2026 13:47:54 GMT-0500 (Eastern Standard Time),288876.10000038147,A,st,I,t,174,2,733.6999998092651,288142.4000005722,9034,WL,B,15.0
2,40.14999985694885,learn,19850.000143051147,Fri Feb 06 2026 13:47:54 GMT-0500 (Eastern Standard Time),289092.60000038147,A,str,I,r,191,2,950.1999998092651,288142.4000005722,9034,WL,B,15.0
2,40.23299980163574,learn,19767.000198364258,Fri Feb 06 2026 13:47:54 GMT-0500 (Eastern Standard Time),289176.0,A,stre,I,e,62,2,1033.5999994277954,288142.4000005722,9034,WL,B,15.0
2,40.48299980163574,learn,19517.000198364258,Fri Feb 06 2026 13:47:54 GMT-0500 (Eastern Standard Time),289426.0,A,stree,I,e,227,2,1283.5999994277954,288142.4000005722,9034,WL,B,15.0
2,40.56599998474121,learn,19434.00001525879,Fri Feb 06 2026 13:47:54 GMT-0500 (Eastern Standard Time),289508.9000005722,A,street,I,t,57,2,1366.5,288142.4000005722,9034,WL,B,15.0
2,40.89999985694885,learn,19100.000143051147,Fri Feb 06 2026 13:47:54 GMT-0500 (Eastern Standard Time),289842.10000038147,A,streetenter,I,enter,319,2,1699.6999998092651,288142.4000005722,9034,WL,B,15.0
3,0.8000001907348633,learn,59199.99980926514,Fri Feb 06 2026 13:47:54 GMT-0500 (Eastern Standard Time),358442.70000076294,A,s,I,s,777,2,799.6000003814697,357643.10000038147,9034,WL,B,1.0
3,1.0830001831054688,learn,58916.99981689453,Fri Feb 06 2026 13:47:54 GMT-0500 (Eastern Standard Time),358726.0,A,st,I,t,264,2,1082.8999996185303,357643.10000038147,9034,WL,B,1.0
3,1.7670001983642578,learn,58232.99980163574,Fri Feb 06 2026 13:47:54 GMT-0500 (Eastern Standard Time),359409.20000076294,A,str,I,r,670,2,1766.1000003814697,357643.10000038147,9034,WL,B,1.0
3,2.067000150680542,learn,57932.99984931946,Fri Feb 06 2026 13:47:54 GMT-0500 (Eastern Standard Time),359709.30000019073,A,stre,I,e,290,2,2066.199999809265,357643.10000038147,9034,WL,B,1.0
3,2.267000198364258,learn,57732.99980163574,Fri Feb 06 2026 13:47:54 GMT-0500 (Eastern Standard Time),359909.30000019073,A,stree,I,e,183,2,2266.199999809265,357643.10000038147,9034,WL,B,1.0
3,2.4170000553131104,learn,57582.99994468689,Fri Feb 06 2026 13:47:54 GMT-0500 (Eastern Standard Time),360059.20000076294,A,street,I,t,118,2,2416.1000003814697,357643.10000038147,9034,WL,B,1.0
3,2.565999984741211,learn,57434.00001525879,Fri Feb 06 2026 13:47:54 GMT-0500 (Eastern Standard Time),360208.80000019073,A,streetenter,I,enter,135,2,2565.699999809265,357643.10000038147,9034,WL,B,1.0
3,2.950000047683716,learn,57049.999952316284,Fri Feb 06 2026 13:47:54 GMT-0500 (Eastern Standard Time),360592.5,A,g,I,g,374,2,383.29999923706055,360209.20000076294,9034,WL,B,2.0
3,3.2170000076293945,learn,56782.999992370605,Fri Feb 06 2026 13:47:54 GMT-0500 (Eastern Standard Time),360859.20000076294,A,gr,I,r,243,2,650.0,360209.20000076294,9034,WL,B,2.0
3,3.367000102996826,learn,56632.999897003174,Fri Feb 06 2026 13:47:54 GMT-0500 (Eastern Standard Time),361009.20000076294,A,gra,I,a,137,2,800.0,360209.20000076294,9034,WL,B,2.0
3,3.567000150680542,learn,56432.99984931946,Fri Feb 06 2026 13:47:54 GMT-0500 (Eastern Standard Time),361209.30000019073,A,gras,I,s,178,2,1000.0999994277954,360209.20000076294,9034,WL,B,2.0
3,3.7330000400543213,learn,56266.99995994568,Fri Feb 06 2026 13:47:54 GMT-0500 (Eastern Standard Time),361376.0,A,grass,I,s,147,2,1166.7999992370605,360209.20000076294,9034,WL,B,2.0
3,4.083000183105469,learn,55916.99981689453,Fri Feb 06 2026 13:47:54 GMT-0500 (Eastern Standard Time),361725.4000005722,A,grassenter,I,enter,338,2,1516.1999998092651,360209.20000076294,9034,WL,B,2.0
3,4.333000183105469,learn,55666.99981689453,Fri Feb 06 2026 13:47:54 GMT-0500 (Eastern Standard Time),361975.9000005722,A,d,I,d,234,2,250.10000038146973,361725.80000019073,9034,WL,B,3.0
3,4.4670000076293945,learn,55532.999992370605,Fri Feb 06 2026 13:47:54 GMT-0500 (Eastern Standard Time),362109.30000019073,A,do,I,o,107,2,383.5,361725.80000019073,9034,WL,B,3.0
3,4.66700005531311,learn,55332.99994468689,Fri Feb 06 2026 13:47:54 GMT-0500 (Eastern Standard Time),362309.20000076294,A,doo,I,o,181,2,583.4000005722046,361725.80000019073,9034,WL,B,3.0
3,4.800000190734863,learn,55199.99980926514,Fri Feb 06 2026 13:47:54 GMT-0500 (Eastern Standard Time),362442.60000038147,A,door,I,r,110,2,716.8000001907349,361725.80000019073,9034,WL,B,3.0
3,5.366000175476074,learn,54633.999824523926,Fri Feb 06 2026 13:47:54 GMT-0500 (Eastern Standard Time),363008.70000076294,A,doorenter,I,enter,552,2,1282.9000005722046,361725.80000019073,9034,WL,B,3.0
3,5.650000095367432,learn,54349.99990463257,Fri Feb 06 2026 13:47:54 GMT-0500 (Eastern Standard Time),363292.60000038147,A,s,I,s,262,2,283.6000003814697,363009.0,9034,WL,B,4.0
3,5.817000150680542,learn,54182.99984931946,Fri Feb 06 2026 13:47:54 GMT-0500 (Eastern Standard Time),363459.20000076294,A,st,I,t,150,2,450.20000076293945,363009.0,9034,WL,B,4.0
3,5.983000040054321,learn,54016.99995994568,Fri Feb 06 2026 13:47:54 GMT-0500 (Eastern Standard Time),363626.0,A,sta,I,a,145,2,617.0,363009.0,9034,WL,B,4.0
3,6.1000001430511475,learn,53899.99985694885,Fri Feb 06 2026 13:47:54 GMT-0500 (Eastern Standard Time),363742.30000019073,A,star,I,r,105,2,733.3000001907349,363009.0,9034,WL,B,4.0
3,6.2829999923706055,learn,53717.000007629395,Fri Feb 06 2026 13:47:54 GMT-0500 (Eastern Standard Time),363925.9000005722,A,start,I,t,165,2,916.9000005722046,363009.0,9034,WL,B,4.0
3,6.450000047683716,learn,53549.999952316284,Fri Feb 06 2026 13:47:54 GMT-0500 (Eastern Standard Time),364092.10000038147,A,startenter,I,enter,141,2,1083.1000003814697,363009.0,9034,WL,B,4.0
3,7.200000047683716,learn,52799.999952316284,Fri Feb 06 2026 13:47:54 GMT-0500 (Eastern Standard Time),364842.70000076294,A,a,I,a,731,2,750.2000007629395,364092.5,9034,WL,B,5.0
3,7.3500001430511475,learn,52649.99985694885,Fri Feb 06 2026 13:47:54 GMT-0500 (Eastern Standard Time),364992.60000038147,A,ar,I,r,134,2,900.1000003814697,364092.5,9034,WL,B,5.0
3,7.550000190734863,learn,52449.99980926514,Fri Feb 06 2026 13:47:54 GMT-0500 (Eastern Standard Time),365192.60000038147,A,arm,I,m,179,2,1100.1000003814697,364092.5,9034,WL,B,5.0
3,7.966000080108643,learn,52033.99991989136,Fri Feb 06 2026 13:47:54 GMT-0500 (Eastern Standard Time),365608.80000019073,A,armenter,I,enter,394,2,1516.3000001907349,364092.5,9034,WL,B,5.0
3,8.867000102996826,learn,51132.999897003174,Fri Feb 06 2026 13:47:54 GMT-0500 (Eastern Standard Time),366509.20000076294,A,w,I,w,878,2,900.0,365609.20000076294,9034,WL,B,6.0
3,8.983000040054321,learn,51016.99995994568,Fri Feb 06 2026 13:47:54 GMT-0500 (Eastern Standard Time),366625.9000005722,A,wi,I,i,102,2,1016.6999998092651,365609.20000076294,9034,WL,B,6.0
3,9.117000102996826,learn,50882.999897003174,Fri Feb 06 2026 13:47:54 GMT-0500 (Eastern Standard Time),366759.20000076294,A,wif,I,f,113,2,1150.0,365609.20000076294,9034,WL,B,6.0
3,9.25,learn,50750.0,Fri Feb 06 2026 13:47:54 GMT-0500 (Eastern Standard Time),366892.5,A,wife,I,e,108,2,1283.2999992370605,365609.20000076294,9034,WL,B,6.0
3,9.416000127792358,learn,50583.99987220764,Fri Feb 06 2026 13:47:54 GMT-0500 (Eastern Standard Time),367058.80000019073,A,wifeenter,I,enter,142,2,1449.5999994277954,365609.20000076294,9034,WL,B,6.0
3,9.800000190734863,learn,50199.99980926514,Fri Feb 06 2026 13:47:54 GMT-0500 (Eastern Standard Time),367442.60000038147,A,w,I,w,373,2,383.6000003814697,367059.0,9034,WL,B,7.0
3,9.883000135421753,learn,50116.99986457825,Fri Feb 06 2026 13:47:54 GMT-0500 (Eastern Standard Time),367525.4000005722,A,wi,I,i,61,2,466.4000005722046,367059.0,9034,WL,B,7.0
3,10.017000198364258,learn,49982.99980163574,Fri Feb 06 2026 13:47:54 GMT-0500 (Eastern Standard Time),367659.20000076294,A,win,I,n,111,2,600.2000007629395,367059.0,9034,WL,B,7.0
3,10.200000047683716,learn,49799.999952316284,Fri Feb 06 2026 13:47:54 GMT-0500 (Eastern Standard Time),367842.5,A,wind,I,d,161,2,783.5,367059.0,9034,WL,B,7.0
3,10.333000183105469,learn,49666.99981689453,Fri Feb 06 2026 13:47:54 GMT-0500 (Eastern Standard Time),367975.9000005722,A,windo,I,o,114,2,916.9000005722046,367059.0,9034,WL,B,7.0
3,10.5,learn,49500.0,Fri Feb 06 2026 13:47:54 GMT-0500 (Eastern Standard Time),368142.4000005722,A,window,I,w,155,2,1083.4000005722046,367059.0,9034,WL,B,7.0
3,11.200000047683716,learn,48799.999952316284,Fri Feb 06 2026 13:47:54 GMT-0500 (Eastern Standard Time),368842.20000076294,A,windowenter,I,enter,676,2,1783.2000007629395,367059.0,9034,WL,B,7.0
3,12.317000150680542,learn,47682.99984931946,Fri Feb 06 2026 13:47:54 GMT-0500 (Eastern Standard Time),369959.30000019073,A,p,I,p,1101,2,1116.6999998092651,368842.60000038147,9034,WL,B,8.0
3,12.550000190734863,learn,47449.99980926514,Fri Feb 06 2026 13:47:54 GMT-0500 (Eastern Standard Time),370192.5,A,pu,I,u,221,2,1349.8999996185303,368842.60000038147,9034,WL,B,8.0
3,12.883000135421753,learn,47116.99986457825,Fri Feb 06 2026 13:47:54 GMT-0500 (Eastern Standard Time),370525.60000038147,A,pup,I,p,323,2,1683.0,368842.60000038147,9034,WL,B,8.0
3,13.150000095367432,learn,46849.99990463257,Fri Feb 06 2026 13:47:54 GMT-0500 (Eastern Standard Time),370792.60000038147,A,pupi,I,i,246,2,1950.0,368842.60000038147,9034,WL,B,8.0
3,13.383000135421753,learn,46616.99986457825,Fri Feb 06 2026 13:47:54 GMT-0500 (Eastern Standard Time),371025.9000005722,A,pupil,I,l,218,2,2183.300000190735,368842.60000038147,9034,WL,B,8.0
3,13.666000127792358,learn,46333.99987220764,Fri Feb 06 2026 13:47:54 GMT-0500 (Eastern Standard Time),371308.80000019073,A,pupilenter,I,enter,256,2,2466.199999809265,368842.60000038147,9034,WL,B,8.0
3,13.933000087738037,learn,46066.99991226196,Fri Feb 06 2026 13:47:54 GMT-0500 (Eastern Standard Time),371575.9000005722,A,f,I,f,250,2,266.80000019073486,371309.10000038147,9034,WL,B,9.0
3,14.483000040054321,learn,45516.99995994568,Fri Feb 06 2026 13:47:54 GMT-0500 (Eastern Standard Time),372125.60000038147,A,,I,backspace,537,2,816.5,371309.10000038147,9034,WL,B,9.0
3,14.800000190734863,learn,45199.99980926514,Fri Feb 06 2026 13:47:54 GMT-0500 (Eastern Standard Time),372442.60000038147,A,p,I,p,293,2,1133.5,371309.10000038147,9034,WL,B,9.0
3,15.300000190734863,learn,44699.99980926514,Fri Feb 06 2026 13:47:54 GMT-0500 (Eastern Standard Time),372942.30000019073,A,pi,I,i,488,2,1633.1999998092651,371309.10000038147,9034,WL,B,9.0
3,15.75,learn,44250.0,Fri Feb 06 2026 13:47:54 GMT-0500 (Eastern Standard Time),373392.5,A,pip,I,p,438,2,2083.3999996185303,371309.10000038147,9034,WL,B,9.0
3,16.23300004005432,learn,43766.99995994568,Fri Feb 06 2026 13:47:54 GMT-0500 (Eastern Standard Time),373875.9000005722,A,pipe,I,e,467,2,2566.800000190735,371309.10000038147,9034,WL,B,9.0
3,16.58300018310547,learn,43416.99981689453,Fri Feb 06 2026 13:47:54 GMT-0500 (Eastern Standard Time),374225.5,A,pipeenter,I,enter,334,2,2916.3999996185303,371309.10000038147,9034,WL,B,9.0
3,16.817000150680542,learn,43182.99984931946,Fri Feb 06 2026 13:47:54 GMT-0500 (Eastern Standard Time),374459.30000019073,A,f,I,f,214,2,233.5,374225.80000019073,9034,WL,B,10.0
3,16.950000047683716,learn,43049.999952316284,Fri Feb 06 2026 13:47:54 GMT-0500 (Eastern Standard Time),374592.60000038147,A,fi,I,i,115,2,366.80000019073486,374225.80000019073,9034,WL,B,10.0
3,17.117000102996826,learn,42882.999897003174,Fri Feb 06 2026 13:47:54 GMT-0500 (Eastern Standard Time),374759.30000019073,A,fir,I,r,146,2,533.5,374225.80000019073,9034,WL,B,10.0
3,17.217000007629395,learn,42782.999992370605,Fri Feb 06 2026 13:47:54 GMT-0500 (Eastern Standard Time),374859.20000076294,A,fire,I,e,77,2,633.4000005722046,374225.80000019073,9034,WL,B,10.0
3,17.83300018310547,learn,42166.99981689453,Fri Feb 06 2026 13:47:54 GMT-0500 (Eastern Standard Time),375475.4000005722,A,fireenter,I,enter,599,2,1249.6000003814697,374225.80000019073,9034,WL,B,10.0
3,18.83300018310547,learn,41166.99981689453,Fri Feb 06 2026 13:47:54 GMT-0500 (Eastern Standard Time),376476.0,A,c,I,c,979,2,1000.1999998092651,375475.80000019073,9034,WL,B,11.0
3,18.967000007629395,learn,41032.999992370605,Fri Feb 06 2026 13:47:54 GMT-0500 (Eastern Standard Time),376609.20000076294,A,ci,I,i,118,2,1133.4000005722046,375475.80000019073,9034,WL,B,11.0
3,19.133000135421753,learn,40866.99986457825,Fri Feb 06 2026 13:47:54 GMT-0500 (Eastern Standard Time),376775.9000005722,A,cit,I,t,147,2,1300.1000003814697,375475.80000019073,9034,WL,B,11.0
3,19.300000190734863,learn,40699.99980926514,Fri Feb 06 2026 13:47:54 GMT-0500 (Eastern Standard Time),376942.60000038147,A,city,I,y,134,2,1466.8000001907349,375475.80000019073,9034,WL,B,11.0
3,19.66600012779236,learn,40333.99987220764,Fri Feb 06 2026 13:47:54 GMT-0500 (Eastern Standard Time),377308.60000038147,A,cityenter,I,enter,356,2,1832.8000001907349,375475.80000019073,9034,WL,B,11.0
3,22.267000198364258,learn,37732.99980163574,Fri Feb 06 2026 13:47:54 GMT-0500 (Eastern Standard Time),379909.20000076294,A,c,I,c,2587,2,2600.300000190735,377308.9000005722,9034,WL,B,12.0
3,22.433000087738037,learn,37566.99991226196,Fri Feb 06 2026 13:47:54 GMT-0500 (Eastern Standard Time),380075.80000019073,A,ca,I,a,140,2,2766.8999996185303,377308.9000005722,9034,WL,B,12.0
3,22.617000102996826,learn,37382.999897003174,Fri Feb 06 2026 13:47:54 GMT-0500 (Eastern Standard Time),380259.20000076294,A,cab,I,b,168,2,2950.300000190735,377308.9000005722,9034,WL,B,12.0
3,22.767000198364258,learn,37232.99980163574,Fri Feb 06 2026 13:47:54 GMT-0500 (Eastern Standard Time),380409.20000076294,A,cabi,I,i,128,2,3100.300000190735,377308.9000005722,9034,WL,B,12.0
3,22.90000009536743,learn,37099.99990463257,Fri Feb 06 2026 13:47:54 GMT-0500 (Eastern Standard Time),380542.5,A,cabin,I,n,115,2,3233.5999994277954,377308.9000005722,9034,WL,B,12.0
3,23.15000009536743,learn,36849.99990463257,Fri Feb 06 2026 13:47:54 GMT-0500 (Eastern Standard Time),380792.10000038147,A,cabinenter,I,enter,229,2,3483.199999809265,377308.9000005722,9034,WL,B,12.0
3,23.550000190734863,learn,36449.99980926514,Fri Feb 06 2026 13:47:54 GMT-0500 (Eastern Standard Time),381192.60000038147,A,l,I,l,383,2,400.1000003814697,380792.5,9034,WL,B,13.0
3,23.700000047683716,learn,36299.999952316284,Fri Feb 06 2026 13:47:54 GMT-0500 (Eastern Standard Time),381342.60000038147,A,la,I,a,123,2,550.1000003814697,380792.5,9034,WL,B,13.0
3,23.83300018310547,learn,36166.99981689453,Fri Feb 06 2026 13:47:54 GMT-0500 (Eastern Standard Time),381475.80000019073,A,lak,I,k,108,2,683.3000001907349,380792.5,9034,WL,B,13.0
3,24.032999992370605,learn,35967.000007629395,Fri Feb 06 2026 13:47:54 GMT-0500 (Eastern Standard Time),381675.9000005722,A,lake,I,e,168,2,883.4000005722046,380792.5,9034,WL,B,13.0
3,24.200000047683716,learn,35799.999952316284,Fri Feb 06 2026 13:47:54 GMT-0500 (Eastern Standard Time),381842.10000038147,A,lakeenter,I,enter,150,2,1049.6000003814697,380792.5,9034,WL,B,13.0
3,26.467000007629395,learn,33532.999992370605,Fri Feb 06 2026 13:47:54 GMT-0500 (Eastern Standard Time),384109.20000076294,A,c,I,c,2245,2,2266.7000007629395,381842.5,9034,WL,B,14.0
3,26.58300018310547,learn,33416.99981689453,Fri Feb 06 2026 13:47:54 GMT-0500 (Eastern Standard Time),384225.9000005722,A,cl,I,l,100,2,2383.4000005722046,381842.5,9034,WL,B,14.0
3,26.800000190734863,learn,33199.99980926514,Fri Feb 06 2026 13:47:54 GMT-0500 (Eastern Standard Time),384442.60000038147,A,clo,I,o,185,2,2600.1000003814697,381842.5,9034,WL,B,14.0
3,26.90000009536743,learn,33099.99990463257,Fri Feb 06 2026 13:47:54 GMT-0500 (Eastern Standard Time),384542.30000019073,A,cloc,I,c,87,2,2699.800000190735,381842.5,9034,WL,B,14.0
3,27.067000150680542,learn,32932.99984931946,Fri Feb 06 2026 13:47:54 GMT-0500 (Eastern Standard Time),384709.20000076294,A,clock,I,k,141,2,2866.7000007629395,381842.5,9034,WL,B,14.0
3,27.366000175476074,learn,32633.999824523926,Fri Feb 06 2026 13:47:54 GMT-0500 (Eastern Standard Time),385008.80000019073,A,clockenter,I,enter,285,2,3166.300000190735,381842.5,9034,WL,B,14.0
3,42.73300004005432,learn,17266.99995994568,Fri Feb 06 2026 13:47:54 GMT-0500 (Eastern Standard Time),400375.80000019073,A,p,I,p,15350,2,15366.699999809265,385009.10000038147,9034,WL,B,15.0
3,42.88300013542175,learn,17116.999864578247,Fri Feb 06 2026 13:47:54 GMT-0500 (Eastern Standard Time),400525.60000038147,A,pu,I,u,137,2,15516.5,385009.10000038147,9034,WL,B,15.0
3,43.10000014305115,learn,16899.999856948853,Fri Feb 06 2026 13:47:54 GMT-0500 (Eastern Standard Time),400742.60000038147,A,pup,I,p,190,2,15733.5,385009.10000038147,9034,WL,B,15.0
3,43.18300008773804,learn,16816.999912261963,Fri Feb 06 2026 13:47:54 GMT-0500 (Eastern Standard Time),400825.70000076294,A,pupi,I,i,62,2,15816.60000038147,385009.10000038147,9034,WL,B,15.0
3,43.90000009536743,learn,16099.999904632568,Fri Feb 06 2026 13:47:54 GMT-0500 (Eastern Standard Time),401542.5,A,pupil,I,l,698,2,16533.39999961853,385009.10000038147,9034,WL,B,15.0
3,44.58300018310547,learn,15416.999816894531,Fri Feb 06 2026 13:47:54 GMT-0500 (Eastern Standard Time),402225.30000019073,A,pupilenter,I,enter,666,2,17216.199999809265,385009.10000038147,9034,WL,B,15.0
4,0.41700005531311035,learn,59582.99994468689,Fri Feb 06 2026 13:47:54 GMT-0500 (Eastern Standard Time),471492.60000038147,A,s,I,s,401,2,416.3999996185303,471076.20000076294,9034,WL,B,1.0
4,0.7000000476837158,learn,59299.999952316284,Fri Feb 06 2026 13:47:54 GMT-0500 (Eastern Standard Time),471775.60000038147,A,st,I,t,268,2,699.3999996185303,471076.20000076294,9034,WL,B,1.0
4,0.9839999675750732,learn,59016.00003242493,Fri Feb 06 2026 13:47:54 GMT-0500 (Eastern Standard Time),472059.10000038147,A,str,I,r,260,2,982.8999996185303,471076.20000076294,9034,WL,B,1.0
4,1.1329998970031738,learn,58867.000102996826,Fri Feb 06 2026 13:47:54 GMT-0500 (Eastern Standard Time),472208.9000005722,A,stre,I,e,137,2,1132.6999998092651,471076.20000076294,9034,WL,B,1.0
4,1.2839999198913574,learn,58716.00008010864,Fri Feb 06 2026 13:47:54 GMT-0500 (Eastern Standard Time),472359.20000076294,A,stree,I,e,122,2,1283.0,471076.20000076294,9034,WL,B,1.0
4,1.4500000476837158,learn,58549.999952316284,Fri Feb 06 2026 13:47:54 GMT-0500 (Eastern Standard Time),472525.5,A,street,I,t,155,2,1449.2999992370605,471076.20000076294,9034,WL,B,1.0
4,1.7000000476837158,learn,58299.999952316284,Fri Feb 06 2026 13:47:54 GMT-0500 (Eastern Standard Time),472775.30000019073,A,streetenter,I,enter,230,2,1699.0999994277954,471076.20000076294,9034,WL,B,1.0
4,2.0840001106262207,learn,57915.99988937378,Fri Feb 06 2026 13:47:54 GMT-0500 (Eastern Standard Time),473159.10000038147,A,g,I,g,367,2,383.5,472775.60000038147,9034,WL,B,2.0
4,2.316999912261963,learn,57683.00008773804,Fri Feb 06 2026 13:47:54 GMT-0500 (Eastern Standard Time),473392.5,A,gr,I,r,220,2,616.8999996185303,472775.60000038147,9034,WL,B,2.0
4,2.4000000953674316,learn,57599.99990463257,Fri Feb 06 2026 13:47:54 GMT-0500 (Eastern Standard Time),473475.70000076294,A,gra,I,a,66,2,700.1000003814697,472775.60000038147,9034,WL,B,2.0
4,2.5840001106262207,learn,57415.99988937378,Fri Feb 06 2026 13:47:54 GMT-0500 (Eastern Standard Time),473659.10000038147,A,gras,I,s,154,2,883.5,472775.60000038147,9034,WL,B,2.0
4,2.75,learn,57250.0,Fri Feb 06 2026 13:47:54 GMT-0500 (Eastern Standard Time),473825.9000005722,A,grass,I,s,145,2,1050.3000001907349,472775.60000038147,9034,WL,B,2.0
4,3.1659998893737793,learn,56834.00011062622,Fri Feb 06 2026 13:47:54 GMT-0500 (Eastern Standard Time),474242.0,A,grassenter,I,enter,401,2,1466.3999996185303,472775.60000038147,9034,WL,B,2.0
4,6.733000040054321,learn,53266.99995994568,Fri Feb 06 2026 13:47:54 GMT-0500 (Eastern Standard Time),477809.10000038147,A,d,I,d,3557,2,3566.800000190735,474242.30000019073,9034,WL,B,3.0
4,6.900000095367432,learn,53099.99990463257,Fri Feb 06 2026 13:47:54 GMT-0500 (Eastern Standard Time),477975.70000076294,A,do,I,o,147,2,3733.4000005722046,474242.30000019073,9034,WL,B,3.0
4,7.08299994468689,learn,52917.00005531311,Fri Feb 06 2026 13:47:54 GMT-0500 (Eastern Standard Time),478159.0,A,doo,I,o,171,2,3916.699999809265,474242.30000019073,9034,WL,B,3.0
4,7.233999967575073,learn,52766.00003242493,Fri Feb 06 2026 13:47:54 GMT-0500 (Eastern Standard Time),478309.20000076294,A,door,I,r,125,2,4066.9000005722046,474242.30000019073,9034,WL,B,3.0
4,7.400000095367432,learn,52599.99990463257,Fri Feb 06 2026 13:47:54 GMT-0500 (Eastern Standard Time),478475.30000019073,A,doorenter,I,enter,141,2,4233.0,474242.30000019073,9034,WL,B,3.0
4,7.683000087738037,learn,52316.99991226196,Fri Feb 06 2026 13:47:54 GMT-0500 (Eastern Standard Time),478758.9000005722,A,s,I,s,268,2,283.30000019073486,478475.60000038147,9034,WL,B,4.0
4,7.851000070571899,learn,52148.9999294281,Fri Feb 06 2026 13:47:54 GMT-0500 (Eastern Standard Time),478926.20000076294,A,st,I,t,154,2,450.6000003814697,478475.60000038147,9034,WL,B,4.0
4,8.032999992370605,learn,51967.000007629395,Fri Feb 06 2026 13:47:54 GMT-0500 (Eastern Standard Time),479109.10000038147,A,sta,I,a,167,2,633.5,478475.60000038147,9034,WL,B,4.0
4,8.150000095367432,learn,51849.99990463257,Fri Feb 06 2026 13:47:54 GMT-0500 (Eastern Standard Time),479225.9000005722,A,star,I,r,86,2,750.3000001907349,478475.60000038147,9034,WL,B,4.0
4,8.66599988937378,learn,51334.00011062622,Fri Feb 06 2026 13:47:54 GMT-0500 (Eastern Standard Time),479741.9000005722,A,starenter,I,enter,498,2,1266.3000001907349,478475.60000038147,9034,WL,B,4.0
4,9.049999952316284,learn,50950.000047683716,Fri Feb 06 2026 13:47:54 GMT-0500 (Eastern Standard Time),480125.80000019073,A,a,I,a,361,2,383.5999994277954,479742.20000076294,9034,WL,B,5.0
4,9.200000047683716,learn,50799.999952316284,Fri Feb 06 2026 13:47:54 GMT-0500 (Eastern Standard Time),480275.80000019073,A,ar,I,r,131,2,533.5999994277954,479742.20000076294,9034,WL,B,5.0
4,9.382999897003174,learn,50617.000102996826,Fri Feb 06 2026 13:47:54 GMT-0500 (Eastern Standard Time),480459.10000038147,A,arm,I,m,152,2,716.8999996185303,479742.20000076294,9034,WL,B,5.0
4,9.683000087738037,learn,50316.99991226196,Fri Feb 06 2026 13:47:54 GMT-0500 (Eastern Standard Time),480758.70000076294,A,armenter,I,enter,271,2,1016.5,479742.20000076294,9034,WL,B,5.0
4,10.066999912261963,learn,49933.00008773804,Fri Feb 06 2026 13:47:54 GMT-0500 (Eastern Standard Time),481142.4000005722,A,w,I,w,368,2,383.5,480758.9000005722,9034,WL,B,6.0
4,10.217000007629395,learn,49782.999992370605,Fri Feb 06 2026 13:47:54 GMT-0500 (Eastern Standard Time),481292.4000005722,A,wi,I,i,125,2,533.5,480758.9000005722,9034,WL,B,6.0
4,10.382999897003174,learn,49617.000102996826,Fri Feb 06 2026 13:47:54 GMT-0500 (Eastern Standard Time),481459.10000038147,A,wif,I,f,143,2,700.1999998092651,480758.9000005722,9034,WL,B,6.0
4,10.532999992370605,learn,49467.000007629395,Fri Feb 06 2026 13:47:54 GMT-0500 (Eastern Standard Time),481609.10000038147,A,wife,I,e,129,2,850.1999998092651,480758.9000005722,9034,WL,B,6.0
4,10.766000032424927,learn,49233.99996757507,Fri Feb 06 2026 13:47:54 GMT-0500 (Eastern Standard Time),481841.9000005722,A,wifeenter,I,enter,215,2,1083.0,480758.9000005722,9034,WL,B,6.0
4,11.132999897003174,learn,48867.000102996826,Fri Feb 06 2026 13:47:54 GMT-0500 (Eastern Standard Time),482208.9000005722,A,w,I,w,357,2,366.69999980926514,481842.20000076294,9034,WL,B,7.0
4,11.233000040054321,learn,48766.99995994568,Fri Feb 06 2026 13:47:54 GMT-0500 (Eastern Standard Time),482309.10000038147,A,wi,I,i,80,2,466.8999996185303,481842.20000076294,9034,WL,B,7.0
4,11.384000062942505,learn,48615.999937057495,Fri Feb 06 2026 13:47:54 GMT-0500 (Eastern Standard Time),482459.20000076294,A,win,I,n,127,2,617.0,481842.20000076294,9034,WL,B,7.0
4,11.599999904632568,learn,48400.00009536743,Fri Feb 06 2026 13:47:54 GMT-0500 (Eastern Standard Time),482675.60000038147,A,wind,I,d,192,2,833.3999996185303,481842.20000076294,9034,WL,B,7.0
4,11.733000040054321,learn,48266.99995994568,Fri Feb 06 2026 13:47:54 GMT-0500 (Eastern Standard Time),482809.0,A,windo,I,o,113,2,966.7999992370605,481842.20000076294,9034,WL,B,7.0
4,11.900000095367432,learn,48099.99990463257,Fri Feb 06 2026 13:47:54 GMT-0500 (Eastern Standard Time),482975.70000076294,A,window,I,w,154,2,1133.5,481842.20000076294,9034,WL,B,7.0
4,12.233000040054321,learn,47766.99995994568,Fri Feb 06 2026 13:47:54 GMT-0500 (Eastern Standard Time),483308.60000038147,A,windowenter,I,enter,307,2,1466.3999996185303,481842.20000076294,9034,WL,B,7.0
4,14.049999952316284,learn,45950.000047683716,Fri Feb 06 2026 13:47:54 GMT-0500 (Eastern Standard Time),485125.70000076294,A,p,I,p,1802,2,1816.7000007629395,483309.0,9034,WL,B,8.0
4,14.233999967575073,learn,45766.00003242493,Fri Feb 06 2026 13:47:54 GMT-0500 (Eastern Standard Time),485309.20000076294,A,pu,I,u,155,2,2000.2000007629395,483309.0,9034,WL,B,8.0
4,14.516999959945679,learn,45483.00004005432,Fri Feb 06 2026 13:47:54 GMT-0500 (Eastern Standard Time),485592.4000005722,A,pup,I,p,262,2,2283.4000005722046,483309.0,9034,WL,B,8.0
4,14.700000047683716,learn,45299.999952316284,Fri Feb 06 2026 13:47:54 GMT-0500 (Eastern Standard Time),485775.70000076294,A,pupi,I,i,170,2,2466.7000007629395,483309.0,9034,WL,B,8.0
4,15.099999904632568,learn,44900.00009536743,Fri Feb 06 2026 13:47:54 GMT-0500 (Eastern Standard Time),486175.70000076294,A,pupil,I,l,388,2,2866.7000007629395,483309.0,9034,WL,B,8.0
4,15.615999937057495,learn,44384.000062942505,Fri Feb 06 2026 13:47:54 GMT-0500 (Eastern Standard Time),486692.0,A,pupilenter,I,enter,499,2,3383.0,483309.0,9034,WL,B,8.0
4,20.200000047683716,learn,39799.999952316284,Fri Feb 06 2026 13:47:54 GMT-0500 (Eastern Standard Time),491275.70000076294,A,p,I,p,4563,2,4583.400000572205,486692.30000019073,9034,WL,B,9.0
4,20.43400001525879,learn,39565.99998474121,Fri Feb 06 2026 13:47:54 GMT-0500 (Eastern Standard Time),491509.20000076294,A,pi,I,i,215,2,4816.900000572205,486692.30000019073,9034,WL,B,9.0
4,20.651000022888184,learn,39348.99997711182,Fri Feb 06 2026 13:47:54 GMT-0500 (Eastern Standard Time),491726.20000076294,A,pip,I,p,207,2,5033.900000572205,486692.30000019073,9034,WL,B,9.0
4,20.93400001525879,learn,39065.99998474121,Fri Feb 06 2026 13:47:54 GMT-0500 (Eastern Standard Time),492009.20000076294,A,pipe,I,e,261,2,5316.900000572205,486692.30000019073,9034,WL,B,9.0
4,21.25,learn,38750.0,Fri Feb 06 2026 13:47:54 GMT-0500 (Eastern Standard Time),492325.4000005722,A,pipeenter,I,enter,297,2,5633.10000038147,486692.30000019073,9034,WL,B,9.0
4,22.532999992370605,learn,37467.000007629395,Fri Feb 06 2026 13:47:54 GMT-0500 (Eastern Standard Time),493609.10000038147,A,c,I,c,1266,2,1283.5,492325.60000038147,9034,WL,B,10.0
4,22.717000007629395,learn,37282.999992370605,Fri Feb 06 2026 13:47:54 GMT-0500 (Eastern Standard Time),493792.20000076294,A,ca,I,a,170,2,1466.6000003814697,492325.60000038147,9034,WL,B,10.0
4,22.98300004005432,learn,37016.99995994568,Fri Feb 06 2026 13:47:54 GMT-0500 (Eastern Standard Time),494059.10000038147,A,cab,I,b,244,2,1733.5,492325.60000038147,9034,WL,B,10.0
4,23.117000102996826,learn,36882.999897003174,Fri Feb 06 2026 13:47:54 GMT-0500 (Eastern Standard Time),494192.4000005722,A,cabi,I,i,120,2,1866.8000001907349,492325.60000038147,9034,WL,B,10.0
4,23.26699995994568,learn,36733.00004005432,Fri Feb 06 2026 13:47:54 GMT-0500 (Eastern Standard Time),494342.4000005722,A,cabin,I,n,133,2,2016.8000001907349,492325.60000038147,9034,WL,B,10.0
4,23.59999990463257,learn,36400.00009536743,Fri Feb 06 2026 13:47:54 GMT-0500 (Eastern Standard Time),494675.30000019073,A,cabinenter,I,enter,308,2,2349.699999809265,492325.60000038147,9034,WL,B,10.0
4,23.950000047683716,learn,36049.999952316284,Fri Feb 06 2026 13:47:54 GMT-0500 (Eastern Standard Time),495025.70000076294,A,l,I,l,339,2,350.0,494675.70000076294,9034,WL,B,11.0
4,24.049999952316284,learn,35950.000047683716,Fri Feb 06 2026 13:47:54 GMT-0500 (Eastern Standard Time),495125.70000076294,A,la,I,a,82,2,450.0,494675.70000076294,9034,WL,B,11.0
4,24.23300004005432,learn,35766.99995994568,Fri Feb 06 2026 13:47:54 GMT-0500 (Eastern Standard Time),495309.0,A,lak,I,k,150,2,633.2999992370605,494675.70000076294,9034,WL,B,11.0
4,24.433000087738037,learn,35566.99991226196,Fri Feb 06 2026 13:47:54 GMT-0500 (Eastern Standard Time),495509.10000038147,A,lake,I,e,174,2,833.3999996185303,494675.70000076294,9034,WL,B,11.0
4,24.65000009536743,learn,35349.99990463257,Fri Feb 06 2026 13:47:54 GMT-0500 (Eastern Standard Time),495725.10000038147,A,lakeenter,I,enter,203,2,1049.3999996185303,494675.70000076294,9034,WL,B,11.0
4,25.117000102996826,learn,34882.999897003174,Fri Feb 06 2026 13:47:54 GMT-0500 (Eastern Standard Time),496192.4000005722,A,f,I,f,458,2,466.9000005722046,495725.5,9034,WL,B,12.0
4,25.316999912261963,learn,34683.00008773804,Fri Feb 06 2026 13:47:54 GMT-0500 (Eastern Standard Time),496392.30000019073,A,fi,I,i,178,2,666.8000001907349,495725.5,9034,WL,B,12.0
4,25.5,learn,34500.0,Fri Feb 06 2026 13:47:54 GMT-0500 (Eastern Standard Time),496575.60000038147,A,fir,I,r,163,2,850.1000003814697,495725.5,9034,WL,B,12.0
4,25.617000102996826,learn,34382.999897003174,Fri Feb 06 2026 13:47:54 GMT-0500 (Eastern Standard Time),496692.5,A,fire,I,e,92,2,967.0,495725.5,9034,WL,B,12.0
4,25.933000087738037,learn,34066.99991226196,Fri Feb 06 2026 13:47:54 GMT-0500 (Eastern Standard Time),497008.60000038147,A,fireenter,I,enter,302,2,1283.1000003814697,495725.5,9034,WL,B,12.0
4,26.83299994468689,learn,33167.00005531311,Fri Feb 06 2026 13:47:54 GMT-0500 (Eastern Standard Time),497909.10000038147,A,c,I,c,886,2,900.1000003814697,497009.0,9034,WL,B,13.0
4,26.983999967575073,learn,33016.00003242493,Fri Feb 06 2026 13:47:54 GMT-0500 (Eastern Standard Time),498059.10000038147,A,cl,I,l,127,2,1050.1000003814697,497009.0,9034,WL,B,13.0
4,27.183000087738037,learn,32816.99991226196,Fri Feb 06 2026 13:47:54 GMT-0500 (Eastern Standard Time),498259.10000038147,A,clo,I,o,184,2,1250.1000003814697,497009.0,9034,WL,B,13.0
4,27.59999990463257,learn,32400.00009536743,Fri Feb 06 2026 13:47:54 GMT-0500 (Eastern Standard Time),498675.80000019073,A,cloc,I,c,398,2,1666.8000001907349,497009.0,9034,WL,B,13.0
4,27.632999897003174,learn,32367.000102996826,Fri Feb 06 2026 13:47:54 GMT-0500 (Eastern Standard Time),498708.9000005722,A,clock,I,k,15,2,1699.9000005722046,497009.0,9034,WL,B,13.0
4,28.216000080108643,learn,31783.999919891357,Fri Feb 06 2026 13:47:54 GMT-0500 (Eastern Standard Time),499291.9000005722,A,clockenter,I,enter,555,2,2282.9000005722046,497009.0,9034,WL,B,13.0
4,29.217000007629395,learn,30782.999992370605,Fri Feb 06 2026 13:47:54 GMT-0500 (Eastern Standard Time),500292.30000019073,A,s,I,s,987,2,1000.0999994277954,499292.20000076294,9034,WL,B,14.0
4,29.384000062942505,learn,30615.999937057495,Fri Feb 06 2026 13:47:54 GMT-0500 (Eastern Standard Time),500459.20000076294,A,sk,I,k,139,2,1167.0,499292.20000076294,9034,WL,B,14.0
4,29.566999912261963,learn,30433.000087738037,Fri Feb 06 2026 13:47:54 GMT-0500 (Eastern Standard Time),500642.4000005722,A,ski,I,i,169,2,1350.1999998092651,499292.20000076294,9034,WL,B,14.0
4,29.76699995994568,learn,30233.00004005432,Fri Feb 06 2026 13:47:54 GMT-0500 (Eastern Standard Time),500842.4000005722,A,skin,I,n,177,2,1550.1999998092651,499292.20000076294,9034,WL,B,14.0
4,30.183000087738037,learn,29816.999912261963,Fri Feb 06 2026 13:47:54 GMT-0500 (Eastern Standard Time),501258.5,A,skinenter,I,enter,384,2,1966.2999992370605,499292.20000076294,9034,WL,B,14.0
4,35.93400001525879,learn,24065.99998474121,Fri Feb 06 2026 13:47:54 GMT-0500 (Eastern Standard Time),507009.0,A,p,I,p,5741,2,5750.099999427795,501258.9000005722,9034,WL,B,15.0
4,36.117000102996826,learn,23882.999897003174,Fri Feb 06 2026 13:47:54 GMT-0500 (Eastern Standard Time),507192.4000005722,A,pu,I,u,163,2,5933.5,501258.9000005722,9034,WL,B,15.0
4,36.31699991226196,learn,23683.000087738037,Fri Feb 06 2026 13:47:54 GMT-0500 (Eastern Standard Time),507392.30000019073,A,pup,I,p,188,2,6133.39999961853,501258.9000005722,9034,WL,B,15.0
4,36.43400001525879,learn,23565.99998474121,Fri Feb 06 2026 13:47:54 GMT-0500 (Eastern Standard Time),507509.20000076294,A,pupi,I,i,92,2,6250.300000190735,501258.9000005722,9034,WL,B,15.0
4,36.782999992370605,learn,23217.000007629395,Fri Feb 06 2026 13:47:54 GMT-0500 (Eastern Standard Time),507859.10000038147,A,pupil,I,l,328,2,6600.199999809265,501258.9000005722,9034,WL,B,15.0
4,37.08299994468689,learn,22917.00005531311,Fri Feb 06 2026 13:47:54 GMT-0500 (Eastern Standard Time),508158.60000038147,A,pupilenter,I,enter,287,2,6899.699999809265,501258.9000005722,9034,WL,B,15.0
5,0.5329999923706055,learn,60000.0,Fri Feb 06 2026 13:47:54 GMT-0500 (Eastern Standard Time),576576.0,A,s,I,s,523,2,533.2999992370605,576042.7000007629,9034,WL,B,1.0
5,0.7160000801086426,learn,60000.0,Fri Feb 06 2026 13:47:54 GMT-0500 (Eastern Standard Time),576759.0,A,st,I,t,163,2,716.2999992370605,576042.7000007629,9034,WL,B,1.0
5,0.9330000877380371,learn,60000.0,Fri Feb 06 2026 13:47:54 GMT-0500 (Eastern Standard Time),576975.6000003815,A,str,I,r,198,2,932.8999996185303,576042.7000007629,9034,WL,B,1.0
5,1.2160000801086426,learn,60000.0,Fri Feb 06 2026 13:47:54 GMT-0500 (Eastern Standard Time),577259.0,A,stre,I,e,261,2,1216.2999992370605,576042.7000007629,9034,WL,B,1.0
5,1.6989998817443848,learn,60000.0,Fri Feb 06 2026 13:47:54 GMT-0500 (Eastern Standard Time),577742.1000003815,A,stree,I,e,473,2,1699.3999996185303,576042.7000007629,9034,WL,B,1.0
5,1.9000000953674316,learn,60000.0,Fri Feb 06 2026 13:47:54 GMT-0500 (Eastern Standard Time),577942.4000005722,A,street,I,t,181,2,1899.6999998092651,576042.7000007629,9034,WL,B,1.0
5,2.132999897003174,learn,60000.0,Fri Feb 06 2026 13:47:54 GMT-0500 (Eastern Standard Time),578175.1000003815,A,streetenter,I,enter,218,2,2132.3999996185303,576042.7000007629,9034,WL,B,1.0
5,2.499000072479248,learn,60000.0,Fri Feb 06 2026 13:47:54 GMT-0500 (Eastern Standard Time),578542.0,A,g,I,g,360,2,366.5,578175.5,9034,WL,B,2.0
5,2.7829999923706055,learn,60000.0,Fri Feb 06 2026 13:47:54 GMT-0500 (Eastern Standard Time),578825.7000007629,A,gr,I,r,262,2,650.2000007629395,578175.5,9034,WL,B,2.0
5,3.1500000953674316,learn,60000.0,Fri Feb 06 2026 13:47:54 GMT-0500 (Eastern Standard Time),579192.4000005722,A,gra,I,a,345,2,1016.9000005722046,578175.5,9034,WL,B,2.0
5,3.3329999446868896,learn,60000.0,Fri Feb 06 2026 13:47:54 GMT-0500 (Eastern Standard Time),579375.6000003815,A,gras,I,s,171,2,1200.1000003814697,578175.5,9034,WL,B,2.0
5,3.5329999923706055,learn,60000.0,Fri Feb 06 2026 13:47:54 GMT-0500 (Eastern Standard Time),579575.6000003815,A,grass,I,s,172,2,1400.1000003814697,578175.5,9034,WL,B,2.0
5,3.933000087738037,learn,60000.0,Fri Feb 06 2026 13:47:54 GMT-0500 (Eastern Standard Time),579975.2000007629,A,grassenter,I,enter,371,2,1799.7000007629395,578175.5,9034,WL,B,2.0
5,4.2829999923706055,learn,60000.0,Fri Feb 06 2026 13:47:54 GMT-0500 (Eastern Standard Time),580325.7000007629,A,d,I,d,336,2,350.1000003814697,579975.6000003815,9034,WL,B,3.0
5,4.450000047683716,learn,60000.0,Fri Feb 06 2026 13:47:54 GMT-0500 (Eastern Standard Time),580492.3000001907,A,do,I,o,142,2,516.6999998092651,579975.6000003815,9034,WL,B,3.0
5,4.632999897003174,learn,60000.0,Fri Feb 06 2026 13:47:54 GMT-0500 (Eastern Standard Time),580675.7000007629,A,doo,I,o,161,2,700.1000003814697,579975.6000003815,9034,WL,B,3.0
5,4.815999984741211,learn,60000.0,Fri Feb 06 2026 13:47:54 GMT-0500 (Eastern Standard Time),580859.1000003815,A,door,I,r,152,2,883.5,579975.6000003815,9034,WL,B,3.0
5,4.999000072479248,learn,60000.0,Fri Feb 06 2026 13:47:54 GMT-0500 (Eastern Standard Time),581041.8000001907,A,doorenter,I,enter,159,2,1066.1999998092651,579975.6000003815,9034,WL,B,3.0
5,5.315999984741211,learn,60000.0,Fri Feb 06 2026 13:47:54 GMT-0500 (Eastern Standard Time),581358.9000005722,A,a,I,a,309,2,316.9000005722046,581042.0,9034,WL,B,4.0
5,5.483000040054321,learn,60000.0,Fri Feb 06 2026 13:47:54 GMT-0500 (Eastern Standard Time),581525.7000007629,A,ar,I,r,147,2,483.70000076293945,581042.0,9034,WL,B,4.0
5,5.665999889373779,learn,60000.0,Fri Feb 06 2026 13:47:54 GMT-0500 (Eastern Standard Time),581708.9000005722,A,arm,I,m,158,2,666.9000005722046,581042.0,9034,WL,B,4.0
5,5.915999889373779,learn,60000.0,Fri Feb 06 2026 13:47:54 GMT-0500 (Eastern Standard Time),581958.5,A,armenter,I,enter,229,2,916.5,581042.0,9034,WL,B,4.0
5,6.098999977111816,learn,60000.0,Fri Feb 06 2026 13:47:54 GMT-0500 (Eastern Standard Time),582142.0,A,s,I,s,176,2,183.0999994277954,581958.9000005722,9034,WL,B,5.0
5,6.233000040054321,learn,60000.0,Fri Feb 06 2026 13:47:54 GMT-0500 (Eastern Standard Time),582275.7000007629,A,st,I,t,117,2,316.80000019073486,581958.9000005722,9034,WL,B,5.0
5,6.5329999923706055,learn,60000.0,Fri Feb 06 2026 13:47:54 GMT-0500 (Eastern Standard Time),582575.6000003815,A,sta,I,a,288,2,616.6999998092651,581958.9000005722,9034,WL,B,5.0
5,6.733000040054321,learn,60000.0,Fri Feb 06 2026 13:47:54 GMT-0500 (Eastern Standard Time),582775.6000003815,A,star,I,r,180,2,816.6999998092651,581958.9000005722,9034,WL,B,5.0
5,7.0329999923706055,learn,60000.0,Fri Feb 06 2026 13:47:54 GMT-0500 (Eastern Standard Time),583075.2000007629,A,starenter,I,enter,276,2,1116.3000001907349,581958.9000005722,9034,WL,B,5.0
5,7.299000024795532,learn,60000.0,Fri Feb 06 2026 13:47:54 GMT-0500 (Eastern Standard Time),583342.0,A,w,I,w,260,2,266.5,583075.5,9034,WL,B,6.0
5,7.41700005531311,learn,60000.0,Fri Feb 06 2026 13:47:54 GMT-0500 (Eastern Standard Time),583459.2000007629,A,wi,I,i,101,2,383.70000076293945,583075.5,9034,WL,B,6.0
5,7.599999904632568,learn,60000.0,Fri Feb 06 2026 13:47:54 GMT-0500 (Eastern Standard Time),583642.4000005722,A,wif,I,f,152,2,566.9000005722046,583075.5,9034,WL,B,6.0
5,7.75,learn,60000.0,Fri Feb 06 2026 13:47:54 GMT-0500 (Eastern Standard Time),583792.2000007629,A,wife,I,e,138,2,716.7000007629395,583075.5,9034,WL,B,6.0
5,7.966000080108643,learn,60000.0,Fri Feb 06 2026 13:47:54 GMT-0500 (Eastern Standard Time),584008.5,A,wifeenter,I,enter,193,2,933.0,583075.5,9034,WL,B,6.0
5,8.349999904632568,learn,60000.0,Fri Feb 06 2026 13:47:54 GMT-0500 (Eastern Standard Time),584392.3000001907,A,w,I,w,367,2,383.5,584008.8000001907,9034,WL,B,7.0
5,8.466000080108643,learn,60000.0,Fri Feb 06 2026 13:47:54 GMT-0500 (Eastern Standard Time),584508.9000005722,A,wi,I,i,90,2,500.1000003814697,584008.8000001907,9034,WL,B,7.0
5,8.615999937057495,learn,60000.0,Fri Feb 06 2026 13:47:54 GMT-0500 (Eastern Standard Time),584659.0,A,win,I,n,134,2,650.1999998092651,584008.8000001907,9034,WL,B,7.0
5,8.882999897003174,learn,60000.0,Fri Feb 06 2026 13:47:54 GMT-0500 (Eastern Standard Time),584925.6000003815,A,wind,I,d,234,2,916.8000001907349,584008.8000001907,9034,WL,B,7.0
5,8.8989999294281,learn,60000.0,Fri Feb 06 2026 13:47:54 GMT-0500 (Eastern Standard Time),584941.7000007629,A,windo,I,o,6,2,932.9000005722046,584008.8000001907,9034,WL,B,7.0
5,9.532999992370605,learn,60000.0,Fri Feb 06 2026 13:47:54 GMT-0500 (Eastern Standard Time),585575.6000003815,A,window,I,w,618,2,1566.8000001907349,584008.8000001907,9034,WL,B,7.0
5,10.083999872207642,learn,60000.0,Fri Feb 06 2026 13:47:54 GMT-0500 (Eastern Standard Time),586126.2000007629,A,windowenter,I,enter,538,2,2117.4000005722046,584008.8000001907,9034,WL,B,7.0
5,11.25,learn,60000.0,Fri Feb 06 2026 13:47:54 GMT-0500 (Eastern Standard Time),587292.4000005722,A,p,I,p,1144,2,1165.9000005722046,586126.5,9034,WL,B,8.0
5,11.365999937057495,learn,60000.0,Fri Feb 06 2026 13:47:54 GMT-0500 (Eastern Standard Time),587409.0,A,pu,I,u,101,2,1282.5,586126.5,9034,WL,B,8.0
5,11.565999984741211,learn,60000.0,Fri Feb 06 2026 13:47:54 GMT-0500 (Eastern Standard Time),587609.1000003815,A,pup,I,p,178,2,1482.6000003814697,586126.5,9034,WL,B,8.0
5,11.683000087738037,learn,60000.0,Fri Feb 06 2026 13:47:54 GMT-0500 (Eastern Standard Time),587725.5,A,pupi,I,i,99,2,1599.0,586126.5,9034,WL,B,8.0
5,12.032999992370605,learn,60000.0,Fri Feb 06 2026 13:47:54 GMT-0500 (Eastern Standard Time),588075.6000003815,A,pupil,I,l,318,2,1949.1000003814697,586126.5,9034,WL,B,8.0
5,12.448999881744385,learn,60000.0,Fri Feb 06 2026 13:47:54 GMT-0500 (Eastern Standard Time),588491.9000005722,A,pupilenter,I,enter,391,2,2365.4000005722046,586126.5,9034,WL,B,8.0
5,14.466000080108643,learn,60000.0,Fri Feb 06 2026 13:47:54 GMT-0500 (Eastern Standard Time),590508.8000001907,A,c,I,c,1995,2,2016.5999994277954,588492.2000007629,9034,WL,B,9.0
5,14.683000087738037,learn,60000.0,Fri Feb 06 2026 13:47:54 GMT-0500 (Eastern Standard Time),590725.6000003815,A,ca,I,a,199,2,2233.3999996185303,588492.2000007629,9034,WL,B,9.0
5,14.966000080108643,learn,60000.0,Fri Feb 06 2026 13:47:54 GMT-0500 (Eastern Standard Time),591008.9000005722,A,cab,I,b,269,2,2516.699999809265,588492.2000007629,9034,WL,B,9.0
5,15.150000095367432,learn,60000.0,Fri Feb 06 2026 13:47:54 GMT-0500 (Eastern Standard Time),591192.3000001907,A,cabi,I,i,163,2,2700.0999994277954,588492.2000007629,9034,WL,B,9.0
5,15.33299994468689,learn,60000.0,Fri Feb 06 2026 13:47:54 GMT-0500 (Eastern Standard Time),591375.6000003815,A,cabin,I,n,164,2,2883.3999996185303,588492.2000007629,9034,WL,B,9.0
5,15.766000032424927,learn,60000.0,Fri Feb 06 2026 13:47:54 GMT-0500 (Eastern Standard Time),591808.6000003815,A,cabinenter,I,enter,419,2,3316.3999996185303,588492.2000007629,9034,WL,B,9.0
5,16.08299994468689,learn,60000.0,Fri Feb 06 2026 13:47:54 GMT-0500 (Eastern Standard Time),592125.4000005722,A,l,I,l,310,2,316.5,591808.9000005722,9034,WL,B,10.0
5,16.23300004005432,learn,60000.0,Fri Feb 06 2026 13:47:54 GMT-0500 (Eastern Standard Time),592275.5,A,la,I,a,136,2,466.5999994277954,591808.9000005722,9034,WL,B,10.0
5,16.40000009536743,learn,60000.0,Fri Feb 06 2026 13:47:54 GMT-0500 (Eastern Standard Time),592442.3000001907,A,lak,I,k,137,2,633.3999996185303,591808.9000005722,9034,WL,B,10.0
5,16.59999990463257,learn,60000.0,Fri Feb 06 2026 13:47:54 GMT-0500 (Eastern Standard Time),592642.3000001907,A,lake,I,e,186,2,833.3999996185303,591808.9000005722,9034,WL,B,10.0
5,18.216000080108643,learn,60000.0,Fri Feb 06 2026 13:47:54 GMT-0500 (Eastern Standard Time),594258.4000005722,A,lakeenter,I,enter,1593,2,2449.5,591808.9000005722,9034,WL,B,10.0
5,18.700000047683716,learn,60000.0,Fri Feb 06 2026 13:47:54 GMT-0500 (Eastern Standard Time),594742.3000001907,A,p,I,p,468,2,483.5999994277954,594258.7000007629,9034,WL,B,11.0
5,18.884000062942505,learn,60000.0,Fri Feb 06 2026 13:47:54 GMT-0500 (Eastern Standard Time),594926.2000007629,A,pi,I,i,172,2,667.5,594258.7000007629,9034,WL,B,11.0
5,19.115999937057495,learn,60000.0,Fri Feb 06 2026 13:47:54 GMT-0500 (Eastern Standard Time),595158.9000005722,A,pip,I,p,216,2,900.1999998092651,594258.7000007629,9034,WL,B,11.0
5,19.632999897003174,learn,60000.0,Fri Feb 06 2026 13:47:54 GMT-0500 (Eastern Standard Time),595675.7000007629,A,pipe,I,e,485,2,1417.0,594258.7000007629,9034,WL,B,11.0
5,20.33299994468689,learn,60000.0,Fri Feb 06 2026 13:47:54 GMT-0500 (Eastern Standard Time),596375.1000003815,A,pipeenter,I,enter,678,2,2116.3999996185303,594258.7000007629,9034,WL,B,11.0
5,26.615999937057495,learn,60000.0,Fri Feb 06 2026 13:47:54 GMT-0500 (Eastern Standard Time),602659.0,A,s,I,s,6272,2,6283.599999427795,596375.4000005722,9034,WL,B,12.0
5,26.799999952316284,learn,60000.0,Fri Feb 06 2026 13:47:54 GMT-0500 (Eastern Standard Time),602842.3000001907,A,sk,I,k,161,2,6466.89999961853,596375.4000005722,9034,WL,B,12.0
5,26.98300004005432,learn,60000.0,Fri Feb 06 2026 13:47:54 GMT-0500 (Eastern Standard Time),603025.6000003815,A,ski,I,i,169,2,6650.199999809265,596375.4000005722,9034,WL,B,12.0
5,27.16599988937378,learn,60000.0,Fri Feb 06 2026 13:47:54 GMT-0500 (Eastern Standard Time),603209.0,A,skin,I,n,151,2,6833.599999427795,596375.4000005722,9034,WL,B,12.0
5,27.48300004005432,learn,60000.0,Fri Feb 06 2026 13:47:54 GMT-0500 (Eastern Standard Time),603525.1000003815,A,skinenter,I,enter,298,2,7149.699999809265,596375.4000005722,9034,WL,B,12.0
5,28.516000032424927,learn,60000.0,Fri Feb 06 2026 13:47:54 GMT-0500 (Eastern Standard Time),604558.9000005722,A,c,I,c,1026,2,1033.4000005722046,603525.5,9034,WL,B,13.0
5,28.632999897003174,learn,60000.0,Fri Feb 06 2026 13:47:54 GMT-0500 (Eastern Standard Time),604675.6000003815,A,cl,I,l,100,2,1150.1000003814697,603525.5,9034,WL,B,13.0
5,28.83299994468689,learn,60000.0,Fri Feb 06 2026 13:47:54 GMT-0500 (Eastern Standard Time),604875.6000003815,A,clo,I,o,167,2,1350.1000003814697,603525.5,9034,WL,B,13.0
5,28.950000047683716,learn,60000.0,Fri Feb 06 2026 13:47:54 GMT-0500 (Eastern Standard Time),604992.3000001907,A,cloc,I,c,104,2,1466.8000001907349,603525.5,9034,WL,B,13.0
5,29.132999897003174,learn,60000.0,Fri Feb 06 2026 13:47:54 GMT-0500 (Eastern Standard Time),605175.7000007629,A,clock,I,k,163,2,1650.2000007629395,603525.5,9034,WL,B,13.0
5,29.716000080108643,learn,60000.0,Fri Feb 06 2026 13:47:54 GMT-0500 (Eastern Standard Time),605758.5,A,clockenter,I,enter,571,2,2233.0,603525.5,9034,WL,B,13.0
5,41.34999990463257,learn,60000.0,Fri Feb 06 2026 13:47:54 GMT-0500 (Eastern Standard Time),617392.2000007629,A,f,I,f,11624,2,11633.400000572205,605758.8000001907,9034,WL,B,14.0
5,41.532999992370605,learn,60000.0,Fri Feb 06 2026 13:47:54 GMT-0500 (Eastern Standard Time),617575.4000005722,A,fi,I,i,162,2,11816.60000038147,605758.8000001907,9034,WL,B,14.0
5,41.632999897003174,learn,60000.0,Fri Feb 06 2026 13:47:54 GMT-0500 (Eastern Standard Time),617675.5,A,fir,I,r,76,2,11916.699999809265,605758.8000001907,9034,WL,B,14.0
5,41.75,learn,60000.0,Fri Feb 06 2026 13:47:54 GMT-0500 (Eastern Standard Time),617792.3000001907,A,fire,I,e,96,2,12033.5,605758.8000001907,9034,WL,B,14.0
5,41.96600008010864,learn,60000.0,Fri Feb 06 2026 13:47:54 GMT-0500 (Eastern Standard Time),618008.5,A,fireenter,I,enter,185,2,12249.699999809265,605758.8000001907,9034,WL,B,14.0
5,44.115999937057495,learn,60000.0,Fri Feb 06 2026 13:47:54 GMT-0500 (Eastern Standard Time),620158.9000005722,A,,I,backspace,2142,2,2150.199999809265,618008.7000007629,9034,WL,B,15.0
5,45.282999992370605,learn,60000.0,Fri Feb 06 2026 13:47:54 GMT-0500 (Eastern Standard Time),621325.6000003815,A,a,I,a,1139,2,3316.8999996185303,618008.7000007629,9034,WL,B,15.0
5,46.15000009536743,learn,60000.0,Fri Feb 06 2026 13:47:54 GMT-0500 (Eastern Standard Time),622192.3000001907,A,,I,backspace,854,2,4183.599999427795,618008.7000007629,9034,WL,B,15.0
5,69.83299994468689,learn,60000.0,Fri Feb 06 2026 13:47:54 GMT-0500 (Eastern Standard Time),645875.3000001907,A,p,I,p,23667,2,27866.599999427795,618008.7000007629,9034,WL,B,15.0
6,0.7829999923706055,distr,59217.000007629395,Fri Feb 06 2026 13:47:54 GMT-0500 (Eastern Standard Time),718358.9000005722,B,v,I,v,765,2,782.9000005722046,717576.0,9034,WL,B,1.0
6,1.75,distr,58250.0,Fri Feb 06 2026 13:47:54 GMT-0500 (Eastern Standard Time),719325.6000003815,B,,I,backspace,938,2,1749.6000003814697,717576.0,9034,WL,B,1.0
6,2.1500000953674316,distr,57849.99990463257,Fri Feb 06 2026 13:47:54 GMT-0500 (Eastern Standard Time),719725.5,B,b,I,b,373,2,2149.5,717576.0,9034,WL,B,1.0
6,2.4170000553131104,distr,57582.99994468689,Fri Feb 06 2026 13:47:54 GMT-0500 (Eastern Standard Time),719992.2000007629,B,bu,I,u,245,2,2416.2000007629395,717576.0,9034,WL,B,1.0
6,2.5,distr,57500.0,Fri Feb 06 2026 13:47:54 GMT-0500 (Eastern Standard Time),720075.5,B,bui,I,i,58,2,2499.5,717576.0,9034,WL,B,1.0
6,2.8329999446868896,distr,57167.00005531311,Fri Feb 06 2026 13:47:54 GMT-0500 (Eastern Standard Time),720408.7000007629,B,buil,I,l,304,2,2832.7000007629395,717576.0,9034,WL,B,1.0
6,3.200000047683716,distr,56799.999952316284,Fri Feb 06 2026 13:47:54 GMT-0500 (Eastern Standard Time),720775.5,B,build,I,d,347,2,3199.5,717576.0,9034,WL,B,1.0
6,3.3329999446868896,distr,56667.00005531311,Fri Feb 06 2026 13:47:54 GMT-0500 (Eastern Standard Time),720908.9000005722,B,buildi,I,i,108,2,3332.9000005722046,717576.0,9034,WL,B,1.0
6,3.4830000400543213,distr,56516.99995994568,Fri Feb 06 2026 13:47:54 GMT-0500 (Eastern Standard Time),721058.9000005722,B,buildin,I,n,134,2,3482.9000005722046,717576.0,9034,WL,B,1.0
6,3.617000102996826,distr,56382.999897003174,Fri Feb 06 2026 13:47:54 GMT-0500 (Eastern Standard Time),721192.2000007629,B,building,I,g,106,2,3616.2000007629395,717576.0,9034,WL,B,1.0
6,3.933000087738037,distr,56066.99991226196,Fri Feb 06 2026 13:47:54 GMT-0500 (Eastern Standard Time),721508.4000005722,B,buildingenter,I,enter,290,2,3932.4000005722046,717576.0,9034,WL,B,1.0
6,4.233000040054321,distr,55766.99995994568,Fri Feb 06 2026 13:47:54 GMT-0500 (Eastern Standard Time),721808.8000001907,B,f,I,f,290,2,300.0999994277954,721508.7000007629,9034,WL,B,2.0
6,4.483000040054321,distr,55516.99995994568,Fri Feb 06 2026 13:47:54 GMT-0500 (Eastern Standard Time),722058.9000005722,B,fi,I,i,224,2,550.1999998092651,721508.7000007629,9034,WL,B,2.0
6,4.650000095367432,distr,55349.99990463257,Fri Feb 06 2026 13:47:54 GMT-0500 (Eastern Standard Time),722225.5,B,fir,I,r,153,2,716.7999992370605,721508.7000007629,9034,WL,B,2.0
6,5.25,distr,54750.0,Fri Feb 06 2026 13:47:54 GMT-0500 (Eastern Standard Time),722825.5,B,fi,I,backspace,578,2,1316.7999992370605,721508.7000007629,9034,WL,B,2.0
6,5.382999897003174,distr,54617.000102996826,Fri Feb 06 2026 13:47:54 GMT-0500 (Eastern Standard Time),722958.7000007629,B,f,I,backspace,122,2,1450.0,721508.7000007629,9034,WL,B,2.0
6,5.566999912261963,distr,54433.00008773804,Fri Feb 06 2026 13:47:54 GMT-0500 (Eastern Standard Time),723142.2000007629,B,fr,I,r,160,2,1633.5,721508.7000007629,9034,WL,B,2.0
6,5.683000087738037,distr,54316.99991226196,Fri Feb 06 2026 13:47:54 GMT-0500 (Eastern Standard Time),723258.9000005722,B,fri,I,i,92,2,1750.1999998092651,721508.7000007629,9034,WL,B,2.0
6,5.799999952316284,distr,54200.000047683716,Fri Feb 06 2026 13:47:54 GMT-0500 (Eastern Standard Time),723375.4000005722,B,frie,I,e,102,2,1866.6999998092651,721508.7000007629,9034,WL,B,2.0
6,5.933000087738037,distr,54066.99991226196,Fri Feb 06 2026 13:47:54 GMT-0500 (Eastern Standard Time),723508.8000001907,B,frien,I,n,108,2,2000.0999994277954,721508.7000007629,9034,WL,B,2.0
6,6.132999897003174,distr,53867.000102996826,Fri Feb 06 2026 13:47:54 GMT-0500 (Eastern Standard Time),723708.8000001907,B,friend,I,d,168,2,2200.0999994277954,721508.7000007629,9034,WL,B,2.0
6,6.398999929428101,distr,53601.0000705719,Fri Feb 06 2026 13:47:54 GMT-0500 (Eastern Standard Time),723975.1000003815,B,friendenter,I,enter,247,2,2466.3999996185303,721508.7000007629,9034,WL,B,2.0
6,9.33299994468689,distr,50667.00005531311,Fri Feb 06 2026 13:47:54 GMT-0500 (Eastern Standard Time),726908.3000001907,B,c,I,c,2927,2,2932.8999996185303,723975.4000005722,9034,WL,B,3.0
6,9.650000095367432,distr,50349.99990463257,Fri Feb 06 2026 13:47:54 GMT-0500 (Eastern Standard Time),727225.5,B,ce,I,e,296,2,3250.0999994277954,723975.4000005722,9034,WL,B,3.0
6,9.867000102996826,distr,50132.999897003174,Fri Feb 06 2026 13:47:54 GMT-0500 (Eastern Standard Time),727442.2000007629,B,cel,I,l,203,2,3466.800000190735,723975.4000005722,9034,WL,B,3.0
6,10.066999912261963,distr,49933.00008773804,Fri Feb 06 2026 13:47:54 GMT-0500 (Eastern Standard Time),727642.1000003815,B,cell,I,l,177,2,3666.699999809265,723975.4000005722,9034,WL,B,3.0
6,10.33299994468689,distr,49667.00005531311,Fri Feb 06 2026 13:47:54 GMT-0500 (Eastern Standard Time),727908.3000001907,B,cellenter,I,enter,241,2,3932.8999996185303,723975.4000005722,9034,WL,B,3.0
6,14.132999897003174,distr,45867.000102996826,Fri Feb 06 2026 13:47:54 GMT-0500 (Eastern Standard Time),731708.8000001907,B,b,I,b,3778,2,3800.199999809265,727908.6000003815,9034,WL,B,4.0
6,14.382999897003174,distr,45617.000102996826,Fri Feb 06 2026 13:47:54 GMT-0500 (Eastern Standard Time),731958.8000001907,B,bb,I,b,229,2,4050.199999809265,727908.6000003815,9034,WL,B,4.0
6,14.450000047683716,distr,45549.999952316284,Fri Feb 06 2026 13:47:54 GMT-0500 (Eastern Standard Time),732025.4000005722,B,bba,I,a,44,2,4116.800000190735,727908.6000003815,9034,WL,B,4.0
6,15.117000102996826,distr,44882.999897003174,Fri Feb 06 2026 13:47:54 GMT-0500 (Eastern Standard Time),732692.2000007629,B,bb,I,backspace,650,2,4783.60000038147,727908.6000003815,9034,WL,B,4.0
6,15.282999992370605,distr,44717.000007629395,Fri Feb 06 2026 13:47:54 GMT-0500 (Eastern Standard Time),732858.8000001907,B,b,I,backspace,142,2,4950.199999809265,727908.6000003815,9034,WL,B,4.0
6,15.382999897003174,distr,44617.000102996826,Fri Feb 06 2026 13:47:54 GMT-0500 (Eastern Standard Time),732958.6000003815,B,ba,I,a,83,2,5050.0,727908.6000003815,9034,WL,B,4.0
6,15.532999992370605,distr,44467.000007629395,Fri Feb 06 2026 13:47:54 GMT-0500 (Eastern Standard Time),733108.9000005722,B,bab,I,b,129,2,5200.300000190735,727908.6000003815,9034,WL,B,4.0
6,15.75,distr,44250.0,Fri Feb 06 2026 13:47:54 GMT-0500 (Eastern Standard Time),733325.3000001907,B,baby,I,y,199,2,5416.699999809265,727908.6000003815,9034,WL,B,4.0
6,16.032999992370605,distr,43967.000007629395,Fri Feb 06 2026 13:47:54 GMT-0500 (Eastern Standard Time),733608.3000001907,B,babyenter,I,enter,261,2,5699.699999809265,727908.6000003815,9034,WL,B,4.0
6,16.282999992370605,distr,43717.000007629395,Fri Feb 06 2026 13:47:54 GMT-0500 (Eastern Standard Time),733858.8000001907,B,o,I,o,239,2,250.19999980926514,733608.6000003815,9034,WL,B,5.0
6,16.433000087738037,distr,43566.99991226196,Fri Feb 06 2026 13:47:54 GMT-0500 (Eastern Standard Time),734008.8000001907,B,oc,I,c,129,2,400.19999980926514,733608.6000003815,9034,WL,B,5.0
6,16.700000047683716,distr,43299.999952316284,Fri Feb 06 2026 13:47:54 GMT-0500 (Eastern Standard Time),734275.5,B,oce,I,e,250,2,666.8999996185303,733608.6000003815,9034,WL,B,5.0
6,16.782999992370605,distr,43217.000007629395,Fri Feb 06 2026 13:47:54 GMT-0500 (Eastern Standard Time),734358.8000001907,B,ocea,I,a,65,2,750.1999998092651,733608.6000003815,9034,WL,B,5.0
6,16.91700005531311,distr,43082.99994468689,Fri Feb 06 2026 13:47:54 GMT-0500 (Eastern Standard Time),734492.2000007629,B,ocean,I,n,108,2,883.6000003814697,733608.6000003815,9034,WL,B,5.0
6,17.198999881744385,distr,42801.000118255615,Fri Feb 06 2026 13:47:54 GMT-0500 (Eastern Standard Time),734775.0,B,oceanenter,I,enter,261,2,1166.3999996185303,733608.6000003815,9034,WL,B,5.0
6,22.549999952316284,distr,37450.000047683716,Fri Feb 06 2026 13:47:54 GMT-0500 (Eastern Standard Time),740125.4000005722,B,d,I,d,5328,2,5350.10000038147,734775.3000001907,9034,WL,B,6.0
6,22.816999912261963,distr,37183.00008773804,Fri Feb 06 2026 13:47:54 GMT-0500 (Eastern Standard Time),740392.2000007629,B,dr,I,r,245,2,5616.900000572205,734775.3000001907,9034,WL,B,6.0
6,22.950000047683716,distr,37049.999952316284,Fri Feb 06 2026 13:47:54 GMT-0500 (Eastern Standard Time),740525.6000003815,B,dre,I,e,108,2,5750.300000190735,734775.3000001907,9034,WL,B,6.0
6,23.08299994468689,distr,36917.00005531311,Fri Feb 06 2026 13:47:54 GMT-0500 (Eastern Standard Time),740658.8000001907,B,dres,I,s,117,2,5883.5,734775.3000001907,9034,WL,B,6.0
6,23.316999912261963,distr,36683.00008773804,Fri Feb 06 2026 13:47:54 GMT-0500 (Eastern Standard Time),740892.2000007629,B,dress,I,s,200,2,6116.900000572205,734775.3000001907,9034,WL,B,6.0
6,23.999000072479248,distr,36000.99992752075,Fri Feb 06 2026 13:47:54 GMT-0500 (Eastern Standard Time),741575.0,B,dressenter,I,enter,662,2,6799.699999809265,734775.3000001907,9034,WL,B,6.0
6,34.31699991226196,distr,25683.000087738037,Fri Feb 06 2026 13:47:54 GMT-0500 (Eastern Standard Time),751892.2000007629,B,l,I,l,10304,2,10316.800000190735,741575.4000005722,9034,WL,B,7.0
6,34.66700005531311,distr,25332.99994468689,Fri Feb 06 2026 13:47:54 GMT-0500 (Eastern Standard Time),752242.2000007629,B,li,I,i,335,2,10666.800000190735,741575.4000005722,9034,WL,B,7.0
6,34.882999897003174,distr,25117.000102996826,Fri Feb 06 2026 13:47:54 GMT-0500 (Eastern Standard Time),752458.8000001907,B,lip,I,p,185,2,10883.39999961853,741575.4000005722,9034,WL,B,7.0
6,35.31599998474121,distr,24684.00001525879,Fri Feb 06 2026 13:47:54 GMT-0500 (Eastern Standard Time),752891.7000007629,B,lipenter,I,enter,407,2,11316.300000190735,741575.4000005722,9034,WL,B,7.0
6,40.882999897003174,distr,19117.000102996826,Fri Feb 06 2026 13:47:54 GMT-0500 (Eastern Standard Time),758458.6000003815,B,s,I,s,5548,2,5566.60000038147,752892.0,9034,WL,B,8.0
6,41.117000102996826,distr,18882.999897003174,Fri Feb 06 2026 13:47:54 GMT-0500 (Eastern Standard Time),758692.2000007629,B,sm,I,m,214,2,5800.200000762939,752892.0,9034,WL,B,8.0
6,41.31699991226196,distr,18683.000087738037,Fri Feb 06 2026 13:47:54 GMT-0500 (Eastern Standard Time),758892.1000003815,B,sme,I,e,176,2,6000.10000038147,752892.0,9034,WL,B,8.0
6,41.3989999294281,distr,18601.0000705719,Fri Feb 06 2026 13:47:54 GMT-0500 (Eastern Standard Time),758975.0,B,smel,I,l,65,2,6083.0,752892.0,9034,WL,B,8.0
6,41.632999897003174,distr,18367.000102996826,Fri Feb 06 2026 13:47:54 GMT-0500 (Eastern Standard Time),759208.8000001907,B,smell,I,l,215,2,6316.800000190735,752892.0,9034,WL,B,8.0
6,41.848999977111816,distr,18151.000022888184,Fri Feb 06 2026 13:47:54 GMT-0500 (Eastern Standard Time),759424.9000005722,B,smellenter,I,enter,202,2,6532.900000572205,752892.0,9034,WL,B,8.0
6,60.01699995994568,distr,-16.99995994567871,Fri Feb 06 2026 13:47:54 GMT-0500 (Eastern Standard Time),777592.2000007629,B,None,I,None,18161,2,18166.900000572205,759425.3000001907,9034,WL,B,9.0
7,0.7320001125335693,immed,59267.99988746643,Fri Feb 06 2026 13:47:54 GMT-0500 (Eastern Standard Time),788557.9000005722,A,s,I,s,722,2,732.3000001907349,787825.6000003815,9034,WL,B,1.0
7,0.9489998817443848,immed,59051.000118255615,Fri Feb 06 2026 13:47:54 GMT-0500 (Eastern Standard Time),788774.7000007629,A,st,I,t,198,2,949.1000003814697,787825.6000003815,9034,WL,B,1.0
7,1.3659999370574951,immed,58634.000062942505,Fri Feb 06 2026 13:47:54 GMT-0500 (Eastern Standard Time),789192.1000003815,A,str,I,r,400,2,1366.5,787825.6000003815,9034,WL,B,1.0
7,1.6670000553131104,immed,58332.99994468689,Fri Feb 06 2026 13:47:54 GMT-0500 (Eastern Standard Time),789492.2000007629,A,stre,I,e,283,2,1666.6000003814697,787825.6000003815,9034,WL,B,1.0
7,1.8829998970031738,immed,58117.000102996826,Fri Feb 06 2026 13:47:54 GMT-0500 (Eastern Standard Time),789708.8000001907,A,stree,I,e,206,2,1883.1999998092651,787825.6000003815,9034,WL,B,1.0
7,2.049999952316284,immed,57950.000047683716,Fri Feb 06 2026 13:47:54 GMT-0500 (Eastern Standard Time),789875.3000001907,A,street,I,t,141,2,2049.699999809265,787825.6000003815,9034,WL,B,1.0
7,2.4159998893737793,immed,57584.00011062622,Fri Feb 06 2026 13:47:54 GMT-0500 (Eastern Standard Time),790241.6000003815,A,streetenter,I,enter,351,2,2416.0,787825.6000003815,9034,WL,B,1.0
7,2.9000000953674316,immed,57099.99990463257,Fri Feb 06 2026 13:47:54 GMT-0500 (Eastern Standard Time),790725.4000005722,A,g,I,g,469,2,483.5,790241.9000005722,9034,WL,B,2.0
7,3.115999937057495,immed,56884.000062942505,Fri Feb 06 2026 13:47:54 GMT-0500 (Eastern Standard Time),790941.8000001907,A,gr,I,r,205,2,699.8999996185303,790241.9000005722,9034,WL,B,2.0
7,3.2829999923706055,immed,56717.000007629395,Fri Feb 06 2026 13:47:54 GMT-0500 (Eastern Standard Time),791108.7000007629,A,gra,I,a,149,2,866.8000001907349,790241.9000005722,9034,WL,B,2.0
7,3.4660000801086426,immed,56533.99991989136,Fri Feb 06 2026 13:47:54 GMT-0500 (Eastern Standard Time),791291.9000005722,A,gras,I,s,150,2,1050.0,790241.9000005722,9034,WL,B,2.0
7,3.700000047683716,immed,56299.999952316284,Fri Feb 06 2026 13:47:54 GMT-0500 (Eastern Standard Time),791525.4000005722,A,grass,I,s,217,2,1283.5,790241.9000005722,9034,WL,B,2.0
7,4.165999889373779,immed,55834.00011062622,Fri Feb 06 2026 13:47:54 GMT-0500 (Eastern Standard Time),791991.6000003815,A,grassenter,I,enter,444,2,1749.6999998092651,790241.9000005722,9034,WL,B,2.0
7,5.349999904632568,immed,54650.00009536743,Fri Feb 06 2026 13:47:54 GMT-0500 (Eastern Standard Time),793175.3000001907,A,s,I,s,1167,2,1183.3999996185303,791991.9000005722,9034,WL,B,3.0
7,5.716000080108643,immed,54283.99991989136,Fri Feb 06 2026 13:47:54 GMT-0500 (Eastern Standard Time),793542.1000003815,A,st,I,t,348,2,1550.1999998092651,791991.9000005722,9034,WL,B,3.0
7,5.900000095367432,immed,54099.99990463257,Fri Feb 06 2026 13:47:54 GMT-0500 (Eastern Standard Time),793725.4000005722,A,sta,I,a,157,2,1733.5,791991.9000005722,9034,WL,B,3.0
7,6.066999912261963,immed,53933.00008773804,Fri Feb 06 2026 13:47:54 GMT-0500 (Eastern Standard Time),793892.1000003815,A,star,I,r,144,2,1900.1999998092651,791991.9000005722,9034,WL,B,3.0
7,6.400000095367432,immed,53599.99990463257,Fri Feb 06 2026 13:47:54 GMT-0500 (Eastern Standard Time),794225.5,A,starm,I,m,311,2,2233.5999994277954,791991.9000005722,9034,WL,B,3.0
7,7.25,immed,52750.0,Fri Feb 06 2026 13:47:54 GMT-0500 (Eastern Standard Time),795075.5,A,star,I,backspace,834,2,3083.5999994277954,791991.9000005722,9034,WL,B,3.0
7,7.683000087738037,immed,52316.99991226196,Fri Feb 06 2026 13:47:54 GMT-0500 (Eastern Standard Time),795508.3000001907,A,starenter,I,enter,415,2,3516.3999996185303,791991.9000005722,9034,WL,B,3.0
7,8.032999992370605,immed,51967.000007629395,Fri Feb 06 2026 13:47:54 GMT-0500 (Eastern Standard Time),795858.7000007629,A,a,I,a,339,2,350.1000003814697,795508.6000003815,9034,WL,B,4.0
7,8.233000040054321,immed,51766.99995994568,Fri Feb 06 2026 13:47:54 GMT-0500 (Eastern Standard Time),796058.7000007629,A,ar,I,r,175,2,550.1000003814697,795508.6000003815,9034,WL,B,4.0
7,8.382999897003174,immed,51617.000102996826,Fri Feb 06 2026 13:47:54 GMT-0500 (Eastern Standard Time),796208.7000007629,A,arm,I,m,135,2,700.1000003814697,795508.6000003815,9034,WL,B,4.0
7,8.782999992370605,immed,51217.000007629395,Fri Feb 06 2026 13:47:54 GMT-0500 (Eastern Standard Time),796608.3000001907,A,armenter,I,enter,378,2,1099.6999998092651,795508.6000003815,9034,WL,B,4.0
7,14.75,immed,45250.0,Fri Feb 06 2026 13:47:54 GMT-0500 (Eastern Standard Time),802575.4000005722,A,w,I,w,5959,2,5966.800000190735,796608.6000003815,9034,WL,B,5.0
7,14.900000095367432,immed,45099.99990463257,Fri Feb 06 2026 13:47:54 GMT-0500 (Eastern Standard Time),802725.4000005722,A,wi,I,i,130,2,6116.800000190735,796608.6000003815,9034,WL,B,5.0
7,15.049999952316284,immed,44950.000047683716,Fri Feb 06 2026 13:47:54 GMT-0500 (Eastern Standard Time),802875.4000005722,A,wif,I,f,124,2,6266.800000190735,796608.6000003815,9034,WL,B,5.0
7,15.132999897003174,immed,44867.000102996826,Fri Feb 06 2026 13:47:54 GMT-0500 (Eastern Standard Time),802958.6000003815,A,wife,I,e,71,2,6350.0,796608.6000003815,9034,WL,B,5.0
7,15.33299994468689,immed,44667.00005531311,Fri Feb 06 2026 13:47:54 GMT-0500 (Eastern Standard Time),803158.2000007629,A,wifeenter,I,enter,173,2,6549.60000038147,796608.6000003815,9034,WL,B,5.0
7,15.66700005531311,immed,44332.99994468689,Fri Feb 06 2026 13:47:54 GMT-0500 (Eastern Standard Time),803492.1000003815,A,w,I,w,320,2,333.5,803158.6000003815,9034,WL,B,6.0
7,15.782999992370605,immed,44217.000007629395,Fri Feb 06 2026 13:47:54 GMT-0500 (Eastern Standard Time),803608.8000001907,A,wi,I,i,94,2,450.19999980926514,803158.6000003815,9034,WL,B,6.0
7,15.900000095367432,immed,44099.99990463257,Fri Feb 06 2026 13:47:54 GMT-0500 (Eastern Standard Time),803725.3000001907,A,win,I,n,99,2,566.6999998092651,803158.6000003815,9034,WL,B,6.0
7,16.09999990463257,immed,43900.00009536743,Fri Feb 06 2026 13:47:54 GMT-0500 (Eastern Standard Time),803925.4000005722,A,wind,I,d,172,2,766.8000001907349,803158.6000003815,9034,WL,B,6.0
7,16.200000047683716,immed,43799.999952316284,Fri Feb 06 2026 13:47:54 GMT-0500 (Eastern Standard Time),804025.3000001907,A,windo,I,o,77,2,866.6999998092651,803158.6000003815,9034,WL,B,6.0
7,16.66700005531311,immed,43332.99994468689,Fri Feb 06 2026 13:47:54 GMT-0500 (Eastern Standard Time),804492.1000003815,A,window,I,w,441,2,1333.5,803158.6000003815,9034,WL,B,6.0
7,16.865999937057495,immed,43134.000062942505,Fri Feb 06 2026 13:47:54 GMT-0500 (Eastern Standard Time),804691.6000003815,A,windowenter,I,enter,182,2,1533.0,803158.6000003815,9034,WL,B,6.0
7,17.5,immed,42500.0,Fri Feb 06 2026 13:47:54 GMT-0500 (Eastern Standard Time),805325.4000005722,A,p,I,p,611,2,633.5,804691.9000005722,9034,WL,B,7.0
7,17.966000080108643,immed,42033.99991989136,Fri Feb 06 2026 13:47:54 GMT-0500 (Eastern Standard Time),805792.1000003815,A,pu,I,u,454,2,1100.1999998092651,804691.9000005722,9034,WL,B,7.0
7,18.200000047683716,immed,41799.999952316284,Fri Feb 06 2026 13:47:54 GMT-0500 (Eastern Standard Time),806025.4000005722,A,pup,I,p,213,2,1333.5,804691.9000005722,9034,WL,B,7.0
7,18.365999937057495,immed,41634.000062942505,Fri Feb 06 2026 13:47:54 GMT-0500 (Eastern Standard Time),806192.0,A,pupi,I,i,149,2,1500.0999994277954,804691.9000005722,9034,WL,B,7.0
7,18.73300004005432,immed,41266.99995994568,Fri Feb 06 2026 13:47:54 GMT-0500 (Eastern Standard Time),806558.6000003815,A,pupil,I,l,356,2,1866.6999998092651,804691.9000005722,9034,WL,B,7.0
7,19.1489999294281,immed,40851.0000705719,Fri Feb 06 2026 13:47:54 GMT-0500 (Eastern Standard Time),806974.9000005722,A,pupilenter,I,enter,403,2,2283.0,804691.9000005722,9034,WL,B,7.0
7,19.516000032424927,immed,40483.99996757507,Fri Feb 06 2026 13:47:54 GMT-0500 (Eastern Standard Time),807341.9000005722,A,p,I,p,359,2,366.69999980926514,806975.2000007629,9034,WL,B,8.0
7,19.73300004005432,immed,40266.99995994568,Fri Feb 06 2026 13:47:54 GMT-0500 (Eastern Standard Time),807558.8000001907,A,pi,I,i,197,2,583.5999994277954,806975.2000007629,9034,WL,B,8.0
7,20.016000032424927,immed,39983.99996757507,Fri Feb 06 2026 13:47:54 GMT-0500 (Eastern Standard Time),807842.1000003815,A,pip,I,p,261,2,866.8999996185303,806975.2000007629,9034,WL,B,8.0
7,20.41599988937378,immed,39584.00011062622,Fri Feb 06 2026 13:47:54 GMT-0500 (Eastern Standard Time),808242.0,A,pipe,I,e,384,2,1266.7999992370605,806975.2000007629,9034,WL,B,8.0
7,20.83299994468689,immed,39167.00005531311,Fri Feb 06 2026 13:47:54 GMT-0500 (Eastern Standard Time),808658.2000007629,A,pipeenter,I,enter,399,2,1683.0,806975.2000007629,9034,WL,B,8.0
7,21.115999937057495,immed,38884.000062942505,Fri Feb 06 2026 13:47:54 GMT-0500 (Eastern Standard Time),808941.8000001907,A,f,I,f,276,2,283.19999980926514,808658.6000003815,9034,WL,B,9.0
7,21.282999992370605,immed,38717.000007629395,Fri Feb 06 2026 13:47:54 GMT-0500 (Eastern Standard Time),809108.7000007629,A,fi,I,i,149,2,450.1000003814697,808658.6000003815,9034,WL,B,9.0
7,21.433000087738037,immed,38566.99991226196,Fri Feb 06 2026 13:47:54 GMT-0500 (Eastern Standard Time),809258.7000007629,A,fir,I,r,126,2,600.1000003814697,808658.6000003815,9034,WL,B,9.0
7,21.549999952316284,immed,38450.000047683716,Fri Feb 06 2026 13:47:54 GMT-0500 (Eastern Standard Time),809375.3000001907,A,fire,I,e,104,2,716.6999998092651,808658.6000003815,9034,WL,B,9.0
7,21.933000087738037,immed,38066.99991226196,Fri Feb 06 2026 13:47:54 GMT-0500 (Eastern Standard Time),809758.2000007629,A,fireenter,I,enter,364,2,1099.6000003814697,808658.6000003815,9034,WL,B,9.0
7,22.266000032424927,immed,37733.99996757507,Fri Feb 06 2026 13:47:54 GMT-0500 (Eastern Standard Time),810092.1000003815,A,c,I,c,312,2,333.5,809758.6000003815,9034,WL,B,10.0
7,22.365999937057495,immed,37634.000062942505,Fri Feb 06 2026 13:47:54 GMT-0500 (Eastern Standard Time),810192.1000003815,A,cl,I,l,86,2,433.5,809758.6000003815,9034,WL,B,10.0
7,22.58299994468689,immed,37417.00005531311,Fri Feb 06 2026 13:47:54 GMT-0500 (Eastern Standard Time),810408.9000005722,A,clo,I,o,194,2,650.3000001907349,809758.6000003815,9034,WL,B,10.0
7,22.766000032424927,immed,37233.99996757507,Fri Feb 06 2026 13:47:54 GMT-0500 (Eastern Standard Time),810592.0,A,cloc,I,c,161,2,833.3999996185303,809758.6000003815,9034,WL,B,10.0
7,22.98300004005432,immed,37016.99995994568,Fri Feb 06 2026 13:47:54 GMT-0500 (Eastern Standard Time),810808.8000001907,A,clock,I,k,195,2,1050.1999998092651,809758.6000003815,9034,WL,B,10.0
7,24.1489999294281,immed,35851.0000705719,Fri Feb 06 2026 13:47:54 GMT-0500 (Eastern Standard Time),811975.0,A,clockenter,I,enter,1139,2,2216.3999996185303,809758.6000003815,9034,WL,B,10.0
7,24.799999952316284,immed,35200.000047683716,Fri Feb 06 2026 13:47:54 GMT-0500 (Eastern Standard Time),812625.4000005722,A,c,I,c,640,2,650.1000003814697,811975.3000001907,9034,WL,B,11.0
7,24.98300004005432,immed,35016.99995994568,Fri Feb 06 2026 13:47:54 GMT-0500 (Eastern Standard Time),812808.7000007629,A,ca,I,a,161,2,833.4000005722046,811975.3000001907,9034,WL,B,11.0
7,25.16599988937378,immed,34834.00011062622,Fri Feb 06 2026 13:47:54 GMT-0500 (Eastern Standard Time),812992.1000003815,A,cab,I,b,170,2,1016.8000001907349,811975.3000001907,9034,WL,B,11.0
7,25.33299994468689,immed,34667.00005531311,Fri Feb 06 2026 13:47:54 GMT-0500 (Eastern Standard Time),813158.7000007629,A,cabi,I,i,139,2,1183.4000005722046,811975.3000001907,9034,WL,B,11.0
7,25.5,immed,34500.0,Fri Feb 06 2026 13:47:54 GMT-0500 (Eastern Standard Time),813325.3000001907,A,cabin,I,n,157,2,1350.0,811975.3000001907,9034,WL,B,11.0
7,25.882999897003174,immed,34117.000102996826,Fri Feb 06 2026 13:47:54 GMT-0500 (Eastern Standard Time),813708.3000001907,A,cabinenter,I,enter,357,2,1733.0,811975.3000001907,9034,WL,B,11.0
7,38.41599988937378,immed,21584.00011062622,Fri Feb 06 2026 13:47:54 GMT-0500 (Eastern Standard Time),826242.0,A,s,I,s,12523,2,12533.39999961853,813708.6000003815,9034,WL,B,12.0
7,39.115999937057495,immed,20884.000062942505,Fri Feb 06 2026 13:47:54 GMT-0500 (Eastern Standard Time),826941.9000005722,A,,I,backspace,689,2,13233.300000190735,813708.6000003815,9034,WL,B,12.0
7,39.18300008773804,immed,20816.999912261963,Fri Feb 06 2026 13:47:54 GMT-0500 (Eastern Standard Time),827008.4000005722,A,d,I,d,53,2,13299.800000190735,813708.6000003815,9034,WL,B,12.0
7,39.33299994468689,immed,20667.00005531311,Fri Feb 06 2026 13:47:54 GMT-0500 (Eastern Standard Time),827158.2000007629,A,do,I,o,130,2,13449.60000038147,813708.6000003815,9034,WL,B,12.0
7,39.5,immed,20500.0,Fri Feb 06 2026 13:47:54 GMT-0500 (Eastern Standard Time),827325.4000005722,A,doo,I,o,145,2,13616.800000190735,813708.6000003815,9034,WL,B,12.0
7,39.59999990463257,immed,20400.00009536743,Fri Feb 06 2026 13:47:54 GMT-0500 (Eastern Standard Time),827425.3000001907,A,door,I,r,86,2,13716.699999809265,813708.6000003815,9034,WL,B,12.0
7,39.79900002479553,immed,20200.999975204468,Fri Feb 06 2026 13:47:54 GMT-0500 (Eastern Standard Time),827624.9000005722,A,doorenter,I,enter,176,2,13916.300000190735,813708.6000003815,9034,WL,B,12.0
7,60.01699995994568,immed,-16.99995994567871,Fri Feb 06 2026 13:47:54 GMT-0500 (Eastern Standard Time),847842.2000007629,A,None,I,None,20211,2,20216.900000572205,827625.3000001907,9034,WL,B,13.0
