acc_sum,block,block_c,condition,correct,correct_response,datetime,endtime,flanker,jitter,project,response,response_test_buffer_response,response_test_target_response,response_time,response_time_test_buffer_response,response_time_test_target_response,row_sel,session_number,start_end,starttime,subject_id,target,task,task_vers,time_test_buffer,time_test_buffer_response,time_test_constants,time_test_flanker,time_test_jitter,time_test_logger,time_test_target,time_test_target_response,time_test_variables,trial
1,prac,1,con,1,z,Thu Jun 04 2026 12:51:09 GMT-0500 (Central Daylight Time),118864.0,rage,1000,O,z,,,1081,,,15,1,3371.699999988079,115492.30000001192,7752,rage,AF,C,,,,,,,,,,1
2,prac,1,con,1,z,Thu Jun 04 2026 12:51:09 GMT-0500 (Central Daylight Time),121713.89999997616,love,1000,O,z,,,553,,,11,1,2846.0,118867.89999997616,7752,love,AF,C,,,,,,,,,,2
3,prac,1,con,1,z,Thu Jun 04 2026 12:51:09 GMT-0500 (Central Daylight Time),124364.10000002384,brutal,800,O,z,,,537,,,13,1,2645.600000023842,121718.5,7752,brutal,AF,C,,,,,,,,,,3
4,prac,1,inc,1,m,Thu Jun 04 2026 12:51:09 GMT-0500 (Central Daylight Time),127230.0,elated,900,O,m,,,651,,,6,1,2862.5,124367.5,7752,napkin,AF,C,,,,,,,,,,4
5,prac,1,inc,1,m,Thu Jun 04 2026 12:51:09 GMT-0500 (Central Daylight Time),130278.5,brutal,1100,O,m,,,641,,,8,1,3044.5,127234.0,7752,window,AF,C,,,,,,,,,,5
6,prac,1,inc,1,m,Thu Jun 04 2026 12:51:09 GMT-0500 (Central Daylight Time),133444.80000001192,hate,1100,O,m,,,760,,,4,1,3162.699999988079,130282.10000002384,7752,film,AF,C,,,,,,,,,,6
7,prac,1,con,1,m,Thu Jun 04 2026 12:51:09 GMT-0500 (Central Daylight Time),136060.39999997616,jacket,800,O,m,,,502,,,5,1,2611.599999964237,133448.80000001192,7752,jacket,AF,C,,,,,,,,,,7
8,prac,1,con,1,m,Thu Jun 04 2026 12:51:09 GMT-0500 (Central Daylight Time),138809.39999997616,bell,1000,O,m,,,437,,,3,1,2745.099999964237,136064.30000001192,7752,bell,AF,C,,,,,,,,,,8
9,prac,1,con,1,m,Thu Jun 04 2026 12:51:09 GMT-0500 (Central Daylight Time),141324.5,step,800,O,m,,,408,,,1,1,2511.5,138813.0,7752,step,AF,C,,,,,,,,,,9
9,prac,1,inc,0,z,Thu Jun 04 2026 12:51:09 GMT-0500 (Central Daylight Time),144224.10000002384,window,1100,O,m,,,500,,,16,1,2896.100000023842,141328.0,7752,temper,AF,C,,,,,,,,,,10
10,prac,1,inc,1,m,Thu Jun 04 2026 12:51:09 GMT-0500 (Central Daylight Time),147107.0,kind,900,O,m,,,680,,,2,1,2879.5,144227.5,7752,rock,AF,C,,,,,,,,,,11
10,prac,1,inc,0,z,Thu Jun 04 2026 12:51:09 GMT-0500 (Central Daylight Time),149805.89999997616,film,900,O,m,,,484,,,14,1,2695.2999999523163,147110.60000002384,7752,hate,AF,C,,,,,,,,,,12
11,prac,1,inc,1,z,Thu Jun 04 2026 12:51:09 GMT-0500 (Central Daylight Time),152872.0,rock,900,O,z,,,850,,,10,1,3060.899999976158,149811.10000002384,7752,kind,AF,C,,,,,,,,,,13
12,prac,1,con,1,z,Thu Jun 04 2026 12:51:09 GMT-0500 (Central Daylight Time),155420.10000002384,elated,800,O,z,,,444,,,9,1,2544.400000035763,152875.69999998808,7752,elated,AF,C,,,,,,,,,,14
13,prac,1,con,1,m,Thu Jun 04 2026 12:51:09 GMT-0500 (Central Daylight Time),158203.10000002384,remote,1000,O,m,,,478,,,7,1,2779.2000000476837,155423.89999997616,7752,remote,AF,C,,,,,,,,,,15
14,prac,1,inc,1,z,Thu Jun 04 2026 12:51:09 GMT-0500 (Central Daylight Time),161402.10000002384,napkin,1100,O,z,,,787,,,12,1,3195.300000011921,158206.80000001192,7752,friend,AF,C,,,,,,,,,,16
1,test,1,inc,1,m,Thu Jun 04 2026 12:51:09 GMT-0500 (Central Daylight Time),177813.39999997616,love,1000,O,m,m,None,678,477.0,201.0,71,1,2212.0,175601.39999997616,7752,step,AF,C,175202,175202,173472,174485,173473,175684,175001,175001,175684,1
2,test,1,con,1,m,Thu Jun 04 2026 12:51:09 GMT-0500 (Central Daylight Time),180246.0,step,800,O,m,m,None,1094,894.0,200.0,65,1,2428.699999988079,177817.30000001192,7752,step,AF,C,177218,177218,175688,176501,175689,178117,177018,177018,178117,2
3,test,1,inc,1,m,Thu Jun 04 2026 12:51:09 GMT-0500 (Central Daylight Time),182197.39999997616,elated,800,O,m,m,None,605,406.0,199.0,109,1,1947.5,180249.89999997616,7752,napkin,AF,C,179650,179650,178121,178934,178121,180068,179451,179451,180068,3
4,test,1,con,1,m,Thu Jun 04 2026 12:51:09 GMT-0500 (Central Daylight Time),184078.39999997616,remote,900,O,m,m,None,443,243.0,200.0,114,1,1877.7999999523163,182200.60000002384,7752,remote,AF,C,181700,181700,180072,180983,180072,181949,181500,181500,181949,4
5,test,1,con,1,m,Thu Jun 04 2026 12:51:09 GMT-0500 (Central Daylight Time),186077.80000001192,remote,800,O,m,m,None,653,453.0,200.0,113,1,1995.9000000357628,184081.89999997616,7752,remote,AF,C,183482,183482,181953,182766,181953,183949,183282,183282,183949,5
6,test,1,con,1,m,Thu Jun 04 2026 12:51:09 GMT-0500 (Central Daylight Time),188110.89999997616,jacket,1000,O,m,m,None,494,294.0,200.0,99,1,2030.0,186080.89999997616,7752,jacket,AF,C,185682,185682,183952,184965,183952,185982,185482,185482,185982,6
7,test,1,con,1,z,Thu Jun 04 2026 12:51:09 GMT-0500 (Central Daylight Time),189943.30000001192,temper,900,O,z,z,None,394,194.0,200.0,58,1,1828.300000011921,188115.0,7752,temper,AF,C,187614,187614,185986,186898,185986,187814,187414,187414,187814,7
8,test,1,inc,1,z,Thu Jun 04 2026 12:51:09 GMT-0500 (Central Daylight Time),192258.39999997616,window,1100,O,z,z,None,680,479.0,201.0,40,1,2311.899999976158,189946.5,7752,brutal,AF,C,189648,189648,187818,188930,187818,190129,189447,189447,190129,8
9,test,1,con,1,z,Thu Jun 04 2026 12:51:09 GMT-0500 (Central Daylight Time),194042.19999998808,temper,800,O,z,z,None,439,240.0,199.0,57,1,1779.8999999761581,192262.30000001192,7752,temper,AF,C,191663,191663,190133,190947,190134,191913,191464,191464,191913,9
10,test,1,inc,1,m,Thu Jun 04 2026 12:51:09 GMT-0500 (Central Daylight Time),196157.89999997616,temper,1000,O,m,m,None,577,378.0,199.0,119,1,2112.399999976158,194045.5,7752,remote,AF,C,193646,193646,191916,192929,191917,194029,193446,193446,194029,10
11,test,1,inc,1,m,Thu Jun 04 2026 12:51:09 GMT-0500 (Central Daylight Time),198523.5,friend,1100,O,m,m,None,728,529.0,199.0,120,1,2362.0,196161.5,7752,remote,AF,C,195862,195862,194033,195146,194033,196395,195662,195662,196395,11
12,test,1,con,1,m,Thu Jun 04 2026 12:51:09 GMT-0500 (Central Daylight Time),200840.0,napkin,1000,O,m,m,None,777,577.0,200.0,107,1,2312.899999976158,198527.10000002384,7752,napkin,AF,C,198127,198127,196398,197411,196398,198711,197927,197927,198711,12
13,test,1,con,1,z,Thu Jun 04 2026 12:51:09 GMT-0500 (Central Daylight Time),202838.60000002384,hate,1000,O,z,z,None,461,260.0,201.0,43,1,1995.300000011921,200843.30000001192,7752,hate,AF,C,200444,200444,198714,199727,198715,200710,200243,200243,200710,13
14,test,1,inc,1,z,Thu Jun 04 2026 12:51:09 GMT-0500 (Central Daylight Time),205271.80000001192,remote,1000,O,z,z,None,885,685.0,200.0,31,1,2429.900000035763,202841.89999997616,7752,friend,AF,C,202442,202442,200713,201727,200713,203143,202242,202242,203143,14
15,test,1,inc,1,z,Thu Jun 04 2026 12:51:09 GMT-0500 (Central Daylight Time),207721.19999998808,film,1100,O,z,z,None,824,625.0,199.0,56,1,2446.300000011921,205274.89999997616,7752,rage,AF,C,204958,204958,203146,204258,203146,205592,204759,204759,205592,15
16,test,1,con,1,m,Thu Jun 04 2026 12:51:09 GMT-0500 (Central Daylight Time),210169.69999998808,rock,1000,O,m,m,None,901,702.0,199.0,75,1,2444.899999976158,207724.80000001192,7752,rock,AF,C,207324,207324,205596,206608,205596,208041,207125,207125,208041,16
17,test,1,con,1,z,Thu Jun 04 2026 12:51:09 GMT-0500 (Central Daylight Time),211986.30000001192,love,800,O,z,z,None,490,290.0,200.0,17,1,1812.800000011921,210173.5,7752,love,AF,C,209558,209558,208045,208857,208045,209857,209358,209358,209857,17
18,test,1,inc,1,z,Thu Jun 04 2026 12:51:09 GMT-0500 (Central Daylight Time),214151.69999998808,napkin,900,O,z,z,None,716,517.0,199.0,6,1,2161.800000011921,211989.89999997616,7752,elated,AF,C,211490,211490,209861,210775,209861,212023,211290,211290,212023,18
19,test,1,inc,1,m,Thu Jun 04 2026 12:51:09 GMT-0500 (Central Daylight Time),216067.69999998808,rage,800,O,m,m,None,572,372.0,200.0,93,1,1912.800000011921,214154.89999997616,7752,film,AF,C,213556,213556,212026,212839,212026,213939,213356,213356,213939,19
20,test,1,inc,1,z,Thu Jun 04 2026 12:51:09 GMT-0500 (Central Daylight Time),218217.19999998808,step,800,O,z,z,None,817,617.0,200.0,45,1,2145.899999976158,216071.30000001192,7752,hate,AF,C,215456,215456,213942,214755,213943,216088,215256,215256,216088,20
21,test,1,inc,1,m,Thu Jun 04 2026 12:51:09 GMT-0500 (Central Daylight Time),220333.10000002384,kind,900,O,m,m,None,670,470.0,200.0,78,1,2112.600000023842,218220.5,7752,rock,AF,C,217722,217722,216092,217005,216092,218204,217522,217522,218204,21
22,test,1,inc,1,m,Thu Jun 04 2026 12:51:09 GMT-0500 (Central Daylight Time),222449.60000002384,elated,800,O,m,m,None,789,590.0,199.0,117,1,2112.5,220337.10000002384,7752,remote,AF,C,219722,219722,218208,219022,218208,220321,219523,219523,220321,22
23,test,1,con,1,z,Thu Jun 04 2026 12:51:09 GMT-0500 (Central Daylight Time),224532.30000001192,brutal,1100,O,z,z,None,438,237.0,201.0,36,1,2079.400000035763,222452.89999997616,7752,brutal,AF,C,222154,222154,220324,221437,220324,222403,221953,221953,222403,23
24,test,1,con,1,z,Thu Jun 04 2026 12:51:09 GMT-0500 (Central Daylight Time),226498.10000002384,love,1000,O,z,z,None,423,223.0,200.0,19,1,1962.6000000238419,224535.5,7752,love,AF,C,224136,224136,222407,223420,222407,224369,223936,223936,224369,24
25,test,1,inc,1,m,Thu Jun 04 2026 12:51:09 GMT-0500 (Central Daylight Time),228730.19999998808,friend,1100,O,m,m,None,590,390.0,200.0,104,1,2228.899999976158,226501.30000001192,7752,jacket,AF,C,226202,226202,224372,225486,224372,226601,226002,226002,226601,25
26,test,1,con,1,z,Thu Jun 04 2026 12:51:09 GMT-0500 (Central Daylight Time),230847.0,love,1100,O,z,z,None,469,269.0,200.0,20,1,2113.5,228733.5,7752,love,AF,C,228435,228435,226605,227719,226605,228718,228235,228235,228718,26
27,test,1,con,1,z,Thu Jun 04 2026 12:51:09 GMT-0500 (Central Daylight Time),232696.30000001192,brutal,800,O,z,z,None,509,309.0,200.0,33,1,1845.9000000357628,230850.39999997616,7752,brutal,AF,C,230251,230251,228721,229534,228722,230567,230050,230050,230567,27
28,test,1,inc,1,z,Thu Jun 04 2026 12:51:09 GMT-0500 (Central Daylight Time),235279.80000001192,window,1100,O,z,z,None,934,732.0,202.0,32,1,2580.0,232699.80000001192,7752,friend,AF,C,232403,232403,230571,231684,230571,233151,232200,232200,233151,28
29,test,1,inc,1,m,Thu Jun 04 2026 12:51:09 GMT-0500 (Central Daylight Time),237478.69999998808,temper,1000,O,m,m,None,677,478.0,199.0,103,1,2194.699999988079,235284.0,7752,jacket,AF,C,234866,234866,233155,234166,233155,235350,234667,234667,235350,29
30,test,1,inc,1,m,Thu Jun 04 2026 12:51:09 GMT-0500 (Central Daylight Time),239727.39999997616,love,1000,O,m,m,None,709,509.0,200.0,87,1,2245.2999999523163,237482.10000002384,7752,bell,AF,C,237083,237083,235353,236365,235353,237598,236882,236882,237598,30
31,test,1,con,1,m,Thu Jun 04 2026 12:51:09 GMT-0500 (Central Daylight Time),242242.5,rock,1100,O,m,m,None,871,672.0,199.0,76,1,2512.0,239730.5,7752,rock,AF,C,239431,239431,237602,238715,237602,240114,239231,239231,240114,31
32,test,1,con,1,z,Thu Jun 04 2026 12:51:09 GMT-0500 (Central Daylight Time),244309.80000001192,friend,1100,O,z,z,None,420,221.0,199.0,28,1,2063.699999988079,242246.10000002384,7752,friend,AF,C,241947,241947,240117,241231,240117,242181,241747,241747,242181,32
33,test,1,con,1,m,Thu Jun 04 2026 12:51:09 GMT-0500 (Central Daylight Time),246574.69999998808,remote,1000,O,m,m,None,717,517.0,200.0,115,1,2260.800000011921,244313.89999997616,7752,remote,AF,C,243914,243914,242185,243197,242185,244446,243714,243714,244446,33
34,test,1,con,1,m,Thu Jun 04 2026 12:51:09 GMT-0500 (Central Daylight Time),248509.0,jacket,900,O,m,m,None,511,312.0,199.0,98,1,1931.3999999761581,246577.60000002384,7752,jacket,AF,C,246063,246063,244449,245362,244449,246380,245863,245863,246380,34
35,test,1,con,1,z,Thu Jun 04 2026 12:51:09 GMT-0500 (Central Daylight Time),250374.39999997616,rage,900,O,z,z,None,419,219.0,200.0,50,1,1862.5,248511.89999997616,7752,rage,AF,C,248012,248012,246383,247296,246383,248245,247812,247812,248245,35
36,test,1,inc,1,m,Thu Jun 04 2026 12:51:09 GMT-0500 (Central Daylight Time),252374.19999998808,elated,800,O,m,m,None,655,454.0,201.0,125,1,1996.699999988079,250377.5,7752,window,AF,C,249778,249778,248249,249061,248249,250245,249577,249577,250245,36
37,test,1,con,1,z,Thu Jun 04 2026 12:51:09 GMT-0500 (Central Daylight Time),254456.19999998808,temper,1100,O,z,z,None,443,243.0,200.0,60,1,2078.300000011921,252377.89999997616,7752,temper,AF,C,252077,252077,250249,251361,250249,252327,251877,251877,252327,37
38,test,1,inc,1,m,Thu Jun 04 2026 12:51:09 GMT-0500 (Central Daylight Time),256754.5,friend,1100,O,m,m,None,663,463.0,200.0,112,1,2295.399999976158,254459.10000002384,7752,napkin,AF,C,254161,254161,252330,253443,252330,254626,253961,253961,254626,38
39,test,1,con,1,z,Thu Jun 04 2026 12:51:09 GMT-0500 (Central Daylight Time),258671.39999997616,hate,900,O,z,z,None,487,288.0,199.0,42,1,1914.2999999523163,256757.10000002384,7752,hate,AF,C,256242,256242,254628,255542,254628,256542,256043,256043,256542,39
40,test,1,inc,1,z,Thu Jun 04 2026 12:51:09 GMT-0500 (Central Daylight Time),260704.39999997616,jacket,800,O,z,z,None,684,485.0,199.0,61,1,2029.699999988079,258674.69999998808,7752,temper,AF,C,258075,258075,256546,257359,256546,258575,257876,257876,258575,40
41,test,1,con,1,m,Thu Jun 04 2026 12:51:09 GMT-0500 (Central Daylight Time),262520.39999997616,rock,800,O,m,m,None,476,276.0,200.0,73,1,1813.0999999642372,260707.30000001192,7752,rock,AF,C,260108,260108,258578,259391,258579,260391,259908,259908,260391,41
42,test,1,inc,1,m,Thu Jun 04 2026 12:51:09 GMT-0500 (Central Daylight Time),264769.60000002384,kind,900,O,m,m,None,815,616.0,199.0,86,1,2245.7000000476837,262523.89999997616,7752,bell,AF,C,262024,262024,260395,261307,260395,262641,261825,261825,262641,42
43,test,1,inc,1,z,Thu Jun 04 2026 12:51:09 GMT-0500 (Central Daylight Time),266869.0,napkin,900,O,z,z,None,663,462.0,201.0,62,1,2096.5,264772.5,7752,temper,AF,C,264274,264274,262644,263557,262644,264740,264073,264073,264740,43
44,test,1,con,1,z,Thu Jun 04 2026 12:51:09 GMT-0500 (Central Daylight Time),269184.3000000119,elated,1100,O,z,z,None,667,467.0,200.0,4,1,2312.600000023842,266871.6999999881,7752,elated,AF,C,266572,266572,264743,265857,264743,267055,266372,266372,267055,44
45,test,1,con,1,m,Thu Jun 04 2026 12:51:09 GMT-0500 (Central Daylight Time),271167.0,window,1000,O,m,m,None,450,235.0,215.0,123,1,1979.199999988079,269187.8000000119,7752,window,AF,C,268788,268788,267059,268072,267059,269038,268573,268573,269038,45
46,test,1,inc,1,z,Thu Jun 04 2026 12:51:09 GMT-0500 (Central Daylight Time),273467.6999999881,film,1100,O,z,z,None,655,455.0,200.0,48,1,2297.599999964237,271170.10000002384,7752,hate,AF,C,270872,270872,269041,270155,269042,271339,270671,270671,271339,46
47,test,1,con,1,z,Thu Jun 04 2026 12:51:09 GMT-0500 (Central Daylight Time),276215.1999999881,kind,1000,O,z,z,None,1200,1001.0,199.0,11,1,2744.399999976158,273470.8000000119,7752,kind,AF,C,273070,273070,271342,272357,271342,274086,272871,272871,274086,47
48,test,1,con,1,m,Thu Jun 04 2026 12:51:09 GMT-0500 (Central Daylight Time),277998.1999999881,film,800,O,m,m,None,442,227.0,215.0,89,1,1780.199999988079,276218.0,7752,film,AF,C,275636,275636,274089,274903,274089,275869,275421,275421,275869,48
49,test,1,con,1,z,Thu Jun 04 2026 12:51:09 GMT-0500 (Central Daylight Time),279898.5,elated,900,O,z,z,None,450,249.0,201.0,2,1,1897.0,278001.5,7752,elated,AF,C,277504,277504,275873,276787,275873,277770,277302,277302,277770,49
50,test,1,con,1,m,Thu Jun 04 2026 12:51:09 GMT-0500 (Central Daylight Time),282130.1999999881,napkin,1100,O,m,m,None,582,366.0,216.0,108,1,2228.599999964237,279901.60000002384,7752,napkin,AF,C,279619,279619,277773,278886,277773,280001,279402,279403,280001,50
51,test,1,inc,1,m,Thu Jun 04 2026 12:51:09 GMT-0500 (Central Daylight Time),284064.5,rage,800,O,m,m,None,592,392.0,200.0,85,1,1931.6000000238419,282132.89999997616,7752,bell,AF,C,281535,281535,280004,280818,280004,281936,281335,281335,281936,51
52,test,1,inc,1,m,Thu Jun 04 2026 12:51:09 GMT-0500 (Central Daylight Time),286212.3000000119,brutal,900,O,m,m,None,704,504.0,200.0,126,1,2144.300000011921,284068.0,7752,window,AF,C,283567,283567,281939,282851,281939,284083,283367,283367,284083,52
53,test,1,con,1,m,Thu Jun 04 2026 12:51:09 GMT-0500 (Central Daylight Time),288395.0,step,900,O,m,m,None,747,547.0,200.0,66,1,2179.699999988079,286215.3000000119,7752,step,AF,C,285716,285716,284086,285000,284086,286266,285516,285516,286266,53
54,test,1,con,1,z,Thu Jun 04 2026 12:51:09 GMT-0500 (Central Daylight Time),290145.39999997616,kind,800,O,z,z,None,407,206.0,201.0,9,1,1747.199999988079,288398.1999999881,7752,kind,AF,C,287801,287801,286269,287082,286269,288017,287599,287599,288016,54
55,test,1,inc,1,z,Thu Jun 04 2026 12:51:09 GMT-0500 (Central Daylight Time),292293.10000002384,napkin,900,O,z,z,None,702,502.0,200.0,30,1,2144.400000035763,290148.6999999881,7752,friend,AF,C,289649,289649,288020,288932,288020,290164,289448,289448,290164,55
56,test,1,con,1,z,Thu Jun 04 2026 12:51:09 GMT-0500 (Central Daylight Time),294376.10000002384,friend,1000,O,z,z,None,540,341.0,199.0,27,1,2080.2000000476837,292295.89999997616,7752,friend,AF,C,291897,291898,290167,291182,290167,292247,291698,291698,292247,56
57,test,1,con,1,m,Thu Jun 04 2026 12:51:09 GMT-0500 (Central Daylight Time),296242.6999999881,window,900,O,m,m,None,417,217.0,200.0,122,1,1863.5,294379.1999999881,7752,window,AF,C,293881,293881,292250,293164,292251,294114,293680,293680,294114,57
58,test,1,con,1,m,Thu Jun 04 2026 12:51:09 GMT-0500 (Central Daylight Time),298374.5,window,800,O,m,m,None,793,592.0,201.0,121,1,2128.699999988079,296245.8000000119,7752,window,AF,C,295647,295647,294117,294930,294117,296246,295446,295446,296245,58
59,test,1,con,1,z,Thu Jun 04 2026 12:51:09 GMT-0500 (Central Daylight Time),300123.8000000119,hate,800,O,z,z,None,429,229.0,200.0,41,1,1746.699999988079,298377.10000002384,7752,hate,AF,C,297762,297762,296248,297061,296248,297995,297562,297562,297995,59
59,test,1,con,0,z,Thu Jun 04 2026 12:51:09 GMT-0500 (Central Daylight Time),302074.39999997616,friend,900,O,m,m,None,506,307.0,199.0,26,1,1947.699999988079,300126.6999999881,7752,friend,AF,C,299628,299628,297998,298913,297998,299945,299429,299429,299945,60
60,test,1,inc,1,m,Thu Jun 04 2026 12:51:09 GMT-0500 (Central Daylight Time),305008.10000002384,hate,1100,O,m,m,None,1287,1086.0,201.0,72,1,2930.800000011921,302077.3000000119,7752,step,AF,C,301778,301778,299948,301060,299949,302879,301577,301577,302879,61
61,test,1,con,1,z,Thu Jun 04 2026 12:51:09 GMT-0500 (Central Daylight Time),307922.89999997616,hate,1100,O,z,z,None,1270,1054.0,216.0,44,1,2907.099999964237,305015.8000000119,7752,hate,AF,C,304730,304730,302887,303995,302887,305794,304514,304514,305794,62
62,test,1,con,1,z,Thu Jun 04 2026 12:51:09 GMT-0500 (Central Daylight Time),310005.0,rage,1100,O,z,z,None,444,244.0,200.0,52,1,2077.5,307927.5,7752,rage,AF,C,307628,307628,305799,306912,305799,307876,307427,307427,307876,63
63,test,1,inc,1,m,Thu Jun 04 2026 12:51:09 GMT-0500 (Central Daylight Time),312203.60000002384,love,1000,O,m,m,None,661,460.0,201.0,79,1,2194.100000023842,310009.5,7752,rock,AF,C,309611,309611,307881,308893,307881,310075,309409,309409,310075,64
64,test,1,con,1,m,Thu Jun 04 2026 12:51:09 GMT-0500 (Central Daylight Time),314471.10000002384,bell,1100,O,m,m,None,618,418.0,200.0,84,1,2264.300000011921,312206.8000000119,7752,bell,AF,C,311910,311910,310078,311193,310078,312342,311709,311709,312342,65
65,test,1,con,1,m,Thu Jun 04 2026 12:51:09 GMT-0500 (Central Daylight Time),317235.6999999881,jacket,1100,O,m,m,None,1119,920.0,199.0,100,1,2760.0,314475.6999999881,7752,jacket,AF,C,314175,314176,312347,313459,312347,315107,313976,313976,315107,66
66,test,1,con,1,z,Thu Jun 04 2026 12:51:09 GMT-0500 (Central Daylight Time),319269.0,friend,800,O,z,z,None,709,510.0,199.0,25,1,2030.199999988079,317238.8000000119,7752,friend,AF,C,316626,316627,315110,315925,315110,317140,316427,316427,317140,67
67,test,1,inc,1,z,Thu Jun 04 2026 12:51:09 GMT-0500 (Central Daylight Time),321386.5,jacket,800,O,z,z,None,766,567.0,199.0,5,1,2113.399999976158,319273.10000002384,7752,elated,AF,C,318674,318674,317144,317958,317144,319258,318475,318475,319258,68
68,test,1,inc,1,m,Thu Jun 04 2026 12:51:09 GMT-0500 (Central Daylight Time),323551.10000002384,brutal,900,O,m,m,None,742,543.0,199.0,102,1,2160.300000011921,321390.8000000119,7752,jacket,AF,C,320874,320874,319262,320173,319262,321422,320674,320674,321422,69
69,test,1,inc,1,m,Thu Jun 04 2026 12:51:09 GMT-0500 (Central Daylight Time),325934.6999999881,hate,1100,O,m,m,None,737,535.0,202.0,96,1,2379.300000011921,323555.39999997616,7752,film,AF,C,323257,323257,321426,322539,321427,323806,323055,323055,323806,70
70,test,1,inc,1,m,Thu Jun 04 2026 12:51:09 GMT-0500 (Central Daylight Time),328266.89999997616,rage,800,O,m,m,None,989,773.0,216.0,69,1,2327.7999999523163,325939.10000002384,7752,step,AF,C,325356,325356,323810,324623,323810,326138,325140,325140,326138,71
71,test,1,con,1,z,Thu Jun 04 2026 12:51:09 GMT-0500 (Central Daylight Time),330148.39999997616,brutal,900,O,z,z,None,443,228.0,215.0,34,1,1877.699999988079,328270.6999999881,7752,brutal,AF,C,327787,327788,326142,327055,326142,328020,327572,327572,328019,72
72,test,1,inc,1,z,Thu Jun 04 2026 12:51:09 GMT-0500 (Central Daylight Time),332481.3000000119,remote,1000,O,z,z,None,790,590.0,200.0,63,1,2326.199999988079,330155.10000002384,7752,temper,AF,C,329754,329754,328026,329036,328026,330352,329553,329553,330352,73
73,test,1,con,1,z,Thu Jun 04 2026 12:51:09 GMT-0500 (Central Daylight Time),334664.8000000119,kind,900,O,z,z,None,742,542.0,200.0,10,1,2175.100000023842,332489.6999999881,7752,kind,AF,C,331986,331986,330361,331269,330361,332536,331786,331786,332536,74
74,test,1,inc,1,z,Thu Jun 04 2026 12:51:09 GMT-0500 (Central Daylight Time),336746.8000000119,step,800,O,z,z,None,735,535.0,200.0,21,1,2077.699999988079,334669.10000002384,7752,love,AF,C,334068,334068,332540,333352,332540,334618,333868,333868,334618,75
75,test,1,inc,1,z,Thu Jun 04 2026 12:51:09 GMT-0500 (Central Daylight Time),338962.10000002384,bell,1000,O,z,z,None,680,480.0,200.0,55,1,2206.400000035763,336755.6999999881,7752,rage,AF,C,336352,336352,334627,335636,334627,336833,336151,336151,336833,76
76,test,1,inc,1,m,Thu Jun 04 2026 12:51:09 GMT-0500 (Central Daylight Time),341128.5,rage,800,O,m,m,None,816,601.0,215.0,77,1,2159.800000011921,338968.6999999881,7752,rock,AF,C,338383,338384,336840,337650,336840,339000,338168,338168,338999,77
77,test,1,con,1,z,Thu Jun 04 2026 12:51:09 GMT-0500 (Central Daylight Time),343578.6999999881,brutal,1000,O,z,z,None,906,707.0,199.0,35,1,2443.699999988079,341135.0,7752,brutal,AF,C,340733,340733,339006,340016,339006,341450,340533,340533,341450,78
78,test,1,con,1,m,Thu Jun 04 2026 12:51:09 GMT-0500 (Central Daylight Time),346044.1999999881,film,1100,O,m,m,None,829,630.0,199.0,92,1,2459.5,343584.6999999881,7752,film,AF,C,343282,343282,341456,342566,341456,343915,343082,343082,343915,79
79,test,1,inc,1,m,Thu Jun 04 2026 12:51:09 GMT-0500 (Central Daylight Time),348343.6999999881,love,1000,O,m,m,None,752,552.0,200.0,95,1,2292.599999964237,346051.10000002384,7752,film,AF,C,345648,345648,343922,344932,343922,346215,345448,345448,346215,80
80,test,1,inc,1,m,Thu Jun 04 2026 12:51:09 GMT-0500 (Central Daylight Time),350609.5,temper,1000,O,m,m,None,723,524.0,199.0,111,1,2261.0,348348.5,7752,napkin,AF,C,347948,347948,346220,347232,346220,348481,347748,347748,348481,81
81,test,1,inc,1,z,Thu Jun 04 2026 12:51:09 GMT-0500 (Central Daylight Time),353075.89999997616,remote,1000,O,z,z,None,917,718.0,199.0,7,1,2462.099999964237,350613.8000000119,7752,elated,AF,C,350213,350213,348485,349497,348485,350947,350014,350014,350947,82
82,test,1,con,1,z,Thu Jun 04 2026 12:51:09 GMT-0500 (Central Daylight Time),355490.89999997616,rage,800,O,z,z,None,1072,872.0,200.0,49,1,2406.0,353084.89999997616,7752,rage,AF,C,352479,352479,350956,351762,350956,353362,352279,352279,353362,83
83,test,1,con,1,m,Thu Jun 04 2026 12:51:09 GMT-0500 (Central Daylight Time),357323.5,jacket,800,O,m,m,None,495,282.0,213.0,97,1,1826.300000011921,355497.1999999881,7752,jacket,AF,C,354910,354910,353368,354179,353369,355195,354697,354697,355195,84
84,test,1,con,1,m,Thu Jun 04 2026 12:51:09 GMT-0500 (Central Daylight Time),359306.10000002384,napkin,900,O,m,m,None,532,333.0,199.0,106,1,1976.9000000357628,357329.1999999881,7752,napkin,AF,C,356828,356828,355200,356111,355200,357177,356628,356628,357177,85
85,test,1,con,1,m,Thu Jun 04 2026 12:51:09 GMT-0500 (Central Daylight Time),361955.60000002384,bell,1000,O,m,m,None,1101,902.0,199.0,83,1,2642.300000011921,359313.3000000119,7752,bell,AF,C,358910,358910,357184,358194,357185,359827,358711,358711,359827,86
86,test,1,inc,1,m,Thu Jun 04 2026 12:51:09 GMT-0500 (Central Daylight Time),364259.5,hate,1100,O,m,m,None,670,470.0,200.0,80,1,2299.800000011921,361959.6999999881,7752,rock,AF,C,361660,361660,359831,360944,359831,362131,361460,361460,362130,87
87,test,1,inc,1,m,Thu Jun 04 2026 12:51:09 GMT-0500 (Central Daylight Time),366470.39999997616,kind,900,O,m,m,None,776,560.0,216.0,94,1,2206.399999976158,364264.0,7752,film,AF,C,363776,363776,362135,363043,362135,364342,363560,363560,364341,88
88,test,1,inc,1,z,Thu Jun 04 2026 12:51:09 GMT-0500 (Central Daylight Time),368570.1999999881,napkin,900,O,z,z,None,654,455.0,199.0,38,1,2093.599999964237,366476.60000002384,7752,brutal,AF,C,365977,365977,364348,365259,364348,366441,365777,365777,366441,89
89,test,1,inc,1,m,Thu Jun 04 2026 12:51:09 GMT-0500 (Central Daylight Time),370985.60000002384,kind,900,O,m,m,None,965,766.0,199.0,70,1,2411.2000000476837,368574.39999997616,7752,step,AF,C,368074,368074,366445,367358,366446,368857,367875,367875,368857,90
90,test,1,inc,1,z,Thu Jun 04 2026 12:51:09 GMT-0500 (Central Daylight Time),373084.60000002384,rock,900,O,z,z,None,678,478.0,200.0,46,1,2090.900000035763,370993.6999999881,7752,hate,AF,C,370475,370475,368865,369772,368865,370956,370274,370274,370956,91
91,test,1,inc,1,z,Thu Jun 04 2026 12:51:09 GMT-0500 (Central Daylight Time),375450.39999997616,film,1100,O,z,z,None,717,516.0,201.0,16,1,2361.7999999523163,373088.60000002384,7752,kind,AF,C,372790,372790,370960,372074,370960,373321,372589,372589,373321,92
92,test,1,inc,1,z,Thu Jun 04 2026 12:51:09 GMT-0500 (Central Daylight Time),377650.10000002384,bell,1000,O,z,z,None,655,455.0,200.0,23,1,2194.7000000476837,375455.39999997616,7752,love,AF,C,375057,375057,373326,374338,373327,375521,374856,374856,375521,93
93,test,1,inc,1,z,Thu Jun 04 2026 12:51:09 GMT-0500 (Central Daylight Time),379666.5,step,800,O,z,z,None,673,472.0,201.0,13,1,2012.1000000238419,377654.39999997616,7752,kind,AF,C,377056,377056,375525,376338,375526,377538,376855,376855,377538,94
94,test,1,con,1,m,Thu Jun 04 2026 12:51:09 GMT-0500 (Central Daylight Time),381533.5,napkin,800,O,m,m,None,520,320.0,200.0,105,1,1862.3999999761581,379671.10000002384,7752,napkin,AF,C,379072,379072,377542,378355,377542,379405,378871,378871,379404,95
95,test,1,con,1,z,Thu Jun 04 2026 12:51:09 GMT-0500 (Central Daylight Time),383564.89999997616,temper,1000,O,z,z,None,487,286.0,201.0,59,1,2026.5999999642372,381538.3000000119,7752,temper,AF,C,381138,381138,379409,380420,379410,381436,380937,380937,381436,96
96,test,1,con,1,z,Thu Jun 04 2026 12:51:09 GMT-0500 (Central Daylight Time),385582.60000002384,elated,800,O,z,z,None,669,469.0,200.0,1,1,2011.9000000357628,383570.6999999881,7752,elated,AF,C,382971,382971,381442,382253,381442,383454,382770,382770,383454,97
97,test,1,con,1,m,Thu Jun 04 2026 12:51:09 GMT-0500 (Central Daylight Time),387764.1999999881,step,1000,O,m,m,None,637,437.0,200.0,67,1,2174.899999976158,385589.3000000119,7752,step,AF,C,385187,385187,383460,384469,383461,385635,384986,384986,385635,98
98,test,1,con,1,z,Thu Jun 04 2026 12:51:09 GMT-0500 (Central Daylight Time),389597.60000002384,love,900,O,z,z,None,412,213.0,199.0,18,1,1828.7000000476837,387768.89999997616,7752,love,AF,C,387252,387252,385640,386550,385640,387469,387051,387052,387469,99
99,test,1,inc,1,m,Thu Jun 04 2026 12:51:09 GMT-0500 (Central Daylight Time),391795.5,brutal,900,O,m,m,None,761,562.0,199.0,118,1,2194.199999988079,389601.3000000119,7752,remote,AF,C,389101,389101,387472,388384,387473,389667,388902,388902,389667,100
100,test,1,con,1,z,Thu Jun 04 2026 12:51:09 GMT-0500 (Central Daylight Time),394078.60000002384,kind,1100,O,z,z,None,643,443.0,200.0,12,1,2280.300000011921,391798.3000000119,7752,kind,AF,C,391502,391502,389669,390785,389669,391950,391301,391301,391950,101
101,test,1,inc,1,z,Thu Jun 04 2026 12:51:09 GMT-0500 (Central Daylight Time),396427.8000000119,window,1100,O,z,z,None,700,485.0,215.0,64,1,2344.800000011921,394083.0,7752,temper,AF,C,393802,393802,391954,393067,391954,394299,393586,393586,394299,102
102,test,1,inc,1,z,Thu Jun 04 2026 12:51:09 GMT-0500 (Central Daylight Time),398562.3000000119,rock,900,O,z,z,None,693,492.0,201.0,54,1,2129.5,396432.8000000119,7752,rage,AF,C,395933,395933,394304,395216,394304,396433,395732,395732,396433,103
103,test,1,con,1,m,Thu Jun 04 2026 12:51:09 GMT-0500 (Central Daylight Time),400526.3000000119,film,900,O,m,m,None,528,327.0,201.0,90,1,1959.199999988079,398567.10000002384,7752,film,AF,C,398065,398065,396438,397350,396438,398397,397864,397864,398397,104
104,test,1,inc,1,m,Thu Jun 04 2026 12:51:09 GMT-0500 (Central Daylight Time),402809.0,hate,1100,O,m,m,None,640,423.0,217.0,88,1,2278.399999976158,400530.60000002384,7752,bell,AF,C,400249,400249,398402,399516,398402,400680,400032,400032,400680,105
105,test,1,inc,1,z,Thu Jun 04 2026 12:51:09 GMT-0500 (Central Daylight Time),405126.5,window,1100,O,z,z,None,686,471.0,215.0,8,1,2313.100000023842,402813.39999997616,7752,elated,AF,C,402514,402514,400684,401797,400685,402998,402299,402299,402998,106
106,test,1,con,1,m,Thu Jun 04 2026 12:51:09 GMT-0500 (Central Daylight Time),407609.10000002384,step,1100,O,m,m,None,850,651.0,199.0,68,1,2478.0,405131.10000002384,7752,step,AF,C,404829,404829,403002,404114,403002,405480,404630,404630,405480,107
107,test,1,con,1,m,Thu Jun 04 2026 12:51:09 GMT-0500 (Central Daylight Time),409725.6999999881,remote,1100,O,m,m,None,467,268.0,199.0,116,1,2112.800000011921,407612.89999997616,7752,remote,AF,C,407312,407312,405484,406596,405484,407597,407113,407113,407597,108
108,test,1,con,1,m,Thu Jun 04 2026 12:51:09 GMT-0500 (Central Daylight Time),411724.1999999881,bell,900,O,m,m,None,567,366.0,201.0,82,1,1993.8999999761581,409730.3000000119,7752,bell,AF,C,409229,409229,407601,408511,407602,409595,409027,409027,409595,109
109,test,1,con,1,m,Thu Jun 04 2026 12:51:09 GMT-0500 (Central Daylight Time),414006.6999999881,window,1100,O,m,m,None,645,446.0,199.0,124,1,2277.800000011921,411728.89999997616,7752,window,AF,C,411427,411427,409600,410711,409600,411878,411227,411227,411878,110
110,test,1,inc,1,m,Thu Jun 04 2026 12:51:09 GMT-0500 (Central Daylight Time),415956.1999999881,elated,800,O,m,m,None,600,385.0,215.0,101,1,1946.300000011921,414009.89999997616,7752,jacket,AF,C,413427,413427,411881,412695,411881,413827,413212,413212,413827,111
111,test,1,inc,1,z,Thu Jun 04 2026 12:51:09 GMT-0500 (Central Daylight Time),417972.5,step,800,O,z,z,None,672,473.0,199.0,53,1,2011.5,415961.0,7752,rage,AF,C,415360,415360,413832,414643,413832,415844,415160,415160,415844,112
112,test,1,con,1,m,Thu Jun 04 2026 12:51:09 GMT-0500 (Central Daylight Time),420020.89999997616,bell,800,O,m,m,None,704,505.0,199.0,81,1,2043.7999999523163,417977.10000002384,7752,bell,AF,C,417376,417376,415848,416660,415848,417892,417176,417176,417892,113
113,test,1,con,1,z,Thu Jun 04 2026 12:51:09 GMT-0500 (Central Daylight Time),422335.60000002384,rage,1000,O,z,z,None,765,566.0,199.0,51,1,2311.7000000476837,420023.89999997616,7752,rage,AF,C,419626,419626,417895,418908,417895,420207,419426,419426,420207,114
114,test,1,inc,1,z,Thu Jun 04 2026 12:51:09 GMT-0500 (Central Daylight Time),424586.5,film,1100,O,z,z,None,608,407.0,201.0,24,1,2247.800000011921,422338.6999999881,7752,love,AF,C,422041,422041,420210,421324,420210,422458,421840,421840,422457,115
115,test,1,inc,1,m,Thu Jun 04 2026 12:51:09 GMT-0500 (Central Daylight Time),426636.89999997616,brutal,900,O,m,m,None,599,400.0,199.0,110,1,2045.7999999523163,424591.10000002384,7752,napkin,AF,C,424091,424091,422462,423374,422462,424508,423891,423891,424508,116
116,test,1,con,1,z,Thu Jun 04 2026 12:51:09 GMT-0500 (Central Daylight Time),428802.0,elated,1000,O,z,z,None,617,415.0,202.0,3,1,2159.800000011921,426642.1999999881,7752,elated,AF,C,426242,426242,424513,425523,424514,426673,426039,426039,426673,117
117,test,1,inc,1,z,Thu Jun 04 2026 12:51:09 GMT-0500 (Central Daylight Time),430784.89999997616,jacket,800,O,z,z,None,633,434.0,199.0,29,1,1978.2999999523163,428806.60000002384,7752,friend,AF,C,428206,428206,426678,427489,426678,428656,428007,428007,428656,118
118,test,1,inc,1,z,Thu Jun 04 2026 12:51:09 GMT-0500 (Central Daylight Time),432916.89999997616,rock,900,O,z,z,None,690,489.0,201.0,22,1,2127.2999999523163,430789.60000002384,7752,love,AF,C,430287,430287,428661,429572,428661,430788,430086,430086,430788,119
119,test,1,inc,1,z,Thu Jun 04 2026 12:51:09 GMT-0500 (Central Daylight Time),435165.1999999881,bell,1000,O,z,z,None,708,494.0,214.0,47,1,2244.300000011921,432920.89999997616,7752,hate,AF,C,432538,432538,430792,431804,430792,433036,432324,432324,433036,120
120,test,1,inc,1,z,Thu Jun 04 2026 12:51:09 GMT-0500 (Central Daylight Time),437148.3000000119,jacket,800,O,z,z,None,647,447.0,200.0,37,1,1978.800000011921,435169.5,7752,brutal,AF,C,434569,434569,433041,433855,433041,435019,434369,434369,435019,121
121,test,1,con,1,m,Thu Jun 04 2026 12:51:09 GMT-0500 (Central Daylight Time),439064.39999997616,rock,900,O,m,m,None,467,266.0,201.0,74,1,1912.2999999523163,437152.10000002384,7752,rock,AF,C,436653,436653,435023,435937,435023,436935,436452,436452,436935,122
122,test,1,inc,1,m,Thu Jun 04 2026 12:51:09 GMT-0500 (Central Daylight Time),441315.0,temper,1000,O,m,m,None,701,501.0,200.0,127,1,2247.300000011921,439067.6999999881,7752,window,AF,C,438669,438669,436939,437951,436939,439186,438469,438469,439186,123
123,test,1,inc,1,z,Thu Jun 04 2026 12:51:09 GMT-0500 (Central Daylight Time),443531.3000000119,bell,1000,O,z,z,None,674,474.0,200.0,15,1,2211.300000011921,441320.0,7752,kind,AF,C,440919,440919,439191,440202,439191,441402,440719,440719,441402,124
124,test,1,inc,1,z,Thu Jun 04 2026 12:51:09 GMT-0500 (Central Daylight Time),445779.39999997616,remote,1000,O,z,z,None,706,506.0,200.0,39,1,2244.2999999523163,443535.10000002384,7752,brutal,AF,C,443134,443134,441406,442418,441406,443650,442934,442934,443650,125
125,test,1,inc,1,z,Thu Jun 04 2026 12:51:09 GMT-0500 (Central Daylight Time),447895.5,rock,900,O,z,z,None,669,468.0,201.0,14,1,2112.399999976158,445783.10000002384,7752,kind,AF,C,445284,445284,443654,444566,443654,445767,445083,445083,445767,126
126,test,1,inc,1,m,Thu Jun 04 2026 12:51:09 GMT-0500 (Central Daylight Time),450242.1999999881,friend,1100,O,m,m,None,703,487.0,216.0,128,1,2340.599999964237,447901.60000002384,7752,window,AF,C,447616,447616,445773,446883,445773,448113,447400,447400,448113,127
127,test,1,con,1,m,Thu Jun 04 2026 12:51:09 GMT-0500 (Central Daylight Time),452742.5,film,1000,O,m,m,None,974,775.0,199.0,91,1,2497.399999976158,450245.10000002384,7752,film,AF,C,449832,449832,448116,449131,448116,450614,449632,449632,450614,128
