acc_sum,block,block_c,block_cond,con_img,correct,correct_response,datetime,endtime,face,jitter,line,project,response,response_time,row_sel,session_number,start_end,starttime,subject_id,task,task_vers,trial
1,prac,1,A,haborder.png,1,z,Mon Jan 12 2026 14:41:50 GMT-0600 (Central Standard Time),42217.89999999991,CFD-BF-039-039-A.jpg,1200,solid,I,z,850,6,2,2850.2999999998137,39367.60000000009,8072,ATS,A,1
2,prac,1,A,haborder.png,1,z,Mon Jan 12 2026 14:41:50 GMT-0600 (Central Standard Time),44649.39999999991,CFD-WF-019-015-A.jpg,1000,solid,I,z,648,12,2,5281.799999999814,39367.60000000009,8072,ATS,A,2
3,prac,1,A,haborder.png,1,m,Mon Jan 12 2026 14:41:50 GMT-0600 (Central Standard Time),47515.0,CFD-WM-004-005-HC.jpg,1400,solid,I,m,670,7,2,8147.399999999907,39367.60000000009,8072,ATS,A,3
4,prac,1,A,haborder.png,1,z,Mon Jan 12 2026 14:41:50 GMT-0600 (Central Standard Time),49864.19999999972,CFD-BF-023-013-A.jpg,1000,solid,I,z,558,4,2,10496.599999999627,39367.60000000009,8072,ATS,A,4
5,prac,1,A,haborder.png,1,m,Mon Jan 12 2026 14:41:50 GMT-0600 (Central Standard Time),53146.60000000009,CFD-WM-006-013-HC.jpg,1700,solid,I,m,796,9,2,13779.0,39367.60000000009,8072,ATS,A,5
6,prac,1,A,haborder.png,1,z,Mon Jan 12 2026 14:41:50 GMT-0600 (Central Standard Time),56078.89999999991,CFD-BM-005-010-A.jpg,1600,solid,I,z,534,2,2,16711.299999999814,39367.60000000009,8072,ATS,A,6
7,prac,1,A,haborder.png,1,m,Mon Jan 12 2026 14:41:50 GMT-0600 (Central Standard Time),59494.60000000009,CFD-BF-028-020-HC.jpg,2000,solid,I,m,619,5,2,20127.0,39367.60000000009,8072,ATS,A,7
8,prac,1,A,haborder.png,1,m,Mon Jan 12 2026 14:41:50 GMT-0600 (Central Standard Time),62760.5,CFD-BM-017-052-HC.jpg,1700,solid,I,m,775,1,2,23392.899999999907,39367.60000000009,8072,ATS,A,8
9,prac,1,A,haborder.png,1,m,Mon Jan 12 2026 14:41:50 GMT-0600 (Central Standard Time),65726.1000000001,CFD-WF-017-016-HC.jpg,1500,solid,I,m,669,11,2,26358.5,39367.60000000009,8072,ATS,A,9
9,prac,1,A,haborder.png,0,z,Mon Jan 12 2026 14:41:50 GMT-0600 (Central Standard Time),69158.29999999981,CFD-WM-013-015-A.jpg,1900,solid,I,m,744,8,2,29790.69999999972,39367.60000000009,8072,ATS,A,10
10,prac,1,A,haborder.png,1,z,Mon Jan 12 2026 14:41:50 GMT-0600 (Central Standard Time),72040.79999999981,CFD-WF-003-014-A.jpg,1600,solid,I,z,483,10,2,32673.19999999972,39367.60000000009,8072,ATS,A,11
10,prac,1,A,haborder.png,0,m,Mon Jan 12 2026 14:41:50 GMT-0600 (Central Standard Time),74724.29999999981,CFD-BM-029-026-HC.jpg,1500,solid,I,z,388,3,2,35356.69999999972,39367.60000000009,8072,ATS,A,12
1,prac,1,B,mfborder.png,1,m,Mon Jan 12 2026 14:41:50 GMT-0600 (Central Standard Time),100231.6000000001,CFD-BM-010-019-A.jpg,1600,dash,I,m,858,2,2,3248.600000000093,96983.0,8072,ATS,A,1
2,prac,1,B,mfborder.png,1,m,Mon Jan 12 2026 14:41:50 GMT-0600 (Central Standard Time),103064.5,CFD-WM-019-013-A.jpg,1200,dash,I,m,834,6,2,6081.5,96983.0,8072,ATS,A,2
3,prac,1,B,mfborder.png,1,m,Mon Jan 12 2026 14:41:50 GMT-0600 (Central Standard Time),106346.6000000001,CFD-WM-013-015-A.jpg,1700,dash,I,m,796,9,2,9363.600000000093,96983.0,8072,ATS,A,3
4,prac,1,B,mfborder.png,1,z,Mon Jan 12 2026 14:41:50 GMT-0600 (Central Standard Time),109745.5,CFD-WF-002-008-HC.jpg,1900,dash,I,z,705,8,2,12762.5,96983.0,8072,ATS,A,4
4,prac,1,B,mfborder.png,0,z,Mon Jan 12 2026 14:41:50 GMT-0600 (Central Standard Time),112327.8999999999,CFD-WF-017-016-HC.jpg,1000,dash,I,m,783,12,2,15344.899999999907,96983.0,8072,ATS,A,5
5,prac,1,B,mfborder.png,1,z,Mon Jan 12 2026 14:41:50 GMT-0600 (Central Standard Time),115278.3999999999,CFD-BF-028-020-HC.jpg,1400,dash,I,z,752,7,2,18295.399999999907,96983.0,8072,ATS,A,6
6,prac,1,B,mfborder.png,1,z,Mon Jan 12 2026 14:41:50 GMT-0600 (Central Standard Time),118242.79999999981,CFD-BF-010-005-HC.jpg,1500,dash,I,z,671,3,2,21259.799999999814,96983.0,8072,ATS,A,7
7,prac,1,B,mfborder.png,1,m,Mon Jan 12 2026 14:41:50 GMT-0600 (Central Standard Time),121658.5,CFD-BM-005-010-A.jpg,2000,dash,I,m,631,5,2,24675.5,96983.0,8072,ATS,A,8
8,prac,1,B,mfborder.png,1,z,Mon Jan 12 2026 14:41:50 GMT-0600 (Central Standard Time),124924.0,CFD-WF-003-014-A.jpg,1500,dash,I,z,979,11,2,27941.0,96983.0,8072,ATS,A,9
9,prac,1,B,mfborder.png,1,m,Mon Jan 12 2026 14:41:50 GMT-0600 (Central Standard Time),128306.29999999981,CFD-BM-029-026-HC.jpg,1700,dash,I,m,889,1,2,31323.299999999814,96983.0,8072,ATS,A,10
10,prac,1,B,mfborder.png,1,z,Mon Jan 12 2026 14:41:50 GMT-0600 (Central Standard Time),131105.69999999972,CFD-BF-023-013-A.jpg,1000,dash,I,z,1007,4,2,34122.69999999972,96983.0,8072,ATS,A,11
11,prac,1,B,mfborder.png,1,m,Mon Jan 12 2026 14:41:50 GMT-0600 (Central Standard Time),134221.19999999972,CFD-WM-006-013-HC.jpg,1600,dash,I,m,720,10,2,37238.19999999972,96983.0,8072,ATS,A,12
1,test,1,A,haborder.png,1,z,Mon Jan 12 2026 14:41:50 GMT-0600 (Central Standard Time),150732.6000000001,CFD-BF-039-039-A.jpg,1200,solid,I,z,864,6,2,2082.5,148650.1000000001,8072,ATS,A,1
2,test,1,A,haborder.png,1,z,Mon Jan 12 2026 14:41:50 GMT-0600 (Central Standard Time),152948.6000000001,CFD-WF-003-014-A.jpg,1600,solid,I,z,597,10,2,4298.5,148650.1000000001,8072,ATS,A,2
3,test,1,A,haborder.png,1,m,Mon Jan 12 2026 14:41:50 GMT-0600 (Central Standard Time),155064.6000000001,CFD-WM-004-005-HC.jpg,1400,solid,I,m,684,7,2,6414.5,148650.1000000001,8072,ATS,A,3
4,test,1,A,haborder.png,1,m,Mon Jan 12 2026 14:41:50 GMT-0600 (Central Standard Time),157713.8999999999,CFD-BM-017-052-HC.jpg,1700,solid,I,m,933,1,2,9063.799999999814,148650.1000000001,8072,ATS,A,4
5,test,1,A,haborder.png,1,z,Mon Jan 12 2026 14:41:50 GMT-0600 (Central Standard Time),160246.2999999998,CFD-WM-013-015-A.jpg,1900,solid,I,z,604,8,2,11596.19999999972,148650.1000000001,8072,ATS,A,5
6,test,1,A,haborder.png,1,m,Mon Jan 12 2026 14:41:50 GMT-0600 (Central Standard Time),162612.2999999998,CFD-WM-006-013-HC.jpg,1700,solid,I,m,646,9,2,13962.19999999972,148650.1000000001,8072,ATS,A,6
7,test,1,A,haborder.png,1,m,Mon Jan 12 2026 14:41:50 GMT-0600 (Central Standard Time),164844.69999999972,CFD-WF-017-016-HC.jpg,1500,solid,I,m,713,11,2,16194.599999999627,148650.1000000001,8072,ATS,A,7
8,test,1,A,haborder.png,1,z,Mon Jan 12 2026 14:41:50 GMT-0600 (Central Standard Time),166544.3999999999,CFD-WF-019-015-A.jpg,1000,solid,I,z,677,12,2,17894.299999999814,148650.1000000001,8072,ATS,A,8
9,test,1,A,haborder.png,1,z,Mon Jan 12 2026 14:41:50 GMT-0600 (Central Standard Time),168193.7999999998,CFD-BF-023-013-A.jpg,1000,solid,I,z,625,4,2,19543.69999999972,148650.1000000001,8072,ATS,A,9
9,test,1,A,haborder.png,0,z,Mon Jan 12 2026 14:41:50 GMT-0600 (Central Standard Time),170626.2999999998,CFD-BM-005-010-A.jpg,1600,solid,I,m,815,2,2,21976.19999999972,148650.1000000001,8072,ATS,A,10
10,test,1,A,haborder.png,1,z,Mon Jan 12 2026 14:41:50 GMT-0600 (Central Standard Time),172792.5,CFD-WF-003-014-A.jpg,1600,solid,I,z,543,10,2,24142.399999999907,148650.1000000001,8072,ATS,A,11
11,test,1,A,haborder.png,1,m,Mon Jan 12 2026 14:41:50 GMT-0600 (Central Standard Time),174991.8999999999,CFD-BM-029-026-HC.jpg,1500,solid,I,m,669,3,2,26341.799999999814,148650.1000000001,8072,ATS,A,12
12,test,1,A,haborder.png,1,m,Mon Jan 12 2026 14:41:50 GMT-0600 (Central Standard Time),177790.7999999998,CFD-BF-028-020-HC.jpg,2000,solid,I,m,778,5,2,29140.69999999972,148650.1000000001,8072,ATS,A,13
13,test,1,A,haborder.png,1,z,Mon Jan 12 2026 14:41:50 GMT-0600 (Central Standard Time),180506.3999999999,CFD-BM-005-010-A.jpg,1600,solid,I,z,1099,2,2,31856.299999999814,148650.1000000001,8072,ATS,A,14
14,test,1,A,haborder.png,1,m,Mon Jan 12 2026 14:41:50 GMT-0600 (Central Standard Time),182756.0,CFD-BM-029-026-HC.jpg,1500,solid,I,m,731,3,2,34105.89999999991,148650.1000000001,8072,ATS,A,15
15,test,1,A,haborder.png,1,m,Mon Jan 12 2026 14:41:50 GMT-0600 (Central Standard Time),185488.5,CFD-BF-028-020-HC.jpg,2000,solid,I,m,701,5,2,36838.39999999991,148650.1000000001,8072,ATS,A,16
16,test,1,A,haborder.png,1,m,Mon Jan 12 2026 14:41:50 GMT-0600 (Central Standard Time),187855.8999999999,CFD-WM-006-013-HC.jpg,1700,solid,I,m,637,9,2,39205.799999999814,148650.1000000001,8072,ATS,A,17
17,test,1,A,haborder.png,1,m,Mon Jan 12 2026 14:41:50 GMT-0600 (Central Standard Time),190337.0,CFD-WF-017-016-HC.jpg,1500,solid,I,m,959,11,2,41686.89999999991,148650.1000000001,8072,ATS,A,18
18,test,1,A,haborder.png,1,z,Mon Jan 12 2026 14:41:50 GMT-0600 (Central Standard Time),192069.6000000001,CFD-BF-023-013-A.jpg,1000,solid,I,z,712,4,2,43419.5,148650.1000000001,8072,ATS,A,19
19,test,1,A,haborder.png,1,z,Mon Jan 12 2026 14:41:50 GMT-0600 (Central Standard Time),193902.3999999999,CFD-BF-039-039-A.jpg,1200,solid,I,z,604,6,2,45252.299999999814,148650.1000000001,8072,ATS,A,20
20,test,1,A,haborder.png,1,m,Mon Jan 12 2026 14:41:50 GMT-0600 (Central Standard Time),196234.8999999999,CFD-BM-017-052-HC.jpg,1700,solid,I,m,607,1,2,47584.799999999814,148650.1000000001,8072,ATS,A,21
21,test,1,A,haborder.png,1,z,Mon Jan 12 2026 14:41:50 GMT-0600 (Central Standard Time),197984.8999999999,CFD-WF-019-015-A.jpg,1000,solid,I,z,717,12,2,49334.799999999814,148650.1000000001,8072,ATS,A,22
22,test,1,A,haborder.png,1,z,Mon Jan 12 2026 14:41:50 GMT-0600 (Central Standard Time),200734.1000000001,CFD-WM-013-015-A.jpg,1900,solid,I,z,819,8,2,52084.0,148650.1000000001,8072,ATS,A,23
23,test,1,A,haborder.png,1,m,Mon Jan 12 2026 14:41:50 GMT-0600 (Central Standard Time),202866.2999999998,CFD-WM-004-005-HC.jpg,1400,solid,I,m,716,7,2,54216.19999999972,148650.1000000001,8072,ATS,A,24
1,test,1,B,mfborder.png,1,z,Mon Jan 12 2026 14:41:50 GMT-0600 (Central Standard Time),217245.19999999972,CFD-WF-002-008-HC.jpg,1900,dash,I,z,913,8,2,2832.399999999907,214412.7999999998,8072,ATS,A,1
2,test,1,B,mfborder.png,1,z,Mon Jan 12 2026 14:41:50 GMT-0600 (Central Standard Time),219428.0,CFD-WF-003-014-A.jpg,1500,dash,I,z,656,11,2,5015.200000000186,214412.7999999998,8072,ATS,A,2
3,test,1,B,mfborder.png,1,m,Mon Jan 12 2026 14:41:50 GMT-0600 (Central Standard Time),221626.8999999999,CFD-WM-006-013-HC.jpg,1600,dash,I,m,582,10,2,7214.100000000093,214412.7999999998,8072,ATS,A,3
4,test,1,B,mfborder.png,1,m,Mon Jan 12 2026 14:41:50 GMT-0600 (Central Standard Time),224076.19999999972,CFD-BM-010-019-A.jpg,1600,dash,I,m,775,2,2,9663.399999999907,214412.7999999998,8072,ATS,A,4
5,test,1,B,mfborder.png,1,m,Mon Jan 12 2026 14:41:50 GMT-0600 (Central Standard Time),226275.69999999972,CFD-WM-006-013-HC.jpg,1600,dash,I,m,581,10,2,11862.899999999907,214412.7999999998,8072,ATS,A,5
6,test,1,B,mfborder.png,1,z,Mon Jan 12 2026 14:41:50 GMT-0600 (Central Standard Time),227908.5,CFD-WF-017-016-HC.jpg,1000,dash,I,z,605,12,2,13495.700000000186,214412.7999999998,8072,ATS,A,6
7,test,1,B,mfborder.png,1,m,Mon Jan 12 2026 14:41:50 GMT-0600 (Central Standard Time),229708.1000000001,CFD-WM-019-013-A.jpg,1200,dash,I,m,573,6,2,15295.30000000028,214412.7999999998,8072,ATS,A,7
8,test,1,B,mfborder.png,1,z,Mon Jan 12 2026 14:41:50 GMT-0600 (Central Standard Time),231674.1000000001,CFD-BF-028-020-HC.jpg,1400,dash,I,z,549,7,2,17261.30000000028,214412.7999999998,8072,ATS,A,8
9,test,1,B,mfborder.png,1,m,Mon Jan 12 2026 14:41:50 GMT-0600 (Central Standard Time),233906.7999999998,CFD-WM-013-015-A.jpg,1700,dash,I,m,500,9,2,19494.0,214412.7999999998,8072,ATS,A,9
10,test,1,B,mfborder.png,1,z,Mon Jan 12 2026 14:41:50 GMT-0600 (Central Standard Time),235622.69999999972,CFD-BF-023-013-A.jpg,1000,dash,I,z,694,4,2,21209.899999999907,214412.7999999998,8072,ATS,A,10
11,test,1,B,mfborder.png,1,m,Mon Jan 12 2026 14:41:50 GMT-0600 (Central Standard Time),237971.69999999972,CFD-BM-029-026-HC.jpg,1700,dash,I,m,631,1,2,23558.899999999907,214412.7999999998,8072,ATS,A,11
12,test,1,B,mfborder.png,1,z,Mon Jan 12 2026 14:41:50 GMT-0600 (Central Standard Time),240104.69999999972,CFD-BF-010-005-HC.jpg,1500,dash,I,z,600,3,2,25691.899999999907,214412.7999999998,8072,ATS,A,12
12,test,1,B,mfborder.png,0,z,Mon Jan 12 2026 14:41:50 GMT-0600 (Central Standard Time),242270.7999999998,CFD-BF-010-005-HC.jpg,1500,dash,I,m,637,3,2,27858.0,214412.7999999998,8072,ATS,A,13
13,test,1,B,mfborder.png,1,m,Mon Jan 12 2026 14:41:50 GMT-0600 (Central Standard Time),244686.7999999998,CFD-BM-010-019-A.jpg,1600,dash,I,m,787,2,2,30274.0,214412.7999999998,8072,ATS,A,14
14,test,1,B,mfborder.png,1,z,Mon Jan 12 2026 14:41:50 GMT-0600 (Central Standard Time),246219.5,CFD-WF-017-016-HC.jpg,1000,dash,I,z,507,12,2,31806.700000000186,214412.7999999998,8072,ATS,A,15
15,test,1,B,mfborder.png,1,z,Mon Jan 12 2026 14:41:50 GMT-0600 (Central Standard Time),247985.69999999972,CFD-BF-023-013-A.jpg,1000,dash,I,z,742,4,2,33572.89999999991,214412.7999999998,8072,ATS,A,16
16,test,1,B,mfborder.png,1,z,Mon Jan 12 2026 14:41:50 GMT-0600 (Central Standard Time),250101.6000000001,CFD-WF-003-014-A.jpg,1500,dash,I,z,596,11,2,35688.80000000028,214412.7999999998,8072,ATS,A,17
17,test,1,B,mfborder.png,1,m,Mon Jan 12 2026 14:41:50 GMT-0600 (Central Standard Time),252283.8999999999,CFD-WM-013-015-A.jpg,1700,dash,I,m,464,9,2,37871.10000000009,214412.7999999998,8072,ATS,A,18
18,test,1,B,mfborder.png,1,m,Mon Jan 12 2026 14:41:50 GMT-0600 (Central Standard Time),254849.8999999999,CFD-BM-005-010-A.jpg,2000,dash,I,m,548,5,2,40437.10000000009,214412.7999999998,8072,ATS,A,19
19,test,1,B,mfborder.png,1,z,Mon Jan 12 2026 14:41:50 GMT-0600 (Central Standard Time),256866.3999999999,CFD-BF-028-020-HC.jpg,1400,dash,I,z,591,7,2,42453.60000000009,214412.7999999998,8072,ATS,A,20
20,test,1,B,mfborder.png,1,m,Mon Jan 12 2026 14:41:50 GMT-0600 (Central Standard Time),259631.7999999998,CFD-BM-005-010-A.jpg,2000,dash,I,m,742,5,2,45219.0,214412.7999999998,8072,ATS,A,21
21,test,1,B,mfborder.png,1,z,Mon Jan 12 2026 14:41:50 GMT-0600 (Central Standard Time),262148.0,CFD-WF-002-008-HC.jpg,1900,dash,I,z,598,8,2,47735.200000000186,214412.7999999998,8072,ATS,A,22
22,test,1,B,mfborder.png,1,m,Mon Jan 12 2026 14:41:50 GMT-0600 (Central Standard Time),264447.1000000001,CFD-BM-029-026-HC.jpg,1700,dash,I,m,570,1,2,50034.30000000028,214412.7999999998,8072,ATS,A,23
23,test,1,B,mfborder.png,1,m,Mon Jan 12 2026 14:41:50 GMT-0600 (Central Standard Time),266496.3999999999,CFD-WM-019-013-A.jpg,1200,dash,I,m,819,6,2,52083.60000000009,214412.7999999998,8072,ATS,A,24
0,prac,1,C,mfborder.png,0,z,Mon Jan 12 2026 14:41:50 GMT-0600 (Central Standard Time),306733.8999999999,CFD-BF-028-020-HC.jpg,1000,dash,I,None,1515,3,2,3298.7999999998137,303435.1000000001,8072,ATS,A,1
1,prac,1,C,mfborder.png,1,m,Mon Jan 12 2026 14:41:50 GMT-0600 (Central Standard Time),309899.3999999999,CFD-BM-005-010-A.jpg,1200,dash,I,m,1180,5,2,6464.299999999814,303435.1000000001,8072,ATS,A,2
2,prac,1,C,haborder.png,1,m,Mon Jan 12 2026 14:41:50 GMT-0600 (Central Standard Time),313332.0,CFD-BM-029-026-HC.jpg,1500,solid,I,m,1138,10,2,9896.899999999907,303435.1000000001,8072,ATS,A,3
3,prac,1,C,mfborder.png,1,m,Mon Jan 12 2026 14:41:50 GMT-0600 (Central Standard Time),317197.1999999997,CFD-BM-017-052-HC.jpg,2000,solid,I,m,1070,4,2,13762.099999999627,303435.1000000001,8072,ATS,A,4
4,prac,1,C,haborder.png,1,z,Mon Jan 12 2026 14:41:50 GMT-0600 (Central Standard Time),320579.5,CFD-WF-003-014-A.jpg,1600,dash,I,z,996,9,2,17144.399999999907,303435.1000000001,8072,ATS,A,5
5,prac,1,C,mfborder.png,1,m,Mon Jan 12 2026 14:41:50 GMT-0600 (Central Standard Time),324395.1999999997,CFD-WM-013-015-A.jpg,1700,solid,I,m,1330,6,2,20960.099999999627,303435.1000000001,8072,ATS,A,6
6,prac,1,C,haborder.png,1,z,Mon Jan 12 2026 14:41:50 GMT-0600 (Central Standard Time),328293.6999999997,CFD-BF-039-039-A.jpg,1700,solid,I,z,1411,8,2,24858.599999999627,303435.1000000001,8072,ATS,A,7
7,prac,1,C,mfborder.png,1,z,Mon Jan 12 2026 14:41:50 GMT-0600 (Central Standard Time),331859.3999999999,CFD-WF-019-015-A.jpg,1500,solid,I,z,1280,2,2,28424.299999999814,303435.1000000001,8072,ATS,A,8
8,prac,1,C,haborder.png,1,m,Mon Jan 12 2026 14:41:50 GMT-0600 (Central Standard Time),335108.3999999999,CFD-WM-004-005-HC.jpg,1400,solid,I,m,1062,12,2,31673.299999999814,303435.1000000001,8072,ATS,A,9
9,prac,1,C,haborder.png,1,m,Mon Jan 12 2026 14:41:50 GMT-0600 (Central Standard Time),337940.8999999999,CFD-WM-004-005-HC.jpg,1000,dash,I,m,1037,11,2,34505.799999999814,303435.1000000001,8072,ATS,A,10
10,prac,1,C,mfborder.png,1,z,Mon Jan 12 2026 14:41:50 GMT-0600 (Central Standard Time),341324.8999999999,CFD-WF-017-016-HC.jpg,1600,dash,I,z,1005,1,2,37889.799999999814,303435.1000000001,8072,ATS,A,11
11,prac,1,C,haborder.png,1,z,Mon Jan 12 2026 14:41:50 GMT-0600 (Central Standard Time),345221.8999999999,CFD-BF-023-013-A.jpg,1900,dash,I,z,1211,7,2,41786.799999999814,303435.1000000001,8072,ATS,A,12
1,test,1,C,mfborder.png,1,z,Mon Jan 12 2026 14:41:50 GMT-0600 (Central Standard Time),362483.1000000001,CFD-WF-003-014-A.jpg,1500,dash,I,z,1307,3,2,2832.7000000001863,359650.3999999999,8072,ATS,A,1
2,test,1,C,mfborder.png,1,m,Mon Jan 12 2026 14:41:50 GMT-0600 (Central Standard Time),365249.1000000001,CFD-WM-019-013-A.jpg,2000,dash,I,m,742,5,2,5598.700000000186,359650.3999999999,8072,ATS,A,2
3,test,1,C,mfborder.png,1,m,Mon Jan 12 2026 14:41:50 GMT-0600 (Central Standard Time),368381.3999999999,CFD-WM-019-013-A.jpg,2000,dash,I,m,1113,5,2,8731.0,359650.3999999999,8072,ATS,A,3
4,test,1,C,mfborder.png,1,m,Mon Jan 12 2026 14:41:50 GMT-0600 (Central Standard Time),370681.6000000001,CFD-BM-029-026-HC.jpg,1200,dash,I,m,1068,6,2,11031.200000000186,359650.3999999999,8072,ATS,A,4
4,test,1,C,haborder.png,0,m,Mon Jan 12 2026 14:41:50 GMT-0600 (Central Standard Time),373713.0,CFD-WF-002-008-HC.jpg,1500,solid,I,None,1516,11,2,14062.600000000093,359650.3999999999,8072,ATS,A,5
5,test,1,C,haborder.png,1,z,Mon Jan 12 2026 14:41:50 GMT-0600 (Central Standard Time),375962.3999999999,CFD-WM-013-015-A.jpg,1400,solid,I,z,817,7,2,16312.0,359650.3999999999,8072,ATS,A,6
6,test,1,C,mfborder.png,1,z,Mon Jan 12 2026 14:41:50 GMT-0600 (Central Standard Time),378711.5,CFD-BF-023-013-A.jpg,1600,dash,I,z,1127,2,2,19061.100000000093,359650.3999999999,8072,ATS,A,7
7,test,1,C,haborder.png,1,m,Mon Jan 12 2026 14:41:50 GMT-0600 (Central Standard Time),381194.1000000001,CFD-WF-017-016-HC.jpg,1000,solid,I,m,1458,12,2,21543.700000000186,359650.3999999999,8072,ATS,A,8
8,test,1,C,haborder.png,1,m,Mon Jan 12 2026 14:41:50 GMT-0600 (Central Standard Time),383359.8999999999,CFD-WF-017-016-HC.jpg,1000,solid,I,m,1134,12,2,23709.5,359650.3999999999,8072,ATS,A,9
8,test,1,C,mfborder.png,0,z,Mon Jan 12 2026 14:41:50 GMT-0600 (Central Standard Time),386592.3999999999,CFD-BF-010-005-HC.jpg,1700,dash,I,None,1516,1,2,26942.0,359650.3999999999,8072,ATS,A,10
9,test,1,C,haborder.png,1,m,Mon Jan 12 2026 14:41:50 GMT-0600 (Central Standard Time),389491.1999999997,CFD-BF-028-020-HC.jpg,1600,solid,I,m,1196,10,2,29840.799999999814,359650.3999999999,8072,ATS,A,11
10,test,1,C,mfborder.png,1,z,Mon Jan 12 2026 14:41:50 GMT-0600 (Central Standard Time),392323.6999999997,CFD-BF-023-013-A.jpg,1600,dash,I,z,1206,2,2,32673.299999999814,359650.3999999999,8072,ATS,A,12
11,test,1,C,mfborder.png,1,m,Mon Jan 12 2026 14:41:50 GMT-0600 (Central Standard Time),394539.8999999999,CFD-BM-029-026-HC.jpg,1200,dash,I,m,998,6,2,34889.5,359650.3999999999,8072,ATS,A,13
12,test,1,C,haborder.png,1,z,Mon Jan 12 2026 14:41:50 GMT-0600 (Central Standard Time),397871.7999999998,CFD-BM-005-010-A.jpg,1900,solid,I,z,1410,8,2,38221.39999999991,359650.3999999999,8072,ATS,A,14
13,test,1,C,haborder.png,1,z,Mon Jan 12 2026 14:41:50 GMT-0600 (Central Standard Time),401237.6000000001,CFD-BM-005-010-A.jpg,1900,solid,I,z,1438,8,2,41587.200000000186,359650.3999999999,8072,ATS,A,15
13,test,1,C,mfborder.png,0,z,Mon Jan 12 2026 14:41:50 GMT-0600 (Central Standard Time),404004.5,CFD-WF-003-014-A.jpg,1500,dash,I,m,1248,3,2,44354.10000000009,359650.3999999999,8072,ATS,A,16
13,test,1,C,haborder.png,0,m,Mon Jan 12 2026 14:41:50 GMT-0600 (Central Standard Time),407040.8999999999,CFD-WF-002-008-HC.jpg,1500,solid,I,None,1516,11,2,47390.5,359650.3999999999,8072,ATS,A,17
14,test,1,C,haborder.png,1,z,Mon Jan 12 2026 14:41:50 GMT-0600 (Central Standard Time),409435.1999999997,CFD-WM-013-015-A.jpg,1400,solid,I,z,974,7,2,49784.799999999814,359650.3999999999,8072,ATS,A,18
15,test,1,C,haborder.png,1,z,Mon Jan 12 2026 14:41:50 GMT-0600 (Central Standard Time),412153.3999999999,CFD-BM-010-019-A.jpg,1700,solid,I,z,986,9,2,52503.0,359650.3999999999,8072,ATS,A,19
16,test,1,C,mfborder.png,1,m,Mon Jan 12 2026 14:41:50 GMT-0600 (Central Standard Time),414333.6999999997,CFD-WM-006-013-HC.jpg,1000,dash,I,m,1163,4,2,54683.299999999814,359650.3999999999,8072,ATS,A,20
16,test,1,C,haborder.png,0,m,Mon Jan 12 2026 14:41:50 GMT-0600 (Central Standard Time),417266.0,CFD-BF-028-020-HC.jpg,1600,solid,I,z,1316,10,2,57615.60000000009,359650.3999999999,8072,ATS,A,21
17,test,1,C,haborder.png,1,z,Mon Jan 12 2026 14:41:50 GMT-0600 (Central Standard Time),419931.8999999999,CFD-BM-010-019-A.jpg,1700,solid,I,z,948,9,2,60281.5,359650.3999999999,8072,ATS,A,22
18,test,1,C,mfborder.png,1,z,Mon Jan 12 2026 14:41:50 GMT-0600 (Central Standard Time),422814.1999999997,CFD-BF-010-005-HC.jpg,1700,dash,I,z,1162,1,2,63163.799999999814,359650.3999999999,8072,ATS,A,23
19,test,1,C,mfborder.png,1,m,Mon Jan 12 2026 14:41:50 GMT-0600 (Central Standard Time),424680.1999999997,CFD-WM-006-013-HC.jpg,1000,dash,I,m,835,4,2,65029.799999999814,359650.3999999999,8072,ATS,A,24
1,test,2,C,mfborder.png,1,z,Mon Jan 12 2026 14:41:50 GMT-0600 (Central Standard Time),429095.8999999999,CFD-WF-017-016-HC.jpg,1700,dash,I,z,1036,1,2,2765.7000000001863,426330.1999999997,8072,ATS,A,1
2,test,2,C,haborder.png,1,m,Mon Jan 12 2026 14:41:50 GMT-0600 (Central Standard Time),431828.1999999997,CFD-BM-029-026-HC.jpg,1600,solid,I,m,1114,10,2,5498.0,426330.1999999997,8072,ATS,A,2
3,test,2,C,haborder.png,1,z,Mon Jan 12 2026 14:41:50 GMT-0600 (Central Standard Time),434644.7999999998,CFD-WF-003-014-A.jpg,1700,solid,I,z,1097,9,2,8314.600000000093,426330.1999999997,8072,ATS,A,3
4,test,2,C,haborder.png,1,m,Mon Jan 12 2026 14:41:50 GMT-0600 (Central Standard Time),436726.2999999998,CFD-WM-004-005-HC.jpg,1000,solid,I,m,1061,12,2,10396.100000000093,426330.1999999997,8072,ATS,A,4
5,test,2,C,mfborder.png,1,z,Mon Jan 12 2026 14:41:50 GMT-0600 (Central Standard Time),439259.1000000001,CFD-WF-019-015-A.jpg,1600,dash,I,z,907,2,2,12928.900000000373,426330.1999999997,8072,ATS,A,5
6,test,2,C,mfborder.png,1,m,Mon Jan 12 2026 14:41:50 GMT-0600 (Central Standard Time),441308.2999999998,CFD-BM-017-052-HC.jpg,1000,dash,I,m,1030,4,2,14978.100000000093,426330.1999999997,8072,ATS,A,6
7,test,2,C,haborder.png,1,m,Mon Jan 12 2026 14:41:50 GMT-0600 (Central Standard Time),443824.2999999998,CFD-WM-004-005-HC.jpg,1500,solid,I,m,985,11,2,17494.100000000093,426330.1999999997,8072,ATS,A,7
8,test,2,C,haborder.png,1,z,Mon Jan 12 2026 14:41:50 GMT-0600 (Central Standard Time),446673.2999999998,CFD-WF-003-014-A.jpg,1700,solid,I,z,1117,9,2,20343.100000000093,426330.1999999997,8072,ATS,A,8
9,test,2,C,haborder.png,1,m,Mon Jan 12 2026 14:41:50 GMT-0600 (Central Standard Time),448906.0,CFD-WM-004-005-HC.jpg,1000,solid,I,m,1200,12,2,22575.80000000028,426330.1999999997,8072,ATS,A,9
10,test,2,C,haborder.png,1,z,Mon Jan 12 2026 14:41:50 GMT-0600 (Central Standard Time),451671.8999999999,CFD-BF-039-039-A.jpg,1900,solid,I,z,835,8,2,25341.700000000186,426330.1999999997,8072,ATS,A,10
11,test,2,C,mfborder.png,1,m,Mon Jan 12 2026 14:41:50 GMT-0600 (Central Standard Time),453838.0,CFD-BM-017-052-HC.jpg,1000,dash,I,m,1145,4,2,27507.80000000028,426330.1999999997,8072,ATS,A,11
12,test,2,C,haborder.png,1,z,Mon Jan 12 2026 14:41:50 GMT-0600 (Central Standard Time),456553.7999999998,CFD-BF-039-039-A.jpg,1900,solid,I,z,784,8,2,30223.600000000093,426330.1999999997,8072,ATS,A,12
13,test,2,C,haborder.png,1,z,Mon Jan 12 2026 14:41:50 GMT-0600 (Central Standard Time),459050.2999999998,CFD-BF-023-013-A.jpg,1400,solid,I,z,1080,7,2,32720.100000000093,426330.1999999997,8072,ATS,A,13
13,test,2,C,mfborder.png,0,z,Mon Jan 12 2026 14:41:50 GMT-0600 (Central Standard Time),461518.7999999998,CFD-BF-028-020-HC.jpg,1500,dash,I,m,937,3,2,35188.60000000009,426330.1999999997,8072,ATS,A,14
14,test,2,C,haborder.png,1,m,Mon Jan 12 2026 14:41:50 GMT-0600 (Central Standard Time),463901.2999999998,CFD-WM-004-005-HC.jpg,1500,solid,I,m,863,11,2,37571.10000000009,426330.1999999997,8072,ATS,A,15
15,test,2,C,mfborder.png,1,z,Mon Jan 12 2026 14:41:50 GMT-0600 (Central Standard Time),466417.5,CFD-WF-019-015-A.jpg,1600,dash,I,z,884,2,2,40087.30000000028,426330.1999999997,8072,ATS,A,16
16,test,2,C,mfborder.png,1,m,Mon Jan 12 2026 14:41:50 GMT-0600 (Central Standard Time),469449.6000000001,CFD-BM-005-010-A.jpg,2000,dash,I,m,1008,5,2,43119.40000000037,426330.1999999997,8072,ATS,A,17
17,test,2,C,mfborder.png,1,m,Mon Jan 12 2026 14:41:50 GMT-0600 (Central Standard Time),471382.2999999998,CFD-WM-013-015-A.jpg,1200,dash,I,m,712,6,2,45052.10000000009,426330.1999999997,8072,ATS,A,18
18,test,2,C,mfborder.png,1,z,Mon Jan 12 2026 14:41:50 GMT-0600 (Central Standard Time),474031.7999999998,CFD-WF-017-016-HC.jpg,1700,dash,I,z,927,1,2,47701.60000000009,426330.1999999997,8072,ATS,A,19
19,test,2,C,haborder.png,1,z,Mon Jan 12 2026 14:41:50 GMT-0600 (Central Standard Time),476347.5,CFD-BF-023-013-A.jpg,1400,solid,I,z,890,7,2,50017.30000000028,426330.1999999997,8072,ATS,A,20
20,test,2,C,haborder.png,1,m,Mon Jan 12 2026 14:41:50 GMT-0600 (Central Standard Time),479296.6000000001,CFD-BM-029-026-HC.jpg,1600,solid,I,m,1326,10,2,52966.40000000037,426330.1999999997,8072,ATS,A,21
21,test,2,C,mfborder.png,1,z,Mon Jan 12 2026 14:41:50 GMT-0600 (Central Standard Time),481695.6999999997,CFD-BF-028-020-HC.jpg,1500,dash,I,z,869,3,2,55365.5,426330.1999999997,8072,ATS,A,22
22,test,2,C,mfborder.png,1,m,Mon Jan 12 2026 14:41:50 GMT-0600 (Central Standard Time),484911.3999999999,CFD-BM-005-010-A.jpg,2000,dash,I,m,1194,5,2,58581.200000000186,426330.1999999997,8072,ATS,A,23
23,test,2,C,mfborder.png,1,m,Mon Jan 12 2026 14:41:50 GMT-0600 (Central Standard Time),486944.1999999997,CFD-WM-013-015-A.jpg,1200,dash,I,m,810,6,2,60614.0,426330.1999999997,8072,ATS,A,24
1,test,3,C,haborder.png,1,z,Mon Jan 12 2026 14:41:50 GMT-0600 (Central Standard Time),492092.5,CFD-BM-010-019-A.jpg,1700,solid,I,z,1455,9,2,3182.399999999907,488910.1000000001,8072,ATS,A,1
2,test,3,C,haborder.png,1,m,Mon Jan 12 2026 14:41:50 GMT-0600 (Central Standard Time),494358.5,CFD-WF-002-008-HC.jpg,1500,solid,I,m,745,11,2,5448.399999999907,488910.1000000001,8072,ATS,A,2
3,test,3,C,haborder.png,1,z,Mon Jan 12 2026 14:41:50 GMT-0600 (Central Standard Time),496457.8999999999,CFD-WM-013-015-A.jpg,1400,solid,I,z,675,7,2,7547.799999999814,488910.1000000001,8072,ATS,A,3
4,test,3,C,haborder.png,1,m,Mon Jan 12 2026 14:41:50 GMT-0600 (Central Standard Time),499240.3999999999,CFD-BF-028-020-HC.jpg,1600,solid,I,m,1157,10,2,10330.299999999814,488910.1000000001,8072,ATS,A,4
5,test,3,C,mfborder.png,1,m,Mon Jan 12 2026 14:41:50 GMT-0600 (Central Standard Time),501439.5,CFD-WM-006-013-HC.jpg,1000,dash,I,m,1169,4,2,12529.399999999907,488910.1000000001,8072,ATS,A,5
6,test,3,C,haborder.png,1,m,Mon Jan 12 2026 14:41:50 GMT-0600 (Central Standard Time),503855.7999999998,CFD-BF-028-020-HC.jpg,1600,solid,I,m,786,10,2,14945.69999999972,488910.1000000001,8072,ATS,A,6
7,test,3,C,mfborder.png,1,m,Mon Jan 12 2026 14:41:50 GMT-0600 (Central Standard Time),505838.1999999997,CFD-WM-006-013-HC.jpg,1000,dash,I,m,961,4,2,16928.099999999627,488910.1000000001,8072,ATS,A,7
8,test,3,C,mfborder.png,1,z,Mon Jan 12 2026 14:41:50 GMT-0600 (Central Standard Time),508387.7999999998,CFD-BF-023-013-A.jpg,1600,dash,I,z,923,2,2,19477.69999999972,488910.1000000001,8072,ATS,A,8
8,test,3,C,haborder.png,0,z,Mon Jan 12 2026 14:41:50 GMT-0600 (Central Standard Time),511636.3999999999,CFD-BM-005-010-A.jpg,1900,solid,I,m,1330,8,2,22726.299999999814,488910.1000000001,8072,ATS,A,9
9,test,3,C,mfborder.png,1,z,Mon Jan 12 2026 14:41:50 GMT-0600 (Central Standard Time),514335.6999999997,CFD-WF-003-014-A.jpg,1500,dash,I,z,1169,3,2,25425.599999999627,488910.1000000001,8072,ATS,A,10
10,test,3,C,haborder.png,1,z,Mon Jan 12 2026 14:41:50 GMT-0600 (Central Standard Time),517384.7999999998,CFD-BM-005-010-A.jpg,1900,solid,I,z,1118,8,2,28474.69999999972,488910.1000000001,8072,ATS,A,11
10,test,3,C,haborder.png,0,m,Mon Jan 12 2026 14:41:50 GMT-0600 (Central Standard Time),519917.6000000001,CFD-WF-017-016-HC.jpg,1000,solid,I,None,1515,12,2,31007.5,488910.1000000001,8072,ATS,A,12
11,test,3,C,mfborder.png,1,z,Mon Jan 12 2026 14:41:50 GMT-0600 (Central Standard Time),522683.1000000001,CFD-BF-010-005-HC.jpg,1700,dash,I,z,1040,1,2,33773.0,488910.1000000001,8072,ATS,A,13
12,test,3,C,mfborder.png,1,m,Mon Jan 12 2026 14:41:50 GMT-0600 (Central Standard Time),525315.5,CFD-WM-019-013-A.jpg,2000,dash,I,m,615,5,2,36405.39999999991,488910.1000000001,8072,ATS,A,14
13,test,3,C,mfborder.png,1,m,Mon Jan 12 2026 14:41:50 GMT-0600 (Central Standard Time),527281.5,CFD-BM-029-026-HC.jpg,1200,dash,I,m,742,6,2,38371.39999999991,488910.1000000001,8072,ATS,A,15
13,test,3,C,mfborder.png,0,z,Mon Jan 12 2026 14:41:50 GMT-0600 (Central Standard Time),529364.3999999999,CFD-WF-003-014-A.jpg,1500,dash,I,m,556,3,2,40454.299999999814,488910.1000000001,8072,ATS,A,16
14,test,3,C,mfborder.png,1,z,Mon Jan 12 2026 14:41:50 GMT-0600 (Central Standard Time),532113.5,CFD-BF-010-005-HC.jpg,1700,dash,I,z,1026,1,2,43203.39999999991,488910.1000000001,8072,ATS,A,17
15,test,3,C,haborder.png,1,m,Mon Jan 12 2026 14:41:50 GMT-0600 (Central Standard Time),534662.6999999997,CFD-WF-002-008-HC.jpg,1500,solid,I,m,1028,11,2,45752.59999999963,488910.1000000001,8072,ATS,A,18
16,test,3,C,mfborder.png,1,m,Mon Jan 12 2026 14:41:50 GMT-0600 (Central Standard Time),537045.2999999998,CFD-BM-029-026-HC.jpg,1200,dash,I,m,1163,6,2,48135.19999999972,488910.1000000001,8072,ATS,A,19
17,test,3,C,haborder.png,1,m,Mon Jan 12 2026 14:41:50 GMT-0600 (Central Standard Time),539161.1000000001,CFD-WF-017-016-HC.jpg,1000,solid,I,m,1083,12,2,50251.0,488910.1000000001,8072,ATS,A,20
18,test,3,C,mfborder.png,1,z,Mon Jan 12 2026 14:41:50 GMT-0600 (Central Standard Time),541926.8999999999,CFD-BF-023-013-A.jpg,1600,dash,I,z,1136,2,2,53016.799999999814,488910.1000000001,8072,ATS,A,21
18,test,3,C,haborder.png,0,z,Mon Jan 12 2026 14:41:50 GMT-0600 (Central Standard Time),544860.3999999999,CFD-WM-013-015-A.jpg,1400,solid,I,None,1517,7,2,55950.299999999814,488910.1000000001,8072,ATS,A,22
19,test,3,C,mfborder.png,1,m,Mon Jan 12 2026 14:41:50 GMT-0600 (Central Standard Time),547691.6999999997,CFD-WM-019-013-A.jpg,2000,dash,I,m,806,5,2,58781.59999999963,488910.1000000001,8072,ATS,A,23
20,test,3,C,haborder.png,1,z,Mon Jan 12 2026 14:41:50 GMT-0600 (Central Standard Time),550374.1999999997,CFD-BM-010-019-A.jpg,1700,solid,I,z,962,9,2,61464.09999999963,488910.1000000001,8072,ATS,A,24
1,test,4,C,haborder.png,1,m,Mon Jan 12 2026 14:41:50 GMT-0600 (Central Standard Time),556955.6999999997,CFD-WM-004-005-HC.jpg,1500,solid,I,m,1106,11,2,2632.5,554323.1999999997,8072,ATS,A,1
2,test,4,C,mfborder.png,1,z,Mon Jan 12 2026 14:41:50 GMT-0600 (Central Standard Time),559604.8999999999,CFD-WF-019-015-A.jpg,1600,dash,I,z,1030,2,2,5281.700000000186,554323.1999999997,8072,ATS,A,2
3,test,4,C,mfborder.png,1,z,Mon Jan 12 2026 14:41:50 GMT-0600 (Central Standard Time),561904.1999999997,CFD-BF-028-020-HC.jpg,1500,dash,I,z,777,3,2,7581.0,554323.1999999997,8072,ATS,A,3
4,test,4,C,mfborder.png,1,m,Mon Jan 12 2026 14:41:50 GMT-0600 (Central Standard Time),563770.2999999998,CFD-BM-017-052-HC.jpg,1000,dash,I,m,849,4,2,9447.100000000093,554323.1999999997,8072,ATS,A,4
5,test,4,C,mfborder.png,1,z,Mon Jan 12 2026 14:41:50 GMT-0600 (Central Standard Time),566052.7999999998,CFD-WF-019-015-A.jpg,1600,dash,I,z,655,2,2,11729.600000000093,554323.1999999997,8072,ATS,A,5
5,test,4,C,mfborder.png,0,z,Mon Jan 12 2026 14:41:50 GMT-0600 (Central Standard Time),568568.7999999998,CFD-BF-028-020-HC.jpg,1500,dash,I,m,993,3,2,14245.600000000093,554323.1999999997,8072,ATS,A,6
6,test,4,C,haborder.png,1,m,Mon Jan 12 2026 14:41:50 GMT-0600 (Central Standard Time),571201.3999999999,CFD-WM-004-005-HC.jpg,1500,solid,I,m,1101,11,2,16878.200000000186,554323.1999999997,8072,ATS,A,7
6,test,4,C,haborder.png,0,z,Mon Jan 12 2026 14:41:50 GMT-0600 (Central Standard Time),573966.7999999998,CFD-WF-003-014-A.jpg,1700,solid,I,m,1045,9,2,19643.600000000093,554323.1999999997,8072,ATS,A,8
7,test,4,C,haborder.png,1,z,Mon Jan 12 2026 14:41:50 GMT-0600 (Central Standard Time),577054.5,CFD-BF-039-039-A.jpg,1900,solid,I,z,1024,8,2,22731.30000000028,554323.1999999997,8072,ATS,A,9
8,test,4,C,haborder.png,1,z,Mon Jan 12 2026 14:41:50 GMT-0600 (Central Standard Time),579314.8999999999,CFD-BF-023-013-A.jpg,1400,solid,I,z,848,7,2,24991.700000000186,554323.1999999997,8072,ATS,A,10
9,test,4,C,haborder.png,1,m,Mon Jan 12 2026 14:41:50 GMT-0600 (Central Standard Time),581881.1999999997,CFD-BM-029-026-HC.jpg,1600,solid,I,m,942,10,2,27558.0,554323.1999999997,8072,ATS,A,11
10,test,4,C,mfborder.png,1,m,Mon Jan 12 2026 14:41:50 GMT-0600 (Central Standard Time),584080.3999999999,CFD-WM-013-015-A.jpg,1200,dash,I,m,976,6,2,29757.200000000186,554323.1999999997,8072,ATS,A,12
11,test,4,C,mfborder.png,1,m,Mon Jan 12 2026 14:41:50 GMT-0600 (Central Standard Time),586129.6999999997,CFD-BM-017-052-HC.jpg,1000,dash,I,m,1025,4,2,31806.5,554323.1999999997,8072,ATS,A,13
12,test,4,C,mfborder.png,1,z,Mon Jan 12 2026 14:41:50 GMT-0600 (Central Standard Time),588745.8999999999,CFD-WF-017-016-HC.jpg,1700,dash,I,z,884,1,2,34422.700000000186,554323.1999999997,8072,ATS,A,14
13,test,4,C,mfborder.png,1,m,Mon Jan 12 2026 14:41:50 GMT-0600 (Central Standard Time),591578.0,CFD-BM-005-010-A.jpg,2000,dash,I,m,808,5,2,37254.80000000028,554323.1999999997,8072,ATS,A,15
14,test,4,C,mfborder.png,1,m,Mon Jan 12 2026 14:41:50 GMT-0600 (Central Standard Time),593762.1999999997,CFD-WM-013-015-A.jpg,1200,dash,I,m,959,6,2,39439.0,554323.1999999997,8072,ATS,A,16
15,test,4,C,mfborder.png,1,m,Mon Jan 12 2026 14:41:50 GMT-0600 (Central Standard Time),596393.3999999999,CFD-BM-005-010-A.jpg,2000,dash,I,m,601,5,2,42070.200000000186,554323.1999999997,8072,ATS,A,17
16,test,4,C,haborder.png,1,m,Mon Jan 12 2026 14:41:50 GMT-0600 (Central Standard Time),599025.8999999999,CFD-BM-029-026-HC.jpg,1600,solid,I,m,1008,10,2,44702.700000000186,554323.1999999997,8072,ATS,A,18
17,test,4,C,haborder.png,1,z,Mon Jan 12 2026 14:41:50 GMT-0600 (Central Standard Time),601675.0,CFD-BF-039-039-A.jpg,1900,solid,I,z,724,8,2,47351.80000000028,554323.1999999997,8072,ATS,A,19
18,test,4,C,haborder.png,1,m,Mon Jan 12 2026 14:41:50 GMT-0600 (Central Standard Time),603907.3999999999,CFD-WM-004-005-HC.jpg,1000,solid,I,m,1214,12,2,49584.200000000186,554323.1999999997,8072,ATS,A,20
19,test,4,C,haborder.png,1,z,Mon Jan 12 2026 14:41:50 GMT-0600 (Central Standard Time),606123.6000000001,CFD-BF-023-013-A.jpg,1400,solid,I,z,798,7,2,51800.40000000037,554323.1999999997,8072,ATS,A,21
20,test,4,C,mfborder.png,1,z,Mon Jan 12 2026 14:41:50 GMT-0600 (Central Standard Time),608805.8999999999,CFD-WF-017-016-HC.jpg,1700,dash,I,z,954,1,2,54482.700000000186,554323.1999999997,8072,ATS,A,22
20,test,4,C,haborder.png,0,z,Mon Jan 12 2026 14:41:50 GMT-0600 (Central Standard Time),611855.0,CFD-WF-003-014-A.jpg,1700,solid,I,m,1319,9,2,57531.80000000028,554323.1999999997,8072,ATS,A,23
21,test,4,C,haborder.png,1,m,Mon Jan 12 2026 14:41:50 GMT-0600 (Central Standard Time),614254.3999999999,CFD-WM-004-005-HC.jpg,1000,solid,I,m,1370,12,2,59931.200000000186,554323.1999999997,8072,ATS,A,24
