acc_sum,block,block_c,block_cond,con_img,correct,correct_response,datetime,endtime,face,jitter,line,project,response,response_time,row_sel,session_number,start_end,starttime,subject_id,task,task_vers,trial
1,prac,1,A,haborder.png,1,z,Wed Aug 20 2025 17:15:20 GMT-0500 (Central Daylight Time),41964.300000071526,CFD-WF-023-013-A.jpg,1000,solid,O,z,1015,12,1,2797.8000000715256,39166.5,7209,ATS,C,1
1,prac,1,A,haborder.png,0,z,Wed Aug 20 2025 17:15:20 GMT-0500 (Central Daylight Time),44698.300000071526,CFD-BF-002-018-A.jpg,1200,solid,O,m,742,6,1,5531.800000071526,39166.5,7209,ATS,C,2
2,prac,1,A,haborder.png,1,z,Wed Aug 20 2025 17:15:20 GMT-0500 (Central Daylight Time),48147.10000002384,CFD-BM-043-014-A.jpg,1600,solid,O,z,1057,2,1,8980.600000023842,39166.5,7209,ATS,C,3
3,prac,1,A,haborder.png,1,m,Wed Aug 20 2025 17:15:20 GMT-0500 (Central Daylight Time),51095.5,CFD-BM-022-004-HC.jpg,1500,solid,O,m,660,3,1,11929.0,39166.5,7209,ATS,C,4
4,prac,1,A,haborder.png,1,m,Wed Aug 20 2025 17:15:20 GMT-0500 (Central Daylight Time),54658.700000047684,CFD-WM-035-036-HC.jpg,1700,solid,O,m,1066,9,1,15492.200000047684,39166.5,7209,ATS,C,5
5,prac,1,A,haborder.png,1,m,Wed Aug 20 2025 17:15:20 GMT-0500 (Central Daylight Time),57876.300000071526,CFD-BM-034-035-HC.jpg,1700,solid,O,m,729,1,1,18709.800000071526,39166.5,7209,ATS,C,6
6,prac,1,A,haborder.png,1,z,Wed Aug 20 2025 17:15:20 GMT-0500 (Central Daylight Time),61192.90000009537,CFD-WM-036-018-A.jpg,1900,solid,O,z,635,8,1,22026.400000095367,39166.5,7209,ATS,C,7
7,prac,1,A,haborder.png,1,m,Wed Aug 20 2025 17:15:20 GMT-0500 (Central Daylight Time),64623.60000002384,CFD-BF-019-004-HC.jpg,2000,solid,O,m,640,5,1,25457.100000023842,39166.5,7209,ATS,C,8
8,prac,1,A,haborder.png,1,m,Wed Aug 20 2025 17:15:20 GMT-0500 (Central Daylight Time),67541.80000007153,CFD-WM-028-005-HC.jpg,1400,solid,O,m,737,7,1,28375.300000071526,39166.5,7209,ATS,C,9
9,prac,1,A,haborder.png,1,m,Wed Aug 20 2025 17:15:20 GMT-0500 (Central Daylight Time),70473.0,CFD-WF-013-009-HC.jpg,1500,solid,O,m,632,11,1,31306.5,39166.5,7209,ATS,C,10
10,prac,1,A,haborder.png,1,z,Wed Aug 20 2025 17:15:20 GMT-0500 (Central Daylight Time),73504.40000009537,CFD-WF-037-016-A.jpg,1600,solid,O,z,642,10,1,34337.90000009537,39166.5,7209,ATS,C,11
11,prac,1,A,haborder.png,1,z,Wed Aug 20 2025 17:15:20 GMT-0500 (Central Daylight Time),75952.90000009537,CFD-BF-031-020-A.jpg,1000,solid,O,z,656,4,1,36786.40000009537,39166.5,7209,ATS,C,12
0,prac,1,B,mfborder.png,0,z,Wed Aug 20 2025 17:15:20 GMT-0500 (Central Daylight Time),91797.5,CFD-BF-042-031-HC.jpg,1500,3,O,m,734,dash,1,3048.1999999284744,88749.30000007153,7209,ATS,C,1
1,prac,1,B,mfborder.png,1,m,Wed Aug 20 2025 17:15:20 GMT-0500 (Central Daylight Time),95446.5,CFD-BM-043-014-A.jpg,2000,5,O,m,835,dash,1,6697.199999928474,88749.30000007153,7209,ATS,C,2
2,prac,1,B,mfborder.png,1,m,Wed Aug 20 2025 17:15:20 GMT-0500 (Central Daylight Time),98811.90000009537,CFD-WM-036-018-A.jpg,1700,9,O,m,879,dash,1,10062.600000023842,88749.30000007153,7209,ATS,C,3
3,prac,1,B,mfborder.png,1,m,Wed Aug 20 2025 17:15:20 GMT-0500 (Central Daylight Time),101861.40000009537,CFD-BM-021-026-A.jpg,1600,2,O,m,651,dash,1,13112.100000023842,88749.30000007153,7209,ATS,C,4
4,prac,1,B,mfborder.png,1,z,Wed Aug 20 2025 17:15:20 GMT-0500 (Central Daylight Time),105444.10000002384,CFD-WF-001-010-HC.jpg,1900,8,O,z,889,dash,1,16694.799999952316,88749.30000007153,7209,ATS,C,5
5,prac,1,B,mfborder.png,1,m,Wed Aug 20 2025 17:15:20 GMT-0500 (Central Daylight Time),108243.40000009537,CFD-WM-034-040-A.jpg,1200,6,O,m,805,dash,1,19494.100000023842,88749.30000007153,7209,ATS,C,6
6,prac,1,B,mfborder.png,1,z,Wed Aug 20 2025 17:15:20 GMT-0500 (Central Daylight Time),111276.90000009537,CFD-BF-019-004-HC.jpg,1400,7,O,z,851,dash,1,22527.600000023842,88749.30000007153,7209,ATS,C,7
7,prac,1,B,mfborder.png,1,z,Wed Aug 20 2025 17:15:20 GMT-0500 (Central Daylight Time),113724.40000009537,CFD-WF-013-009-HC.jpg,1000,12,O,z,662,dash,1,24975.100000023842,88749.30000007153,7209,ATS,C,8
8,prac,1,B,mfborder.png,1,z,Wed Aug 20 2025 17:15:20 GMT-0500 (Central Daylight Time),116174.20000004768,CFD-BF-031-020-A.jpg,1000,4,O,z,653,dash,1,27424.899999976158,88749.30000007153,7209,ATS,C,9
9,prac,1,B,mfborder.png,1,m,Wed Aug 20 2025 17:15:20 GMT-0500 (Central Daylight Time),119254.30000007153,CFD-BM-022-004-HC.jpg,1700,1,O,m,593,dash,1,30505.0,88749.30000007153,7209,ATS,C,10
10,prac,1,B,mfborder.png,1,z,Wed Aug 20 2025 17:15:20 GMT-0500 (Central Daylight Time),122204.30000007153,CFD-WF-037-016-A.jpg,1500,11,O,z,662,dash,1,33455.0,88749.30000007153,7209,ATS,C,11
11,prac,1,B,mfborder.png,1,m,Wed Aug 20 2025 17:15:20 GMT-0500 (Central Daylight Time),125188.60000002384,CFD-WM-035-036-HC.jpg,1600,10,O,m,603,dash,1,36439.299999952316,88749.30000007153,7209,ATS,C,12
1,test,1,A,haborder.png,1,z,Wed Aug 20 2025 17:15:20 GMT-0500 (Central Daylight Time),138835.40000009537,CFD-BM-043-014-A.jpg,1600,solid,O,z,1283,2,1,2900.3000000715256,135935.10000002384,7209,ATS,C,1
2,test,1,A,haborder.png,1,m,Wed Aug 20 2025 17:15:20 GMT-0500 (Central Daylight Time),140883.80000007153,CFD-WM-028-005-HC.jpg,1400,solid,O,m,633,7,1,4948.700000047684,135935.10000002384,7209,ATS,C,2
3,test,1,A,haborder.png,1,z,Wed Aug 20 2025 17:15:20 GMT-0500 (Central Daylight Time),143597.70000004768,CFD-WF-037-016-A.jpg,1600,solid,O,z,1085,10,1,7662.600000023842,135935.10000002384,7209,ATS,C,3
4,test,1,A,haborder.png,1,z,Wed Aug 20 2025 17:15:20 GMT-0500 (Central Daylight Time),145981.0,CFD-BM-043-014-A.jpg,1600,solid,O,z,763,2,1,10045.899999976158,135935.10000002384,7209,ATS,C,4
5,test,1,A,haborder.png,1,m,Wed Aug 20 2025 17:15:20 GMT-0500 (Central Daylight Time),148347.30000007153,CFD-BM-034-035-HC.jpg,1700,solid,O,m,638,1,1,12412.200000047684,135935.10000002384,7209,ATS,C,5
6,test,1,A,haborder.png,1,m,Wed Aug 20 2025 17:15:20 GMT-0500 (Central Daylight Time),150679.90000009537,CFD-WM-035-036-HC.jpg,1700,solid,O,m,600,9,1,14744.800000071526,135935.10000002384,7209,ATS,C,6
7,test,1,A,haborder.png,1,z,Wed Aug 20 2025 17:15:20 GMT-0500 (Central Daylight Time),152628.10000002384,CFD-WF-023-013-A.jpg,1000,solid,O,z,921,12,1,16693.0,135935.10000002384,7209,ATS,C,7
8,test,1,A,haborder.png,1,m,Wed Aug 20 2025 17:15:20 GMT-0500 (Central Daylight Time),154645.60000002384,CFD-WM-028-005-HC.jpg,1400,solid,O,m,588,7,1,18710.5,135935.10000002384,7209,ATS,C,8
9,test,1,A,haborder.png,1,z,Wed Aug 20 2025 17:15:20 GMT-0500 (Central Daylight Time),156645.10000002384,CFD-BF-031-020-A.jpg,1000,solid,O,z,983,4,1,20710.0,135935.10000002384,7209,ATS,C,9
10,test,1,A,haborder.png,1,m,Wed Aug 20 2025 17:15:20 GMT-0500 (Central Daylight Time),159325.0,CFD-BM-022-004-HC.jpg,1500,solid,O,m,1147,3,1,23389.899999976158,135935.10000002384,7209,ATS,C,10
11,test,1,A,haborder.png,1,z,Wed Aug 20 2025 17:15:20 GMT-0500 (Central Daylight Time),161541.90000009537,CFD-BF-002-018-A.jpg,1200,solid,O,z,987,6,1,25606.800000071526,135935.10000002384,7209,ATS,C,11
12,test,1,A,haborder.png,1,z,Wed Aug 20 2025 17:15:20 GMT-0500 (Central Daylight Time),164209.10000002384,CFD-WM-036-018-A.jpg,1900,solid,O,z,743,8,1,28274.0,135935.10000002384,7209,ATS,C,12
13,test,1,A,haborder.png,1,m,Wed Aug 20 2025 17:15:20 GMT-0500 (Central Daylight Time),166707.10000002384,CFD-WF-013-009-HC.jpg,1500,solid,O,m,971,11,1,30772.0,135935.10000002384,7209,ATS,C,13
14,test,1,A,haborder.png,1,z,Wed Aug 20 2025 17:15:20 GMT-0500 (Central Daylight Time),168839.80000007153,CFD-BF-002-018-A.jpg,1200,solid,O,z,901,6,1,32904.700000047684,135935.10000002384,7209,ATS,C,14
15,test,1,A,haborder.png,1,z,Wed Aug 20 2025 17:15:20 GMT-0500 (Central Daylight Time),170523.30000007153,CFD-BF-031-020-A.jpg,1000,solid,O,z,657,4,1,34588.200000047684,135935.10000002384,7209,ATS,C,15
16,test,1,A,haborder.png,1,m,Wed Aug 20 2025 17:15:20 GMT-0500 (Central Daylight Time),172655.40000009537,CFD-BM-022-004-HC.jpg,1500,solid,O,m,600,3,1,36720.300000071526,135935.10000002384,7209,ATS,C,16
17,test,1,A,haborder.png,1,z,Wed Aug 20 2025 17:15:20 GMT-0500 (Central Daylight Time),174605.90000009537,CFD-WF-023-013-A.jpg,1000,solid,O,z,932,12,1,38670.800000071526,135935.10000002384,7209,ATS,C,17
18,test,1,A,haborder.png,1,z,Wed Aug 20 2025 17:15:20 GMT-0500 (Central Daylight Time),177187.60000002384,CFD-WM-036-018-A.jpg,1900,solid,O,z,649,8,1,41252.5,135935.10000002384,7209,ATS,C,18
19,test,1,A,haborder.png,1,m,Wed Aug 20 2025 17:15:20 GMT-0500 (Central Daylight Time),179885.10000002384,CFD-BM-034-035-HC.jpg,1700,solid,O,m,966,1,1,43950.0,135935.10000002384,7209,ATS,C,19
20,test,1,A,haborder.png,1,m,Wed Aug 20 2025 17:15:20 GMT-0500 (Central Daylight Time),182468.70000004768,CFD-WF-013-009-HC.jpg,1500,solid,O,m,1060,11,1,46533.60000002384,135935.10000002384,7209,ATS,C,20
21,test,1,A,haborder.png,1,m,Wed Aug 20 2025 17:15:20 GMT-0500 (Central Daylight Time),185585.10000002384,CFD-BF-019-004-HC.jpg,2000,solid,O,m,1083,5,1,49650.0,135935.10000002384,7209,ATS,C,21
22,test,1,A,haborder.png,1,z,Wed Aug 20 2025 17:15:20 GMT-0500 (Central Daylight Time),187917.0,CFD-WF-037-016-A.jpg,1600,solid,O,z,712,10,1,51981.89999997616,135935.10000002384,7209,ATS,C,22
23,test,1,A,haborder.png,1,m,Wed Aug 20 2025 17:15:20 GMT-0500 (Central Daylight Time),190333.10000002384,CFD-WM-035-036-HC.jpg,1700,solid,O,m,686,9,1,54398.0,135935.10000002384,7209,ATS,C,23
24,test,1,A,haborder.png,1,m,Wed Aug 20 2025 17:15:20 GMT-0500 (Central Daylight Time),193148.80000007153,CFD-BF-019-004-HC.jpg,2000,solid,O,m,790,5,1,57213.700000047684,135935.10000002384,7209,ATS,C,24
1,test,1,B,mfborder.png,1,z,Wed Aug 20 2025 17:15:20 GMT-0500 (Central Daylight Time),203595.5,CFD-WF-037-016-A.jpg,1500,dash,O,z,889,11,1,2416.0999999046326,201179.40000009537,7209,ATS,C,1
2,test,1,B,mfborder.png,1,m,Wed Aug 20 2025 17:15:20 GMT-0500 (Central Daylight Time),205878.70000004768,CFD-WM-036-018-A.jpg,1700,dash,O,m,554,9,1,4699.299999952316,201179.40000009537,7209,ATS,C,2
3,test,1,B,mfborder.png,1,z,Wed Aug 20 2025 17:15:20 GMT-0500 (Central Daylight Time),207993.70000004768,CFD-BF-042-031-HC.jpg,1500,dash,O,z,584,3,1,6814.299999952316,201179.40000009537,7209,ATS,C,3
4,test,1,B,mfborder.png,1,z,Wed Aug 20 2025 17:15:20 GMT-0500 (Central Daylight Time),210593.30000007153,CFD-WF-001-010-HC.jpg,1900,dash,O,z,675,8,1,9413.899999976158,201179.40000009537,7209,ATS,C,4
5,test,1,B,mfborder.png,1,m,Wed Aug 20 2025 17:15:20 GMT-0500 (Central Daylight Time),212460.5,CFD-WM-034-040-A.jpg,1200,dash,O,m,636,6,1,11281.099999904633,201179.40000009537,7209,ATS,C,5
6,test,1,B,mfborder.png,1,m,Wed Aug 20 2025 17:15:20 GMT-0500 (Central Daylight Time),214791.20000004768,CFD-WM-035-036-HC.jpg,1600,dash,O,m,710,10,1,13611.799999952316,201179.40000009537,7209,ATS,C,6
7,test,1,B,mfborder.png,1,z,Wed Aug 20 2025 17:15:20 GMT-0500 (Central Daylight Time),216807.30000007153,CFD-BF-019-004-HC.jpg,1400,dash,O,z,594,7,1,15627.899999976158,201179.40000009537,7209,ATS,C,7
8,test,1,B,mfborder.png,1,m,Wed Aug 20 2025 17:15:20 GMT-0500 (Central Daylight Time),218724.5,CFD-WM-034-040-A.jpg,1200,dash,O,m,688,6,1,17545.099999904633,201179.40000009537,7209,ATS,C,8
9,test,1,B,mfborder.png,1,z,Wed Aug 20 2025 17:15:20 GMT-0500 (Central Daylight Time),220822.5,CFD-BF-019-004-HC.jpg,1400,dash,O,z,677,7,1,19643.099999904633,201179.40000009537,7209,ATS,C,9
10,test,1,B,mfborder.png,1,z,Wed Aug 20 2025 17:15:20 GMT-0500 (Central Daylight Time),223440.40000009537,CFD-WF-001-010-HC.jpg,1900,dash,O,z,694,8,1,22261.0,201179.40000009537,7209,ATS,C,10
11,test,1,B,mfborder.png,1,z,Wed Aug 20 2025 17:15:20 GMT-0500 (Central Daylight Time),224906.90000009537,CFD-WF-013-009-HC.jpg,1000,dash,O,z,434,12,1,23727.5,201179.40000009537,7209,ATS,C,11
12,test,1,B,mfborder.png,1,z,Wed Aug 20 2025 17:15:20 GMT-0500 (Central Daylight Time),226989.0,CFD-WF-037-016-A.jpg,1500,dash,O,z,555,11,1,25809.599999904633,201179.40000009537,7209,ATS,C,12
13,test,1,B,mfborder.png,1,z,Wed Aug 20 2025 17:15:20 GMT-0500 (Central Daylight Time),228406.5,CFD-BF-031-020-A.jpg,1000,dash,O,z,384,4,1,27227.099999904633,201179.40000009537,7209,ATS,C,13
14,test,1,B,mfborder.png,1,m,Wed Aug 20 2025 17:15:20 GMT-0500 (Central Daylight Time),230588.80000007153,CFD-WM-035-036-HC.jpg,1600,dash,O,m,557,10,1,29409.399999976158,201179.40000009537,7209,ATS,C,14
15,test,1,B,mfborder.png,1,z,Wed Aug 20 2025 17:15:20 GMT-0500 (Central Daylight Time),232719.5,CFD-BF-042-031-HC.jpg,1500,dash,O,z,600,3,1,31540.099999904633,201179.40000009537,7209,ATS,C,15
16,test,1,B,mfborder.png,1,m,Wed Aug 20 2025 17:15:20 GMT-0500 (Central Daylight Time),235185.90000009537,CFD-BM-022-004-HC.jpg,1700,dash,O,m,742,1,1,34006.5,201179.40000009537,7209,ATS,C,16
17,test,1,B,mfborder.png,1,m,Wed Aug 20 2025 17:15:20 GMT-0500 (Central Daylight Time),237384.80000007153,CFD-BM-021-026-A.jpg,1600,dash,O,m,559,2,1,36205.39999997616,201179.40000009537,7209,ATS,C,17
18,test,1,B,mfborder.png,1,m,Wed Aug 20 2025 17:15:20 GMT-0500 (Central Daylight Time),239751.0,CFD-WM-036-018-A.jpg,1700,dash,O,m,636,9,1,38571.59999990463,201179.40000009537,7209,ATS,C,18
19,test,1,B,mfborder.png,1,m,Wed Aug 20 2025 17:15:20 GMT-0500 (Central Daylight Time),242048.60000002384,CFD-BM-022-004-HC.jpg,1700,dash,O,m,565,1,1,40869.199999928474,201179.40000009537,7209,ATS,C,19
20,test,1,B,mfborder.png,1,m,Wed Aug 20 2025 17:15:20 GMT-0500 (Central Daylight Time),244532.40000009537,CFD-BM-043-014-A.jpg,2000,dash,O,m,456,5,1,43353.0,201179.40000009537,7209,ATS,C,20
21,test,1,B,mfborder.png,1,m,Wed Aug 20 2025 17:15:20 GMT-0500 (Central Daylight Time),246880.90000009537,CFD-BM-021-026-A.jpg,1600,dash,O,m,714,2,1,45701.5,201179.40000009537,7209,ATS,C,21
22,test,1,B,mfborder.png,1,z,Wed Aug 20 2025 17:15:20 GMT-0500 (Central Daylight Time),248548.60000002384,CFD-BF-031-020-A.jpg,1000,dash,O,z,649,4,1,47369.199999928474,201179.40000009537,7209,ATS,C,22
23,test,1,B,mfborder.png,1,m,Wed Aug 20 2025 17:15:20 GMT-0500 (Central Daylight Time),251513.20000004768,CFD-BM-043-014-A.jpg,2000,dash,O,m,939,5,1,50333.799999952316,201179.40000009537,7209,ATS,C,23
24,test,1,B,mfborder.png,1,z,Wed Aug 20 2025 17:15:20 GMT-0500 (Central Daylight Time),253096.80000007153,CFD-WF-013-009-HC.jpg,1000,dash,O,z,559,12,1,51917.39999997616,201179.40000009537,7209,ATS,C,24
0,prac,1,C,mfborder.png,0,m,Wed Aug 20 2025 17:15:20 GMT-0500 (Central Daylight Time),290036.8000000715,CFD-BM-034-035-HC.jpg,2000,solid,O,None,1515,12,1,4283.100000023842,285753.7000000477,7209,ATS,C,1
1,prac,1,C,mfborder.png,1,m,Wed Aug 20 2025 17:15:20 GMT-0500 (Central Daylight Time),293233.90000009537,CFD-WM-036-018-A.jpg,1700,solid,O,m,716,12,1,7480.200000047684,285753.7000000477,7209,ATS,C,2
2,prac,1,C,haborder.png,1,m,Wed Aug 20 2025 17:15:20 GMT-0500 (Central Daylight Time),296766.60000002384,CFD-BM-022-004-HC.jpg,1500,solid,O,m,1244,12,1,11012.899999976158,285753.7000000477,7209,ATS,C,3
3,prac,1,C,haborder.png,1,z,Wed Aug 20 2025 17:15:20 GMT-0500 (Central Daylight Time),299965.2000000477,CFD-BF-002-018-A.jpg,1700,solid,O,z,700,12,1,14211.5,285753.7000000477,7209,ATS,C,4
4,prac,1,C,mfborder.png,1,m,Wed Aug 20 2025 17:15:20 GMT-0500 (Central Daylight Time),302733.2000000477,CFD-BM-043-014-A.jpg,1200,dash,O,m,787,12,1,16979.5,285753.7000000477,7209,ATS,C,5
5,prac,1,C,mfborder.png,1,z,Wed Aug 20 2025 17:15:20 GMT-0500 (Central Daylight Time),305996.60000002384,CFD-WF-023-013-A.jpg,1500,solid,O,z,977,12,1,20242.899999976158,285753.7000000477,7209,ATS,C,6
6,prac,1,C,haborder.png,1,m,Wed Aug 20 2025 17:15:20 GMT-0500 (Central Daylight Time),308380.0,CFD-WM-028-005-HC.jpg,1000,dash,O,m,605,12,1,22626.299999952316,285753.7000000477,7209,ATS,C,7
7,prac,1,C,haborder.png,1,z,Wed Aug 20 2025 17:15:20 GMT-0500 (Central Daylight Time),311678.10000002384,CFD-BF-031-020-A.jpg,1900,dash,O,z,603,12,1,25924.399999976158,285753.7000000477,7209,ATS,C,8
8,prac,1,C,haborder.png,1,z,Wed Aug 20 2025 17:15:20 GMT-0500 (Central Daylight Time),314726.90000009537,CFD-WF-037-016-A.jpg,1600,dash,O,z,642,12,1,28973.200000047684,285753.7000000477,7209,ATS,C,9
9,prac,1,C,haborder.png,1,m,Wed Aug 20 2025 17:15:20 GMT-0500 (Central Daylight Time),317593.10000002384,CFD-WM-028-005-HC.jpg,1400,solid,O,m,674,12,1,31839.399999976158,285753.7000000477,7209,ATS,C,10
10,prac,1,C,mfborder.png,1,z,Wed Aug 20 2025 17:15:20 GMT-0500 (Central Daylight Time),320261.0,CFD-BF-019-004-HC.jpg,1000,dash,O,z,870,12,1,34507.299999952316,285753.7000000477,7209,ATS,C,11
11,prac,1,C,mfborder.png,1,z,Wed Aug 20 2025 17:15:20 GMT-0500 (Central Daylight Time),323342.90000009537,CFD-WF-013-009-HC.jpg,1600,dash,O,z,696,12,1,37589.200000047684,285753.7000000477,7209,ATS,C,12
1,test,1,C,mfborder.png,1,m,Wed Aug 20 2025 17:15:20 GMT-0500 (Central Daylight Time),329688.8000000715,CFD-BM-022-004-HC.jpg,1200,dash,O,m,1190,6,1,2416.5,327272.3000000715,7209,ATS,C,1
2,test,1,C,mfborder.png,1,m,Wed Aug 20 2025 17:15:20 GMT-0500 (Central Daylight Time),333073.0,CFD-WM-034-040-A.jpg,2000,dash,O,m,1353,5,1,5800.699999928474,327272.3000000715,7209,ATS,C,2
2,test,1,C,mfborder.png,0,z,Wed Aug 20 2025 17:15:20 GMT-0500 (Central Daylight Time),336303.7000000477,CFD-BF-042-031-HC.jpg,1700,dash,O,None,1515,1,1,9031.399999976158,327272.3000000715,7209,ATS,C,3
3,test,1,C,haborder.png,1,z,Wed Aug 20 2025 17:15:20 GMT-0500 (Central Daylight Time),339169.40000009537,CFD-WM-036-018-A.jpg,1400,solid,O,z,1440,7,1,11897.100000023842,327272.3000000715,7209,ATS,C,4
4,test,1,C,mfborder.png,1,z,Wed Aug 20 2025 17:15:20 GMT-0500 (Central Daylight Time),341818.7000000477,CFD-BF-031-020-A.jpg,1600,dash,O,z,1016,2,1,14546.399999976158,327272.3000000715,7209,ATS,C,5
5,test,1,C,haborder.png,1,m,Wed Aug 20 2025 17:15:20 GMT-0500 (Central Daylight Time),344585.60000002384,CFD-BF-019-004-HC.jpg,1600,solid,O,m,1142,10,1,17313.299999952316,327272.3000000715,7209,ATS,C,6
6,test,1,C,mfborder.png,1,z,Wed Aug 20 2025 17:15:20 GMT-0500 (Central Daylight Time),346833.90000009537,CFD-WF-037-016-A.jpg,1500,dash,O,z,733,3,1,19561.600000023842,327272.3000000715,7209,ATS,C,7
6,test,1,C,haborder.png,0,z,Wed Aug 20 2025 17:15:20 GMT-0500 (Central Daylight Time),349882.10000002384,CFD-BM-043-014-A.jpg,1900,solid,O,m,1118,8,1,22609.799999952316,327272.3000000715,7209,ATS,C,8
7,test,1,C,mfborder.png,1,z,Wed Aug 20 2025 17:15:20 GMT-0500 (Central Daylight Time),352181.90000009537,CFD-BF-031-020-A.jpg,1600,dash,O,z,678,2,1,24909.600000023842,327272.3000000715,7209,ATS,C,9
7,test,1,C,mfborder.png,0,m,Wed Aug 20 2025 17:15:20 GMT-0500 (Central Daylight Time),355714.90000009537,CFD-WM-034-040-A.jpg,2000,dash,O,None,1515,5,1,28442.600000023842,327272.3000000715,7209,ATS,C,10
7,test,1,C,haborder.png,0,m,Wed Aug 20 2025 17:15:20 GMT-0500 (Central Daylight Time),357379.7000000477,CFD-WF-013-009-HC.jpg,1000,solid,O,z,631,12,1,30107.399999976158,327272.3000000715,7209,ATS,C,11
7,test,1,C,haborder.png,0,m,Wed Aug 20 2025 17:15:20 GMT-0500 (Central Daylight Time),359545.8000000715,CFD-WF-001-010-HC.jpg,1500,solid,O,z,633,11,1,32273.5,327272.3000000715,7209,ATS,C,12
7,test,1,C,haborder.png,0,z,Wed Aug 20 2025 17:15:20 GMT-0500 (Central Daylight Time),362779.7000000477,CFD-BM-021-026-A.jpg,1700,solid,O,None,1517,9,1,35507.39999997616,327272.3000000715,7209,ATS,C,13
8,test,1,C,mfborder.png,1,z,Wed Aug 20 2025 17:15:20 GMT-0500 (Central Daylight Time),365061.0,CFD-WF-037-016-A.jpg,1500,dash,O,z,763,3,1,37788.699999928474,327272.3000000715,7209,ATS,C,14
8,test,1,C,haborder.png,0,m,Wed Aug 20 2025 17:15:20 GMT-0500 (Central Daylight Time),366728.0,CFD-WF-013-009-HC.jpg,1000,solid,O,z,635,12,1,39455.699999928474,327272.3000000715,7209,ATS,C,15
8,test,1,C,haborder.png,0,z,Wed Aug 20 2025 17:15:20 GMT-0500 (Central Daylight Time),369225.10000002384,CFD-BM-021-026-A.jpg,1700,solid,O,m,782,9,1,41952.799999952316,327272.3000000715,7209,ATS,C,16
9,test,1,C,mfborder.png,1,z,Wed Aug 20 2025 17:15:20 GMT-0500 (Central Daylight Time),371643.3000000715,CFD-BF-042-031-HC.jpg,1700,dash,O,z,699,1,1,44371.0,327272.3000000715,7209,ATS,C,17
10,test,1,C,mfborder.png,1,m,Wed Aug 20 2025 17:15:20 GMT-0500 (Central Daylight Time),373774.8000000715,CFD-WM-035-036-HC.jpg,1000,dash,O,m,1102,4,1,46502.5,327272.3000000715,7209,ATS,C,18
10,test,1,C,haborder.png,0,m,Wed Aug 20 2025 17:15:20 GMT-0500 (Central Daylight Time),376258.3000000715,CFD-BF-019-004-HC.jpg,1600,solid,O,z,867,10,1,48986.0,327272.3000000715,7209,ATS,C,19
10,test,1,C,haborder.png,0,z,Wed Aug 20 2025 17:15:20 GMT-0500 (Central Daylight Time),378506.60000002384,CFD-WM-036-018-A.jpg,1400,solid,O,m,815,7,1,51234.299999952316,327272.3000000715,7209,ATS,C,20
10,test,1,C,haborder.png,0,m,Wed Aug 20 2025 17:15:20 GMT-0500 (Central Daylight Time),381106.40000009537,CFD-WF-001-010-HC.jpg,1500,solid,O,z,1074,11,1,53834.10000002384,327272.3000000715,7209,ATS,C,21
10,test,1,C,mfborder.png,0,m,Wed Aug 20 2025 17:15:20 GMT-0500 (Central Daylight Time),382956.10000002384,CFD-BM-022-004-HC.jpg,1200,dash,O,z,624,6,1,55683.799999952316,327272.3000000715,7209,ATS,C,22
11,test,1,C,haborder.png,1,z,Wed Aug 20 2025 17:15:20 GMT-0500 (Central Daylight Time),385904.5,CFD-BM-043-014-A.jpg,1900,solid,O,z,1016,8,1,58632.199999928474,327272.3000000715,7209,ATS,C,23
12,test,1,C,mfborder.png,1,m,Wed Aug 20 2025 17:15:20 GMT-0500 (Central Daylight Time),387988.60000002384,CFD-WM-035-036-HC.jpg,1000,dash,O,m,1066,4,1,60716.299999952316,327272.3000000715,7209,ATS,C,24
1,test,2,C,mfborder.png,1,z,Wed Aug 20 2025 17:15:20 GMT-0500 (Central Daylight Time),395901.0,CFD-WF-023-013-A.jpg,1600,dash,O,z,1137,2,1,2764.7999999523163,393136.2000000477,7209,ATS,C,1
2,test,2,C,haborder.png,1,m,Wed Aug 20 2025 17:15:20 GMT-0500 (Central Daylight Time),398100.0,CFD-WM-028-005-HC.jpg,1000,solid,O,m,1170,12,1,4963.799999952316,393136.2000000477,7209,ATS,C,2
2,test,2,C,haborder.png,0,z,Wed Aug 20 2025 17:15:20 GMT-0500 (Central Daylight Time),401083.10000002384,CFD-WF-037-016-A.jpg,1700,solid,O,m,1253,9,1,7946.899999976158,393136.2000000477,7209,ATS,C,3
3,test,2,C,mfborder.png,1,z,Wed Aug 20 2025 17:15:20 GMT-0500 (Central Daylight Time),403332.90000009537,CFD-BF-019-004-HC.jpg,1500,dash,O,z,733,3,1,10196.700000047684,393136.2000000477,7209,ATS,C,4
4,test,2,C,mfborder.png,1,m,Wed Aug 20 2025 17:15:20 GMT-0500 (Central Daylight Time),405697.90000009537,CFD-WM-036-018-A.jpg,1200,dash,O,m,1140,6,1,12561.700000047684,393136.2000000477,7209,ATS,C,5
5,test,2,C,haborder.png,1,z,Wed Aug 20 2025 17:15:20 GMT-0500 (Central Daylight Time),408846.8000000715,CFD-BF-002-018-A.jpg,1900,solid,O,z,1217,8,1,15710.600000023842,393136.2000000477,7209,ATS,C,6
5,test,2,C,mfborder.png,0,z,Wed Aug 20 2025 17:15:20 GMT-0500 (Central Daylight Time),411881.10000002384,CFD-BF-019-004-HC.jpg,1500,dash,O,None,1516,3,1,18744.899999976158,393136.2000000477,7209,ATS,C,7
6,test,2,C,mfborder.png,1,m,Wed Aug 20 2025 17:15:20 GMT-0500 (Central Daylight Time),414861.5,CFD-BM-043-014-A.jpg,2000,dash,O,m,953,5,1,21725.299999952316,393136.2000000477,7209,ATS,C,8
7,test,2,C,haborder.png,1,m,Wed Aug 20 2025 17:15:20 GMT-0500 (Central Daylight Time),416611.5,CFD-WM-028-005-HC.jpg,1000,solid,O,m,716,12,1,23475.299999952316,393136.2000000477,7209,ATS,C,9
8,test,2,C,mfborder.png,1,z,Wed Aug 20 2025 17:15:20 GMT-0500 (Central Daylight Time),419011.40000009537,CFD-WF-023-013-A.jpg,1600,dash,O,z,767,2,1,25875.200000047684,393136.2000000477,7209,ATS,C,10
9,test,2,C,haborder.png,1,z,Wed Aug 20 2025 17:15:20 GMT-0500 (Central Daylight Time),421460.40000009537,CFD-BF-031-020-A.jpg,1400,solid,O,z,1033,7,1,28324.200000047684,393136.2000000477,7209,ATS,C,11
10,test,2,C,haborder.png,1,m,Wed Aug 20 2025 17:15:20 GMT-0500 (Central Daylight Time),423843.5,CFD-BM-022-004-HC.jpg,1600,solid,O,m,758,10,1,30707.299999952316,393136.2000000477,7209,ATS,C,12
11,test,2,C,haborder.png,1,m,Wed Aug 20 2025 17:15:20 GMT-0500 (Central Daylight Time),426356.7000000477,CFD-BM-022-004-HC.jpg,1600,solid,O,m,886,10,1,33220.5,393136.2000000477,7209,ATS,C,13
12,test,2,C,haborder.png,1,z,Wed Aug 20 2025 17:15:20 GMT-0500 (Central Daylight Time),428589.60000002384,CFD-BF-031-020-A.jpg,1400,solid,O,z,803,7,1,35453.39999997616,393136.2000000477,7209,ATS,C,14
13,test,2,C,mfborder.png,1,m,Wed Aug 20 2025 17:15:20 GMT-0500 (Central Daylight Time),430323.40000009537,CFD-BM-034-035-HC.jpg,1000,dash,O,m,713,4,1,37187.200000047684,393136.2000000477,7209,ATS,C,15
14,test,2,C,mfborder.png,1,z,Wed Aug 20 2025 17:15:20 GMT-0500 (Central Daylight Time),432722.90000009537,CFD-WF-013-009-HC.jpg,1700,dash,O,z,667,1,1,39586.700000047684,393136.2000000477,7209,ATS,C,16
15,test,2,C,mfborder.png,1,z,Wed Aug 20 2025 17:15:20 GMT-0500 (Central Daylight Time),435054.8000000715,CFD-WF-013-009-HC.jpg,1700,dash,O,z,601,1,1,41918.60000002384,393136.2000000477,7209,ATS,C,17
16,test,2,C,haborder.png,1,m,Wed Aug 20 2025 17:15:20 GMT-0500 (Central Daylight Time),437821.3000000715,CFD-WM-028-005-HC.jpg,1500,solid,O,m,1248,11,1,44685.10000002384,393136.2000000477,7209,ATS,C,18
17,test,2,C,mfborder.png,1,m,Wed Aug 20 2025 17:15:20 GMT-0500 (Central Daylight Time),440202.90000009537,CFD-BM-034-035-HC.jpg,1000,dash,O,m,1365,4,1,47066.700000047684,393136.2000000477,7209,ATS,C,19
17,test,2,C,mfborder.png,0,m,Wed Aug 20 2025 17:15:20 GMT-0500 (Central Daylight Time),442935.8000000715,CFD-WM-036-018-A.jpg,1200,dash,O,None,1515,6,1,49799.60000002384,393136.2000000477,7209,ATS,C,20
18,test,2,C,haborder.png,1,z,Wed Aug 20 2025 17:15:20 GMT-0500 (Central Daylight Time),445450.5,CFD-WF-037-016-A.jpg,1700,solid,O,z,789,9,1,52314.299999952316,393136.2000000477,7209,ATS,C,21
18,test,2,C,mfborder.png,0,m,Wed Aug 20 2025 17:15:20 GMT-0500 (Central Daylight Time),448234.7000000477,CFD-BM-043-014-A.jpg,2000,dash,O,z,750,5,1,55098.5,393136.2000000477,7209,ATS,C,22
19,test,2,C,haborder.png,1,z,Wed Aug 20 2025 17:15:20 GMT-0500 (Central Daylight Time),450966.40000009537,CFD-BF-002-018-A.jpg,1900,solid,O,z,804,8,1,57830.200000047684,393136.2000000477,7209,ATS,C,23
19,test,2,C,haborder.png,0,m,Wed Aug 20 2025 17:15:20 GMT-0500 (Central Daylight Time),453532.10000002384,CFD-WM-028-005-HC.jpg,1500,solid,O,z,1039,11,1,60395.89999997616,393136.2000000477,7209,ATS,C,24
0,test,3,C,haborder.png,0,z,Wed Aug 20 2025 17:15:20 GMT-0500 (Central Daylight Time),457614.0,CFD-BM-021-026-A.jpg,1700,solid,O,m,970,9,1,2698.2999999523163,454915.7000000477,7209,ATS,C,1
0,test,3,C,haborder.png,0,m,Wed Aug 20 2025 17:15:20 GMT-0500 (Central Daylight Time),459880.5,CFD-WF-001-010-HC.jpg,1500,solid,O,z,735,11,1,4964.799999952316,454915.7000000477,7209,ATS,C,2
0,test,3,C,haborder.png,0,m,Wed Aug 20 2025 17:15:20 GMT-0500 (Central Daylight Time),461547.3000000715,CFD-WF-013-009-HC.jpg,1000,solid,O,z,640,12,1,6631.600000023842,454915.7000000477,7209,ATS,C,3
1,test,3,C,mfborder.png,1,z,Wed Aug 20 2025 17:15:20 GMT-0500 (Central Daylight Time),464413.0,CFD-BF-031-020-A.jpg,1600,dash,O,z,1249,2,1,9497.299999952316,454915.7000000477,7209,ATS,C,4
1,test,3,C,haborder.png,0,z,Wed Aug 20 2025 17:15:20 GMT-0500 (Central Daylight Time),466945.60000002384,CFD-WM-036-018-A.jpg,1400,solid,O,m,1110,7,1,12029.899999976158,454915.7000000477,7209,ATS,C,5
2,test,3,C,mfborder.png,1,m,Wed Aug 20 2025 17:15:20 GMT-0500 (Central Daylight Time),469394.60000002384,CFD-BM-022-004-HC.jpg,1200,dash,O,m,1226,6,1,14478.899999976158,454915.7000000477,7209,ATS,C,6
2,test,3,C,mfborder.png,0,z,Wed Aug 20 2025 17:15:20 GMT-0500 (Central Daylight Time),472077.7000000477,CFD-BF-031-020-A.jpg,1600,dash,O,m,1054,2,1,17162.0,454915.7000000477,7209,ATS,C,7
3,test,3,C,mfborder.png,1,m,Wed Aug 20 2025 17:15:20 GMT-0500 (Central Daylight Time),474493.10000002384,CFD-WM-035-036-HC.jpg,1000,dash,O,m,1390,4,1,19577.399999976158,454915.7000000477,7209,ATS,C,8
4,test,3,C,haborder.png,1,z,Wed Aug 20 2025 17:15:20 GMT-0500 (Central Daylight Time),476658.8000000715,CFD-WM-036-018-A.jpg,1400,solid,O,z,739,7,1,21743.100000023842,454915.7000000477,7209,ATS,C,9
5,test,3,C,mfborder.png,1,z,Wed Aug 20 2025 17:15:20 GMT-0500 (Central Daylight Time),478957.8000000715,CFD-WF-037-016-A.jpg,1500,dash,O,z,777,3,1,24042.100000023842,454915.7000000477,7209,ATS,C,10
6,test,3,C,mfborder.png,1,z,Wed Aug 20 2025 17:15:20 GMT-0500 (Central Daylight Time),481391.5,CFD-BF-042-031-HC.jpg,1700,dash,O,z,702,1,1,26475.799999952316,454915.7000000477,7209,ATS,C,11
6,test,3,C,haborder.png,0,z,Wed Aug 20 2025 17:15:20 GMT-0500 (Central Daylight Time),484189.10000002384,CFD-BM-043-014-A.jpg,1900,solid,O,m,869,8,1,29273.399999976158,454915.7000000477,7209,ATS,C,12
7,test,3,C,mfborder.png,1,m,Wed Aug 20 2025 17:15:20 GMT-0500 (Central Daylight Time),487321.8000000715,CFD-WM-034-040-A.jpg,2000,dash,O,m,1108,5,1,32406.100000023842,454915.7000000477,7209,ATS,C,13
7,test,3,C,mfborder.png,0,m,Wed Aug 20 2025 17:15:20 GMT-0500 (Central Daylight Time),489837.60000002384,CFD-WM-035-036-HC.jpg,1000,dash,O,None,1501,4,1,34921.89999997616,454915.7000000477,7209,ATS,C,14
7,test,3,C,haborder.png,0,m,Wed Aug 20 2025 17:15:20 GMT-0500 (Central Daylight Time),492087.0,CFD-WF-001-010-HC.jpg,1500,solid,O,z,726,11,1,37171.299999952316,454915.7000000477,7209,ATS,C,15
7,test,3,C,haborder.png,0,m,Wed Aug 20 2025 17:15:20 GMT-0500 (Central Daylight Time),494936.0,CFD-BF-019-004-HC.jpg,1600,solid,O,z,1224,10,1,40020.299999952316,454915.7000000477,7209,ATS,C,16
7,test,3,C,mfborder.png,0,z,Wed Aug 20 2025 17:15:20 GMT-0500 (Central Daylight Time),497902.2000000477,CFD-BF-042-031-HC.jpg,1700,dash,O,m,1236,1,1,42986.5,454915.7000000477,7209,ATS,C,17
8,test,3,C,haborder.png,1,m,Wed Aug 20 2025 17:15:20 GMT-0500 (Central Daylight Time),499685.0,CFD-WF-013-009-HC.jpg,1000,solid,O,m,766,12,1,44769.299999952316,454915.7000000477,7209,ATS,C,18
9,test,3,C,haborder.png,1,z,Wed Aug 20 2025 17:15:20 GMT-0500 (Central Daylight Time),502584.5,CFD-BM-021-026-A.jpg,1700,solid,O,z,1168,9,1,47668.799999952316,454915.7000000477,7209,ATS,C,19
10,test,3,C,mfborder.png,1,m,Wed Aug 20 2025 17:15:20 GMT-0500 (Central Daylight Time),504715.40000009537,CFD-BM-022-004-HC.jpg,1200,dash,O,m,905,6,1,49799.700000047684,454915.7000000477,7209,ATS,C,20
10,test,3,C,mfborder.png,0,m,Wed Aug 20 2025 17:15:20 GMT-0500 (Central Daylight Time),507667.40000009537,CFD-WM-034-040-A.jpg,2000,dash,O,z,933,5,1,52751.700000047684,454915.7000000477,7209,ATS,C,21
11,test,3,C,mfborder.png,1,z,Wed Aug 20 2025 17:15:20 GMT-0500 (Central Daylight Time),510230.90000009537,CFD-WF-037-016-A.jpg,1500,dash,O,z,1043,3,1,55315.200000047684,454915.7000000477,7209,ATS,C,22
11,test,3,C,haborder.png,0,z,Wed Aug 20 2025 17:15:20 GMT-0500 (Central Daylight Time),513197.0,CFD-BM-043-014-A.jpg,1900,solid,O,m,1037,8,1,58281.299999952316,454915.7000000477,7209,ATS,C,23
11,test,3,C,haborder.png,0,m,Wed Aug 20 2025 17:15:20 GMT-0500 (Central Daylight Time),515781.90000009537,CFD-BF-019-004-HC.jpg,1600,solid,O,z,953,10,1,60866.200000047684,454915.7000000477,7209,ATS,C,24
1,test,4,C,haborder.png,1,m,Wed Aug 20 2025 17:15:20 GMT-0500 (Central Daylight Time),522711.3000000715,CFD-WM-028-005-HC.jpg,1000,solid,O,m,1219,12,1,2250.3000000715256,520461.0,7209,ATS,C,1
2,test,4,C,haborder.png,1,z,Wed Aug 20 2025 17:15:20 GMT-0500 (Central Daylight Time),524993.7000000477,CFD-BF-031-020-A.jpg,1400,solid,O,z,857,7,1,4532.700000047684,520461.0,7209,ATS,C,2
3,test,4,C,haborder.png,1,z,Wed Aug 20 2025 17:15:20 GMT-0500 (Central Daylight Time),527926.6000000238,CFD-BF-002-018-A.jpg,1900,solid,O,z,999,8,1,7465.600000023842,520461.0,7209,ATS,C,3
4,test,4,C,haborder.png,1,m,Wed Aug 20 2025 17:15:20 GMT-0500 (Central Daylight Time),530124.4000000954,CFD-WM-028-005-HC.jpg,1500,solid,O,m,671,11,1,9663.400000095367,520461.0,7209,ATS,C,4
5,test,4,C,haborder.png,1,m,Wed Aug 20 2025 17:15:20 GMT-0500 (Central Daylight Time),532290.9000000954,CFD-WM-028-005-HC.jpg,1500,solid,O,m,634,11,1,11829.900000095367,520461.0,7209,ATS,C,5
6,test,4,C,mfborder.png,1,z,Wed Aug 20 2025 17:15:20 GMT-0500 (Central Daylight Time),534690.6000000238,CFD-BF-019-004-HC.jpg,1500,dash,O,z,870,3,1,14229.600000023842,520461.0,7209,ATS,C,6
7,test,4,C,mfborder.png,1,z,Wed Aug 20 2025 17:15:20 GMT-0500 (Central Daylight Time),537189.7000000477,CFD-WF-023-013-A.jpg,1600,dash,O,z,876,2,1,16728.700000047684,520461.0,7209,ATS,C,7
8,test,4,C,mfborder.png,1,z,Wed Aug 20 2025 17:15:20 GMT-0500 (Central Daylight Time),539522.0,CFD-WF-013-009-HC.jpg,1700,dash,O,z,600,1,1,19061.0,520461.0,7209,ATS,C,8
9,test,4,C,mfborder.png,1,m,Wed Aug 20 2025 17:15:20 GMT-0500 (Central Daylight Time),541453.9000000954,CFD-BM-034-035-HC.jpg,1000,dash,O,m,902,4,1,20992.900000095367,520461.0,7209,ATS,C,9
10,test,4,C,haborder.png,1,m,Wed Aug 20 2025 17:15:20 GMT-0500 (Central Daylight Time),543287.3000000715,CFD-WM-028-005-HC.jpg,1000,solid,O,m,801,12,1,22826.300000071526,520461.0,7209,ATS,C,10
11,test,4,C,haborder.png,1,z,Wed Aug 20 2025 17:15:20 GMT-0500 (Central Daylight Time),546087.4000000954,CFD-BF-002-018-A.jpg,1900,solid,O,z,869,8,1,25626.400000095367,520461.0,7209,ATS,C,11
11,test,4,C,mfborder.png,0,z,Wed Aug 20 2025 17:15:20 GMT-0500 (Central Daylight Time),548884.6000000238,CFD-BF-019-004-HC.jpg,1500,dash,O,m,1276,3,1,28423.600000023842,520461.0,7209,ATS,C,12
12,test,4,C,mfborder.png,1,z,Wed Aug 20 2025 17:15:20 GMT-0500 (Central Daylight Time),551351.6000000238,CFD-WF-023-013-A.jpg,1600,dash,O,z,836,2,1,30890.600000023842,520461.0,7209,ATS,C,13
12,test,4,C,haborder.png,0,z,Wed Aug 20 2025 17:15:20 GMT-0500 (Central Daylight Time),553733.5,CFD-BF-031-020-A.jpg,1400,solid,O,m,954,7,1,33272.5,520461.0,7209,ATS,C,14
12,test,4,C,mfborder.png,0,m,Wed Aug 20 2025 17:15:20 GMT-0500 (Central Daylight Time),555967.4000000954,CFD-WM-036-018-A.jpg,1200,dash,O,z,1012,6,1,35506.40000009537,520461.0,7209,ATS,C,15
12,test,4,C,mfborder.png,0,m,Wed Aug 20 2025 17:15:20 GMT-0500 (Central Daylight Time),559248.2000000477,CFD-BM-043-014-A.jpg,2000,dash,O,z,1258,5,1,38787.200000047684,520461.0,7209,ATS,C,16
13,test,4,C,mfborder.png,1,z,Wed Aug 20 2025 17:15:20 GMT-0500 (Central Daylight Time),561682.0,CFD-WF-013-009-HC.jpg,1700,dash,O,z,709,1,1,41221.0,520461.0,7209,ATS,C,17
14,test,4,C,mfborder.png,1,m,Wed Aug 20 2025 17:15:20 GMT-0500 (Central Daylight Time),564547.8000000715,CFD-BM-043-014-A.jpg,2000,dash,O,m,841,5,1,44086.800000071526,520461.0,7209,ATS,C,18
15,test,4,C,haborder.png,1,m,Wed Aug 20 2025 17:15:20 GMT-0500 (Central Daylight Time),567312.6000000238,CFD-BM-022-004-HC.jpg,1600,solid,O,m,1134,10,1,46851.60000002384,520461.0,7209,ATS,C,19
16,test,4,C,haborder.png,1,z,Wed Aug 20 2025 17:15:20 GMT-0500 (Central Daylight Time),569896.0,CFD-WF-037-016-A.jpg,1700,solid,O,z,852,9,1,49435.0,520461.0,7209,ATS,C,20
17,test,4,C,mfborder.png,1,m,Wed Aug 20 2025 17:15:20 GMT-0500 (Central Daylight Time),572510.5,CFD-WM-036-018-A.jpg,1200,dash,O,m,1386,6,1,52049.5,520461.0,7209,ATS,C,21
18,test,4,C,mfborder.png,1,m,Wed Aug 20 2025 17:15:20 GMT-0500 (Central Daylight Time),574226.6000000238,CFD-BM-034-035-HC.jpg,1000,dash,O,m,689,4,1,53765.60000002384,520461.0,7209,ATS,C,22
18,test,4,C,haborder.png,0,m,Wed Aug 20 2025 17:15:20 GMT-0500 (Central Daylight Time),577010.2000000477,CFD-BM-022-004-HC.jpg,1600,solid,O,z,1152,10,1,56549.200000047684,520461.0,7209,ATS,C,23
18,test,4,C,haborder.png,0,z,Wed Aug 20 2025 17:15:20 GMT-0500 (Central Daylight Time),579690.7000000477,CFD-WF-037-016-A.jpg,1700,solid,O,m,953,9,1,59229.700000047684,520461.0,7209,ATS,C,24
