acc_sum,block,block_c,condition,correct,correct_response,datetime,endtime,flanker,jitter,project,response,response_test_buffer_response,response_test_target_response,response_time,response_time_test_buffer_response,response_time_test_target_response,row_sel,session_number,start_end,starttime,subject_id,target,task,task_vers,time_test_buffer,time_test_buffer_response,time_test_constants,time_test_flanker,time_test_jitter,time_test_logger,time_test_target,time_test_target_response,time_test_variables,trial
1,prac,1,inc,1,m,Wed Mar 25 2026 09:43:18 GMT-0500 (Central Daylight Time),178348.70000004768,brutal,1100,I,m,,,996,,,8,1,3506.899999856949,174841.80000019073,8099,window,AF,A,,,,,,,,,,1
2,prac,1,inc,1,z,Wed Mar 25 2026 09:43:18 GMT-0500 (Central Daylight Time),181451.5,window,1100,I,z,,,697,,,16,1,3097.5,178354.0,8099,temper,AF,A,,,,,,,,,,2
3,prac,1,inc,1,z,Wed Mar 25 2026 09:43:18 GMT-0500 (Central Daylight Time),184467.10000014305,napkin,1100,I,z,,,606,,,12,1,3009.7999999523163,181457.30000019073,8099,friend,AF,A,,,,,,,,,,3
4,prac,1,con,1,z,Wed Mar 25 2026 09:43:18 GMT-0500 (Central Daylight Time),187149.70000004768,elated,800,I,z,,,570,,,9,1,2678.399999856949,184471.30000019073,8099,elated,AF,A,,,,,,,,,,4
5,prac,1,inc,1,m,Wed Mar 25 2026 09:43:18 GMT-0500 (Central Daylight Time),189998.80000019073,kind,900,I,m,,,634,,,2,1,2844.800000190735,187154.0,8099,rock,AF,A,,,,,,,,,,5
6,prac,1,con,1,z,Wed Mar 25 2026 09:43:18 GMT-0500 (Central Daylight Time),193164.5,love,1000,I,z,,,862,,,11,1,3161.0,190003.5,8099,love,AF,A,,,,,,,,,,6
7,prac,1,inc,1,z,Wed Mar 25 2026 09:43:18 GMT-0500 (Central Daylight Time),196030.20000004768,rock,900,I,z,,,651,,,10,1,2861.2000000476837,193169.0,8099,kind,AF,A,,,,,,,,,,7
8,prac,1,inc,1,m,Wed Mar 25 2026 09:43:18 GMT-0500 (Central Daylight Time),198912.70000004768,elated,900,I,m,,,675,,,6,1,2878.2000000476837,196034.5,8099,napkin,AF,A,,,,,,,,,,8
9,prac,1,inc,1,m,Wed Mar 25 2026 09:43:18 GMT-0500 (Central Daylight Time),202040.5,hate,1100,I,m,,,719,,,4,1,3123.5999999046326,198916.90000009537,8099,film,AF,A,,,,,,,,,,9
10,prac,1,con,1,z,Wed Mar 25 2026 09:43:18 GMT-0500 (Central Daylight Time),204910.80000019073,rage,1000,I,z,,,560,,,15,1,2865.0,202045.80000019073,8099,rage,AF,A,,,,,,,,,,10
11,prac,1,con,1,m,Wed Mar 25 2026 09:43:18 GMT-0500 (Central Daylight Time),207660.60000014305,jacket,800,I,m,,,638,,,5,1,2744.4000000953674,204916.20000004768,8099,jacket,AF,A,,,,,,,,,,11
12,prac,1,inc,1,z,Wed Mar 25 2026 09:43:18 GMT-0500 (Central Daylight Time),210542.30000019073,film,900,I,z,,,677,,,14,1,2877.4000000953674,207664.90000009537,8099,hate,AF,A,,,,,,,,,,12
13,prac,1,con,1,m,Wed Mar 25 2026 09:43:18 GMT-0500 (Central Daylight Time),213524.60000014305,remote,1000,I,m,,,670,,,7,1,2978.2999999523163,210546.30000019073,8099,remote,AF,A,,,,,,,,,,13
14,prac,1,con,1,m,Wed Mar 25 2026 09:43:18 GMT-0500 (Central Daylight Time),216640.40000009537,bell,1000,I,m,,,807,,,3,1,3111.7999999523163,213528.60000014305,8099,bell,AF,A,,,,,,,,,,14
15,prac,1,con,1,m,Wed Mar 25 2026 09:43:18 GMT-0500 (Central Daylight Time),219506.20000004768,step,800,I,m,,,763,,,1,1,2861.5,216644.70000004768,8099,step,AF,A,,,,,,,,,,15
16,prac,1,con,1,z,Wed Mar 25 2026 09:43:18 GMT-0500 (Central Daylight Time),222338.70000004768,brutal,800,I,z,,,723,,,13,1,2828.5999999046326,219510.10000014305,8099,brutal,AF,A,,,,,,,,,,16
1,test,1,con,1,m,Wed Mar 25 2026 09:43:18 GMT-0500 (Central Daylight Time),238350.60000014305,bell,800,I,m,m,None,603,404.0,199.0,81,1,1946.7000000476837,236403.90000009537,8099,bell,AF,A,230338,230338,228808,229622,228808,230755,230138,230138,230754,1
2,test,1,inc,1,m,Wed Mar 25 2026 09:43:18 GMT-0500 (Central Daylight Time),240366.30000019073,kind,900,I,m,m,None,579,379.0,200.0,70,1,2010.9000000953674,238355.40000009537,8099,step,AF,A,232387,232387,230759,231671,230760,232770,232187,232187,232770,2
3,test,1,inc,1,m,Wed Mar 25 2026 09:43:18 GMT-0500 (Central Daylight Time),242249.30000019073,elated,800,I,m,m,None,544,343.0,201.0,117,1,1878.6000001430511,240370.70000004768,8099,remote,AF,A,234304,234304,232775,233587,232775,234653,234103,234103,234653,3
4,test,1,inc,1,m,Wed Mar 25 2026 09:43:18 GMT-0500 (Central Daylight Time),244481.60000014305,hate,1100,I,m,m,None,592,392.0,200.0,72,1,2227.9000000953674,242253.70000004768,8099,step,AF,A,236486,236486,234658,235770,234658,236886,236286,236286,236886,4
5,test,1,con,1,m,Wed Mar 25 2026 09:43:18 GMT-0500 (Central Daylight Time),246532.0,napkin,1100,I,m,m,None,414,215.0,199.0,108,1,2046.5,244485.5,8099,napkin,AF,A,238719,238719,236890,238002,236890,238936,238519,238519,238936,5
6,test,1,con,1,m,Wed Mar 25 2026 09:43:18 GMT-0500 (Central Daylight Time),248546.90000009537,step,1100,I,m,m,None,383,183.0,200.0,68,1,2010.9000000953674,246536.0,8099,step,AF,A,240768,240768,238940,240052,238940,240951,240568,240568,240951,6
7,test,1,inc,1,m,Wed Mar 25 2026 09:43:18 GMT-0500 (Central Daylight Time),250479.90000009537,kind,900,I,m,m,None,486,286.0,200.0,86,1,1928.7000000476837,248551.20000004768,8099,bell,AF,A,242584,242584,240955,241868,240956,242884,242384,242384,242884,7
8,test,1,inc,1,z,Wed Mar 25 2026 09:43:18 GMT-0500 (Central Daylight Time),252578.90000009537,napkin,900,I,z,z,None,656,457.0,199.0,62,1,2095.0999999046326,250483.80000019073,8099,temper,AF,A,244517,244517,242888,243800,242888,244983,244317,244317,244983,8
9,test,1,inc,1,m,Wed Mar 25 2026 09:43:18 GMT-0500 (Central Daylight Time),254578.70000004768,kind,900,I,m,m,None,558,358.0,200.0,94,1,1996.0999999046326,252582.60000014305,8099,film,AF,A,246616,246616,244987,245900,244987,246983,246416,246416,246983,9
10,test,1,con,1,m,Wed Mar 25 2026 09:43:18 GMT-0500 (Central Daylight Time),256544.70000004768,bell,900,I,m,m,None,517,318.0,199.0,82,1,1962.2000000476837,254582.5,8099,bell,AF,A,248616,248616,246987,247899,246987,248949,248416,248416,248949,10
11,test,1,inc,1,m,Wed Mar 25 2026 09:43:18 GMT-0500 (Central Daylight Time),258393.90000009537,rage,800,I,m,m,None,515,316.0,199.0,77,1,1844.9000000953674,256549.0,8099,rock,AF,A,250482,250482,248953,249765,248953,250798,250282,250282,250798,11
12,test,1,inc,1,z,Wed Mar 25 2026 09:43:18 GMT-0500 (Central Daylight Time),260493.20000004768,bell,1000,I,z,z,None,563,363.0,200.0,23,1,2095.2000000476837,258398.0,8099,love,AF,A,252531,252531,250802,251815,250802,252897,252331,252331,252897,12
13,test,1,inc,1,m,Wed Mar 25 2026 09:43:18 GMT-0500 (Central Daylight Time),262726.2000000477,hate,1100,I,m,m,None,595,396.0,199.0,80,1,2228.899999856949,260497.30000019073,8099,rock,AF,A,254730,254730,252901,254014,252902,255130,254531,254531,255130,13
14,test,1,inc,1,z,Wed Mar 25 2026 09:43:18 GMT-0500 (Central Daylight Time),264908.7000000477,bell,1000,I,z,z,None,639,439.0,200.0,15,1,2178.0,262730.7000000477,8099,kind,AF,A,256863,256863,255135,256147,255135,257313,256663,256663,257313,14
15,test,1,inc,1,z,Wed Mar 25 2026 09:43:18 GMT-0500 (Central Daylight Time),266774.80000019073,step,800,I,z,z,None,527,328.0,199.0,21,1,1862.0,264912.80000019073,8099,love,AF,A,258846,258846,257317,258129,257317,259179,258646,258646,259179,15
16,test,1,con,1,m,Wed Mar 25 2026 09:43:18 GMT-0500 (Central Daylight Time),268524.30000019073,napkin,800,I,m,m,None,406,206.0,200.0,105,1,1745.4000000953674,266778.90000009537,8099,napkin,AF,A,260712,260712,259183,259995,259183,260928,260512,260512,260928,16
17,test,1,con,1,m,Wed Mar 25 2026 09:43:18 GMT-0500 (Central Daylight Time),270506.5,rock,900,I,m,m,None,549,349.0,200.0,74,1,1978.1999998092651,268528.30000019073,8099,rock,AF,A,262561,262561,260932,261845,260933,262911,262361,262361,262911,17
18,test,1,con,1,m,Wed Mar 25 2026 09:43:18 GMT-0500 (Central Daylight Time),272651.90000009537,rock,1100,I,m,m,None,512,312.0,200.0,76,1,2141.2999999523163,270510.60000014305,8099,rock,AF,A,264744,264744,262915,264027,262915,265056,264544,264544,265056,18
19,test,1,con,1,m,Wed Mar 25 2026 09:43:18 GMT-0500 (Central Daylight Time),274488.7000000477,remote,900,I,m,m,None,394,194.0,200.0,114,1,1832.5,272656.2000000477,8099,remote,AF,A,266693,266693,265060,265977,265060,266893,266493,266493,266893,19
20,test,1,con,1,m,Wed Mar 25 2026 09:43:18 GMT-0500 (Central Daylight Time),276421.5,remote,1000,I,m,m,None,388,188.0,200.0,115,1,1928.7999999523163,274492.7000000477,8099,remote,AF,A,268626,268626,266897,267910,266897,268826,268426,268426,268826,20
21,test,1,con,1,m,Wed Mar 25 2026 09:43:18 GMT-0500 (Central Daylight Time),278287.7000000477,napkin,900,I,m,m,None,427,227.0,200.0,106,1,1862.2000000476837,276425.5,8099,napkin,AF,A,270459,270459,268830,269742,268830,270692,270259,270259,270692,21
22,test,1,inc,1,z,Wed Mar 25 2026 09:43:18 GMT-0500 (Central Daylight Time),280437.0,film,1100,I,z,z,None,513,313.0,200.0,56,1,2144.2999999523163,278292.7000000477,8099,rage,AF,A,272525,272525,270697,271808,270697,272841,272325,272325,272841,22
23,test,1,con,1,z,Wed Mar 25 2026 09:43:18 GMT-0500 (Central Daylight Time),282586.40000009537,love,1100,I,z,z,None,500,300.0,200.0,20,1,2145.0999999046326,280441.30000019073,8099,love,AF,A,274674,274674,272845,273958,272846,274990,274474,274474,274990,23
24,test,1,con,1,m,Wed Mar 25 2026 09:43:18 GMT-0500 (Central Daylight Time),284818.90000009537,remote,1100,I,m,m,None,600,400.0,200.0,116,1,2228.0,282590.90000009537,8099,remote,AF,A,276823,276823,274995,276107,274995,277223,276623,276623,277223,24
25,test,1,con,1,z,Wed Mar 25 2026 09:43:18 GMT-0500 (Central Daylight Time),286985.10000014305,elated,900,I,z,z,None,726,526.0,200.0,2,1,2162.7000000476837,284822.40000009537,8099,elated,AF,A,278856,278856,277226,278140,277227,279389,278656,278656,279389,25
26,test,1,con,1,z,Wed Mar 25 2026 09:43:18 GMT-0500 (Central Daylight Time),289201.0,brutal,800,I,z,z,None,876,676.0,200.0,33,1,2211.7999999523163,286989.2000000477,8099,brutal,AF,A,280922,280922,279393,280206,279393,281605,280722,280722,281605,26
27,test,1,inc,1,z,Wed Mar 25 2026 09:43:18 GMT-0500 (Central Daylight Time),291683.60000014305,film,1100,I,z,z,None,840,640.0,200.0,16,1,2478.5,289205.10000014305,8099,kind,AF,A,283438,283438,281609,282721,281609,284088,283238,283238,284088,27
28,test,1,inc,1,m,Wed Mar 25 2026 09:43:18 GMT-0500 (Central Daylight Time),294016.40000009537,hate,1100,I,m,m,None,701,502.0,199.0,96,1,2328.7999999523163,291687.60000014305,8099,film,AF,A,285904,285904,284092,285204,284092,286420,285705,285705,286420,28
29,test,1,con,1,z,Wed Mar 25 2026 09:43:18 GMT-0500 (Central Daylight Time),296370.0,brutal,900,I,z,z,None,774,574.0,200.0,34,1,2349.7999999523163,294020.2000000477,8099,brutal,AF,A,288053,288053,286424,287337,286424,288774,287853,287853,288774,29
30,test,1,con,1,z,Wed Mar 25 2026 09:43:18 GMT-0500 (Central Daylight Time),298081.2000000477,friend,800,I,z,z,None,374,175.0,199.0,25,1,1707.0999999046326,296374.10000014305,8099,friend,AF,A,290302,290302,288778,289586,288778,290485,290103,290103,290485,30
31,test,1,con,1,m,Wed Mar 25 2026 09:43:18 GMT-0500 (Central Daylight Time),300064.40000009537,window,900,I,m,m,None,542,343.0,199.0,122,1,1979.4000000953674,298085.0,8099,window,AF,A,292119,292119,290489,291402,290489,292469,291919,291919,292468,31
32,test,1,inc,1,m,Wed Mar 25 2026 09:43:18 GMT-0500 (Central Daylight Time),301963.7000000477,elated,800,I,m,m,None,565,365.0,200.0,101,1,1895.7000000476837,300068.0,8099,jacket,AF,A,294001,294001,292472,293285,292472,294368,293801,293801,294368,32
33,test,1,inc,1,z,Wed Mar 25 2026 09:43:18 GMT-0500 (Central Daylight Time),304212.90000009537,window,1100,I,z,z,None,612,413.0,199.0,8,1,2245.5,301967.40000009537,8099,elated,AF,A,296201,296201,294371,295484,294372,296617,296001,296001,296617,33
34,test,1,inc,1,z,Wed Mar 25 2026 09:43:18 GMT-0500 (Central Daylight Time),306395.30000019073,remote,1000,I,z,z,None,640,440.0,200.0,39,1,2178.0,304217.30000019073,8099,brutal,AF,A,298350,298350,296621,297634,296622,298800,298150,298150,298799,34
35,test,1,inc,1,z,Wed Mar 25 2026 09:43:18 GMT-0500 (Central Daylight Time),308511.80000019073,napkin,900,I,z,z,None,677,478.0,199.0,6,1,2112.800000190735,306399.0,8099,elated,AF,A,300432,300432,298803,299716,298803,300916,300233,300233,300916,35
36,test,1,inc,1,z,Wed Mar 25 2026 09:43:18 GMT-0500 (Central Daylight Time),310644.2000000477,remote,1000,I,z,z,None,596,397.0,199.0,7,1,2128.7000000476837,308515.5,8099,elated,AF,A,302649,302649,300920,301932,300920,303048,302449,302449,303048,36
37,test,1,inc,1,z,Wed Mar 25 2026 09:43:18 GMT-0500 (Central Daylight Time),312743.60000014305,remote,1000,I,z,z,None,561,361.0,200.0,31,1,2095.600000143051,310648.0,8099,friend,AF,A,304781,304781,303052,304065,303052,305148,304581,304581,305148,37
37,test,1,inc,0,z,Wed Mar 25 2026 09:43:18 GMT-0500 (Central Daylight Time),314526.5,jacket,800,I,m,m,None,436,237.0,199.0,29,1,1779.1999998092651,312747.30000019073,8099,friend,AF,A,306681,306681,305151,305964,305152,306931,306482,306482,306931,38
38,test,1,inc,1,m,Wed Mar 25 2026 09:43:18 GMT-0500 (Central Daylight Time),316758.90000009537,temper,1000,I,m,m,None,686,486.0,200.0,111,1,2228.0999999046326,314530.80000019073,8099,napkin,AF,A,308664,308664,306935,307947,306935,309163,308463,308463,309163,39
39,test,1,inc,1,z,Wed Mar 25 2026 09:43:18 GMT-0500 (Central Daylight Time),319024.80000019073,window,1100,I,z,z,None,618,418.0,200.0,32,1,2261.7000000476837,316763.10000014305,8099,friend,AF,A,310996,310996,309167,310280,309167,311429,310796,310796,311429,40
40,test,1,con,1,z,Wed Mar 25 2026 09:43:18 GMT-0500 (Central Daylight Time),321107.60000014305,friend,1100,I,z,z,None,448,248.0,200.0,28,1,2079.2999999523163,319028.30000019073,8099,friend,AF,A,313262,313262,311432,312546,311433,313512,313062,313062,313512,41
41,test,1,inc,1,m,Wed Mar 25 2026 09:43:18 GMT-0500 (Central Daylight Time),323273.80000019073,brutal,900,I,m,m,None,717,517.0,200.0,110,1,2162.600000143051,321111.2000000477,8099,napkin,AF,A,315145,315145,313515,314428,313516,315678,314945,314945,315678,42
42,test,1,con,1,z,Wed Mar 25 2026 09:43:18 GMT-0500 (Central Daylight Time),325456.2000000477,elated,1000,I,z,z,None,634,435.0,199.0,3,1,2178.5999999046326,323277.60000014305,8099,elated,AF,A,317411,317411,315682,316696,315682,317860,317211,317211,317860,43
43,test,1,con,1,z,Wed Mar 25 2026 09:43:18 GMT-0500 (Central Daylight Time),327540.0,hate,900,I,z,z,None,649,449.0,200.0,42,1,2079.699999809265,325460.30000019073,8099,hate,AF,A,319493,319493,317864,318777,317865,319944,319293,319293,319944,44
44,test,1,inc,1,z,Wed Mar 25 2026 09:43:18 GMT-0500 (Central Daylight Time),329971.2000000477,window,1100,I,z,z,None,798,598.0,200.0,64,1,2427.2999999523163,327543.90000009537,8099,temper,AF,A,321776,321776,319948,321060,319948,322375,321576,321576,322375,45
45,test,1,con,1,z,Wed Mar 25 2026 09:43:18 GMT-0500 (Central Daylight Time),332304.30000019073,temper,1100,I,z,z,None,693,493.0,200.0,60,1,2329.600000143051,329974.7000000477,8099,temper,AF,A,324209,324209,322379,323492,322379,324708,324009,324009,324708,46
46,test,1,inc,1,m,Wed Mar 25 2026 09:43:18 GMT-0500 (Central Daylight Time),334703.40000009537,hate,1100,I,m,m,None,760,561.0,199.0,88,1,2395.2000000476837,332308.2000000477,8099,bell,AF,A,326541,326541,324712,325825,324712,327107,326342,326342,327107,47
47,test,1,con,1,m,Wed Mar 25 2026 09:43:18 GMT-0500 (Central Daylight Time),336636.10000014305,step,1000,I,m,m,None,397,198.0,199.0,67,1,1929.0,334707.10000014305,8099,step,AF,A,328840,328840,327111,328124,327111,329040,328641,328641,329040,48
48,test,1,inc,1,m,Wed Mar 25 2026 09:43:18 GMT-0500 (Central Daylight Time),338818.60000014305,love,1000,I,m,m,None,641,440.0,201.0,95,1,2178.7000000476837,336639.90000009537,8099,film,AF,A,330774,330774,329044,330058,329044,331223,330573,330573,331223,49
49,test,1,con,1,z,Wed Mar 25 2026 09:43:18 GMT-0500 (Central Daylight Time),340968.0,kind,900,I,z,z,None,701,502.0,199.0,10,1,2145.399999856949,338822.60000014305,8099,kind,AF,A,332856,332856,331227,332139,331227,333372,332657,332657,333372,50
50,test,1,inc,1,z,Wed Mar 25 2026 09:43:18 GMT-0500 (Central Daylight Time),343529.5,film,1100,I,z,z,None,781,581.0,200.0,48,1,2557.699999809265,340971.80000019073,8099,hate,AF,A,335205,335205,333376,334489,333376,335934,335005,335005,335933,51
51,test,1,con,1,m,Wed Mar 25 2026 09:43:18 GMT-0500 (Central Daylight Time),345883.30000019073,jacket,1000,I,m,m,None,807,607.0,200.0,99,1,2349.800000190735,343533.5,8099,jacket,AF,A,337671,337671,335938,336955,335938,338287,337471,337471,338287,52
52,test,1,con,1,z,Wed Mar 25 2026 09:43:18 GMT-0500 (Central Daylight Time),347866.0,rage,800,I,z,z,None,640,441.0,199.0,49,1,1978.8999998569489,345887.10000014305,8099,rage,AF,A,339821,339821,338291,339104,338291,340270,339621,339621,340270,53
53,test,1,con,1,m,Wed Mar 25 2026 09:43:18 GMT-0500 (Central Daylight Time),349665.30000019073,film,800,I,m,m,None,459,259.0,200.0,89,1,1795.3000001907349,347870.0,8099,film,AF,A,341803,341803,340274,341087,340274,342069,341603,341603,342069,54
54,test,1,inc,1,z,Wed Mar 25 2026 09:43:18 GMT-0500 (Central Daylight Time),352014.60000014305,rock,900,I,z,z,None,911,712.0,199.0,54,1,2345.7000000476837,349668.90000009537,8099,rage,AF,A,343702,343702,342073,342986,342073,344419,343503,343503,344419,55
55,test,1,con,1,m,Wed Mar 25 2026 09:43:18 GMT-0500 (Central Daylight Time),354097.30000019073,jacket,800,I,m,m,None,733,533.0,200.0,97,1,2078.7000000476837,352018.60000014305,8099,jacket,AF,A,345953,345953,344423,345235,344423,346501,345752,345752,346501,56
56,test,1,inc,1,z,Wed Mar 25 2026 09:43:18 GMT-0500 (Central Daylight Time),356146.80000019073,napkin,900,I,z,z,None,607,408.0,199.0,30,1,2045.8000001907349,354101.0,8099,friend,AF,A,348134,348134,346505,347418,346505,348551,347935,347935,348551,57
57,test,1,con,1,m,Wed Mar 25 2026 09:43:18 GMT-0500 (Central Daylight Time),358778.90000009537,window,1100,I,m,m,None,998,799.0,199.0,124,1,2628.4000000953674,356150.5,8099,window,AF,A,350383,350383,348555,349667,348555,351183,350184,350184,351183,58
58,test,1,inc,1,z,Wed Mar 25 2026 09:43:18 GMT-0500 (Central Daylight Time),361012.2000000477,film,1100,I,z,z,None,590,390.0,200.0,24,1,2229.5999999046326,358782.60000014305,8099,love,AF,A,353016,353016,351187,352300,351187,353416,352816,352816,353416,59
59,test,1,inc,1,m,Wed Mar 25 2026 09:43:18 GMT-0500 (Central Daylight Time),363111.2000000477,love,1000,I,m,m,None,569,370.0,199.0,79,1,2095.2000000476837,361016.0,8099,rock,AF,A,355132,355132,353420,354432,353420,355515,354933,354933,355515,60
60,test,1,con,1,z,Wed Mar 25 2026 09:43:18 GMT-0500 (Central Daylight Time),365043.90000009537,hate,800,I,z,z,None,597,398.0,199.0,41,1,1928.5999999046326,363115.30000019073,8099,hate,AF,A,357048,357048,355519,356332,355520,357448,356848,356849,357448,61
61,test,1,con,1,z,Wed Mar 25 2026 09:43:18 GMT-0500 (Central Daylight Time),367209.60000014305,temper,1000,I,z,z,None,625,425.0,200.0,59,1,2161.100000143051,365048.5,8099,temper,AF,A,359181,359181,357453,358465,357453,359614,358981,358981,359614,62
62,test,1,inc,1,m,Wed Mar 25 2026 09:43:18 GMT-0500 (Central Daylight Time),369459.2000000477,friend,1100,I,m,m,None,607,407.0,200.0,120,1,2245.0999999046326,367214.10000014305,8099,remote,AF,A,361447,361447,359618,360730,359618,361863,361247,361247,361863,63
63,test,1,inc,1,z,Wed Mar 25 2026 09:43:18 GMT-0500 (Central Daylight Time),371425.5,step,800,I,z,z,None,627,427.0,200.0,53,1,1962.1999998092651,369463.30000019073,8099,rage,AF,A,363396,363396,361867,362681,361867,363830,363196,363196,363830,64
64,test,1,inc,1,z,Wed Mar 25 2026 09:43:18 GMT-0500 (Central Daylight Time),373707.80000019073,bell,1000,I,z,z,None,748,548.0,200.0,47,1,2278.7000000476837,371429.10000014305,8099,hate,AF,A,365562,365562,363833,364846,363833,366112,365362,365362,366112,65
65,test,1,con,1,z,Wed Mar 25 2026 09:43:18 GMT-0500 (Central Daylight Time),375873.7000000477,temper,900,I,z,z,None,716,517.0,199.0,58,1,2162.0999999046326,373711.60000014305,8099,temper,AF,A,367745,367745,366116,367029,366116,368278,367546,367546,368278,66
65,test,1,con,0,m,Wed Mar 25 2026 09:43:18 GMT-0500 (Central Daylight Time),377789.90000009537,step,900,I,z,z,None,478,279.0,199.0,66,1,1912.5999999046326,375877.30000019073,8099,step,AF,A,369911,369911,368281,369194,368282,370194,369711,369711,370194,67
66,test,1,inc,1,z,Wed Mar 25 2026 09:43:18 GMT-0500 (Central Daylight Time),379940.30000019073,napkin,900,I,z,z,None,715,515.0,200.0,38,1,2146.600000143051,377793.7000000477,8099,brutal,AF,A,371827,371827,370198,371111,370198,372344,371627,371627,372344,68
67,test,1,inc,1,z,Wed Mar 25 2026 09:43:18 GMT-0500 (Central Daylight Time),381921.80000019073,rock,900,I,z,z,None,549,350.0,199.0,22,1,1977.4000000953674,379944.40000009537,8099,love,AF,A,373976,373976,372348,373260,372349,374326,373777,373777,374326,69
68,test,1,con,1,m,Wed Mar 25 2026 09:43:18 GMT-0500 (Central Daylight Time),384154.40000009537,film,1100,I,m,m,None,599,398.0,201.0,92,1,2228.7999999523163,381925.60000014305,8099,film,AF,A,376160,376160,374330,375443,374330,376558,375959,375959,376558,70
69,test,1,inc,1,m,Wed Mar 25 2026 09:43:18 GMT-0500 (Central Daylight Time),386337.90000009537,temper,1000,I,m,m,None,634,434.0,200.0,127,1,2179.9000000953674,384158.0,8099,window,AF,A,378292,378292,376562,377575,376562,378742,378092,378092,378742,71
70,test,1,con,1,z,Wed Mar 25 2026 09:43:18 GMT-0500 (Central Daylight Time),388303.40000009537,friend,900,I,z,z,None,528,328.0,200.0,26,1,1962.0,386341.40000009537,8099,friend,AF,A,380374,380374,378745,379658,378746,380708,380174,380174,380707,72
71,test,1,con,1,z,Wed Mar 25 2026 09:43:18 GMT-0500 (Central Daylight Time),390730.30000019073,brutal,1100,I,z,z,None,647,447.0,200.0,36,1,2422.7000000476837,388307.60000014305,8099,brutal,AF,A,382540,382540,380712,381824,380712,383134,382340,382340,383134,73
72,test,1,con,1,m,Wed Mar 25 2026 09:43:18 GMT-0500 (Central Daylight Time),392985.30000019073,film,1000,I,m,m,None,701,501.0,200.0,91,1,2250.7000000476837,390734.60000014305,8099,film,AF,A,384873,384873,383139,384156,383139,385389,384673,384673,385389,74
73,test,1,con,1,m,Wed Mar 25 2026 09:43:18 GMT-0500 (Central Daylight Time),395117.90000009537,rock,800,I,m,m,None,794,595.0,199.0,73,1,2128.7000000476837,392989.2000000477,8099,rock,AF,A,386923,386923,385393,386206,385393,387522,386723,386723,387522,75
74,test,1,inc,1,z,Wed Mar 25 2026 09:43:18 GMT-0500 (Central Daylight Time),397367.2000000477,window,1100,I,z,z,None,602,403.0,199.0,40,1,2245.7999999523163,395121.40000009537,8099,brutal,AF,A,389355,389355,387525,388638,387526,389771,389155,389155,389771,76
75,test,1,con,1,z,Wed Mar 25 2026 09:43:18 GMT-0500 (Central Daylight Time),399283.5,love,1000,I,z,z,None,374,174.0,200.0,19,1,1912.6999998092651,397370.80000019073,8099,love,AF,A,391504,391504,389775,390789,389775,391688,391304,391304,391688,77
76,test,1,con,1,m,Wed Mar 25 2026 09:43:18 GMT-0500 (Central Daylight Time),401082.7000000477,jacket,900,I,m,m,None,365,166.0,199.0,98,1,1795.5,399287.2000000477,8099,jacket,AF,A,393320,393321,391691,392604,391691,393487,393121,393121,393487,78
77,test,1,inc,1,m,Wed Mar 25 2026 09:43:18 GMT-0500 (Central Daylight Time),403481.80000019073,love,1000,I,m,m,None,857,658.0,199.0,87,1,2394.800000190735,401087.0,8099,bell,AF,A,395220,395220,393491,394503,393491,395886,395020,395020,395886,79
78,test,1,con,1,z,Wed Mar 25 2026 09:43:18 GMT-0500 (Central Daylight Time),405731.0,kind,1000,I,z,z,None,715,515.0,200.0,11,1,2245.5999999046326,403485.40000009537,8099,kind,AF,A,397619,397619,395889,396903,395890,398135,397419,397419,398135,80
79,test,1,inc,1,m,Wed Mar 25 2026 09:43:18 GMT-0500 (Central Daylight Time),407963.60000014305,friend,1100,I,m,m,None,596,381.0,215.0,104,1,2229.100000143051,405734.5,8099,jacket,AF,A,399985,399985,398139,399252,398139,400368,399769,399770,400368,81
80,test,1,inc,1,m,Wed Mar 25 2026 09:43:18 GMT-0500 (Central Daylight Time),410013.30000019073,love,1000,I,m,m,None,513,313.0,200.0,71,1,2045.7000000476837,407967.60000014305,8099,step,AF,A,402101,402101,400372,401384,400372,402417,401901,401901,402417,82
81,test,1,con,1,m,Wed Mar 25 2026 09:43:18 GMT-0500 (Central Daylight Time),412495.90000009537,remote,800,I,m,m,None,1143,944.0,199.0,113,1,2478.9000000953674,410017.0,8099,remote,AF,A,403950,403950,402421,403234,402421,404900,403751,403751,404900,83
82,test,1,inc,1,m,Wed Mar 25 2026 09:43:18 GMT-0500 (Central Daylight Time),414495.10000014305,brutal,900,I,m,m,None,561,314.0,247.0,118,1,1994.9000000953674,412500.2000000477,8099,remote,AF,A,406580,406580,404904,405816,404905,406899,406333,406333,406899,84
83,test,1,inc,1,m,Wed Mar 25 2026 09:43:18 GMT-0500 (Central Daylight Time),416394.60000014305,rage,800,I,m,m,None,558,358.0,200.0,93,1,1895.5,414499.10000014305,8099,film,AF,A,408432,408432,406903,407716,406903,408799,408232,408232,408799,85
83,test,1,con,0,z,Wed Mar 25 2026 09:43:18 GMT-0500 (Central Daylight Time),418294.10000014305,rage,900,I,m,m,None,453,254.0,199.0,50,1,1896.0,416398.10000014305,8099,rage,AF,A,410431,410431,408802,409715,408802,410698,410232,410232,410698,86
84,test,1,inc,1,m,Wed Mar 25 2026 09:43:18 GMT-0500 (Central Daylight Time),420209.90000009537,rage,800,I,m,m,None,575,374.0,201.0,69,1,1912.2000000476837,418297.7000000477,8099,step,AF,A,412232,412232,410702,411515,410702,412614,412031,412031,412614,87
85,test,1,inc,1,m,Wed Mar 25 2026 09:43:18 GMT-0500 (Central Daylight Time),422276.10000014305,brutal,900,I,m,m,None,623,423.0,200.0,126,1,2062.7000000476837,420213.40000009537,8099,window,AF,A,414247,414247,412617,413530,412618,414680,414047,414047,414680,88
86,test,1,con,1,z,Wed Mar 25 2026 09:43:18 GMT-0500 (Central Daylight Time),424508.60000014305,love,900,I,z,z,None,789,589.0,200.0,18,1,2228.9000000953674,422279.7000000477,8099,love,AF,A,416313,416313,414684,415597,414684,416913,416113,416113,416913,89
87,test,1,con,1,m,Wed Mar 25 2026 09:43:18 GMT-0500 (Central Daylight Time),426724.5,napkin,1000,I,m,m,None,679,480.0,199.0,107,1,2212.199999809265,424512.30000019073,8099,napkin,AF,A,418646,418646,416916,417930,416917,419129,418446,418446,419129,90
87,test,1,inc,0,z,Wed Mar 25 2026 09:43:18 GMT-0500 (Central Daylight Time),428790.80000019073,rock,900,I,m,m,None,627,428.0,199.0,14,1,2062.2000000476837,426728.60000014305,8099,kind,AF,A,420762,420762,419133,420045,419133,421195,420562,420562,421195,91
88,test,1,inc,1,m,Wed Mar 25 2026 09:43:18 GMT-0500 (Central Daylight Time),430756.7000000477,rage,800,I,m,m,None,630,430.0,200.0,85,1,1962.3999998569489,428794.30000019073,8099,bell,AF,A,422728,422728,421198,422011,421199,423161,422528,422528,423161,92
89,test,1,con,1,z,Wed Mar 25 2026 09:43:18 GMT-0500 (Central Daylight Time),432589.5,love,800,I,z,z,None,488,288.0,200.0,17,1,1829.1999998092651,430760.30000019073,8099,love,AF,A,424694,424694,423164,423977,423165,424994,424494,424494,424994,93
90,test,1,inc,1,m,Wed Mar 25 2026 09:43:18 GMT-0500 (Central Daylight Time),434705.5,temper,1000,I,m,m,None,574,375.0,199.0,119,1,2112.399999856949,432593.10000014305,8099,remote,AF,A,426726,426727,424997,426010,424997,427110,426527,426527,427110,94
91,test,1,con,1,m,Wed Mar 25 2026 09:43:18 GMT-0500 (Central Daylight Time),436621.5,film,900,I,m,m,None,470,271.0,199.0,90,1,1912.0,434709.5,8099,film,AF,A,428743,428743,427114,428026,427114,429026,428543,428543,429026,95
92,test,1,con,1,m,Wed Mar 25 2026 09:43:18 GMT-0500 (Central Daylight Time),438554.2000000477,window,800,I,m,m,None,592,392.0,200.0,121,1,1928.7999999523163,436625.40000009537,8099,window,AF,A,430558,430558,429029,429842,429030,430958,430358,430358,430958,96
93,test,1,inc,1,m,Wed Mar 25 2026 09:43:18 GMT-0500 (Central Daylight Time),440637.0,temper,1000,I,m,m,None,547,346.0,201.0,103,1,2079.199999809265,438557.80000019073,8099,jacket,AF,A,432693,432693,430962,431975,430962,433041,432491,432491,433041,97
94,test,1,inc,1,m,Wed Mar 25 2026 09:43:18 GMT-0500 (Central Daylight Time),442586.5,elated,800,I,m,m,None,601,401.0,200.0,125,1,1945.8999998569489,440640.60000014305,8099,window,AF,A,434574,434574,433045,433859,433045,434991,434374,434374,434990,98
95,test,1,inc,1,z,Wed Mar 25 2026 09:43:18 GMT-0500 (Central Daylight Time),444553.90000009537,jacket,800,I,z,z,None,625,426.0,199.0,5,1,1961.7000000476837,442592.2000000477,8099,elated,AF,A,436524,436524,434996,435807,434997,436958,436324,436324,436958,99
96,test,1,inc,1,z,Wed Mar 25 2026 09:43:18 GMT-0500 (Central Daylight Time),446535.0,jacket,800,I,z,z,None,635,435.0,200.0,61,1,1977.2999999523163,444557.7000000477,8099,temper,AF,A,438491,438491,436962,437773,436962,438939,438290,438290,438939,100
97,test,1,con,1,m,Wed Mar 25 2026 09:43:18 GMT-0500 (Central Daylight Time),448617.80000019073,window,1000,I,m,m,None,542,342.0,200.0,123,1,2079.100000143051,446538.7000000477,8099,window,AF,A,440672,440672,438943,439956,438943,441022,440472,440472,441022,101
97,test,1,con,0,m,Wed Mar 25 2026 09:43:18 GMT-0500 (Central Daylight Time),450683.80000019073,bell,1000,I,z,z,None,523,323.0,200.0,83,1,2062.5,448621.30000019073,8099,bell,AF,A,442755,442755,441025,442039,441026,443088,442555,442555,443088,102
98,test,1,inc,1,m,Wed Mar 25 2026 09:43:18 GMT-0500 (Central Daylight Time),452683.2000000477,brutal,900,I,m,m,None,557,357.0,200.0,102,1,1995.2999999523163,450687.90000009537,8099,jacket,AF,A,444721,444721,443092,444005,443092,445087,444521,444521,445087,103
99,test,1,inc,1,m,Wed Mar 25 2026 09:43:18 GMT-0500 (Central Daylight Time),454632.80000019073,kind,900,I,m,m,None,511,311.0,200.0,78,1,1945.8000001907349,452687.0,8099,rock,AF,A,446720,446720,445091,446004,445091,447037,446520,446520,447037,104
100,test,1,con,1,z,Wed Mar 25 2026 09:43:18 GMT-0500 (Central Daylight Time),456582.0,kind,800,I,z,z,None,628,429.0,199.0,9,1,1945.5999999046326,454636.40000009537,8099,kind,AF,A,448553,448553,447040,447853,447041,448986,448354,448354,448986,105
101,test,1,con,1,m,Wed Mar 25 2026 09:43:18 GMT-0500 (Central Daylight Time),458732.60000014305,jacket,1100,I,m,m,None,507,307.0,200.0,100,1,2146.7000000476837,456585.90000009537,8099,jacket,AF,A,450819,450819,448990,450102,448990,451137,450619,450619,451137,106
102,test,1,con,1,z,Wed Mar 25 2026 09:43:18 GMT-0500 (Central Daylight Time),460997.40000009537,elated,1100,I,z,z,None,630,430.0,200.0,4,1,2260.5999999046326,458736.80000019073,8099,elated,AF,A,452968,452968,451141,452252,451141,453401,452768,452768,453401,107
103,test,1,con,1,m,Wed Mar 25 2026 09:43:18 GMT-0500 (Central Daylight Time),463213.2000000477,bell,1100,I,m,m,None,580,380.0,200.0,84,1,2211.7999999523163,461001.40000009537,8099,bell,AF,A,455234,455234,453405,454518,453406,455617,455034,455034,455617,108
104,test,1,inc,1,z,Wed Mar 25 2026 09:43:18 GMT-0500 (Central Daylight Time),465179.10000014305,jacket,800,I,z,z,None,631,432.0,199.0,37,1,1962.0,463217.10000014305,8099,brutal,AF,A,457150,457150,455621,456434,455621,457583,456951,456951,457583,109
105,test,1,con,1,z,Wed Mar 25 2026 09:43:18 GMT-0500 (Central Daylight Time),467562.0,rage,1100,I,z,z,None,734,534.0,200.0,52,1,2379.199999809265,465182.80000019073,8099,rage,AF,A,459416,459416,457587,458700,457587,459966,459216,459216,459966,110
106,test,1,inc,1,z,Wed Mar 25 2026 09:43:18 GMT-0500 (Central Daylight Time),469728.10000014305,bell,1000,I,z,z,None,619,419.0,200.0,55,1,2161.9000000953674,467566.2000000477,8099,rage,AF,A,461699,461699,459970,460982,459970,462132,461499,461499,462132,111
107,test,1,inc,1,z,Wed Mar 25 2026 09:43:18 GMT-0500 (Central Daylight Time),471660.60000014305,step,800,I,z,z,None,597,397.0,200.0,45,1,1928.9000000953674,469731.7000000477,8099,hate,AF,A,463665,463665,462136,462948,462136,464065,463465,463465,464065,112
108,test,1,con,1,z,Wed Mar 25 2026 09:43:18 GMT-0500 (Central Daylight Time),473676.60000014305,hate,1100,I,z,z,None,372,172.0,200.0,44,1,2012.2999999523163,471664.30000019073,8099,hate,AF,A,465898,465898,464068,465181,464069,466081,465698,465698,466081,113
109,test,1,con,1,z,Wed Mar 25 2026 09:43:18 GMT-0500 (Central Daylight Time),475642.5,hate,1000,I,z,z,None,431,232.0,199.0,43,1,1962.3999998569489,473680.10000014305,8099,hate,AF,A,467814,467814,466084,467097,466084,468047,467614,467614,468047,114
110,test,1,con,1,z,Wed Mar 25 2026 09:43:18 GMT-0500 (Central Daylight Time),477741.90000009537,kind,1100,I,z,z,None,462,262.0,200.0,12,1,2096.0,475645.90000009537,8099,kind,AF,A,469880,469880,468050,469163,468050,470146,469680,469680,470146,115
111,test,1,con,1,z,Wed Mar 25 2026 09:43:18 GMT-0500 (Central Daylight Time),479808.2000000477,temper,800,I,z,z,None,719,519.0,200.0,57,1,2062.399999856949,477745.80000019073,8099,temper,AF,A,471679,471679,470150,470963,470150,472212,471479,471479,472212,116
112,test,1,inc,1,m,Wed Mar 25 2026 09:43:18 GMT-0500 (Central Daylight Time),481774.2000000477,elated,800,I,m,m,None,629,429.0,200.0,109,1,1961.7000000476837,479812.5,8099,napkin,AF,A,473745,473745,472217,473029,472217,474178,473545,473545,474178,117
113,test,1,con,1,z,Wed Mar 25 2026 09:43:18 GMT-0500 (Central Daylight Time),483773.40000009537,brutal,1000,I,z,z,None,463,263.0,200.0,35,1,1995.5999999046326,481777.80000019073,8099,brutal,AF,A,475911,475911,474182,475194,474182,476178,475711,475711,476177,118
113,test,1,con,0,m,Wed Mar 25 2026 09:43:18 GMT-0500 (Central Daylight Time),485673.0,rock,1000,I,z,z,None,358,159.0,199.0,75,1,1895.8999998569489,483777.10000014305,8099,rock,AF,A,477911,477911,476181,477194,476181,478077,477711,477711,478077,119
114,test,1,inc,1,m,Wed Mar 25 2026 09:43:18 GMT-0500 (Central Daylight Time),487855.5,friend,1100,I,m,m,None,543,344.0,199.0,128,1,2178.699999809265,485676.80000019073,8099,window,AF,A,479910,479910,478081,479194,478081,480260,479711,479711,480260,120
115,test,1,inc,1,m,Wed Mar 25 2026 09:43:18 GMT-0500 (Central Daylight Time),490021.60000014305,friend,1100,I,m,m,None,528,329.0,199.0,112,1,2161.7999999523163,487859.80000019073,8099,napkin,AF,A,482093,482093,480264,481376,480264,482426,481893,481893,482426,121
116,test,1,con,1,z,Wed Mar 25 2026 09:43:18 GMT-0500 (Central Daylight Time),492070.90000009537,friend,1000,I,z,z,None,503,304.0,199.0,27,1,2045.7000000476837,490025.2000000477,8099,friend,AF,A,484158,484158,482429,483442,482429,484475,483959,483959,484475,122
117,test,1,inc,1,z,Wed Mar 25 2026 09:43:18 GMT-0500 (Central Daylight Time),494370.10000014305,remote,1000,I,z,z,None,750,550.0,200.0,63,1,2295.600000143051,492074.5,8099,temper,AF,A,486208,486208,484479,485492,484479,486774,486008,486008,486774,123
118,test,1,con,1,m,Wed Mar 25 2026 09:43:18 GMT-0500 (Central Daylight Time),496319.60000014305,step,800,I,m,m,None,609,410.0,199.0,65,1,1945.7000000476837,494373.90000009537,8099,step,AF,A,488308,488308,486778,487591,486778,488724,488108,488108,488724,124
119,test,1,con,1,z,Wed Mar 25 2026 09:43:18 GMT-0500 (Central Daylight Time),498768.80000019073,rage,1000,I,z,z,None,908,709.0,199.0,51,1,2445.4000000953674,496323.40000009537,8099,rage,AF,A,490457,490457,488727,489740,488728,491173,490257,490257,491173,125
120,test,1,con,1,z,Wed Mar 25 2026 09:43:18 GMT-0500 (Central Daylight Time),500818.2000000477,elated,800,I,z,z,None,708,508.0,200.0,1,1,2045.5,498772.7000000477,8099,elated,AF,A,492706,492706,491177,491989,491177,493222,492506,492506,493222,126
121,test,1,inc,1,z,Wed Mar 25 2026 09:43:18 GMT-0500 (Central Daylight Time),502934.10000014305,rock,900,I,z,z,None,679,479.0,200.0,46,1,2112.2000000476837,500821.90000009537,8099,hate,AF,A,494855,494855,493226,494139,493226,495338,494655,494655,495338,127
122,test,1,inc,1,z,Wed Mar 25 2026 09:43:18 GMT-0500 (Central Daylight Time),505166.80000019073,step,800,I,z,z,None,886,687.0,199.0,13,1,2228.7000000476837,502938.10000014305,8099,kind,AF,A,496871,496871,495342,496155,495342,497571,496672,496672,497571,128
