acc_sum,block,block_c,change,condition,correct,correct_response,datetime,endtime,face,project,response,response_time,row_sel,session_number,start_end,starttime,subject_id,task,task_vers,trial
0,prac,1,,1-Back,,,Wed Aug 06 2025 09:54:46 GMT-0500 (Central Daylight Time),,005_o_f_d_a.png,O,space,1033,1,1,,,7191,VNB,B,0
0,prac,1,0.0,1-Back,0,m,Wed Aug 06 2025 09:54:46 GMT-0500 (Central Daylight Time),193169.09999990463,020_y_f_n_a.png,O,z,1677,2,1,2556.5,190612.59999990463,7191,VNB,B,1
1,prac,1,0.0,1-Back,1,m,Wed Aug 06 2025 09:54:46 GMT-0500 (Central Daylight Time),195451.70000004768,007_m_m_h_a.png,O,m,1380,3,1,2272.5,193179.20000004768,7191,VNB,B,2
2,prac,1,0.0,1-Back,1,m,Wed Aug 06 2025 09:54:46 GMT-0500 (Central Daylight Time),197600.79999995232,016_y_m_d_a.png,O,m,1252,4,1,2139.5999999046326,195461.20000004768,7191,VNB,B,3
3,prac,1,0.0,1-Back,1,m,Wed Aug 06 2025 09:54:46 GMT-0500 (Central Daylight Time),199883.70000004768,005_o_f_n_a.png,O,m,1405,5,1,2275.0,197608.70000004768,7191,VNB,B,4
4,prac,1,1.0,1-Back,1,z,Wed Aug 06 2025 09:54:46 GMT-0500 (Central Daylight Time),201865.20000004768,016_y_m_n_a.png,O,z,1098,6,1,1973.9000000953674,199891.29999995232,7191,VNB,B,5
5,prac,1,0.0,1-Back,1,m,Wed Aug 06 2025 09:54:46 GMT-0500 (Central Daylight Time),203649.20000004768,004_o_m_h_a.png,O,m,899,7,1,1771.1000001430511,201878.09999990463,7191,VNB,B,6
6,prac,1,0.0,1-Back,1,m,Wed Aug 06 2025 09:54:46 GMT-0500 (Central Daylight Time),205315.79999995232,011_m_f_d_a.png,O,m,782,8,1,1658.7000000476837,203657.09999990463,7191,VNB,B,7
6,prac,1,1.0,1-Back,0,z,Wed Aug 06 2025 09:54:46 GMT-0500 (Central Daylight Time),207332.20000004768,020_y_f_d_a.png,O,m,1150,9,1,2006.6000001430511,205325.59999990463,7191,VNB,B,8
7,prac,1,0.0,1-Back,1,m,Wed Aug 06 2025 09:54:46 GMT-0500 (Central Daylight Time),209497.09999990463,007_m_m_n_a.png,O,m,1280,10,1,2155.0999999046326,207342.0,7191,VNB,B,9
7,prac,1,0.0,1-Back,0,m,Wed Aug 06 2025 09:54:46 GMT-0500 (Central Daylight Time),211413.20000004768,005_o_f_h_a.png,O,z,1033,11,1,1907.7000000476837,209505.5,7191,VNB,B,10
8,prac,1,0.0,1-Back,1,m,Wed Aug 06 2025 09:54:46 GMT-0500 (Central Daylight Time),213461.5,016_y_m_d_a.png,O,m,1145,12,1,2039.9000000953674,211421.59999990463,7191,VNB,B,11
0,test,1,0.0,1-Back,,,Wed Aug 06 2025 09:54:46 GMT-0500 (Central Daylight Time),213461.5,020_y_f_d_a.png,O,space,8205,1,1,2039.9000000953674,211421.59999990463,7191,VNB,B,0
1,test,1,0.0,1-Back,1,m,Wed Aug 06 2025 09:54:46 GMT-0500 (Central Daylight Time),240669.79999995232,011_m_f_n_a.png,O,m,1337,2,1,2357.7999999523163,238312.0,7191,VNB,B,1
2,test,1,0.0,1-Back,1,m,Wed Aug 06 2025 09:54:46 GMT-0500 (Central Daylight Time),242653.40000009537,004_o_m_h_a.png,O,m,966,3,1,1974.9000000953674,240678.5,7191,VNB,B,2
3,test,1,1.0,1-Back,1,z,Wed Aug 06 2025 09:54:46 GMT-0500 (Central Daylight Time),244801.90000009537,007_m_m_h_a.png,O,z,1124,4,1,2142.300000190735,242659.59999990463,7191,VNB,B,3
4,test,1,0.0,1-Back,1,m,Wed Aug 06 2025 09:54:46 GMT-0500 (Central Daylight Time),246535.0,005_o_f_n_a.png,O,m,702,5,1,1726.7000000476837,244808.29999995232,7191,VNB,B,4
5,test,1,0.0,1-Back,1,m,Wed Aug 06 2025 09:54:46 GMT-0500 (Central Daylight Time),248635.29999995232,016_y_m_d_a.png,O,m,1082,6,1,2093.2999999523163,246542.0,7191,VNB,B,5
6,test,1,1.0,1-Back,1,z,Wed Aug 06 2025 09:54:46 GMT-0500 (Central Daylight Time),250783.5,011_m_f_d_a.png,O,z,1119,7,1,2139.9000000953674,248643.59999990463,7191,VNB,B,6
7,test,1,0.0,1-Back,1,m,Wed Aug 06 2025 09:54:46 GMT-0500 (Central Daylight Time),252666.40000009537,020_y_f_h_a.png,O,m,857,8,1,1876.5,250789.90000009537,7191,VNB,B,7
8,test,1,0.0,1-Back,1,m,Wed Aug 06 2025 09:54:46 GMT-0500 (Central Daylight Time),254815.29999995232,004_o_m_n_a.png,O,m,1118,9,1,2142.7000000476837,252672.59999990463,7191,VNB,B,8
9,test,1,0.0,1-Back,1,m,Wed Aug 06 2025 09:54:46 GMT-0500 (Central Daylight Time),256798.79999995232,016_y_m_h_a.png,O,m,954,10,1,1976.7999999523163,254822.0,7191,VNB,B,9
10,test,1,0.0,1-Back,1,m,Wed Aug 06 2025 09:54:46 GMT-0500 (Central Daylight Time),258780.40000009537,004_o_m_d_a.png,O,m,964,11,1,1973.3000001907349,256807.09999990463,7191,VNB,B,10
11,test,1,1.0,1-Back,1,z,Wed Aug 06 2025 09:54:46 GMT-0500 (Central Daylight Time),260795.79999995232,005_o_f_d_a.png,O,z,996,12,1,2007.5,258788.29999995232,7191,VNB,B,11
12,test,1,0.0,1-Back,1,m,Wed Aug 06 2025 09:54:46 GMT-0500 (Central Daylight Time),262946.40000009537,007_m_m_n_a.png,O,m,1115,13,1,2145.0,260801.40000009537,7191,VNB,B,12
13,test,1,1.0,1-Back,1,z,Wed Aug 06 2025 09:54:46 GMT-0500 (Central Daylight Time),265112.90000009537,020_y_f_n_a.png,O,z,1143,14,1,2159.800000190735,262953.09999990463,7191,VNB,B,13
14,test,1,0.0,1-Back,1,m,Wed Aug 06 2025 09:54:46 GMT-0500 (Central Daylight Time),266944.90000009537,011_m_f_h_a.png,O,m,809,15,1,1824.3000001907349,265120.59999990463,7191,VNB,B,14
15,test,1,0.0,1-Back,1,m,Wed Aug 06 2025 09:54:46 GMT-0500 (Central Daylight Time),269210.40000009537,007_m_m_d_a.png,O,m,1240,16,1,2258.4000000953674,266952.0,7191,VNB,B,15
15,test,1,0.0,1-Back,0,m,Wed Aug 06 2025 09:54:46 GMT-0500 (Central Daylight Time),271659.5,016_y_m_n_a.png,O,z,1421,17,1,2440.5999999046326,269218.90000009537,7191,VNB,B,16
16,test,1,0.0,1-Back,1,m,Wed Aug 06 2025 09:54:46 GMT-0500 (Central Daylight Time),273674.40000009537,005_o_f_h_a.png,O,m,989,18,1,2008.2000000476837,271666.2000000477,7191,VNB,B,17
0,test,2,0.0,1-Back,,,Wed Aug 06 2025 09:54:46 GMT-0500 (Central Daylight Time),273674.40000009537,016_y_m_n_a.png,O,space,2326,1,1,2008.2000000476837,271666.2000000477,7191,VNB,B,0
1,test,2,0.0,1-Back,1,m,Wed Aug 06 2025 09:54:46 GMT-0500 (Central Daylight Time),280174.0,020_y_f_h_a.png,O,m,1121,2,1,2140.7000000476837,278033.2999999523,7191,VNB,B,1
2,test,2,1.0,1-Back,1,m,Wed Aug 06 2025 09:54:46 GMT-0500 (Central Daylight Time),282573.40000009537,004_o_m_n_a.png,O,m,1371,3,1,2391.600000143051,280181.7999999523,7191,VNB,B,2
2,test,2,0.0,1-Back,0,m,Wed Aug 06 2025 09:54:46 GMT-0500 (Central Daylight Time),284556.2999999523,011_m_f_d_a.png,O,z,954,4,1,1976.0999999046326,282580.2000000477,7191,VNB,B,3
2,test,2,0.0,1-Back,0,z,Wed Aug 06 2025 09:54:46 GMT-0500 (Central Daylight Time),287054.7000000477,007_m_m_d_a.png,O,m,1467,5,1,2493.2999999523163,284561.40000009537,7191,VNB,B,4
3,test,2,0.0,1-Back,1,m,Wed Aug 06 2025 09:54:46 GMT-0500 (Central Daylight Time),289020.0,016_y_m_h_a.png,O,m,946,6,1,1958.2000000476837,287061.7999999523,7191,VNB,B,5
4,test,2,1.0,1-Back,1,z,Wed Aug 06 2025 09:54:46 GMT-0500 (Central Daylight Time),291054.59999990463,005_o_f_h_a.png,O,z,1002,7,1,2026.6999998092651,289027.90000009537,7191,VNB,B,6
5,test,2,0.0,1-Back,1,m,Wed Aug 06 2025 09:54:46 GMT-0500 (Central Daylight Time),292953.90000009537,011_m_f_n_a.png,O,m,874,8,1,1891.7000000476837,291062.2000000477,7191,VNB,B,7
5,test,2,0.0,1-Back,0,m,Wed Aug 06 2025 09:54:46 GMT-0500 (Central Daylight Time),295301.59999990463,020_y_f_d_a.png,O,z,1319,9,1,2340.399999856949,292961.2000000477,7191,VNB,B,8
6,test,2,0.0,1-Back,1,m,Wed Aug 06 2025 09:54:46 GMT-0500 (Central Daylight Time),297734.90000009537,007_m_m_n_a.png,O,m,1410,10,1,2424.4000000953674,295310.5,7191,VNB,B,9
7,test,2,1.0,1-Back,1,m,Wed Aug 06 2025 09:54:46 GMT-0500 (Central Daylight Time),299917.09999990463,011_m_f_h_a.png,O,m,1153,11,1,2175.5,297741.59999990463,7191,VNB,B,10
8,test,2,0.0,1-Back,1,z,Wed Aug 06 2025 09:54:46 GMT-0500 (Central Daylight Time),301817.2999999523,004_o_m_h_a.png,O,z,868,12,1,1892.2999999523163,299925.0,7191,VNB,B,11
9,test,2,0.0,1-Back,1,m,Wed Aug 06 2025 09:54:46 GMT-0500 (Central Daylight Time),303582.90000009537,016_y_m_d_a.png,O,m,735,13,1,1757.2000000476837,301825.7000000477,7191,VNB,B,12
10,test,2,0.0,1-Back,1,m,Wed Aug 06 2025 09:54:46 GMT-0500 (Central Daylight Time),306099.90000009537,005_o_f_n_a.png,O,m,1499,14,1,2509.4000000953674,303590.5,7191,VNB,B,13
11,test,2,0.0,1-Back,1,z,Wed Aug 06 2025 09:54:46 GMT-0500 (Central Daylight Time),308014.2000000477,020_y_f_n_a.png,O,z,894,15,1,1907.1000001430511,306107.09999990463,7191,VNB,B,14
12,test,2,1.0,1-Back,1,m,Wed Aug 06 2025 09:54:46 GMT-0500 (Central Daylight Time),309746.7999999523,007_m_m_h_a.png,O,m,705,16,1,1726.8999998569489,308019.90000009537,7191,VNB,B,15
13,test,2,0.0,1-Back,1,m,Wed Aug 06 2025 09:54:46 GMT-0500 (Central Daylight Time),312146.5,005_o_f_d_a.png,O,m,1373,17,1,2392.0,309754.5,7191,VNB,B,16
14,test,2,1.0,1-Back,1,z,Wed Aug 06 2025 09:54:46 GMT-0500 (Central Daylight Time),314529.59999990463,004_o_m_d_a.png,O,z,1359,18,1,2374.5,312155.09999990463,7191,VNB,B,17
0,test,3,1.0,1-Back,,,Wed Aug 06 2025 09:54:46 GMT-0500 (Central Daylight Time),314529.59999990463,005_o_f_h_a.png,O,space,1111,1,1,2374.5,312155.09999990463,7191,VNB,B,0
1,test,3,0.0,1-Back,1,m,Wed Aug 06 2025 09:54:46 GMT-0500 (Central Daylight Time),320279.0,011_m_f_d_a.png,O,m,1486,2,1,2508.2999999523163,317770.7000000477,7191,VNB,B,1
2,test,3,1.0,1-Back,1,m,Wed Aug 06 2025 09:54:46 GMT-0500 (Central Daylight Time),322562.2000000477,007_m_m_n_a.png,O,m,1252,3,1,2274.9000000953674,320287.2999999523,7191,VNB,B,2
3,test,3,0.0,1-Back,1,z,Wed Aug 06 2025 09:54:46 GMT-0500 (Central Daylight Time),324527.2999999523,005_o_f_n_a.png,O,z,945,4,1,1957.7999999523163,322569.5,7191,VNB,B,3
4,test,3,1.0,1-Back,1,m,Wed Aug 06 2025 09:54:46 GMT-0500 (Central Daylight Time),326609.2000000477,004_o_m_d_a.png,O,m,1058,5,1,2071.0,324538.2000000477,7191,VNB,B,4
5,test,3,0.0,1-Back,1,m,Wed Aug 06 2025 09:54:46 GMT-0500 (Central Daylight Time),328591.7999999523,020_y_f_h_a.png,O,m,951,6,1,1974.7999999523163,326617.0,7191,VNB,B,5
6,test,3,0.0,1-Back,1,z,Wed Aug 06 2025 09:54:46 GMT-0500 (Central Daylight Time),330242.2999999523,016_y_m_h_a.png,O,z,625,7,1,1644.7000000476837,328597.59999990463,7191,VNB,B,6
7,test,3,0.0,1-Back,1,m,Wed Aug 06 2025 09:54:46 GMT-0500 (Central Daylight Time),332158.59999990463,011_m_f_n_a.png,O,m,896,8,1,1909.1999998092651,330249.40000009537,7191,VNB,B,7
8,test,3,0.0,1-Back,1,m,Wed Aug 06 2025 09:54:46 GMT-0500 (Central Daylight Time),334507.09999990463,020_y_f_d_a.png,O,m,1323,9,1,2345.399999856949,332161.7000000477,7191,VNB,B,8
9,test,3,1.0,1-Back,1,m,Wed Aug 06 2025 09:54:46 GMT-0500 (Central Daylight Time),336707.7000000477,004_o_m_n_a.png,O,m,1185,10,1,2193.5,334514.2000000477,7191,VNB,B,9
10,test,3,0.0,1-Back,1,m,Wed Aug 06 2025 09:54:46 GMT-0500 (Central Daylight Time),338754.90000009537,007_m_m_h_a.png,O,m,1023,11,1,2039.6000001430511,336715.2999999523,7191,VNB,B,10
11,test,3,0.0,1-Back,1,z,Wed Aug 06 2025 09:54:46 GMT-0500 (Central Daylight Time),340671.2999999523,011_m_f_h_a.png,O,z,884,12,1,1910.7999999523163,338760.5,7191,VNB,B,11
12,test,3,1.0,1-Back,1,m,Wed Aug 06 2025 09:54:46 GMT-0500 (Central Daylight Time),342387.2999999523,005_o_f_d_a.png,O,m,697,13,1,1708.2999999523163,340679.0,7191,VNB,B,12
13,test,3,0.0,1-Back,1,z,Wed Aug 06 2025 09:54:46 GMT-0500 (Central Daylight Time),344304.7999999523,007_m_m_d_a.png,O,z,887,14,1,1909.0,342395.7999999523,7191,VNB,B,13
14,test,3,0.0,1-Back,1,m,Wed Aug 06 2025 09:54:46 GMT-0500 (Central Daylight Time),346203.2999999523,016_y_m_n_a.png,O,m,873,15,1,1890.2999999523163,344313.0,7191,VNB,B,14
15,test,3,1.0,1-Back,1,m,Wed Aug 06 2025 09:54:46 GMT-0500 (Central Daylight Time),348119.2000000477,004_o_m_h_a.png,O,m,885,16,1,1905.7000000476837,346213.5,7191,VNB,B,15
15,test,3,0.0,1-Back,0,m,Wed Aug 06 2025 09:54:46 GMT-0500 (Central Daylight Time),350100.40000009537,016_y_m_d_a.png,O,z,961,17,1,1975.0,348125.40000009537,7191,VNB,B,16
16,test,3,1.0,1-Back,1,m,Wed Aug 06 2025 09:54:46 GMT-0500 (Central Daylight Time),352532.90000009537,020_y_f_n_a.png,O,m,1405,18,1,2423.9000000953674,350109.0,7191,VNB,B,17
0,test,4,1.0,1-Back,,,Wed Aug 06 2025 09:54:46 GMT-0500 (Central Daylight Time),352532.90000009537,007_m_m_d_a.png,O,space,796,1,1,2423.9000000953674,350109.0,7191,VNB,B,0
1,test,4,0.0,1-Back,1,z,Wed Aug 06 2025 09:54:46 GMT-0500 (Central Daylight Time),358231.2999999523,004_o_m_d_a.png,O,z,1857,2,1,2873.0,355358.2999999523,7191,VNB,B,1
2,test,4,0.0,1-Back,1,m,Wed Aug 06 2025 09:54:46 GMT-0500 (Central Daylight Time),360066.2999999523,016_y_m_h_a.png,O,m,799,3,1,1827.7000000476837,358238.59999990463,7191,VNB,B,2
3,test,4,0.0,1-Back,1,m,Wed Aug 06 2025 09:54:46 GMT-0500 (Central Daylight Time),361997.2000000477,011_m_f_n_a.png,O,m,912,4,1,1923.2999999523163,360073.90000009537,7191,VNB,B,3
4,test,4,1.0,1-Back,1,m,Wed Aug 06 2025 09:54:46 GMT-0500 (Central Daylight Time),363997.2999999523,005_o_f_h_a.png,O,m,971,5,1,1995.2000000476837,362002.09999990463,7191,VNB,B,4
5,test,4,0.0,1-Back,1,m,Wed Aug 06 2025 09:54:46 GMT-0500 (Central Daylight Time),366446.90000009537,007_m_m_n_a.png,O,m,1419,6,1,2442.300000190735,364004.59999990463,7191,VNB,B,5
5,test,4,0.0,1-Back,0,m,Wed Aug 06 2025 09:54:46 GMT-0500 (Central Daylight Time),369178.5,016_y_m_d_a.png,O,z,1708,7,1,2725.5999999046326,366452.90000009537,7191,VNB,B,6
6,test,4,1.0,1-Back,1,z,Wed Aug 06 2025 09:54:46 GMT-0500 (Central Daylight Time),371861.09999990463,020_y_f_d_a.png,O,z,1662,8,1,2673.5999999046326,369187.5,7191,VNB,B,7
7,test,4,0.0,1-Back,1,m,Wed Aug 06 2025 09:54:46 GMT-0500 (Central Daylight Time),373891.90000009537,011_m_f_h_a.png,O,m,1010,9,1,2022.0,371869.90000009537,7191,VNB,B,8
8,test,4,0.0,1-Back,1,z,Wed Aug 06 2025 09:54:46 GMT-0500 (Central Daylight Time),375793.7999999523,004_o_m_h_a.png,O,z,876,10,1,1898.7000000476837,373895.09999990463,7191,VNB,B,9
9,test,4,1.0,1-Back,1,m,Wed Aug 06 2025 09:54:46 GMT-0500 (Central Daylight Time),377511.09999990463,005_o_f_n_a.png,O,m,695,11,1,1709.0999999046326,375802.0,7191,VNB,B,10
10,test,4,0.0,1-Back,1,m,Wed Aug 06 2025 09:54:46 GMT-0500 (Central Daylight Time),380009.7000000477,011_m_f_d_a.png,O,m,1477,12,1,2491.2000000476837,377518.5,7191,VNB,B,11
11,test,4,0.0,1-Back,1,m,Wed Aug 06 2025 09:54:46 GMT-0500 (Central Daylight Time),382309.0,020_y_f_n_a.png,O,m,1283,13,1,2291.7000000476837,380017.2999999523,7191,VNB,B,12
12,test,4,0.0,1-Back,1,m,Wed Aug 06 2025 09:54:46 GMT-0500 (Central Daylight Time),385257.5,005_o_f_d_a.png,O,m,1917,14,1,2939.5999999046326,382317.90000009537,7191,VNB,B,13
13,test,4,0.0,1-Back,1,m,Wed Aug 06 2025 09:54:46 GMT-0500 (Central Daylight Time),387340.7999999523,020_y_f_h_a.png,O,m,1065,15,1,2075.399999856949,385265.40000009537,7191,VNB,B,14
13,test,4,1.0,1-Back,0,z,Wed Aug 06 2025 09:54:46 GMT-0500 (Central Daylight Time),390372.5,007_m_m_h_a.png,O,None,2015,16,1,3024.7999999523163,387347.7000000477,7191,VNB,B,15
13,test,4,0.0,1-Back,0,m,Wed Aug 06 2025 09:54:46 GMT-0500 (Central Daylight Time),392906.5,004_o_m_n_a.png,O,z,1518,17,1,2525.0999999046326,390381.40000009537,7191,VNB,B,16
14,test,4,1.0,1-Back,1,z,Wed Aug 06 2025 09:54:46 GMT-0500 (Central Daylight Time),395037.7000000477,016_y_m_n_a.png,O,z,1106,18,1,2126.600000143051,392911.09999990463,7191,VNB,B,17
0,test,5,1.0,1-Back,,,Wed Aug 06 2025 09:54:46 GMT-0500 (Central Daylight Time),395037.7000000477,004_o_m_n_a.png,O,space,767,1,1,2126.600000143051,392911.09999990463,7191,VNB,B,0
1,test,5,1.0,1-Back,1,m,Wed Aug 06 2025 09:54:46 GMT-0500 (Central Daylight Time),399686.40000009537,005_o_f_h_a.png,O,m,844,2,1,1859.0,397827.40000009537,7191,VNB,B,1
2,test,5,0.0,1-Back,1,m,Wed Aug 06 2025 09:54:46 GMT-0500 (Central Daylight Time),402202.09999990463,016_y_m_d_a.png,O,m,1491,3,1,2507.0999999046326,399695.0,7191,VNB,B,2
3,test,5,0.0,1-Back,1,z,Wed Aug 06 2025 09:54:46 GMT-0500 (Central Daylight Time),404250.09999990463,004_o_m_d_a.png,O,z,1031,4,1,2039.8999998569489,402210.2000000477,7191,VNB,B,3
4,test,5,0.0,1-Back,1,m,Wed Aug 06 2025 09:54:46 GMT-0500 (Central Daylight Time),406284.59999990463,011_m_f_h_a.png,O,m,1004,5,1,2026.1999998092651,404258.40000009537,7191,VNB,B,4
5,test,5,0.0,1-Back,1,m,Wed Aug 06 2025 09:54:46 GMT-0500 (Central Daylight Time),408549.7999999523,020_y_f_n_a.png,O,m,1239,6,1,2258.7000000476837,406291.09999990463,7191,VNB,B,5
6,test,5,1.0,1-Back,1,z,Wed Aug 06 2025 09:54:46 GMT-0500 (Central Daylight Time),410482.09999990463,005_o_f_n_a.png,O,z,908,7,1,1924.5,408557.59999990463,7191,VNB,B,6
7,test,5,0.0,1-Back,1,m,Wed Aug 06 2025 09:54:46 GMT-0500 (Central Daylight Time),412815.40000009537,011_m_f_d_a.png,O,m,1310,8,1,2326.600000143051,410488.7999999523,7191,VNB,B,7
8,test,5,0.0,1-Back,1,m,Wed Aug 06 2025 09:54:46 GMT-0500 (Central Daylight Time),414881.09999990463,016_y_m_h_a.png,O,m,1041,9,1,2057.7999999523163,412823.2999999523,7191,VNB,B,8
9,test,5,0.0,1-Back,1,m,Wed Aug 06 2025 09:54:46 GMT-0500 (Central Daylight Time),416847.7000000477,020_y_f_d_a.png,O,m,935,10,1,1959.7999999523163,414887.90000009537,7191,VNB,B,9
10,test,5,0.0,1-Back,1,m,Wed Aug 06 2025 09:54:46 GMT-0500 (Central Daylight Time),419345.7999999523,007_m_m_n_a.png,O,m,1474,11,1,2489.7000000476837,416856.09999990463,7191,VNB,B,10
11,test,5,1.0,1-Back,1,z,Wed Aug 06 2025 09:54:46 GMT-0500 (Central Daylight Time),421346.59999990463,011_m_f_n_a.png,O,z,983,12,1,1993.5,419353.09999990463,7191,VNB,B,11
12,test,5,0.0,1-Back,1,m,Wed Aug 06 2025 09:54:46 GMT-0500 (Central Daylight Time),423295.40000009537,004_o_m_h_a.png,O,m,920,13,1,1940.1000001430511,421355.2999999523,7191,VNB,B,12
13,test,5,0.0,1-Back,1,z,Wed Aug 06 2025 09:54:46 GMT-0500 (Central Daylight Time),425178.2000000477,007_m_m_h_a.png,O,z,858,14,1,1875.7999999523163,423302.40000009537,7191,VNB,B,13
14,test,5,1.0,1-Back,1,m,Wed Aug 06 2025 09:54:46 GMT-0500 (Central Daylight Time),427312.2999999523,005_o_f_d_a.png,O,m,1111,15,1,2125.5999999046326,425186.7000000477,7191,VNB,B,14
14,test,5,0.0,1-Back,0,m,Wed Aug 06 2025 09:54:46 GMT-0500 (Central Daylight Time),429160.2999999523,016_y_m_n_a.png,O,z,818,16,1,1841.2000000476837,427319.09999990463,7191,VNB,B,15
15,test,5,0.0,1-Back,1,m,Wed Aug 06 2025 09:54:46 GMT-0500 (Central Daylight Time),431142.0,020_y_f_h_a.png,O,m,962,17,1,1973.7000000476837,429168.2999999523,7191,VNB,B,16
16,test,5,0.0,1-Back,1,m,Wed Aug 06 2025 09:54:46 GMT-0500 (Central Daylight Time),433125.2000000477,007_m_m_d_a.png,O,m,953,18,1,1974.7999999523163,431150.40000009537,7191,VNB,B,17
0,prac,1,0.0,2-Back,,,Wed Aug 06 2025 09:54:46 GMT-0500 (Central Daylight Time),433125.2000000477,011_m_f_n_a.png,O,space,3369,1,1,1974.7999999523163,431150.40000009537,7191,VNB,B,0
0,prac,1,0.0,2-Back,,,Wed Aug 06 2025 09:54:46 GMT-0500 (Central Daylight Time),433125.2000000477,005_o_f_h_a.png,O,space,3369,2,1,1974.7999999523163,431150.40000009537,7191,VNB,B,0
0,prac,1,0.0,2-Back,0,m,Wed Aug 06 2025 09:54:46 GMT-0500 (Central Daylight Time),524730.5999999046,004_o_m_d_a.png,O,z,1702,3,1,2542.699999809265,522187.90000009537,7191,VNB,B,1
1,prac,1,1.0,2-Back,1,z,Wed Aug 06 2025 09:54:46 GMT-0500 (Central Daylight Time),527412.5,007_m_m_h_a.png,O,z,1787,4,1,2671.7999999523163,524740.7000000477,7191,VNB,B,2
1,prac,1,0.0,2-Back,0,m,Wed Aug 06 2025 09:54:46 GMT-0500 (Central Daylight Time),530277.5999999046,020_y_f_n_a.png,O,None,2002,5,1,2858.2999999523163,527419.2999999523,7191,VNB,B,3
2,prac,1,1.0,2-Back,1,z,Wed Aug 06 2025 09:54:46 GMT-0500 (Central Daylight Time),532410.7999999523,004_o_m_h_a.png,O,z,1355,6,1,2121.899999856949,530288.9000000954,7191,VNB,B,4
3,prac,1,1.0,2-Back,1,z,Wed Aug 06 2025 09:54:46 GMT-0500 (Central Daylight Time),534727.0999999046,016_y_m_n_a.png,O,z,1438,7,1,2306.399999856949,532420.7000000477,7191,VNB,B,5
4,prac,1,0.0,2-Back,1,m,Wed Aug 06 2025 09:54:46 GMT-0500 (Central Daylight Time),537474.7000000477,011_m_f_d_a.png,O,m,1849,8,1,2738.9000000953674,534735.7999999523,7191,VNB,B,6
4,prac,1,0.0,2-Back,0,m,Wed Aug 06 2025 09:54:46 GMT-0500 (Central Daylight Time),540158.4000000954,005_o_f_d_a.png,O,z,1788,9,1,2673.800000190735,537484.5999999046,7191,VNB,B,7
4,prac,1,0.0,2-Back,0,m,Wed Aug 06 2025 09:54:46 GMT-0500 (Central Daylight Time),542558.0,007_m_m_h_a.png,O,z,1618,10,1,2390.7999999523163,540167.2000000477,7191,VNB,B,8
4,prac,1,1.0,2-Back,0,z,Wed Aug 06 2025 09:54:46 GMT-0500 (Central Daylight Time),545438.5999999046,020_y_f_d_a.png,O,None,2014,11,1,2870.399999856949,542568.2000000477,7191,VNB,B,9
4,prac,1,0.0,2-Back,0,m,Wed Aug 06 2025 09:54:46 GMT-0500 (Central Daylight Time),548321.4000000954,004_o_m_n_a.png,O,None,2015,12,1,2873.800000190735,545447.5999999046,7191,VNB,B,10
0,prac,2,0.0,2-Back,,,Wed Aug 06 2025 09:54:46 GMT-0500 (Central Daylight Time),548321.4000000954,011_m_f_n_a.png,O,a,9292,1,1,2873.800000190735,545447.5999999046,7191,VNB,B,0
0,prac,2,0.0,2-Back,,,Wed Aug 06 2025 09:54:46 GMT-0500 (Central Daylight Time),548321.4000000954,005_o_f_h_a.png,O,a,9292,2,1,2873.800000190735,545447.5999999046,7191,VNB,B,0
1,prac,2,0.0,2-Back,1,m,Wed Aug 06 2025 09:54:46 GMT-0500 (Central Daylight Time),565284.0,004_o_m_d_a.png,O,m,1553,3,1,2407.0999999046326,562876.9000000954,7191,VNB,B,1
2,prac,2,1.0,2-Back,1,z,Wed Aug 06 2025 09:54:46 GMT-0500 (Central Daylight Time),567699.9000000954,007_m_m_h_a.png,O,z,1639,4,1,2407.100000143051,565292.7999999523,7191,VNB,B,2
3,prac,2,0.0,2-Back,1,m,Wed Aug 06 2025 09:54:46 GMT-0500 (Central Daylight Time),570033.5,020_y_f_n_a.png,O,m,1451,5,1,2325.0,567708.5,7191,VNB,B,3
3,prac,2,1.0,2-Back,0,z,Wed Aug 06 2025 09:54:46 GMT-0500 (Central Daylight Time),572898.0,004_o_m_h_a.png,O,None,2002,6,1,2853.9000000953674,570044.0999999046,7191,VNB,B,4
3,prac,2,1.0,2-Back,0,z,Wed Aug 06 2025 09:54:46 GMT-0500 (Central Daylight Time),574998.0,016_y_m_n_a.png,O,m,1208,7,1,2091.2000000476837,572906.7999999523,7191,VNB,B,5
4,prac,2,0.0,2-Back,1,m,Wed Aug 06 2025 09:54:46 GMT-0500 (Central Daylight Time),577830.2000000477,011_m_f_d_a.png,O,m,1963,8,1,2823.7999999523163,575006.4000000954,7191,VNB,B,6
4,prac,2,0.0,2-Back,0,m,Wed Aug 06 2025 09:54:46 GMT-0500 (Central Daylight Time),579811.7000000477,005_o_f_d_a.png,O,z,1089,9,1,1970.5,577841.2000000477,7191,VNB,B,7
4,prac,2,0.0,2-Back,0,m,Wed Aug 06 2025 09:54:46 GMT-0500 (Central Daylight Time),582528.0,007_m_m_h_a.png,O,z,1926,10,1,2708.2999999523163,579819.7000000477,7191,VNB,B,8
4,prac,2,1.0,2-Back,0,z,Wed Aug 06 2025 09:54:46 GMT-0500 (Central Daylight Time),584411.5999999046,020_y_f_d_a.png,O,m,993,11,1,1875.3999998569489,582536.2000000477,7191,VNB,B,9
5,prac,2,0.0,2-Back,1,m,Wed Aug 06 2025 09:54:46 GMT-0500 (Central Daylight Time),586894.7999999523,004_o_m_n_a.png,O,m,1628,12,1,2474.2000000476837,584420.5999999046,7191,VNB,B,10
0,test,1,0.0,2-Back,,,Wed Aug 06 2025 09:54:46 GMT-0500 (Central Daylight Time),586894.7999999523,016_y_m_h_a.png,O,space,9003,1,1,2474.2000000476837,584420.5999999046,7191,VNB,B,0
0,test,1,0.0,2-Back,,,Wed Aug 06 2025 09:54:46 GMT-0500 (Central Daylight Time),586894.7999999523,005_o_f_n_a.png,O,space,9003,2,1,2474.2000000476837,584420.5999999046,7191,VNB,B,0
1,test,1,0.0,2-Back,1,z,Wed Aug 06 2025 09:54:46 GMT-0500 (Central Daylight Time),620232.7999999523,004_o_m_h_a.png,O,z,1067,3,1,2091.7999999523163,618141.0,7191,VNB,B,1
2,test,1,0.0,2-Back,1,m,Wed Aug 06 2025 09:54:46 GMT-0500 (Central Daylight Time),622614.9000000954,011_m_f_d_a.png,O,m,1353,4,1,2375.600000143051,620239.2999999523,7191,VNB,B,2
3,test,1,1.0,2-Back,1,m,Wed Aug 06 2025 09:54:46 GMT-0500 (Central Daylight Time),625331.7999999523,016_y_m_n_a.png,O,m,1701,5,1,2709.7999999523163,622622.0,7191,VNB,B,3
4,test,1,0.0,2-Back,1,z,Wed Aug 06 2025 09:54:46 GMT-0500 (Central Daylight Time),627580.7999999523,020_y_f_d_a.png,O,z,1231,6,1,2241.7000000476837,625339.0999999046,7191,VNB,B,4
5,test,1,0.0,2-Back,1,m,Wed Aug 06 2025 09:54:46 GMT-0500 (Central Daylight Time),629662.5,007_m_m_h_a.png,O,m,1053,7,1,2075.2000000476837,627587.2999999523,7191,VNB,B,5
5,test,1,1.0,2-Back,0,m,Wed Aug 06 2025 09:54:46 GMT-0500 (Central Daylight Time),632293.0,020_y_f_n_a.png,O,z,1602,8,1,2624.2999999523163,629668.7000000477,7191,VNB,B,6
6,test,1,0.0,2-Back,1,z,Wed Aug 06 2025 09:54:46 GMT-0500 (Central Daylight Time),635094.7000000477,005_o_f_h_a.png,O,z,1770,9,1,2797.2000000476837,632297.5,7191,VNB,B,7
7,test,1,0.0,2-Back,1,m,Wed Aug 06 2025 09:54:46 GMT-0500 (Central Daylight Time),637510.5999999046,004_o_m_d_a.png,O,m,1386,10,1,2409.199999809265,635101.4000000954,7191,VNB,B,8
8,test,1,1.0,2-Back,1,m,Wed Aug 06 2025 09:54:46 GMT-0500 (Central Daylight Time),640475.9000000954,007_m_m_d_a.png,O,m,1939,11,1,2958.300000190735,637517.5999999046,7191,VNB,B,9
8,test,1,0.0,2-Back,0,m,Wed Aug 06 2025 09:54:46 GMT-0500 (Central Daylight Time),643008.5,011_m_f_n_a.png,O,z,1500,12,1,2524.5999999046326,640483.9000000954,7191,VNB,B,10
8,test,1,0.0,2-Back,0,m,Wed Aug 06 2025 09:54:46 GMT-0500 (Central Daylight Time),645971.7000000477,020_y_f_h_a.png,O,z,1935,13,1,2957.5,643014.2000000477,7191,VNB,B,11
8,test,1,0.0,2-Back,0,z,Wed Aug 06 2025 09:54:46 GMT-0500 (Central Daylight Time),648456.5999999046,007_m_m_n_a.png,O,m,1452,14,1,2482.0,645974.5999999046,7191,VNB,B,12
8,test,1,0.0,2-Back,0,m,Wed Aug 06 2025 09:54:46 GMT-0500 (Central Daylight Time),651421.7999999523,016_y_m_d_a.png,O,z,1938,15,1,2955.2000000476837,648466.5999999046,7191,VNB,B,13
9,test,1,1.0,2-Back,1,m,Wed Aug 06 2025 09:54:46 GMT-0500 (Central Daylight Time),654387.0999999046,011_m_f_h_a.png,O,m,1937,16,1,2959.0999999046326,651428.0,7191,VNB,B,14
10,test,1,0.0,2-Back,1,z,Wed Aug 06 2025 09:54:46 GMT-0500 (Central Daylight Time),656688.5,005_o_f_d_a.png,O,z,1279,17,1,2295.0999999046326,654393.4000000954,7191,VNB,B,15
10,test,1,0.0,2-Back,0,m,Wed Aug 06 2025 09:54:46 GMT-0500 (Central Daylight Time),659719.7999999523,004_o_m_n_a.png,O,None,2016,18,1,3024.0,656695.7999999523,7191,VNB,B,16
0,test,2,0.0,2-Back,,,Wed Aug 06 2025 09:54:46 GMT-0500 (Central Daylight Time),659719.7999999523,007_m_m_h_a.png,O,space,6985,1,1,3024.0,656695.7999999523,7191,VNB,B,0
0,test,2,0.0,2-Back,,,Wed Aug 06 2025 09:54:46 GMT-0500 (Central Daylight Time),659719.7999999523,020_y_f_n_a.png,O,space,6985,2,1,3024.0,656695.7999999523,7191,VNB,B,0
1,test,2,1.0,2-Back,1,z,Wed Aug 06 2025 09:54:46 GMT-0500 (Central Daylight Time),674097.7000000477,005_o_f_h_a.png,O,z,1140,3,1,2158.4000000953674,671939.2999999523,7191,VNB,B,1
2,test,2,0.0,2-Back,1,m,Wed Aug 06 2025 09:54:46 GMT-0500 (Central Daylight Time),676915.4000000954,004_o_m_d_a.png,O,m,1799,4,1,2809.9000000953674,674105.5,7191,VNB,B,2
3,test,2,0.0,2-Back,1,m,Wed Aug 06 2025 09:54:46 GMT-0500 (Central Daylight Time),679497.7999999523,011_m_f_d_a.png,O,m,1552,5,1,2574.5999999046326,676923.2000000477,7191,VNB,B,3
3,test,2,0.0,2-Back,0,m,Wed Aug 06 2025 09:54:46 GMT-0500 (Central Daylight Time),682263.0999999046,016_y_m_h_a.png,O,z,1744,6,1,2758.2999999523163,679504.7999999523,7191,VNB,B,4
3,test,2,0.0,2-Back,0,m,Wed Aug 06 2025 09:54:46 GMT-0500 (Central Daylight Time),684812.2999999523,005_o_f_n_a.png,O,z,1523,7,1,2541.5999999046326,682270.7000000477,7191,VNB,B,5
4,test,2,1.0,2-Back,1,z,Wed Aug 06 2025 09:54:46 GMT-0500 (Central Daylight Time),687511.2999999523,004_o_m_h_a.png,O,z,1669,8,1,2688.5999999046326,684822.7000000477,7191,VNB,B,6
5,test,2,0.0,2-Back,1,m,Wed Aug 06 2025 09:54:46 GMT-0500 (Central Daylight Time),689876.2999999523,020_y_f_d_a.png,O,m,1347,9,1,2358.0999999046326,687518.2000000477,7191,VNB,B,7
5,test,2,0.0,2-Back,0,m,Wed Aug 06 2025 09:54:46 GMT-0500 (Central Daylight Time),691976.2000000477,016_y_m_d_a.png,O,z,1076,10,1,2091.100000143051,689885.0999999046,7191,VNB,B,8
5,test,2,0.0,2-Back,0,m,Wed Aug 06 2025 09:54:46 GMT-0500 (Central Daylight Time),695009.9000000954,007_m_m_n_a.png,O,None,2016,11,1,3028.4000000953674,691981.5,7191,VNB,B,9
5,test,2,0.0,2-Back,0,m,Wed Aug 06 2025 09:54:46 GMT-0500 (Central Daylight Time),697740.5999999046,011_m_f_h_a.png,O,z,1714,12,1,2723.199999809265,695017.4000000954,7191,VNB,B,10
6,test,2,1.0,2-Back,1,z,Wed Aug 06 2025 09:54:46 GMT-0500 (Central Daylight Time),700458.5999999046,004_o_m_n_a.png,O,z,1700,13,1,2709.0,697749.5999999046,7191,VNB,B,11
6,test,2,0.0,2-Back,0,m,Wed Aug 06 2025 09:54:46 GMT-0500 (Central Daylight Time),703456.2999999523,005_o_f_d_a.png,O,z,1976,14,1,2989.2999999523163,700467.0,7191,VNB,B,12
7,test,2,0.0,2-Back,1,m,Wed Aug 06 2025 09:54:46 GMT-0500 (Central Daylight Time),705953.7999999523,020_y_f_h_a.png,O,m,1481,15,1,2490.2000000476837,703463.5999999046,7191,VNB,B,13
7,test,2,0.0,2-Back,0,z,Wed Aug 06 2025 09:54:46 GMT-0500 (Central Daylight Time),708803.9000000954,007_m_m_d_a.png,O,m,1822,16,1,2847.600000143051,705956.2999999523,7191,VNB,B,14
8,test,2,0.0,2-Back,1,m,Wed Aug 06 2025 09:54:46 GMT-0500 (Central Daylight Time),710970.0,016_y_m_n_a.png,O,m,1148,17,1,2158.0999999046326,708811.9000000954,7191,VNB,B,15
9,test,2,1.0,2-Back,1,m,Wed Aug 06 2025 09:54:46 GMT-0500 (Central Daylight Time),713652.7000000477,011_m_f_n_a.png,O,m,1657,18,1,2678.100000143051,710974.5999999046,7191,VNB,B,16
0,test,3,1.0,2-Back,,,Wed Aug 06 2025 09:54:46 GMT-0500 (Central Daylight Time),713652.7000000477,004_o_m_n_a.png,O,space,756,1,1,2678.100000143051,710974.5999999046,7191,VNB,B,0
0,test,3,1.0,2-Back,,,Wed Aug 06 2025 09:54:46 GMT-0500 (Central Daylight Time),713652.7000000477,005_o_f_d_a.png,O,space,756,2,1,2678.100000143051,710974.5999999046,7191,VNB,B,0
1,test,3,0.0,2-Back,1,m,Wed Aug 06 2025 09:54:46 GMT-0500 (Central Daylight Time),721633.9000000954,020_y_f_h_a.png,O,m,1141,3,1,2158.100000143051,719475.7999999523,7191,VNB,B,1
2,test,3,0.0,2-Back,1,z,Wed Aug 06 2025 09:54:46 GMT-0500 (Central Daylight Time),723998.5,011_m_f_d_a.png,O,z,1345,4,1,2357.2000000476837,721641.2999999523,7191,VNB,B,2
2,test,3,1.0,2-Back,0,m,Wed Aug 06 2025 09:54:46 GMT-0500 (Central Daylight Time),726465.0999999046,016_y_m_n_a.png,O,z,1432,5,1,2458.0,724007.0999999046,7191,VNB,B,3
3,test,3,0.0,2-Back,1,m,Wed Aug 06 2025 09:54:46 GMT-0500 (Central Daylight Time),729445.2999999523,004_o_m_h_a.png,O,m,1959,6,1,2972.2999999523163,726473.0,7191,VNB,B,4
3,test,3,0.0,2-Back,0,z,Wed Aug 06 2025 09:54:46 GMT-0500 (Central Daylight Time),732263.5,020_y_f_n_a.png,O,m,1794,7,1,2814.7999999523163,729448.7000000477,7191,VNB,B,5
3,test,3,1.0,2-Back,0,m,Wed Aug 06 2025 09:54:46 GMT-0500 (Central Daylight Time),734696.4000000954,007_m_m_d_a.png,O,z,1410,8,1,2425.2000000476837,732271.2000000477,7191,VNB,B,6
4,test,3,0.0,2-Back,1,m,Wed Aug 06 2025 09:54:46 GMT-0500 (Central Daylight Time),737244.7999999523,016_y_m_d_a.png,O,m,1520,9,1,2544.0,734700.7999999523,7191,VNB,B,7
5,test,3,0.0,2-Back,1,m,Wed Aug 06 2025 09:54:46 GMT-0500 (Central Daylight Time),739560.7999999523,005_o_f_h_a.png,O,m,1292,10,1,2308.899999856949,737251.9000000954,7191,VNB,B,8
6,test,3,1.0,2-Back,1,m,Wed Aug 06 2025 09:54:46 GMT-0500 (Central Daylight Time),741811.0,011_m_f_n_a.png,O,m,1223,11,1,2242.4000000953674,739568.5999999046,7191,VNB,B,9
7,test,3,1.0,2-Back,1,z,Wed Aug 06 2025 09:54:46 GMT-0500 (Central Daylight Time),744409.0,007_m_m_h_a.png,O,z,1573,12,1,2592.5999999046326,741816.4000000954,7191,VNB,B,10
8,test,3,0.0,2-Back,1,m,Wed Aug 06 2025 09:54:46 GMT-0500 (Central Daylight Time),746575.7999999523,020_y_f_d_a.png,O,m,1137,13,1,2158.899999856949,744416.9000000954,7191,VNB,B,11
9,test,3,0.0,2-Back,1,m,Wed Aug 06 2025 09:54:46 GMT-0500 (Central Daylight Time),749091.0,005_o_f_n_a.png,O,m,1490,14,1,2508.2999999523163,746582.7000000477,7191,VNB,B,12
10,test,3,0.0,2-Back,1,z,Wed Aug 06 2025 09:54:46 GMT-0500 (Central Daylight Time),751774.0999999046,004_o_m_d_a.png,O,z,1661,15,1,2675.699999809265,749098.4000000954,7191,VNB,B,13
11,test,3,1.0,2-Back,1,m,Wed Aug 06 2025 09:54:46 GMT-0500 (Central Daylight Time),754173.0,011_m_f_h_a.png,O,m,1371,16,1,2393.0999999046326,751779.9000000954,7191,VNB,B,14
12,test,3,0.0,2-Back,1,m,Wed Aug 06 2025 09:54:46 GMT-0500 (Central Daylight Time),756771.7999999523,007_m_m_n_a.png,O,m,1581,17,1,2592.2000000476837,754179.5999999046,7191,VNB,B,15
12,test,3,0.0,2-Back,0,z,Wed Aug 06 2025 09:54:46 GMT-0500 (Central Daylight Time),758956.2999999523,016_y_m_h_a.png,O,m,1168,18,1,2173.7999999523163,756782.5,7191,VNB,B,16
0,test,4,0.0,2-Back,,,Wed Aug 06 2025 09:54:46 GMT-0500 (Central Daylight Time),758956.2999999523,011_m_f_n_a.png,O,space,1021,1,1,2173.7999999523163,756782.5,7191,VNB,B,0
0,test,4,0.0,2-Back,,,Wed Aug 06 2025 09:54:46 GMT-0500 (Central Daylight Time),758956.2999999523,004_o_m_n_a.png,O,space,1021,2,1,2173.7999999523163,756782.5,7191,VNB,B,0
1,test,4,1.0,2-Back,1,m,Wed Aug 06 2025 09:54:46 GMT-0500 (Central Daylight Time),767436.2000000477,016_y_m_h_a.png,O,m,1201,3,1,2209.2000000476837,765227.0,7191,VNB,B,1
2,test,4,1.0,2-Back,1,m,Wed Aug 06 2025 09:54:46 GMT-0500 (Central Daylight Time),770418.7000000477,005_o_f_d_a.png,O,m,1966,4,1,2975.7999999523163,767442.9000000954,7191,VNB,B,2
2,test,4,0.0,2-Back,0,z,Wed Aug 06 2025 09:54:46 GMT-0500 (Central Daylight Time),772833.2000000477,004_o_m_h_a.png,O,m,1382,5,1,2406.7999999523163,770426.4000000954,7191,VNB,B,3
2,test,4,0.0,2-Back,0,m,Wed Aug 06 2025 09:54:46 GMT-0500 (Central Daylight Time),775849.7999999523,007_m_m_n_a.png,O,None,2001,6,1,3009.2999999523163,772840.5,7191,VNB,B,4
2,test,4,0.0,2-Back,0,m,Wed Aug 06 2025 09:54:46 GMT-0500 (Central Daylight Time),778881.0,011_m_f_d_a.png,O,None,2015,7,1,3024.5,775856.5,7191,VNB,B,5
3,test,4,0.0,2-Back,1,z,Wed Aug 06 2025 09:54:46 GMT-0500 (Central Daylight Time),780847.7000000477,020_y_f_n_a.png,O,z,935,8,1,1960.2000000476837,778887.5,7191,VNB,B,6
3,test,4,1.0,2-Back,0,m,Wed Aug 06 2025 09:54:46 GMT-0500 (Central Daylight Time),783680.7000000477,005_o_f_h_a.png,O,z,1800,9,1,2825.2000000476837,780855.5,7191,VNB,B,7
4,test,4,0.0,2-Back,1,m,Wed Aug 06 2025 09:54:46 GMT-0500 (Central Daylight Time),786013.2999999523,007_m_m_h_a.png,O,m,1304,10,1,2324.0999999046326,783689.2000000477,7191,VNB,B,8
4,test,4,0.0,2-Back,0,m,Wed Aug 06 2025 09:54:46 GMT-0500 (Central Daylight Time),788095.0,020_y_f_d_a.png,O,z,1061,11,1,2073.7999999523163,786021.2000000477,7191,VNB,B,9
5,test,4,0.0,2-Back,1,m,Wed Aug 06 2025 09:54:46 GMT-0500 (Central Daylight Time),790327.2999999523,016_y_m_n_a.png,O,m,1210,12,1,2224.899999856949,788102.4000000954,7191,VNB,B,10
6,test,4,0.0,2-Back,1,z,Wed Aug 06 2025 09:54:46 GMT-0500 (Central Daylight Time),792944.4000000954,004_o_m_d_a.png,O,z,1582,13,1,2609.7000000476837,790334.7000000477,7191,VNB,B,11
6,test,4,1.0,2-Back,0,m,Wed Aug 06 2025 09:54:46 GMT-0500 (Central Daylight Time),795692.7999999523,011_m_f_h_a.png,O,z,1727,14,1,2739.7999999523163,792953.0,7191,VNB,B,12
7,test,4,1.0,2-Back,1,m,Wed Aug 06 2025 09:54:46 GMT-0500 (Central Daylight Time),797808.9000000954,020_y_f_h_a.png,O,m,1092,15,1,2107.600000143051,795701.2999999523,7191,VNB,B,13
8,test,4,0.0,2-Back,1,m,Wed Aug 06 2025 09:54:46 GMT-0500 (Central Daylight Time),799875.4000000954,005_o_f_n_a.png,O,m,1040,16,1,2059.300000190735,797816.0999999046,7191,VNB,B,14
8,test,4,0.0,2-Back,0,m,Wed Aug 06 2025 09:54:46 GMT-0500 (Central Daylight Time),802492.2999999523,016_y_m_d_a.png,O,z,1600,17,1,2609.7000000476837,799882.5999999046,7191,VNB,B,15
9,test,4,1.0,2-Back,1,m,Wed Aug 06 2025 09:54:46 GMT-0500 (Central Daylight Time),805291.0,007_m_m_d_a.png,O,m,1774,18,1,2791.2000000476837,802499.7999999523,7191,VNB,B,16
0,test,5,1.0,2-Back,,,Wed Aug 06 2025 09:54:46 GMT-0500 (Central Daylight Time),805291.0,020_y_f_d_a.png,O,space,1182,1,1,2791.2000000476837,802499.7999999523,7191,VNB,B,0
0,test,5,1.0,2-Back,,,Wed Aug 06 2025 09:54:46 GMT-0500 (Central Daylight Time),805291.0,005_o_f_h_a.png,O,space,1182,2,1,2791.2000000476837,802499.7999999523,7191,VNB,B,0
1,test,5,1.0,2-Back,1,z,Wed Aug 06 2025 09:54:46 GMT-0500 (Central Daylight Time),814638.2999999523,004_o_m_d_a.png,O,z,1903,3,1,2926.2000000476837,811712.0999999046,7191,VNB,B,1
2,test,5,1.0,2-Back,1,m,Wed Aug 06 2025 09:54:46 GMT-0500 (Central Daylight Time),816504.0999999046,011_m_f_n_a.png,O,m,835,4,1,1856.0999999046326,814648.0,7191,VNB,B,2
2,test,5,0.0,2-Back,0,m,Wed Aug 06 2025 09:54:46 GMT-0500 (Central Daylight Time),819221.7000000477,007_m_m_h_a.png,O,z,1701,5,1,2711.4000000953674,816510.2999999523,7191,VNB,B,3
2,test,5,0.0,2-Back,0,z,Wed Aug 06 2025 09:54:46 GMT-0500 (Central Daylight Time),822084.5999999046,020_y_f_n_a.png,O,m,1837,6,1,2854.899999856949,819229.7000000477,7191,VNB,B,4
3,test,5,0.0,2-Back,1,m,Wed Aug 06 2025 09:54:46 GMT-0500 (Central Daylight Time),824984.0,005_o_f_d_a.png,O,m,1865,7,1,2890.7000000476837,822093.2999999523,7191,VNB,B,5
3,test,5,0.0,2-Back,0,m,Wed Aug 06 2025 09:54:46 GMT-0500 (Central Daylight Time),827451.7000000477,004_o_m_h_a.png,O,z,1453,8,1,2459.7000000476837,824992.0,7191,VNB,B,6
4,test,5,1.0,2-Back,1,z,Wed Aug 06 2025 09:54:46 GMT-0500 (Central Daylight Time),830048.7000000477,011_m_f_d_a.png,O,z,1578,9,1,2589.0,827459.7000000477,7191,VNB,B,7
5,test,5,0.0,2-Back,1,m,Wed Aug 06 2025 09:54:46 GMT-0500 (Central Daylight Time),832247.5,016_y_m_n_a.png,O,m,1175,10,1,2190.9000000953674,830056.5999999046,7191,VNB,B,8
6,test,5,0.0,2-Back,1,m,Wed Aug 06 2025 09:54:46 GMT-0500 (Central Daylight Time),834630.9000000954,007_m_m_n_a.png,O,m,1354,11,1,2376.7000000476837,832254.2000000477,7191,VNB,B,9
6,test,5,0.0,2-Back,0,m,Wed Aug 06 2025 09:54:46 GMT-0500 (Central Daylight Time),837363.0999999046,020_y_f_h_a.png,O,z,1706,12,1,2725.2999999523163,834637.7999999523,7191,VNB,B,10
6,test,5,0.0,2-Back,0,m,Wed Aug 06 2025 09:54:46 GMT-0500 (Central Daylight Time),839912.2000000477,016_y_m_d_a.png,O,z,1526,13,1,2541.4000000953674,837370.7999999523,7191,VNB,B,11
6,test,5,1.0,2-Back,0,z,Wed Aug 06 2025 09:54:46 GMT-0500 (Central Daylight Time),842910.5,011_m_f_h_a.png,O,m,1975,14,1,2990.7000000476837,839919.7999999523,7191,VNB,B,12
6,test,5,0.0,2-Back,0,m,Wed Aug 06 2025 09:54:46 GMT-0500 (Central Daylight Time),845827.2999999523,004_o_m_n_a.png,O,z,1891,15,1,2910.5,842916.7999999523,7191,VNB,B,13
7,test,5,0.0,2-Back,1,m,Wed Aug 06 2025 09:54:46 GMT-0500 (Central Daylight Time),848060.9000000954,007_m_m_d_a.png,O,m,1217,16,1,2225.600000143051,845835.2999999523,7191,VNB,B,14
7,test,5,0.0,2-Back,0,z,Wed Aug 06 2025 09:54:46 GMT-0500 (Central Daylight Time),850291.5999999046,005_o_f_n_a.png,O,m,1204,17,1,2223.0,848068.5999999046,7191,VNB,B,15
7,test,5,1.0,2-Back,0,m,Wed Aug 06 2025 09:54:46 GMT-0500 (Central Daylight Time),852874.7999999523,016_y_m_h_a.png,O,z,1557,18,1,2574.2999999523163,850300.5,7191,VNB,B,16
