acc_sum,block,block_c,change,condition,correct,correct_response,datetime,endtime,face,project,response,response_time,row_sel,session_number,start_end,starttime,subject_id,task,task_vers,trial
0,prac,1,,1-Back,,,Tue Sep 30 2025 10:16:32 GMT-0500 (Central Daylight Time),,097_m_f_n_a.png,O,space,4448,1,1,,,7220,NNB,B,0
1,prac,1,0.0,1-Back,1.0,m,Tue Sep 30 2025 10:16:32 GMT-0500 (Central Daylight Time),104668.89999997616,152_y_f_n_a.png,O,m,1612,2,1,2440.399999976158,102228.5,7220,NNB,B,1
2,prac,1,1.0,1-Back,1.0,z,Tue Sep 30 2025 10:16:32 GMT-0500 (Central Daylight Time),106351.19999998808,152_y_f_n_a.png,O,z,899,3,1,1671.8999999761581,104679.30000001192,7220,NNB,B,2
3,prac,1,0.0,1-Back,1.0,m,Tue Sep 30 2025 10:16:32 GMT-0500 (Central Daylight Time),107817.59999996424,176_o_m_n_a.png,O,m,605,4,1,1457.0999999642372,106360.5,7220,NNB,B,3
4,prac,1,0.0,1-Back,1.0,m,Tue Sep 30 2025 10:16:32 GMT-0500 (Central Daylight Time),109449.39999997616,126_m_m_n_a.png,O,m,843,5,1,1623.800000011921,107825.59999996424,7220,NNB,B,4
5,prac,1,1.0,1-Back,1.0,z,Tue Sep 30 2025 10:16:32 GMT-0500 (Central Daylight Time),110949.89999997616,126_m_m_n_a.png,O,z,723,6,1,1494.5999999642372,109455.30000001192,7220,NNB,B,5
6,prac,1,0.0,1-Back,1.0,m,Tue Sep 30 2025 10:16:32 GMT-0500 (Central Daylight Time),112351.80000001192,086_o_f_n_a.png,O,m,625,7,1,1390.9000000357628,110960.89999997616,7220,NNB,B,6
7,prac,1,0.0,1-Back,1.0,m,Tue Sep 30 2025 10:16:32 GMT-0500 (Central Daylight Time),114015.69999998808,178_m_m_n_a.png,O,m,802,8,1,1651.300000011921,112364.39999997616,7220,NNB,B,7
8,prac,1,0.0,1-Back,1.0,m,Tue Sep 30 2025 10:16:32 GMT-0500 (Central Daylight Time),115414.80000001192,097_m_f_n_a.png,O,m,609,9,1,1389.7000000476837,114025.09999996424,7220,NNB,B,8
9,prac,1,1.0,1-Back,1.0,z,Tue Sep 30 2025 10:16:32 GMT-0500 (Central Daylight Time),116848.39999997616,097_m_f_n_a.png,O,z,643,10,1,1425.5999999642372,115422.80000001192,7220,NNB,B,9
10,prac,1,0.0,1-Back,1.0,m,Tue Sep 30 2025 10:16:32 GMT-0500 (Central Daylight Time),118262.09999996424,176_o_m_n_a.png,O,m,632,11,1,1405.5,116856.59999996424,7220,NNB,B,10
11,prac,1,0.0,1-Back,1.0,m,Tue Sep 30 2025 10:16:32 GMT-0500 (Central Daylight Time),120061.30000001192,173_y_f_n_a.png,O,m,950,12,1,1788.0,118273.30000001192,7220,NNB,B,11
0,test,1,0.0,1-Back,,,Tue Sep 30 2025 10:16:32 GMT-0500 (Central Daylight Time),120061.30000001192,152_y_f_n_a.png,O,space,6258,1,1,1788.0,118273.30000001192,7220,NNB,B,0
1,test,1,0.0,1-Back,1.0,m,Tue Sep 30 2025 10:16:32 GMT-0500 (Central Daylight Time),134426.09999996424,029_m_f_n_a.png,O,m,709,2,1,1723.8999999761581,132702.19999998808,7220,NNB,B,1
2,test,1,0.0,1-Back,1.0,m,Tue Sep 30 2025 10:16:32 GMT-0500 (Central Daylight Time),136724.19999998808,173_y_f_n_a.png,O,m,1270,3,1,2291.399999976158,134432.80000001192,7220,NNB,B,2
3,test,1,1.0,1-Back,1.0,z,Tue Sep 30 2025 10:16:32 GMT-0500 (Central Daylight Time),138258.59999996424,173_y_f_n_a.png,O,z,510,4,1,1531.3999999761581,136727.19999998808,7220,NNB,B,3
4,test,1,0.0,1-Back,1.0,m,Tue Sep 30 2025 10:16:32 GMT-0500 (Central Daylight Time),139840.09999996424,029_m_f_n_a.png,O,m,552,5,1,1574.5999999642372,138265.5,7220,NNB,B,4
5,test,1,0.0,1-Back,1.0,m,Tue Sep 30 2025 10:16:32 GMT-0500 (Central Daylight Time),141457.5,176_o_m_n_a.png,O,m,594,6,1,1610.699999988079,139846.80000001192,7220,NNB,B,5
6,test,1,1.0,1-Back,1.0,z,Tue Sep 30 2025 10:16:32 GMT-0500 (Central Daylight Time),143059.39999997616,176_o_m_n_a.png,O,z,580,7,1,1595.0,141464.39999997616,7220,NNB,B,6
7,test,1,0.0,1-Back,1.0,m,Tue Sep 30 2025 10:16:32 GMT-0500 (Central Daylight Time),144922.69999998808,126_m_m_n_a.png,O,m,841,8,1,1856.800000011921,143065.89999997616,7220,NNB,B,7
8,test,1,0.0,1-Back,1.0,m,Tue Sep 30 2025 10:16:32 GMT-0500 (Central Daylight Time),146721.59999996424,086_o_f_n_a.png,O,m,777,9,1,1792.199999988079,144929.39999997616,7220,NNB,B,8
9,test,1,0.0,1-Back,1.0,m,Tue Sep 30 2025 10:16:32 GMT-0500 (Central Daylight Time),148254.0,126_m_m_n_a.png,O,m,502,10,1,1526.800000011921,146727.19999998808,7220,NNB,B,9
10,test,1,0.0,1-Back,1.0,m,Tue Sep 30 2025 10:16:32 GMT-0500 (Central Daylight Time),149804.0,153_y_m_n_a.png,O,m,533,11,1,1542.6000000238419,148261.39999997616,7220,NNB,B,10
11,test,1,1.0,1-Back,1.0,z,Tue Sep 30 2025 10:16:32 GMT-0500 (Central Daylight Time),151319.89999997616,153_y_m_n_a.png,O,z,489,12,1,1509.5999999642372,149810.30000001192,7220,NNB,B,11
12,test,1,0.0,1-Back,1.0,m,Tue Sep 30 2025 10:16:32 GMT-0500 (Central Daylight Time),153053.59999996424,110_o_f_n_a.png,O,m,714,13,1,1725.7999999523163,151327.80000001192,7220,NNB,B,12
13,test,1,1.0,1-Back,1.0,z,Tue Sep 30 2025 10:16:32 GMT-0500 (Central Daylight Time),155203.59999996424,110_o_f_n_a.png,O,z,1116,14,1,2143.699999988079,153059.89999997616,7220,NNB,B,13
14,test,1,0.0,1-Back,1.0,m,Tue Sep 30 2025 10:16:32 GMT-0500 (Central Daylight Time),157468.59999996424,013_y_m_n_a.png,O,m,1233,15,1,2261.0,155207.59999996424,7220,NNB,B,14
15,test,1,0.0,1-Back,1.0,m,Tue Sep 30 2025 10:16:32 GMT-0500 (Central Daylight Time),159167.39999997616,097_m_f_n_a.png,O,m,667,16,1,1692.5999999642372,157474.80000001192,7220,NNB,B,15
16,test,1,0.0,1-Back,1.0,m,Tue Sep 30 2025 10:16:32 GMT-0500 (Central Daylight Time),160850.09999996424,065_o_m_n_a.png,O,m,649,17,1,1675.199999988079,159174.89999997616,7220,NNB,B,16
17,test,1,0.0,1-Back,1.0,m,Tue Sep 30 2025 10:16:32 GMT-0500 (Central Daylight Time),162866.09999996424,097_m_f_n_a.png,O,m,991,18,1,2009.5999999642372,160856.5,7220,NNB,B,17
0,test,2,0.0,1-Back,,,Tue Sep 30 2025 10:16:32 GMT-0500 (Central Daylight Time),162866.09999996424,126_m_m_n_a.png,O,space,1503,1,1,2009.5999999642372,160856.5,7220,NNB,B,0
1,test,2,0.0,1-Back,1.0,m,Tue Sep 30 2025 10:16:32 GMT-0500 (Central Daylight Time),168513.19999998808,029_m_f_n_a.png,O,m,1090,2,1,2107.0,166406.19999998808,7220,NNB,B,1
1,test,2,1.0,1-Back,0.0,z,Tue Sep 30 2025 10:16:32 GMT-0500 (Central Daylight Time),170298.59999996424,029_m_f_n_a.png,O,m,768,3,1,1782.0,168516.59999996424,7220,NNB,B,2
2,test,2,0.0,1-Back,1.0,m,Tue Sep 30 2025 10:16:32 GMT-0500 (Central Daylight Time),172829.19999998808,126_m_m_n_a.png,O,m,1513,4,1,2523.300000011921,170305.89999997616,7220,NNB,B,3
3,test,2,0.0,1-Back,1.0,m,Tue Sep 30 2025 10:16:32 GMT-0500 (Central Daylight Time),174562.80000001192,153_y_m_n_a.png,O,m,700,5,1,1729.300000011921,172833.5,7220,NNB,B,4
4,test,2,0.0,1-Back,1.0,m,Tue Sep 30 2025 10:16:32 GMT-0500 (Central Daylight Time),176163.09999996424,152_y_f_n_a.png,O,m,582,6,1,1591.0,174572.09999996424,7220,NNB,B,5
5,test,2,1.0,1-Back,1.0,z,Tue Sep 30 2025 10:16:32 GMT-0500 (Central Daylight Time),177644.5,152_y_f_n_a.png,O,z,463,7,1,1473.199999988079,176171.30000001192,7220,NNB,B,6
6,test,2,0.0,1-Back,1.0,m,Tue Sep 30 2025 10:16:32 GMT-0500 (Central Daylight Time),179478.0,153_y_m_n_a.png,O,m,805,8,1,1829.6000000238419,177648.39999997616,7220,NNB,B,7
7,test,2,0.0,1-Back,1.0,m,Tue Sep 30 2025 10:16:32 GMT-0500 (Central Daylight Time),181077.0,110_o_f_n_a.png,O,m,572,9,1,1592.800000011921,179484.19999998808,7220,NNB,B,8
8,test,2,0.0,1-Back,1.0,m,Tue Sep 30 2025 10:16:32 GMT-0500 (Central Daylight Time),182643.89999997616,178_m_m_n_a.png,O,m,541,10,1,1558.699999988079,181085.19999998808,7220,NNB,B,9
9,test,2,1.0,1-Back,1.0,z,Tue Sep 30 2025 10:16:32 GMT-0500 (Central Daylight Time),184409.09999996424,178_m_m_n_a.png,O,z,742,11,1,1757.0999999642372,182652.0,7220,NNB,B,10
10,test,2,0.0,1-Back,1.0,m,Tue Sep 30 2025 10:16:32 GMT-0500 (Central Daylight Time),186292.59999996424,110_o_f_n_a.png,O,m,857,12,1,1874.5999999642372,184418.0,7220,NNB,B,11
11,test,2,0.0,1-Back,1.0,m,Tue Sep 30 2025 10:16:32 GMT-0500 (Central Daylight Time),188157.80000001192,086_o_f_n_a.png,O,m,837,13,1,1858.4000000357628,186299.39999997616,7220,NNB,B,12
12,test,2,0.0,1-Back,1.0,m,Tue Sep 30 2025 10:16:32 GMT-0500 (Central Daylight Time),189857.19999998808,176_o_m_n_a.png,O,m,668,14,1,1692.300000011921,188164.89999997616,7220,NNB,B,13
13,test,2,0.0,1-Back,1.0,m,Tue Sep 30 2025 10:16:32 GMT-0500 (Central Daylight Time),191406.69999998808,065_o_m_n_a.png,O,m,521,15,1,1542.1000000238419,189864.59999996424,7220,NNB,B,14
14,test,2,1.0,1-Back,1.0,z,Tue Sep 30 2025 10:16:32 GMT-0500 (Central Daylight Time),192873.19999998808,065_o_m_n_a.png,O,z,443,16,1,1459.3999999761581,191413.80000001192,7220,NNB,B,15
15,test,2,0.0,1-Back,1.0,m,Tue Sep 30 2025 10:16:32 GMT-0500 (Central Daylight Time),194539.30000001192,013_y_m_n_a.png,O,m,640,17,1,1657.5,192881.80000001192,7220,NNB,B,16
16,test,2,1.0,1-Back,1.0,z,Tue Sep 30 2025 10:16:32 GMT-0500 (Central Daylight Time),196588.09999996424,013_y_m_n_a.png,O,z,1022,18,1,2040.0,194548.09999996424,7220,NNB,B,17
0,test,3,1.0,1-Back,,,Tue Sep 30 2025 10:16:32 GMT-0500 (Central Daylight Time),196588.09999996424,173_y_f_n_a.png,O,space,1325,1,1,2040.0,194548.09999996424,7220,NNB,B,0
1,test,3,0.0,1-Back,1.0,m,Tue Sep 30 2025 10:16:32 GMT-0500 (Central Daylight Time),201571.69999998808,065_o_m_n_a.png,O,m,519,1,1,1543.6000000238419,200028.09999996424,7220,NNB,B,1
2,test,3,1.0,1-Back,1.0,z,Tue Sep 30 2025 10:16:32 GMT-0500 (Central Daylight Time),203102.39999997616,065_o_m_n_a.png,O,z,503,1,1,1523.8999999761581,201578.5,7220,NNB,B,2
3,test,3,0.0,1-Back,1.0,m,Tue Sep 30 2025 10:16:32 GMT-0500 (Central Daylight Time),204886.0,097_m_f_n_a.png,O,m,752,1,1,1776.5,203109.5,7220,NNB,B,3
3,test,3,1.0,1-Back,0.0,z,Tue Sep 30 2025 10:16:32 GMT-0500 (Central Daylight Time),206336.30000001192,097_m_f_n_a.png,O,m,428,1,1,1442.9000000357628,204893.39999997616,7220,NNB,B,4
4,test,3,0.0,1-Back,1.0,m,Tue Sep 30 2025 10:16:32 GMT-0500 (Central Daylight Time),208067.69999998808,110_o_f_n_a.png,O,m,707,1,1,1725.1000000238419,206342.59999996424,7220,NNB,B,5
5,test,3,0.0,1-Back,1.0,m,Tue Sep 30 2025 10:16:32 GMT-0500 (Central Daylight Time),210084.80000001192,153_y_m_n_a.png,O,m,983,1,1,2008.9000000357628,208075.89999997616,7220,NNB,B,6
6,test,3,0.0,1-Back,1.0,m,Tue Sep 30 2025 10:16:32 GMT-0500 (Central Daylight Time),211901.0,110_o_f_n_a.png,O,m,783,1,1,1808.199999988079,210092.80000001192,7220,NNB,B,7
7,test,3,0.0,1-Back,1.0,m,Tue Sep 30 2025 10:16:32 GMT-0500 (Central Daylight Time),213717.19999998808,013_y_m_n_a.png,O,m,791,1,1,1809.5,211907.69999998808,7220,NNB,B,8
8,test,3,1.0,1-Back,1.0,z,Tue Sep 30 2025 10:16:32 GMT-0500 (Central Daylight Time),215166.89999997616,013_y_m_n_a.png,O,z,421,1,1,1441.8999999761581,213725.0,7220,NNB,B,9
9,test,3,0.0,1-Back,1.0,m,Tue Sep 30 2025 10:16:32 GMT-0500 (Central Daylight Time),217248.30000001192,029_m_f_n_a.png,O,m,1050,1,1,2074.0,215174.30000001192,7220,NNB,B,10
10,test,3,0.0,1-Back,1.0,m,Tue Sep 30 2025 10:16:32 GMT-0500 (Central Daylight Time),218798.89999997616,152_y_f_n_a.png,O,m,530,1,1,1544.300000011921,217254.59999996424,7220,NNB,B,11
10,test,3,1.0,1-Back,0.0,z,Tue Sep 30 2025 10:16:32 GMT-0500 (Central Daylight Time),220298.39999997616,152_y_f_n_a.png,O,m,468,1,1,1491.3999999761581,218807.0,7220,NNB,B,12
11,test,3,0.0,1-Back,1.0,m,Tue Sep 30 2025 10:16:32 GMT-0500 (Central Daylight Time),222016.30000001192,029_m_f_n_a.png,O,m,702,1,1,1711.2000000476837,220305.09999996424,7220,NNB,B,13
12,test,3,0.0,1-Back,1.0,m,Tue Sep 30 2025 10:16:32 GMT-0500 (Central Daylight Time),224196.0,126_m_m_n_a.png,O,m,1156,1,1,2170.900000035763,222025.09999996424,7220,NNB,B,14
13,test,3,1.0,1-Back,1.0,z,Tue Sep 30 2025 10:16:32 GMT-0500 (Central Daylight Time),225746.80000001192,126_m_m_n_a.png,O,z,517,1,1,1546.9000000357628,224199.89999997616,7220,NNB,B,15
14,test,3,0.0,1-Back,1.0,m,Tue Sep 30 2025 10:16:32 GMT-0500 (Central Daylight Time),227563.30000001192,086_o_f_n_a.png,O,m,786,1,1,1810.5,225752.80000001192,7220,NNB,B,16
15,test,3,1.0,1-Back,1.0,z,Tue Sep 30 2025 10:16:32 GMT-0500 (Central Daylight Time),229378.80000001192,086_o_f_n_a.png,O,z,792,1,1,1808.300000011921,227570.5,7220,NNB,B,17
0,test,4,1.0,1-Back,,,Tue Sep 30 2025 10:16:32 GMT-0500 (Central Daylight Time),229378.80000001192,097_m_f_n_a.png,O,space,1066,1,1,1808.300000011921,227570.5,7220,NNB,B,0
1,test,4,0.0,1-Back,1.0,m,Tue Sep 30 2025 10:16:32 GMT-0500 (Central Daylight Time),234261.69999998808,065_o_m_n_a.png,O,m,686,2,1,1707.1000000238419,232554.59999996424,7220,NNB,B,1
2,test,4,0.0,1-Back,1.0,m,Tue Sep 30 2025 10:16:32 GMT-0500 (Central Daylight Time),236210.39999997616,097_m_f_n_a.png,O,m,918,3,1,1940.3999999761581,234270.0,7220,NNB,B,2
3,test,4,0.0,1-Back,1.0,m,Tue Sep 30 2025 10:16:32 GMT-0500 (Central Daylight Time),237893.59999996424,110_o_f_n_a.png,O,m,651,4,1,1677.199999988079,236216.39999997616,7220,NNB,B,3
4,test,4,1.0,1-Back,1.0,z,Tue Sep 30 2025 10:16:32 GMT-0500 (Central Daylight Time),239641.09999996424,110_o_f_n_a.png,O,z,718,5,1,1741.5999999642372,237899.5,7220,NNB,B,4
5,test,4,0.0,1-Back,1.0,m,Tue Sep 30 2025 10:16:32 GMT-0500 (Central Daylight Time),241391.5,152_y_f_n_a.png,O,m,727,6,1,1743.6000000238419,239647.89999997616,7220,NNB,B,5
6,test,4,0.0,1-Back,1.0,m,Tue Sep 30 2025 10:16:32 GMT-0500 (Central Daylight Time),242975.09999996424,153_y_m_n_a.png,O,m,566,7,1,1578.699999988079,241396.39999997616,7220,NNB,B,6
7,test,4,1.0,1-Back,1.0,z,Tue Sep 30 2025 10:16:32 GMT-0500 (Central Daylight Time),244627.59999996424,153_y_m_n_a.png,O,z,634,8,1,1645.8999999761581,242981.69999998808,7220,NNB,B,7
8,test,4,0.0,1-Back,1.0,m,Tue Sep 30 2025 10:16:32 GMT-0500 (Central Daylight Time),246290.39999997616,152_y_f_n_a.png,O,m,635,9,1,1654.199999988079,244636.19999998808,7220,NNB,B,8
9,test,4,0.0,1-Back,1.0,m,Tue Sep 30 2025 10:16:32 GMT-0500 (Central Daylight Time),247855.19999998808,178_m_m_n_a.png,O,m,542,10,1,1558.8999999761581,246296.30000001192,7220,NNB,B,9
10,test,4,1.0,1-Back,1.0,z,Tue Sep 30 2025 10:16:32 GMT-0500 (Central Daylight Time),249438.09999996424,178_m_m_n_a.png,O,z,555,11,1,1575.5,247862.59999996424,7220,NNB,B,10
11,test,4,0.0,1-Back,1.0,m,Tue Sep 30 2025 10:16:32 GMT-0500 (Central Daylight Time),251239.19999998808,086_o_f_n_a.png,O,m,773,12,1,1794.699999988079,249444.5,7220,NNB,B,11
12,test,4,0.0,1-Back,1.0,m,Tue Sep 30 2025 10:16:32 GMT-0500 (Central Daylight Time),252805.69999998808,176_o_m_n_a.png,O,m,541,13,1,1560.300000011921,251245.39999997616,7220,NNB,B,12
13,test,4,0.0,1-Back,1.0,m,Tue Sep 30 2025 10:16:32 GMT-0500 (Central Daylight Time),254771.19999998808,086_o_f_n_a.png,O,m,944,14,1,1956.699999988079,252814.5,7220,NNB,B,13
14,test,4,0.0,1-Back,1.0,m,Tue Sep 30 2025 10:16:32 GMT-0500 (Central Daylight Time),256938.5,173_y_f_n_a.png,O,m,1151,15,1,2161.800000011921,254776.69999998808,7220,NNB,B,14
15,test,4,1.0,1-Back,1.0,z,Tue Sep 30 2025 10:16:32 GMT-0500 (Central Daylight Time),258535.59999996424,173_y_f_n_a.png,O,z,570,16,1,1592.0999999642372,256943.5,7220,NNB,B,15
16,test,4,0.0,1-Back,1.0,m,Tue Sep 30 2025 10:16:32 GMT-0500 (Central Daylight Time),260235.5,029_m_f_n_a.png,O,m,669,17,1,1694.199999988079,258541.30000001192,7220,NNB,B,16
17,test,4,1.0,1-Back,1.0,z,Tue Sep 30 2025 10:16:32 GMT-0500 (Central Daylight Time),261836.19999998808,029_m_f_n_a.png,O,z,568,18,1,1593.6000000238419,260242.59999996424,7220,NNB,B,17
0,test,5,1.0,1-Back,,,Tue Sep 30 2025 10:16:32 GMT-0500 (Central Daylight Time),261836.19999998808,176_o_m_n_a.png,O,space,1078,1,1,1593.6000000238419,260242.59999996424,7220,NNB,B,0
1,test,5,1.0,1-Back,1.0,z,Tue Sep 30 2025 10:16:32 GMT-0500 (Central Daylight Time),267066.39999997616,176_o_m_n_a.png,O,z,1111,2,1,2125.800000011921,264940.59999996424,7220,NNB,B,1
2,test,5,0.0,1-Back,1.0,m,Tue Sep 30 2025 10:16:32 GMT-0500 (Central Daylight Time),269548.5,152_y_f_n_a.png,O,m,1456,3,1,2475.800000011921,267072.6999999881,7220,NNB,B,2
3,test,5,0.0,1-Back,1.0,m,Tue Sep 30 2025 10:16:32 GMT-0500 (Central Daylight Time),271498.6999999881,153_y_m_n_a.png,O,m,926,4,1,1946.3999999761581,269552.3000000119,7220,NNB,B,3
4,test,5,0.0,1-Back,1.0,m,Tue Sep 30 2025 10:16:32 GMT-0500 (Central Daylight Time),273064.89999997616,152_y_f_n_a.png,O,m,534,5,1,1559.800000011921,271505.09999996424,7220,NNB,B,4
5,test,5,0.0,1-Back,1.0,m,Tue Sep 30 2025 10:16:32 GMT-0500 (Central Daylight Time),274631.1999999881,126_m_m_n_a.png,O,m,545,6,1,1559.800000011921,273071.39999997616,7220,NNB,B,5
6,test,5,1.0,1-Back,1.0,z,Tue Sep 30 2025 10:16:32 GMT-0500 (Central Daylight Time),276164.8000000119,126_m_m_n_a.png,O,z,500,7,1,1526.800000011921,274638.0,7220,NNB,B,6
7,test,5,0.0,1-Back,1.0,m,Tue Sep 30 2025 10:16:32 GMT-0500 (Central Daylight Time),277830.39999997616,173_y_f_n_a.png,O,m,637,8,1,1659.699999988079,276170.6999999881,7220,NNB,B,7
8,test,5,0.0,1-Back,1.0,m,Tue Sep 30 2025 10:16:32 GMT-0500 (Central Daylight Time),279546.3000000119,013_y_m_n_a.png,O,m,683,9,1,1708.4000000357628,277837.89999997616,7220,NNB,B,8
9,test,5,0.0,1-Back,1.0,m,Tue Sep 30 2025 10:16:32 GMT-0500 (Central Daylight Time),281261.6999999881,173_y_f_n_a.png,O,m,695,10,1,1708.0,279553.6999999881,7220,NNB,B,9
10,test,5,0.0,1-Back,1.0,m,Tue Sep 30 2025 10:16:32 GMT-0500 (Central Daylight Time),283012.1999999881,086_o_f_n_a.png,O,m,725,11,1,1745.1000000238419,281267.09999996424,7220,NNB,B,10
11,test,5,1.0,1-Back,1.0,z,Tue Sep 30 2025 10:16:32 GMT-0500 (Central Daylight Time),284861.09999996424,086_o_f_n_a.png,O,z,834,12,1,1843.5999999642372,283017.5,7220,NNB,B,11
12,test,5,0.0,1-Back,1.0,m,Tue Sep 30 2025 10:16:32 GMT-0500 (Central Daylight Time),286644.59999996424,065_o_m_n_a.png,O,m,758,13,1,1776.699999988079,284867.89999997616,7220,NNB,B,12
13,test,5,0.0,1-Back,1.0,m,Tue Sep 30 2025 10:16:32 GMT-0500 (Central Daylight Time),288261.09999996424,097_m_f_n_a.png,O,m,584,14,1,1609.5999999642372,286651.5,7220,NNB,B,13
14,test,5,1.0,1-Back,1.0,z,Tue Sep 30 2025 10:16:32 GMT-0500 (Central Daylight Time),290076.5,097_m_f_n_a.png,O,z,784,15,1,1808.6000000238419,288267.89999997616,7220,NNB,B,14
15,test,5,0.0,1-Back,1.0,m,Tue Sep 30 2025 10:16:32 GMT-0500 (Central Daylight Time),291808.09999996424,065_o_m_n_a.png,O,m,710,16,1,1725.2999999523163,290082.8000000119,7220,NNB,B,15
16,test,5,0.0,1-Back,1.0,m,Tue Sep 30 2025 10:16:32 GMT-0500 (Central Daylight Time),294091.1999999881,029_m_f_n_a.png,O,m,1255,17,1,2276.399999976158,291814.8000000119,7220,NNB,B,16
17,test,5,0.0,1-Back,1.0,m,Tue Sep 30 2025 10:16:32 GMT-0500 (Central Daylight Time),295674.39999997616,178_m_m_n_a.png,O,m,550,18,1,1576.0999999642372,294098.3000000119,7220,NNB,B,17
0,prac,1,0.0,2-Back,,,Tue Sep 30 2025 10:16:32 GMT-0500 (Central Daylight Time),295674.39999997616,013_y_m_n_a.png,O,space,2639,1,1,1576.0999999642372,294098.3000000119,7220,NNB,B,0
0,prac,1,0.0,2-Back,,,Tue Sep 30 2025 10:16:32 GMT-0500 (Central Daylight Time),295674.39999997616,029_m_f_n_a.png,O,space,2639,2,1,1576.0999999642372,294098.3000000119,7220,NNB,B,0
1,prac,1,1.0,2-Back,1.0,m,Tue Sep 30 2025 10:16:32 GMT-0500 (Central Daylight Time),389378.89999997616,065_o_m_n_a.png,O,m,1542,3,1,2375.699999988079,387003.1999999881,7220,NNB,B,1
1,prac,1,0.0,2-Back,0.0,m,Tue Sep 30 2025 10:16:32 GMT-0500 (Central Daylight Time),392227.8000000119,086_o_f_n_a.png,O,None,2006,4,1,2839.600000023842,389388.1999999881,7220,NNB,B,2
1,prac,1,0.0,2-Back,0.0,z,Tue Sep 30 2025 10:16:32 GMT-0500 (Central Daylight Time),394259.1999999881,065_o_m_n_a.png,O,m,1243,5,1,2020.3999999761581,392238.8000000119,7220,NNB,B,3
2,prac,1,1.0,2-Back,1.0,z,Tue Sep 30 2025 10:16:32 GMT-0500 (Central Daylight Time),396309.5,086_o_f_n_a.png,O,z,1265,6,1,2043.300000011921,394266.1999999881,7220,NNB,B,4
3,prac,1,0.0,2-Back,1.0,m,Tue Sep 30 2025 10:16:32 GMT-0500 (Central Daylight Time),398794.3000000119,178_m_m_n_a.png,O,m,1650,7,1,2476.2000000476837,396318.09999996424,7220,NNB,B,5
4,prac,1,0.0,2-Back,1.0,m,Tue Sep 30 2025 10:16:32 GMT-0500 (Central Daylight Time),400910.0,176_o_m_n_a.png,O,m,1267,8,1,2107.900000035763,398802.09999996424,7220,NNB,B,6
5,prac,1,0.0,2-Back,1.0,m,Tue Sep 30 2025 10:16:32 GMT-0500 (Central Daylight Time),402739.09999996424,173_y_f_n_a.png,O,m,977,9,1,1819.7999999523163,400919.3000000119,7220,NNB,B,7
6,prac,1,1.0,2-Back,1.0,z,Tue Sep 30 2025 10:16:32 GMT-0500 (Central Daylight Time),404639.59999996424,176_o_m_n_a.png,O,z,1110,10,1,1891.7999999523163,402747.8000000119,7220,NNB,B,8
7,prac,1,0.0,2-Back,1.0,m,Tue Sep 30 2025 10:16:32 GMT-0500 (Central Daylight Time),406907.59999996424,152_y_f_n_a.png,O,m,1416,11,1,2257.599999964237,404650.0,7220,NNB,B,9
7,prac,1,0.0,2-Back,0.0,m,Tue Sep 30 2025 10:16:32 GMT-0500 (Central Daylight Time),409690.59999996424,178_m_m_n_a.png,O,None,2006,12,1,2776.199999988079,406914.39999997616,7220,NNB,B,10
0,test,1,0.0,2-Back,,,Tue Sep 30 2025 10:16:32 GMT-0500 (Central Daylight Time),409690.59999996424,153_y_m_n_a.png,O,space,3877,1,1,2776.199999988079,406914.39999997616,7220,NNB,B,0
0,test,1,0.0,2-Back,,,Tue Sep 30 2025 10:16:32 GMT-0500 (Central Daylight Time),409690.59999996424,153_y_m_n_a.png,O,space,3877,2,1,2776.199999988079,406914.39999997616,7220,NNB,B,0
1,test,1,0.0,2-Back,1.0,m,Tue Sep 30 2025 10:16:32 GMT-0500 (Central Daylight Time),426633.3000000119,086_o_f_n_a.png,O,m,1553,3,1,2572.800000011921,424060.5,7220,NNB,B,1
2,test,1,0.0,2-Back,1.0,m,Tue Sep 30 2025 10:16:32 GMT-0500 (Central Daylight Time),428531.5,126_m_m_n_a.png,O,m,869,4,1,1889.9000000357628,426641.59999996424,7220,NNB,B,2
3,test,1,1.0,2-Back,1.0,z,Tue Sep 30 2025 10:16:32 GMT-0500 (Central Daylight Time),430347.09999996424,086_o_f_n_a.png,O,z,785,5,1,1806.699999988079,428540.39999997616,7220,NNB,B,3
4,test,1,0.0,2-Back,1.0,m,Tue Sep 30 2025 10:16:32 GMT-0500 (Central Daylight Time),432481.5,152_y_f_n_a.png,O,m,1102,6,1,2126.0,430355.5,7220,NNB,B,4
4,test,1,0.0,2-Back,0.0,m,Tue Sep 30 2025 10:16:32 GMT-0500 (Central Daylight Time),435512.6999999881,126_m_m_n_a.png,O,None,2016,7,1,3025.300000011921,432487.39999997616,7220,NNB,B,5
5,test,1,1.0,2-Back,1.0,z,Tue Sep 30 2025 10:16:32 GMT-0500 (Central Daylight Time),437412.8000000119,152_y_f_n_a.png,O,z,874,8,1,1892.7000000476837,435520.09999996424,7220,NNB,B,6
6,test,1,0.0,2-Back,1.0,m,Tue Sep 30 2025 10:16:32 GMT-0500 (Central Daylight Time),439431.5,013_y_m_n_a.png,O,m,1002,9,1,2012.4000000357628,437419.09999996424,7220,NNB,B,7
7,test,1,0.0,2-Back,1.0,m,Tue Sep 30 2025 10:16:32 GMT-0500 (Central Daylight Time),441294.5,110_o_f_n_a.png,O,m,847,10,1,1854.1000000238419,439440.39999997616,7220,NNB,B,8
8,test,1,1.0,2-Back,1.0,z,Tue Sep 30 2025 10:16:32 GMT-0500 (Central Daylight Time),443326.5,013_y_m_n_a.png,O,z,1011,11,1,2027.699999988079,441298.8000000119,7220,NNB,B,9
9,test,1,0.0,2-Back,1.0,m,Tue Sep 30 2025 10:16:32 GMT-0500 (Central Daylight Time),445659.6999999881,029_m_f_n_a.png,O,m,1300,12,1,2324.5,443335.1999999881,7220,NNB,B,10
9,test,1,0.0,2-Back,0.0,m,Tue Sep 30 2025 10:16:32 GMT-0500 (Central Daylight Time),448692.1999999881,029_m_f_n_a.png,O,None,2016,13,1,3025.800000011921,445666.39999997616,7220,NNB,B,11
9,test,1,0.0,2-Back,0.0,m,Tue Sep 30 2025 10:16:32 GMT-0500 (Central Daylight Time),451724.89999997616,065_o_m_n_a.png,O,None,2017,14,1,3025.0,448699.89999997616,7220,NNB,B,12
10,test,1,0.0,2-Back,1.0,m,Tue Sep 30 2025 10:16:32 GMT-0500 (Central Daylight Time),453890.09999996424,110_o_f_n_a.png,O,m,1141,15,1,2158.899999976158,451731.1999999881,7220,NNB,B,13
11,test,1,1.0,2-Back,1.0,z,Tue Sep 30 2025 10:16:32 GMT-0500 (Central Daylight Time),455689.5,065_o_m_n_a.png,O,z,767,16,1,1792.6000000238419,453896.89999997616,7220,NNB,B,14
12,test,1,0.0,2-Back,1.0,m,Tue Sep 30 2025 10:16:32 GMT-0500 (Central Daylight Time),457374.1999999881,097_m_f_n_a.png,O,m,666,17,1,1678.8999999761581,455695.3000000119,7220,NNB,B,15
13,test,1,0.0,2-Back,1.0,m,Tue Sep 30 2025 10:16:32 GMT-0500 (Central Daylight Time),459222.59999996424,178_m_m_n_a.png,O,m,828,18,1,1841.199999988079,457381.39999997616,7220,NNB,B,16
0,test,2,0.0,2-Back,,,Tue Sep 30 2025 10:16:32 GMT-0500 (Central Daylight Time),459222.59999996424,178_m_m_n_a.png,O,space,1356,1,1,1841.199999988079,457381.39999997616,7220,NNB,B,0
0,test,2,0.0,2-Back,,,Tue Sep 30 2025 10:16:32 GMT-0500 (Central Daylight Time),459222.59999996424,173_y_f_n_a.png,O,space,1356,2,1,1841.199999988079,457381.39999997616,7220,NNB,B,0
1,test,2,1.0,2-Back,1.0,z,Tue Sep 30 2025 10:16:32 GMT-0500 (Central Daylight Time),467286.8000000119,178_m_m_n_a.png,O,z,556,3,1,1578.5,465708.3000000119,7220,NNB,B,1
2,test,2,0.0,2-Back,1.0,m,Tue Sep 30 2025 10:16:32 GMT-0500 (Central Daylight Time),469201.1999999881,097_m_f_n_a.png,O,m,884,4,1,1905.3999999761581,467295.8000000119,7220,NNB,B,2
3,test,2,0.0,2-Back,1.0,m,Tue Sep 30 2025 10:16:32 GMT-0500 (Central Daylight Time),471068.89999997616,173_y_f_n_a.png,O,m,833,5,1,1861.0,469207.89999997616,7220,NNB,B,3
4,test,2,0.0,2-Back,1.0,m,Tue Sep 30 2025 10:16:32 GMT-0500 (Central Daylight Time),473034.5,065_o_m_n_a.png,O,m,941,6,1,1958.9000000357628,471075.59999996424,7220,NNB,B,4
5,test,2,0.0,2-Back,1.0,m,Tue Sep 30 2025 10:16:32 GMT-0500 (Central Daylight Time),474833.09999996424,152_y_f_n_a.png,O,m,776,7,1,1793.0999999642372,473040.0,7220,NNB,B,5
6,test,2,1.0,2-Back,1.0,z,Tue Sep 30 2025 10:16:32 GMT-0500 (Central Daylight Time),476432.5,065_o_m_n_a.png,O,z,567,8,1,1589.699999988079,474842.8000000119,7220,NNB,B,6
7,test,2,0.0,2-Back,1.0,m,Tue Sep 30 2025 10:16:32 GMT-0500 (Central Daylight Time),478319.09999996424,013_y_m_n_a.png,O,m,870,9,1,1881.0999999642372,476438.0,7220,NNB,B,7
8,test,2,0.0,2-Back,1.0,m,Tue Sep 30 2025 10:16:32 GMT-0500 (Central Daylight Time),480420.59999996424,013_y_m_n_a.png,O,m,1078,10,1,2098.699999988079,478321.89999997616,7220,NNB,B,8
9,test,2,0.0,2-Back,1.0,m,Tue Sep 30 2025 10:16:32 GMT-0500 (Central Daylight Time),483214.39999997616,029_m_f_n_a.png,O,m,1770,11,1,2791.199999988079,480423.1999999881,7220,NNB,B,9
10,test,2,0.0,2-Back,1.0,m,Tue Sep 30 2025 10:16:32 GMT-0500 (Central Daylight Time),485515.1999999881,173_y_f_n_a.png,O,m,1267,12,1,2295.100000023842,483220.09999996424,7220,NNB,B,10
11,test,2,1.0,2-Back,1.0,z,Tue Sep 30 2025 10:16:32 GMT-0500 (Central Daylight Time),487480.6999999881,029_m_f_n_a.png,O,z,944,13,1,1958.5,485522.1999999881,7220,NNB,B,11
12,test,2,0.0,2-Back,1.0,m,Tue Sep 30 2025 10:16:32 GMT-0500 (Central Daylight Time),489295.39999997616,176_o_m_n_a.png,O,m,792,14,1,1808.3999999761581,487487.0,7220,NNB,B,12
13,test,2,0.0,2-Back,1.0,m,Tue Sep 30 2025 10:16:32 GMT-0500 (Central Daylight Time),491715.1999999881,176_o_m_n_a.png,O,m,1394,15,1,2411.600000023842,489303.59999996424,7220,NNB,B,13
14,test,2,0.0,2-Back,1.0,m,Tue Sep 30 2025 10:16:32 GMT-0500 (Central Daylight Time),494729.0,110_o_f_n_a.png,O,m,1990,16,1,3010.900000035763,491718.09999996424,7220,NNB,B,14
15,test,2,0.0,2-Back,1.0,m,Tue Sep 30 2025 10:16:32 GMT-0500 (Central Daylight Time),496676.59999996424,126_m_m_n_a.png,O,m,918,17,1,1944.199999988079,494732.39999997616,7220,NNB,B,15
16,test,2,1.0,2-Back,1.0,z,Tue Sep 30 2025 10:16:32 GMT-0500 (Central Daylight Time),498392.6999999881,110_o_f_n_a.png,O,z,684,18,1,1709.6000000238419,496683.09999996424,7220,NNB,B,16
0,test,3,1.0,2-Back,,,Tue Sep 30 2025 10:16:32 GMT-0500 (Central Daylight Time),498392.6999999881,153_y_m_n_a.png,O,space,1323,1,1,1709.6000000238419,496683.09999996424,7220,NNB,B,0
0,test,3,1.0,2-Back,,,Tue Sep 30 2025 10:16:32 GMT-0500 (Central Daylight Time),498392.6999999881,153_y_m_n_a.png,O,space,1323,2,1,1709.6000000238419,496683.09999996424,7220,NNB,B,0
1,test,3,0.0,2-Back,1.0,m,Tue Sep 30 2025 10:16:32 GMT-0500 (Central Daylight Time),506690.3000000119,110_o_f_n_a.png,O,m,825,3,1,1840.9000000357628,504849.39999997616,7220,NNB,B,1
2,test,3,0.0,2-Back,1.0,m,Tue Sep 30 2025 10:16:32 GMT-0500 (Central Daylight Time),508573.89999997616,178_m_m_n_a.png,O,m,850,4,1,1877.5,506696.39999997616,7220,NNB,B,2
3,test,3,1.0,2-Back,1.0,z,Tue Sep 30 2025 10:16:32 GMT-0500 (Central Daylight Time),510206.0,110_o_f_n_a.png,O,z,617,5,1,1624.5,508581.5,7220,NNB,B,3
4,test,3,0.0,2-Back,1.0,m,Tue Sep 30 2025 10:16:32 GMT-0500 (Central Daylight Time),512172.0,013_y_m_n_a.png,O,m,934,6,1,1959.9000000357628,510212.09999996424,7220,NNB,B,4
4,test,3,0.0,2-Back,0.0,m,Tue Sep 30 2025 10:16:32 GMT-0500 (Central Daylight Time),513986.89999997616,178_m_m_n_a.png,O,z,781,7,1,1807.800000011921,512179.09999996424,7220,NNB,B,5
5,test,3,1.0,2-Back,1.0,z,Tue Sep 30 2025 10:16:32 GMT-0500 (Central Daylight Time),516086.8000000119,013_y_m_n_a.png,O,z,1071,8,1,2095.900000035763,513990.89999997616,7220,NNB,B,6
5,test,3,0.0,2-Back,0.0,m,Tue Sep 30 2025 10:16:32 GMT-0500 (Central Daylight Time),517553.5,173_y_f_n_a.png,O,z,434,9,1,1460.6000000238419,516092.89999997616,7220,NNB,B,7
6,test,3,0.0,2-Back,1.0,m,Tue Sep 30 2025 10:16:32 GMT-0500 (Central Daylight Time),519353.1999999881,126_m_m_n_a.png,O,m,777,10,1,1793.699999988079,517559.5,7220,NNB,B,8
7,test,3,1.0,2-Back,1.0,z,Tue Sep 30 2025 10:16:32 GMT-0500 (Central Daylight Time),521268.39999997616,173_y_f_n_a.png,O,z,890,11,1,1909.199999988079,519359.1999999881,7220,NNB,B,9
8,test,3,1.0,2-Back,1.0,z,Tue Sep 30 2025 10:16:32 GMT-0500 (Central Daylight Time),523537.6999999881,126_m_m_n_a.png,O,z,1238,12,1,2263.5,521274.1999999881,7220,NNB,B,10
9,test,3,0.0,2-Back,1.0,m,Tue Sep 30 2025 10:16:32 GMT-0500 (Central Daylight Time),525400.1999999881,110_o_f_n_a.png,O,m,843,13,1,1856.0,523544.1999999881,7220,NNB,B,11
10,test,3,0.0,2-Back,1.0,m,Tue Sep 30 2025 10:16:32 GMT-0500 (Central Daylight Time),527849.1999999881,097_m_f_n_a.png,O,m,1426,14,1,2444.800000011921,525404.3999999762,7220,NNB,B,12
11,test,3,0.0,2-Back,1.0,m,Tue Sep 30 2025 10:16:32 GMT-0500 (Central Daylight Time),529815.8000000119,065_o_m_n_a.png,O,m,944,15,1,1959.800000011921,527856.0,7220,NNB,B,13
12,test,3,1.0,2-Back,1.0,z,Tue Sep 30 2025 10:16:32 GMT-0500 (Central Daylight Time),531582.6999999881,097_m_f_n_a.png,O,z,734,16,1,1760.6000000238419,529822.0999999642,7220,NNB,B,14
13,test,3,0.0,2-Back,1.0,m,Tue Sep 30 2025 10:16:32 GMT-0500 (Central Daylight Time),533731.5999999642,086_o_f_n_a.png,O,m,1116,17,1,2143.099999964237,531588.5,7220,NNB,B,15
14,test,3,0.0,2-Back,1.0,m,Tue Sep 30 2025 10:16:32 GMT-0500 (Central Daylight Time),535746.8000000119,086_o_f_n_a.png,O,m,990,18,1,2011.7000000476837,533735.0999999642,7220,NNB,B,16
0,test,4,0.0,2-Back,,,Tue Sep 30 2025 10:16:32 GMT-0500 (Central Daylight Time),535746.8000000119,176_o_m_n_a.png,O,space,1023,1,1,2011.7000000476837,533735.0999999642,7220,NNB,B,0
0,test,4,0.0,2-Back,,,Tue Sep 30 2025 10:16:32 GMT-0500 (Central Daylight Time),535746.8000000119,152_y_f_n_a.png,O,space,1023,2,1,2011.7000000476837,533735.0999999642,7220,NNB,B,0
1,test,4,1.0,2-Back,1.0,z,Tue Sep 30 2025 10:16:32 GMT-0500 (Central Daylight Time),543695.5,176_o_m_n_a.png,O,z,712,3,1,1726.9000000357628,541968.5999999642,7220,NNB,B,1
2,test,4,1.0,2-Back,1.0,z,Tue Sep 30 2025 10:16:32 GMT-0500 (Central Daylight Time),545477.3999999762,152_y_f_n_a.png,O,z,764,4,1,1777.5999999642372,543699.8000000119,7220,NNB,B,2
3,test,4,0.0,2-Back,1.0,m,Tue Sep 30 2025 10:16:32 GMT-0500 (Central Daylight Time),547226.8000000119,110_o_f_n_a.png,O,m,718,5,1,1742.6000000238419,545484.1999999881,7220,NNB,B,3
4,test,4,0.0,2-Back,1.0,m,Tue Sep 30 2025 10:16:32 GMT-0500 (Central Daylight Time),549509.8000000119,110_o_f_n_a.png,O,m,1265,6,1,2275.400000035763,547234.3999999762,7220,NNB,B,4
5,test,4,0.0,2-Back,1.0,m,Tue Sep 30 2025 10:16:32 GMT-0500 (Central Daylight Time),552326.0,029_m_f_n_a.png,O,m,1788,7,1,2808.100000023842,549517.8999999762,7220,NNB,B,5
6,test,4,0.0,2-Back,1.0,m,Tue Sep 30 2025 10:16:32 GMT-0500 (Central Daylight Time),554274.5,013_y_m_n_a.png,O,m,926,8,1,1940.699999988079,552333.8000000119,7220,NNB,B,6
7,test,4,1.0,2-Back,1.0,z,Tue Sep 30 2025 10:16:32 GMT-0500 (Central Daylight Time),555990.3000000119,029_m_f_n_a.png,O,z,687,9,1,1709.4000000357628,554280.8999999762,7220,NNB,B,7
8,test,4,0.0,2-Back,1.0,m,Tue Sep 30 2025 10:16:32 GMT-0500 (Central Daylight Time),557606.6999999881,126_m_m_n_a.png,O,m,595,10,1,1610.199999988079,555996.5,7220,NNB,B,8
9,test,4,0.0,2-Back,1.0,m,Tue Sep 30 2025 10:16:32 GMT-0500 (Central Daylight Time),559590.0,013_y_m_n_a.png,O,m,964,11,1,1977.6000000238419,557612.3999999762,7220,NNB,B,9
10,test,4,0.0,2-Back,1.0,m,Tue Sep 30 2025 10:16:32 GMT-0500 (Central Daylight Time),561605.8000000119,086_o_f_n_a.png,O,m,999,12,1,2011.2000000476837,559594.5999999642,7220,NNB,B,10
11,test,4,0.0,2-Back,1.0,m,Tue Sep 30 2025 10:16:32 GMT-0500 (Central Daylight Time),563422.3999999762,153_y_m_n_a.png,O,m,789,13,1,1811.199999988079,561611.1999999881,7220,NNB,B,11
12,test,4,1.0,2-Back,1.0,z,Tue Sep 30 2025 10:16:32 GMT-0500 (Central Daylight Time),566287.0,086_o_f_n_a.png,O,z,1845,14,1,2857.0,563430.0,7220,NNB,B,12
13,test,4,1.0,2-Back,1.0,z,Tue Sep 30 2025 10:16:32 GMT-0500 (Central Daylight Time),568619.8000000119,153_y_m_n_a.png,O,z,1307,15,1,2324.800000011921,566295.0,7220,NNB,B,13
14,test,4,0.0,2-Back,1.0,m,Tue Sep 30 2025 10:16:32 GMT-0500 (Central Daylight Time),570270.3000000119,178_m_m_n_a.png,O,m,630,16,1,1642.4000000357628,568627.8999999762,7220,NNB,B,14
15,test,4,0.0,2-Back,1.0,m,Tue Sep 30 2025 10:16:32 GMT-0500 (Central Daylight Time),572035.3999999762,097_m_f_n_a.png,O,m,738,17,1,1756.800000011921,570278.5999999642,7220,NNB,B,15
16,test,4,1.0,2-Back,1.0,z,Tue Sep 30 2025 10:16:32 GMT-0500 (Central Daylight Time),573835.3999999762,178_m_m_n_a.png,O,z,772,18,1,1795.699999988079,572039.6999999881,7220,NNB,B,16
0,test,5,1.0,2-Back,,,Tue Sep 30 2025 10:16:32 GMT-0500 (Central Daylight Time),573835.3999999762,153_y_m_n_a.png,O,space,1054,1,1,1795.699999988079,572039.6999999881,7220,NNB,B,0
0,test,5,1.0,2-Back,,,Tue Sep 30 2025 10:16:32 GMT-0500 (Central Daylight Time),573835.3999999762,097_m_f_n_a.png,O,space,1054,2,1,1795.699999988079,572039.6999999881,7220,NNB,B,0
1,test,5,1.0,2-Back,1.0,z,Tue Sep 30 2025 10:16:32 GMT-0500 (Central Daylight Time),581416.5999999642,153_y_m_n_a.png,O,z,446,3,1,1458.5,579958.0999999642,7220,NNB,B,1
2,test,5,1.0,2-Back,1.0,z,Tue Sep 30 2025 10:16:32 GMT-0500 (Central Daylight Time),583231.5999999642,097_m_f_n_a.png,O,z,793,4,1,1809.2999999523163,581422.3000000119,7220,NNB,B,2
3,test,5,0.0,2-Back,1.0,m,Tue Sep 30 2025 10:16:32 GMT-0500 (Central Daylight Time),585031.3000000119,086_o_f_n_a.png,O,m,779,5,1,1796.0,583235.3000000119,7220,NNB,B,3
3,test,5,0.0,2-Back,0.0,m,Tue Sep 30 2025 10:16:32 GMT-0500 (Central Daylight Time),588064.3999999762,153_y_m_n_a.png,O,None,2016,6,1,3026.199999988079,585038.1999999881,7220,NNB,B,4
4,test,5,0.0,2-Back,1.0,m,Tue Sep 30 2025 10:16:32 GMT-0500 (Central Daylight Time),589796.3999999762,173_y_f_n_a.png,O,m,706,7,1,1725.5,588070.8999999762,7220,NNB,B,5
5,test,5,0.0,2-Back,1.0,m,Tue Sep 30 2025 10:16:32 GMT-0500 (Central Daylight Time),591896.1999999881,086_o_f_n_a.png,O,m,1078,8,1,2091.899999976158,589804.3000000119,7220,NNB,B,6
6,test,5,1.0,2-Back,1.0,z,Tue Sep 30 2025 10:16:32 GMT-0500 (Central Daylight Time),594094.6999999881,173_y_f_n_a.png,O,z,1176,9,1,2193.699999988079,591901.0,7220,NNB,B,7
7,test,5,0.0,2-Back,1.0,m,Tue Sep 30 2025 10:16:32 GMT-0500 (Central Daylight Time),596077.5999999642,065_o_m_n_a.png,O,m,954,10,1,1976.0,594101.5999999642,7220,NNB,B,8
8,test,5,0.0,2-Back,1.0,m,Tue Sep 30 2025 10:16:32 GMT-0500 (Central Daylight Time),597996.8999999762,029_m_f_n_a.png,O,m,885,11,1,1912.5999999642372,596084.3000000119,7220,NNB,B,9
9,test,5,0.0,2-Back,1.0,m,Tue Sep 30 2025 10:16:32 GMT-0500 (Central Daylight Time),599659.8999999762,126_m_m_n_a.png,O,m,647,12,1,1660.300000011921,597999.5999999642,7220,NNB,B,10
10,test,5,0.0,2-Back,1.0,m,Tue Sep 30 2025 10:16:32 GMT-0500 (Central Daylight Time),601494.0,065_o_m_n_a.png,O,m,800,13,1,1829.199999988079,599664.8000000119,7220,NNB,B,11
11,test,5,1.0,2-Back,1.0,z,Tue Sep 30 2025 10:16:32 GMT-0500 (Central Daylight Time),603042.3999999762,126_m_m_n_a.png,O,z,516,14,1,1543.300000011921,601499.0999999642,7220,NNB,B,12
12,test,5,0.0,2-Back,1.0,m,Tue Sep 30 2025 10:16:32 GMT-0500 (Central Daylight Time),605127.5,152_y_f_n_a.png,O,m,1067,15,1,2078.900000035763,603048.5999999642,7220,NNB,B,13
13,test,5,0.0,2-Back,1.0,m,Tue Sep 30 2025 10:16:32 GMT-0500 (Central Daylight Time),607191.8000000119,176_o_m_n_a.png,O,m,1036,16,1,2056.400000035763,605135.3999999762,7220,NNB,B,14
14,test,5,0.0,2-Back,1.0,m,Tue Sep 30 2025 10:16:32 GMT-0500 (Central Daylight Time),608975.1999999881,029_m_f_n_a.png,O,m,763,17,1,1777.6000000238419,607197.5999999642,7220,NNB,B,15
14,test,5,1.0,2-Back,0.0,z,Tue Sep 30 2025 10:16:32 GMT-0500 (Central Daylight Time),610790.5999999642,176_o_m_n_a.png,O,m,787,18,1,1808.199999988079,608982.3999999762,7220,NNB,B,16
