block_c,block_dur,condition,countdown,datetime,endtime,list,multichar_response,project,response,response_time,session_number,start_end,starttime,subject_id,task,task_vers,trial
,,,,Wed Jun 24 2026 10:35:14 GMT-0500 (Central Daylight Time),,,,I,space,1917,3,,,8078,WL,B,
prac,,0,,Wed Jun 24 2026 10:35:14 GMT-0500 (Central Daylight Time),,NA,b,I,b,2716,3,,,8078,WL,B,1.0
prac,,0,,Wed Jun 24 2026 10:35:14 GMT-0500 (Central Daylight Time),,NA,bo,I,o,602,3,,,8078,WL,B,1.0
prac,,0,,Wed Jun 24 2026 10:35:14 GMT-0500 (Central Daylight Time),,NA,boo,I,o,211,3,,,8078,WL,B,1.0
prac,,0,,Wed Jun 24 2026 10:35:14 GMT-0500 (Central Daylight Time),,NA,boos,I,s,394,3,,,8078,WL,B,1.0
prac,,0,,Wed Jun 24 2026 10:35:14 GMT-0500 (Central Daylight Time),,NA,boost,I,t,324,3,,,8078,WL,B,1.0
prac,,0,,Wed Jun 24 2026 10:35:14 GMT-0500 (Central Daylight Time),,NA,boostenter,I,enter,351,3,,,8078,WL,B,1.0
1,0.8339998722076416,learn,59166.00012779236,Wed Jun 24 2026 10:35:14 GMT-0500 (Central Daylight Time),110839.69999998808,A,s,I,s,814,3,833.5,110006.19999998808,8078,WL,B,1.0
1,1.116999864578247,learn,58883.00013542175,Wed Jun 24 2026 10:35:14 GMT-0500 (Central Daylight Time),111122.40000000596,A,st,I,t,274,3,1116.2000000178814,110006.19999998808,8078,WL,B,1.0
1,1.6670000553131104,learn,58332.99994468689,Wed Jun 24 2026 10:35:14 GMT-0500 (Central Daylight Time),111672.19999998808,A,str,I,r,529,3,1666.0,110006.19999998808,8078,WL,B,1.0
1,2.065999984741211,learn,57934.00001525879,Wed Jun 24 2026 10:35:14 GMT-0500 (Central Daylight Time),112072.0,A,stre,I,e,387,3,2065.800000011921,110006.19999998808,8078,WL,B,1.0
1,2.6499998569488525,learn,57350.00014305115,Wed Jun 24 2026 10:35:14 GMT-0500 (Central Daylight Time),112655.09999999404,A,stree,I,e,562,3,2648.9000000059605,110006.19999998808,8078,WL,B,1.0
1,2.9679999351501465,learn,57032.00006484985,Wed Jun 24 2026 10:35:14 GMT-0500 (Central Daylight Time),112973.09999999404,A,street,I,t,309,3,2966.9000000059605,110006.19999998808,8078,WL,B,1.0
1,4.316999912261963,learn,55683.00008773804,Wed Jun 24 2026 10:35:14 GMT-0500 (Central Daylight Time),114322.69999998808,A,streetd,I,d,1334,3,4316.5,110006.19999998808,8078,WL,B,1.0
1,4.533999919891357,learn,55466.00008010864,Wed Jun 24 2026 10:35:14 GMT-0500 (Central Daylight Time),114539.09999999404,A,streetdo,I,o,208,3,4532.9000000059605,110006.19999998808,8078,WL,B,1.0
1,5.115999937057495,learn,54884.000062942505,Wed Jun 24 2026 10:35:14 GMT-0500 (Central Daylight Time),115121.19999998808,A,streetd,I,backspace,576,3,5115.0,110006.19999998808,8078,WL,B,1.0
1,5.33299994468689,learn,54667.00005531311,Wed Jun 24 2026 10:35:14 GMT-0500 (Central Daylight Time),115338.19999998808,A,street,I,backspace,203,3,5332.0,110006.19999998808,8078,WL,B,1.0
1,5.598999977111816,learn,54401.00002288818,Wed Jun 24 2026 10:35:14 GMT-0500 (Central Daylight Time),115604.59999999404,A,stree,I,backspace,250,3,5598.4000000059605,110006.19999998808,8078,WL,B,1.0
1,6.98199987411499,learn,53018.00012588501,Wed Jun 24 2026 10:35:14 GMT-0500 (Central Daylight Time),116987.19999998808,A,street,I,t,1375,3,6981.0,110006.19999998808,8078,WL,B,1.0
1,7.815000057220459,learn,52184.99994277954,Wed Jun 24 2026 10:35:14 GMT-0500 (Central Daylight Time),117820.09999999404,A,streetd,I,d,817,3,7813.9000000059605,110006.19999998808,8078,WL,B,1.0
1,7.980999946594238,learn,52019.00005340576,Wed Jun 24 2026 10:35:14 GMT-0500 (Central Daylight Time),117986.69999998808,A,streetdo,I,o,151,3,7980.5,110006.19999998808,8078,WL,B,1.0
1,8.148000001907349,learn,51851.99999809265,Wed Jun 24 2026 10:35:14 GMT-0500 (Central Daylight Time),118153.80000001192,A,streetdoo,I,o,160,3,8147.600000023842,110006.19999998808,8078,WL,B,1.0
1,8.447999954223633,learn,51552.00004577637,Wed Jun 24 2026 10:35:14 GMT-0500 (Central Daylight Time),118454.19999998808,A,streetdoor,I,r,289,3,8448.0,110006.19999998808,8078,WL,B,1.0
1,14.095999956130981,learn,45904.00004386902,Wed Jun 24 2026 10:35:14 GMT-0500 (Central Daylight Time),124101.59999999404,A,streetdoo,I,backspace,5631,3,14095.40000000596,110006.19999998808,8078,WL,B,1.0
1,14.296000003814697,learn,45703.9999961853,Wed Jun 24 2026 10:35:14 GMT-0500 (Central Daylight Time),124302.0,A,streetdo,I,backspace,191,3,14295.800000011921,110006.19999998808,8078,WL,B,1.0
1,14.478999853134155,learn,45521.000146865845,Wed Jun 24 2026 10:35:14 GMT-0500 (Central Daylight Time),124485.0,A,streetd,I,backspace,174,3,14478.800000011921,110006.19999998808,8078,WL,B,1.0
1,14.678999900817871,learn,45321.00009918213,Wed Jun 24 2026 10:35:14 GMT-0500 (Central Daylight Time),124684.80000001192,A,street,I,backspace,184,3,14678.600000023842,110006.19999998808,8078,WL,B,1.0
1,17.161999940872192,learn,42838.00005912781,Wed Jun 24 2026 10:35:14 GMT-0500 (Central Daylight Time),127167.59999999404,A,streetenter,I,enter,2464,3,17161.40000000596,110006.19999998808,8078,WL,B,1.0
1,18.89400005340576,learn,41105.99994659424,Wed Jun 24 2026 10:35:14 GMT-0500 (Central Daylight Time),128900.40000000596,A,d,I,d,1716,3,1732.300000011921,127168.09999999404,8078,WL,B,2.0
1,19.128000020980835,learn,40871.999979019165,Wed Jun 24 2026 10:35:14 GMT-0500 (Central Daylight Time),129133.59999999404,A,do,I,o,215,3,1965.5,127168.09999999404,8078,WL,B,2.0
1,19.24399995803833,learn,40756.00004196167,Wed Jun 24 2026 10:35:14 GMT-0500 (Central Daylight Time),129250.19999998808,A,doo,I,o,103,3,2082.0999999940395,127168.09999999404,8078,WL,B,2.0
1,19.66100001335144,learn,40338.99998664856,Wed Jun 24 2026 10:35:14 GMT-0500 (Central Daylight Time),129666.90000000596,A,door,I,r,403,3,2498.800000011921,127168.09999999404,8078,WL,B,2.0
1,20.01099991798401,learn,39989.00008201599,Wed Jun 24 2026 10:35:14 GMT-0500 (Central Daylight Time),130017.40000000596,A,doorenter,I,enter,338,3,2849.300000011921,127168.09999999404,8078,WL,B,2.0
1,20.526999950408936,learn,39473.000049591064,Wed Jun 24 2026 10:35:14 GMT-0500 (Central Daylight Time),130533.09999999404,A,s,I,s,497,3,515.5,130017.59999999404,8078,WL,B,3.0
1,20.777999877929688,learn,39222.00012207031,Wed Jun 24 2026 10:35:14 GMT-0500 (Central Daylight Time),130784.0,A,st,I,t,231,3,766.4000000059605,130017.59999999404,8078,WL,B,3.0
1,21.177000045776367,learn,38822.99995422363,Wed Jun 24 2026 10:35:14 GMT-0500 (Central Daylight Time),131182.80000001192,A,sta,I,a,389,3,1165.2000000178814,130017.59999999404,8078,WL,B,3.0
1,21.376999855041504,learn,38623.000144958496,Wed Jun 24 2026 10:35:14 GMT-0500 (Central Daylight Time),131382.90000000596,A,star,I,r,190,3,1365.300000011921,130017.59999999404,8078,WL,B,3.0
1,21.97699999809265,learn,38023.00000190735,Wed Jun 24 2026 10:35:14 GMT-0500 (Central Daylight Time),131982.59999999404,A,starenter,I,enter,590,3,1965.0,130017.59999999404,8078,WL,B,3.0
1,22.694000005722046,learn,37305.999994277954,Wed Jun 24 2026 10:35:14 GMT-0500 (Central Daylight Time),132700.0,A,b,I,b,709,3,716.9000000059605,131983.09999999404,8078,WL,B,4.0
1,22.90999984741211,learn,37090.00015258789,Wed Jun 24 2026 10:35:14 GMT-0500 (Central Daylight Time),132915.69999998808,A,be,I,e,209,3,932.5999999940395,131983.09999999404,8078,WL,B,4.0
1,23.292999982833862,learn,36707.00001716614,Wed Jun 24 2026 10:35:14 GMT-0500 (Central Daylight Time),133298.80000001192,A,bel,I,l,368,3,1315.7000000178814,131983.09999999404,8078,WL,B,4.0
1,23.47699999809265,learn,36523.00000190735,Wed Jun 24 2026 10:35:14 GMT-0500 (Central Daylight Time),133483.19999998808,A,bell,I,l,169,3,1500.0999999940395,131983.09999999404,8078,WL,B,4.0
1,24.05900001525879,learn,35940.99998474121,Wed Jun 24 2026 10:35:14 GMT-0500 (Central Daylight Time),134065.30000001192,A,bellenter,I,enter,577,3,2082.2000000178814,131983.09999999404,8078,WL,B,4.0
1,24.358999967575073,learn,35641.00003242493,Wed Jun 24 2026 10:35:14 GMT-0500 (Central Daylight Time),134365.0,A,w,I,w,283,3,299.5,134065.5,8078,WL,B,5.0
1,24.858999967575073,learn,35141.00003242493,Wed Jun 24 2026 10:35:14 GMT-0500 (Central Daylight Time),134865.30000001192,A,wo,I,o,495,3,799.8000000119209,134065.5,8078,WL,B,5.0
1,25.158999919891357,learn,34841.00008010864,Wed Jun 24 2026 10:35:14 GMT-0500 (Central Daylight Time),135165.09999999404,A,wof,I,f,291,3,1099.5999999940395,134065.5,8078,WL,B,5.0
1,25.875,learn,34125.0,Wed Jun 24 2026 10:35:14 GMT-0500 (Central Daylight Time),135881.5,A,wofe,I,e,704,3,1816.0,134065.5,8078,WL,B,5.0
1,26.509000062942505,learn,33490.999937057495,Wed Jun 24 2026 10:35:14 GMT-0500 (Central Daylight Time),136514.69999998808,A,wof,I,backspace,620,3,2449.199999988079,134065.5,8078,WL,B,5.0
1,27.191999912261963,learn,32808.00008773804,Wed Jun 24 2026 10:35:14 GMT-0500 (Central Daylight Time),137197.80000001192,A,wofe,I,e,665,3,3132.300000011921,134065.5,8078,WL,B,5.0
1,27.45799994468689,learn,32542.00005531311,Wed Jun 24 2026 10:35:14 GMT-0500 (Central Daylight Time),137464.40000000596,A,wofeenter,I,enter,246,3,3398.9000000059605,134065.5,8078,WL,B,5.0
1,28.79099988937378,learn,31209.00011062622,Wed Jun 24 2026 10:35:14 GMT-0500 (Central Daylight Time),138797.09999999404,A,w,I,w,1317,3,1332.4000000059605,137464.69999998808,8078,WL,B,6.0
1,28.95799994468689,learn,31042.00005531311,Wed Jun 24 2026 10:35:14 GMT-0500 (Central Daylight Time),138963.80000001192,A,wi,I,i,159,3,1499.1000000238419,137464.69999998808,8078,WL,B,6.0
1,29.174000024795532,learn,30825.999975204468,Wed Jun 24 2026 10:35:14 GMT-0500 (Central Daylight Time),139180.40000000596,A,win,I,n,210,3,1715.7000000178814,137464.69999998808,8078,WL,B,6.0
1,29.457000017166138,learn,30542.999982833862,Wed Jun 24 2026 10:35:14 GMT-0500 (Central Daylight Time),139463.40000000596,A,wind,I,d,264,3,1998.7000000178814,137464.69999998808,8078,WL,B,6.0
1,29.657999992370605,learn,30342.000007629395,Wed Jun 24 2026 10:35:14 GMT-0500 (Central Daylight Time),139663.80000001192,A,windo,I,o,190,3,2199.100000023842,137464.69999998808,8078,WL,B,6.0
1,30.141000032424927,learn,29858.999967575073,Wed Jun 24 2026 10:35:14 GMT-0500 (Central Daylight Time),140146.80000001192,A,window,I,w,469,3,2682.100000023842,137464.69999998808,8078,WL,B,6.0
1,30.60699987411499,learn,29393.00012588501,Wed Jun 24 2026 10:35:14 GMT-0500 (Central Daylight Time),140613.30000001192,A,windowenter,I,enter,458,3,3148.600000023842,137464.69999998808,8078,WL,B,6.0
1,31.306999921798706,learn,28693.000078201294,Wed Jun 24 2026 10:35:14 GMT-0500 (Central Daylight Time),141313.19999998808,A,g,I,g,688,3,699.6999999880791,140613.5,8078,WL,B,7.0
1,31.60699987411499,learn,28393.00012588501,Wed Jun 24 2026 10:35:14 GMT-0500 (Central Daylight Time),141612.80000001192,A,gr,I,r,283,3,999.3000000119209,140613.5,8078,WL,B,7.0
1,32.08999991416931,learn,27910.00008583069,Wed Jun 24 2026 10:35:14 GMT-0500 (Central Daylight Time),142096.19999998808,A,gre,I,e,473,3,1482.699999988079,140613.5,8078,WL,B,7.0
1,33.00699996948242,learn,26993.000030517578,Wed Jun 24 2026 10:35:14 GMT-0500 (Central Daylight Time),143012.69999998808,A,grea,I,a,900,3,2399.199999988079,140613.5,8078,WL,B,7.0
1,33.35800004005432,learn,26641.99995994568,Wed Jun 24 2026 10:35:14 GMT-0500 (Central Daylight Time),143363.5,A,greas,I,s,335,3,2750.0,140613.5,8078,WL,B,7.0
1,33.50600004196167,learn,26493.99995803833,Wed Jun 24 2026 10:35:14 GMT-0500 (Central Daylight Time),143512.5,A,greass,I,s,138,3,2899.0,140613.5,8078,WL,B,7.0
1,34.03999996185303,learn,25960.000038146973,Wed Jun 24 2026 10:35:14 GMT-0500 (Central Daylight Time),144045.59999999404,A,greas,I,backspace,525,3,3432.0999999940395,140613.5,8078,WL,B,7.0
1,34.7739999294281,learn,25226.0000705719,Wed Jun 24 2026 10:35:14 GMT-0500 (Central Daylight Time),144779.59999999404,A,greasenter,I,enter,727,3,4166.0999999940395,140613.5,8078,WL,B,7.0
1,35.6729998588562,learn,24327.0001411438,Wed Jun 24 2026 10:35:14 GMT-0500 (Central Daylight Time),145678.5,A,s,I,s,880,3,898.5999999940395,144779.90000000596,8078,WL,B,8.0
1,35.90599989891052,learn,24094.000101089478,Wed Jun 24 2026 10:35:14 GMT-0500 (Central Daylight Time),145911.80000001192,A,st,I,t,215,3,1131.9000000059605,144779.90000000596,8078,WL,B,8.0
1,36.25600004196167,learn,23743.99995803833,Wed Jun 24 2026 10:35:14 GMT-0500 (Central Daylight Time),146261.59999999404,A,str,I,r,342,3,1481.699999988079,144779.90000000596,8078,WL,B,8.0
1,36.605000019073486,learn,23394.999980926514,Wed Jun 24 2026 10:35:14 GMT-0500 (Central Daylight Time),146611.40000000596,A,stre,I,e,334,3,1831.5,144779.90000000596,8078,WL,B,8.0
1,36.73899984359741,learn,23261.000156402588,Wed Jun 24 2026 10:35:14 GMT-0500 (Central Daylight Time),146745.09999999404,A,stree,I,e,129,3,1965.199999988079,144779.90000000596,8078,WL,B,8.0
1,37.17199993133545,learn,22828.00006866455,Wed Jun 24 2026 10:35:14 GMT-0500 (Central Daylight Time),147178.0,A,street,I,t,412,3,2398.0999999940395,144779.90000000596,8078,WL,B,8.0
1,37.5550000667572,learn,22444.999933242798,Wed Jun 24 2026 10:35:14 GMT-0500 (Central Daylight Time),147561.19999998808,A,streetenter,I,enter,362,3,2781.2999999821186,144779.90000000596,8078,WL,B,8.0
1,39.98799991607666,learn,20012.00008392334,Wed Jun 24 2026 10:35:14 GMT-0500 (Central Daylight Time),149993.5,A,c,I,c,2420,3,2431.9000000059605,147561.59999999404,8078,WL,B,9.0
1,40.187999963760376,learn,19812.000036239624,Wed Jun 24 2026 10:35:14 GMT-0500 (Central Daylight Time),150193.59999999404,A,ca,I,a,187,3,2632.0,147561.59999999404,8078,WL,B,9.0
1,40.53699994087219,learn,19463.000059127808,Wed Jun 24 2026 10:35:14 GMT-0500 (Central Daylight Time),150543.19999998808,A,cab,I,b,331,3,2981.5999999940395,147561.59999999404,8078,WL,B,9.0
1,40.769999980926514,learn,19230.000019073486,Wed Jun 24 2026 10:35:14 GMT-0500 (Central Daylight Time),150776.40000000596,A,cabi,I,i,213,3,3214.800000011921,147561.59999999404,8078,WL,B,9.0
1,40.97099995613098,learn,19029.00004386902,Wed Jun 24 2026 10:35:14 GMT-0500 (Central Daylight Time),150976.5,A,cabin,I,n,187,3,3414.9000000059605,147561.59999999404,8078,WL,B,9.0
1,41.5699999332428,learn,18430.000066757202,Wed Jun 24 2026 10:35:14 GMT-0500 (Central Daylight Time),151576.30000001192,A,cabinenter,I,enter,588,3,4014.7000000178814,147561.59999999404,8078,WL,B,9.0
1,42.4539999961853,learn,17546.000003814697,Wed Jun 24 2026 10:35:14 GMT-0500 (Central Daylight Time),152459.59999999404,A,p,I,p,869,3,882.9000000059605,151576.69999998808,8078,WL,B,10.0
1,42.65400004386902,learn,17345.99995613098,Wed Jun 24 2026 10:35:14 GMT-0500 (Central Daylight Time),152659.69999998808,A,pi,I,i,185,3,1083.0,151576.69999998808,8078,WL,B,10.0
1,43.187999963760376,learn,16812.000036239624,Wed Jun 24 2026 10:35:14 GMT-0500 (Central Daylight Time),153193.69999998808,A,pip,I,p,520,3,1617.0,151576.69999998808,8078,WL,B,10.0
1,43.45300006866455,learn,16546.99993133545,Wed Jun 24 2026 10:35:14 GMT-0500 (Central Daylight Time),153458.90000000596,A,pipe,I,e,258,3,1882.2000000178814,151576.69999998808,8078,WL,B,10.0
1,43.98699998855591,learn,16013.000011444092,Wed Jun 24 2026 10:35:14 GMT-0500 (Central Daylight Time),153992.80000001192,A,pipeenter,I,enter,529,3,2416.100000023842,151576.69999998808,8078,WL,B,10.0
1,44.55299997329712,learn,15447.00002670288,Wed Jun 24 2026 10:35:14 GMT-0500 (Central Daylight Time),154558.69999998808,A,c,I,c,548,3,565.5999999940395,153993.09999999404,8078,WL,B,11.0
1,44.70300006866455,learn,15296.99993133545,Wed Jun 24 2026 10:35:14 GMT-0500 (Central Daylight Time),154709.09999999404,A,cl,I,l,135,3,716.0,153993.09999999404,8078,WL,B,11.0
1,44.95300006866455,learn,15046.99993133545,Wed Jun 24 2026 10:35:14 GMT-0500 (Central Daylight Time),154958.69999998808,A,clo,I,o,232,3,965.5999999940395,153993.09999999404,8078,WL,B,11.0
1,45.45300006866455,learn,14546.99993133545,Wed Jun 24 2026 10:35:14 GMT-0500 (Central Daylight Time),155459.09999999404,A,cloc,I,c,493,3,1466.0,153993.09999999404,8078,WL,B,11.0
1,45.736000061035156,learn,14263.999938964844,Wed Jun 24 2026 10:35:14 GMT-0500 (Central Daylight Time),155741.69999998808,A,clock,I,k,274,3,1748.5999999940395,153993.09999999404,8078,WL,B,11.0
1,46.251999855041504,learn,13748.000144958496,Wed Jun 24 2026 10:35:14 GMT-0500 (Central Daylight Time),156258.09999999404,A,clockenter,I,enter,511,3,2265.0,153993.09999999404,8078,WL,B,11.0
1,46.651999950408936,learn,13348.000049591064,Wed Jun 24 2026 10:35:14 GMT-0500 (Central Daylight Time),156657.90000000596,A,f,I,f,394,3,399.59999999403954,156258.30000001192,8078,WL,B,12.0
1,46.901999950408936,learn,13098.000049591064,Wed Jun 24 2026 10:35:14 GMT-0500 (Central Daylight Time),156908.30000001192,A,fi,I,i,242,3,650.0,156258.30000001192,8078,WL,B,12.0
1,47.484999895095825,learn,12515.000104904175,Wed Jun 24 2026 10:35:14 GMT-0500 (Central Daylight Time),157491.09999999404,A,fir,I,r,577,3,1232.7999999821186,156258.30000001192,8078,WL,B,12.0
1,47.85199999809265,learn,12148.000001907349,Wed Jun 24 2026 10:35:14 GMT-0500 (Central Daylight Time),157858.09999999404,A,fire,I,e,354,3,1599.7999999821186,156258.30000001192,8078,WL,B,12.0
1,48.71799993515015,learn,11282.000064849854,Wed Jun 24 2026 10:35:14 GMT-0500 (Central Daylight Time),158724.09999999404,A,fireenter,I,enter,850,3,2465.7999999821186,156258.30000001192,8078,WL,B,12.0
1,56.3989999294281,learn,3601.0000705718994,Wed Jun 24 2026 10:35:14 GMT-0500 (Central Daylight Time),166405.30000001192,A,f,I,f,7673,3,7680.800000011921,158724.5,8078,WL,B,13.0
1,56.98199987411499,learn,3018.0001258850098,Wed Jun 24 2026 10:35:14 GMT-0500 (Central Daylight Time),166988.40000000596,A,,I,backspace,573,3,8263.90000000596,158724.5,8078,WL,B,13.0
1,57.23199987411499,learn,2768.0001258850098,Wed Jun 24 2026 10:35:14 GMT-0500 (Central Daylight Time),167238.40000000596,A,a,I,a,241,3,8513.90000000596,158724.5,8078,WL,B,13.0
1,57.431999921798706,learn,2568.000078201294,Wed Jun 24 2026 10:35:14 GMT-0500 (Central Daylight Time),167438.30000001192,A,ar,I,r,191,3,8713.800000011921,158724.5,8078,WL,B,13.0
1,57.96499991416931,learn,2035.0000858306885,Wed Jun 24 2026 10:35:14 GMT-0500 (Central Daylight Time),167971.40000000596,A,arm,I,m,526,3,9246.90000000596,158724.5,8078,WL,B,13.0
1,58.58200001716614,learn,1417.9999828338623,Wed Jun 24 2026 10:35:14 GMT-0500 (Central Daylight Time),168587.90000000596,A,armenter,I,enter,601,3,9863.40000000596,158724.5,8078,WL,B,13.0
1,60.014999866485596,learn,-14.999866485595703,Wed Jun 24 2026 10:35:14 GMT-0500 (Central Daylight Time),170020.90000000596,A,None,I,None,1428,3,1432.5999999940395,168588.30000001192,8078,WL,B,14.0
2,0.7339999675750732,learn,59266.00003242493,Wed Jun 24 2026 10:35:14 GMT-0500 (Central Daylight Time),239665.5,A,s,I,s,713,3,733.0,238932.5,8078,WL,B,1.0
2,1.066999912261963,learn,58933.00008773804,Wed Jun 24 2026 10:35:14 GMT-0500 (Central Daylight Time),239998.59999999404,A,st,I,t,313,3,1066.0999999940395,238932.5,8078,WL,B,1.0
2,2.0829999446868896,learn,57917.00005531311,Wed Jun 24 2026 10:35:14 GMT-0500 (Central Daylight Time),241015.09999999404,A,str,I,r,998,3,2082.5999999940395,238932.5,8078,WL,B,1.0
2,2.4159998893737793,learn,57584.00011062622,Wed Jun 24 2026 10:35:14 GMT-0500 (Central Daylight Time),241348.40000000596,A,stre,I,e,317,3,2415.9000000059605,238932.5,8078,WL,B,1.0
2,2.6659998893737793,learn,57334.00011062622,Wed Jun 24 2026 10:35:14 GMT-0500 (Central Daylight Time),241598.19999998808,A,stree,I,e,232,3,2665.699999988079,238932.5,8078,WL,B,1.0
2,2.9839999675750732,learn,57016.00003242493,Wed Jun 24 2026 10:35:14 GMT-0500 (Central Daylight Time),241916.09999999404,A,street,I,t,302,3,2983.5999999940395,238932.5,8078,WL,B,1.0
2,3.5160000324249268,learn,56483.99996757507,Wed Jun 24 2026 10:35:14 GMT-0500 (Central Daylight Time),242447.90000000596,A,streetenter,I,enter,512,3,3515.4000000059605,238932.5,8078,WL,B,1.0
2,4.615999937057495,learn,55384.000062942505,Wed Jun 24 2026 10:35:14 GMT-0500 (Central Daylight Time),243547.59999999404,A,s,I,s,1086,3,1099.199999988079,242448.40000000596,8078,WL,B,2.0
2,5.082000017166138,learn,54917.99998283386,Wed Jun 24 2026 10:35:14 GMT-0500 (Central Daylight Time),244014.19999998808,A,st,I,t,457,3,1565.7999999821186,242448.40000000596,8078,WL,B,2.0
2,5.332000017166138,learn,54667.99998283386,Wed Jun 24 2026 10:35:14 GMT-0500 (Central Daylight Time),244263.80000001192,A,sta,I,a,238,3,1815.4000000059605,242448.40000000596,8078,WL,B,2.0
2,5.615000009536743,learn,54384.99999046326,Wed Jun 24 2026 10:35:14 GMT-0500 (Central Daylight Time),244547.30000001192,A,star,I,r,268,3,2098.9000000059605,242448.40000000596,8078,WL,B,2.0
2,6.299000024795532,learn,53700.99997520447,Wed Jun 24 2026 10:35:14 GMT-0500 (Central Daylight Time),245230.59999999404,A,starenter,I,enter,674,3,2782.199999988079,242448.40000000596,8078,WL,B,2.0
2,6.865000009536743,learn,53134.99999046326,Wed Jun 24 2026 10:35:14 GMT-0500 (Central Daylight Time),245796.80000001192,A,d,I,d,550,3,565.8000000119209,245231.0,8078,WL,B,3.0
2,7.265000104904175,learn,52734.999895095825,Wed Jun 24 2026 10:35:14 GMT-0500 (Central Daylight Time),246196.80000001192,A,do,I,o,392,3,965.8000000119209,245231.0,8078,WL,B,3.0
2,7.480999946594238,learn,52519.00005340576,Wed Jun 24 2026 10:35:14 GMT-0500 (Central Daylight Time),246413.30000001192,A,doo,I,o,199,3,1182.300000011921,245231.0,8078,WL,B,3.0
2,7.898000001907349,learn,52101.99999809265,Wed Jun 24 2026 10:35:14 GMT-0500 (Central Daylight Time),246829.90000000596,A,door,I,r,407,3,1598.9000000059605,245231.0,8078,WL,B,3.0
2,8.13100004196167,learn,51868.99995803833,Wed Jun 24 2026 10:35:14 GMT-0500 (Central Daylight Time),247063.19999998808,A,doorenter,I,enter,222,3,1832.199999988079,245231.0,8078,WL,B,3.0
2,8.530999898910522,learn,51469.00010108948,Wed Jun 24 2026 10:35:14 GMT-0500 (Central Daylight Time),247463.0,A,w,I,w,389,3,399.40000000596046,247063.59999999404,8078,WL,B,4.0
2,9.447999954223633,learn,50552.00004577637,Wed Jun 24 2026 10:35:14 GMT-0500 (Central Daylight Time),248379.5,A,wo,I,o,902,3,1315.9000000059605,247063.59999999404,8078,WL,B,4.0
2,10.114000082015991,learn,49885.99991798401,Wed Jun 24 2026 10:35:14 GMT-0500 (Central Daylight Time),249046.09999999404,A,w,I,backspace,649,3,1982.5,247063.59999999404,8078,WL,B,4.0
2,10.480999946594238,learn,49519.00005340576,Wed Jun 24 2026 10:35:14 GMT-0500 (Central Daylight Time),249412.40000000596,A,wi,I,i,358,3,2348.800000011921,247063.59999999404,8078,WL,B,4.0
2,10.730999946594238,learn,49269.00005340576,Wed Jun 24 2026 10:35:14 GMT-0500 (Central Daylight Time),249662.59999999404,A,win,I,n,240,3,2599.0,247063.59999999404,8078,WL,B,4.0
2,11.21399998664856,learn,48786.00001335144,Wed Jun 24 2026 10:35:14 GMT-0500 (Central Daylight Time),250145.80000001192,A,wind,I,d,471,3,3082.2000000178814,247063.59999999404,8078,WL,B,4.0
2,11.496999979019165,learn,48503.000020980835,Wed Jun 24 2026 10:35:14 GMT-0500 (Central Daylight Time),250428.69999998808,A,windo,I,o,275,3,3365.0999999940395,247063.59999999404,8078,WL,B,4.0
2,11.763000011444092,learn,48236.99998855591,Wed Jun 24 2026 10:35:14 GMT-0500 (Central Daylight Time),250695.40000000596,A,window,I,w,247,3,3631.800000011921,247063.59999999404,8078,WL,B,4.0
2,12.013000011444092,learn,47986.99998855591,Wed Jun 24 2026 10:35:14 GMT-0500 (Central Daylight Time),250945.30000001192,A,windowenter,I,enter,238,3,3881.7000000178814,247063.59999999404,8078,WL,B,4.0
2,12.663000106811523,learn,47336.99989318848,Wed Jun 24 2026 10:35:14 GMT-0500 (Central Daylight Time),251595.0,A,w,I,w,644,3,649.4000000059605,250945.59999999404,8078,WL,B,5.0
2,12.79699993133545,learn,47203.00006866455,Wed Jun 24 2026 10:35:14 GMT-0500 (Central Daylight Time),251729.0,A,wi,I,i,129,3,783.4000000059605,250945.59999999404,8078,WL,B,5.0
2,13.11299991607666,learn,46887.00008392334,Wed Jun 24 2026 10:35:14 GMT-0500 (Central Daylight Time),252044.90000000596,A,wif,I,f,300,3,1099.300000011921,250945.59999999404,8078,WL,B,5.0
2,13.380000114440918,learn,46619.99988555908,Wed Jun 24 2026 10:35:14 GMT-0500 (Central Daylight Time),252311.69999998808,A,wife,I,e,247,3,1366.0999999940395,250945.59999999404,8078,WL,B,5.0
2,13.645999908447266,learn,46354.000091552734,Wed Jun 24 2026 10:35:14 GMT-0500 (Central Daylight Time),252577.90000000596,A,wifeenter,I,enter,262,3,1632.300000011921,250945.59999999404,8078,WL,B,5.0
2,14.163000106811523,learn,45836.99989318848,Wed Jun 24 2026 10:35:14 GMT-0500 (Central Daylight Time),253094.5,A,s,I,s,499,3,516.3000000119209,252578.19999998808,8078,WL,B,6.0
2,14.496000051498413,learn,45503.99994850159,Wed Jun 24 2026 10:35:14 GMT-0500 (Central Daylight Time),253427.59999999404,A,st,I,t,318,3,849.4000000059605,252578.19999998808,8078,WL,B,6.0
2,14.812000036239624,learn,45187.999963760376,Wed Jun 24 2026 10:35:14 GMT-0500 (Central Daylight Time),253744.30000001192,A,sta,I,a,296,3,1166.1000000238419,252578.19999998808,8078,WL,B,6.0
2,15.046000003814697,learn,44953.9999961853,Wed Jun 24 2026 10:35:14 GMT-0500 (Central Daylight Time),253977.69999998808,A,star,I,r,213,3,1399.5,252578.19999998808,8078,WL,B,6.0
2,15.546000003814697,learn,44453.9999961853,Wed Jun 24 2026 10:35:14 GMT-0500 (Central Daylight Time),254477.59999999404,A,starenter,I,enter,491,3,1899.4000000059605,252578.19999998808,8078,WL,B,6.0
2,17.395999908447266,learn,42604.000091552734,Wed Jun 24 2026 10:35:14 GMT-0500 (Central Daylight Time),256328.0,A,p,I,p,1831,3,1850.0999999940395,254477.90000000596,8078,WL,B,7.0
2,17.611999988555908,learn,42388.00001144409,Wed Jun 24 2026 10:35:14 GMT-0500 (Central Daylight Time),256543.59999999404,A,pi,I,i,205,3,2065.699999988079,254477.90000000596,8078,WL,B,7.0
2,17.911999940872192,learn,42088.00005912781,Wed Jun 24 2026 10:35:14 GMT-0500 (Central Daylight Time),256843.5,A,pip,I,p,285,3,2365.5999999940395,254477.90000000596,8078,WL,B,7.0
2,18.394999980926514,learn,41605.000019073486,Wed Jun 24 2026 10:35:14 GMT-0500 (Central Daylight Time),257326.69999998808,A,pipe,I,e,465,3,2848.7999999821186,254477.90000000596,8078,WL,B,7.0
2,18.67799997329712,learn,41322.00002670288,Wed Jun 24 2026 10:35:14 GMT-0500 (Central Daylight Time),257610.09999999404,A,pipeenter,I,enter,263,3,3132.199999988079,254477.90000000596,8078,WL,B,7.0
2,18.92799997329712,learn,41072.00002670288,Wed Jun 24 2026 10:35:14 GMT-0500 (Central Daylight Time),257860.0,A,w,I,w,242,3,249.59999999403954,257610.40000000596,8078,WL,B,8.0
2,19.561000108718872,learn,40438.99989128113,Wed Jun 24 2026 10:35:14 GMT-0500 (Central Daylight Time),258492.69999998808,A,wo,I,o,625,3,882.2999999821186,257610.40000000596,8078,WL,B,8.0
2,20.49399995803833,learn,39506.00004196167,Wed Jun 24 2026 10:35:14 GMT-0500 (Central Daylight Time),259426.09999999404,A,w,I,backspace,929,3,1815.699999988079,257610.40000000596,8078,WL,B,8.0
2,20.91000008583069,learn,39089.99991416931,Wed Jun 24 2026 10:35:14 GMT-0500 (Central Daylight Time),259842.19999998808,A,wi,I,i,410,3,2231.7999999821186,257610.40000000596,8078,WL,B,8.0
2,21.344000101089478,learn,38655.99989891052,Wed Jun 24 2026 10:35:14 GMT-0500 (Central Daylight Time),260275.69999998808,A,win,I,n,426,3,2665.2999999821186,257610.40000000596,8078,WL,B,8.0
2,21.759999990463257,learn,38240.00000953674,Wed Jun 24 2026 10:35:14 GMT-0500 (Central Daylight Time),260692.40000000596,A,wind,I,d,400,3,3082.0,257610.40000000596,8078,WL,B,8.0
2,22.30999994277954,learn,37690.00005722046,Wed Jun 24 2026 10:35:14 GMT-0500 (Central Daylight Time),261241.90000000596,A,windo,I,o,545,3,3631.5,257610.40000000596,8078,WL,B,8.0
2,22.543999910354614,learn,37456.000089645386,Wed Jun 24 2026 10:35:14 GMT-0500 (Central Daylight Time),261475.40000000596,A,window,I,w,226,3,3865.0,257610.40000000596,8078,WL,B,8.0
2,22.944999933242798,learn,37055.0000667572,Wed Jun 24 2026 10:35:14 GMT-0500 (Central Daylight Time),261876.5,A,windowenter,I,enter,394,3,4266.0999999940395,257610.40000000596,8078,WL,B,8.0
2,23.293999910354614,learn,36706.000089645386,Wed Jun 24 2026 10:35:14 GMT-0500 (Central Daylight Time),262226.09999999404,A,s,I,s,336,3,349.2999999821186,261876.80000001192,8078,WL,B,9.0
2,23.825999975204468,learn,36174.00002479553,Wed Jun 24 2026 10:35:14 GMT-0500 (Central Daylight Time),262758.3000000119,A,,I,backspace,523,3,881.5,261876.80000001192,8078,WL,B,9.0
2,24.926000118255615,learn,35073.999881744385,Wed Jun 24 2026 10:35:14 GMT-0500 (Central Daylight Time),263858.0,A,c,I,c,1087,3,1981.199999988079,261876.80000001192,8078,WL,B,9.0
2,25.075999975204468,learn,34924.00002479553,Wed Jun 24 2026 10:35:14 GMT-0500 (Central Daylight Time),264008.09999999404,A,ci,I,i,130,3,2131.2999999821186,261876.80000001192,8078,WL,B,9.0
2,25.325999975204468,learn,34674.00002479553,Wed Jun 24 2026 10:35:14 GMT-0500 (Central Daylight Time),264258.0,A,cit,I,t,236,3,2381.199999988079,261876.80000001192,8078,WL,B,9.0
2,25.592999935150146,learn,34407.00006484985,Wed Jun 24 2026 10:35:14 GMT-0500 (Central Daylight Time),264524.40000000596,A,city,I,y,250,3,2647.5999999940395,261876.80000001192,8078,WL,B,9.0
2,27.566999912261963,learn,32433.000087738037,Wed Jun 24 2026 10:35:14 GMT-0500 (Central Daylight Time),266498.40000000596,A,cityenter,I,enter,1822,3,4621.5999999940395,261876.80000001192,8078,WL,B,9.0
2,28.125,learn,31875.0,Wed Jun 24 2026 10:35:14 GMT-0500 (Central Daylight Time),267057.0,A,c,I,c,537,3,558.1999999880791,266498.8000000119,8078,WL,B,10.0
2,28.325000047683716,learn,31674.999952316284,Wed Jun 24 2026 10:35:14 GMT-0500 (Central Daylight Time),267256.8000000119,A,ca,I,a,179,3,758.0,266498.8000000119,8078,WL,B,10.0
2,28.97499990463257,learn,31025.00009536743,Wed Jun 24 2026 10:35:14 GMT-0500 (Central Daylight Time),267906.6999999881,A,cab,I,b,637,3,1407.8999999761581,266498.8000000119,8078,WL,B,10.0
2,29.157999992370605,learn,30842.000007629395,Wed Jun 24 2026 10:35:14 GMT-0500 (Central Daylight Time),268090.0,A,cabi,I,i,178,3,1591.199999988079,266498.8000000119,8078,WL,B,10.0
2,29.391000032424927,learn,30608.999967575073,Wed Jun 24 2026 10:35:14 GMT-0500 (Central Daylight Time),268322.90000000596,A,cabin,I,n,218,3,1824.0999999940395,266498.8000000119,8078,WL,B,10.0
2,29.95799994468689,learn,30042.00005531311,Wed Jun 24 2026 10:35:14 GMT-0500 (Central Daylight Time),268889.8000000119,A,cabinenter,I,enter,562,3,2391.0,266498.8000000119,8078,WL,B,10.0
2,31.806999921798706,learn,28193.000078201294,Wed Jun 24 2026 10:35:14 GMT-0500 (Central Daylight Time),270739.0,A,p,I,p,1835,3,1849.0,268890.0,8078,WL,B,11.0
2,32.075000047683716,learn,27924.999952316284,Wed Jun 24 2026 10:35:14 GMT-0500 (Central Daylight Time),271006.6999999881,A,pu,I,u,248,3,2116.699999988079,268890.0,8078,WL,B,11.0
2,33.12299990653992,learn,26877.000093460083,Wed Jun 24 2026 10:35:14 GMT-0500 (Central Daylight Time),272055.3000000119,A,pup,I,p,1038,3,3165.300000011921,268890.0,8078,WL,B,11.0
2,33.57299995422363,learn,26427.000045776367,Wed Jun 24 2026 10:35:14 GMT-0500 (Central Daylight Time),272505.1999999881,A,pupi,I,i,444,3,3615.199999988079,268890.0,8078,WL,B,11.0
2,33.85700011253357,learn,26142.99988746643,Wed Jun 24 2026 10:35:14 GMT-0500 (Central Daylight Time),272788.5,A,pupil,I,l,275,3,3898.5,268890.0,8078,WL,B,11.0
2,34.50600004196167,learn,25493.99995803833,Wed Jun 24 2026 10:35:14 GMT-0500 (Central Daylight Time),273438.09999999404,A,pupilenter,I,enter,641,3,4548.0999999940395,268890.0,8078,WL,B,11.0
2,38.456000089645386,learn,21543.999910354614,Wed Jun 24 2026 10:35:14 GMT-0500 (Central Daylight Time),277387.6999999881,A,c,I,c,3935,3,3949.199999988079,273438.5,8078,WL,B,12.0
2,38.855000019073486,learn,21144.999980926514,Wed Jun 24 2026 10:35:14 GMT-0500 (Central Daylight Time),277787.09999999404,A,cl,I,l,386,3,4348.5999999940395,273438.5,8078,WL,B,12.0
2,39.121999979019165,learn,20878.000020980835,Wed Jun 24 2026 10:35:14 GMT-0500 (Central Daylight Time),278053.59999999404,A,clo,I,o,257,3,4615.0999999940395,273438.5,8078,WL,B,12.0
2,39.4539999961853,learn,20546.000003814697,Wed Jun 24 2026 10:35:14 GMT-0500 (Central Daylight Time),278386.40000000596,A,cloc,I,c,320,3,4947.9000000059605,273438.5,8078,WL,B,12.0
2,39.6710000038147,learn,20328.999996185303,Wed Jun 24 2026 10:35:14 GMT-0500 (Central Daylight Time),278603.3000000119,A,clock,I,k,211,3,5164.800000011921,273438.5,8078,WL,B,12.0
2,40.355000019073486,learn,19644.999980926514,Wed Jun 24 2026 10:35:14 GMT-0500 (Central Daylight Time),279286.59999999404,A,clockenter,I,enter,665,3,5848.0999999940395,273438.5,8078,WL,B,12.0
2,40.88800001144409,learn,19111.99998855591,Wed Jun 24 2026 10:35:14 GMT-0500 (Central Daylight Time),279819.59999999404,A,c,I,c,526,3,532.6999999880791,279286.90000000596,8078,WL,B,13.0
2,41.07100009918213,learn,18928.99990081787,Wed Jun 24 2026 10:35:14 GMT-0500 (Central Daylight Time),280002.90000000596,A,ca,I,a,177,3,716.0,279286.90000000596,8078,WL,B,13.0
2,41.770999908447266,learn,18229.000091552734,Wed Jun 24 2026 10:35:14 GMT-0500 (Central Daylight Time),280702.8000000119,A,cab,I,b,681,3,1415.9000000059605,279286.90000000596,8078,WL,B,13.0
2,42.03699994087219,learn,17963.000059127808,Wed Jun 24 2026 10:35:14 GMT-0500 (Central Daylight Time),280969.1999999881,A,cabi,I,i,253,3,1682.2999999821186,279286.90000000596,8078,WL,B,13.0
2,42.270999908447266,learn,17729.000091552734,Wed Jun 24 2026 10:35:14 GMT-0500 (Central Daylight Time),281202.5,A,cabin,I,n,220,3,1915.5999999940395,279286.90000000596,8078,WL,B,13.0
2,42.78699994087219,learn,17213.000059127808,Wed Jun 24 2026 10:35:14 GMT-0500 (Central Daylight Time),281719.09999999404,A,cabinenter,I,enter,497,3,2432.199999988079,279286.90000000596,8078,WL,B,13.0
2,43.03699994087219,learn,16963.000059127808,Wed Jun 24 2026 10:35:14 GMT-0500 (Central Daylight Time),281969.09999999404,A,f,I,f,229,3,249.69999998807907,281719.40000000596,8078,WL,B,14.0
2,43.90300011634827,learn,16096.999883651733,Wed Jun 24 2026 10:35:14 GMT-0500 (Central Daylight Time),282835.40000000596,A,fi,I,i,852,3,1116.0,281719.40000000596,8078,WL,B,14.0
2,44.253000020980835,learn,15746.999979019165,Wed Jun 24 2026 10:35:14 GMT-0500 (Central Daylight Time),283185.1999999881,A,fir,I,r,329,3,1465.7999999821186,281719.40000000596,8078,WL,B,14.0
2,44.80299997329712,learn,15197.00002670288,Wed Jun 24 2026 10:35:14 GMT-0500 (Central Daylight Time),283735.09999999404,A,fire,I,e,531,3,2015.699999988079,281719.40000000596,8078,WL,B,14.0
2,45.13599991798401,learn,14864.000082015991,Wed Jun 24 2026 10:35:14 GMT-0500 (Central Daylight Time),284068.1999999881,A,fireenter,I,enter,326,3,2348.7999999821186,281719.40000000596,8078,WL,B,14.0
2,45.753000020980835,learn,14246.999979019165,Wed Jun 24 2026 10:35:14 GMT-0500 (Central Daylight Time),284684.6999999881,A,a,I,a,608,3,616.1999999880791,284068.5,8078,WL,B,15.0
2,45.9539999961853,learn,14046.000003814697,Wed Jun 24 2026 10:35:14 GMT-0500 (Central Daylight Time),284885.6999999881,A,ar,I,r,183,3,817.1999999880791,284068.5,8078,WL,B,15.0
2,46.486000061035156,learn,13513.999938964844,Wed Jun 24 2026 10:35:14 GMT-0500 (Central Daylight Time),285418.0,A,arm,I,m,511,3,1349.5,284068.5,8078,WL,B,15.0
2,46.95300006866455,learn,13046.99993133545,Wed Jun 24 2026 10:35:14 GMT-0500 (Central Daylight Time),285884.40000000596,A,arms,I,s,459,3,1815.9000000059605,284068.5,8078,WL,B,15.0
2,47.46900010108948,learn,12530.999898910522,Wed Jun 24 2026 10:35:14 GMT-0500 (Central Daylight Time),286400.90000000596,A,armsenter,I,enter,496,3,2332.4000000059605,284068.5,8078,WL,B,15.0
3,1.1000001430511475,learn,58899.99985694885,Wed Jun 24 2026 10:35:14 GMT-0500 (Central Daylight Time),357062.09999999404,A,s,I,s,1083,3,1099.4000000059605,355962.6999999881,8078,WL,B,1.0
3,1.7660000324249268,learn,58233.99996757507,Wed Jun 24 2026 10:35:14 GMT-0500 (Central Daylight Time),357728.1999999881,A,st,I,t,644,3,1765.5,355962.6999999881,8078,WL,B,1.0
3,2.0160000324249268,learn,57983.99996757507,Wed Jun 24 2026 10:35:14 GMT-0500 (Central Daylight Time),357978.1999999881,A,str,I,r,244,3,2015.5,355962.6999999881,8078,WL,B,1.0
3,2.381999969482422,learn,57618.00003051758,Wed Jun 24 2026 10:35:14 GMT-0500 (Central Daylight Time),358345.0,A,stre,I,e,346,3,2382.300000011921,355962.6999999881,8078,WL,B,1.0
3,2.865999937057495,learn,57134.000062942505,Wed Jun 24 2026 10:35:14 GMT-0500 (Central Daylight Time),358828.09999999404,A,stree,I,e,476,3,2865.4000000059605,355962.6999999881,8078,WL,B,1.0
3,3.181999921798706,learn,56818.000078201294,Wed Jun 24 2026 10:35:14 GMT-0500 (Central Daylight Time),359144.8000000119,A,street,I,t,296,3,3182.100000023842,355962.6999999881,8078,WL,B,1.0
3,3.681999921798706,learn,56318.000078201294,Wed Jun 24 2026 10:35:14 GMT-0500 (Central Daylight Time),359644.6999999881,A,streetenter,I,enter,492,3,3682.0,355962.6999999881,8078,WL,B,1.0
3,4.760999917984009,learn,55239.00008201599,Wed Jun 24 2026 10:35:14 GMT-0500 (Central Daylight Time),360723.3000000119,A,g,I,g,983,3,1078.2000000178814,359645.09999999404,8078,WL,B,2.0
3,4.980999946594238,learn,55019.00005340576,Wed Jun 24 2026 10:35:14 GMT-0500 (Central Daylight Time),360943.90000000596,A,gr,I,r,209,3,1298.800000011921,359645.09999999404,8078,WL,B,2.0
3,5.131999969482422,learn,54868.00003051758,Wed Jun 24 2026 10:35:14 GMT-0500 (Central Daylight Time),361094.3000000119,A,gra,I,a,132,3,1449.2000000178814,359645.09999999404,8078,WL,B,2.0
3,5.465000152587891,learn,54534.99984741211,Wed Jun 24 2026 10:35:14 GMT-0500 (Central Daylight Time),361427.1999999881,A,gras,I,s,326,3,1782.0999999940395,359645.09999999404,8078,WL,B,2.0
3,5.63100004196167,learn,54368.99995803833,Wed Jun 24 2026 10:35:14 GMT-0500 (Central Daylight Time),361593.8000000119,A,grass,I,s,146,3,1948.7000000178814,359645.09999999404,8078,WL,B,2.0
3,6.180999994277954,learn,53819.000005722046,Wed Jun 24 2026 10:35:14 GMT-0500 (Central Daylight Time),362143.90000000596,A,grassenter,I,enter,531,3,2498.800000011921,359645.09999999404,8078,WL,B,2.0
3,6.38100004196167,learn,53618.99995803833,Wed Jun 24 2026 10:35:14 GMT-0500 (Central Daylight Time),362343.59999999404,A,w,I,w,181,3,199.40000000596046,362144.1999999881,8078,WL,B,3.0
3,7.46399998664856,learn,52536.00001335144,Wed Jun 24 2026 10:35:14 GMT-0500 (Central Daylight Time),363426.6999999881,A,wi,I,i,1069,3,1282.5,362144.1999999881,8078,WL,B,3.0
3,7.8470001220703125,learn,52152.99987792969,Wed Jun 24 2026 10:35:14 GMT-0500 (Central Daylight Time),363809.8000000119,A,win,I,n,369,3,1665.6000000238419,362144.1999999881,8078,WL,B,3.0
3,8.081000089645386,learn,51918.999910354614,Wed Jun 24 2026 10:35:14 GMT-0500 (Central Daylight Time),364043.1999999881,A,wind,I,d,228,3,1899.0,362144.1999999881,8078,WL,B,3.0
3,8.230999946594238,learn,51769.00005340576,Wed Jun 24 2026 10:35:14 GMT-0500 (Central Daylight Time),364193.5,A,windo,I,o,129,3,2049.300000011921,362144.1999999881,8078,WL,B,3.0
3,8.397000074386597,learn,51602.9999256134,Wed Jun 24 2026 10:35:14 GMT-0500 (Central Daylight Time),364359.59999999404,A,window,I,w,147,3,2215.4000000059605,362144.1999999881,8078,WL,B,3.0
3,8.77999997138977,learn,51220.00002861023,Wed Jun 24 2026 10:35:14 GMT-0500 (Central Daylight Time),364742.59999999404,A,windowenter,I,enter,365,3,2598.4000000059605,362144.1999999881,8078,WL,B,3.0
3,9.114000082015991,learn,50885.99991798401,Wed Jun 24 2026 10:35:14 GMT-0500 (Central Daylight Time),365076.09999999404,A,d,I,d,318,3,333.19999998807907,364742.90000000596,8078,WL,B,4.0
3,9.71399998664856,learn,50286.00001335144,Wed Jun 24 2026 10:35:14 GMT-0500 (Central Daylight Time),365676.09999999404,A,do,I,o,593,3,933.1999999880791,364742.90000000596,8078,WL,B,4.0
3,10.329999923706055,learn,49670.000076293945,Wed Jun 24 2026 10:35:14 GMT-0500 (Central Daylight Time),366292.1999999881,A,doo,I,o,600,3,1549.2999999821186,364742.90000000596,8078,WL,B,4.0
3,10.61299991607666,learn,49387.00008392334,Wed Jun 24 2026 10:35:14 GMT-0500 (Central Daylight Time),366575.5,A,door,I,r,272,3,1832.5999999940395,364742.90000000596,8078,WL,B,4.0
3,10.845999956130981,learn,49154.00004386902,Wed Jun 24 2026 10:35:14 GMT-0500 (Central Daylight Time),366809.0,A,doorenter,I,enter,213,3,2066.0999999940395,364742.90000000596,8078,WL,B,4.0
3,11.081000089645386,learn,48918.999910354614,Wed Jun 24 2026 10:35:14 GMT-0500 (Central Daylight Time),367043.09999999404,A,s,I,s,227,3,233.90000000596046,366809.1999999881,8078,WL,B,5.0
3,11.36299991607666,learn,48637.00008392334,Wed Jun 24 2026 10:35:14 GMT-0500 (Central Daylight Time),367325.3000000119,A,st,I,t,272,3,516.1000000238419,366809.1999999881,8078,WL,B,5.0
3,11.597000122070312,learn,48402.99987792969,Wed Jun 24 2026 10:35:14 GMT-0500 (Central Daylight Time),367559.8000000119,A,sta,I,a,215,3,750.6000000238419,366809.1999999881,8078,WL,B,5.0
3,11.828999996185303,learn,48171.0000038147,Wed Jun 24 2026 10:35:14 GMT-0500 (Central Daylight Time),367791.8000000119,A,star,I,r,221,3,982.6000000238419,366809.1999999881,8078,WL,B,5.0
3,12.128999948501587,learn,47871.00005149841,Wed Jun 24 2026 10:35:14 GMT-0500 (Central Daylight Time),368092.0,A,starenter,I,enter,285,3,1282.800000011921,366809.1999999881,8078,WL,B,5.0
3,12.86299991607666,learn,47137.00008392334,Wed Jun 24 2026 10:35:14 GMT-0500 (Central Daylight Time),368825.09999999404,A,w,I,w,713,3,732.7999999821186,368092.3000000119,8078,WL,B,6.0
3,12.996000051498413,learn,47003.99994850159,Wed Jun 24 2026 10:35:14 GMT-0500 (Central Daylight Time),368958.3000000119,A,wi,I,i,115,3,866.0,368092.3000000119,8078,WL,B,6.0
3,13.246000051498413,learn,46753.99994850159,Wed Jun 24 2026 10:35:14 GMT-0500 (Central Daylight Time),369208.0,A,wif,I,f,230,3,1115.699999988079,368092.3000000119,8078,WL,B,6.0
3,13.578999996185303,learn,46421.0000038147,Wed Jun 24 2026 10:35:14 GMT-0500 (Central Daylight Time),369541.40000000596,A,wife,I,e,324,3,1449.0999999940395,368092.3000000119,8078,WL,B,6.0
3,13.996000051498413,learn,46003.99994850159,Wed Jun 24 2026 10:35:14 GMT-0500 (Central Daylight Time),369958.0,A,wifeenter,I,enter,408,3,1865.699999988079,368092.3000000119,8078,WL,B,6.0
3,15.545000076293945,learn,44454.999923706055,Wed Jun 24 2026 10:35:14 GMT-0500 (Central Daylight Time),371507.5,A,a,I,a,1534,3,1549.199999988079,369958.3000000119,8078,WL,B,7.0
3,15.76200008392334,learn,44237.99991607666,Wed Jun 24 2026 10:35:14 GMT-0500 (Central Daylight Time),371724.09999999404,A,ar,I,r,201,3,1765.7999999821186,369958.3000000119,8078,WL,B,7.0
3,16.17799997329712,learn,43822.00002670288,Wed Jun 24 2026 10:35:14 GMT-0500 (Central Daylight Time),372140.5,A,arm,I,m,408,3,2182.199999988079,369958.3000000119,8078,WL,B,7.0
3,16.861000061035156,learn,43138.999938964844,Wed Jun 24 2026 10:35:14 GMT-0500 (Central Daylight Time),372823.8000000119,A,armenter,I,enter,664,3,2865.5,369958.3000000119,8078,WL,B,7.0
3,17.278000116348267,learn,42721.99988365173,Wed Jun 24 2026 10:35:14 GMT-0500 (Central Daylight Time),373240.5,A,s,I,s,406,3,416.40000000596046,372824.09999999404,8078,WL,B,8.0
3,17.51200008392334,learn,42487.99991607666,Wed Jun 24 2026 10:35:14 GMT-0500 (Central Daylight Time),373474.40000000596,A,sk,I,k,228,3,650.3000000119209,372824.09999999404,8078,WL,B,8.0
3,17.811000108718872,learn,42188.99989128113,Wed Jun 24 2026 10:35:14 GMT-0500 (Central Daylight Time),373773.1999999881,A,ski,I,i,290,3,949.0999999940395,372824.09999999404,8078,WL,B,8.0
3,18.061000108718872,learn,41938.99989128113,Wed Jun 24 2026 10:35:14 GMT-0500 (Central Daylight Time),374023.5,A,skin,I,n,240,3,1199.4000000059605,372824.09999999404,8078,WL,B,8.0
3,18.47699999809265,learn,41523.00000190735,Wed Jun 24 2026 10:35:14 GMT-0500 (Central Daylight Time),374439.90000000596,A,skinenter,I,enter,406,3,1615.800000011921,372824.09999999404,8078,WL,B,8.0
3,19.05999994277954,learn,40940.00005722046,Wed Jun 24 2026 10:35:14 GMT-0500 (Central Daylight Time),375022.90000000596,A,p,I,p,573,3,582.7000000178814,374440.1999999881,8078,WL,B,9.0
3,19.344000101089478,learn,40655.99989891052,Wed Jun 24 2026 10:35:14 GMT-0500 (Central Daylight Time),375306.09999999404,A,pu,I,u,278,3,865.9000000059605,374440.1999999881,8078,WL,B,9.0
3,19.860000133514404,learn,40139.999866485596,Wed Jun 24 2026 10:35:14 GMT-0500 (Central Daylight Time),375822.6999999881,A,pup,I,p,498,3,1382.5,374440.1999999881,8078,WL,B,9.0
3,20.526999950408936,learn,39473.000049591064,Wed Jun 24 2026 10:35:14 GMT-0500 (Central Daylight Time),376489.1999999881,A,pupi,I,i,655,3,2049.0,374440.1999999881,8078,WL,B,9.0
3,20.860000133514404,learn,39139.999866485596,Wed Jun 24 2026 10:35:14 GMT-0500 (Central Daylight Time),376822.5,A,pupil,I,l,324,3,2382.300000011921,374440.1999999881,8078,WL,B,9.0
3,21.22699999809265,learn,38773.00000190735,Wed Jun 24 2026 10:35:14 GMT-0500 (Central Daylight Time),377189.0,A,pupilenter,I,enter,351,3,2748.800000011921,374440.1999999881,8078,WL,B,9.0
3,22.092999935150146,learn,37907.00006484985,Wed Jun 24 2026 10:35:14 GMT-0500 (Central Daylight Time),378055.1999999881,A,p,I,p,847,3,865.8999999761581,377189.3000000119,8078,WL,B,10.0
3,22.30999994277954,learn,37690.00005722046,Wed Jun 24 2026 10:35:14 GMT-0500 (Central Daylight Time),378272.1999999881,A,pi,I,i,205,3,1082.8999999761581,377189.3000000119,8078,WL,B,10.0
3,23.125999927520752,learn,36874.00007247925,Wed Jun 24 2026 10:35:14 GMT-0500 (Central Daylight Time),379088.5,A,pip,I,p,796,3,1899.199999988079,377189.3000000119,8078,WL,B,10.0
3,23.625999927520752,learn,36374.00007247925,Wed Jun 24 2026 10:35:14 GMT-0500 (Central Daylight Time),379588.1999999881,A,pipe,I,e,485,3,2398.899999976158,377189.3000000119,8078,WL,B,10.0
3,23.942000150680542,learn,36057.99984931946,Wed Jun 24 2026 10:35:14 GMT-0500 (Central Daylight Time),379904.90000000596,A,pipeenter,I,enter,304,3,2715.5999999940395,377189.3000000119,8078,WL,B,10.0
3,25.9760000705719,learn,34023.9999294281,Wed Jun 24 2026 10:35:14 GMT-0500 (Central Daylight Time),381938.59999999404,A,c,I,c,2011,3,2033.199999988079,379905.40000000596,8078,WL,B,11.0
3,26.141000032424927,learn,33858.99996757507,Wed Jun 24 2026 10:35:14 GMT-0500 (Central Daylight Time),382104.0,A,ca,I,a,145,3,2198.5999999940395,379905.40000000596,8078,WL,B,11.0
3,26.592000007629395,learn,33407.999992370605,Wed Jun 24 2026 10:35:14 GMT-0500 (Central Daylight Time),382554.90000000596,A,cab,I,b,444,3,2649.5,379905.40000000596,8078,WL,B,11.0
3,26.825000047683716,learn,33174.999952316284,Wed Jun 24 2026 10:35:14 GMT-0500 (Central Daylight Time),382787.1999999881,A,cabi,I,i,217,3,2881.7999999821186,379905.40000000596,8078,WL,B,11.0
3,27.02500009536743,learn,32974.99990463257,Wed Jun 24 2026 10:35:14 GMT-0500 (Central Daylight Time),382987.09999999404,A,cabin,I,n,186,3,3081.699999988079,379905.40000000596,8078,WL,B,11.0
3,27.54100012779236,learn,32458.99987220764,Wed Jun 24 2026 10:35:14 GMT-0500 (Central Daylight Time),383503.59999999404,A,cabinenter,I,enter,506,3,3598.199999988079,379905.40000000596,8078,WL,B,11.0
3,28.317000150680542,learn,31682.999849319458,Wed Jun 24 2026 10:35:14 GMT-0500 (Central Daylight Time),384279.3000000119,A,f,I,f,771,3,775.4000000059605,383503.90000000596,8078,WL,B,12.0
3,28.408999919891357,learn,31591.000080108643,Wed Jun 24 2026 10:35:14 GMT-0500 (Central Daylight Time),384371.09999999404,A,fi,I,i,77,3,867.1999999880791,383503.90000000596,8078,WL,B,12.0
3,28.60800004005432,learn,31391.99995994568,Wed Jun 24 2026 10:35:14 GMT-0500 (Central Daylight Time),384570.3000000119,A,fir,I,r,185,3,1066.4000000059605,383503.90000000596,8078,WL,B,12.0
3,28.94099998474121,learn,31059.00001525879,Wed Jun 24 2026 10:35:14 GMT-0500 (Central Daylight Time),384903.1999999881,A,fire,I,e,314,3,1399.2999999821186,383503.90000000596,8078,WL,B,12.0
3,29.174000024795532,learn,30825.999975204468,Wed Jun 24 2026 10:35:14 GMT-0500 (Central Daylight Time),385136.8000000119,A,fireenter,I,enter,213,3,1632.9000000059605,383503.90000000596,8078,WL,B,12.0
3,29.624000072479248,learn,30375.999927520752,Wed Jun 24 2026 10:35:14 GMT-0500 (Central Daylight Time),385586.5,A,c,I,c,436,3,449.30000001192093,385137.1999999881,8078,WL,B,13.0
3,29.789999961853027,learn,30210.000038146973,Wed Jun 24 2026 10:35:14 GMT-0500 (Central Daylight Time),385753.0,A,cl,I,l,145,3,615.8000000119209,385137.1999999881,8078,WL,B,13.0
3,30.174000024795532,learn,29825.999975204468,Wed Jun 24 2026 10:35:14 GMT-0500 (Central Daylight Time),386136.09999999404,A,clo,I,o,372,3,998.9000000059605,385137.1999999881,8078,WL,B,13.0
3,30.374000072479248,learn,29625.999927520752,Wed Jun 24 2026 10:35:14 GMT-0500 (Central Daylight Time),386336.1999999881,A,cloa,I,a,180,3,1199.0,385137.1999999881,8078,WL,B,13.0
3,30.77300000190735,learn,29226.99999809265,Wed Jun 24 2026 10:35:14 GMT-0500 (Central Daylight Time),386735.8000000119,A,cloac,I,c,380,3,1598.6000000238419,385137.1999999881,8078,WL,B,13.0
3,31.539999961853027,learn,28460.000038146973,Wed Jun 24 2026 10:35:14 GMT-0500 (Central Daylight Time),387502.6999999881,A,cloack,I,k,756,3,2365.5,385137.1999999881,8078,WL,B,13.0
3,33.32299995422363,learn,26677.000045776367,Wed Jun 24 2026 10:35:14 GMT-0500 (Central Daylight Time),389285.3000000119,A,cloackenter,I,enter,1774,3,4148.100000023842,385137.1999999881,8078,WL,B,13.0
3,34.4060001373291,learn,25593.9998626709,Wed Jun 24 2026 10:35:14 GMT-0500 (Central Daylight Time),390368.1999999881,A,s,I,s,1063,3,1082.699999988079,389285.5,8078,WL,B,14.0
3,35.25600004196167,learn,24743.99995803833,Wed Jun 24 2026 10:35:14 GMT-0500 (Central Daylight Time),391218.09999999404,A,sk,I,k,837,3,1932.5999999940395,389285.5,8078,WL,B,14.0
3,35.5220000743866,learn,24477.999925613403,Wed Jun 24 2026 10:35:14 GMT-0500 (Central Daylight Time),391484.59999999404,A,ski,I,i,250,3,2199.0999999940395,389285.5,8078,WL,B,14.0
3,35.68900012969971,learn,24310.999870300293,Wed Jun 24 2026 10:35:14 GMT-0500 (Central Daylight Time),391651.1999999881,A,skin,I,n,152,3,2365.699999988079,389285.5,8078,WL,B,14.0
3,35.873000144958496,learn,24126.999855041504,Wed Jun 24 2026 10:35:14 GMT-0500 (Central Daylight Time),391835.3000000119,A,sking,I,g,177,3,2549.800000011921,389285.5,8078,WL,B,14.0
3,36.454999923706055,learn,23545.000076293945,Wed Jun 24 2026 10:35:14 GMT-0500 (Central Daylight Time),392417.5,A,skin,I,backspace,569,3,3132.0,389285.5,8078,WL,B,14.0
3,36.82200002670288,learn,23177.99997329712,Wed Jun 24 2026 10:35:14 GMT-0500 (Central Daylight Time),392784.40000000596,A,skinenter,I,enter,356,3,3498.9000000059605,389285.5,8078,WL,B,14.0
3,37.22200012207031,learn,22777.999877929688,Wed Jun 24 2026 10:35:14 GMT-0500 (Central Daylight Time),393184.1999999881,A,a,I,a,389,3,399.59999999403954,392784.59999999404,8078,WL,B,15.0
3,37.48900008201599,learn,22510.99991798401,Wed Jun 24 2026 10:35:14 GMT-0500 (Central Daylight Time),393451.3000000119,A,ar,I,r,260,3,666.7000000178814,392784.59999999404,8078,WL,B,15.0
3,37.90499997138977,learn,22095.00002861023,Wed Jun 24 2026 10:35:14 GMT-0500 (Central Daylight Time),393867.1999999881,A,arm,I,m,401,3,1082.5999999940395,392784.59999999404,8078,WL,B,15.0
3,38.63800001144409,learn,21361.99998855591,Wed Jun 24 2026 10:35:14 GMT-0500 (Central Daylight Time),394600.3000000119,A,armenter,I,enter,713,3,1815.7000000178814,392784.59999999404,8078,WL,B,15.0
4,0.7829999923706055,learn,59217.000007629395,Wed Jun 24 2026 10:35:14 GMT-0500 (Central Daylight Time),461895.90000000596,A,s,I,s,764,3,783.0,461112.90000000596,8078,WL,B,1.0
4,0.998999834060669,learn,59001.00016593933,Wed Jun 24 2026 10:35:14 GMT-0500 (Central Daylight Time),462112.09999999404,A,st,I,t,194,3,999.1999999880791,461112.90000000596,8078,WL,B,1.0
4,1.2999999523162842,learn,58700.000047683716,Wed Jun 24 2026 10:35:14 GMT-0500 (Central Daylight Time),462412.40000000596,A,str,I,r,284,3,1299.5,461112.90000000596,8078,WL,B,1.0
4,1.6659998893737793,learn,58334.00011062622,Wed Jun 24 2026 10:35:14 GMT-0500 (Central Daylight Time),462778.8000000119,A,stre,I,e,360,3,1665.9000000059605,461112.90000000596,8078,WL,B,1.0
4,1.7990000247955322,learn,58200.99997520447,Wed Jun 24 2026 10:35:14 GMT-0500 (Central Daylight Time),462912.09999999404,A,stree,I,e,122,3,1799.199999988079,461112.90000000596,8078,WL,B,1.0
4,2.0160000324249268,learn,57983.99996757507,Wed Jun 24 2026 10:35:14 GMT-0500 (Central Daylight Time),463128.8000000119,A,street,I,t,196,3,2015.9000000059605,461112.90000000596,8078,WL,B,1.0
4,2.4659998416900635,learn,57534.00015830994,Wed Jun 24 2026 10:35:14 GMT-0500 (Central Daylight Time),463578.3000000119,A,streetenter,I,enter,444,3,2465.4000000059605,461112.90000000596,8078,WL,B,1.0
4,3.0829999446868896,learn,56917.00005531311,Wed Jun 24 2026 10:35:14 GMT-0500 (Central Daylight Time),464195.3000000119,A,g,I,g,602,3,616.8000000119209,463578.5,8078,WL,B,2.0
4,3.3489999771118164,learn,56651.00002288818,Wed Jun 24 2026 10:35:14 GMT-0500 (Central Daylight Time),464461.6999999881,A,gr,I,r,256,3,883.1999999880791,463578.5,8078,WL,B,2.0
4,3.4649999141693115,learn,56535.00008583069,Wed Jun 24 2026 10:35:14 GMT-0500 (Central Daylight Time),464578.09999999404,A,gra,I,a,111,3,999.5999999940395,463578.5,8078,WL,B,2.0
4,3.9819998741149902,learn,56018.00012588501,Wed Jun 24 2026 10:35:14 GMT-0500 (Central Daylight Time),465094.90000000596,A,gras,I,s,507,3,1516.4000000059605,463578.5,8078,WL,B,2.0
4,4.148999929428101,learn,55851.0000705719,Wed Jun 24 2026 10:35:14 GMT-0500 (Central Daylight Time),465261.40000000596,A,grass,I,s,158,3,1682.9000000059605,463578.5,8078,WL,B,2.0
4,4.4649999141693115,learn,55535.00008583069,Wed Jun 24 2026 10:35:14 GMT-0500 (Central Daylight Time),465578.0,A,grassenter,I,enter,312,3,1999.5,463578.5,8078,WL,B,2.0
4,5.082000017166138,learn,54917.99998283386,Wed Jun 24 2026 10:35:14 GMT-0500 (Central Daylight Time),466194.3000000119,A,w,I,w,611,3,616.1000000238419,465578.1999999881,8078,WL,B,3.0
4,6.080999851226807,learn,53919.00014877319,Wed Jun 24 2026 10:35:14 GMT-0500 (Central Daylight Time),467194.1999999881,A,wi,I,i,986,3,1616.0,465578.1999999881,8078,WL,B,3.0
4,6.315000057220459,learn,53684.99994277954,Wed Jun 24 2026 10:35:14 GMT-0500 (Central Daylight Time),467427.40000000596,A,win,I,n,226,3,1849.2000000178814,465578.1999999881,8078,WL,B,3.0
4,6.863999843597412,learn,53136.00015640259,Wed Jun 24 2026 10:35:14 GMT-0500 (Central Daylight Time),467977.09999999404,A,wind,I,d,537,3,2398.9000000059605,465578.1999999881,8078,WL,B,3.0
4,7.047999858856201,learn,52952.0001411438,Wed Jun 24 2026 10:35:14 GMT-0500 (Central Daylight Time),468160.40000000596,A,windo,I,o,171,3,2582.2000000178814,465578.1999999881,8078,WL,B,3.0
4,7.680999994277954,learn,52319.000005722046,Wed Jun 24 2026 10:35:14 GMT-0500 (Central Daylight Time),468793.40000000596,A,window,I,w,613,3,3215.2000000178814,465578.1999999881,8078,WL,B,3.0
4,7.898000001907349,learn,52101.99999809265,Wed Jun 24 2026 10:35:14 GMT-0500 (Central Daylight Time),469011.09999999404,A,windowenter,I,enter,211,3,3432.9000000059605,465578.1999999881,8078,WL,B,3.0
4,8.29699993133545,learn,51703.00006866455,Wed Jun 24 2026 10:35:14 GMT-0500 (Central Daylight Time),469410.09999999404,A,d,I,d,385,3,398.69999998807907,469011.40000000596,8078,WL,B,4.0
4,8.914999961853027,learn,51085.00003814697,Wed Jun 24 2026 10:35:14 GMT-0500 (Central Daylight Time),470027.5,A,do,I,o,611,3,1016.0999999940395,469011.40000000596,8078,WL,B,4.0
4,9.113999843597412,learn,50886.00015640259,Wed Jun 24 2026 10:35:14 GMT-0500 (Central Daylight Time),470226.5,A,doo,I,o,193,3,1215.0999999940395,469011.40000000596,8078,WL,B,4.0
4,9.27999997138977,learn,50720.00002861023,Wed Jun 24 2026 10:35:14 GMT-0500 (Central Daylight Time),470393.09999999404,A,door,I,r,155,3,1381.699999988079,469011.40000000596,8078,WL,B,4.0
4,9.514999866485596,learn,50485.000133514404,Wed Jun 24 2026 10:35:14 GMT-0500 (Central Daylight Time),470627.40000000596,A,doorenter,I,enter,227,3,1616.0,469011.40000000596,8078,WL,B,4.0
4,9.79699993133545,learn,50203.00006866455,Wed Jun 24 2026 10:35:14 GMT-0500 (Central Daylight Time),470909.59999999404,A,w,I,w,265,3,281.90000000596046,470627.6999999881,8078,WL,B,5.0
4,10.763000011444092,learn,49236.99998855591,Wed Jun 24 2026 10:35:14 GMT-0500 (Central Daylight Time),471876.09999999404,A,wi,I,i,959,3,1248.4000000059605,470627.6999999881,8078,WL,B,5.0
4,10.846999883651733,learn,49153.00011634827,Wed Jun 24 2026 10:35:14 GMT-0500 (Central Daylight Time),471959.5,A,wif,I,f,72,3,1331.800000011921,470627.6999999881,8078,WL,B,5.0
4,11.129999876022339,learn,48870.00012397766,Wed Jun 24 2026 10:35:14 GMT-0500 (Central Daylight Time),472242.1999999881,A,wife,I,e,277,3,1614.5,470627.6999999881,8078,WL,B,5.0
4,11.429999828338623,learn,48570.00017166138,Wed Jun 24 2026 10:35:14 GMT-0500 (Central Daylight Time),472542.3000000119,A,wifeenter,I,enter,291,3,1914.6000000238419,470627.6999999881,8078,WL,B,5.0
4,11.929999828338623,learn,48070.00017166138,Wed Jun 24 2026 10:35:14 GMT-0500 (Central Daylight Time),473042.40000000596,A,s,I,s,486,3,499.80000001192093,472542.59999999404,8078,WL,B,6.0
4,12.145999908447266,learn,47854.000091552734,Wed Jun 24 2026 10:35:14 GMT-0500 (Central Daylight Time),473258.8000000119,A,st,I,t,209,3,716.2000000178814,472542.59999999404,8078,WL,B,6.0
4,12.395999908447266,learn,47604.000091552734,Wed Jun 24 2026 10:35:14 GMT-0500 (Central Daylight Time),473508.59999999404,A,sta,I,a,242,3,966.0,472542.59999999404,8078,WL,B,6.0
4,12.595999956130981,learn,47404.00004386902,Wed Jun 24 2026 10:35:14 GMT-0500 (Central Daylight Time),473708.8000000119,A,star,I,r,192,3,1166.2000000178814,472542.59999999404,8078,WL,B,6.0
4,13.145999908447266,learn,46854.000091552734,Wed Jun 24 2026 10:35:14 GMT-0500 (Central Daylight Time),474258.59999999404,A,starenter,I,enter,536,3,1716.0,472542.59999999404,8078,WL,B,6.0
4,14.312000036239624,learn,45687.999963760376,Wed Jun 24 2026 10:35:14 GMT-0500 (Central Daylight Time),475424.90000000596,A,p,I,p,1146,3,1165.9000000059605,474259.0,8078,WL,B,7.0
4,14.611999988555908,learn,45388.00001144409,Wed Jun 24 2026 10:35:14 GMT-0500 (Central Daylight Time),475724.90000000596,A,pu,I,u,284,3,1465.9000000059605,474259.0,8078,WL,B,7.0
4,14.894999980926514,learn,45105.000019073486,Wed Jun 24 2026 10:35:14 GMT-0500 (Central Daylight Time),476008.09999999404,A,pup,I,p,263,3,1749.0999999940395,474259.0,8078,WL,B,7.0
4,15.145999908447266,learn,44854.000091552734,Wed Jun 24 2026 10:35:14 GMT-0500 (Central Daylight Time),476258.1999999881,A,pupi,I,i,236,3,1999.199999988079,474259.0,8078,WL,B,7.0
4,15.477999925613403,learn,44522.0000743866,Wed Jun 24 2026 10:35:14 GMT-0500 (Central Daylight Time),476591.09999999404,A,pupil,I,l,314,3,2332.0999999940395,474259.0,8078,WL,B,7.0
4,16.09500002861023,learn,43904.99997138977,Wed Jun 24 2026 10:35:14 GMT-0500 (Central Daylight Time),477207.8000000119,A,pupilenter,I,enter,597,3,2948.800000011921,474259.0,8078,WL,B,7.0
4,16.244999885559082,learn,43755.00011444092,Wed Jun 24 2026 10:35:14 GMT-0500 (Central Daylight Time),477357.59999999404,A,a,I,a,142,3,149.5,477208.09999999404,8078,WL,B,8.0
4,16.494999885559082,learn,43505.00011444092,Wed Jun 24 2026 10:35:14 GMT-0500 (Central Daylight Time),477607.8000000119,A,ar,I,r,231,3,399.7000000178814,477208.09999999404,8078,WL,B,8.0
4,17.128000020980835,learn,42871.999979019165,Wed Jun 24 2026 10:35:14 GMT-0500 (Central Daylight Time),478240.6999999881,A,arm,I,m,620,3,1032.5999999940395,477208.09999999404,8078,WL,B,8.0
4,17.710999965667725,learn,42289.000034332275,Wed Jun 24 2026 10:35:14 GMT-0500 (Central Daylight Time),478823.59999999404,A,armenter,I,enter,564,3,1615.5,477208.09999999404,8078,WL,B,8.0
4,18.16100001335144,learn,41838.99998664856,Wed Jun 24 2026 10:35:14 GMT-0500 (Central Daylight Time),479273.8000000119,A,s,I,s,436,3,449.90000000596046,478823.90000000596,8078,WL,B,9.0
4,18.460999965667725,learn,41539.000034332275,Wed Jun 24 2026 10:35:14 GMT-0500 (Central Daylight Time),479573.59999999404,A,sk,I,k,283,3,749.6999999880791,478823.90000000596,8078,WL,B,9.0
4,18.72699999809265,learn,41273.00000190735,Wed Jun 24 2026 10:35:14 GMT-0500 (Central Daylight Time),479840.1999999881,A,ski,I,i,247,3,1016.2999999821186,478823.90000000596,8078,WL,B,9.0
4,19.359999895095825,learn,40640.000104904175,Wed Jun 24 2026 10:35:14 GMT-0500 (Central Daylight Time),480473.09999999404,A,skin,I,n,612,3,1649.199999988079,478823.90000000596,8078,WL,B,9.0
4,19.876999855041504,learn,40123.000144958496,Wed Jun 24 2026 10:35:14 GMT-0500 (Central Daylight Time),480989.8000000119,A,skinenter,I,enter,500,3,2165.9000000059605,478823.90000000596,8078,WL,B,9.0
4,20.72699999809265,learn,39273.00000190735,Wed Jun 24 2026 10:35:14 GMT-0500 (Central Daylight Time),481839.8000000119,A,c,I,c,831,3,849.6000000238419,480990.1999999881,8078,WL,B,10.0
4,20.89299988746643,learn,39107.00011253357,Wed Jun 24 2026 10:35:14 GMT-0500 (Central Daylight Time),482006.0,A,ca,I,a,148,3,1015.8000000119209,480990.1999999881,8078,WL,B,10.0
4,21.22599983215332,learn,38774.00016784668,Wed Jun 24 2026 10:35:14 GMT-0500 (Central Daylight Time),482339.3000000119,A,cab,I,b,327,3,1349.1000000238419,480990.1999999881,8078,WL,B,10.0
4,21.39299988746643,learn,38607.00011253357,Wed Jun 24 2026 10:35:14 GMT-0500 (Central Daylight Time),482505.5,A,cabi,I,i,161,3,1515.300000011921,480990.1999999881,8078,WL,B,10.0
4,21.610999822616577,learn,38389.00017738342,Wed Jun 24 2026 10:35:14 GMT-0500 (Central Daylight Time),482723.5,A,cabin,I,n,212,3,1733.300000011921,480990.1999999881,8078,WL,B,10.0
4,22.05999994277954,learn,37940.00005722046,Wed Jun 24 2026 10:35:14 GMT-0500 (Central Daylight Time),483172.59999999404,A,cabinenter,I,enter,434,3,2182.4000000059605,480990.1999999881,8078,WL,B,10.0
4,22.908999919891357,learn,37091.00008010864,Wed Jun 24 2026 10:35:14 GMT-0500 (Central Daylight Time),484022.0,A,c,I,c,840,3,849.0,483173.0,8078,WL,B,11.0
4,23.026000022888184,learn,36973.99997711182,Wed Jun 24 2026 10:35:14 GMT-0500 (Central Daylight Time),484138.59999999404,A,ci,I,i,110,3,965.5999999940395,483173.0,8078,WL,B,11.0
4,23.276000022888184,learn,36723.99997711182,Wed Jun 24 2026 10:35:14 GMT-0500 (Central Daylight Time),484388.8000000119,A,cit,I,t,242,3,1215.800000011921,483173.0,8078,WL,B,11.0
4,23.82699990272522,learn,36173.00009727478,Wed Jun 24 2026 10:35:14 GMT-0500 (Central Daylight Time),484939.40000000596,A,city,I,y,544,3,1766.4000000059605,483173.0,8078,WL,B,11.0
4,25.407999992370605,learn,34592.000007629395,Wed Jun 24 2026 10:35:14 GMT-0500 (Central Daylight Time),486521.3000000119,A,cityenter,I,enter,1577,3,3348.300000011921,483173.0,8078,WL,B,11.0
4,25.875,learn,34125.0,Wed Jun 24 2026 10:35:14 GMT-0500 (Central Daylight Time),486987.8000000119,A,f,I,f,451,3,466.40000000596046,486521.40000000596,8078,WL,B,12.0
4,26.125,learn,33875.0,Wed Jun 24 2026 10:35:14 GMT-0500 (Central Daylight Time),487237.59999999404,A,fi,I,i,241,3,716.1999999880791,486521.40000000596,8078,WL,B,12.0
4,26.307999849319458,learn,33692.00015068054,Wed Jun 24 2026 10:35:14 GMT-0500 (Central Daylight Time),487421.09999999404,A,fir,I,r,175,3,899.6999999880791,486521.40000000596,8078,WL,B,12.0
4,26.875,learn,33125.0,Wed Jun 24 2026 10:35:14 GMT-0500 (Central Daylight Time),487987.59999999404,A,fire,I,e,551,3,1466.199999988079,486521.40000000596,8078,WL,B,12.0
4,27.073999881744385,learn,32926.000118255615,Wed Jun 24 2026 10:35:14 GMT-0500 (Central Daylight Time),488187.3000000119,A,fireenter,I,enter,186,3,1665.9000000059605,486521.40000000596,8078,WL,B,12.0
4,27.85699987411499,learn,32143.00012588501,Wed Jun 24 2026 10:35:14 GMT-0500 (Central Daylight Time),488970.3000000119,A,s,I,s,778,3,782.7000000178814,488187.59999999404,8078,WL,B,13.0
4,28.307999849319458,learn,31692.000150680542,Wed Jun 24 2026 10:35:14 GMT-0500 (Central Daylight Time),489420.5,A,st,I,t,434,3,1232.9000000059605,488187.59999999404,8078,WL,B,13.0
4,28.62399983406067,learn,31376.00016593933,Wed Jun 24 2026 10:35:14 GMT-0500 (Central Daylight Time),489737.09999999404,A,sta,I,a,296,3,1549.5,488187.59999999404,8078,WL,B,13.0
4,29.141000032424927,learn,30858.999967575073,Wed Jun 24 2026 10:35:14 GMT-0500 (Central Daylight Time),490253.6999999881,A,star,I,r,508,3,2066.0999999940395,488187.59999999404,8078,WL,B,13.0
4,29.406999826431274,learn,30593.000173568726,Wed Jun 24 2026 10:35:14 GMT-0500 (Central Daylight Time),490520.09999999404,A,starenter,I,enter,255,3,2332.5,488187.59999999404,8078,WL,B,13.0
4,30.37399983406067,learn,29626.00016593933,Wed Jun 24 2026 10:35:14 GMT-0500 (Central Daylight Time),491486.40000000596,A,p,I,p,957,3,965.9000000059605,490520.5,8078,WL,B,14.0
4,30.639999866485596,learn,29360.000133514404,Wed Jun 24 2026 10:35:14 GMT-0500 (Central Daylight Time),491753.0,A,pu,I,u,255,3,1232.5,490520.5,8078,WL,B,14.0
4,30.9229998588562,learn,29077.0001411438,Wed Jun 24 2026 10:35:14 GMT-0500 (Central Daylight Time),492036.09999999404,A,pup,I,p,267,3,1515.5999999940395,490520.5,8078,WL,B,14.0
4,31.19000005722046,learn,28809.99994277954,Wed Jun 24 2026 10:35:14 GMT-0500 (Central Daylight Time),492302.8000000119,A,pupi,I,i,256,3,1782.300000011921,490520.5,8078,WL,B,14.0
4,31.655999898910522,learn,28344.000101089478,Wed Jun 24 2026 10:35:14 GMT-0500 (Central Daylight Time),492769.0,A,pupil,I,l,462,3,2248.5,490520.5,8078,WL,B,14.0
4,32.10599994659424,learn,27894.00005340576,Wed Jun 24 2026 10:35:14 GMT-0500 (Central Daylight Time),493219.3000000119,A,pupilenter,I,enter,443,3,2698.800000011921,490520.5,8078,WL,B,14.0
4,32.94000005722046,learn,27059.99994277954,Wed Jun 24 2026 10:35:14 GMT-0500 (Central Daylight Time),494052.6999999881,A,p,I,p,817,3,833.0999999940395,493219.59999999404,8078,WL,B,15.0
4,33.25600004196167,learn,26743.99995803833,Wed Jun 24 2026 10:35:14 GMT-0500 (Central Daylight Time),494369.0,A,pi,I,i,311,3,1149.4000000059605,493219.59999999404,8078,WL,B,15.0
4,33.57299995422363,learn,26427.000045776367,Wed Jun 24 2026 10:35:14 GMT-0500 (Central Daylight Time),494685.40000000596,A,pip,I,p,307,3,1465.800000011921,493219.59999999404,8078,WL,B,15.0
4,34.07299995422363,learn,25927.000045776367,Wed Jun 24 2026 10:35:14 GMT-0500 (Central Daylight Time),495185.8000000119,A,pipe,I,e,495,3,1966.2000000178814,493219.59999999404,8078,WL,B,15.0
4,34.28999996185303,learn,25710.000038146973,Wed Jun 24 2026 10:35:14 GMT-0500 (Central Daylight Time),495402.8000000119,A,pipeenter,I,enter,211,3,2183.2000000178814,493219.59999999404,8078,WL,B,15.0
5,0.5500001907348633,learn,60000.0,Wed Jun 24 2026 10:35:14 GMT-0500 (Central Daylight Time),564763.6999999881,A,a,I,a,536,3,549.6999999880791,564214.0,8078,WL,B,1.0
5,0.7990000247955322,learn,60000.0,Wed Jun 24 2026 10:35:14 GMT-0500 (Central Daylight Time),565013.3000000119,A,ar,I,r,232,3,799.3000000119209,564214.0,8078,WL,B,1.0
5,2.116000175476074,learn,60000.0,Wed Jun 24 2026 10:35:14 GMT-0500 (Central Daylight Time),566329.8000000119,A,arm,I,m,1312,3,2115.800000011921,564214.0,8078,WL,B,1.0
5,2.7160000801086426,learn,60000.0,Wed Jun 24 2026 10:35:14 GMT-0500 (Central Daylight Time),566929.5,A,armenter,I,enter,588,3,2715.5,564214.0,8078,WL,B,1.0
5,2.932000160217285,learn,60000.0,Wed Jun 24 2026 10:35:14 GMT-0500 (Central Daylight Time),567146.1999999881,A,a,I,a,203,3,216.2999999821186,566929.900000006,8078,WL,B,2.0
5,4.04800009727478,learn,60000.0,Wed Jun 24 2026 10:35:14 GMT-0500 (Central Daylight Time),568262.400000006,A,,I,backspace,1098,3,1332.5,566929.900000006,8078,WL,B,2.0
5,4.498000144958496,learn,60000.0,Wed Jun 24 2026 10:35:14 GMT-0500 (Central Daylight Time),568712.0,A,a,I,a,430,3,1782.0999999940395,566929.900000006,8078,WL,B,2.0
5,4.748000144958496,learn,60000.0,Wed Jun 24 2026 10:35:14 GMT-0500 (Central Daylight Time),568962.1999999881,A,ak,I,k,236,3,2032.2999999821186,566929.900000006,8078,WL,B,2.0
5,4.965000152587891,learn,60000.0,Wed Jun 24 2026 10:35:14 GMT-0500 (Central Daylight Time),569178.8000000119,A,aki,I,i,202,3,2248.9000000059605,566929.900000006,8078,WL,B,2.0
5,5.198000192642212,learn,60000.0,Wed Jun 24 2026 10:35:14 GMT-0500 (Central Daylight Time),569412.099999994,A,akin,I,n,218,3,2482.199999988079,566929.900000006,8078,WL,B,2.0
5,5.815000057220459,learn,60000.0,Wed Jun 24 2026 10:35:14 GMT-0500 (Central Daylight Time),570028.599999994,A,akinenter,I,enter,600,3,3098.699999988079,566929.900000006,8078,WL,B,2.0
5,7.547000169754028,learn,60000.0,Wed Jun 24 2026 10:35:14 GMT-0500 (Central Daylight Time),571761.3000000119,A,p,I,p,1720,3,1732.300000011921,570029.0,8078,WL,B,3.0
5,7.763000011444092,learn,60000.0,Wed Jun 24 2026 10:35:14 GMT-0500 (Central Daylight Time),571977.5,A,pu,I,u,203,3,1948.5,570029.0,8078,WL,B,3.0
5,8.014000177383423,learn,60000.0,Wed Jun 24 2026 10:35:14 GMT-0500 (Central Daylight Time),572228.0,A,pup,I,p,235,3,2199.0,570029.0,8078,WL,B,3.0
5,8.847000122070312,learn,60000.0,Wed Jun 24 2026 10:35:14 GMT-0500 (Central Daylight Time),573060.900000006,A,pupl,I,l,825,3,3031.9000000059605,570029.0,8078,WL,B,3.0
5,9.11300015449524,learn,60000.0,Wed Jun 24 2026 10:35:14 GMT-0500 (Central Daylight Time),573327.5,A,puplw,I,w,255,3,3298.5,570029.0,8078,WL,B,3.0
5,9.413000106811523,learn,60000.0,Wed Jun 24 2026 10:35:14 GMT-0500 (Central Daylight Time),573627.400000006,A,puplwenter,I,enter,285,3,3598.4000000059605,570029.0,8078,WL,B,3.0
5,10.296000003814697,learn,60000.0,Wed Jun 24 2026 10:35:14 GMT-0500 (Central Daylight Time),574510.5,A,p,I,p,873,3,882.8000000119209,573627.6999999881,8078,WL,B,4.0
5,10.629000186920166,learn,60000.0,Wed Jun 24 2026 10:35:14 GMT-0500 (Central Daylight Time),574843.400000006,A,pi,I,i,326,3,1215.7000000178814,573627.6999999881,8078,WL,B,4.0
5,11.046000003814697,learn,60000.0,Wed Jun 24 2026 10:35:14 GMT-0500 (Central Daylight Time),575260.3000000119,A,pip,I,p,410,3,1632.6000000238419,573627.6999999881,8078,WL,B,4.0
5,11.529000043869019,learn,60000.0,Wed Jun 24 2026 10:35:14 GMT-0500 (Central Daylight Time),575743.400000006,A,pipw,I,w,472,3,2115.7000000178814,573627.6999999881,8078,WL,B,4.0
5,11.796000003814697,learn,60000.0,Wed Jun 24 2026 10:35:14 GMT-0500 (Central Daylight Time),576009.900000006,A,pipwenter,I,enter,253,3,2382.2000000178814,573627.6999999881,8078,WL,B,4.0
5,13.229000091552734,learn,60000.0,Wed Jun 24 2026 10:35:14 GMT-0500 (Central Daylight Time),577442.900000006,A,x,I,x,1418,3,1432.800000011921,576010.099999994,8078,WL,B,5.0
5,13.379000186920166,learn,60000.0,Wed Jun 24 2026 10:35:14 GMT-0500 (Central Daylight Time),577592.8000000119,A,xk,I,k,137,3,1582.7000000178814,576010.099999994,8078,WL,B,5.0
5,13.978000164031982,learn,60000.0,Wed Jun 24 2026 10:35:14 GMT-0500 (Central Daylight Time),578192.599999994,A,x,I,backspace,579,3,2182.5,576010.099999994,8078,WL,B,5.0
5,14.162000179290771,learn,60000.0,Wed Jun 24 2026 10:35:14 GMT-0500 (Central Daylight Time),578375.8000000119,A,,I,backspace,172,3,2365.7000000178814,576010.099999994,8078,WL,B,5.0
5,15.34500002861023,learn,60000.0,Wed Jun 24 2026 10:35:14 GMT-0500 (Central Daylight Time),579558.8000000119,A,c,I,c,1172,3,3548.7000000178814,576010.099999994,8078,WL,B,5.0
5,15.528000116348267,learn,60000.0,Wed Jun 24 2026 10:35:14 GMT-0500 (Central Daylight Time),579742.099999994,A,ci,I,i,174,3,3732.0,576010.099999994,8078,WL,B,5.0
5,15.82800006866455,learn,60000.0,Wed Jun 24 2026 10:35:14 GMT-0500 (Central Daylight Time),580041.6999999881,A,cit,I,t,279,3,4031.5999999940395,576010.099999994,8078,WL,B,5.0
5,15.978000164031982,learn,60000.0,Wed Jun 24 2026 10:35:14 GMT-0500 (Central Daylight Time),580191.8000000119,A,city,I,y,130,3,4181.700000017881,576010.099999994,8078,WL,B,5.0
5,16.511000156402588,learn,60000.0,Wed Jun 24 2026 10:35:14 GMT-0500 (Central Daylight Time),580725.3000000119,A,cityenter,I,enter,517,3,4715.200000017881,576010.099999994,8078,WL,B,5.0
5,16.861000061035156,learn,60000.0,Wed Jun 24 2026 10:35:14 GMT-0500 (Central Daylight Time),581075.099999994,A,a,I,a,343,3,349.5,580725.599999994,8078,WL,B,6.0
5,17.0770001411438,learn,60000.0,Wed Jun 24 2026 10:35:14 GMT-0500 (Central Daylight Time),581291.3000000119,A,ar,I,r,209,3,565.7000000178814,580725.599999994,8078,WL,B,6.0
5,17.627000093460083,learn,60000.0,Wed Jun 24 2026 10:35:14 GMT-0500 (Central Daylight Time),581841.400000006,A,a,I,backspace,545,3,1115.800000011921,580725.599999994,8078,WL,B,6.0
5,17.811000108718872,learn,60000.0,Wed Jun 24 2026 10:35:14 GMT-0500 (Central Daylight Time),582024.8000000119,A,,I,backspace,171,3,1299.2000000178814,580725.599999994,8078,WL,B,6.0
5,18.610000133514404,learn,60000.0,Wed Jun 24 2026 10:35:14 GMT-0500 (Central Daylight Time),582824.3000000119,A,s,I,s,788,3,2098.7000000178814,580725.599999994,8078,WL,B,6.0
5,19.16000008583069,learn,60000.0,Wed Jun 24 2026 10:35:14 GMT-0500 (Central Daylight Time),583373.900000006,A,st,I,t,540,3,2648.300000011921,580725.599999994,8078,WL,B,6.0
5,19.39400005340576,learn,60000.0,Wed Jun 24 2026 10:35:14 GMT-0500 (Central Daylight Time),583607.6999999881,A,str,I,r,223,3,2882.0999999940395,580725.599999994,8078,WL,B,6.0
5,19.759999990463257,learn,60000.0,Wed Jun 24 2026 10:35:14 GMT-0500 (Central Daylight Time),583974.099999994,A,stre,I,e,349,3,3248.5,580725.599999994,8078,WL,B,6.0
5,19.89300012588501,learn,60000.0,Wed Jun 24 2026 10:35:14 GMT-0500 (Central Daylight Time),584107.400000006,A,stree,I,e,118,3,3381.800000011921,580725.599999994,8078,WL,B,6.0
5,20.0770001411438,learn,60000.0,Wed Jun 24 2026 10:35:14 GMT-0500 (Central Daylight Time),584290.6999999881,A,street,I,t,177,3,3565.0999999940395,580725.599999994,8078,WL,B,6.0
5,21.044000148773193,learn,60000.0,Wed Jun 24 2026 10:35:14 GMT-0500 (Central Daylight Time),585258.0,A,streetenter,I,enter,946,3,4532.4000000059605,580725.599999994,8078,WL,B,6.0
5,21.37600016593933,learn,60000.0,Wed Jun 24 2026 10:35:14 GMT-0500 (Central Daylight Time),585590.400000006,A,w,I,w,314,3,332.0,585258.400000006,8078,WL,B,7.0
5,21.826000213623047,learn,60000.0,Wed Jun 24 2026 10:35:14 GMT-0500 (Central Daylight Time),586040.099999994,A,wi,I,i,430,3,781.6999999880791,585258.400000006,8078,WL,B,7.0
5,22.026000022888184,learn,60000.0,Wed Jun 24 2026 10:35:14 GMT-0500 (Central Daylight Time),586240.0,A,win,I,n,190,3,981.5999999940395,585258.400000006,8078,WL,B,7.0
5,22.343000173568726,learn,60000.0,Wed Jun 24 2026 10:35:14 GMT-0500 (Central Daylight Time),586556.900000006,A,wind,I,d,300,3,1298.5,585258.400000006,8078,WL,B,7.0
5,22.62600016593933,learn,60000.0,Wed Jun 24 2026 10:35:14 GMT-0500 (Central Daylight Time),586839.8000000119,A,windw,I,w,273,3,1581.4000000059605,585258.400000006,8078,WL,B,7.0
5,23.29200005531311,learn,60000.0,Wed Jun 24 2026 10:35:14 GMT-0500 (Central Daylight Time),587506.5,A,wind,I,backspace,653,3,2248.0999999940395,585258.400000006,8078,WL,B,7.0
5,23.79200005531311,learn,60000.0,Wed Jun 24 2026 10:35:14 GMT-0500 (Central Daylight Time),588006.099999994,A,windo,I,o,481,3,2747.699999988079,585258.400000006,8078,WL,B,7.0
5,23.892000198364258,learn,60000.0,Wed Jun 24 2026 10:35:14 GMT-0500 (Central Daylight Time),588106.099999994,A,window,I,w,94,3,2847.699999988079,585258.400000006,8078,WL,B,7.0
5,25.407999992370605,learn,60000.0,Wed Jun 24 2026 10:35:14 GMT-0500 (Central Daylight Time),589622.5,A,windowenter,I,enter,1507,3,4364.0999999940395,585258.400000006,8078,WL,B,7.0
5,25.95800018310547,learn,60000.0,Wed Jun 24 2026 10:35:14 GMT-0500 (Central Daylight Time),590172.1999999881,A,d,I,d,542,3,549.5,589622.6999999881,8078,WL,B,8.0
5,26.44100022315979,learn,60000.0,Wed Jun 24 2026 10:35:14 GMT-0500 (Central Daylight Time),590655.3000000119,A,do,I,o,472,3,1032.6000000238419,589622.6999999881,8078,WL,B,8.0
5,26.625,learn,60000.0,Wed Jun 24 2026 10:35:14 GMT-0500 (Central Daylight Time),590838.6999999881,A,doo,I,o,172,3,1216.0,589622.6999999881,8078,WL,B,8.0
5,26.776000022888184,learn,60000.0,Wed Jun 24 2026 10:35:14 GMT-0500 (Central Daylight Time),590989.6999999881,A,door,I,r,142,3,1367.0,589622.6999999881,8078,WL,B,8.0
5,27.091000080108643,learn,60000.0,Wed Jun 24 2026 10:35:14 GMT-0500 (Central Daylight Time),591305.1999999881,A,doorenter,I,enter,310,3,1682.5,589622.6999999881,8078,WL,B,8.0
5,28.091000080108643,learn,60000.0,Wed Jun 24 2026 10:35:14 GMT-0500 (Central Daylight Time),592304.900000006,A,w,I,w,988,3,999.4000000059605,591305.5,8078,WL,B,9.0
5,28.19100022315979,learn,60000.0,Wed Jun 24 2026 10:35:14 GMT-0500 (Central Daylight Time),592404.8000000119,A,wi,I,i,92,3,1099.300000011921,591305.5,8078,WL,B,9.0
5,28.425000190734863,learn,60000.0,Wed Jun 24 2026 10:35:14 GMT-0500 (Central Daylight Time),592639.3000000119,A,wif,I,f,216,3,1333.800000011921,591305.5,8078,WL,B,9.0
5,28.85700011253357,learn,60000.0,Wed Jun 24 2026 10:35:14 GMT-0500 (Central Daylight Time),593071.3000000119,A,wife,I,e,421,3,1765.800000011921,591305.5,8078,WL,B,9.0
5,29.057000160217285,learn,60000.0,Wed Jun 24 2026 10:35:14 GMT-0500 (Central Daylight Time),593271.1999999881,A,wifeenter,I,enter,189,3,1965.699999988079,591305.5,8078,WL,B,9.0
5,29.674000024795532,learn,60000.0,Wed Jun 24 2026 10:35:14 GMT-0500 (Central Daylight Time),593887.6999999881,A,c,I,c,605,3,616.1999999880791,593271.5,8078,WL,B,10.0
5,29.873000144958496,learn,60000.0,Wed Jun 24 2026 10:35:14 GMT-0500 (Central Daylight Time),594087.5,A,ci,I,i,180,3,816.0,593271.5,8078,WL,B,10.0
5,30.140000104904175,learn,60000.0,Wed Jun 24 2026 10:35:14 GMT-0500 (Central Daylight Time),594354.400000006,A,cit,I,t,254,3,1082.9000000059605,593271.5,8078,WL,B,10.0
5,30.323000192642212,learn,60000.0,Wed Jun 24 2026 10:35:14 GMT-0500 (Central Daylight Time),594537.5,A,city,I,y,163,3,1266.0,593271.5,8078,WL,B,10.0
5,30.790000200271606,learn,60000.0,Wed Jun 24 2026 10:35:14 GMT-0500 (Central Daylight Time),595004.099999994,A,cityenter,I,enter,451,3,1732.5999999940395,593271.5,8078,WL,B,10.0
5,32.35600018501282,learn,60000.0,Wed Jun 24 2026 10:35:14 GMT-0500 (Central Daylight Time),596569.900000006,A,a,I,a,1561,3,1565.5999999940395,595004.3000000119,8078,WL,B,11.0
5,32.539000034332275,learn,60000.0,Wed Jun 24 2026 10:35:14 GMT-0500 (Central Daylight Time),596753.599999994,A,ar,I,r,178,3,1749.2999999821186,595004.3000000119,8078,WL,B,11.0
5,33.555999994277954,learn,60000.0,Wed Jun 24 2026 10:35:14 GMT-0500 (Central Daylight Time),597769.6999999881,A,arm,I,m,1011,3,2765.399999976158,595004.3000000119,8078,WL,B,11.0
5,34.140000104904175,learn,60000.0,Wed Jun 24 2026 10:35:14 GMT-0500 (Central Daylight Time),598354.0,A,armenter,I,enter,562,3,3349.699999988079,595004.3000000119,8078,WL,B,11.0
5,36.23800015449524,learn,60000.0,Wed Jun 24 2026 10:35:14 GMT-0500 (Central Daylight Time),600452.099999994,A,p,I,p,2090,3,2097.699999988079,598354.400000006,8078,WL,B,12.0
5,36.63800001144409,learn,60000.0,Wed Jun 24 2026 10:35:14 GMT-0500 (Central Daylight Time),600851.900000006,A,pu,I,u,392,3,2497.5,598354.400000006,8078,WL,B,12.0
5,37.105000019073486,learn,60000.0,Wed Jun 24 2026 10:35:14 GMT-0500 (Central Daylight Time),601318.6999999881,A,pup,I,p,457,3,2964.2999999821186,598354.400000006,8078,WL,B,12.0
5,37.4539999961853,learn,60000.0,Wed Jun 24 2026 10:35:14 GMT-0500 (Central Daylight Time),601668.6999999881,A,pupl,I,l,342,3,3314.2999999821186,598354.400000006,8078,WL,B,12.0
5,37.7039999961853,learn,60000.0,Wed Jun 24 2026 10:35:14 GMT-0500 (Central Daylight Time),601918.599999994,A,puple,I,e,232,3,3564.199999988079,598354.400000006,8078,WL,B,12.0
5,38.104000091552734,learn,60000.0,Wed Jun 24 2026 10:35:14 GMT-0500 (Central Daylight Time),602318.1999999881,A,pupleenter,I,enter,382,3,3963.7999999821186,598354.400000006,8078,WL,B,12.0
5,39.087000131607056,learn,60000.0,Wed Jun 24 2026 10:35:14 GMT-0500 (Central Daylight Time),603301.400000006,A,p,I,p,966,3,982.9000000059605,602318.5,8078,WL,B,13.0
5,39.38700008392334,learn,60000.0,Wed Jun 24 2026 10:35:14 GMT-0500 (Central Daylight Time),603601.3000000119,A,pi,I,i,279,3,1282.800000011921,602318.5,8078,WL,B,13.0
5,40.48699998855591,learn,60000.0,Wed Jun 24 2026 10:35:14 GMT-0500 (Central Daylight Time),604700.900000006,A,pip,I,p,1091,3,2382.4000000059605,602318.5,8078,WL,B,13.0
5,40.85300016403198,learn,60000.0,Wed Jun 24 2026 10:35:14 GMT-0500 (Central Daylight Time),605067.599999994,A,pipe,I,e,359,3,2749.0999999940395,602318.5,8078,WL,B,13.0
5,41.22000002861023,learn,60000.0,Wed Jun 24 2026 10:35:14 GMT-0500 (Central Daylight Time),605433.900000006,A,pipeenter,I,enter,361,3,3115.4000000059605,602318.5,8078,WL,B,13.0
5,42.85300016403198,learn,60000.0,Wed Jun 24 2026 10:35:14 GMT-0500 (Central Daylight Time),607066.900000006,A,c,I,c,1627,3,1632.7000000178814,605434.1999999881,8078,WL,B,14.0
5,43.03600001335144,learn,60000.0,Wed Jun 24 2026 10:35:14 GMT-0500 (Central Daylight Time),607250.099999994,A,ca,I,a,162,3,1815.9000000059605,605434.1999999881,8078,WL,B,14.0
5,43.45300006866455,learn,60000.0,Wed Jun 24 2026 10:35:14 GMT-0500 (Central Daylight Time),607666.8000000119,A,cab,I,b,404,3,2232.600000023842,605434.1999999881,8078,WL,B,14.0
5,43.63600015640259,learn,60000.0,Wed Jun 24 2026 10:35:14 GMT-0500 (Central Daylight Time),607849.900000006,A,cabi,I,i,163,3,2415.7000000178814,605434.1999999881,8078,WL,B,14.0
5,43.819000005722046,learn,60000.0,Wed Jun 24 2026 10:35:14 GMT-0500 (Central Daylight Time),608033.1999999881,A,cabin,I,n,162,3,2599.0,605434.1999999881,8078,WL,B,14.0
5,44.28700017929077,learn,60000.0,Wed Jun 24 2026 10:35:14 GMT-0500 (Central Daylight Time),608500.8000000119,A,cabinenter,I,enter,460,3,3066.600000023842,605434.1999999881,8078,WL,B,14.0
5,44.76900005340576,learn,60000.0,Wed Jun 24 2026 10:35:14 GMT-0500 (Central Daylight Time),608982.900000006,A,c,I,c,464,3,481.80000001192093,608501.099999994,8078,WL,B,15.0
5,45.01900005340576,learn,60000.0,Wed Jun 24 2026 10:35:14 GMT-0500 (Central Daylight Time),609232.900000006,A,ci,I,i,237,3,731.8000000119209,608501.099999994,8078,WL,B,15.0
5,45.2020001411438,learn,60000.0,Wed Jun 24 2026 10:35:14 GMT-0500 (Central Daylight Time),609416.0,A,cit,I,t,172,3,914.9000000059605,608501.099999994,8078,WL,B,15.0
5,45.718000173568726,learn,60000.0,Wed Jun 24 2026 10:35:14 GMT-0500 (Central Daylight Time),609932.5,A,city,I,y,509,3,1431.4000000059605,608501.099999994,8078,WL,B,15.0
5,46.61900019645691,learn,60000.0,Wed Jun 24 2026 10:35:14 GMT-0500 (Central Daylight Time),610833.1999999881,A,cityenter,I,enter,880,3,2332.0999999940395,608501.099999994,8078,WL,B,15.0
6,2.2829999923706055,distr,57717.000007629395,Wed Jun 24 2026 10:35:14 GMT-0500 (Central Daylight Time),683326.3000000119,B,b,I,b,2274,3,2282.5,681043.8000000119,8078,WL,B,1.0
6,2.433000087738037,distr,57566.99991226196,Wed Jun 24 2026 10:35:14 GMT-0500 (Central Daylight Time),683476.0,B,ba,I,a,141,3,2432.199999988079,681043.8000000119,8078,WL,B,1.0
6,3.0,distr,57000.0,Wed Jun 24 2026 10:35:14 GMT-0500 (Central Daylight Time),684043.599999994,B,bab,I,b,560,3,2999.7999999821186,681043.8000000119,8078,WL,B,1.0
6,3.9160001277923584,distr,56083.99987220764,Wed Jun 24 2026 10:35:14 GMT-0500 (Central Daylight Time),684959.099999994,B,baby,I,y,905,3,3915.2999999821186,681043.8000000119,8078,WL,B,1.0
6,4.466000080108643,distr,55533.99991989136,Wed Jun 24 2026 10:35:14 GMT-0500 (Central Daylight Time),685508.900000006,B,babyenter,I,enter,541,3,4465.0999999940395,681043.8000000119,8078,WL,B,1.0
6,5.199000120162964,distr,54800.999879837036,Wed Jun 24 2026 10:35:14 GMT-0500 (Central Daylight Time),686241.900000006,B,p,I,p,713,3,732.7000000178814,685509.1999999881,8078,WL,B,2.0
6,5.366000175476074,distr,54633.999824523926,Wed Jun 24 2026 10:35:14 GMT-0500 (Central Daylight Time),686408.900000006,B,pa,I,a,146,3,899.7000000178814,685509.1999999881,8078,WL,B,2.0
6,6.04800009727478,distr,53951.99990272522,Wed Jun 24 2026 10:35:14 GMT-0500 (Central Daylight Time),687091.6999999881,B,pal,I,l,668,3,1582.5,685509.1999999881,8078,WL,B,2.0
6,6.2820000648498535,distr,53717.99993515015,Wed Jun 24 2026 10:35:14 GMT-0500 (Central Daylight Time),687325.0,B,pala,I,a,217,3,1815.800000011921,685509.1999999881,8078,WL,B,2.0
6,6.8480000495910645,distr,53151.999950408936,Wed Jun 24 2026 10:35:14 GMT-0500 (Central Daylight Time),687891.400000006,B,palac,I,c,558,3,2382.2000000178814,685509.1999999881,8078,WL,B,2.0
6,7.281000137329102,distr,52718.9998626709,Wed Jun 24 2026 10:35:14 GMT-0500 (Central Daylight Time),688324.599999994,B,palace,I,e,425,3,2815.4000000059605,685509.1999999881,8078,WL,B,2.0
6,7.498000144958496,distr,52501.999855041504,Wed Jun 24 2026 10:35:14 GMT-0500 (Central Daylight Time),688541.400000006,B,palaceenter,I,enter,208,3,3032.2000000178814,685509.1999999881,8078,WL,B,2.0
6,8.099000215530396,distr,51900.999784469604,Wed Jun 24 2026 10:35:14 GMT-0500 (Central Daylight Time),689142.1999999881,B,b,I,b,592,3,600.5,688541.6999999881,8078,WL,B,3.0
6,8.365000009536743,distr,51634.99999046326,Wed Jun 24 2026 10:35:14 GMT-0500 (Central Daylight Time),689407.900000006,B,be,I,e,254,3,866.2000000178814,688541.6999999881,8078,WL,B,3.0
6,8.514000177383423,distr,51485.99982261658,Wed Jun 24 2026 10:35:14 GMT-0500 (Central Daylight Time),689557.5,B,bea,I,a,133,3,1015.8000000119209,688541.6999999881,8078,WL,B,3.0
6,8.964000225067139,distr,51035.99977493286,Wed Jun 24 2026 10:35:14 GMT-0500 (Central Daylight Time),690007.6999999881,B,beac,I,c,439,3,1466.0,688541.6999999881,8078,WL,B,3.0
6,9.13100004196167,distr,50868.99995803833,Wed Jun 24 2026 10:35:14 GMT-0500 (Central Daylight Time),690174.1999999881,B,beach,I,h,149,3,1632.5,688541.6999999881,8078,WL,B,3.0
6,9.864000082015991,distr,50135.99991798401,Wed Jun 24 2026 10:35:14 GMT-0500 (Central Daylight Time),690907.400000006,B,beachenter,I,enter,719,3,2365.7000000178814,688541.6999999881,8078,WL,B,3.0
6,10.147000074386597,distr,49852.9999256134,Wed Jun 24 2026 10:35:14 GMT-0500 (Central Daylight Time),691190.1999999881,B,c,I,c,265,3,282.59999999403954,690907.599999994,8078,WL,B,4.0
6,10.364000082015991,distr,49635.99991798401,Wed Jun 24 2026 10:35:14 GMT-0500 (Central Daylight Time),691407.0,B,ce,I,e,206,3,499.40000000596046,690907.599999994,8078,WL,B,4.0
6,10.930000066757202,distr,49069.9999332428,Wed Jun 24 2026 10:35:14 GMT-0500 (Central Daylight Time),691973.599999994,B,cel,I,l,558,3,1066.0,690907.599999994,8078,WL,B,4.0
6,11.147000074386597,distr,48852.9999256134,Wed Jun 24 2026 10:35:14 GMT-0500 (Central Daylight Time),692190.1999999881,B,cell,I,l,198,3,1282.5999999940395,690907.599999994,8078,WL,B,4.0
6,11.53000020980835,distr,48469.99979019165,Wed Jun 24 2026 10:35:14 GMT-0500 (Central Daylight Time),692573.5,B,cellenter,I,enter,374,3,1665.9000000059605,690907.599999994,8078,WL,B,4.0
6,11.797000169754028,distr,48202.99983024597,Wed Jun 24 2026 10:35:14 GMT-0500 (Central Daylight Time),692840.0,B,s,I,s,247,3,266.19999998807907,692573.8000000119,8078,WL,B,5.0
6,12.03000020980835,distr,47969.99979019165,Wed Jun 24 2026 10:35:14 GMT-0500 (Central Daylight Time),693073.3000000119,B,st,I,t,213,3,499.5,692573.8000000119,8078,WL,B,5.0
6,12.264000177383423,distr,47735.99982261658,Wed Jun 24 2026 10:35:14 GMT-0500 (Central Daylight Time),693307.3000000119,B,sto,I,o,227,3,733.5,692573.8000000119,8078,WL,B,5.0
6,12.481000185012817,distr,47518.99981498718,Wed Jun 24 2026 10:35:14 GMT-0500 (Central Daylight Time),693523.900000006,B,stor,I,r,209,3,950.0999999940395,692573.8000000119,8078,WL,B,5.0
6,12.813000202178955,distr,47186.999797821045,Wed Jun 24 2026 10:35:14 GMT-0500 (Central Daylight Time),693856.400000006,B,storm,I,m,312,3,1282.5999999940395,692573.8000000119,8078,WL,B,5.0
6,13.380000114440918,distr,46619.99988555908,Wed Jun 24 2026 10:35:14 GMT-0500 (Central Daylight Time),694422.8000000119,B,stormenter,I,enter,557,3,1849.0,692573.8000000119,8078,WL,B,5.0
6,15.129000186920166,distr,44870.999813079834,Wed Jun 24 2026 10:35:14 GMT-0500 (Central Daylight Time),696172.1999999881,B,q,I,q,1743,3,1749.0999999940395,694423.099999994,8078,WL,B,6.0
6,15.279000043869019,distr,44720.99995613098,Wed Jun 24 2026 10:35:14 GMT-0500 (Central Daylight Time),696322.5,B,qu,I,u,137,3,1899.4000000059605,694423.099999994,8078,WL,B,6.0
6,15.529000043869019,distr,44470.99995613098,Wed Jun 24 2026 10:35:14 GMT-0500 (Central Daylight Time),696572.3000000119,B,que,I,e,241,3,2149.2000000178814,694423.099999994,8078,WL,B,6.0
6,16.295000076293945,distr,43704.999923706055,Wed Jun 24 2026 10:35:14 GMT-0500 (Central Daylight Time),697338.6999999881,B,quee,I,e,752,3,2915.5999999940395,694423.099999994,8078,WL,B,6.0
6,16.628000020980835,distr,43371.999979019165,Wed Jun 24 2026 10:35:14 GMT-0500 (Central Daylight Time),697671.599999994,B,queen,I,n,323,3,3248.5,694423.099999994,8078,WL,B,6.0
6,17.045000076293945,distr,42954.999923706055,Wed Jun 24 2026 10:35:14 GMT-0500 (Central Daylight Time),698088.3000000119,B,queenenter,I,enter,405,3,3665.2000000178814,694423.099999994,8078,WL,B,6.0
6,17.34500002861023,distr,42654.99997138977,Wed Jun 24 2026 10:35:14 GMT-0500 (Central Daylight Time),698388.0,B,b,I,b,284,3,299.40000000596046,698088.599999994,8078,WL,B,7.0
6,17.57800006866455,distr,42421.99993133545,Wed Jun 24 2026 10:35:14 GMT-0500 (Central Daylight Time),698621.400000006,B,be,I,e,216,3,532.8000000119209,698088.599999994,8078,WL,B,7.0
6,17.728000164031982,distr,42271.99983596802,Wed Jun 24 2026 10:35:14 GMT-0500 (Central Daylight Time),698771.3000000119,B,bea,I,a,143,3,682.7000000178814,698088.599999994,8078,WL,B,7.0
6,18.212000131607056,distr,41787.999868392944,Wed Jun 24 2026 10:35:14 GMT-0500 (Central Daylight Time),699255.0,B,beac,I,c,474,3,1166.4000000059605,698088.599999994,8078,WL,B,7.0
6,18.39400005340576,distr,41605.99994659424,Wed Jun 24 2026 10:35:14 GMT-0500 (Central Daylight Time),699437.599999994,B,beach,I,h,173,3,1349.0,698088.599999994,8078,WL,B,7.0
6,19.41100001335144,distr,40588.99998664856,Wed Jun 24 2026 10:35:14 GMT-0500 (Central Daylight Time),700453.900000006,B,beachenter,I,enter,999,3,2365.300000011921,698088.599999994,8078,WL,B,7.0
6,19.99400019645691,distr,40005.99980354309,Wed Jun 24 2026 10:35:14 GMT-0500 (Central Daylight Time),701037.5,B,s,I,s,566,3,583.1999999880791,700454.3000000119,8078,WL,B,8.0
6,20.22699999809265,distr,39773.00000190735,Wed Jun 24 2026 10:35:14 GMT-0500 (Central Daylight Time),701270.599999994,B,st,I,t,214,3,816.2999999821186,700454.3000000119,8078,WL,B,8.0
6,20.41100001335144,distr,39588.99998664856,Wed Jun 24 2026 10:35:14 GMT-0500 (Central Daylight Time),701453.8000000119,B,sto,I,o,166,3,999.5,700454.3000000119,8078,WL,B,8.0
6,20.562000036239624,distr,39437.999963760376,Wed Jun 24 2026 10:35:14 GMT-0500 (Central Daylight Time),701605.0,B,stor,I,r,142,3,1150.699999988079,700454.3000000119,8078,WL,B,8.0
6,21.927000045776367,distr,38072.99995422363,Wed Jun 24 2026 10:35:14 GMT-0500 (Central Daylight Time),702969.900000006,B,storm,I,m,1359,3,2515.5999999940395,700454.3000000119,8078,WL,B,8.0
6,23.31000018119812,distr,36689.99981880188,Wed Jun 24 2026 10:35:14 GMT-0500 (Central Daylight Time),704353.099999994,B,stormenter,I,enter,1363,3,3898.7999999821186,700454.3000000119,8078,WL,B,8.0
6,23.72699999809265,distr,36273.00000190735,Wed Jun 24 2026 10:35:14 GMT-0500 (Central Daylight Time),704770.599999994,B,a,I,a,395,3,417.2999999821186,704353.3000000119,8078,WL,B,9.0
6,23.89300012588501,distr,36106.99987411499,Wed Jun 24 2026 10:35:14 GMT-0500 (Central Daylight Time),704936.1999999881,B,ar,I,r,145,3,582.8999999761581,704353.3000000119,8078,WL,B,9.0
6,24.3270001411438,distr,35672.9998588562,Wed Jun 24 2026 10:35:14 GMT-0500 (Central Daylight Time),705370.400000006,B,arm,I,m,428,3,1017.0999999940395,704353.3000000119,8078,WL,B,9.0
6,24.87600016593933,distr,35123.99983406067,Wed Jun 24 2026 10:35:14 GMT-0500 (Central Daylight Time),705919.1999999881,B,army,I,y,538,3,1565.8999999761581,704353.3000000119,8078,WL,B,9.0
6,25.426000118255615,distr,34573.999881744385,Wed Jun 24 2026 10:35:14 GMT-0500 (Central Daylight Time),706469.099999994,B,armyenter,I,enter,541,3,2115.7999999821186,704353.3000000119,8078,WL,B,9.0
6,26.20900011062622,distr,33790.99988937378,Wed Jun 24 2026 10:35:14 GMT-0500 (Central Daylight Time),707252.5,B,b,I,b,767,3,783.0999999940395,706469.400000006,8078,WL,B,10.0
6,27.276000022888184,distr,32723.999977111816,Wed Jun 24 2026 10:35:14 GMT-0500 (Central Daylight Time),708318.8000000119,B,,I,backspace,1046,3,1849.4000000059605,706469.400000006,8078,WL,B,10.0
6,27.442000150680542,distr,32557.999849319458,Wed Jun 24 2026 10:35:14 GMT-0500 (Central Daylight Time),708485.099999994,B,s,I,s,157,3,2015.699999988079,706469.400000006,8078,WL,B,10.0
6,27.657999992370605,distr,32342.000007629395,Wed Jun 24 2026 10:35:14 GMT-0500 (Central Daylight Time),708701.6999999881,B,st,I,t,207,3,2232.2999999821186,706469.400000006,8078,WL,B,10.0
6,27.925000190734863,distr,32074.999809265137,Wed Jun 24 2026 10:35:14 GMT-0500 (Central Daylight Time),708968.3000000119,B,str,I,r,255,3,2498.9000000059605,706469.400000006,8078,WL,B,10.0
6,28.125,distr,31875.0,Wed Jun 24 2026 10:35:14 GMT-0500 (Central Daylight Time),709168.0,B,stro,I,o,188,3,2698.5999999940395,706469.400000006,8078,WL,B,10.0
6,28.77500009536743,distr,31224.99990463257,Wed Jun 24 2026 10:35:14 GMT-0500 (Central Daylight Time),709817.900000006,B,strol,I,l,645,3,3348.5,706469.400000006,8078,WL,B,10.0
6,28.975000143051147,distr,31024.999856948853,Wed Jun 24 2026 10:35:14 GMT-0500 (Central Daylight Time),710018.0,B,stroll,I,l,186,3,3548.5999999940395,706469.400000006,8078,WL,B,10.0
6,29.058000087738037,distr,30941.999912261963,Wed Jun 24 2026 10:35:14 GMT-0500 (Central Daylight Time),710101.3000000119,B,strolle,I,e,74,3,3631.9000000059605,706469.400000006,8078,WL,B,10.0
6,29.19100022315979,distr,30808.99977684021,Wed Jun 24 2026 10:35:14 GMT-0500 (Central Daylight Time),710234.5,B,stroller,I,r,120,3,3765.0999999940395,706469.400000006,8078,WL,B,10.0
6,29.475000143051147,distr,30524.999856948853,Wed Jun 24 2026 10:35:14 GMT-0500 (Central Daylight Time),710517.900000006,B,strollerenter,I,enter,274,3,4048.5,706469.400000006,8078,WL,B,10.0
6,33.18500018119812,distr,26814.99981880188,Wed Jun 24 2026 10:35:14 GMT-0500 (Central Daylight Time),714228.400000006,B,f,I,f,3590,3,3710.2000000178814,710518.1999999881,8078,WL,B,11.0
6,33.34000015258789,distr,26659.99984741211,Wed Jun 24 2026 10:35:14 GMT-0500 (Central Daylight Time),714382.8000000119,B,fl,I,l,135,3,3864.600000023842,710518.1999999881,8078,WL,B,11.0
6,33.507000207901,distr,26492.999792099,Wed Jun 24 2026 10:35:14 GMT-0500 (Central Daylight Time),714549.900000006,B,fla,I,a,150,3,4031.7000000178814,710518.1999999881,8078,WL,B,11.0
6,33.9060001373291,distr,26093.9998626709,Wed Jun 24 2026 10:35:14 GMT-0500 (Central Daylight Time),714949.5,B,flag,I,g,382,3,4431.300000011921,710518.1999999881,8078,WL,B,11.0
6,34.10600018501282,distr,25893.999814987183,Wed Jun 24 2026 10:35:14 GMT-0500 (Central Daylight Time),715149.6999999881,B,flagenter,I,enter,192,3,4631.5,710518.1999999881,8078,WL,B,11.0
6,40.32100009918213,distr,19678.99990081787,Wed Jun 24 2026 10:35:14 GMT-0500 (Central Daylight Time),721364.400000006,B,b,I,b,6208,3,6214.300000011921,715150.099999994,8078,WL,B,12.0
6,40.88700008392334,distr,19112.99991607666,Wed Jun 24 2026 10:35:14 GMT-0500 (Central Daylight Time),721930.599999994,B,ba,I,a,553,3,6780.5,715150.099999994,8078,WL,B,12.0
6,42.07000017166138,distr,17929.999828338623,Wed Jun 24 2026 10:35:14 GMT-0500 (Central Daylight Time),723113.6999999881,B,baenter,I,enter,1162,3,7963.5999999940395,715150.099999994,8078,WL,B,12.0
6,53.450000047683716,distr,6549.999952316284,Wed Jun 24 2026 10:35:14 GMT-0500 (Central Daylight Time),734493.5,B,enter,I,enter,11363,3,11379.5,723114.0,8078,WL,B,13.0
6,54.90000009536743,distr,5099.999904632568,Wed Jun 24 2026 10:35:14 GMT-0500 (Central Daylight Time),735943.3000000119,B,enter,I,enter,1430,3,1449.4000000059605,734493.900000006,8078,WL,B,14.0
6,56.932000160217285,distr,3067.999839782715,Wed Jun 24 2026 10:35:14 GMT-0500 (Central Daylight Time),737975.3000000119,B,enter,I,enter,2013,3,2031.6000000238419,735943.6999999881,8078,WL,B,15.0
7,1.317000150680542,immed,58682.99984931946,Wed Jun 24 2026 10:35:14 GMT-0500 (Central Daylight Time),763784.1999999881,A,s,I,s,1305,3,1316.199999988079,762468.0,8078,WL,B,1.0
7,1.7160000801086426,immed,58283.99991989136,Wed Jun 24 2026 10:35:14 GMT-0500 (Central Daylight Time),764183.900000006,A,st,I,t,386,3,1715.9000000059605,762468.0,8078,WL,B,1.0
7,2.0,immed,58000.0,Wed Jun 24 2026 10:35:14 GMT-0500 (Central Daylight Time),764467.0,A,str,I,r,276,3,1999.0,762468.0,8078,WL,B,1.0
7,2.449000120162964,immed,57550.999879837036,Wed Jun 24 2026 10:35:14 GMT-0500 (Central Daylight Time),764917.0,A,stre,I,e,441,3,2449.0,762468.0,8078,WL,B,1.0
7,2.616000175476074,immed,57383.999824523926,Wed Jun 24 2026 10:35:14 GMT-0500 (Central Daylight Time),765083.6999999881,A,stree,I,e,160,3,2615.699999988079,762468.0,8078,WL,B,1.0
7,2.9160001277923584,immed,57083.99987220764,Wed Jun 24 2026 10:35:14 GMT-0500 (Central Daylight Time),765383.8000000119,A,street,I,t,289,3,2915.800000011921,762468.0,8078,WL,B,1.0
7,3.2330000400543213,immed,56766.99995994568,Wed Jun 24 2026 10:35:14 GMT-0500 (Central Daylight Time),765700.3000000119,A,streetenter,I,enter,309,3,3232.300000011921,762468.0,8078,WL,B,1.0
7,4.332000017166138,immed,55667.99998283386,Wed Jun 24 2026 10:35:14 GMT-0500 (Central Daylight Time),766799.900000006,A,w,I,w,1080,3,1099.2000000178814,765700.6999999881,8078,WL,B,2.0
7,4.483000040054321,immed,55516.99995994568,Wed Jun 24 2026 10:35:14 GMT-0500 (Central Daylight Time),766950.1999999881,A,wi,I,i,132,3,1249.5,765700.6999999881,8078,WL,B,2.0
7,4.683000087738037,immed,55316.99991226196,Wed Jun 24 2026 10:35:14 GMT-0500 (Central Daylight Time),767150.099999994,A,win,I,n,190,3,1449.4000000059605,765700.6999999881,8078,WL,B,2.0
7,4.866000175476074,immed,55133.999824523926,Wed Jun 24 2026 10:35:14 GMT-0500 (Central Daylight Time),767333.0,A,wind,I,d,166,3,1632.300000011921,765700.6999999881,8078,WL,B,2.0
7,5.332000017166138,immed,54667.99998283386,Wed Jun 24 2026 10:35:14 GMT-0500 (Central Daylight Time),767799.599999994,A,windo,I,o,455,3,2098.9000000059605,765700.6999999881,8078,WL,B,2.0
7,5.482000112533569,immed,54517.99988746643,Wed Jun 24 2026 10:35:14 GMT-0500 (Central Daylight Time),767949.6999999881,A,window,I,w,141,3,2249.0,765700.6999999881,8078,WL,B,2.0
7,5.982000112533569,immed,54017.99988746643,Wed Jun 24 2026 10:35:14 GMT-0500 (Central Daylight Time),768449.599999994,A,windowenter,I,enter,487,3,2748.9000000059605,765700.6999999881,8078,WL,B,2.0
7,6.565000057220459,immed,53434.99994277954,Wed Jun 24 2026 10:35:14 GMT-0500 (Central Daylight Time),769032.5,A,d,I,d,571,3,582.5999999940395,768449.900000006,8078,WL,B,3.0
7,6.765000104904175,immed,53234.999895095825,Wed Jun 24 2026 10:35:14 GMT-0500 (Central Daylight Time),769232.599999994,A,do,I,o,189,3,782.6999999880791,768449.900000006,8078,WL,B,3.0
7,6.982000112533569,immed,53017.99988746643,Wed Jun 24 2026 10:35:14 GMT-0500 (Central Daylight Time),769449.1999999881,A,doo,I,o,196,3,999.2999999821186,768449.900000006,8078,WL,B,3.0
7,7.29800009727478,immed,52701.99990272522,Wed Jun 24 2026 10:35:14 GMT-0500 (Central Daylight Time),769765.599999994,A,door,I,r,308,3,1315.699999988079,768449.900000006,8078,WL,B,3.0
7,7.482000112533569,immed,52517.99988746643,Wed Jun 24 2026 10:35:14 GMT-0500 (Central Daylight Time),769949.099999994,A,doorenter,I,enter,176,3,1499.199999988079,768449.900000006,8078,WL,B,3.0
7,8.015000104904175,immed,51984.999895095825,Wed Jun 24 2026 10:35:14 GMT-0500 (Central Daylight Time),770482.400000006,A,g,I,g,513,3,533.0,769949.400000006,8078,WL,B,4.0
7,8.348000049591064,immed,51651.999950408936,Wed Jun 24 2026 10:35:14 GMT-0500 (Central Daylight Time),770815.400000006,A,gr,I,r,314,3,866.0,769949.400000006,8078,WL,B,4.0
7,8.448000192642212,immed,51551.99980735779,Wed Jun 24 2026 10:35:14 GMT-0500 (Central Daylight Time),770915.400000006,A,gra,I,a,85,3,966.0,769949.400000006,8078,WL,B,4.0
7,8.831000089645386,immed,51168.999910354614,Wed Jun 24 2026 10:35:14 GMT-0500 (Central Daylight Time),771298.8000000119,A,gras,I,s,370,3,1349.4000000059605,769949.400000006,8078,WL,B,4.0
7,8.998000144958496,immed,51001.999855041504,Wed Jun 24 2026 10:35:14 GMT-0500 (Central Daylight Time),771465.1999999881,A,grass,I,s,146,3,1515.7999999821186,769949.400000006,8078,WL,B,4.0
7,9.164000034332275,immed,50835.999965667725,Wed Jun 24 2026 10:35:14 GMT-0500 (Central Daylight Time),771631.900000006,A,grassenter,I,enter,155,3,1682.5,769949.400000006,8078,WL,B,4.0
7,9.432000160217285,immed,50567.999839782715,Wed Jun 24 2026 10:35:14 GMT-0500 (Central Daylight Time),771899.1999999881,A,w,I,w,262,3,267.0,771632.1999999881,8078,WL,B,5.0
7,10.430999994277954,immed,49569.000005722046,Wed Jun 24 2026 10:35:14 GMT-0500 (Central Daylight Time),772898.099999994,A,wi,I,i,986,3,1265.9000000059605,771632.1999999881,8078,WL,B,5.0
