acc_sum,block,block_c,condition,correct,correct_response,datetime,endtime,flanker,jitter,project,response,response_test_buffer_response,response_test_target_response,response_time,response_time_test_buffer_response,response_time_test_target_response,row_sel,session_number,start_end,starttime,subject_id,target,task,task_vers,time_test_buffer,time_test_buffer_response,time_test_constants,time_test_flanker,time_test_jitter,time_test_logger,time_test_target,time_test_target_response,time_test_variables,trial
1,prac,1,inc,1,m,Thu May 07 2026 15:17:43 GMT-0500 (Central Daylight Time),55738.10000002384,plum,1100,I,m,,,921,,,16,,3327.400000035763,52410.69999998808,8069,lead,NF,C,,,,,,,,,,1
2,prac,1,con,1,z,Thu May 07 2026 15:17:43 GMT-0500 (Central Daylight Time),58582.30000001192,orange,1000,I,z,,,537,,,3,,2837.100000023842,55745.19999998808,8069,orange,NF,C,,,,,,,,,,2
3,prac,1,inc,1,z,Thu May 07 2026 15:17:43 GMT-0500 (Central Daylight Time),61619.30000001192,lead,1100,I,z,,,629,,,8,,3031.600000023842,58587.69999998808,8069,plum,NF,C,,,,,,,,,,3
4,prac,1,con,1,m,Thu May 07 2026 15:17:43 GMT-0500 (Central Daylight Time),64352.60000002384,gold,800,I,m,,,632,,,13,,2727.600000023842,61625.0,8069,gold,NF,C,,,,,,,,,,4
5,prac,1,con,1,z,Thu May 07 2026 15:17:43 GMT-0500 (Central Daylight Time),67051.19999998808,banana,800,I,z,,,596,,,1,,2693.800000011921,64357.39999997616,8069,banana,NF,C,,,,,,,,,,5
6,prac,1,con,1,z,Thu May 07 2026 15:17:43 GMT-0500 (Central Daylight Time),69916.89999997616,kiwi,1000,I,z,,,553,,,7,,2860.699999988079,67056.19999998808,8069,kiwi,NF,C,,,,,,,,,,6
7,prac,1,con,1,m,Thu May 07 2026 15:17:43 GMT-0500 (Central Daylight Time),72732.39999997616,zinc,1000,I,m,,,503,,,15,,2810.599999964237,69921.80000001192,8069,zinc,NF,C,,,,,,,,,,7
8,prac,1,con,1,m,Thu May 07 2026 15:17:43 GMT-0500 (Central Daylight Time),75564.89999997616,silver,1000,I,m,,,518,,,11,,2828.099999964237,72736.80000001192,8069,silver,NF,C,,,,,,,,,,8
9,prac,1,inc,1,m,Thu May 07 2026 15:17:43 GMT-0500 (Central Daylight Time),78280.89999997616,pear,900,I,m,,,507,,,14,,2711.399999976158,75569.5,8069,iron,NF,C,,,,,,,,,,9
10,prac,1,inc,1,m,Thu May 07 2026 15:17:43 GMT-0500 (Central Daylight Time),81079.89999997616,cherry,900,I,m,,,591,,,10,,2794.899999976158,78285.0,8069,copper,NF,C,,,,,,,,,,10
11,prac,1,inc,1,z,Thu May 07 2026 15:17:43 GMT-0500 (Central Daylight Time),84179.10000002384,copper,900,I,z,,,878,,,2,,3093.800000011921,81085.30000001192,8069,cherry,NF,C,,,,,,,,,,11
12,prac,1,inc,1,m,Thu May 07 2026 15:17:43 GMT-0500 (Central Daylight Time),87179.10000002384,raisin,1100,I,m,,,597,,,12,,2995.300000011921,84183.80000001192,8069,cobalt,NF,C,,,,,,,,,,12
13,prac,1,con,1,m,Thu May 07 2026 15:17:43 GMT-0500 (Central Daylight Time),89993.89999997616,bronze,800,I,m,,,706,,,9,,2810.699999988079,87183.19999998808,8069,bronze,NF,C,,,,,,,,,,13
14,prac,1,inc,1,z,Thu May 07 2026 15:17:43 GMT-0500 (Central Daylight Time),92826.10000002384,iron,900,I,z,,,630,,,6,,2828.0,89998.10000002384,8069,pear,NF,C,,,,,,,,,,14
15,prac,1,con,1,z,Thu May 07 2026 15:17:43 GMT-0500 (Central Daylight Time),95592.10000002384,lime,800,I,z,,,665,,,5,,2761.7000000476837,92830.39999997616,8069,lime,NF,C,,,,,,,,,,15
16,prac,1,inc,1,z,Thu May 07 2026 15:17:43 GMT-0500 (Central Daylight Time),98591.19999998808,cobalt,1100,I,z,,,584,,,4,,2994.800000011921,95596.39999997616,8069,raisin,NF,C,,,,,,,,,,16
1,test,1,inc,1,z,Thu May 07 2026 15:17:43 GMT-0500 (Central Daylight Time),106322.10000002384,zinc,1000,I,z,z,None,561,357.0,204.0,47,,2129.0,104193.10000002384,8069,pear,NF,C,103034,103034,101271,102284,101271,103400,102829,102829,103400,1
2,test,1,con,1,z,Thu May 07 2026 15:17:43 GMT-0500 (Central Daylight Time),108240.10000002384,raisin,800,I,z,z,None,568,369.0,199.0,25,,1913.2000000476837,106326.89999997616,8069,raisin,NF,C,104933,104933,103405,104217,103405,105318,104734,104734,105318,2
3,test,1,con,1,m,Thu May 07 2026 15:17:43 GMT-0500 (Central Daylight Time),110320.69999998808,iron,1100,I,m,m,None,449,249.0,200.0,108,,2076.0,108244.69999998808,8069,iron,NF,C,107149,107149,105323,106433,105323,107399,106949,106949,107399,3
4,test,1,inc,1,m,Thu May 07 2026 15:17:43 GMT-0500 (Central Daylight Time),112403.5,orange,1000,I,m,m,None,539,339.0,200.0,87,,2078.399999976158,110325.10000002384,8069,silver,NF,C,109132,109132,107403,108415,107403,109482,108932,108932,109482,4
5,test,1,inc,1,m,Thu May 07 2026 15:17:43 GMT-0500 (Central Daylight Time),114252.89999997616,banana,800,I,m,m,None,511,312.0,199.0,77,,1845.0999999642372,112407.80000001192,8069,copper,NF,C,111015,111015,109486,110298,109486,111331,110815,110815,111331,5
6,test,1,con,1,z,Thu May 07 2026 15:17:43 GMT-0500 (Central Daylight Time),116335.69999998808,plum,1000,I,z,z,None,534,334.0,200.0,59,,2078.899999976158,114256.80000001192,8069,plum,NF,C,113064,113064,111335,112347,111335,113414,112864,112864,113414,6
7,test,1,inc,1,z,Thu May 07 2026 15:17:43 GMT-0500 (Central Daylight Time),118551.60000002384,lead,1100,I,z,z,None,568,369.0,199.0,48,,2211.900000035763,116339.69999998808,8069,pear,NF,C,115246,115246,113418,114530,113418,115630,115047,115047,115630,7
8,test,1,con,1,z,Thu May 07 2026 15:17:43 GMT-0500 (Central Daylight Time),120484.30000001192,plum,800,I,z,z,None,587,388.0,199.0,57,,1928.800000011921,118555.5,8069,plum,NF,C,117163,117163,115634,116446,115634,117562,116963,116963,117562,8
9,test,1,con,1,z,Thu May 07 2026 15:17:43 GMT-0500 (Central Daylight Time),122416.89999997616,orange,900,I,z,z,None,500,300.0,200.0,18,,1927.199999988079,120489.69999998808,8069,orange,NF,C,119195,119195,117568,118479,117568,119495,118995,118995,119495,9
10,test,1,con,1,z,Thu May 07 2026 15:17:43 GMT-0500 (Central Daylight Time),124599.60000002384,pear,1100,I,z,z,None,543,343.0,200.0,44,,2177.300000011921,122422.30000001192,8069,pear,NF,C,121328,121328,119500,120612,119501,121678,121128,121128,121678,10
11,test,1,con,1,m,Thu May 07 2026 15:17:43 GMT-0500 (Central Daylight Time),126465.69999998808,gold,900,I,m,m,None,432,232.0,200.0,98,,1861.300000011921,124604.39999997616,8069,gold,NF,C,123311,123311,121682,122594,121683,123544,123111,123111,123544,11
12,test,1,inc,1,m,Thu May 07 2026 15:17:43 GMT-0500 (Central Daylight Time),128664.89999997616,raisin,1100,I,m,m,None,557,358.0,199.0,96,,2194.599999964237,126470.30000001192,8069,cobalt,NF,C,125377,125377,123548,124660,123549,125743,125177,125177,125743,12
13,test,1,con,1,m,Thu May 07 2026 15:17:43 GMT-0500 (Central Daylight Time),130797.69999998808,cobalt,1000,I,m,m,None,594,394.0,200.0,91,,2128.399999976158,128669.30000001192,8069,cobalt,NF,C,127476,127476,125747,126760,125748,127876,127276,127276,127876,13
14,test,1,inc,1,m,Thu May 07 2026 15:17:43 GMT-0500 (Central Daylight Time),132913.60000002384,plum,1100,I,m,m,None,473,274.0,199.0,120,,2111.7000000476837,130801.89999997616,8069,zinc,NF,C,129709,129709,127880,128993,127880,129992,129509,129509,129992,14
15,test,1,con,1,z,Thu May 07 2026 15:17:43 GMT-0500 (Central Daylight Time),135146.19999998808,lime,1000,I,z,z,None,688,489.0,199.0,35,,2228.399999976158,132917.80000001192,8069,lime,NF,C,131725,131725,129996,131009,129996,132224,131525,131525,132224,15
16,test,1,inc,1,z,Thu May 07 2026 15:17:43 GMT-0500 (Central Daylight Time),137129.10000002384,iron,900,I,z,z,None,542,342.0,200.0,46,,1978.800000011921,135150.30000001192,8069,pear,NF,C,133857,133857,132228,133141,132229,134207,133657,133657,134207,16
17,test,1,con,1,m,Thu May 07 2026 15:17:43 GMT-0500 (Central Daylight Time),139378.39999997616,cobalt,1100,I,m,m,None,607,407.0,200.0,92,,2244.699999988079,137133.69999998808,8069,cobalt,NF,C,136040,136040,134212,135324,134212,136456,135840,135840,136456,17
18,test,1,con,1,z,Thu May 07 2026 15:17:43 GMT-0500 (Central Daylight Time),141560.89999997616,raisin,1000,I,z,z,None,649,450.0,199.0,27,,2178.7999999523163,139382.10000002384,8069,raisin,NF,C,138189,138189,136460,137473,136460,138639,137990,137990,138639,18
19,test,1,inc,1,z,Thu May 07 2026 15:17:43 GMT-0500 (Central Daylight Time),143726.89999997616,zinc,1000,I,z,z,None,627,427.0,200.0,55,,2161.699999988079,141565.19999998808,8069,kiwi,NF,C,140372,140372,138643,139656,138644,140805,140172,140172,140805,19
20,test,1,con,1,z,Thu May 07 2026 15:17:43 GMT-0500 (Central Daylight Time),145893.10000002384,banana,1000,I,z,z,None,621,421.0,200.0,3,,2162.400000035763,143730.69999998808,8069,banana,NF,C,142538,142538,140809,141822,140809,142971,142338,142338,142971,20
21,test,1,inc,1,m,Thu May 07 2026 15:17:43 GMT-0500 (Central Daylight Time),147942.30000001192,cherry,900,I,m,m,None,611,411.0,200.0,70,,2045.300000011921,145897.0,8069,bronze,NF,C,144604,144604,142975,143888,142975,145020,144404,144404,145020,21
22,test,1,con,1,m,Thu May 07 2026 15:17:43 GMT-0500 (Central Daylight Time),149975.0,zinc,900,I,m,m,None,592,392.0,200.0,114,,2027.199999988079,147947.80000001192,8069,zinc,NF,C,146654,146655,145026,145937,145026,147053,146454,146454,147053,22
23,test,1,con,1,m,Thu May 07 2026 15:17:43 GMT-0500 (Central Daylight Time),152024.30000001192,copper,1000,I,m,m,None,509,308.0,201.0,75,,2044.5,149979.80000001192,8069,copper,NF,C,148787,148787,147058,148070,147058,149102,148586,148586,149102,23
24,test,1,inc,1,z,Thu May 07 2026 15:17:43 GMT-0500 (Central Daylight Time),154240.39999997616,lead,1100,I,z,z,None,568,368.0,200.0,64,,2211.7999999523163,152028.60000002384,8069,plum,NF,C,150935,150935,149107,150219,149107,151318,150735,150735,151318,24
25,test,1,inc,1,m,Thu May 07 2026 15:17:43 GMT-0500 (Central Daylight Time),156106.89999997616,lime,800,I,m,m,None,523,324.0,199.0,109,,1862.3999999761581,154244.5,8069,iron,NF,C,152851,152851,151323,152135,151323,153185,152652,152652,153185,25
26,test,1,inc,1,m,Thu May 07 2026 15:17:43 GMT-0500 (Central Daylight Time),158272.39999997616,plum,1100,I,m,m,None,525,326.0,199.0,112,,2161.5,156110.89999997616,8069,iron,NF,C,155017,155017,153189,154301,153189,155350,154818,154818,155350,26
27,test,1,inc,1,z,Thu May 07 2026 15:17:43 GMT-0500 (Central Daylight Time),160371.60000002384,iron,900,I,z,z,None,655,456.0,199.0,62,,2095.0,158276.60000002384,8069,plum,NF,C,156983,156983,155355,156267,155355,157450,156784,156784,157450,27
28,test,1,inc,1,z,Thu May 07 2026 15:17:43 GMT-0500 (Central Daylight Time),162388.0,copper,900,I,z,z,None,572,372.0,200.0,14,,2012.199999988079,160375.80000001192,8069,cherry,NF,C,159083,159083,157454,158366,157454,159466,158883,158883,159466,28
29,test,1,inc,1,m,Thu May 07 2026 15:17:43 GMT-0500 (Central Daylight Time),164520.60000002384,orange,1000,I,m,m,None,592,392.0,200.0,79,,2128.800000011921,162391.80000001192,8069,copper,NF,C,161199,161199,159470,160482,159470,161599,160999,160999,161599,29
30,test,1,con,1,m,Thu May 07 2026 15:17:43 GMT-0500 (Central Daylight Time),166686.39999997616,zinc,1100,I,m,m,None,534,335.0,199.0,116,,2162.0,164524.39999997616,8069,zinc,NF,C,163415,163415,161602,162715,161603,163765,163216,163216,163764,30
31,test,1,con,1,z,Thu May 07 2026 15:17:43 GMT-0500 (Central Daylight Time),168819.19999998808,kiwi,1000,I,z,z,None,589,390.0,199.0,51,,2128.899999976158,166690.30000001192,8069,kiwi,NF,C,165497,165497,163768,164781,163768,165897,165298,165298,165897,31
32,test,1,inc,1,m,Thu May 07 2026 15:17:43 GMT-0500 (Central Daylight Time),170785.10000002384,lime,800,I,m,m,None,633,433.0,200.0,101,,1962.0,168823.10000002384,8069,gold,NF,C,167430,167430,165901,166714,165901,167863,167230,167230,167863,32
33,test,1,inc,1,z,Thu May 07 2026 15:17:43 GMT-0500 (Central Daylight Time),172934.39999997616,silver,1000,I,z,z,None,603,403.0,200.0,7,,2145.399999976158,170789.0,8069,banana,NF,C,169596,169596,167867,168880,167867,170012,169396,169396,170012,33
34,test,1,inc,1,m,Thu May 07 2026 15:17:43 GMT-0500 (Central Daylight Time),174933.80000001192,banana,800,I,m,m,None,660,461.0,199.0,85,,1995.699999988079,172938.10000002384,8069,silver,NF,C,171546,171546,170016,170829,170016,172012,171346,171346,172012,34
35,test,1,inc,1,m,Thu May 07 2026 15:17:43 GMT-0500 (Central Daylight Time),177166.5,plum,1100,I,m,m,None,608,394.0,214.0,128,,2228.699999988079,174937.80000001192,8069,lead,NF,C,173845,173845,172016,173129,172016,174245,173631,173631,174245,35
36,test,1,con,1,z,Thu May 07 2026 15:17:43 GMT-0500 (Central Daylight Time),179249.30000001192,kiwi,800,I,z,z,None,733,533.0,200.0,49,,2078.100000023842,177171.19999998808,8069,kiwi,NF,C,175778,175778,174249,175061,174250,176327,175578,175578,176327,36
37,test,1,con,1,z,Thu May 07 2026 15:17:43 GMT-0500 (Central Daylight Time),181681.69999998808,banana,1100,I,z,z,None,791,591.0,200.0,4,,2428.199999988079,179253.5,8069,banana,NF,C,178160,178160,176332,177444,176332,178760,177960,177960,178760,37
38,test,1,con,1,m,Thu May 07 2026 15:17:43 GMT-0500 (Central Daylight Time),183597.89999997616,copper,800,I,m,m,None,570,370.0,200.0,73,,1912.2999999523163,181685.60000002384,8069,copper,NF,C,180293,180293,178764,179576,178764,180676,180093,180093,180676,38
39,test,1,con,1,z,Thu May 07 2026 15:17:43 GMT-0500 (Central Daylight Time),185680.60000002384,raisin,900,I,z,z,None,634,434.0,200.0,26,,2078.100000023842,183602.5,8069,raisin,NF,C,182309,182309,180680,181593,180681,182759,182109,182109,182759,39
40,test,1,inc,1,m,Thu May 07 2026 15:17:43 GMT-0500 (Central Daylight Time),187679.89999997616,orange,1000,I,m,m,None,459,260.0,199.0,71,,1995.2999999523163,185684.60000002384,8069,bronze,NF,C,184491,184491,182763,183775,182763,184758,184292,184292,184758,40
41,test,1,con,1,m,Thu May 07 2026 15:17:43 GMT-0500 (Central Daylight Time),189529.69999998808,iron,800,I,m,m,None,516,316.0,200.0,105,,1846.300000011921,187683.39999997616,8069,iron,NF,C,186291,186291,184761,185575,184762,186608,186091,186091,186608,41
42,test,1,inc,1,m,Thu May 07 2026 15:17:43 GMT-0500 (Central Daylight Time),191595.5,kiwi,1000,I,m,m,None,523,323.0,200.0,103,,2061.899999976158,189533.60000002384,8069,gold,NF,C,188340,188340,186612,187624,186612,188674,188140,188140,188674,42
43,test,1,con,1,z,Thu May 07 2026 15:17:43 GMT-0500 (Central Daylight Time),193661.39999997616,plum,900,I,z,z,None,628,429.0,199.0,58,,2061.7999999523163,191599.60000002384,8069,plum,NF,C,190306,190306,188678,189590,188678,190739,190106,190107,190739,43
44,test,1,con,1,m,Thu May 07 2026 15:17:43 GMT-0500 (Central Daylight Time),196143.89999997616,lead,1100,I,m,m,None,835,635.0,200.0,124,,2478.899999976158,193665.0,8069,lead,NF,C,192572,192572,190743,191856,190743,193222,192372,192372,193222,44
45,test,1,con,1,z,Thu May 07 2026 15:17:43 GMT-0500 (Central Daylight Time),198109.89999997616,lime,800,I,z,z,None,628,428.0,200.0,33,,1962.2999999523163,196147.60000002384,8069,lime,NF,C,194755,194755,193226,194039,193226,195188,194555,194555,195188,45
45,test,1,con,0,z,Thu May 07 2026 15:17:43 GMT-0500 (Central Daylight Time),200392.60000002384,plum,1100,I,m,m,None,642,317.0,325.0,60,,2279.100000023842,198113.5,8069,plum,NF,C,197146,197146,195192,196304,195192,197471,196821,196821,197471,46
46,test,1,con,1,m,Thu May 07 2026 15:17:43 GMT-0500 (Central Daylight Time),202625.10000002384,iron,1000,I,m,m,None,698,498.0,200.0,107,,2228.100000023842,200397.0,8069,iron,NF,C,199205,199205,197475,198487,197475,199703,199004,199004,199703,47
47,test,1,con,1,z,Thu May 07 2026 15:17:43 GMT-0500 (Central Daylight Time),204707.89999997616,lime,900,I,z,z,None,646,446.0,200.0,34,,2079.0,202628.89999997616,8069,lime,NF,C,201337,201337,199707,200620,199707,201786,201136,201136,201786,48
48,test,1,con,1,m,Thu May 07 2026 15:17:43 GMT-0500 (Central Daylight Time),206607.19999998808,bronze,900,I,m,m,None,460,260.0,200.0,66,,1895.5999999642372,204711.60000002384,8069,bronze,NF,C,203419,203419,201790,202703,201790,203685,203219,203219,203685,49
49,test,1,con,1,m,Thu May 07 2026 15:17:43 GMT-0500 (Central Daylight Time),208806.5,lead,1000,I,m,m,None,653,453.0,200.0,123,,2195.5,206611.0,8069,lead,NF,C,205418,205418,203689,204702,203689,205885,205218,205218,205885,50
50,test,1,con,1,m,Thu May 07 2026 15:17:43 GMT-0500 (Central Daylight Time),210872.89999997616,silver,1000,I,m,m,None,532,333.0,199.0,83,,2062.599999964237,208810.30000001192,8069,silver,NF,C,207618,207618,205888,206901,205889,207951,207418,207418,207951,51
51,test,1,inc,1,m,Thu May 07 2026 15:17:43 GMT-0500 (Central Daylight Time),213005.19999998808,orange,1000,I,m,m,None,595,395.0,200.0,95,,2128.300000011921,210876.89999997616,8069,cobalt,NF,C,209684,209684,207955,208967,207955,210083,209484,209484,210083,52
52,test,1,con,1,z,Thu May 07 2026 15:17:43 GMT-0500 (Central Daylight Time),215154.60000002384,cherry,1100,I,z,z,None,507,307.0,200.0,12,,2145.5,213009.10000002384,8069,cherry,NF,C,211916,211916,210087,211200,210088,212233,211716,211716,212233,53
53,test,1,inc,1,z,Thu May 07 2026 15:17:43 GMT-0500 (Central Daylight Time),217503.80000001192,lead,1100,I,z,z,None,708,509.0,199.0,40,,2345.199999988079,215158.60000002384,8069,lime,NF,C,214066,214066,212237,213349,212237,214582,213866,213866,214582,54
54,test,1,inc,1,m,Thu May 07 2026 15:17:43 GMT-0500 (Central Daylight Time),219853.19999998808,plum,1100,I,m,m,None,712,512.0,200.0,104,,2345.5,217507.69999998808,8069,gold,NF,C,216415,216415,214586,215698,214586,216931,216215,216215,216931,55
55,test,1,con,1,z,Thu May 07 2026 15:17:43 GMT-0500 (Central Daylight Time),221969.10000002384,pear,1000,I,z,z,None,567,367.0,200.0,43,,2111.100000023842,219858.0,8069,pear,NF,C,218664,218664,216936,217948,216936,219047,218464,218464,219047,56
56,test,1,con,1,z,Thu May 07 2026 15:17:43 GMT-0500 (Central Daylight Time),224168.89999997616,pear,900,I,z,z,None,635,433.0,202.0,42,,2196.099999964237,221972.80000001192,8069,pear,NF,C,220814,220814,219051,219964,219051,221247,220611,220611,221247,57
57,test,1,inc,1,z,Thu May 07 2026 15:17:43 GMT-0500 (Central Daylight Time),226367.69999998808,cobalt,1100,I,z,z,None,559,360.0,199.0,32,,2194.599999964237,224173.10000002384,8069,raisin,NF,C,223079,223079,221251,222363,221251,223446,222879,222880,223446,58
58,test,1,con,1,m,Thu May 07 2026 15:17:43 GMT-0500 (Central Daylight Time),228333.80000001192,cobalt,800,I,m,m,None,628,428.0,200.0,89,,1962.4000000357628,226371.39999997616,8069,cobalt,NF,C,224979,224979,223449,224262,223450,225412,224779,224779,225412,59
59,test,1,con,1,m,Thu May 07 2026 15:17:43 GMT-0500 (Central Daylight Time),230383.19999998808,cobalt,900,I,m,m,None,602,402.0,200.0,90,,2045.5999999642372,228337.60000002384,8069,cobalt,NF,C,227045,227045,225416,226328,225416,227461,226845,226845,227461,60
60,test,1,inc,1,m,Thu May 07 2026 15:17:43 GMT-0500 (Central Daylight Time),232449.5,cherry,900,I,m,m,None,617,417.0,200.0,86,,2062.399999976158,230387.10000002384,8069,silver,NF,C,229094,229094,227465,228378,227465,229528,228894,228894,229528,61
61,test,1,con,1,m,Thu May 07 2026 15:17:43 GMT-0500 (Central Daylight Time),234298.60000002384,bronze,800,I,m,m,None,507,307.0,200.0,65,,1845.1000000238419,232453.5,8069,bronze,NF,C,231060,231060,229532,230344,229532,231377,230860,230860,231377,62
62,test,1,con,1,m,Thu May 07 2026 15:17:43 GMT-0500 (Central Daylight Time),236431.39999997616,silver,1100,I,m,m,None,484,285.0,199.0,84,,2129.0,234302.39999997616,8069,silver,NF,C,233210,233210,231380,232493,231381,233510,233010,233010,233509,63
63,test,1,con,1,m,Thu May 07 2026 15:17:43 GMT-0500 (Central Daylight Time),238397.5,copper,900,I,m,m,None,521,321.0,200.0,74,,1962.300000011921,236435.19999998808,8069,copper,NF,C,235142,235142,233513,234426,233513,235476,234942,234942,235475,64
64,test,1,inc,1,m,Thu May 07 2026 15:17:43 GMT-0500 (Central Daylight Time),240297.0,lime,800,I,m,m,None,551,351.0,200.0,117,,1895.8999999761581,238401.10000002384,8069,zinc,NF,C,237008,237008,235479,236292,235479,237375,236808,236808,237375,65
65,test,1,inc,1,z,Thu May 07 2026 15:17:43 GMT-0500 (Central Daylight Time),242629.60000002384,cobalt,1100,I,z,z,None,687,487.0,200.0,8,,2328.900000035763,240300.69999998808,8069,banana,NF,C,239208,239208,237379,238491,237379,239708,239008,239008,239708,66
65,test,1,inc,0,z,Thu May 07 2026 15:17:43 GMT-0500 (Central Daylight Time),244878.60000002384,zinc,1000,I,m,m,None,702,502.0,200.0,39,,2244.900000035763,242633.69999998808,8069,lime,NF,C,241441,241441,239712,240724,239712,241957,241240,241240,241957,67
66,test,1,inc,1,z,Thu May 07 2026 15:17:43 GMT-0500 (Central Daylight Time),246911.39999997616,gold,800,I,z,z,None,684,485.0,199.0,53,,2028.5,244882.89999997616,8069,kiwi,NF,C,243490,243490,241961,242773,241961,243989,243290,243290,243989,68
67,test,1,con,1,m,Thu May 07 2026 15:17:43 GMT-0500 (Central Daylight Time),249127.39999997616,gold,1000,I,m,m,None,668,469.0,199.0,99,,2211.699999988079,246915.69999998808,8069,gold,NF,C,245722,245722,243994,245006,243994,246205,245523,245523,246205,69
68,test,1,inc,1,z,Thu May 07 2026 15:17:43 GMT-0500 (Central Daylight Time),251176.89999997616,bronze,800,I,z,z,None,716,517.0,199.0,5,,2045.699999988079,249131.19999998808,8069,banana,NF,C,247738,247738,246209,247022,246210,248255,247539,247539,248255,70
69,test,1,con,1,m,Thu May 07 2026 15:17:43 GMT-0500 (Central Daylight Time),253392.89999997616,bronze,1000,I,m,m,None,682,483.0,199.0,67,,2212.0,251180.89999997616,8069,bronze,NF,C,249988,249988,248259,249271,248259,250471,249788,249788,250471,71
70,test,1,inc,1,z,Thu May 07 2026 15:17:43 GMT-0500 (Central Daylight Time),255575.30000001192,silver,1000,I,z,z,None,635,435.0,200.0,23,,2178.300000011921,253397.0,8069,orange,NF,C,252204,252204,250475,251487,250475,252653,252004,252004,252653,72
71,test,1,inc,1,m,Thu May 07 2026 15:17:43 GMT-0500 (Central Daylight Time),257724.69999998808,kiwi,1000,I,m,m,None,613,413.0,200.0,119,,2145.399999976158,255579.30000001192,8069,zinc,NF,C,254386,254386,252657,253670,252658,254803,254186,254186,254803,73
72,test,1,inc,1,z,Thu May 07 2026 15:17:43 GMT-0500 (Central Daylight Time),259757.39999997616,bronze,800,I,z,z,None,694,495.0,199.0,21,,2028.699999988079,257728.69999998808,8069,orange,NF,C,256336,256336,254807,255619,254807,256835,256136,256136,256835,74
73,test,1,inc,1,m,Thu May 07 2026 15:17:43 GMT-0500 (Central Daylight Time),261823.30000001192,pear,900,I,m,m,None,626,426.0,200.0,102,,2062.300000011921,259761.0,8069,gold,NF,C,258469,258469,256839,257752,256839,258901,258268,258269,258901,75
74,test,1,inc,1,m,Thu May 07 2026 15:17:43 GMT-0500 (Central Daylight Time),263972.8000000119,kiwi,1000,I,m,m,None,613,413.0,200.0,111,,2145.5,261827.30000001192,8069,iron,NF,C,260634,260634,258905,259918,258906,261051,260434,260434,261051,76
75,test,1,inc,1,m,Thu May 07 2026 15:17:43 GMT-0500 (Central Daylight Time),266188.8000000119,raisin,1100,I,m,m,None,579,379.0,200.0,80,,2211.800000011921,263977.0,8069,copper,NF,C,262884,262884,261055,262167,261055,263267,262684,262684,263267,77
76,test,1,inc,1,m,Thu May 07 2026 15:17:43 GMT-0500 (Central Daylight Time),268421.3000000119,raisin,1100,I,m,m,None,586,387.0,199.0,72,,2228.699999988079,266192.60000002384,8069,bronze,NF,C,265100,265100,263271,264383,263271,265499,264900,264900,265499,78
77,test,1,inc,1,z,Thu May 07 2026 15:17:43 GMT-0500 (Central Daylight Time),270503.89999997616,gold,800,I,z,z,None,743,543.0,200.0,37,,2078.699999988079,268425.1999999881,8069,lime,NF,C,267032,267032,265503,266316,265504,267582,266832,266832,267582,79
78,test,1,con,1,m,Thu May 07 2026 15:17:43 GMT-0500 (Central Daylight Time),272669.89999997616,lead,900,I,m,m,None,720,520.0,200.0,122,,2162.099999964237,270507.8000000119,8069,lead,NF,C,269215,269215,267586,268498,267586,269748,269015,269015,269748,80
79,test,1,inc,1,z,Thu May 07 2026 15:17:43 GMT-0500 (Central Daylight Time),274952.5,lead,1100,I,z,z,None,634,434.0,200.0,56,,2278.800000011921,272673.6999999881,8069,kiwi,NF,C,271581,271581,269752,270865,269752,272031,271381,271381,272031,81
80,test,1,inc,1,z,Thu May 07 2026 15:17:43 GMT-0500 (Central Daylight Time),277201.8000000119,cobalt,1100,I,z,z,None,606,407.0,199.0,24,,2244.900000035763,274956.89999997616,8069,orange,NF,C,273864,273864,272035,273147,272035,274280,273664,273664,274280,82
81,test,1,inc,1,z,Thu May 07 2026 15:17:43 GMT-0500 (Central Daylight Time),279084.6999999881,gold,800,I,z,z,None,546,346.0,200.0,61,,1878.800000011921,277205.89999997616,8069,plum,NF,C,275813,275813,274284,275097,274284,276163,275613,275613,276163,83
82,test,1,inc,1,m,Thu May 07 2026 15:17:43 GMT-0500 (Central Daylight Time),281217.1999999881,pear,900,I,m,m,None,683,483.0,200.0,126,,2128.599999964237,279088.60000002384,8069,lead,NF,C,277796,277796,276167,277079,276167,278295,277596,277596,278295,84
83,test,1,con,1,z,Thu May 07 2026 15:17:43 GMT-0500 (Central Daylight Time),283466.60000002384,orange,1100,I,z,z,None,615,415.0,200.0,20,,2245.600000023842,281221.0,8069,orange,NF,C,280128,280128,278299,279412,278299,280545,279928,279928,280545,85
84,test,1,inc,1,z,Thu May 07 2026 15:17:43 GMT-0500 (Central Daylight Time),285832.39999997616,cobalt,1100,I,z,z,None,717,518.0,199.0,16,,2362.099999964237,283470.3000000119,8069,cherry,NF,C,282377,282377,280548,281661,280549,282910,282178,282178,282910,86
85,test,1,inc,1,z,Thu May 07 2026 15:17:43 GMT-0500 (Central Daylight Time),288031.8000000119,copper,900,I,z,z,None,758,559.0,199.0,30,,2195.400000035763,285836.39999997616,8069,raisin,NF,C,284544,284544,282914,283827,282915,285110,284344,284344,285110,87
86,test,1,con,1,m,Thu May 07 2026 15:17:43 GMT-0500 (Central Daylight Time),290214.60000002384,zinc,1000,I,m,m,None,635,436.0,199.0,115,,2178.900000035763,288035.6999999881,8069,zinc,NF,C,286843,286843,285114,286126,285114,287293,286644,286644,287293,88
87,test,1,inc,1,m,Thu May 07 2026 15:17:43 GMT-0500 (Central Daylight Time),292663.6999999881,raisin,1100,I,m,m,None,800,601.0,199.0,88,,2445.399999976158,290218.3000000119,8069,silver,NF,C,289125,289126,287296,288409,287297,289742,288926,288926,289742,89
88,test,1,inc,1,m,Thu May 07 2026 15:17:43 GMT-0500 (Central Daylight Time),294762.89999997616,cherry,900,I,m,m,None,655,359.0,296.0,78,,2095.699999988079,292667.1999999881,8069,copper,NF,C,291472,291472,289745,290658,289745,291841,291175,291175,291841,90
89,test,1,con,1,z,Thu May 07 2026 15:17:43 GMT-0500 (Central Daylight Time),296845.8000000119,cherry,900,I,z,z,None,645,445.0,200.0,10,,2079.199999988079,294766.60000002384,8069,cherry,NF,C,293474,293474,291845,292758,291845,293924,293274,293274,293924,91
90,test,1,inc,1,m,Thu May 07 2026 15:17:43 GMT-0500 (Central Daylight Time),298928.5,pear,900,I,m,m,None,633,434.0,199.0,110,,2078.5,296850.0,8069,iron,NF,C,295557,295557,293928,294840,293928,296007,295358,295358,296007,92
91,test,1,con,1,z,Thu May 07 2026 15:17:43 GMT-0500 (Central Daylight Time),300844.60000002384,banana,800,I,z,z,None,570,371.0,199.0,1,,1912.4000000357628,298932.1999999881,8069,banana,NF,C,297540,297540,296010,296823,296010,297923,297340,297340,297923,93
92,test,1,inc,1,m,Thu May 07 2026 15:17:43 GMT-0500 (Central Daylight Time),302877.3000000119,pear,900,I,m,m,None,586,387.0,199.0,118,,2029.0,300848.3000000119,8069,zinc,NF,C,299556,299556,297926,298839,297927,299955,299356,299356,299955,94
93,test,1,inc,1,z,Thu May 07 2026 15:17:43 GMT-0500 (Central Daylight Time),304943.10000002384,zinc,1000,I,z,z,None,518,319.0,199.0,63,,2062.0,302881.10000002384,8069,plum,NF,C,301688,301688,299959,300972,299959,302021,301489,301489,302021,95
94,test,1,con,1,m,Thu May 07 2026 15:17:43 GMT-0500 (Central Daylight Time),306825.89999997616,silver,800,I,m,m,None,549,349.0,200.0,81,,1879.0,304946.89999997616,8069,silver,NF,C,303554,303554,302025,302838,302025,303904,303354,303354,303904,96
95,test,1,inc,1,z,Thu May 07 2026 15:17:43 GMT-0500 (Central Daylight Time),308825.6999999881,iron,900,I,z,z,None,565,365.0,200.0,54,,1996.199999988079,306829.5,8069,kiwi,NF,C,305538,305538,303908,304821,303908,305904,305337,305337,305904,97
96,test,1,con,1,z,Thu May 07 2026 15:17:43 GMT-0500 (Central Daylight Time),311541.1999999881,raisin,1100,I,z,z,None,1071,871.0,200.0,28,,2711.099999964237,308830.10000002384,8069,raisin,NF,C,307736,307736,305908,307020,305908,308619,307536,307536,308619,98
97,test,1,con,1,z,Thu May 07 2026 15:17:43 GMT-0500 (Central Daylight Time),313690.5,cherry,1000,I,z,z,None,615,415.0,200.0,11,,2145.600000023842,311544.89999997616,8069,cherry,NF,C,310352,310352,308623,309636,308623,310769,310152,310152,310769,99
98,test,1,con,1,m,Thu May 07 2026 15:17:43 GMT-0500 (Central Daylight Time),315823.1999999881,silver,900,I,m,m,None,709,510.0,199.0,82,,2129.0,313694.1999999881,8069,silver,NF,C,312385,312385,310772,311685,310773,312901,312186,312186,312901,100
99,test,1,inc,1,z,Thu May 07 2026 15:17:43 GMT-0500 (Central Daylight Time),317998.3000000119,copper,900,I,z,z,None,742,542.0,200.0,6,,2171.699999988079,315826.60000002384,8069,banana,NF,C,314534,314534,312905,313818,312905,315076,314334,314334,315076,101
100,test,1,inc,1,z,Thu May 07 2026 15:17:43 GMT-0500 (Central Daylight Time),319921.89999997616,bronze,800,I,z,z,None,591,391.0,200.0,29,,1919.5999999642372,318002.3000000119,8069,raisin,NF,C,316600,316600,315080,315884,315080,317000,316400,316400,317000,102
101,test,1,con,1,z,Thu May 07 2026 15:17:43 GMT-0500 (Central Daylight Time),321754.6999999881,pear,800,I,z,z,None,490,289.0,201.0,41,,1829.0999999642372,319925.60000002384,8069,pear,NF,C,318534,318534,317004,317816,317004,318833,318333,318333,318833,103
102,test,1,con,1,z,Thu May 07 2026 15:17:43 GMT-0500 (Central Daylight Time),323654.0,banana,900,I,z,z,None,452,253.0,199.0,2,,1895.6000000238419,321758.39999997616,8069,banana,NF,C,320466,320466,318836,319749,318837,320732,320266,320266,320732,104
103,test,1,inc,1,m,Thu May 07 2026 15:17:43 GMT-0500 (Central Daylight Time),325570.0,banana,800,I,m,m,None,574,374.0,200.0,69,,1912.300000011921,323657.6999999881,8069,bronze,NF,C,322265,322265,320736,321549,320736,322648,322065,322065,322648,105
104,test,1,inc,1,z,Thu May 07 2026 15:17:43 GMT-0500 (Central Daylight Time),327619.60000002384,iron,900,I,z,z,None,606,406.0,200.0,38,,2045.7000000476837,325573.89999997616,8069,lime,NF,C,324281,324281,322652,323565,322652,324698,324081,324081,324698,106
105,test,1,inc,1,z,Thu May 07 2026 15:17:43 GMT-0500 (Central Daylight Time),329602.10000002384,bronze,800,I,z,z,None,639,439.0,200.0,13,,1978.7000000476837,327623.39999997616,8069,cherry,NF,C,326232,326232,324701,325514,324702,326680,326031,326031,326680,107
106,test,1,inc,1,m,Thu May 07 2026 15:17:43 GMT-0500 (Central Daylight Time),331701.60000002384,cherry,900,I,m,m,None,662,462.0,200.0,94,,2095.7000000476837,329605.89999997616,8069,cobalt,NF,C,328313,328313,326684,327598,326684,328780,328113,328113,328780,108
107,test,1,con,1,z,Thu May 07 2026 15:17:43 GMT-0500 (Central Daylight Time),333800.89999997616,cherry,800,I,z,z,None,765,566.0,199.0,9,,2095.399999976158,331705.5,8069,cherry,NF,C,330313,330313,328784,329596,328784,330879,330113,330113,330879,109
107,test,1,con,0,m,Thu May 07 2026 15:17:43 GMT-0500 (Central Daylight Time),336283.39999997616,gold,1100,I,z,z,None,847,647.0,200.0,100,,2478.7999999523163,333804.60000002384,8069,gold,NF,C,332712,332712,330883,331995,330883,333361,332512,332512,333361,110
108,test,1,con,1,m,Thu May 07 2026 15:17:43 GMT-0500 (Central Daylight Time),338632.8000000119,copper,1100,I,m,m,None,709,509.0,200.0,76,,2345.100000023842,336287.6999999881,8069,copper,NF,C,335194,335194,333366,334478,333366,335711,334994,334994,335711,111
109,test,1,con,1,z,Thu May 07 2026 15:17:43 GMT-0500 (Central Daylight Time),340982.0,lime,1100,I,z,z,None,703,503.0,200.0,36,,2345.300000011921,338636.6999999881,8069,lime,NF,C,337544,337544,335715,336827,335715,338060,337344,337344,338060,112
110,test,1,con,1,m,Thu May 07 2026 15:17:43 GMT-0500 (Central Daylight Time),343314.6999999881,bronze,1100,I,m,m,None,690,490.0,200.0,68,,2329.199999988079,340985.5,8069,bronze,NF,C,339893,339893,338064,339176,338064,340393,339693,339693,340393,113
111,test,1,con,1,z,Thu May 07 2026 15:17:43 GMT-0500 (Central Daylight Time),345513.6999999881,kiwi,1100,I,z,z,None,564,365.0,199.0,52,,2195.199999988079,343318.5,8069,kiwi,NF,C,342226,342226,340397,341509,340397,342592,342026,342026,342592,114
112,test,1,con,1,m,Thu May 07 2026 15:17:43 GMT-0500 (Central Daylight Time),347546.39999997616,iron,900,I,m,m,None,598,398.0,200.0,106,,2029.0999999642372,345517.3000000119,8069,iron,NF,C,344225,344225,342595,343508,342596,344624,344025,344025,344624,115
113,test,1,con,1,z,Thu May 07 2026 15:17:43 GMT-0500 (Central Daylight Time),349529.1999999881,orange,800,I,z,z,None,648,449.0,199.0,17,,1979.199999988079,347550.0,8069,orange,NF,C,346158,346158,344628,345441,344628,346607,345958,345958,346607,116
114,test,1,inc,1,m,Thu May 07 2026 15:17:43 GMT-0500 (Central Daylight Time),351945.1999999881,kiwi,1000,I,m,m,None,882,683.0,199.0,127,,2412.099999964237,349533.10000002384,8069,lead,NF,C,348340,348340,346611,347624,346612,349023,348141,348141,349023,117
115,test,1,inc,1,z,Thu May 07 2026 15:17:43 GMT-0500 (Central Daylight Time),354061.1999999881,silver,1000,I,z,z,None,579,379.0,200.0,15,,2112.599999964237,351948.60000002384,8069,cherry,NF,C,350756,350756,349027,350040,349027,351139,350556,350556,351139,118
116,test,1,inc,1,m,Thu May 07 2026 15:17:43 GMT-0500 (Central Daylight Time),356077.1999999881,banana,800,I,m,m,None,679,479.0,200.0,93,,2012.0,354065.1999999881,8069,cobalt,NF,C,352672,352672,351143,351956,351143,353155,352472,352472,353155,119
117,test,1,con,1,m,Thu May 07 2026 15:17:43 GMT-0500 (Central Daylight Time),358193.3000000119,lead,800,I,m,m,None,767,567.0,200.0,121,,2112.100000023842,356081.1999999881,8069,lead,NF,C,354688,354688,353159,353972,353159,355271,354488,354488,355271,120
118,test,1,con,1,z,Thu May 07 2026 15:17:43 GMT-0500 (Central Daylight Time),360242.5,orange,1000,I,z,z,None,515,315.0,200.0,19,,2045.699999988079,358196.8000000119,8069,orange,NF,C,357004,357004,355275,356288,355275,357321,356804,356804,357321,121
119,test,1,inc,1,z,Thu May 07 2026 15:17:43 GMT-0500 (Central Daylight Time),362241.8000000119,copper,900,I,z,z,None,556,357.0,199.0,22,,1995.9000000357628,360245.89999997616,8069,orange,NF,C,358954,358954,357324,358237,357324,359320,358754,358754,359320,122
120,test,1,con,1,m,Thu May 07 2026 15:17:43 GMT-0500 (Central Daylight Time),364291.3000000119,gold,800,I,m,m,None,706,506.0,200.0,97,,2045.9000000357628,362245.39999997616,8069,gold,NF,C,360853,360853,359323,360137,359324,361369,360653,360653,361369,123
121,test,1,con,1,z,Thu May 07 2026 15:17:43 GMT-0500 (Central Daylight Time),366241.10000002384,kiwi,900,I,z,z,None,516,317.0,199.0,50,,1945.5,364295.60000002384,8069,kiwi,NF,C,363002,363002,361374,362288,361374,363319,362803,362803,363319,124
122,test,1,inc,1,z,Thu May 07 2026 15:17:43 GMT-0500 (Central Daylight Time),368440.0,silver,1000,I,z,z,None,675,476.0,199.0,31,,2195.100000023842,366244.89999997616,8069,raisin,NF,C,365035,365035,363323,364335,363323,365518,364836,364836,365518,125
123,test,1,inc,1,z,Thu May 07 2026 15:17:43 GMT-0500 (Central Daylight Time),370472.6999999881,gold,800,I,z,z,None,691,492.0,199.0,45,,2029.0,368443.6999999881,8069,pear,NF,C,367051,367051,365522,366335,365522,367551,366852,366852,367551,126
124,test,1,con,1,m,Thu May 07 2026 15:17:43 GMT-0500 (Central Daylight Time),372422.0,zinc,800,I,m,m,None,610,411.0,199.0,113,,1945.199999988079,370476.8000000119,8069,zinc,NF,C,369084,369084,367555,368367,367555,369500,368884,368884,369500,127
125,test,1,inc,1,m,Thu May 07 2026 15:17:43 GMT-0500 (Central Daylight Time),374538.0,lime,800,I,m,m,None,774,574.0,200.0,125,,2112.399999976158,372425.60000002384,8069,lead,NF,C,371033,371033,369504,370317,369504,371616,370833,370833,371616,128
