acc_sum,block,block_c,change,condition,correct,correct_response,datetime,endtime,face,project,response,response_time,row_sel,session_number,start_end,starttime,subject_id,task,task_vers,trial
0,prac,1,,1-Back,,,Fri May 08 2026 13:28:24 GMT-0500 (Central Daylight Time),,050_m_f_n_a.png,I,space,3193,1,,,,8074,NNB,A,0
1,prac,1,0.0,1-Back,1.0,m,Fri May 08 2026 13:28:24 GMT-0500 (Central Daylight Time),80519.20000004768,063_y_f_n_a.png,I,m,630,2,,1439.5,79079.70000004768,8074,NNB,A,1
2,prac,1,1.0,1-Back,1.0,z,Fri May 08 2026 13:28:24 GMT-0500 (Central Daylight Time),82068.60000002384,063_y_f_n_a.png,I,z,770,3,,1542.6000000238419,80526.0,8074,NNB,A,2
3,prac,1,0.0,1-Back,1.0,m,Fri May 08 2026 13:28:24 GMT-0500 (Central Daylight Time),83651.40000009537,053_o_m_n_a.png,I,m,770,4,,1576.1000000238419,82075.30000007153,8074,NNB,A,3
4,prac,1,0.0,1-Back,1.0,m,Fri May 08 2026 13:28:24 GMT-0500 (Central Daylight Time),85050.80000007153,058_m_m_n_a.png,I,m,596,5,,1392.8999999761581,83657.90000009537,8074,NNB,A,4
5,prac,1,1.0,1-Back,1.0,z,Fri May 08 2026 13:28:24 GMT-0500 (Central Daylight Time),86485.20000004768,058_m_m_n_a.png,I,z,646,6,,1427.7000000476837,85057.5,8074,NNB,A,5
6,prac,1,0.0,1-Back,1.0,m,Fri May 08 2026 13:28:24 GMT-0500 (Central Daylight Time),87917.10000002384,047_o_f_n_a.png,I,m,653,7,,1425.3999999761581,86491.70000004768,8074,NNB,A,6
7,prac,1,0.0,1-Back,1.0,m,Fri May 08 2026 13:28:24 GMT-0500 (Central Daylight Time),89366.60000002384,045_m_m_n_a.png,I,m,669,8,,1443.2999999523163,87923.30000007153,8074,NNB,A,7
8,prac,1,0.0,1-Back,1.0,m,Fri May 08 2026 13:28:24 GMT-0500 (Central Daylight Time),90882.70000004768,050_m_f_n_a.png,I,m,732,9,,1510.0,89372.70000004768,8074,NNB,A,8
9,prac,1,1.0,1-Back,1.0,z,Fri May 08 2026 13:28:24 GMT-0500 (Central Daylight Time),92315.80000007153,050_m_f_n_a.png,I,z,656,10,,1427.1000000238419,90888.70000004768,8074,NNB,A,9
10,prac,1,0.0,1-Back,1.0,m,Fri May 08 2026 13:28:24 GMT-0500 (Central Daylight Time),93748.60000002384,053_o_m_n_a.png,I,m,655,11,,1426.8999999761581,92321.70000004768,8074,NNB,A,10
10,prac,1,0.0,1-Back,0.0,m,Fri May 08 2026 13:28:24 GMT-0500 (Central Daylight Time),95281.40000009537,010_y_f_n_a.png,I,z,687,12,,1526.2000000476837,93755.20000004768,8074,NNB,A,11
0,test,1,0.0,1-Back,,,Fri May 08 2026 13:28:24 GMT-0500 (Central Daylight Time),95281.40000009537,063_y_f_n_a.png,I,space,3303,1,,1526.2000000476837,93755.20000004768,8074,NNB,A,0
1,test,1,0.0,1-Back,1.0,m,Fri May 08 2026 13:28:24 GMT-0500 (Central Daylight Time),107710.90000009537,043_m_f_n_a.png,I,m,810,2,,1827.1000000238419,105883.80000007153,8074,NNB,A,1
2,test,1,0.0,1-Back,1.0,m,Fri May 08 2026 13:28:24 GMT-0500 (Central Daylight Time),109560.5,010_y_f_n_a.png,I,m,818,3,,1847.0999999046326,107713.40000009537,8074,NNB,A,2
3,test,1,1.0,1-Back,1.0,z,Fri May 08 2026 13:28:24 GMT-0500 (Central Daylight Time),111342.90000009537,010_y_f_n_a.png,I,z,752,4,,1779.7000000476837,109563.20000004768,8074,NNB,A,3
4,test,1,0.0,1-Back,1.0,m,Fri May 08 2026 13:28:24 GMT-0500 (Central Daylight Time),113275.80000007153,043_m_f_n_a.png,I,m,912,5,,1930.3999999761581,111345.40000009537,8074,NNB,A,4
5,test,1,0.0,1-Back,1.0,m,Fri May 08 2026 13:28:24 GMT-0500 (Central Daylight Time),115158.20000004768,053_o_m_n_a.png,I,m,851,6,,1879.7000000476837,113278.5,8074,NNB,A,5
6,test,1,1.0,1-Back,1.0,z,Fri May 08 2026 13:28:24 GMT-0500 (Central Daylight Time),117107.5,053_o_m_n_a.png,I,z,929,7,,1946.3999999761581,115161.10000002384,8074,NNB,A,6
7,test,1,0.0,1-Back,1.0,m,Fri May 08 2026 13:28:24 GMT-0500 (Central Daylight Time),118907.10000002384,058_m_m_n_a.png,I,m,772,8,,1796.8999999761581,117110.20000004768,8074,NNB,A,7
8,test,1,0.0,1-Back,1.0,m,Fri May 08 2026 13:28:24 GMT-0500 (Central Daylight Time),120706.70000004768,047_o_f_n_a.png,I,m,773,9,,1796.7999999523163,118909.90000009537,8074,NNB,A,8
9,test,1,0.0,1-Back,1.0,m,Fri May 08 2026 13:28:24 GMT-0500 (Central Daylight Time),122622.70000004768,058_m_m_n_a.png,I,m,886,10,,1913.5,120709.20000004768,8074,NNB,A,9
10,test,1,0.0,1-Back,1.0,m,Fri May 08 2026 13:28:24 GMT-0500 (Central Daylight Time),124355.40000009537,041_y_m_n_a.png,I,m,704,11,,1730.1000000238419,122625.30000007153,8074,NNB,A,10
11,test,1,1.0,1-Back,1.0,z,Fri May 08 2026 13:28:24 GMT-0500 (Central Daylight Time),126155.0,041_y_m_n_a.png,I,z,779,12,,1797.0999999046326,124357.90000009537,8074,NNB,A,11
12,test,1,0.0,1-Back,1.0,m,Fri May 08 2026 13:28:24 GMT-0500 (Central Daylight Time),127954.20000004768,044_o_f_n_a.png,I,m,781,13,,1797.0,126157.20000004768,8074,NNB,A,12
13,test,1,1.0,1-Back,1.0,z,Fri May 08 2026 13:28:24 GMT-0500 (Central Daylight Time),129787.40000009537,044_o_f_n_a.png,I,z,814,14,,1830.8000000715256,127956.60000002384,8074,NNB,A,13
14,test,1,0.0,1-Back,1.0,m,Fri May 08 2026 13:28:24 GMT-0500 (Central Daylight Time),131619.80000007153,008_y_m_n_a.png,I,m,805,15,,1830.0,129789.80000007153,8074,NNB,A,14
15,test,1,0.0,1-Back,1.0,m,Fri May 08 2026 13:28:24 GMT-0500 (Central Daylight Time),133402.80000007153,050_m_f_n_a.png,I,m,764,16,,1780.5,131622.30000007153,8074,NNB,A,15
16,test,1,0.0,1-Back,1.0,m,Fri May 08 2026 13:28:24 GMT-0500 (Central Daylight Time),135201.90000009537,046_o_m_n_a.png,I,m,782,17,,1796.3000000715256,133405.60000002384,8074,NNB,A,16
17,test,1,0.0,1-Back,1.0,m,Fri May 08 2026 13:28:24 GMT-0500 (Central Daylight Time),137017.90000009537,050_m_f_n_a.png,I,m,798,18,,1813.6000000238419,135204.30000007153,8074,NNB,A,17
0,test,2,0.0,1-Back,,,Fri May 08 2026 13:28:24 GMT-0500 (Central Daylight Time),137017.90000009537,058_m_m_n_a.png,I,space,3647,1,,1813.6000000238419,135204.30000007153,8074,NNB,A,0
1,test,2,0.0,1-Back,1.0,m,Fri May 08 2026 13:28:24 GMT-0500 (Central Daylight Time),144449.20000004768,043_m_f_n_a.png,I,m,749,2,,1760.1000000238419,142689.10000002384,8074,NNB,A,1
2,test,2,1.0,1-Back,1.0,z,Fri May 08 2026 13:28:24 GMT-0500 (Central Daylight Time),146282.40000009537,043_m_f_n_a.png,I,z,807,3,,1830.9000000953674,144451.5,8074,NNB,A,2
3,test,2,0.0,1-Back,1.0,m,Fri May 08 2026 13:28:24 GMT-0500 (Central Daylight Time),148131.60000002384,058_m_m_n_a.png,I,m,830,4,,1846.0,146285.60000002384,8074,NNB,A,3
4,test,2,0.0,1-Back,1.0,m,Fri May 08 2026 13:28:24 GMT-0500 (Central Daylight Time),149898.70000004768,041_y_m_n_a.png,I,m,740,5,,1764.2999999523163,148134.40000009537,8074,NNB,A,4
5,test,2,0.0,1-Back,1.0,m,Fri May 08 2026 13:28:24 GMT-0500 (Central Daylight Time),151863.80000007153,063_y_f_n_a.png,I,m,935,6,,1962.2000000476837,149901.60000002384,8074,NNB,A,5
6,test,2,1.0,1-Back,1.0,z,Fri May 08 2026 13:28:24 GMT-0500 (Central Daylight Time),153579.70000004768,063_y_f_n_a.png,I,z,696,7,,1713.3999999761581,151866.30000007153,8074,NNB,A,6
7,test,2,0.0,1-Back,1.0,m,Fri May 08 2026 13:28:24 GMT-0500 (Central Daylight Time),155279.20000004768,041_y_m_n_a.png,I,m,668,8,,1696.7999999523163,153582.40000009537,8074,NNB,A,7
8,test,2,0.0,1-Back,1.0,m,Fri May 08 2026 13:28:24 GMT-0500 (Central Daylight Time),157078.60000002384,044_o_f_n_a.png,I,m,769,9,,1796.8999999761581,155281.70000004768,8074,NNB,A,8
9,test,2,0.0,1-Back,1.0,m,Fri May 08 2026 13:28:24 GMT-0500 (Central Daylight Time),159211.30000007153,045_m_m_n_a.png,I,m,1106,10,,2129.899999976158,157081.40000009537,8074,NNB,A,9
10,test,2,1.0,1-Back,1.0,z,Fri May 08 2026 13:28:24 GMT-0500 (Central Daylight Time),160910.90000009537,045_m_m_n_a.png,I,z,677,11,,1697.0,159213.90000009537,8074,NNB,A,10
11,test,2,0.0,1-Back,1.0,m,Fri May 08 2026 13:28:24 GMT-0500 (Central Daylight Time),162777.20000004768,044_o_f_n_a.png,I,m,834,12,,1863.8999999761581,160913.30000007153,8074,NNB,A,11
12,test,2,0.0,1-Back,1.0,m,Fri May 08 2026 13:28:24 GMT-0500 (Central Daylight Time),164742.90000009537,047_o_f_n_a.png,I,m,944,13,,1962.8000000715256,162780.10000002384,8074,NNB,A,12
13,test,2,0.0,1-Back,1.0,m,Fri May 08 2026 13:28:24 GMT-0500 (Central Daylight Time),166575.5,053_o_m_n_a.png,I,m,810,14,,1829.5999999046326,164745.90000009537,8074,NNB,A,13
14,test,2,0.0,1-Back,1.0,m,Fri May 08 2026 13:28:24 GMT-0500 (Central Daylight Time),168408.60000002384,046_o_m_n_a.png,I,m,801,15,,1830.6000000238419,166578.0,8074,NNB,A,14
15,test,2,1.0,1-Back,1.0,z,Fri May 08 2026 13:28:24 GMT-0500 (Central Daylight Time),170257.90000009537,046_o_m_n_a.png,I,z,824,16,,1846.8000000715256,168411.10000002384,8074,NNB,A,15
16,test,2,0.0,1-Back,1.0,m,Fri May 08 2026 13:28:24 GMT-0500 (Central Daylight Time),172073.90000009537,008_y_m_n_a.png,I,m,790,17,,1813.5,170260.40000009537,8074,NNB,A,16
16,test,2,1.0,1-Back,0.0,z,Fri May 08 2026 13:28:24 GMT-0500 (Central Daylight Time),173906.80000007153,008_y_m_n_a.png,I,m,806,18,,1830.3000000715256,172076.5,8074,NNB,A,17
0,test,3,1.0,1-Back,,,Fri May 08 2026 13:28:24 GMT-0500 (Central Daylight Time),173906.80000007153,010_y_f_n_a.png,I,space,3574,1,,1830.3000000715256,172076.5,8074,NNB,A,0
1,test,3,0.0,1-Back,1.0,m,Fri May 08 2026 13:28:24 GMT-0500 (Central Daylight Time),181221.20000004768,046_o_m_n_a.png,I,m,637,2,,1661.2999999523163,179559.90000009537,8074,NNB,A,1
2,test,3,1.0,1-Back,1.0,z,Fri May 08 2026 13:28:24 GMT-0500 (Central Daylight Time),182937.20000004768,046_o_m_n_a.png,I,z,691,3,,1713.3999999761581,181223.80000007153,8074,NNB,A,2
3,test,3,0.0,1-Back,1.0,m,Fri May 08 2026 13:28:24 GMT-0500 (Central Daylight Time),184703.30000007153,050_m_f_n_a.png,I,m,743,4,,1763.5,182939.80000007153,8074,NNB,A,3
4,test,3,1.0,1-Back,1.0,z,Fri May 08 2026 13:28:24 GMT-0500 (Central Daylight Time),186436.30000007153,050_m_f_n_a.png,I,z,705,5,,1730.0,184706.30000007153,8074,NNB,A,4
5,test,3,0.0,1-Back,1.0,m,Fri May 08 2026 13:28:24 GMT-0500 (Central Daylight Time),188070.20000004768,044_o_f_n_a.png,I,m,604,6,,1631.3999999761581,186438.80000007153,8074,NNB,A,5
5,test,3,0.0,1-Back,0.0,m,Fri May 08 2026 13:28:24 GMT-0500 (Central Daylight Time),189935.10000002384,041_y_m_n_a.png,I,z,741,7,,1862.2999999523163,188072.80000007153,8074,NNB,A,6
6,test,3,0.0,1-Back,1.0,m,Fri May 08 2026 13:28:24 GMT-0500 (Central Daylight Time),191701.20000004768,044_o_f_n_a.png,I,m,745,8,,1763.3999999761581,189937.80000007153,8074,NNB,A,7
7,test,3,0.0,1-Back,1.0,m,Fri May 08 2026 13:28:24 GMT-0500 (Central Daylight Time),193467.40000009537,008_y_m_n_a.png,I,m,739,9,,1763.6000000238419,191703.80000007153,8074,NNB,A,8
7,test,3,1.0,1-Back,0.0,z,Fri May 08 2026 13:28:24 GMT-0500 (Central Daylight Time),195216.60000002384,008_y_m_n_a.png,I,m,732,10,,1746.6999999284744,193469.90000009537,8074,NNB,A,9
8,test,3,0.0,1-Back,1.0,m,Fri May 08 2026 13:28:24 GMT-0500 (Central Daylight Time),197082.90000009537,043_m_f_n_a.png,I,m,848,11,,1863.9000000953674,195219.0,8074,NNB,A,10
9,test,3,0.0,1-Back,1.0,m,Fri May 08 2026 13:28:24 GMT-0500 (Central Daylight Time),198882.5,063_y_f_n_a.png,I,m,774,12,,1797.1999999284744,197085.30000007153,8074,NNB,A,11
10,test,3,1.0,1-Back,1.0,z,Fri May 08 2026 13:28:24 GMT-0500 (Central Daylight Time),200565.0,063_y_f_n_a.png,I,z,662,13,,1679.6999999284744,198885.30000007153,8074,NNB,A,12
11,test,3,0.0,1-Back,1.0,m,Fri May 08 2026 13:28:24 GMT-0500 (Central Daylight Time),202314.20000004768,043_m_f_n_a.png,I,m,731,14,,1746.3999999761581,200567.80000007153,8074,NNB,A,13
12,test,3,0.0,1-Back,1.0,m,Fri May 08 2026 13:28:24 GMT-0500 (Central Daylight Time),204147.40000009537,058_m_m_n_a.png,I,m,806,15,,1830.7000000476837,202316.70000004768,8074,NNB,A,14
13,test,3,1.0,1-Back,1.0,z,Fri May 08 2026 13:28:24 GMT-0500 (Central Daylight Time),205963.20000004768,058_m_m_n_a.png,I,z,797,16,,1813.1000000238419,204150.10000002384,8074,NNB,A,15
14,test,3,0.0,1-Back,1.0,m,Fri May 08 2026 13:28:24 GMT-0500 (Central Daylight Time),207696.20000004768,047_o_f_n_a.png,I,m,709,17,,1730.3999999761581,205965.80000007153,8074,NNB,A,16
15,test,3,1.0,1-Back,1.0,z,Fri May 08 2026 13:28:24 GMT-0500 (Central Daylight Time),209545.70000004768,047_o_f_n_a.png,I,z,824,18,,1847.1000000238419,207698.60000002384,8074,NNB,A,17
0,test,4,1.0,1-Back,,,Fri May 08 2026 13:28:24 GMT-0500 (Central Daylight Time),209545.70000004768,050_m_f_n_a.png,I,space,2455,1,,1847.1000000238419,207698.60000002384,8074,NNB,A,0
1,test,4,0.0,1-Back,1.0,m,Fri May 08 2026 13:28:24 GMT-0500 (Central Daylight Time),215794.80000007153,046_o_m_n_a.png,I,m,749,2,,1763.3999999761581,214031.40000009537,8074,NNB,A,1
2,test,4,0.0,1-Back,1.0,m,Fri May 08 2026 13:28:24 GMT-0500 (Central Daylight Time),217876.0,050_m_f_n_a.png,I,m,1054,3,,2078.6999999284744,215797.30000007153,8074,NNB,A,2
3,test,4,0.0,1-Back,1.0,m,Fri May 08 2026 13:28:24 GMT-0500 (Central Daylight Time),219842.10000002384,044_o_f_n_a.png,I,m,948,4,,1963.6000000238419,217878.5,8074,NNB,A,3
4,test,4,1.0,1-Back,1.0,z,Fri May 08 2026 13:28:24 GMT-0500 (Central Daylight Time),221508.30000007153,044_o_f_n_a.png,I,z,638,5,,1663.6000000238419,219844.70000004768,8074,NNB,A,4
5,test,4,0.0,1-Back,1.0,m,Fri May 08 2026 13:28:24 GMT-0500 (Central Daylight Time),223440.90000009537,063_y_f_n_a.png,I,m,916,6,,1930.1000000238419,221510.80000007153,8074,NNB,A,5
6,test,4,0.0,1-Back,1.0,m,Fri May 08 2026 13:28:24 GMT-0500 (Central Daylight Time),225174.0,041_y_m_n_a.png,I,m,703,7,,1730.5999999046326,223443.40000009537,8074,NNB,A,6
7,test,4,1.0,1-Back,1.0,z,Fri May 08 2026 13:28:24 GMT-0500 (Central Daylight Time),226923.40000009537,041_y_m_n_a.png,I,z,730,8,,1746.6000000238419,225176.80000007153,8074,NNB,A,7
8,test,4,0.0,1-Back,1.0,m,Fri May 08 2026 13:28:24 GMT-0500 (Central Daylight Time),228773.0,063_y_f_n_a.png,I,m,829,9,,1846.8999999761581,226926.10000002384,8074,NNB,A,8
9,test,4,0.0,1-Back,1.0,m,Fri May 08 2026 13:28:24 GMT-0500 (Central Daylight Time),230622.60000002384,045_m_m_n_a.png,I,m,819,10,,1847.1000000238419,228775.5,8074,NNB,A,9
10,test,4,1.0,1-Back,1.0,z,Fri May 08 2026 13:28:24 GMT-0500 (Central Daylight Time),232605.10000002384,045_m_m_n_a.png,I,z,953,11,,1980.1000000238419,230625.0,8074,NNB,A,10
11,test,4,0.0,1-Back,1.0,m,Fri May 08 2026 13:28:24 GMT-0500 (Central Daylight Time),234471.20000004768,047_o_f_n_a.png,I,m,834,12,,1863.7000000476837,232607.5,8074,NNB,A,11
12,test,4,0.0,1-Back,1.0,m,Fri May 08 2026 13:28:24 GMT-0500 (Central Daylight Time),236332.5,053_o_m_n_a.png,I,m,844,13,,1858.3999999761581,234474.10000002384,8074,NNB,A,12
13,test,4,0.0,1-Back,1.0,m,Fri May 08 2026 13:28:24 GMT-0500 (Central Daylight Time),238303.20000004768,047_o_f_n_a.png,I,m,960,14,,1967.7999999523163,236335.40000009537,8074,NNB,A,13
14,test,4,0.0,1-Back,1.0,m,Fri May 08 2026 13:28:24 GMT-0500 (Central Daylight Time),240185.80000007153,010_y_f_n_a.png,I,m,864,15,,1880.1000000238419,238305.70000004768,8074,NNB,A,14
15,test,4,1.0,1-Back,1.0,z,Fri May 08 2026 13:28:24 GMT-0500 (Central Daylight Time),241852.30000007153,010_y_f_n_a.png,I,z,646,16,,1664.1000000238419,240188.20000004768,8074,NNB,A,15
16,test,4,0.0,1-Back,1.0,m,Fri May 08 2026 13:28:24 GMT-0500 (Central Daylight Time),243584.70000004768,043_m_f_n_a.png,I,m,707,17,,1730.1000000238419,241854.60000002384,8074,NNB,A,16
16,test,4,1.0,1-Back,0.0,z,Fri May 08 2026 13:28:24 GMT-0500 (Central Daylight Time),245284.30000007153,043_m_f_n_a.png,I,m,672,18,,1697.2000000476837,243587.10000002384,8074,NNB,A,17
0,test,5,1.0,1-Back,,,Fri May 08 2026 13:28:24 GMT-0500 (Central Daylight Time),245284.30000007153,053_o_m_n_a.png,I,space,1636,1,,1697.2000000476837,243587.10000002384,8074,NNB,A,0
1,test,5,1.0,1-Back,1.0,z,Fri May 08 2026 13:28:24 GMT-0500 (Central Daylight Time),250899.20000004768,053_o_m_n_a.png,I,z,930,2,,1945.7999999523163,248953.40000009537,8074,NNB,A,1
2,test,5,0.0,1-Back,1.0,m,Fri May 08 2026 13:28:24 GMT-0500 (Central Daylight Time),252565.60000002384,063_y_f_n_a.png,I,m,645,3,,1663.6999999284744,250901.90000009537,8074,NNB,A,2
3,test,5,0.0,1-Back,1.0,m,Fri May 08 2026 13:28:24 GMT-0500 (Central Daylight Time),254331.70000004768,041_y_m_n_a.png,I,m,739,4,,1763.7000000476837,252568.0,8074,NNB,A,3
4,test,5,0.0,1-Back,1.0,m,Fri May 08 2026 13:28:24 GMT-0500 (Central Daylight Time),256281.10000002384,063_y_f_n_a.png,I,m,917,5,,1946.7999999523163,254334.30000007153,8074,NNB,A,4
5,test,5,0.0,1-Back,1.0,m,Fri May 08 2026 13:28:24 GMT-0500 (Central Daylight Time),258130.40000009537,058_m_m_n_a.png,I,m,830,6,,1847.1000000238419,256283.30000007153,8074,NNB,A,5
6,test,5,1.0,1-Back,1.0,z,Fri May 08 2026 13:28:24 GMT-0500 (Central Daylight Time),259946.20000004768,058_m_m_n_a.png,I,z,792,7,,1813.2999999523163,258132.90000009537,8074,NNB,A,6
7,test,5,0.0,1-Back,1.0,m,Fri May 08 2026 13:28:24 GMT-0500 (Central Daylight Time),261729.0,010_y_f_n_a.png,I,m,766,8,,1777.7999999523163,259951.20000004768,8074,NNB,A,7
8,test,5,0.0,1-Back,1.0,m,Fri May 08 2026 13:28:24 GMT-0500 (Central Daylight Time),263495.40000009537,008_y_m_n_a.png,I,m,742,9,,1763.9000000953674,261731.5,8074,NNB,A,8
9,test,5,0.0,1-Back,1.0,m,Fri May 08 2026 13:28:24 GMT-0500 (Central Daylight Time),265244.8000000715,010_y_f_n_a.png,I,m,728,10,,1746.7000000476837,263498.10000002384,8074,NNB,A,9
10,test,5,0.0,1-Back,1.0,m,Fri May 08 2026 13:28:24 GMT-0500 (Central Daylight Time),266894.3000000715,047_o_f_n_a.png,I,m,628,11,,1646.6000000238419,265247.7000000477,8074,NNB,A,10
11,test,5,1.0,1-Back,1.0,z,Fri May 08 2026 13:28:24 GMT-0500 (Central Daylight Time),268760.60000002384,047_o_f_n_a.png,I,z,841,12,,1864.0,266896.60000002384,8074,NNB,A,11
12,test,5,0.0,1-Back,1.0,m,Fri May 08 2026 13:28:24 GMT-0500 (Central Daylight Time),270560.0,046_o_m_n_a.png,I,m,767,13,,1796.8999999761581,268763.10000002384,8074,NNB,A,12
13,test,5,0.0,1-Back,1.0,m,Fri May 08 2026 13:28:24 GMT-0500 (Central Daylight Time),272292.8000000715,050_m_f_n_a.png,I,m,705,14,,1730.3999999761581,270562.40000009537,8074,NNB,A,13
13,test,5,1.0,1-Back,0.0,z,Fri May 08 2026 13:28:24 GMT-0500 (Central Daylight Time),274008.90000009537,050_m_f_n_a.png,I,m,684,15,,1713.8000000715256,272295.10000002384,8074,NNB,A,14
14,test,5,0.0,1-Back,1.0,m,Fri May 08 2026 13:28:24 GMT-0500 (Central Daylight Time),275724.8000000715,046_o_m_n_a.png,I,m,688,16,,1713.1000000238419,274011.7000000477,8074,NNB,A,15
15,test,5,0.0,1-Back,1.0,m,Fri May 08 2026 13:28:24 GMT-0500 (Central Daylight Time),277474.60000002384,043_m_f_n_a.png,I,m,723,17,,1747.1999999284744,275727.40000009537,8074,NNB,A,16
16,test,5,0.0,1-Back,1.0,m,Fri May 08 2026 13:28:24 GMT-0500 (Central Daylight Time),279124.10000002384,045_m_m_n_a.png,I,m,630,18,,1647.1000000238419,277477.0,8074,NNB,A,17
0,prac,1,0.0,2-Back,,,Fri May 08 2026 13:28:24 GMT-0500 (Central Daylight Time),279124.10000002384,008_y_m_n_a.png,I,space,3307,1,,1647.1000000238419,277477.0,8074,NNB,A,0
0,prac,1,0.0,2-Back,,,Fri May 08 2026 13:28:24 GMT-0500 (Central Daylight Time),279124.10000002384,043_m_f_n_a.png,I,space,3307,2,,1647.1000000238419,277477.0,8074,NNB,A,0
1,prac,1,1.0,2-Back,1.0,m,Fri May 08 2026 13:28:24 GMT-0500 (Central Daylight Time),372811.2000000477,046_o_m_n_a.png,I,m,1011,3,,1805.7999999523163,371005.40000009537,8074,NNB,A,1
2,prac,1,0.0,2-Back,1.0,m,Fri May 08 2026 13:28:24 GMT-0500 (Central Daylight Time),375094.60000002384,047_o_f_n_a.png,I,m,1446,4,,2277.0,372817.60000002384,8074,NNB,A,2
3,prac,1,0.0,2-Back,1.0,z,Fri May 08 2026 13:28:24 GMT-0500 (Central Daylight Time),376760.0,046_o_m_n_a.png,I,z,884,5,,1659.2999999523163,375100.7000000477,8074,NNB,A,3
4,prac,1,1.0,2-Back,1.0,z,Fri May 08 2026 13:28:24 GMT-0500 (Central Daylight Time),378593.0,047_o_f_n_a.png,I,z,1057,6,,1826.2999999523163,376766.7000000477,8074,NNB,A,4
5,prac,1,0.0,2-Back,1.0,m,Fri May 08 2026 13:28:24 GMT-0500 (Central Daylight Time),380492.3000000715,045_m_m_n_a.png,I,m,1088,7,,1893.0,378599.3000000715,8074,NNB,A,5
6,prac,1,0.0,2-Back,1.0,m,Fri May 08 2026 13:28:24 GMT-0500 (Central Daylight Time),382225.0,053_o_m_n_a.png,I,m,925,8,,1726.5999999046326,380498.40000009537,8074,NNB,A,6
7,prac,1,0.0,2-Back,1.0,m,Fri May 08 2026 13:28:24 GMT-0500 (Central Daylight Time),383891.0,010_y_f_n_a.png,I,m,881,9,,1659.5,382231.5,8074,NNB,A,7
8,prac,1,1.0,2-Back,1.0,z,Fri May 08 2026 13:28:24 GMT-0500 (Central Daylight Time),385474.0,053_o_m_n_a.png,I,z,799,10,,1576.7999999523163,383897.2000000477,8074,NNB,A,8
8,prac,1,0.0,2-Back,0.0,m,Fri May 08 2026 13:28:24 GMT-0500 (Central Daylight Time),387206.60000002384,063_y_f_n_a.png,I,z,920,11,,1726.2999999523163,385480.3000000715,8074,NNB,A,9
9,prac,1,0.0,2-Back,1.0,m,Fri May 08 2026 13:28:24 GMT-0500 (Central Daylight Time),389056.3000000715,045_m_m_n_a.png,I,m,1076,12,,1843.8000000715256,387212.5,8074,NNB,A,10
0,test,1,0.0,2-Back,,,Fri May 08 2026 13:28:24 GMT-0500 (Central Daylight Time),389056.3000000715,041_y_m_n_a.png,I,space,3203,1,,1843.8000000715256,387212.5,8074,NNB,A,0
0,test,1,0.0,2-Back,,,Fri May 08 2026 13:28:24 GMT-0500 (Central Daylight Time),389056.3000000715,041_y_m_n_a.png,I,space,3203,2,,1843.8000000715256,387212.5,8074,NNB,A,0
1,test,1,0.0,2-Back,1.0,m,Fri May 08 2026 13:28:24 GMT-0500 (Central Daylight Time),405367.8000000715,047_o_f_n_a.png,I,m,992,3,,2009.1000000238419,403358.7000000477,8074,NNB,A,1
2,test,1,0.0,2-Back,1.0,m,Fri May 08 2026 13:28:24 GMT-0500 (Central Daylight Time),407383.8000000715,058_m_m_n_a.png,I,m,993,4,,2013.3999999761581,405370.40000009537,8074,NNB,A,2
3,test,1,1.0,2-Back,1.0,z,Fri May 08 2026 13:28:24 GMT-0500 (Central Daylight Time),409199.90000009537,047_o_f_n_a.png,I,z,785,5,,1813.7000000476837,407386.2000000477,8074,NNB,A,3
4,test,1,0.0,2-Back,1.0,m,Fri May 08 2026 13:28:24 GMT-0500 (Central Daylight Time),410982.7000000477,063_y_f_n_a.png,I,m,753,6,,1780.2999999523163,409202.40000009537,8074,NNB,A,4
5,test,1,0.0,2-Back,1.0,m,Fri May 08 2026 13:28:24 GMT-0500 (Central Daylight Time),413198.60000002384,058_m_m_n_a.png,I,m,1186,7,,2213.5,410985.10000002384,8074,NNB,A,5
6,test,1,1.0,2-Back,1.0,z,Fri May 08 2026 13:28:24 GMT-0500 (Central Daylight Time),414981.3000000715,063_y_f_n_a.png,I,z,762,8,,1780.0,413201.3000000715,8074,NNB,A,6
7,test,1,0.0,2-Back,1.0,m,Fri May 08 2026 13:28:24 GMT-0500 (Central Daylight Time),416897.10000002384,008_y_m_n_a.png,I,m,891,9,,1913.3999999761581,414983.7000000477,8074,NNB,A,7
8,test,1,0.0,2-Back,1.0,m,Fri May 08 2026 13:28:24 GMT-0500 (Central Daylight Time),418813.5,044_o_f_n_a.png,I,m,895,10,,1914.0,416899.5,8074,NNB,A,8
9,test,1,1.0,2-Back,1.0,z,Fri May 08 2026 13:28:24 GMT-0500 (Central Daylight Time),420612.7000000477,008_y_m_n_a.png,I,z,779,11,,1796.7000000476837,418816.0,8074,NNB,A,9
10,test,1,0.0,2-Back,1.0,m,Fri May 08 2026 13:28:24 GMT-0500 (Central Daylight Time),422445.5,043_m_f_n_a.png,I,m,812,12,,1830.2999999523163,420615.2000000477,8074,NNB,A,10
11,test,1,0.0,2-Back,1.0,m,Fri May 08 2026 13:28:24 GMT-0500 (Central Daylight Time),424511.7000000477,043_m_f_n_a.png,I,m,1042,13,,2063.600000023842,422448.10000002384,8074,NNB,A,11
12,test,1,0.0,2-Back,1.0,m,Fri May 08 2026 13:28:24 GMT-0500 (Central Daylight Time),426395.5,046_o_m_n_a.png,I,m,864,14,,1881.0999999046326,424514.40000009537,8074,NNB,A,12
13,test,1,0.0,2-Back,1.0,m,Fri May 08 2026 13:28:24 GMT-0500 (Central Daylight Time),428410.7000000477,044_o_f_n_a.png,I,m,991,15,,2012.5,426398.2000000477,8074,NNB,A,13
14,test,1,1.0,2-Back,1.0,z,Fri May 08 2026 13:28:24 GMT-0500 (Central Daylight Time),430093.2000000477,046_o_m_n_a.png,I,z,662,16,,1680.0,428413.2000000477,8074,NNB,A,14
15,test,1,0.0,2-Back,1.0,m,Fri May 08 2026 13:28:24 GMT-0500 (Central Daylight Time),431992.5,050_m_f_n_a.png,I,m,867,17,,1896.6999999284744,430095.8000000715,8074,NNB,A,15
16,test,1,0.0,2-Back,1.0,m,Fri May 08 2026 13:28:24 GMT-0500 (Central Daylight Time),433925.60000002384,045_m_m_n_a.png,I,m,913,18,,1930.5,431995.10000002384,8074,NNB,A,16
0,test,2,0.0,2-Back,,,Fri May 08 2026 13:28:24 GMT-0500 (Central Daylight Time),433925.60000002384,045_m_m_n_a.png,I,space,2427,1,,1930.5,431995.10000002384,8074,NNB,A,0
0,test,2,0.0,2-Back,,,Fri May 08 2026 13:28:24 GMT-0500 (Central Daylight Time),433925.60000002384,010_y_f_n_a.png,I,space,2427,2,,1930.5,431995.10000002384,8074,NNB,A,0
1,test,2,1.0,2-Back,1.0,z,Fri May 08 2026 13:28:24 GMT-0500 (Central Daylight Time),443389.40000009537,045_m_m_n_a.png,I,z,904,3,,1928.8000000715256,441460.60000002384,8074,NNB,A,1
2,test,2,0.0,2-Back,1.0,m,Fri May 08 2026 13:28:24 GMT-0500 (Central Daylight Time),445288.5,050_m_f_n_a.png,I,m,875,4,,1896.8999999761581,443391.60000002384,8074,NNB,A,2
3,test,2,0.0,2-Back,1.0,m,Fri May 08 2026 13:28:24 GMT-0500 (Central Daylight Time),447304.90000009537,010_y_f_n_a.png,I,m,1000,5,,2014.0,445290.90000009537,8074,NNB,A,3
4,test,2,0.0,2-Back,1.0,m,Fri May 08 2026 13:28:24 GMT-0500 (Central Daylight Time),449254.0,046_o_m_n_a.png,I,m,891,6,,1947.0,447307.0,8074,NNB,A,4
4,test,2,0.0,2-Back,0.0,m,Fri May 08 2026 13:28:24 GMT-0500 (Central Daylight Time),451069.90000009537,063_y_f_n_a.png,I,z,795,7,,1813.4000000953674,449256.5,8074,NNB,A,5
5,test,2,1.0,2-Back,1.0,z,Fri May 08 2026 13:28:24 GMT-0500 (Central Daylight Time),452819.7000000477,046_o_m_n_a.png,I,z,729,8,,1747.2999999523163,451072.40000009537,8074,NNB,A,6
6,test,2,0.0,2-Back,1.0,m,Fri May 08 2026 13:28:24 GMT-0500 (Central Daylight Time),454718.7000000477,008_y_m_n_a.png,I,m,877,9,,1896.6000000238419,452822.10000002384,8074,NNB,A,7
7,test,2,0.0,2-Back,1.0,m,Fri May 08 2026 13:28:24 GMT-0500 (Central Daylight Time),456735.2000000477,008_y_m_n_a.png,I,m,994,10,,2014.1000000238419,454721.10000002384,8074,NNB,A,8
8,test,2,0.0,2-Back,1.0,m,Fri May 08 2026 13:28:24 GMT-0500 (Central Daylight Time),458650.90000009537,043_m_f_n_a.png,I,m,898,11,,1913.1000000238419,456737.8000000715,8074,NNB,A,9
9,test,2,0.0,2-Back,1.0,m,Fri May 08 2026 13:28:24 GMT-0500 (Central Daylight Time),460533.90000009537,010_y_f_n_a.png,I,m,854,12,,1880.7000000476837,458653.2000000477,8074,NNB,A,10
10,test,2,1.0,2-Back,1.0,z,Fri May 08 2026 13:28:24 GMT-0500 (Central Daylight Time),462399.8000000715,043_m_f_n_a.png,I,z,843,13,,1863.1000000238419,460536.7000000477,8074,NNB,A,11
11,test,2,0.0,2-Back,1.0,m,Fri May 08 2026 13:28:24 GMT-0500 (Central Daylight Time),464249.10000002384,053_o_m_n_a.png,I,m,833,14,,1846.6999999284744,462402.40000009537,8074,NNB,A,12
12,test,2,0.0,2-Back,1.0,m,Fri May 08 2026 13:28:24 GMT-0500 (Central Daylight Time),466148.60000002384,053_o_m_n_a.png,I,m,871,15,,1897.0,464251.60000002384,8074,NNB,A,13
13,test,2,0.0,2-Back,1.0,m,Fri May 08 2026 13:28:24 GMT-0500 (Central Daylight Time),467981.40000009537,044_o_f_n_a.png,I,m,804,16,,1830.6000000238419,466150.8000000715,8074,NNB,A,14
14,test,2,0.0,2-Back,1.0,m,Fri May 08 2026 13:28:24 GMT-0500 (Central Daylight Time),469897.10000002384,058_m_m_n_a.png,I,m,898,17,,1912.6999999284744,467984.40000009537,8074,NNB,A,15
15,test,2,1.0,2-Back,1.0,z,Fri May 08 2026 13:28:24 GMT-0500 (Central Daylight Time),471713.7000000477,044_o_f_n_a.png,I,z,791,18,,1813.8999999761581,469899.8000000715,8074,NNB,A,16
0,test,3,1.0,2-Back,,,Fri May 08 2026 13:28:24 GMT-0500 (Central Daylight Time),471713.7000000477,041_y_m_n_a.png,I,space,2463,1,,1813.8999999761581,469899.8000000715,8074,NNB,A,0
0,test,3,1.0,2-Back,,,Fri May 08 2026 13:28:24 GMT-0500 (Central Daylight Time),471713.7000000477,041_y_m_n_a.png,I,space,2463,2,,1813.8999999761581,469899.8000000715,8074,NNB,A,0
1,test,3,0.0,2-Back,1.0,m,Fri May 08 2026 13:28:24 GMT-0500 (Central Daylight Time),481160.8000000715,044_o_f_n_a.png,I,m,892,3,,1912.1000000238419,479248.7000000477,8074,NNB,A,1
2,test,3,0.0,2-Back,1.0,m,Fri May 08 2026 13:28:24 GMT-0500 (Central Daylight Time),483176.8000000715,045_m_m_n_a.png,I,m,984,4,,2013.3000000715256,481163.5,8074,NNB,A,2
3,test,3,1.0,2-Back,1.0,z,Fri May 08 2026 13:28:24 GMT-0500 (Central Daylight Time),485059.60000002384,044_o_f_n_a.png,I,z,864,5,,1880.2999999523163,483179.3000000715,8074,NNB,A,3
4,test,3,0.0,2-Back,1.0,m,Fri May 08 2026 13:28:24 GMT-0500 (Central Daylight Time),486892.3000000715,008_y_m_n_a.png,I,m,813,6,,1830.3999999761581,485061.90000009537,8074,NNB,A,4
5,test,3,0.0,2-Back,1.0,m,Fri May 08 2026 13:28:24 GMT-0500 (Central Daylight Time),488858.40000009537,045_m_m_n_a.png,I,m,940,7,,1963.4000000953674,486895.0,8074,NNB,A,5
6,test,3,1.0,2-Back,1.0,z,Fri May 08 2026 13:28:24 GMT-0500 (Central Daylight Time),490657.7000000477,008_y_m_n_a.png,I,z,774,8,,1797.1000000238419,488860.60000002384,8074,NNB,A,6
7,test,3,0.0,2-Back,1.0,m,Fri May 08 2026 13:28:24 GMT-0500 (Central Daylight Time),492557.0,010_y_f_n_a.png,I,m,871,9,,1896.7999999523163,490660.2000000477,8074,NNB,A,7
8,test,3,0.0,2-Back,1.0,m,Fri May 08 2026 13:28:24 GMT-0500 (Central Daylight Time),494506.5,058_m_m_n_a.png,I,m,924,10,,1947.0,492559.5,8074,NNB,A,8
9,test,3,1.0,2-Back,1.0,z,Fri May 08 2026 13:28:24 GMT-0500 (Central Daylight Time),496422.5,010_y_f_n_a.png,I,z,767,11,,1913.5999999046326,494508.90000009537,8074,NNB,A,9
10,test,3,1.0,2-Back,1.0,z,Fri May 08 2026 13:28:24 GMT-0500 (Central Daylight Time),498321.60000002384,058_m_m_n_a.png,I,z,882,12,,1896.6999999284744,496424.90000009537,8074,NNB,A,10
11,test,3,0.0,2-Back,1.0,m,Fri May 08 2026 13:28:24 GMT-0500 (Central Daylight Time),500238.10000002384,044_o_f_n_a.png,I,m,886,13,,1914.1999999284744,498323.90000009537,8074,NNB,A,11
12,test,3,0.0,2-Back,1.0,m,Fri May 08 2026 13:28:24 GMT-0500 (Central Daylight Time),502120.90000009537,050_m_f_n_a.png,I,m,858,14,,1880.3000000715256,500240.60000002384,8074,NNB,A,12
13,test,3,0.0,2-Back,1.0,m,Fri May 08 2026 13:28:24 GMT-0500 (Central Daylight Time),503986.8000000715,046_o_m_n_a.png,I,m,840,15,,1862.5,502124.3000000715,8074,NNB,A,13
14,test,3,1.0,2-Back,1.0,z,Fri May 08 2026 13:28:24 GMT-0500 (Central Daylight Time),505769.60000002384,050_m_f_n_a.png,I,z,766,16,,1780.3999999761581,503989.2000000477,8074,NNB,A,14
15,test,3,0.0,2-Back,1.0,m,Fri May 08 2026 13:28:24 GMT-0500 (Central Daylight Time),507702.3000000715,047_o_f_n_a.png,I,m,903,17,,1930.2000000476837,505772.10000002384,8074,NNB,A,15
16,test,3,0.0,2-Back,1.0,m,Fri May 08 2026 13:28:24 GMT-0500 (Central Daylight Time),509601.90000009537,047_o_f_n_a.png,I,m,874,18,,1897.1000000238419,507704.8000000715,8074,NNB,A,16
0,test,4,0.0,2-Back,,,Fri May 08 2026 13:28:24 GMT-0500 (Central Daylight Time),509601.90000009537,053_o_m_n_a.png,I,space,2631,1,,1897.1000000238419,507704.8000000715,8074,NNB,A,0
0,test,4,0.0,2-Back,,,Fri May 08 2026 13:28:24 GMT-0500 (Central Daylight Time),509601.90000009537,063_y_f_n_a.png,I,space,2631,2,,1897.1000000238419,507704.8000000715,8074,NNB,A,0
1,test,4,1.0,2-Back,1.0,z,Fri May 08 2026 13:28:24 GMT-0500 (Central Daylight Time),519398.40000009537,053_o_m_n_a.png,I,z,1044,3,,2061.9000000953674,517336.5,8074,NNB,A,1
2,test,4,1.0,2-Back,1.0,z,Fri May 08 2026 13:28:24 GMT-0500 (Central Daylight Time),521114.90000009537,063_y_f_n_a.png,I,z,690,4,,1714.2000000476837,519400.7000000477,8074,NNB,A,2
3,test,4,0.0,2-Back,1.0,m,Fri May 08 2026 13:28:24 GMT-0500 (Central Daylight Time),522914.3000000715,044_o_f_n_a.png,I,m,775,5,,1797.1000000238419,521117.2000000477,8074,NNB,A,3
4,test,4,0.0,2-Back,1.0,m,Fri May 08 2026 13:28:24 GMT-0500 (Central Daylight Time),524847.0,044_o_f_n_a.png,I,m,910,6,,1930.3999999761581,522916.60000002384,8074,NNB,A,4
5,test,4,0.0,2-Back,1.0,m,Fri May 08 2026 13:28:24 GMT-0500 (Central Daylight Time),526829.6000000238,043_m_f_n_a.png,I,m,953,7,,1980.1999999284744,524849.4000000954,8074,NNB,A,5
6,test,4,0.0,2-Back,1.0,m,Fri May 08 2026 13:28:24 GMT-0500 (Central Daylight Time),528712.8000000715,008_y_m_n_a.png,I,m,851,8,,1880.5,526832.3000000715,8074,NNB,A,6
7,test,4,1.0,2-Back,1.0,z,Fri May 08 2026 13:28:24 GMT-0500 (Central Daylight Time),530478.5,043_m_f_n_a.png,I,z,744,9,,1763.2999999523163,528715.2000000477,8074,NNB,A,7
8,test,4,0.0,2-Back,1.0,m,Fri May 08 2026 13:28:24 GMT-0500 (Central Daylight Time),532361.5,058_m_m_n_a.png,I,m,850,10,,1880.5,530481.0,8074,NNB,A,8
9,test,4,0.0,2-Back,1.0,m,Fri May 08 2026 13:28:24 GMT-0500 (Central Daylight Time),534227.3000000715,008_y_m_n_a.png,I,m,847,11,,1863.5,532363.8000000715,8074,NNB,A,9
10,test,4,0.0,2-Back,1.0,m,Fri May 08 2026 13:28:24 GMT-0500 (Central Daylight Time),536143.6000000238,047_o_f_n_a.png,I,m,893,12,,1913.7999999523163,534229.8000000715,8074,NNB,A,10
11,test,4,0.0,2-Back,1.0,m,Fri May 08 2026 13:28:24 GMT-0500 (Central Daylight Time),538026.2000000477,041_y_m_n_a.png,I,m,857,13,,1880.1000000238419,536146.1000000238,8074,NNB,A,11
12,test,4,1.0,2-Back,1.0,z,Fri May 08 2026 13:28:24 GMT-0500 (Central Daylight Time),539992.4000000954,047_o_f_n_a.png,I,z,933,14,,1963.8000000715256,538028.6000000238,8074,NNB,A,12
13,test,4,1.0,2-Back,1.0,z,Fri May 08 2026 13:28:24 GMT-0500 (Central Daylight Time),541808.2000000477,041_y_m_n_a.png,I,z,792,15,,1813.3999999761581,539994.8000000715,8074,NNB,A,13
14,test,4,0.0,2-Back,1.0,m,Fri May 08 2026 13:28:24 GMT-0500 (Central Daylight Time),543691.2000000477,045_m_m_n_a.png,I,m,852,16,,1880.6000000238419,541810.6000000238,8074,NNB,A,14
15,test,4,0.0,2-Back,1.0,m,Fri May 08 2026 13:28:24 GMT-0500 (Central Daylight Time),545557.0,050_m_f_n_a.png,I,m,837,17,,1863.1999999284744,543693.8000000715,8074,NNB,A,15
15,test,4,1.0,2-Back,0.0,z,Fri May 08 2026 13:28:24 GMT-0500 (Central Daylight Time),547556.7000000477,045_m_m_n_a.png,I,m,972,18,,1997.1000000238419,545559.6000000238,8074,NNB,A,16
0,test,5,1.0,2-Back,,,Fri May 08 2026 13:28:24 GMT-0500 (Central Daylight Time),547556.7000000477,041_y_m_n_a.png,I,space,3788,1,,1997.1000000238419,545559.6000000238,8074,NNB,A,0
0,test,5,1.0,2-Back,,,Fri May 08 2026 13:28:24 GMT-0500 (Central Daylight Time),547556.7000000477,050_m_f_n_a.png,I,space,3788,2,,1997.1000000238419,545559.6000000238,8074,NNB,A,0
1,test,5,1.0,2-Back,1.0,z,Fri May 08 2026 13:28:24 GMT-0500 (Central Daylight Time),558569.5,041_y_m_n_a.png,I,z,1149,3,,2161.0,556408.5,8074,NNB,A,1
2,test,5,1.0,2-Back,1.0,z,Fri May 08 2026 13:28:24 GMT-0500 (Central Daylight Time),560269.4000000954,050_m_f_n_a.png,I,z,671,4,,1697.2000000476837,558572.2000000477,8074,NNB,A,2
3,test,5,0.0,2-Back,1.0,m,Fri May 08 2026 13:28:24 GMT-0500 (Central Daylight Time),562235.2000000477,047_o_f_n_a.png,I,m,947,5,,1963.2000000476837,560272.0,8074,NNB,A,3
4,test,5,0.0,2-Back,1.0,m,Fri May 08 2026 13:28:24 GMT-0500 (Central Daylight Time),564817.5,041_y_m_n_a.png,I,m,1557,6,,2579.5,562238.0,8074,NNB,A,4
5,test,5,0.0,2-Back,1.0,m,Fri May 08 2026 13:28:24 GMT-0500 (Central Daylight Time),566633.7000000477,010_y_f_n_a.png,I,m,798,7,,1813.7000000476837,564820.0,8074,NNB,A,5
6,test,5,0.0,2-Back,1.0,m,Fri May 08 2026 13:28:24 GMT-0500 (Central Daylight Time),568416.8000000715,047_o_f_n_a.png,I,m,758,8,,1780.8000000715256,566636.0,8074,NNB,A,6
7,test,5,1.0,2-Back,1.0,z,Fri May 08 2026 13:28:24 GMT-0500 (Central Daylight Time),570249.7000000477,010_y_f_n_a.png,I,z,809,9,,1830.3999999761581,568419.3000000715,8074,NNB,A,7
8,test,5,0.0,2-Back,1.0,m,Fri May 08 2026 13:28:24 GMT-0500 (Central Daylight Time),572015.8000000715,046_o_m_n_a.png,I,m,735,10,,1763.5,570252.3000000715,8074,NNB,A,8
9,test,5,0.0,2-Back,1.0,m,Fri May 08 2026 13:28:24 GMT-0500 (Central Daylight Time),573865.0,043_m_f_n_a.png,I,m,833,11,,1846.5999999046326,572018.4000000954,8074,NNB,A,9
10,test,5,0.0,2-Back,1.0,m,Fri May 08 2026 13:28:24 GMT-0500 (Central Daylight Time),575647.7000000477,058_m_m_n_a.png,I,m,751,12,,1778.3999999761581,573869.3000000715,8074,NNB,A,10
11,test,5,0.0,2-Back,1.0,m,Fri May 08 2026 13:28:24 GMT-0500 (Central Daylight Time),577413.8000000715,046_o_m_n_a.png,I,m,745,13,,1763.3000000715256,575650.5,8074,NNB,A,11
11,test,5,1.0,2-Back,0.0,z,Fri May 08 2026 13:28:24 GMT-0500 (Central Daylight Time),579179.9000000954,058_m_m_n_a.png,I,m,747,14,,1763.6000000238419,577416.3000000715,8074,NNB,A,12
12,test,5,0.0,2-Back,1.0,m,Fri May 08 2026 13:28:24 GMT-0500 (Central Daylight Time),580879.3000000715,063_y_f_n_a.png,I,m,668,15,,1696.8999999761581,579182.4000000954,8074,NNB,A,13
13,test,5,0.0,2-Back,1.0,m,Fri May 08 2026 13:28:24 GMT-0500 (Central Daylight Time),582662.2000000477,053_o_m_n_a.png,I,m,753,16,,1780.5,580881.7000000477,8074,NNB,A,14
14,test,5,0.0,2-Back,1.0,m,Fri May 08 2026 13:28:24 GMT-0500 (Central Daylight Time),584411.5,043_m_f_n_a.png,I,m,729,17,,1746.6999999284744,582664.8000000715,8074,NNB,A,15
15,test,5,1.0,2-Back,1.0,z,Fri May 08 2026 13:28:24 GMT-0500 (Central Daylight Time),586394.3000000715,053_o_m_n_a.png,I,z,957,18,,1980.0,584414.3000000715,8074,NNB,A,16
