block_c,block_dur,condition,countdown,datetime,endtime,list,multichar_response,project,response,response_time,session_number,start_end,starttime,subject_id,task,task_vers,trial
,,,,Mon Jan 12 2026 15:06:20 GMT-0600 (Central Standard Time),,,,I,space,468,2,,,8072,WL,A,
prac,,0,,Mon Jan 12 2026 15:06:20 GMT-0600 (Central Standard Time),,NA,b,I,b,6658,2,,,8072,WL,A,1.0
prac,,0,,Mon Jan 12 2026 15:06:20 GMT-0600 (Central Standard Time),,NA,bo,I,o,428,2,,,8072,WL,A,1.0
prac,,0,,Mon Jan 12 2026 15:06:20 GMT-0600 (Central Standard Time),,NA,boo,I,o,107,2,,,8072,WL,A,1.0
prac,,0,,Mon Jan 12 2026 15:06:20 GMT-0600 (Central Standard Time),,NA,boos,I,s,245,2,,,8072,WL,A,1.0
prac,,0,,Mon Jan 12 2026 15:06:20 GMT-0600 (Central Standard Time),,NA,boost,I,t,212,2,,,8072,WL,A,1.0
prac,,0,,Mon Jan 12 2026 15:06:20 GMT-0600 (Central Standard Time),,NA,boostenter,I,enter,747,2,,,8072,WL,A,1.0
1,1.2990000247955322,learn,58700.99997520447,Mon Jan 12 2026 15:06:20 GMT-0600 (Central Standard Time),130287.70000000019,A,g,I,g,1277,2,1298.7999999998137,128988.90000000037,8072,WL,A,1.0
1,1.432999849319458,learn,58567.00015068054,Mon Jan 12 2026 15:06:20 GMT-0600 (Central Standard Time),130421.40000000037,A,go,I,o,123,2,1432.5,128988.90000000037,8072,WL,A,1.0
1,1.6499998569488525,learn,58350.00014305115,Mon Jan 12 2026 15:06:20 GMT-0600 (Central Standard Time),130637.79999999981,A,gol,I,l,198,2,1648.8999999994412,128988.90000000037,8072,WL,A,1.0
1,1.7999999523162842,learn,58200.000047683716,Mon Jan 12 2026 15:06:20 GMT-0600 (Central Standard Time),130788.0,A,gold,I,d,133,2,1799.0999999996275,128988.90000000037,8072,WL,A,1.0
1,2.1489999294281006,learn,57851.0000705719,Mon Jan 12 2026 15:06:20 GMT-0600 (Central Standard Time),131137.7999999998,A,goldenter,I,enter,335,2,2148.899999999441,128988.90000000037,8072,WL,A,1.0
1,2.8489999771118164,learn,57151.00002288818,Mon Jan 12 2026 15:06:20 GMT-0600 (Central Standard Time),131837.5,A,f,I,f,689,2,699.2000000001863,131138.2999999998,8072,WL,A,2.0
1,2.9659998416900635,learn,57034.00015830994,Mon Jan 12 2026 15:06:20 GMT-0600 (Central Standard Time),131953.90000000037,A,fl,I,l,110,2,815.6000000005588,131138.2999999998,8072,WL,A,2.0
1,3.1989998817443848,learn,56801.000118255615,Mon Jan 12 2026 15:06:20 GMT-0600 (Central Standard Time),132187.2999999998,A,flo,I,o,218,2,1049.0,131138.2999999998,8072,WL,A,2.0
1,3.3989999294281006,learn,56601.0000705719,Mon Jan 12 2026 15:06:20 GMT-0600 (Central Standard Time),132387.10000000056,A,flow,I,w,184,2,1248.800000000745,131138.2999999998,8072,WL,A,2.0
1,3.566999912261963,learn,56433.00008773804,Mon Jan 12 2026 15:06:20 GMT-0600 (Central Standard Time),132554.7999999998,A,flowe,I,e,160,2,1416.5,131138.2999999998,8072,WL,A,2.0
1,3.748999834060669,learn,56251.00016593933,Mon Jan 12 2026 15:06:20 GMT-0600 (Central Standard Time),132737.40000000037,A,flower,I,r,168,2,1599.1000000005588,131138.2999999998,8072,WL,A,2.0
1,4.181999921798706,learn,55818.000078201294,Mon Jan 12 2026 15:06:20 GMT-0600 (Central Standard Time),133170.2999999998,A,flowerenter,I,enter,418,2,2032.0,131138.2999999998,8072,WL,A,2.0
1,4.747999906539917,learn,55252.00009346008,Mon Jan 12 2026 15:06:20 GMT-0600 (Central Standard Time),133736.60000000056,A,m,I,m,560,2,565.8000000007451,133170.7999999998,8072,WL,A,3.0
1,4.931999921798706,learn,55068.000078201294,Mon Jan 12 2026 15:06:20 GMT-0600 (Central Standard Time),133920.10000000056,A,me,I,e,170,2,749.3000000007451,133170.7999999998,8072,WL,A,3.0
1,5.2149999141693115,learn,54785.00008583069,Mon Jan 12 2026 15:06:20 GMT-0600 (Central Standard Time),134203.5,A,med,I,d,276,2,1032.7000000001863,133170.7999999998,8072,WL,A,3.0
1,5.414999961853027,learn,54585.00003814697,Mon Jan 12 2026 15:06:20 GMT-0600 (Central Standard Time),134403.40000000037,A,medo,I,o,192,2,1232.6000000005588,133170.7999999998,8072,WL,A,3.0
1,5.664999961853027,learn,54335.00003814697,Mon Jan 12 2026 15:06:20 GMT-0600 (Central Standard Time),134653.2999999998,A,medow,I,w,241,2,1482.5,133170.7999999998,8072,WL,A,3.0
1,6.514999866485596,learn,53485.000133514404,Mon Jan 12 2026 15:06:20 GMT-0600 (Central Standard Time),135503.10000000056,A,medo,I,backspace,831,2,2332.300000000745,133170.7999999998,8072,WL,A,3.0
1,6.730999946594238,learn,53269.00005340576,Mon Jan 12 2026 15:06:20 GMT-0600 (Central Standard Time),135719.5,A,med,I,backspace,197,2,2548.7000000001863,133170.7999999998,8072,WL,A,3.0
1,6.8480000495910645,learn,53151.999950408936,Mon Jan 12 2026 15:06:20 GMT-0600 (Central Standard Time),135836.10000000056,A,me,I,backspace,108,2,2665.300000000745,133170.7999999998,8072,WL,A,3.0
1,7.21399998664856,learn,52786.00001335144,Mon Jan 12 2026 15:06:20 GMT-0600 (Central Standard Time),136202.2999999998,A,mea,I,a,359,2,3031.5,133170.7999999998,8072,WL,A,3.0
1,7.5309998989105225,learn,52469.00010108948,Mon Jan 12 2026 15:06:20 GMT-0600 (Central Standard Time),136519.40000000037,A,mead,I,d,297,2,3348.600000000559,133170.7999999998,8072,WL,A,3.0
1,7.664000034332275,learn,52335.999965667725,Mon Jan 12 2026 15:06:20 GMT-0600 (Central Standard Time),136652.60000000056,A,meado,I,o,117,2,3481.800000000745,133170.7999999998,8072,WL,A,3.0
1,7.830999851226807,learn,52169.00014877319,Mon Jan 12 2026 15:06:20 GMT-0600 (Central Standard Time),136819.0,A,meadow,I,w,151,2,3648.2000000001863,133170.7999999998,8072,WL,A,3.0
1,8.246999979019165,learn,51753.000020980835,Mon Jan 12 2026 15:06:20 GMT-0600 (Central Standard Time),137235.7000000002,A,meadowenter,I,enter,409,2,4064.9000000003725,133170.7999999998,8072,WL,A,3.0
1,9.043999910354614,learn,50956.000089645386,Mon Jan 12 2026 15:06:20 GMT-0600 (Central Standard Time),138032.10000000056,A,t,I,t,644,2,796.0,137236.10000000056,8072,WL,A,4.0
1,9.062999963760376,learn,50937.000036239624,Mon Jan 12 2026 15:06:20 GMT-0600 (Central Standard Time),138051.7000000002,A,tr,I,r,10,2,815.5999999996275,137236.10000000056,8072,WL,A,4.0
1,9.179999828338623,learn,50820.00017166138,Mon Jan 12 2026 15:06:20 GMT-0600 (Central Standard Time),138168.7000000002,A,tra,I,a,109,2,932.5999999996275,137236.10000000056,8072,WL,A,4.0
1,9.346999883651733,learn,50653.00011634827,Mon Jan 12 2026 15:06:20 GMT-0600 (Central Standard Time),138335.40000000037,A,trai,I,i,146,2,1099.2999999998137,137236.10000000056,8072,WL,A,4.0
1,9.496999979019165,learn,50503.000020980835,Mon Jan 12 2026 15:06:20 GMT-0600 (Central Standard Time),138485.2999999998,A,train,I,n,133,2,1249.199999999255,137236.10000000056,8072,WL,A,4.0
1,9.86299991607666,learn,50137.00008392334,Mon Jan 12 2026 15:06:20 GMT-0600 (Central Standard Time),138851.7999999998,A,trainenter,I,enter,351,2,1615.699999999255,137236.10000000056,8072,WL,A,4.0
1,10.598000049591064,learn,49401.999950408936,Mon Jan 12 2026 15:06:20 GMT-0600 (Central Standard Time),139586.0,A,f,I,f,712,2,733.7000000001863,138852.2999999998,8072,WL,A,5.0
1,10.730000019073486,learn,49269.999980926514,Mon Jan 12 2026 15:06:20 GMT-0600 (Central Standard Time),139718.0,A,fi,I,i,114,2,865.7000000001863,138852.2999999998,8072,WL,A,5.0
1,10.879999876022339,learn,49120.00012397766,Mon Jan 12 2026 15:06:20 GMT-0600 (Central Standard Time),139868.2000000002,A,fin,I,n,134,2,1015.9000000003725,138852.2999999998,8072,WL,A,5.0
1,11.129999876022339,learn,48870.00012397766,Mon Jan 12 2026 15:06:20 GMT-0600 (Central Standard Time),140118.60000000056,A,fing,I,g,231,2,1266.300000000745,138852.2999999998,8072,WL,A,5.0
1,11.329999923706055,learn,48670.000076293945,Mon Jan 12 2026 15:06:20 GMT-0600 (Central Standard Time),140318.0,A,finge,I,e,182,2,1465.7000000001863,138852.2999999998,8072,WL,A,5.0
1,11.463000059127808,learn,48536.99994087219,Mon Jan 12 2026 15:06:20 GMT-0600 (Central Standard Time),140451.2999999998,A,finger,I,r,127,2,1599.0,138852.2999999998,8072,WL,A,5.0
1,11.746000051498413,learn,48253.99994850159,Mon Jan 12 2026 15:06:20 GMT-0600 (Central Standard Time),140734.60000000056,A,fingerenter,I,enter,272,2,1882.300000000745,138852.2999999998,8072,WL,A,5.0
1,12.796000003814697,learn,47203.9999961853,Mon Jan 12 2026 15:06:20 GMT-0600 (Central Standard Time),141784.10000000056,A,r,I,r,1029,2,1049.1000000005588,140735.0,8072,WL,A,6.0
1,12.996000051498413,learn,47003.99994850159,Mon Jan 12 2026 15:06:20 GMT-0600 (Central Standard Time),141984.40000000037,A,ru,I,u,179,2,1249.4000000003725,140735.0,8072,WL,A,6.0
1,13.461999893188477,learn,46538.00010681152,Mon Jan 12 2026 15:06:20 GMT-0600 (Central Standard Time),142450.60000000056,A,rug,I,g,452,2,1715.6000000005588,140735.0,8072,WL,A,6.0
1,16.060999870300293,learn,43939.00012969971,Mon Jan 12 2026 15:06:20 GMT-0600 (Central Standard Time),145049.7999999998,A,rugenter,I,enter,2594,2,4314.799999999814,140735.0,8072,WL,A,6.0
1,16.960999965667725,learn,43039.000034332275,Mon Jan 12 2026 15:06:20 GMT-0600 (Central Standard Time),145949.7000000002,A,k,I,k,890,2,899.7000000001863,145050.0,8072,WL,A,7.0
1,17.24399995803833,learn,42756.00004196167,Mon Jan 12 2026 15:06:20 GMT-0600 (Central Standard Time),146232.7999999998,A,ke,I,e,278,2,1182.7999999998137,145050.0,8072,WL,A,7.0
1,17.477999925613403,learn,42522.0000743866,Mon Jan 12 2026 15:06:20 GMT-0600 (Central Standard Time),146466.10000000056,A,key,I,y,227,2,1416.1000000005588,145050.0,8072,WL,A,7.0
1,17.91100001335144,learn,42088.99998664856,Mon Jan 12 2026 15:06:20 GMT-0600 (Central Standard Time),146899.10000000056,A,keyenter,I,enter,418,2,1849.1000000005588,145050.0,8072,WL,A,7.0
1,19.927000045776367,learn,40072.99995422363,Mon Jan 12 2026 15:06:20 GMT-0600 (Central Standard Time),148915.5,A,c,I,c,2009,2,2015.8999999994412,146899.60000000056,8072,WL,A,8.0
1,20.30999994277954,learn,39690.00005722046,Mon Jan 12 2026 15:06:20 GMT-0600 (Central Standard Time),149298.7999999998,A,ca,I,a,369,2,2399.199999999255,146899.60000000056,8072,WL,A,8.0
1,20.543999910354614,learn,39456.000089645386,Mon Jan 12 2026 15:06:20 GMT-0600 (Central Standard Time),149532.0,A,cab,I,b,218,2,2632.399999999441,146899.60000000056,8072,WL,A,8.0
1,20.677000045776367,learn,39322.99995422363,Mon Jan 12 2026 15:06:20 GMT-0600 (Central Standard Time),149665.0,A,cabi,I,i,128,2,2765.399999999441,146899.60000000056,8072,WL,A,8.0
1,20.842999935150146,learn,39157.00006484985,Mon Jan 12 2026 15:06:20 GMT-0600 (Central Standard Time),149831.60000000056,A,cabin,I,n,147,2,2932.0,146899.60000000056,8072,WL,A,8.0
1,21.90999984741211,learn,38090.00015258789,Mon Jan 12 2026 15:06:20 GMT-0600 (Central Standard Time),150898.10000000056,A,cabinenter,I,enter,1053,2,3998.5,146899.60000000056,8072,WL,A,8.0
1,24.741999864578247,learn,35258.00013542175,Mon Jan 12 2026 15:06:20 GMT-0600 (Central Standard Time),153730.5,A,t,I,t,2826,2,2832.0999999996275,150898.40000000037,8072,WL,A,9.0
1,24.95899987220764,learn,35041.00012779236,Mon Jan 12 2026 15:06:20 GMT-0600 (Central Standard Time),153947.2000000002,A,tr,I,r,202,2,3048.7999999998137,150898.40000000037,8072,WL,A,9.0
1,25.075999975204468,learn,34924.00002479553,Mon Jan 12 2026 15:06:20 GMT-0600 (Central Standard Time),154063.90000000037,A,tra,I,a,97,2,3165.5,150898.40000000037,8072,WL,A,9.0
1,25.241999864578247,learn,34758.00013542175,Mon Jan 12 2026 15:06:20 GMT-0600 (Central Standard Time),154230.5,A,trai,I,i,157,2,3332.0999999996275,150898.40000000037,8072,WL,A,9.0
1,25.39199995994568,learn,34608.00004005432,Mon Jan 12 2026 15:06:20 GMT-0600 (Central Standard Time),154380.2999999998,A,train,I,n,134,2,3481.899999999441,150898.40000000037,8072,WL,A,9.0
1,25.842000007629395,learn,34157.999992370605,Mon Jan 12 2026 15:06:20 GMT-0600 (Central Standard Time),154830.40000000037,A,trainenter,I,enter,440,2,3932.0,150898.40000000037,8072,WL,A,9.0
1,26.825000047683716,learn,33174.999952316284,Mon Jan 12 2026 15:06:20 GMT-0600 (Central Standard Time),155813.10000000056,A,r,I,r,974,2,982.4000000003725,154830.7000000002,8072,WL,A,10.0
1,26.973999977111816,learn,33026.00002288818,Mon Jan 12 2026 15:06:20 GMT-0600 (Central Standard Time),155962.7999999998,A,ru,I,u,134,2,1132.0999999996275,154830.7000000002,8072,WL,A,10.0
1,28.04099988937378,learn,31959.00011062622,Mon Jan 12 2026 15:06:20 GMT-0600 (Central Standard Time),157029.2000000002,A,rug,I,g,1049,2,2198.5,154830.7000000002,8072,WL,A,10.0
1,28.340999841690063,learn,31659.000158309937,Mon Jan 12 2026 15:06:20 GMT-0600 (Central Standard Time),157329.10000000056,A,rugenter,I,enter,293,2,2498.4000000003725,154830.7000000002,8072,WL,A,10.0
1,46.901999950408936,learn,13098.000049591064,Mon Jan 12 2026 15:06:20 GMT-0600 (Central Standard Time),175890.2999999998,A,s,I,s,18547,2,18560.799999999814,157329.5,8072,WL,A,11.0
1,47.08500003814697,learn,12914.999961853027,Mon Jan 12 2026 15:06:20 GMT-0600 (Central Standard Time),176073.2999999998,A,sa,I,a,169,2,18743.799999999814,157329.5,8072,WL,A,11.0
1,47.251999855041504,learn,12748.000144958496,Mon Jan 12 2026 15:06:20 GMT-0600 (Central Standard Time),176239.90000000037,A,sal,I,l,154,2,18910.400000000373,157329.5,8072,WL,A,11.0
1,47.484999895095825,learn,12515.000104904175,Mon Jan 12 2026 15:06:20 GMT-0600 (Central Standard Time),176473.5,A,salt,I,t,220,2,19144.0,157329.5,8072,WL,A,11.0
1,47.71799993515015,learn,12282.000064849854,Mon Jan 12 2026 15:06:20 GMT-0600 (Central Standard Time),176706.7999999998,A,saltenter,I,enter,227,2,19377.299999999814,157329.5,8072,WL,A,11.0
1,60.013999938964844,learn,-13.99993896484375,Mon Jan 12 2026 15:06:20 GMT-0600 (Central Standard Time),189003.0,A,None,I,None,12292,2,12295.899999999441,176707.10000000056,8072,WL,A,12.0
2,1.8829998970031738,learn,58117.000102996826,Mon Jan 12 2026 15:06:20 GMT-0600 (Central Standard Time),265012.2000000002,A,r,I,r,1875,2,1882.0999999996275,263130.10000000056,8072,WL,A,1.0
2,1.9830000400543213,learn,58016.99995994568,Mon Jan 12 2026 15:06:20 GMT-0600 (Central Standard Time),265112.2999999998,A,ra,I,a,88,2,1982.199999999255,263130.10000000056,8072,WL,A,1.0
2,2.1489999294281006,learn,57851.0000705719,Mon Jan 12 2026 15:06:20 GMT-0600 (Central Standard Time),265278.9000000004,A,rat,I,t,156,2,2148.7999999998137,263130.10000000056,8072,WL,A,1.0
2,2.2829999923706055,learn,57717.000007629395,Mon Jan 12 2026 15:06:20 GMT-0600 (Central Standard Time),265412.4000000004,A,ratt,I,t,125,2,2282.2999999998137,263130.10000000056,8072,WL,A,1.0
2,2.450000047683716,learn,57549.999952316284,Mon Jan 12 2026 15:06:20 GMT-0600 (Central Standard Time),265580.0,A,rattl,I,l,160,2,2449.899999999441,263130.10000000056,8072,WL,A,1.0
2,2.549999952316284,learn,57450.000047683716,Mon Jan 12 2026 15:06:20 GMT-0600 (Central Standard Time),265679.2000000002,A,rattle,I,e,79,2,2549.0999999996275,263130.10000000056,8072,WL,A,1.0
2,2.9820001125335693,learn,57017.99988746643,Mon Jan 12 2026 15:06:20 GMT-0600 (Central Standard Time),266112.0,A,rattleenter,I,enter,420,2,2981.899999999441,263130.10000000056,8072,WL,A,1.0
2,3.881999969482422,learn,56118.00003051758,Mon Jan 12 2026 15:06:20 GMT-0600 (Central Standard Time),267011.60000000056,A,f,I,f,884,2,899.2000000001863,266112.4000000004,8072,WL,A,2.0
2,3.9660000801086426,learn,56033.99991989136,Mon Jan 12 2026 15:06:20 GMT-0600 (Central Standard Time),267095.0,A,fl,I,l,73,2,982.5999999996275,266112.4000000004,8072,WL,A,2.0
2,4.232000112533569,learn,55767.99988746643,Mon Jan 12 2026 15:06:20 GMT-0600 (Central Standard Time),267361.4000000004,A,flo,I,o,259,2,1249.0,266112.4000000004,8072,WL,A,2.0
2,4.381999969482422,learn,55618.00003051758,Mon Jan 12 2026 15:06:20 GMT-0600 (Central Standard Time),267511.7000000002,A,flow,I,w,131,2,1399.2999999998137,266112.4000000004,8072,WL,A,2.0
2,4.615999937057495,learn,55384.000062942505,Mon Jan 12 2026 15:06:20 GMT-0600 (Central Standard Time),267745.10000000056,A,flowe,I,e,221,2,1632.7000000001863,266112.4000000004,8072,WL,A,2.0
2,4.799000024795532,learn,55200.99997520447,Mon Jan 12 2026 15:06:20 GMT-0600 (Central Standard Time),267928.2000000002,A,flower,I,r,163,2,1815.7999999998137,266112.4000000004,8072,WL,A,2.0
2,5.04800009727478,learn,54951.99990272522,Mon Jan 12 2026 15:06:20 GMT-0600 (Central Standard Time),268178.0,A,flowerenter,I,enter,244,2,2065.5999999996275,266112.4000000004,8072,WL,A,2.0
2,5.615000009536743,learn,54384.99999046326,Mon Jan 12 2026 15:06:20 GMT-0600 (Central Standard Time),268744.5,A,r,I,r,546,2,566.2999999998137,268178.2000000002,8072,WL,A,3.0
2,5.79800009727478,learn,54201.99990272522,Mon Jan 12 2026 15:06:20 GMT-0600 (Central Standard Time),268928.0,A,ru,I,u,163,2,749.7999999998137,268178.2000000002,8072,WL,A,3.0
2,5.999000072479248,learn,54000.99992752075,Mon Jan 12 2026 15:06:20 GMT-0600 (Central Standard Time),269128.2000000002,A,rug,I,g,180,2,950.0,268178.2000000002,8072,WL,A,3.0
2,6.29800009727478,learn,53701.99990272522,Mon Jan 12 2026 15:06:20 GMT-0600 (Central Standard Time),269427.60000000056,A,rugenter,I,enter,292,2,1249.4000000003725,268178.2000000002,8072,WL,A,3.0
2,6.997999906539917,learn,53002.00009346008,Mon Jan 12 2026 15:06:20 GMT-0600 (Central Standard Time),270127.4000000004,A,k,I,k,688,2,699.4000000003725,269428.0,8072,WL,A,4.0
2,7.197999954223633,learn,52802.00004577637,Mon Jan 12 2026 15:06:20 GMT-0600 (Central Standard Time),270327.4000000004,A,ke,I,e,189,2,899.4000000003725,269428.0,8072,WL,A,4.0
2,7.46399998664856,learn,52536.00001335144,Mon Jan 12 2026 15:06:20 GMT-0600 (Central Standard Time),270593.9000000004,A,key,I,y,253,2,1165.9000000003725,269428.0,8072,WL,A,4.0
2,8.148000001907349,learn,51851.99999809265,Mon Jan 12 2026 15:06:20 GMT-0600 (Central Standard Time),271277.2999999998,A,keyt,I,t,674,2,1849.2999999998137,269428.0,8072,WL,A,4.0
2,8.331000089645386,learn,51668.999910354614,Mon Jan 12 2026 15:06:20 GMT-0600 (Central Standard Time),271460.4000000004,A,keytr,I,r,167,2,2032.4000000003725,269428.0,8072,WL,A,4.0
2,8.430999994277954,learn,51569.000005722046,Mon Jan 12 2026 15:06:20 GMT-0600 (Central Standard Time),271560.4000000004,A,keytra,I,a,80,2,2132.4000000003725,269428.0,8072,WL,A,4.0
2,8.54699993133545,learn,51453.00006866455,Mon Jan 12 2026 15:06:20 GMT-0600 (Central Standard Time),271677.0,A,keytrai,I,i,100,2,2249.0,269428.0,8072,WL,A,4.0
2,8.664000034332275,learn,51335.999965667725,Mon Jan 12 2026 15:06:20 GMT-0600 (Central Standard Time),271793.60000000056,A,keytrain,I,n,95,2,2365.600000000559,269428.0,8072,WL,A,4.0
2,9.013999938964844,learn,50986.000061035156,Mon Jan 12 2026 15:06:20 GMT-0600 (Central Standard Time),272143.4000000004,A,keytrainenter,I,enter,339,2,2715.4000000003725,269428.0,8072,WL,A,4.0
2,9.247999906539917,learn,50752.00009346008,Mon Jan 12 2026 15:06:20 GMT-0600 (Central Standard Time),272377.7999999998,A,a,I,a,213,2,234.09999999962747,272143.7000000002,8072,WL,A,5.0
2,9.630000114440918,learn,50369.99988555908,Mon Jan 12 2026 15:06:20 GMT-0600 (Central Standard Time),272759.9000000004,A,ap,I,p,361,2,616.2000000001863,272143.7000000002,8072,WL,A,5.0
2,9.79699993133545,learn,50203.00006866455,Mon Jan 12 2026 15:06:20 GMT-0600 (Central Standard Time),272926.5,A,app,I,p,149,2,782.7999999998137,272143.7000000002,8072,WL,A,5.0
2,10.079999923706055,learn,49920.000076293945,Mon Jan 12 2026 15:06:20 GMT-0600 (Central Standard Time),273210.0,A,appl,I,l,270,2,1066.2999999998137,272143.7000000002,8072,WL,A,5.0
2,10.230000019073486,learn,49769.999980926514,Mon Jan 12 2026 15:06:20 GMT-0600 (Central Standard Time),273359.9000000004,A,apple,I,e,138,2,1216.2000000001863,272143.7000000002,8072,WL,A,5.0
2,11.114000082015991,learn,48885.99991798401,Mon Jan 12 2026 15:06:20 GMT-0600 (Central Standard Time),274243.0,A,appleenter,I,enter,869,2,2099.2999999998137,272143.7000000002,8072,WL,A,5.0
2,11.946000099182129,learn,48053.99990081787,Mon Jan 12 2026 15:06:20 GMT-0600 (Central Standard Time),275076.0,A,c,I,c,818,2,832.3999999994412,274243.60000000056,8072,WL,A,6.0
2,12.230000019073486,learn,47769.999980926514,Mon Jan 12 2026 15:06:20 GMT-0600 (Central Standard Time),275359.10000000056,A,ch,I,h,272,2,1115.5,274243.60000000056,8072,WL,A,6.0
2,12.380000114440918,learn,47619.99988555908,Mon Jan 12 2026 15:06:20 GMT-0600 (Central Standard Time),275509.2000000002,A,chi,I,i,133,2,1265.5999999996275,274243.60000000056,8072,WL,A,6.0
2,12.729000091552734,learn,47270.999908447266,Mon Jan 12 2026 15:06:20 GMT-0600 (Central Standard Time),275859.0,A,chim,I,m,335,2,1615.3999999994412,274243.60000000056,8072,WL,A,6.0
2,13.013000011444092,learn,46986.99998855591,Mon Jan 12 2026 15:06:20 GMT-0600 (Central Standard Time),276142.2999999998,A,chimn,I,n,273,2,1898.699999999255,274243.60000000056,8072,WL,A,6.0
2,13.196000099182129,learn,46803.99990081787,Mon Jan 12 2026 15:06:20 GMT-0600 (Central Standard Time),276325.4000000004,A,chimne,I,e,166,2,2081.7999999998137,274243.60000000056,8072,WL,A,6.0
2,13.496000051498413,learn,46503.99994850159,Mon Jan 12 2026 15:06:20 GMT-0600 (Central Standard Time),276625.2999999998,A,chimney,I,y,295,2,2381.699999999255,274243.60000000056,8072,WL,A,6.0
2,14.11299991607666,learn,45887.00008392334,Mon Jan 12 2026 15:06:20 GMT-0600 (Central Standard Time),277242.10000000056,A,chimneyenter,I,enter,603,2,2998.5,274243.60000000056,8072,WL,A,6.0
2,15.444999933242798,learn,44555.0000667572,Mon Jan 12 2026 15:06:20 GMT-0600 (Central Standard Time),278575.0,A,m,I,m,1314,2,1332.5,277242.5,8072,WL,A,7.0
2,15.644999980926514,learn,44355.000019073486,Mon Jan 12 2026 15:06:20 GMT-0600 (Central Standard Time),278774.7999999998,A,me,I,e,189,2,1532.2999999998137,277242.5,8072,WL,A,7.0
2,15.77999997138977,learn,44220.00002861023,Mon Jan 12 2026 15:06:20 GMT-0600 (Central Standard Time),278909.2999999998,A,mea,I,a,126,2,1666.7999999998137,277242.5,8072,WL,A,7.0
2,15.977999925613403,learn,44022.0000743866,Mon Jan 12 2026 15:06:20 GMT-0600 (Central Standard Time),279107.7999999998,A,mead,I,d,191,2,1865.2999999998137,277242.5,8072,WL,A,7.0
2,16.27900004386902,learn,43720.99995613098,Mon Jan 12 2026 15:06:20 GMT-0600 (Central Standard Time),279408.60000000056,A,meado,I,o,296,2,2166.100000000559,277242.5,8072,WL,A,7.0
2,16.494999885559082,learn,43505.00011444092,Mon Jan 12 2026 15:06:20 GMT-0600 (Central Standard Time),279624.5,A,meadow,I,w,195,2,2382.0,277242.5,8072,WL,A,7.0
2,16.795000076293945,learn,43204.999923706055,Mon Jan 12 2026 15:06:20 GMT-0600 (Central Standard Time),279924.10000000056,A,meadowenter,I,enter,283,2,2681.600000000559,277242.5,8072,WL,A,7.0
2,17.528000116348267,learn,42471.99988365173,Mon Jan 12 2026 15:06:20 GMT-0600 (Central Standard Time),280657.2000000002,A,b,I,b,712,2,732.9000000003725,279924.2999999998,8072,WL,A,8.0
2,17.727999925613403,learn,42272.0000743866,Mon Jan 12 2026 15:06:20 GMT-0600 (Central Standard Time),280857.2999999998,A,bu,I,u,195,2,933.0,279924.2999999998,8072,WL,A,8.0
2,18.01099991798401,learn,41989.00008201599,Mon Jan 12 2026 15:06:20 GMT-0600 (Central Standard Time),281140.5,A,but,I,t,266,2,1216.2000000001863,279924.2999999998,8072,WL,A,8.0
2,18.14400005340576,learn,41855.99994659424,Mon Jan 12 2026 15:06:20 GMT-0600 (Central Standard Time),281274.0,A,butt,I,t,120,2,1349.7000000001863,279924.2999999998,8072,WL,A,8.0
2,18.293999910354614,learn,41706.000089645386,Mon Jan 12 2026 15:06:20 GMT-0600 (Central Standard Time),281424.0,A,butto,I,o,130,2,1499.7000000001863,279924.2999999998,8072,WL,A,8.0
2,18.460999965667725,learn,41539.000034332275,Mon Jan 12 2026 15:06:20 GMT-0600 (Central Standard Time),281590.7000000002,A,button,I,n,156,2,1666.4000000003725,279924.2999999998,8072,WL,A,8.0
2,18.66100001335144,learn,41338.99998664856,Mon Jan 12 2026 15:06:20 GMT-0600 (Central Standard Time),281790.7000000002,A,buttone,I,e,182,2,1866.4000000003725,279924.2999999998,8072,WL,A,8.0
2,18.844000101089478,learn,41155.99989891052,Mon Jan 12 2026 15:06:20 GMT-0600 (Central Standard Time),281973.9000000004,A,buttoneenter,I,enter,173,2,2049.600000000559,279924.2999999998,8072,WL,A,8.0
2,23.875999927520752,learn,36124.00007247925,Mon Jan 12 2026 15:06:20 GMT-0600 (Central Standard Time),287005.60000000056,A,b,I,b,5015,2,5031.4000000003725,281974.2000000002,8072,WL,A,9.0
2,24.042999982833862,learn,35957.00001716614,Mon Jan 12 2026 15:06:20 GMT-0600 (Central Standard Time),287172.2000000002,A,bo,I,o,150,2,5198.0,281974.2000000002,8072,WL,A,9.0
2,24.176000118255615,learn,35823.999881744385,Mon Jan 12 2026 15:06:20 GMT-0600 (Central Standard Time),287305.2000000002,A,boo,I,o,129,2,5331.0,281974.2000000002,8072,WL,A,9.0
2,24.408999919891357,learn,35591.00008010864,Mon Jan 12 2026 15:06:20 GMT-0600 (Central Standard Time),287538.4000000004,A,book,I,k,227,2,5564.200000000186,281974.2000000002,8072,WL,A,9.0
2,24.691999912261963,learn,35308.00008773804,Mon Jan 12 2026 15:06:20 GMT-0600 (Central Standard Time),287821.5,A,bookenter,I,enter,265,2,5847.299999999814,281974.2000000002,8072,WL,A,9.0
2,31.973999977111816,learn,28026.000022888184,Mon Jan 12 2026 15:06:20 GMT-0600 (Central Standard Time),295103.10000000056,A,f,I,f,7263,2,7281.300000000745,287821.7999999998,8072,WL,A,10.0
2,32.10700011253357,learn,27892.99988746643,Mon Jan 12 2026 15:06:20 GMT-0600 (Central Standard Time),295236.5,A,fi,I,i,117,2,7414.700000000186,287821.7999999998,8072,WL,A,10.0
2,32.24000000953674,learn,27759.999990463257,Mon Jan 12 2026 15:06:20 GMT-0600 (Central Standard Time),295369.60000000056,A,fin,I,n,119,2,7547.800000000745,287821.7999999998,8072,WL,A,10.0
2,32.390000104904175,learn,27609.999895095825,Mon Jan 12 2026 15:06:20 GMT-0600 (Central Standard Time),295519.7999999998,A,fing,I,g,139,2,7698.0,287821.7999999998,8072,WL,A,10.0
2,32.60700011253357,learn,27392.99988746643,Mon Jan 12 2026 15:06:20 GMT-0600 (Central Standard Time),295736.10000000056,A,finge,I,e,196,2,7914.300000000745,287821.7999999998,8072,WL,A,10.0
2,32.70700001716614,learn,27292.999982833862,Mon Jan 12 2026 15:06:20 GMT-0600 (Central Standard Time),295836.10000000056,A,finger,I,r,84,2,8014.300000000745,287821.7999999998,8072,WL,A,10.0
2,33.33999991416931,learn,26660.00008583069,Mon Jan 12 2026 15:06:20 GMT-0600 (Central Standard Time),296469.2999999998,A,fingerenter,I,enter,617,2,8647.5,287821.7999999998,8072,WL,A,10.0
2,34.388999938964844,learn,25611.000061035156,Mon Jan 12 2026 15:06:20 GMT-0600 (Central Standard Time),297518.60000000056,A,h,I,h,1031,2,1049.0,296469.60000000056,8072,WL,A,11.0
2,34.539000034332275,learn,25460.999965667725,Mon Jan 12 2026 15:06:20 GMT-0600 (Central Standard Time),297668.7999999998,A,ha,I,a,142,2,1199.199999999255,296469.60000000056,8072,WL,A,11.0
2,34.68899989128113,learn,25311.000108718872,Mon Jan 12 2026 15:06:20 GMT-0600 (Central Standard Time),297818.9000000004,A,har,I,r,136,2,1349.2999999998137,296469.60000000056,8072,WL,A,11.0
2,35.23900008201599,learn,24760.99991798401,Mon Jan 12 2026 15:06:20 GMT-0600 (Central Standard Time),298368.4000000004,A,harp,I,p,538,2,1898.7999999998137,296469.60000000056,8072,WL,A,11.0
2,35.638999938964844,learn,24361.000061035156,Mon Jan 12 2026 15:06:20 GMT-0600 (Central Standard Time),298768.4000000004,A,harpenter,I,enter,379,2,2298.7999999998137,296469.60000000056,8072,WL,A,11.0
2,41.80299997329712,learn,18197.00002670288,Mon Jan 12 2026 15:06:20 GMT-0600 (Central Standard Time),304933.2000000002,A,l,I,l,6156,2,6164.4000000003725,298768.7999999998,8072,WL,A,12.0
2,42.03600001335144,learn,17963.99998664856,Mon Jan 12 2026 15:06:20 GMT-0600 (Central Standard Time),305166.7000000002,A,lo,I,o,223,2,6397.9000000003725,298768.7999999998,8072,WL,A,12.0
2,42.26900005340576,learn,17730.99994659424,Mon Jan 12 2026 15:06:20 GMT-0600 (Central Standard Time),305399.60000000056,A,log,I,g,213,2,6630.800000000745,298768.7999999998,8072,WL,A,12.0
2,42.83500003814697,learn,17164.999961853027,Mon Jan 12 2026 15:06:20 GMT-0600 (Central Standard Time),305966.10000000056,A,logenter,I,enter,556,2,7197.300000000745,298768.7999999998,8072,WL,A,12.0
2,60.013999938964844,learn,-13.99993896484375,Mon Jan 12 2026 15:06:20 GMT-0600 (Central Standard Time),323144.2999999998,A,None,I,None,17173,2,17177.89999999944,305966.4000000004,8072,WL,A,13.0
3,0.817000150680542,learn,59182.99984931946,Mon Jan 12 2026 15:06:20 GMT-0600 (Central Standard Time),393505.2999999998,A,l,I,l,812,2,815.8999999994412,392689.4000000004,8072,WL,A,1.0
3,1.0500001907348633,learn,58949.99980926514,Mon Jan 12 2026 15:06:20 GMT-0600 (Central Standard Time),393738.7999999998,A,lo,I,o,218,2,1049.3999999994412,392689.4000000004,8072,WL,A,1.0
3,1.2160000801086426,learn,58783.99991989136,Mon Jan 12 2026 15:06:20 GMT-0600 (Central Standard Time),393905.10000000056,A,log,I,g,162,2,1215.7000000001863,392689.4000000004,8072,WL,A,1.0
3,1.6000001430511475,learn,58399.99985694885,Mon Jan 12 2026 15:06:20 GMT-0600 (Central Standard Time),394288.7000000002,A,logenter,I,enter,362,2,1599.2999999998137,392689.4000000004,8072,WL,A,1.0
3,2.433000087738037,learn,57566.99991226196,Mon Jan 12 2026 15:06:20 GMT-0600 (Central Standard Time),395122.0,A,c,I,c,820,2,833.0,394289.0,8072,WL,A,2.0
3,2.7829999923706055,learn,57217.000007629395,Mon Jan 12 2026 15:06:20 GMT-0600 (Central Standard Time),395471.7999999998,A,ch,I,h,338,2,1182.7999999998137,394289.0,8072,WL,A,2.0
3,2.9830000400543213,learn,57016.99995994568,Mon Jan 12 2026 15:06:20 GMT-0600 (Central Standard Time),395671.5,A,chi,I,i,181,2,1382.5,394289.0,8072,WL,A,2.0
3,3.199000120162964,learn,56800.999879837036,Mon Jan 12 2026 15:06:20 GMT-0600 (Central Standard Time),395888.10000000056,A,chim,I,m,205,2,1599.1000000005588,394289.0,8072,WL,A,2.0
3,3.433000087738037,learn,56566.99991226196,Mon Jan 12 2026 15:06:20 GMT-0600 (Central Standard Time),396121.2000000002,A,chimn,I,n,228,2,1832.2000000001863,394289.0,8072,WL,A,2.0
3,3.616000175476074,learn,56383.999824523926,Mon Jan 12 2026 15:06:20 GMT-0600 (Central Standard Time),396304.9000000004,A,chimne,I,e,171,2,2015.9000000003725,394289.0,8072,WL,A,2.0
3,3.815999984741211,learn,56184.00001525879,Mon Jan 12 2026 15:06:20 GMT-0600 (Central Standard Time),396504.9000000004,A,chimney,I,y,179,2,2215.9000000003725,394289.0,8072,WL,A,2.0
3,4.098999977111816,learn,55901.00002288818,Mon Jan 12 2026 15:06:20 GMT-0600 (Central Standard Time),396787.7000000002,A,chimneyenter,I,enter,276,2,2498.7000000001863,394289.0,8072,WL,A,2.0
3,4.749000072479248,learn,55250.99992752075,Mon Jan 12 2026 15:06:20 GMT-0600 (Central Standard Time),397438.0,A,g,I,g,632,2,649.8999999994412,396788.10000000056,8072,WL,A,3.0
3,5.0,learn,55000.0,Mon Jan 12 2026 15:06:20 GMT-0600 (Central Standard Time),397688.7999999998,A,go,I,o,229,2,900.6999999992549,396788.10000000056,8072,WL,A,3.0
3,5.216000080108643,learn,54783.99991989136,Mon Jan 12 2026 15:06:20 GMT-0600 (Central Standard Time),397904.4000000004,A,gol,I,l,203,2,1116.2999999998137,396788.10000000056,8072,WL,A,3.0
3,5.416000127792358,learn,54583.99987220764,Mon Jan 12 2026 15:06:20 GMT-0600 (Central Standard Time),398104.2999999998,A,gold,I,d,180,2,1316.199999999255,396788.10000000056,8072,WL,A,3.0
3,6.232000112533569,learn,53767.99988746643,Mon Jan 12 2026 15:06:20 GMT-0600 (Central Standard Time),398920.5,A,goldk,I,k,803,2,2132.399999999441,396788.10000000056,8072,WL,A,3.0
3,6.448000192642212,learn,53551.99980735779,Mon Jan 12 2026 15:06:20 GMT-0600 (Central Standard Time),399137.2000000002,A,goldke,I,e,203,2,2349.0999999996275,396788.10000000056,8072,WL,A,3.0
3,6.732000112533569,learn,53267.99988746643,Mon Jan 12 2026 15:06:20 GMT-0600 (Central Standard Time),399420.5,A,goldkey,I,y,276,2,2632.399999999441,396788.10000000056,8072,WL,A,3.0
3,7.680999994277954,learn,52319.000005722046,Mon Jan 12 2026 15:06:20 GMT-0600 (Central Standard Time),400369.9000000004,A,goldke,I,backspace,944,2,3581.7999999998137,396788.10000000056,8072,WL,A,3.0
3,7.898000001907349,learn,52101.99999809265,Mon Jan 12 2026 15:06:20 GMT-0600 (Central Standard Time),400586.7999999998,A,goldk,I,backspace,203,2,3798.699999999255,396788.10000000056,8072,WL,A,3.0
3,8.031000137329102,learn,51968.9998626709,Mon Jan 12 2026 15:06:20 GMT-0600 (Central Standard Time),400720.2000000002,A,gold,I,backspace,121,2,3932.0999999996275,396788.10000000056,8072,WL,A,3.0
3,8.614000082015991,learn,51385.99991798401,Mon Jan 12 2026 15:06:20 GMT-0600 (Central Standard Time),401303.10000000056,A,goldenter,I,enter,564,2,4515.0,396788.10000000056,8072,WL,A,3.0
3,9.231000185012817,learn,50768.99981498718,Mon Jan 12 2026 15:06:20 GMT-0600 (Central Standard Time),401919.5,A,k,I,k,597,2,616.0,401303.5,8072,WL,A,4.0
3,9.448000192642212,learn,50551.99980735779,Mon Jan 12 2026 15:06:20 GMT-0600 (Central Standard Time),402136.4000000004,A,ke,I,e,204,2,832.9000000003725,401303.5,8072,WL,A,4.0
3,9.69700002670288,learn,50302.99997329712,Mon Jan 12 2026 15:06:20 GMT-0600 (Central Standard Time),402385.9000000004,A,key,I,y,244,2,1082.4000000003725,401303.5,8072,WL,A,4.0
3,10.13100004196167,learn,49868.99995803833,Mon Jan 12 2026 15:06:20 GMT-0600 (Central Standard Time),402819.4000000004,A,keyf,I,f,419,2,1515.9000000003725,401303.5,8072,WL,A,4.0
3,10.21399998664856,learn,49786.00001335144,Mon Jan 12 2026 15:06:20 GMT-0600 (Central Standard Time),402902.4000000004,A,keyfl,I,l,73,2,1598.9000000003725,401303.5,8072,WL,A,4.0
3,10.44700002670288,learn,49552.99997329712,Mon Jan 12 2026 15:06:20 GMT-0600 (Central Standard Time),403135.7999999998,A,keyflo,I,o,213,2,1832.2999999998137,401303.5,8072,WL,A,4.0
3,10.52999997138977,learn,49470.00002861023,Mon Jan 12 2026 15:06:20 GMT-0600 (Central Standard Time),403219.10000000056,A,keyflow,I,w,77,2,1915.6000000005588,401303.5,8072,WL,A,4.0
3,10.797000169754028,learn,49202.99983024597,Mon Jan 12 2026 15:06:20 GMT-0600 (Central Standard Time),403485.7999999998,A,keyflowe,I,e,258,2,2182.2999999998137,401303.5,8072,WL,A,4.0
3,10.913000106811523,learn,49086.99989318848,Mon Jan 12 2026 15:06:20 GMT-0600 (Central Standard Time),403602.2000000002,A,keyflower,I,r,111,2,2298.7000000001863,401303.5,8072,WL,A,4.0
3,12.297000169754028,learn,47702.99983024597,Mon Jan 12 2026 15:06:20 GMT-0600 (Central Standard Time),404985.5,A,keyflowe,I,backspace,1370,2,3682.0,401303.5,8072,WL,A,4.0
3,12.496999979019165,learn,47503.000020980835,Mon Jan 12 2026 15:06:20 GMT-0600 (Central Standard Time),405185.2000000002,A,keyflow,I,backspace,187,2,3881.7000000001863,401303.5,8072,WL,A,4.0
3,12.630000114440918,learn,47369.99988555908,Mon Jan 12 2026 15:06:20 GMT-0600 (Central Standard Time),405318.5,A,keyflo,I,backspace,123,2,4015.0,401303.5,8072,WL,A,4.0
3,12.763000011444092,learn,47236.99998855591,Mon Jan 12 2026 15:06:20 GMT-0600 (Central Standard Time),405451.7999999998,A,keyfl,I,backspace,126,2,4148.299999999814,401303.5,8072,WL,A,4.0
3,12.896000146865845,learn,47103.999853134155,Mon Jan 12 2026 15:06:20 GMT-0600 (Central Standard Time),405584.7000000002,A,keyf,I,backspace,127,2,4281.200000000186,401303.5,8072,WL,A,4.0
3,13.062999963760376,learn,46937.000036239624,Mon Jan 12 2026 15:06:20 GMT-0600 (Central Standard Time),405751.7000000002,A,key,I,backspace,148,2,4448.200000000186,401303.5,8072,WL,A,4.0
3,13.696000099182129,learn,46303.99990081787,Mon Jan 12 2026 15:06:20 GMT-0600 (Central Standard Time),406384.9000000004,A,keyenter,I,enter,613,2,5081.4000000003725,401303.5,8072,WL,A,4.0
3,14.312999963760376,learn,45687.000036239624,Mon Jan 12 2026 15:06:20 GMT-0600 (Central Standard Time),407001.5,A,f,I,f,603,2,616.2000000001863,406385.2999999998,8072,WL,A,5.0
3,14.42900013923645,learn,45570.99986076355,Mon Jan 12 2026 15:06:20 GMT-0600 (Central Standard Time),407118.10000000056,A,fl,I,l,99,2,732.8000000007451,406385.2999999998,8072,WL,A,5.0
3,14.646000146865845,learn,45353.999853134155,Mon Jan 12 2026 15:06:20 GMT-0600 (Central Standard Time),407334.7000000002,A,flo,I,o,198,2,949.4000000003725,406385.2999999998,8072,WL,A,5.0
3,14.779000043869019,learn,45220.99995613098,Mon Jan 12 2026 15:06:20 GMT-0600 (Central Standard Time),407467.7999999998,A,flow,I,w,118,2,1082.5,406385.2999999998,8072,WL,A,5.0
3,14.896000146865845,learn,45103.999853134155,Mon Jan 12 2026 15:06:20 GMT-0600 (Central Standard Time),407584.60000000056,A,flowe,I,e,105,2,1199.300000000745,406385.2999999998,8072,WL,A,5.0
3,15.078999996185303,learn,44921.0000038147,Mon Jan 12 2026 15:06:20 GMT-0600 (Central Standard Time),407767.7999999998,A,flower,I,r,172,2,1382.5,406385.2999999998,8072,WL,A,5.0
3,15.34500002861023,learn,44654.99997138977,Mon Jan 12 2026 15:06:20 GMT-0600 (Central Standard Time),408034.0,A,flowerenter,I,enter,251,2,1648.7000000001863,406385.2999999998,8072,WL,A,5.0
3,15.712000131607056,learn,44287.999868392944,Mon Jan 12 2026 15:06:20 GMT-0600 (Central Standard Time),408400.7999999998,A,m,I,m,362,2,366.5,408034.2999999998,8072,WL,A,6.0
3,15.92900013923645,learn,44070.99986076355,Mon Jan 12 2026 15:06:20 GMT-0600 (Central Standard Time),408617.2999999998,A,me,I,e,212,2,583.0,408034.2999999998,8072,WL,A,6.0
3,16.045000076293945,learn,43954.999923706055,Mon Jan 12 2026 15:06:20 GMT-0600 (Central Standard Time),408734.10000000056,A,mea,I,a,107,2,699.8000000007451,408034.2999999998,8072,WL,A,6.0
3,16.26200008392334,learn,43737.99991607666,Mon Jan 12 2026 15:06:20 GMT-0600 (Central Standard Time),408950.9000000004,A,mead,I,d,207,2,916.6000000005588,408034.2999999998,8072,WL,A,6.0
3,16.49500012397766,learn,43504.99987602234,Mon Jan 12 2026 15:06:20 GMT-0600 (Central Standard Time),409184.10000000056,A,meado,I,o,213,2,1149.800000000745,408034.2999999998,8072,WL,A,6.0
3,16.729000091552734,learn,43270.999908447266,Mon Jan 12 2026 15:06:20 GMT-0600 (Central Standard Time),409417.2999999998,A,meadow,I,w,220,2,1383.0,408034.2999999998,8072,WL,A,6.0
3,17.295000076293945,learn,42704.999923706055,Mon Jan 12 2026 15:06:20 GMT-0600 (Central Standard Time),409983.5,A,meadowenter,I,enter,555,2,1949.2000000001863,408034.2999999998,8072,WL,A,6.0
3,17.795000076293945,learn,42204.999923706055,Mon Jan 12 2026 15:06:20 GMT-0600 (Central Standard Time),410483.60000000056,A,r,I,r,492,2,499.80000000074506,409983.7999999998,8072,WL,A,7.0
3,17.960999965667725,learn,42039.000034332275,Mon Jan 12 2026 15:06:20 GMT-0600 (Central Standard Time),410650.10000000056,A,ra,I,a,153,2,666.3000000007451,409983.7999999998,8072,WL,A,7.0
3,18.16100001335144,learn,41838.99998664856,Mon Jan 12 2026 15:06:20 GMT-0600 (Central Standard Time),410850.10000000056,A,rat,I,t,185,2,866.3000000007451,409983.7999999998,8072,WL,A,7.0
3,18.311000108718872,learn,41688.99989128113,Mon Jan 12 2026 15:06:20 GMT-0600 (Central Standard Time),411000.2000000002,A,ratt,I,t,139,2,1016.4000000003725,409983.7999999998,8072,WL,A,7.0
3,18.545000076293945,learn,41454.999923706055,Mon Jan 12 2026 15:06:20 GMT-0600 (Central Standard Time),411233.2999999998,A,rattl,I,l,212,2,1249.5,409983.7999999998,8072,WL,A,7.0
3,18.712000131607056,learn,41287.999868392944,Mon Jan 12 2026 15:06:20 GMT-0600 (Central Standard Time),411400.7000000002,A,rattle,I,e,162,2,1416.9000000003725,409983.7999999998,8072,WL,A,7.0
3,19.011000156402588,learn,40988.99984359741,Mon Jan 12 2026 15:06:20 GMT-0600 (Central Standard Time),411699.60000000056,A,rattleenter,I,enter,292,2,1715.800000000745,409983.7999999998,8072,WL,A,7.0
3,19.5770001411438,learn,40422.9998588562,Mon Jan 12 2026 15:06:20 GMT-0600 (Central Standard Time),412266.2000000002,A,t,I,t,561,2,566.2000000001863,411700.0,8072,WL,A,8.0
3,19.794000148773193,learn,40205.99985122681,Mon Jan 12 2026 15:06:20 GMT-0600 (Central Standard Time),412483.0,A,tr,I,r,210,2,783.0,411700.0,8072,WL,A,8.0
3,19.91100001335144,learn,40088.99998664856,Mon Jan 12 2026 15:06:20 GMT-0600 (Central Standard Time),412599.7000000002,A,tra,I,a,106,2,899.7000000001863,411700.0,8072,WL,A,8.0
3,20.061000108718872,learn,39938.99989128113,Mon Jan 12 2026 15:06:20 GMT-0600 (Central Standard Time),412749.60000000056,A,trai,I,i,133,2,1049.6000000005588,411700.0,8072,WL,A,8.0
3,20.210999965667725,learn,39789.000034332275,Mon Jan 12 2026 15:06:20 GMT-0600 (Central Standard Time),412899.60000000056,A,train,I,n,135,2,1199.6000000005588,411700.0,8072,WL,A,8.0
3,20.72699999809265,learn,39273.00000190735,Mon Jan 12 2026 15:06:20 GMT-0600 (Central Standard Time),413416.2000000002,A,trainenter,I,enter,496,2,1716.2000000001863,411700.0,8072,WL,A,8.0
3,21.16000008583069,learn,38839.99991416931,Mon Jan 12 2026 15:06:20 GMT-0600 (Central Standard Time),413849.0,A,a,I,a,413,2,432.5,413416.5,8072,WL,A,9.0
3,21.3270001411438,learn,38672.9998588562,Mon Jan 12 2026 15:06:20 GMT-0600 (Central Standard Time),414016.0,A,ap,I,p,155,2,599.5,413416.5,8072,WL,A,9.0
3,21.5770001411438,learn,38422.9998588562,Mon Jan 12 2026 15:06:20 GMT-0600 (Central Standard Time),414265.9000000004,A,apl,I,l,237,2,849.4000000003725,413416.5,8072,WL,A,9.0
3,21.759999990463257,learn,38240.00000953674,Mon Jan 12 2026 15:06:20 GMT-0600 (Central Standard Time),414448.7999999998,A,apll,I,l,163,2,1032.2999999998137,413416.5,8072,WL,A,9.0
3,22.460000038146973,learn,37539.99996185303,Mon Jan 12 2026 15:06:20 GMT-0600 (Central Standard Time),415148.7999999998,A,apl,I,backspace,683,2,1732.2999999998137,413416.5,8072,WL,A,9.0
3,22.610000133514404,learn,37389.999866485596,Mon Jan 12 2026 15:06:20 GMT-0600 (Central Standard Time),415298.7999999998,A,ap,I,backspace,144,2,1882.2999999998137,413416.5,8072,WL,A,9.0
3,22.993000030517578,learn,37006.99996948242,Mon Jan 12 2026 15:06:20 GMT-0600 (Central Standard Time),415681.7999999998,A,app,I,p,370,2,2265.2999999998137,413416.5,8072,WL,A,9.0
3,23.542999982833862,learn,36457.00001716614,Mon Jan 12 2026 15:06:20 GMT-0600 (Central Standard Time),416231.9000000004,A,appl,I,l,539,2,2815.4000000003725,413416.5,8072,WL,A,9.0
3,23.9760000705719,learn,36023.9999294281,Mon Jan 12 2026 15:06:20 GMT-0600 (Central Standard Time),416665.10000000056,A,apple,I,e,412,2,3248.600000000559,413416.5,8072,WL,A,9.0
3,24.343000173568726,learn,35656.999826431274,Mon Jan 12 2026 15:06:20 GMT-0600 (Central Standard Time),417031.60000000056,A,appleenter,I,enter,346,2,3615.100000000559,413416.5,8072,WL,A,9.0
3,25.2260000705719,learn,34773.9999294281,Mon Jan 12 2026 15:06:20 GMT-0600 (Central Standard Time),417914.5,A,r,I,r,877,2,882.5,417032.0,8072,WL,A,10.0
3,25.37600016593933,learn,34623.99983406067,Mon Jan 12 2026 15:06:20 GMT-0600 (Central Standard Time),418064.5,A,ru,I,u,138,2,1032.5,417032.0,8072,WL,A,10.0
3,25.842000007629395,learn,34157.999992370605,Mon Jan 12 2026 15:06:20 GMT-0600 (Central Standard Time),418531.10000000056,A,rug,I,g,452,2,1499.1000000005588,417032.0,8072,WL,A,10.0
3,26.509000062942505,learn,33490.999937057495,Mon Jan 12 2026 15:06:20 GMT-0600 (Central Standard Time),419197.5,A,rugenter,I,enter,658,2,2165.5,417032.0,8072,WL,A,10.0
3,29.039999961853027,learn,30960.000038146973,Mon Jan 12 2026 15:06:20 GMT-0600 (Central Standard Time),421729.7000000002,A,h,I,h,2527,2,2531.7999999998137,419197.9000000004,8072,WL,A,11.0
3,29.20800018310547,learn,30791.99981689453,Mon Jan 12 2026 15:06:20 GMT-0600 (Central Standard Time),421896.9000000004,A,ha,I,a,162,2,2699.0,419197.9000000004,8072,WL,A,11.0
3,29.391000032424927,learn,30608.999967575073,Mon Jan 12 2026 15:06:20 GMT-0600 (Central Standard Time),422080.10000000056,A,har,I,r,172,2,2882.2000000001863,419197.9000000004,8072,WL,A,11.0
3,29.990000009536743,learn,30009.999990463257,Mon Jan 12 2026 15:06:20 GMT-0600 (Central Standard Time),422679.5,A,harp,I,p,588,2,3481.5999999996275,419197.9000000004,8072,WL,A,11.0
3,30.473999977111816,learn,29526.000022888184,Mon Jan 12 2026 15:06:20 GMT-0600 (Central Standard Time),423163.10000000056,A,harpenter,I,enter,477,2,3965.2000000001863,419197.9000000004,8072,WL,A,11.0
3,34.75600004196167,learn,25243.99995803833,Mon Jan 12 2026 15:06:20 GMT-0600 (Central Standard Time),427445.10000000056,A,s,I,s,4274,2,4281.600000000559,423163.5,8072,WL,A,12.0
3,34.956000089645386,learn,25043.999910354614,Mon Jan 12 2026 15:06:20 GMT-0600 (Central Standard Time),427644.9000000004,A,sa,I,a,182,2,4481.4000000003725,423163.5,8072,WL,A,12.0
3,35.17200016975403,learn,24827.99983024597,Mon Jan 12 2026 15:06:20 GMT-0600 (Central Standard Time),427861.60000000056,A,sal,I,l,208,2,4698.100000000559,423163.5,8072,WL,A,12.0
3,35.43900012969971,learn,24560.999870300293,Mon Jan 12 2026 15:06:20 GMT-0600 (Central Standard Time),428128.2000000002,A,salt,I,t,255,2,4964.700000000186,423163.5,8072,WL,A,12.0
3,35.67200016975403,learn,24327.99983024597,Mon Jan 12 2026 15:06:20 GMT-0600 (Central Standard Time),428361.2000000002,A,saltenter,I,enter,220,2,5197.700000000186,423163.5,8072,WL,A,12.0
3,38.32100009918213,learn,21678.99990081787,Mon Jan 12 2026 15:06:20 GMT-0600 (Central Standard Time),431010.4000000004,A,b,I,b,2643,2,2648.9000000003725,428361.5,8072,WL,A,13.0
3,38.47100019454956,learn,21528.99980545044,Mon Jan 12 2026 15:06:20 GMT-0600 (Central Standard Time),431160.5,A,bo,I,o,138,2,2799.0,428361.5,8072,WL,A,13.0
3,38.604000091552734,learn,21395.999908447266,Mon Jan 12 2026 15:06:20 GMT-0600 (Central Standard Time),431293.7999999998,A,boo,I,o,124,2,2932.2999999998137,428361.5,8072,WL,A,13.0
3,38.80400013923645,learn,21195.99986076355,Mon Jan 12 2026 15:06:20 GMT-0600 (Central Standard Time),431493.7999999998,A,book,I,k,191,2,3132.2999999998137,428361.5,8072,WL,A,13.0
3,39.2039999961853,learn,20796.000003814697,Mon Jan 12 2026 15:06:20 GMT-0600 (Central Standard Time),431893.5,A,bookenter,I,enter,383,2,3532.0,428361.5,8072,WL,A,13.0
3,44.819000005722046,learn,15180.999994277954,Mon Jan 12 2026 15:06:20 GMT-0600 (Central Standard Time),437508.7000000002,A,f,I,f,5599,2,5614.799999999814,431893.9000000004,8072,WL,A,14.0
3,44.95300006866455,learn,15046.99993133545,Mon Jan 12 2026 15:06:20 GMT-0600 (Central Standard Time),437642.7999999998,A,fi,I,i,126,2,5748.899999999441,431893.9000000004,8072,WL,A,14.0
3,45.085999965667725,learn,14914.000034332275,Mon Jan 12 2026 15:06:20 GMT-0600 (Central Standard Time),437775.2000000002,A,fin,I,n,122,2,5881.299999999814,431893.9000000004,8072,WL,A,14.0
3,45.2020001411438,learn,14797.999858856201,Mon Jan 12 2026 15:06:20 GMT-0600 (Central Standard Time),437891.7999999998,A,fing,I,g,101,2,5997.899999999441,431893.9000000004,8072,WL,A,14.0
3,45.43600010871887,learn,14563.999891281128,Mon Jan 12 2026 15:06:20 GMT-0600 (Central Standard Time),438125.10000000056,A,finge,I,e,216,2,6231.200000000186,431893.9000000004,8072,WL,A,14.0
3,45.51900005340576,learn,14480.999946594238,Mon Jan 12 2026 15:06:20 GMT-0600 (Central Standard Time),438208.2000000002,A,finger,I,r,71,2,6314.299999999814,431893.9000000004,8072,WL,A,14.0
3,45.76900005340576,learn,14230.999946594238,Mon Jan 12 2026 15:06:20 GMT-0600 (Central Standard Time),438458.2000000002,A,fingerenter,I,enter,237,2,6564.299999999814,431893.9000000004,8072,WL,A,14.0
3,53.30000019073486,learn,6699.999809265137,Mon Jan 12 2026 15:06:20 GMT-0600 (Central Standard Time),445989.0,A,enter,I,enter,7522,2,7530.399999999441,438458.60000000056,8072,WL,A,15.0
4,0.7000000476837158,learn,59299.999952316284,Mon Jan 12 2026 15:06:20 GMT-0600 (Central Standard Time),513668.10000000056,A,g,I,g,693,2,699.7000000001863,512968.4000000004,8072,WL,A,1.0
4,0.8499999046325684,learn,59150.00009536743,Mon Jan 12 2026 15:06:20 GMT-0600 (Central Standard Time),513817.60000000056,A,go,I,o,144,2,849.2000000001863,512968.4000000004,8072,WL,A,1.0
4,1.0829999446868896,learn,58917.00005531311,Mon Jan 12 2026 15:06:20 GMT-0600 (Central Standard Time),514051.10000000056,A,gol,I,l,227,2,1082.7000000001863,512968.4000000004,8072,WL,A,1.0
4,1.2330000400543213,learn,58766.99995994568,Mon Jan 12 2026 15:06:20 GMT-0600 (Central Standard Time),514201.10000000056,A,gold,I,d,129,2,1232.7000000001863,512968.4000000004,8072,WL,A,1.0
4,1.5339999198913574,learn,58466.00008010864,Mon Jan 12 2026 15:06:20 GMT-0600 (Central Standard Time),514502.10000000056,A,goldenter,I,enter,283,2,1533.7000000001863,512968.4000000004,8072,WL,A,1.0
4,2.365999937057495,learn,57634.000062942505,Mon Jan 12 2026 15:06:20 GMT-0600 (Central Standard Time),515333.9000000004,A,k,I,k,814,2,831.4000000003725,514502.5,8072,WL,A,2.0
4,2.5829999446868896,learn,57417.00005531311,Mon Jan 12 2026 15:06:20 GMT-0600 (Central Standard Time),515551.0,A,ke,I,e,198,2,1048.5,514502.5,8072,WL,A,2.0
4,2.865999937057495,learn,57134.000062942505,Mon Jan 12 2026 15:06:20 GMT-0600 (Central Standard Time),515833.7999999998,A,key,I,y,277,2,1331.2999999998137,514502.5,8072,WL,A,2.0
4,3.200000047683716,learn,56799.999952316284,Mon Jan 12 2026 15:06:20 GMT-0600 (Central Standard Time),516167.5,A,keyenter,I,enter,315,2,1665.0,514502.5,8072,WL,A,2.0
4,3.5160000324249268,learn,56483.99996757507,Mon Jan 12 2026 15:06:20 GMT-0600 (Central Standard Time),516483.7999999998,A,c,I,c,309,2,315.8999999994412,516167.9000000004,8072,WL,A,3.0
4,3.7160000801086426,learn,56283.99991989136,Mon Jan 12 2026 15:06:20 GMT-0600 (Central Standard Time),516683.9000000004,A,ch,I,h,185,2,516.0,516167.9000000004,8072,WL,A,3.0
4,3.8320000171661377,learn,56167.99998283386,Mon Jan 12 2026 15:06:20 GMT-0600 (Central Standard Time),516800.2999999998,A,chi,I,i,105,2,632.3999999994412,516167.9000000004,8072,WL,A,3.0
4,4.049000024795532,learn,55950.99997520447,Mon Jan 12 2026 15:06:20 GMT-0600 (Central Standard Time),517017.10000000056,A,chin,I,n,212,2,849.2000000001863,516167.9000000004,8072,WL,A,3.0
4,4.9649999141693115,learn,55035.00008583069,Mon Jan 12 2026 15:06:20 GMT-0600 (Central Standard Time),517933.10000000056,A,chi,I,backspace,907,2,1765.2000000001863,516167.9000000004,8072,WL,A,3.0
4,5.198999881744385,learn,54801.000118255615,Mon Jan 12 2026 15:06:20 GMT-0600 (Central Standard Time),518166.60000000056,A,chim,I,m,215,2,1998.7000000001863,516167.9000000004,8072,WL,A,3.0
4,5.914999961853027,learn,54085.00003814697,Mon Jan 12 2026 15:06:20 GMT-0600 (Central Standard Time),518883.10000000056,A,chimn,I,n,701,2,2715.2000000001863,516167.9000000004,8072,WL,A,3.0
4,6.115000009536743,learn,53884.99999046326,Mon Jan 12 2026 15:06:20 GMT-0600 (Central Standard Time),519083.2000000002,A,chimne,I,e,185,2,2915.2999999998137,516167.9000000004,8072,WL,A,3.0
4,6.3480000495910645,learn,53651.999950408936,Mon Jan 12 2026 15:06:20 GMT-0600 (Central Standard Time),519316.10000000056,A,chimney,I,y,225,2,3148.2000000001863,516167.9000000004,8072,WL,A,3.0
4,7.547999858856201,learn,52452.0001411438,Mon Jan 12 2026 15:06:20 GMT-0600 (Central Standard Time),520515.9000000004,A,chimneyenter,I,enter,1183,2,4348.0,516167.9000000004,8072,WL,A,3.0
4,8.530999898910522,learn,51469.00010108948,Mon Jan 12 2026 15:06:20 GMT-0600 (Central Standard Time),521498.7000000002,A,k,I,k,977,2,982.5,520516.2000000002,8072,WL,A,4.0
4,8.797999858856201,learn,51202.0001411438,Mon Jan 12 2026 15:06:20 GMT-0600 (Central Standard Time),521765.5,A,ke,I,e,258,2,1249.2999999998137,520516.2000000002,8072,WL,A,4.0
4,8.980999946594238,learn,51019.00005340576,Mon Jan 12 2026 15:06:20 GMT-0600 (Central Standard Time),521948.7000000002,A,key,I,y,175,2,1432.5,520516.2000000002,8072,WL,A,4.0
4,9.79699993133545,learn,50203.00006866455,Mon Jan 12 2026 15:06:20 GMT-0600 (Central Standard Time),522765.2000000002,A,keyenter,I,enter,808,2,2249.0,520516.2000000002,8072,WL,A,4.0
4,11.36299991607666,learn,48637.00008392334,Mon Jan 12 2026 15:06:20 GMT-0600 (Central Standard Time),524331.1000000006,A,l,I,l,1559,2,1565.5,522765.60000000056,8072,WL,A,5.0
4,11.61299991607666,learn,48387.00008392334,Mon Jan 12 2026 15:06:20 GMT-0600 (Central Standard Time),524581.0,A,lo,I,o,241,2,1815.3999999994412,522765.60000000056,8072,WL,A,5.0
4,11.980000019073486,learn,48019.999980926514,Mon Jan 12 2026 15:06:20 GMT-0600 (Central Standard Time),524947.7999999998,A,log,I,g,360,2,2182.199999999255,522765.60000000056,8072,WL,A,5.0
4,12.412999868392944,learn,47587.000131607056,Mon Jan 12 2026 15:06:20 GMT-0600 (Central Standard Time),525380.9000000004,A,logenter,I,enter,425,2,2615.2999999998137,522765.60000000056,8072,WL,A,5.0
4,13.329999923706055,learn,46670.000076293945,Mon Jan 12 2026 15:06:20 GMT-0600 (Central Standard Time),526297.7999999998,A,f,I,f,904,2,916.5,525381.2999999998,8072,WL,A,6.0
4,13.463000059127808,learn,46536.99994087219,Mon Jan 12 2026 15:06:20 GMT-0600 (Central Standard Time),526430.6000000006,A,fl,I,l,123,2,1049.300000000745,525381.2999999998,8072,WL,A,6.0
4,13.895999908447266,learn,46104.000091552734,Mon Jan 12 2026 15:06:20 GMT-0600 (Central Standard Time),526863.9000000004,A,flo,I,o,422,2,1482.6000000005588,525381.2999999998,8072,WL,A,6.0
4,14.164000034332275,learn,45835.999965667725,Mon Jan 12 2026 15:06:20 GMT-0600 (Central Standard Time),527131.4000000004,A,flow,I,w,260,2,1750.1000000005588,525381.2999999998,8072,WL,A,6.0
4,14.328999996185303,learn,45671.0000038147,Mon Jan 12 2026 15:06:20 GMT-0600 (Central Standard Time),527297.1000000006,A,flowe,I,e,153,2,1915.800000000745,525381.2999999998,8072,WL,A,6.0
4,14.529000043869019,learn,45470.99995613098,Mon Jan 12 2026 15:06:20 GMT-0600 (Central Standard Time),527496.9000000004,A,flower,I,r,187,2,2115.600000000559,525381.2999999998,8072,WL,A,6.0
4,14.895999908447266,learn,45104.000091552734,Mon Jan 12 2026 15:06:20 GMT-0600 (Central Standard Time),527863.5,A,flowerenter,I,enter,356,2,2482.2000000001863,525381.2999999998,8072,WL,A,6.0
4,15.595999956130981,learn,44404.00004386902,Mon Jan 12 2026 15:06:20 GMT-0600 (Central Standard Time),528563.4000000004,A,m,I,m,685,2,699.5,527863.9000000004,8072,WL,A,7.0
4,15.795000076293945,learn,44204.999923706055,Mon Jan 12 2026 15:06:20 GMT-0600 (Central Standard Time),528763.1000000006,A,me,I,e,193,2,899.2000000001863,527863.9000000004,8072,WL,A,7.0
4,16.51199984550476,learn,43488.00015449524,Mon Jan 12 2026 15:06:20 GMT-0600 (Central Standard Time),529479.7000000002,A,med,I,d,705,2,1615.7999999998137,527863.9000000004,8072,WL,A,7.0
4,16.76199984550476,learn,43238.00015449524,Mon Jan 12 2026 15:06:20 GMT-0600 (Central Standard Time),529729.6000000006,A,medo,I,o,237,2,1865.7000000001863,527863.9000000004,8072,WL,A,7.0
4,17.045000076293945,learn,42954.999923706055,Mon Jan 12 2026 15:06:20 GMT-0600 (Central Standard Time),530013.1000000006,A,medow,I,w,266,2,2149.2000000001863,527863.9000000004,8072,WL,A,7.0
4,17.494999885559082,learn,42505.00011444092,Mon Jan 12 2026 15:06:20 GMT-0600 (Central Standard Time),530462.7999999998,A,medo,I,backspace,438,2,2598.899999999441,527863.9000000004,8072,WL,A,7.0
4,17.611999988555908,learn,42388.00001144409,Mon Jan 12 2026 15:06:20 GMT-0600 (Central Standard Time),530579.5,A,med,I,backspace,110,2,2715.5999999996275,527863.9000000004,8072,WL,A,7.0
4,17.777999877929688,learn,42222.00012207031,Mon Jan 12 2026 15:06:20 GMT-0600 (Central Standard Time),530746.0,A,me,I,backspace,153,2,2882.0999999996275,527863.9000000004,8072,WL,A,7.0
4,18.128000020980835,learn,41871.999979019165,Mon Jan 12 2026 15:06:20 GMT-0600 (Central Standard Time),531095.9000000004,A,mea,I,a,329,2,3232.0,527863.9000000004,8072,WL,A,7.0
4,18.477999925613403,learn,41522.0000743866,Mon Jan 12 2026 15:06:20 GMT-0600 (Central Standard Time),531445.5,A,mead,I,d,339,2,3581.5999999996275,527863.9000000004,8072,WL,A,7.0
4,18.628000020980835,learn,41371.999979019165,Mon Jan 12 2026 15:06:20 GMT-0600 (Central Standard Time),531595.7999999998,A,meado,I,o,142,2,3731.899999999441,527863.9000000004,8072,WL,A,7.0
4,18.861000061035156,learn,41138.999938964844,Mon Jan 12 2026 15:06:20 GMT-0600 (Central Standard Time),531828.9000000004,A,meadow,I,w,217,2,3965.0,527863.9000000004,8072,WL,A,7.0
4,19.92799997329712,learn,40072.00002670288,Mon Jan 12 2026 15:06:20 GMT-0600 (Central Standard Time),532895.7999999998,A,meadowenter,I,enter,1048,2,5031.899999999441,527863.9000000004,8072,WL,A,7.0
4,20.57699990272522,learn,39423.00009727478,Mon Jan 12 2026 15:06:20 GMT-0600 (Central Standard Time),533545.2000000002,A,r,I,r,629,2,649.0999999996275,532896.1000000006,8072,WL,A,8.0
4,20.944000005722046,learn,39055.999994277954,Mon Jan 12 2026 15:06:20 GMT-0600 (Central Standard Time),533911.7000000002,A,rt,I,t,347,2,1015.5999999996275,532896.1000000006,8072,WL,A,8.0
4,21.0939998626709,learn,38906.0001373291,Mon Jan 12 2026 15:06:20 GMT-0600 (Central Standard Time),534061.6000000006,A,rtt,I,t,133,2,1165.5,532896.1000000006,8072,WL,A,8.0
4,21.30999994277954,learn,38690.00005722046,Mon Jan 12 2026 15:06:20 GMT-0600 (Central Standard Time),534278.2000000002,A,rttl,I,l,199,2,1382.0999999996275,532896.1000000006,8072,WL,A,8.0
4,21.759999990463257,learn,38240.00000953674,Mon Jan 12 2026 15:06:20 GMT-0600 (Central Standard Time),534728.1000000006,A,rtt,I,backspace,429,2,1832.0,532896.1000000006,8072,WL,A,8.0
4,21.944000005722046,learn,38055.999994277954,Mon Jan 12 2026 15:06:20 GMT-0600 (Central Standard Time),534911.4000000004,A,rt,I,backspace,164,2,2015.2999999998137,532896.1000000006,8072,WL,A,8.0
4,22.07699990272522,learn,37923.00009727478,Mon Jan 12 2026 15:06:20 GMT-0600 (Central Standard Time),535044.7000000002,A,r,I,backspace,125,2,2148.5999999996275,532896.1000000006,8072,WL,A,8.0
4,22.47699999809265,learn,37523.00000190735,Mon Jan 12 2026 15:06:20 GMT-0600 (Central Standard Time),535444.6000000006,A,ra,I,a,392,2,2548.5,532896.1000000006,8072,WL,A,8.0
4,22.743000030517578,learn,37256.99996948242,Mon Jan 12 2026 15:06:20 GMT-0600 (Central Standard Time),535711.0,A,rat,I,t,256,2,2814.899999999441,532896.1000000006,8072,WL,A,8.0
4,22.927000045776367,learn,37072.99995422363,Mon Jan 12 2026 15:06:20 GMT-0600 (Central Standard Time),535894.4000000004,A,ratt,I,t,166,2,2998.2999999998137,532896.1000000006,8072,WL,A,8.0
4,23.075999975204468,learn,36924.00002479553,Mon Jan 12 2026 15:06:20 GMT-0600 (Central Standard Time),536044.2000000002,A,rattl,I,l,142,2,3148.0999999996275,532896.1000000006,8072,WL,A,8.0
4,23.177000045776367,learn,36822.99995422363,Mon Jan 12 2026 15:06:20 GMT-0600 (Central Standard Time),536144.4000000004,A,rattle,I,e,80,2,3248.2999999998137,532896.1000000006,8072,WL,A,8.0
4,23.509999990463257,learn,36490.00000953674,Mon Jan 12 2026 15:06:20 GMT-0600 (Central Standard Time),536477.7000000002,A,rattleenter,I,enter,317,2,3581.5999999996275,532896.1000000006,8072,WL,A,8.0
4,24.175999879837036,learn,35824.000120162964,Mon Jan 12 2026 15:06:20 GMT-0600 (Central Standard Time),537144.0,A,b,I,b,646,2,666.0,536478.0,8072,WL,A,9.0
4,24.342999935150146,learn,35657.00006484985,Mon Jan 12 2026 15:06:20 GMT-0600 (Central Standard Time),537310.6000000006,A,bu,I,u,149,2,832.6000000005588,536478.0,8072,WL,A,9.0
4,24.626999855041504,learn,35373.000144958496,Mon Jan 12 2026 15:06:20 GMT-0600 (Central Standard Time),537594.9000000004,A,but,I,t,278,2,1116.9000000003725,536478.0,8072,WL,A,9.0
4,24.743000030517578,learn,35256.99996948242,Mon Jan 12 2026 15:06:20 GMT-0600 (Central Standard Time),537710.5,A,butt,I,t,106,2,1232.5,536478.0,8072,WL,A,9.0
4,24.908999919891357,learn,35091.00008010864,Mon Jan 12 2026 15:06:20 GMT-0600 (Central Standard Time),537876.7000000002,A,butto,I,o,157,2,1398.7000000001863,536478.0,8072,WL,A,9.0
4,25.125999927520752,learn,34874.00007247925,Mon Jan 12 2026 15:06:20 GMT-0600 (Central Standard Time),538093.7000000002,A,button,I,n,208,2,1615.7000000001863,536478.0,8072,WL,A,9.0
4,25.45899987220764,learn,34541.00012779236,Mon Jan 12 2026 15:06:20 GMT-0600 (Central Standard Time),538427.0,A,buttonenter,I,enter,327,2,1949.0,536478.0,8072,WL,A,9.0
4,26.05900001525879,learn,33940.99998474121,Mon Jan 12 2026 15:06:20 GMT-0600 (Central Standard Time),539026.7000000002,A,f,I,f,593,2,599.2000000001863,538427.5,8072,WL,A,10.0
4,26.20899987220764,learn,33791.00012779236,Mon Jan 12 2026 15:06:20 GMT-0600 (Central Standard Time),539176.7000000002,A,fi,I,i,130,2,749.2000000001863,538427.5,8072,WL,A,10.0
4,26.358999967575073,learn,33641.00003242493,Mon Jan 12 2026 15:06:20 GMT-0600 (Central Standard Time),539326.7000000002,A,fin,I,n,140,2,899.2000000001863,538427.5,8072,WL,A,10.0
4,26.54200005531311,learn,33457.99994468689,Mon Jan 12 2026 15:06:20 GMT-0600 (Central Standard Time),539509.9000000004,A,fing,I,g,174,2,1082.4000000003725,538427.5,8072,WL,A,10.0
4,26.776000022888184,learn,33223.99997711182,Mon Jan 12 2026 15:06:20 GMT-0600 (Central Standard Time),539743.4000000004,A,finge,I,e,223,2,1315.9000000003725,538427.5,8072,WL,A,10.0
4,26.95899987220764,learn,33041.00012779236,Mon Jan 12 2026 15:06:20 GMT-0600 (Central Standard Time),539926.4000000004,A,finger,I,r,165,2,1498.9000000003725,538427.5,8072,WL,A,10.0
4,27.35800004005432,learn,32641.99995994568,Mon Jan 12 2026 15:06:20 GMT-0600 (Central Standard Time),540326.2000000002,A,fingerenter,I,enter,390,2,1898.7000000001863,538427.5,8072,WL,A,10.0
4,28.007999897003174,learn,31992.000102996826,Mon Jan 12 2026 15:06:20 GMT-0600 (Central Standard Time),540976.0,A,t,I,t,630,2,649.3999999994412,540326.6000000006,8072,WL,A,11.0
4,28.19099998474121,learn,31809.00001525879,Mon Jan 12 2026 15:06:20 GMT-0600 (Central Standard Time),541159.6000000006,A,tr,I,r,172,2,833.0,540326.6000000006,8072,WL,A,11.0
4,28.29099988937378,learn,31709.00011062622,Mon Jan 12 2026 15:06:20 GMT-0600 (Central Standard Time),541259.2999999998,A,tra,I,a,85,2,932.6999999992549,540326.6000000006,8072,WL,A,11.0
4,28.44099998474121,learn,31559.00001525879,Mon Jan 12 2026 15:06:20 GMT-0600 (Central Standard Time),541409.2999999998,A,trai,I,i,137,2,1082.699999999255,540326.6000000006,8072,WL,A,11.0
4,28.573999881744385,learn,31426.000118255615,Mon Jan 12 2026 15:06:20 GMT-0600 (Central Standard Time),541542.7000000002,A,train,I,n,115,2,1216.0999999996275,540326.6000000006,8072,WL,A,11.0
4,28.891000032424927,learn,31108.999967575073,Mon Jan 12 2026 15:06:20 GMT-0600 (Central Standard Time),541859.2000000002,A,trainenter,I,enter,310,2,1532.5999999996275,540326.6000000006,8072,WL,A,11.0
4,29.473999977111816,learn,30526.000022888184,Mon Jan 12 2026 15:06:20 GMT-0600 (Central Standard Time),542442.2000000002,A,r,I,r,568,2,582.5999999996275,541859.6000000006,8072,WL,A,12.0
4,29.657999992370605,learn,30342.000007629395,Mon Jan 12 2026 15:06:20 GMT-0600 (Central Standard Time),542625.7999999998,A,ru,I,u,162,2,766.1999999992549,541859.6000000006,8072,WL,A,12.0
4,30.256999969482422,learn,29743.000030517578,Mon Jan 12 2026 15:06:20 GMT-0600 (Central Standard Time),543225.4000000004,A,rug,I,g,579,2,1365.7999999998137,541859.6000000006,8072,WL,A,12.0
4,30.822999954223633,learn,29177.000045776367,Mon Jan 12 2026 15:06:20 GMT-0600 (Central Standard Time),543791.7999999998,A,rugenter,I,enter,547,2,1932.199999999255,541859.6000000006,8072,WL,A,12.0
4,31.657000064849854,learn,28342.999935150146,Mon Jan 12 2026 15:06:20 GMT-0600 (Central Standard Time),544624.9000000004,A,s,I,s,813,2,832.7999999998137,543792.1000000006,8072,WL,A,13.0
4,31.823999881744385,learn,28176.000118255615,Mon Jan 12 2026 15:06:20 GMT-0600 (Central Standard Time),544791.7999999998,A,sa,I,a,156,2,999.6999999992549,543792.1000000006,8072,WL,A,13.0
4,32.02300000190735,learn,27976.99999809265,Mon Jan 12 2026 15:06:20 GMT-0600 (Central Standard Time),544991.6000000006,A,sal,I,l,181,2,1199.5,543792.1000000006,8072,WL,A,13.0
4,32.53999996185303,learn,27460.000038146973,Mon Jan 12 2026 15:06:20 GMT-0600 (Central Standard Time),545508.2999999998,A,salt,I,t,500,2,1716.199999999255,543792.1000000006,8072,WL,A,13.0
4,33.44000005722046,learn,26559.99994277954,Mon Jan 12 2026 15:06:20 GMT-0600 (Central Standard Time),546407.7999999998,A,saltenter,I,enter,887,2,2615.699999999255,543792.1000000006,8072,WL,A,13.0
4,35.07200002670288,learn,24927.99997329712,Mon Jan 12 2026 15:06:20 GMT-0600 (Central Standard Time),548040.6000000006,A,a,I,a,1620,2,1632.300000000745,546408.2999999998,8072,WL,A,14.0
4,35.25600004196167,learn,24743.99995803833,Mon Jan 12 2026 15:06:20 GMT-0600 (Central Standard Time),548224.0,A,ap,I,p,163,2,1815.7000000001863,546408.2999999998,8072,WL,A,14.0
4,35.47199988365173,learn,24528.000116348267,Mon Jan 12 2026 15:06:20 GMT-0600 (Central Standard Time),548440.2999999998,A,app,I,p,205,2,2032.0,546408.2999999998,8072,WL,A,14.0
4,35.704999923706055,learn,24295.000076293945,Mon Jan 12 2026 15:06:20 GMT-0600 (Central Standard Time),548673.6000000006,A,appl,I,l,221,2,2265.300000000745,546408.2999999998,8072,WL,A,14.0
4,35.855000019073486,learn,24144.999980926514,Mon Jan 12 2026 15:06:20 GMT-0600 (Central Standard Time),548823.7000000002,A,apple,I,e,139,2,2415.4000000003725,546408.2999999998,8072,WL,A,14.0
4,36.0550000667572,learn,23944.999933242798,Mon Jan 12 2026 15:06:20 GMT-0600 (Central Standard Time),549023.6000000006,A,appleenter,I,enter,188,2,2615.300000000745,546408.2999999998,8072,WL,A,14.0
4,36.58800005912781,learn,23411.999940872192,Mon Jan 12 2026 15:06:20 GMT-0600 (Central Standard Time),549556.5,A,enter,I,enter,517,2,532.5999999996275,549023.9000000004,8072,WL,A,15.0
5,1.2160000801086426,learn,60000.0,Mon Jan 12 2026 15:06:20 GMT-0600 (Central Standard Time),616885.7000000002,A,g,I,g,1207,2,1216.2000000001863,615669.5,8072,WL,A,1.0
5,1.3989999294281006,learn,60000.0,Mon Jan 12 2026 15:06:20 GMT-0600 (Central Standard Time),617069.1000000006,A,go,I,o,174,2,1399.6000000005588,615669.5,8072,WL,A,1.0
5,1.6319999694824219,learn,60000.0,Mon Jan 12 2026 15:06:20 GMT-0600 (Central Standard Time),617302.1000000006,A,gol,I,l,224,2,1632.6000000005588,615669.5,8072,WL,A,1.0
5,2.115999937057495,learn,60000.0,Mon Jan 12 2026 15:06:20 GMT-0600 (Central Standard Time),617785.2999999998,A,gold,I,d,479,2,2115.7999999998137,615669.5,8072,WL,A,1.0
5,2.499000072479248,learn,60000.0,Mon Jan 12 2026 15:06:20 GMT-0600 (Central Standard Time),618168.6000000006,A,goldenter,I,enter,371,2,2499.100000000559,615669.5,8072,WL,A,1.0
5,3.2990000247955322,learn,60000.0,Mon Jan 12 2026 15:06:20 GMT-0600 (Central Standard Time),618968.4000000004,A,c,I,c,788,2,799.4000000003725,618169.0,8072,WL,A,2.0
5,4.365000009536743,learn,60000.0,Mon Jan 12 2026 15:06:20 GMT-0600 (Central Standard Time),620034.6000000006,A,ch,I,h,1052,2,1865.6000000005588,618169.0,8072,WL,A,2.0
5,4.5320000648498535,learn,60000.0,Mon Jan 12 2026 15:06:20 GMT-0600 (Central Standard Time),620201.5,A,chi,I,i,146,2,2032.5,618169.0,8072,WL,A,2.0
5,4.947999954223633,learn,60000.0,Mon Jan 12 2026 15:06:20 GMT-0600 (Central Standard Time),620618.2000000002,A,chim,I,m,403,2,2449.2000000001863,618169.0,8072,WL,A,2.0
5,5.497999906539917,learn,60000.0,Mon Jan 12 2026 15:06:20 GMT-0600 (Central Standard Time),621167.7000000002,A,chimn,I,n,538,2,2998.7000000001863,618169.0,8072,WL,A,2.0
5,5.664000034332275,learn,60000.0,Mon Jan 12 2026 15:06:20 GMT-0600 (Central Standard Time),621334.2000000002,A,chimne,I,e,149,2,3165.2000000001863,618169.0,8072,WL,A,2.0
5,5.79800009727478,learn,60000.0,Mon Jan 12 2026 15:06:20 GMT-0600 (Central Standard Time),621467.7000000002,A,chimner,I,r,126,2,3298.7000000001863,618169.0,8072,WL,A,2.0
5,6.3480000495910645,learn,60000.0,Mon Jan 12 2026 15:06:20 GMT-0600 (Central Standard Time),622017.6000000006,A,chimne,I,backspace,529,2,3848.600000000559,618169.0,8072,WL,A,2.0
5,7.21399998664856,learn,60000.0,Mon Jan 12 2026 15:06:20 GMT-0600 (Central Standard Time),622884.0,A,chimney,I,y,851,2,4715.0,618169.0,8072,WL,A,2.0
5,7.697000026702881,learn,60000.0,Mon Jan 12 2026 15:06:20 GMT-0600 (Central Standard Time),623367.2999999998,A,chimneyenter,I,enter,464,2,5198.299999999814,618169.0,8072,WL,A,2.0
5,8.614000082015991,learn,60000.0,Mon Jan 12 2026 15:06:20 GMT-0600 (Central Standard Time),624283.4000000004,A,k,I,k,901,2,915.7999999998137,623367.6000000006,8072,WL,A,3.0
5,8.897000074386597,learn,60000.0,Mon Jan 12 2026 15:06:20 GMT-0600 (Central Standard Time),624566.7999999998,A,ke,I,e,273,2,1199.199999999255,623367.6000000006,8072,WL,A,3.0
5,9.180000066757202,learn,60000.0,Mon Jan 12 2026 15:06:20 GMT-0600 (Central Standard Time),624850.1000000006,A,key,I,y,270,2,1482.5,623367.6000000006,8072,WL,A,3.0
5,9.562999963760376,learn,60000.0,Mon Jan 12 2026 15:06:20 GMT-0600 (Central Standard Time),625233.2999999998,A,keyenter,I,enter,378,2,1865.699999999255,623367.6000000006,8072,WL,A,3.0
5,10.395999908447266,learn,60000.0,Mon Jan 12 2026 15:06:20 GMT-0600 (Central Standard Time),626065.9000000004,A,l,I,l,828,2,832.5,625233.4000000004,8072,WL,A,4.0
5,10.69700002670288,learn,60000.0,Mon Jan 12 2026 15:06:20 GMT-0600 (Central Standard Time),626366.2999999998,A,lo,I,o,290,2,1132.8999999994412,625233.4000000004,8072,WL,A,4.0
5,11.046000003814697,learn,60000.0,Mon Jan 12 2026 15:06:20 GMT-0600 (Central Standard Time),626716.2999999998,A,log,I,g,335,2,1482.8999999994412,625233.4000000004,8072,WL,A,4.0
5,11.446000099182129,learn,60000.0,Mon Jan 12 2026 15:06:20 GMT-0600 (Central Standard Time),627116.0,A,logenter,I,enter,392,2,1882.5999999996275,625233.4000000004,8072,WL,A,4.0
5,12.961999893188477,learn,60000.0,Mon Jan 12 2026 15:06:20 GMT-0600 (Central Standard Time),628632.1000000006,A,a,I,a,1505,2,1515.800000000745,627116.2999999998,8072,WL,A,5.0
5,13.145999908447266,learn,60000.0,Mon Jan 12 2026 15:06:20 GMT-0600 (Central Standard Time),628815.2000000002,A,ap,I,p,172,2,1698.9000000003725,627116.2999999998,8072,WL,A,5.0
5,13.328999996185303,learn,60000.0,Mon Jan 12 2026 15:06:20 GMT-0600 (Central Standard Time),628998.7000000002,A,app,I,p,173,2,1882.4000000003725,627116.2999999998,8072,WL,A,5.0
5,13.611999988555908,learn,60000.0,Mon Jan 12 2026 15:06:20 GMT-0600 (Central Standard Time),629281.9000000004,A,appl,I,l,269,2,2165.600000000559,627116.2999999998,8072,WL,A,5.0
5,13.76200008392334,learn,60000.0,Mon Jan 12 2026 15:06:20 GMT-0600 (Central Standard Time),629432.0,A,apple,I,e,139,2,2315.7000000001863,627116.2999999998,8072,WL,A,5.0
5,14.062000036239624,learn,60000.0,Mon Jan 12 2026 15:06:20 GMT-0600 (Central Standard Time),629731.7000000002,A,appleenter,I,enter,284,2,2615.4000000003725,627116.2999999998,8072,WL,A,5.0
5,14.795000076293945,learn,60000.0,Mon Jan 12 2026 15:06:20 GMT-0600 (Central Standard Time),630465.0,A,f,I,f,713,2,733.0999999996275,629731.9000000004,8072,WL,A,6.0
5,14.894999980926514,learn,60000.0,Mon Jan 12 2026 15:06:20 GMT-0600 (Central Standard Time),630564.7000000002,A,fi,I,i,83,2,832.7999999998137,629731.9000000004,8072,WL,A,6.0
5,15.07800006866455,learn,60000.0,Mon Jan 12 2026 15:06:20 GMT-0600 (Central Standard Time),630748.2000000002,A,fin,I,n,168,2,1016.2999999998137,629731.9000000004,8072,WL,A,6.0
5,15.229000091552734,learn,60000.0,Mon Jan 12 2026 15:06:20 GMT-0600 (Central Standard Time),630898.7000000002,A,find,I,d,144,2,1166.7999999998137,629731.9000000004,8072,WL,A,6.0
5,15.878000020980835,learn,60000.0,Mon Jan 12 2026 15:06:20 GMT-0600 (Central Standard Time),631547.9000000004,A,fin,I,backspace,634,2,1816.0,629731.9000000004,8072,WL,A,6.0
5,16.41100001335144,learn,60000.0,Mon Jan 12 2026 15:06:20 GMT-0600 (Central Standard Time),632081.0,A,fing,I,g,513,2,2349.0999999996275,629731.9000000004,8072,WL,A,6.0
5,16.611000061035156,learn,60000.0,Mon Jan 12 2026 15:06:20 GMT-0600 (Central Standard Time),632280.7000000002,A,finge,I,e,194,2,2548.7999999998137,629731.9000000004,8072,WL,A,6.0
5,16.727999925613403,learn,60000.0,Mon Jan 12 2026 15:06:20 GMT-0600 (Central Standard Time),632397.5,A,finger,I,r,108,2,2665.5999999996275,629731.9000000004,8072,WL,A,6.0
5,17.371000051498413,learn,60000.0,Mon Jan 12 2026 15:06:20 GMT-0600 (Central Standard Time),633041.0,A,fingerenter,I,enter,492,2,3309.0999999996275,629731.9000000004,8072,WL,A,6.0
5,18.594000101089478,learn,60000.0,Mon Jan 12 2026 15:06:20 GMT-0600 (Central Standard Time),634263.9000000004,A,b,I,b,1211,2,1222.4000000003725,633041.5,8072,WL,A,7.0
5,18.776999950408936,learn,60000.0,Mon Jan 12 2026 15:06:20 GMT-0600 (Central Standard Time),634447.0,A,bo,I,o,172,2,1405.5,633041.5,8072,WL,A,7.0
5,18.960000038146973,learn,60000.0,Mon Jan 12 2026 15:06:20 GMT-0600 (Central Standard Time),634630.0,A,boo,I,o,174,2,1588.5,633041.5,8072,WL,A,7.0
5,19.444000005722046,learn,60000.0,Mon Jan 12 2026 15:06:20 GMT-0600 (Central Standard Time),635113.2999999998,A,book,I,k,463,2,2071.7999999998137,633041.5,8072,WL,A,7.0
5,20.293999910354614,learn,60000.0,Mon Jan 12 2026 15:06:20 GMT-0600 (Central Standard Time),635964.2000000002,A,bookenter,I,enter,843,2,2922.7000000001863,633041.5,8072,WL,A,7.0
5,22.009000062942505,learn,60000.0,Mon Jan 12 2026 15:06:20 GMT-0600 (Central Standard Time),637679.2999999998,A,f,I,f,1704,2,1714.699999999255,635964.6000000006,8072,WL,A,8.0
5,22.108999967575073,learn,60000.0,Mon Jan 12 2026 15:06:20 GMT-0600 (Central Standard Time),637779.1000000006,A,fl,I,l,93,2,1814.5,635964.6000000006,8072,WL,A,8.0
5,22.493000030517578,learn,60000.0,Mon Jan 12 2026 15:06:20 GMT-0600 (Central Standard Time),638162.6000000006,A,flo,I,o,369,2,2198.0,635964.6000000006,8072,WL,A,8.0
5,22.89199995994568,learn,60000.0,Mon Jan 12 2026 15:06:20 GMT-0600 (Central Standard Time),638562.1000000006,A,flow,I,w,394,2,2597.5,635964.6000000006,8072,WL,A,8.0
5,23.108999967575073,learn,60000.0,Mon Jan 12 2026 15:06:20 GMT-0600 (Central Standard Time),638778.7999999998,A,flowe,I,e,203,2,2814.199999999255,635964.6000000006,8072,WL,A,8.0
5,23.29200005531311,learn,60000.0,Mon Jan 12 2026 15:06:20 GMT-0600 (Central Standard Time),638962.1000000006,A,flower,I,r,169,2,2997.5,635964.6000000006,8072,WL,A,8.0
5,23.658999919891357,learn,60000.0,Mon Jan 12 2026 15:06:20 GMT-0600 (Central Standard Time),639328.7999999998,A,flowerenter,I,enter,354,2,3364.199999999255,635964.6000000006,8072,WL,A,8.0
5,24.509000062942505,learn,60000.0,Mon Jan 12 2026 15:06:20 GMT-0600 (Central Standard Time),640178.4000000004,A,m,I,m,844,2,849.2999999998137,639329.1000000006,8072,WL,A,9.0
5,24.64199995994568,learn,60000.0,Mon Jan 12 2026 15:06:20 GMT-0600 (Central Standard Time),640311.9000000004,A,me,I,e,122,2,982.7999999998137,639329.1000000006,8072,WL,A,9.0
5,24.825000047683716,learn,60000.0,Mon Jan 12 2026 15:06:20 GMT-0600 (Central Standard Time),640494.9000000004,A,mea,I,a,165,2,1165.7999999998137,639329.1000000006,8072,WL,A,9.0
5,25.02500009536743,learn,60000.0,Mon Jan 12 2026 15:06:20 GMT-0600 (Central Standard Time),640694.7000000002,A,mead,I,d,190,2,1365.5999999996275,639329.1000000006,8072,WL,A,9.0
5,25.210000038146973,learn,60000.0,Mon Jan 12 2026 15:06:20 GMT-0600 (Central Standard Time),640879.4000000004,A,meado,I,o,166,2,1550.2999999998137,639329.1000000006,8072,WL,A,9.0
5,25.35800004005432,learn,60000.0,Mon Jan 12 2026 15:06:20 GMT-0600 (Central Standard Time),641028.1000000006,A,meadoe,I,e,133,2,1699.0,639329.1000000006,8072,WL,A,9.0
5,25.54200005531311,learn,60000.0,Mon Jan 12 2026 15:06:20 GMT-0600 (Central Standard Time),641211.7000000002,A,meadoew,I,w,169,2,1882.5999999996275,639329.1000000006,8072,WL,A,9.0
5,25.842000007629395,learn,60000.0,Mon Jan 12 2026 15:06:20 GMT-0600 (Central Standard Time),641511.4000000004,A,meadoewenter,I,enter,289,2,2182.2999999998137,639329.1000000006,8072,WL,A,9.0
5,26.740999937057495,learn,60000.0,Mon Jan 12 2026 15:06:20 GMT-0600 (Central Standard Time),642411.0,A,h,I,h,885,2,899.2000000001863,641511.7999999998,8072,WL,A,10.0
5,26.94099998474121,learn,60000.0,Mon Jan 12 2026 15:06:20 GMT-0600 (Central Standard Time),642611.0,A,ha,I,a,193,2,1099.2000000001863,641511.7999999998,8072,WL,A,10.0
5,27.141000032424927,learn,60000.0,Mon Jan 12 2026 15:06:20 GMT-0600 (Central Standard Time),642811.0,A,har,I,r,194,2,1299.2000000001863,641511.7999999998,8072,WL,A,10.0
5,27.374000072479248,learn,60000.0,Mon Jan 12 2026 15:06:20 GMT-0600 (Central Standard Time),643044.0,A,harp,I,p,225,2,1532.2000000001863,641511.7999999998,8072,WL,A,10.0
5,28.174000024795532,learn,60000.0,Mon Jan 12 2026 15:06:20 GMT-0600 (Central Standard Time),643843.9000000004,A,harpenter,I,enter,785,2,2332.100000000559,641511.7999999998,8072,WL,A,10.0
5,30.124000072479248,learn,60000.0,Mon Jan 12 2026 15:06:20 GMT-0600 (Central Standard Time),645793.2999999998,A,b,I,b,1945,2,1949.0999999996275,643844.2000000002,8072,WL,A,11.0
5,30.407000064849854,learn,60000.0,Mon Jan 12 2026 15:06:20 GMT-0600 (Central Standard Time),646076.7000000002,A,bu,I,u,267,2,2232.5,643844.2000000002,8072,WL,A,11.0
5,30.58999991416931,learn,60000.0,Mon Jan 12 2026 15:06:20 GMT-0600 (Central Standard Time),646260.1000000006,A,but,I,t,176,2,2415.9000000003725,643844.2000000002,8072,WL,A,11.0
5,30.707000017166138,learn,60000.0,Mon Jan 12 2026 15:06:20 GMT-0600 (Central Standard Time),646376.6000000006,A,butt,I,t,104,2,2532.4000000003725,643844.2000000002,8072,WL,A,11.0
5,30.822999954223633,learn,60000.0,Mon Jan 12 2026 15:06:20 GMT-0600 (Central Standard Time),646493.2000000002,A,butto,I,o,108,2,2649.0,643844.2000000002,8072,WL,A,11.0
5,30.973999977111816,learn,60000.0,Mon Jan 12 2026 15:06:20 GMT-0600 (Central Standard Time),646643.4000000004,A,button,I,n,135,2,2799.2000000001863,643844.2000000002,8072,WL,A,11.0
5,31.27300000190735,learn,60000.0,Mon Jan 12 2026 15:06:20 GMT-0600 (Central Standard Time),646943.1000000006,A,buttonenter,I,enter,281,2,3098.9000000003725,643844.2000000002,8072,WL,A,11.0
5,31.83999991416931,learn,60000.0,Mon Jan 12 2026 15:06:20 GMT-0600 (Central Standard Time),647509.6000000006,A,t,I,t,558,2,566.2000000001863,646943.4000000004,8072,WL,A,12.0
5,32.02300000190735,learn,60000.0,Mon Jan 12 2026 15:06:20 GMT-0600 (Central Standard Time),647692.9000000004,A,tr,I,r,175,2,749.5,646943.4000000004,8072,WL,A,12.0
5,32.15599989891052,learn,60000.0,Mon Jan 12 2026 15:06:20 GMT-0600 (Central Standard Time),647825.7000000002,A,tra,I,a,128,2,882.2999999998137,646943.4000000004,8072,WL,A,12.0
5,32.23900008201599,learn,60000.0,Mon Jan 12 2026 15:06:20 GMT-0600 (Central Standard Time),647909.2000000002,A,trai,I,i,74,2,965.7999999998137,646943.4000000004,8072,WL,A,12.0
5,32.37299990653992,learn,60000.0,Mon Jan 12 2026 15:06:20 GMT-0600 (Central Standard Time),648042.2999999998,A,train,I,n,126,2,1098.8999999994412,646943.4000000004,8072,WL,A,12.0
5,32.706000089645386,learn,60000.0,Mon Jan 12 2026 15:06:20 GMT-0600 (Central Standard Time),648375.9000000004,A,trainenter,I,enter,313,2,1432.5,646943.4000000004,8072,WL,A,12.0
5,33.27300000190735,learn,60000.0,Mon Jan 12 2026 15:06:20 GMT-0600 (Central Standard Time),648942.2999999998,A,r,I,r,548,2,566.0999999996275,648376.2000000002,8072,WL,A,13.0
5,33.40599989891052,learn,60000.0,Mon Jan 12 2026 15:06:20 GMT-0600 (Central Standard Time),649075.9000000004,A,ra,I,a,118,2,699.7000000001863,648376.2000000002,8072,WL,A,13.0
5,33.539000034332275,learn,60000.0,Mon Jan 12 2026 15:06:20 GMT-0600 (Central Standard Time),649208.9000000004,A,rat,I,t,112,2,832.7000000001863,648376.2000000002,8072,WL,A,13.0
5,33.65599989891052,learn,60000.0,Mon Jan 12 2026 15:06:20 GMT-0600 (Central Standard Time),649325.6000000006,A,ratt,I,t,108,2,949.4000000003725,648376.2000000002,8072,WL,A,13.0
5,33.82299995422363,learn,60000.0,Mon Jan 12 2026 15:06:20 GMT-0600 (Central Standard Time),649492.5,A,rattl,I,l,151,2,1116.2999999998137,648376.2000000002,8072,WL,A,13.0
5,33.98900008201599,learn,60000.0,Mon Jan 12 2026 15:06:20 GMT-0600 (Central Standard Time),649658.7999999998,A,rattle,I,e,152,2,1282.5999999996275,648376.2000000002,8072,WL,A,13.0
5,34.371999979019165,learn,60000.0,Mon Jan 12 2026 15:06:20 GMT-0600 (Central Standard Time),650042.2000000002,A,rattleenter,I,enter,370,2,1666.0,648376.2000000002,8072,WL,A,13.0
5,35.289000034332275,learn,60000.0,Mon Jan 12 2026 15:06:20 GMT-0600 (Central Standard Time),650958.4000000004,A,r,I,r,898,2,915.9000000003725,650042.5,8072,WL,A,14.0
5,35.437999963760376,learn,60000.0,Mon Jan 12 2026 15:06:20 GMT-0600 (Central Standard Time),651108.1000000006,A,ru,I,u,142,2,1065.6000000005588,650042.5,8072,WL,A,14.0
5,35.73900008201599,learn,60000.0,Mon Jan 12 2026 15:06:20 GMT-0600 (Central Standard Time),651408.2999999998,A,rug,I,g,289,2,1365.7999999998137,650042.5,8072,WL,A,14.0
5,36.437999963760376,learn,60000.0,Mon Jan 12 2026 15:06:20 GMT-0600 (Central Standard Time),652108.0,A,rugenter,I,enter,692,2,2065.5,650042.5,8072,WL,A,14.0
5,88.15700006484985,learn,60000.0,Mon Jan 12 2026 15:06:20 GMT-0600 (Central Standard Time),703827.2999999998,A,enter,I,enter,51714,2,51719.0,652108.2999999998,8072,WL,A,15.0
6,1.7330000400543213,distr,58266.99995994568,Mon Jan 12 2026 15:06:20 GMT-0600 (Central Standard Time),780001.2999999998,B,b,I,b,1713,2,1732.3999999994412,778268.9000000004,8072,WL,A,1.0
6,1.931999921798706,distr,58068.000078201294,Mon Jan 12 2026 15:06:20 GMT-0600 (Central Standard Time),780201.2000000002,B,bo,I,o,194,2,1932.2999999998137,778268.9000000004,8072,WL,A,1.0
6,2.2829999923706055,distr,57717.000007629395,Mon Jan 12 2026 15:06:20 GMT-0600 (Central Standard Time),780551.7000000002,B,bow,I,w,340,2,2282.7999999998137,778268.9000000004,8072,WL,A,1.0
6,2.432999849319458,distr,57567.00015068054,Mon Jan 12 2026 15:06:20 GMT-0600 (Central Standard Time),780701.2999999998,B,boww,I,w,141,2,2432.399999999441,778268.9000000004,8072,WL,A,1.0
6,2.931999921798706,distr,57068.000078201294,Mon Jan 12 2026 15:06:20 GMT-0600 (Central Standard Time),781201.0,B,bow,I,backspace,495,2,2932.0999999996275,778268.9000000004,8072,WL,A,1.0
6,3.2319998741149902,distr,56768.00012588501,Mon Jan 12 2026 15:06:20 GMT-0600 (Central Standard Time),781500.9000000004,B,bowl,I,l,284,2,3232.0,778268.9000000004,8072,WL,A,1.0
6,4.332000017166138,distr,55667.99998283386,Mon Jan 12 2026 15:06:20 GMT-0600 (Central Standard Time),782600.6000000006,B,bowlenter,I,enter,1080,2,4331.700000000186,778268.9000000004,8072,WL,A,1.0
6,8.896999835968018,distr,51103.00016403198,Mon Jan 12 2026 15:06:20 GMT-0600 (Central Standard Time),787165.7999999998,B,p,I,p,4556,2,4564.799999999814,782601.0,8072,WL,A,2.0
6,9.113999843597412,distr,50886.00015640259,Mon Jan 12 2026 15:06:20 GMT-0600 (Central Standard Time),787382.4000000004,B,pe,I,e,198,2,4781.4000000003725,782601.0,8072,WL,A,2.0
6,9.21399998664856,distr,50786.00001335144,Mon Jan 12 2026 15:06:20 GMT-0600 (Central Standard Time),787482.4000000004,B,pea,I,a,94,2,4881.4000000003725,782601.0,8072,WL,A,2.0
6,9.496999979019165,distr,50503.000020980835,Mon Jan 12 2026 15:06:20 GMT-0600 (Central Standard Time),787765.6000000006,B,peac,I,c,266,2,5164.600000000559,782601.0,8072,WL,A,2.0
6,9.664000034332275,distr,50335.999965667725,Mon Jan 12 2026 15:06:20 GMT-0600 (Central Standard Time),787932.2000000002,B,peach,I,h,159,2,5331.200000000186,782601.0,8072,WL,A,2.0
6,10.062999963760376,distr,49937.000036239624,Mon Jan 12 2026 15:06:20 GMT-0600 (Central Standard Time),788332.2000000002,B,peachenter,I,enter,392,2,5731.200000000186,782601.0,8072,WL,A,2.0
6,10.579999923706055,distr,49420.000076293945,Mon Jan 12 2026 15:06:20 GMT-0600 (Central Standard Time),788848.7999999998,B,p,I,p,496,2,516.2999999998137,788332.5,8072,WL,A,3.0
6,10.845999956130981,distr,49154.00004386902,Mon Jan 12 2026 15:06:20 GMT-0600 (Central Standard Time),789115.2000000002,B,pl,I,l,251,2,782.7000000001863,788332.5,8072,WL,A,3.0
6,10.929999828338623,distr,49070.00017166138,Mon Jan 12 2026 15:06:20 GMT-0600 (Central Standard Time),789198.5,B,pla,I,a,65,2,866.0,788332.5,8072,WL,A,3.0
6,11.145999908447266,distr,48854.000091552734,Mon Jan 12 2026 15:06:20 GMT-0600 (Central Standard Time),789415.2000000002,B,plan,I,n,206,2,1082.7000000001863,788332.5,8072,WL,A,3.0
6,11.52999997138977,distr,48470.00002861023,Mon Jan 12 2026 15:06:20 GMT-0600 (Central Standard Time),789798.4000000004,B,plane,I,e,373,2,1465.9000000003725,788332.5,8072,WL,A,3.0
6,11.845999956130981,distr,48154.00004386902,Mon Jan 12 2026 15:06:20 GMT-0600 (Central Standard Time),790114.7999999998,B,planeenter,I,enter,302,2,1782.2999999998137,788332.5,8072,WL,A,3.0
6,12.428999900817871,distr,47571.00009918213,Mon Jan 12 2026 15:06:20 GMT-0600 (Central Standard Time),790697.7999999998,B,c,I,c,576,2,582.5999999996275,790115.2000000002,8072,WL,A,4.0
6,12.69599986076355,distr,47304.00013923645,Mon Jan 12 2026 15:06:20 GMT-0600 (Central Standard Time),790964.7000000002,B,ch,I,h,259,2,849.5,790115.2000000002,8072,WL,A,4.0
6,12.928999900817871,distr,47071.00009918213,Mon Jan 12 2026 15:06:20 GMT-0600 (Central Standard Time),791198.0,B,cha,I,a,224,2,1082.7999999998137,790115.2000000002,8072,WL,A,4.0
6,13.128999948501587,distr,46871.00005149841,Mon Jan 12 2026 15:06:20 GMT-0600 (Central Standard Time),791397.9000000004,B,char,I,r,191,2,1282.7000000001863,790115.2000000002,8072,WL,A,4.0
6,13.395999908447266,distr,46604.000091552734,Mon Jan 12 2026 15:06:20 GMT-0600 (Central Standard Time),791664.5,B,chari,I,i,247,2,1549.2999999998137,790115.2000000002,8072,WL,A,4.0
6,13.694999933242798,distr,46305.0000667572,Mon Jan 12 2026 15:06:20 GMT-0600 (Central Standard Time),791964.2000000002,B,char,I,backspace,292,2,1849.0,790115.2000000002,8072,WL,A,4.0
6,13.944999933242798,distr,46055.0000667572,Mon Jan 12 2026 15:06:20 GMT-0600 (Central Standard Time),792214.1000000006,B,cha,I,backspace,240,2,2098.9000000003725,790115.2000000002,8072,WL,A,4.0
6,14.296000003814697,distr,45703.9999961853,Mon Jan 12 2026 15:06:20 GMT-0600 (Central Standard Time),792564.6000000006,B,chai,I,i,342,2,2449.4000000003725,790115.2000000002,8072,WL,A,4.0
6,14.478999853134155,distr,45521.000146865845,Mon Jan 12 2026 15:06:20 GMT-0600 (Central Standard Time),792747.6000000006,B,chair,I,r,168,2,2632.4000000003725,790115.2000000002,8072,WL,A,4.0
6,14.76199984550476,distr,45238.00015449524,Mon Jan 12 2026 15:06:20 GMT-0600 (Central Standard Time),793030.5,B,chairenter,I,enter,273,2,2915.2999999998137,790115.2000000002,8072,WL,A,4.0
6,15.144999980926514,distr,44855.000019073486,Mon Jan 12 2026 15:06:20 GMT-0600 (Central Standard Time),793413.9000000004,B,i,I,i,366,2,383.20000000018626,793030.7000000002,8072,WL,A,5.0
6,15.378000020980835,distr,44621.999979019165,Mon Jan 12 2026 15:06:20 GMT-0600 (Central Standard Time),793647.2000000002,B,in,I,n,223,2,616.5,793030.7000000002,8072,WL,A,5.0
6,15.76199984550476,distr,44238.00015449524,Mon Jan 12 2026 15:06:20 GMT-0600 (Central Standard Time),794030.4000000004,B,ins,I,s,373,2,999.7000000001863,793030.7000000002,8072,WL,A,5.0
6,15.911999940872192,distr,44088.00005912781,Mon Jan 12 2026 15:06:20 GMT-0600 (Central Standard Time),794180.2999999998,B,inse,I,e,142,2,1149.5999999996275,793030.7000000002,8072,WL,A,5.0
6,16.17799997329712,distr,43822.00002670288,Mon Jan 12 2026 15:06:20 GMT-0600 (Central Standard Time),794447.1000000006,B,insec,I,c,256,2,1416.4000000003725,793030.7000000002,8072,WL,A,5.0
6,16.444999933242798,distr,43555.0000667572,Mon Jan 12 2026 15:06:20 GMT-0600 (Central Standard Time),794713.5,B,insect,I,t,253,2,1682.7999999998137,793030.7000000002,8072,WL,A,5.0
6,16.744999885559082,distr,43255.00011444092,Mon Jan 12 2026 15:06:20 GMT-0600 (Central Standard Time),795013.5,B,insectenter,I,enter,283,2,1982.7999999998137,793030.7000000002,8072,WL,A,5.0
6,17.444999933242798,distr,42555.0000667572,Mon Jan 12 2026 15:06:20 GMT-0600 (Central Standard Time),795713.2999999998,B,s,I,s,679,2,699.5,795013.7999999998,8072,WL,A,6.0
6,17.628000020980835,distr,42371.999979019165,Mon Jan 12 2026 15:06:20 GMT-0600 (Central Standard Time),795896.2000000002,B,sh,I,h,163,2,882.4000000003725,795013.7999999998,8072,WL,A,6.0
6,17.810999870300293,distr,42189.00012969971,Mon Jan 12 2026 15:06:20 GMT-0600 (Central Standard Time),796079.7999999998,B,she,I,e,164,2,1066.0,795013.7999999998,8072,WL,A,6.0
6,17.944999933242798,distr,42055.0000667572,Mon Jan 12 2026 15:06:20 GMT-0600 (Central Standard Time),796213.2000000002,B,shee,I,e,125,2,1199.4000000003725,795013.7999999998,8072,WL,A,6.0
6,18.194000005722046,distr,41805.999994277954,Mon Jan 12 2026 15:06:20 GMT-0600 (Central Standard Time),796462.7999999998,B,sheep,I,p,239,2,1449.0,795013.7999999998,8072,WL,A,6.0
6,18.82699990272522,distr,41173.00009727478,Mon Jan 12 2026 15:06:20 GMT-0600 (Central Standard Time),797096.0,B,sheepenter,I,enter,613,2,2082.2000000001863,795013.7999999998,8072,WL,A,6.0
6,20.442999839782715,distr,39557.000160217285,Mon Jan 12 2026 15:06:20 GMT-0600 (Central Standard Time),798712.1000000006,B,d,I,d,1605,2,1615.7000000001863,797096.4000000004,8072,WL,A,7.0
6,20.64299988746643,distr,39357.00011253357,Mon Jan 12 2026 15:06:20 GMT-0600 (Central Standard Time),798912.2000000002,B,da,I,a,179,2,1815.7999999998137,797096.4000000004,8072,WL,A,7.0
6,21.026999950408936,distr,38973.000049591064,Mon Jan 12 2026 15:06:20 GMT-0600 (Central Standard Time),799295.2999999998,B,daw,I,w,365,2,2198.899999999441,797096.4000000004,8072,WL,A,7.0
6,21.30999994277954,distr,38690.00005722046,Mon Jan 12 2026 15:06:20 GMT-0600 (Central Standard Time),799578.6000000006,B,dawn,I,n,269,2,2482.2000000001863,797096.4000000004,8072,WL,A,7.0
6,22.092999935150146,distr,37907.00006484985,Mon Jan 12 2026 15:06:20 GMT-0600 (Central Standard Time),800361.5,B,dawnenter,I,enter,778,2,3265.0999999996275,797096.4000000004,8072,WL,A,7.0
6,27.625,distr,32375.0,Mon Jan 12 2026 15:06:20 GMT-0600 (Central Standard Time),805893.6000000006,B,p,I,p,5515,2,5531.9000000003725,800361.7000000002,8072,WL,A,8.0
6,27.97499990463257,distr,32025.00009536743,Mon Jan 12 2026 15:06:20 GMT-0600 (Central Standard Time),806243.2999999998,B,po,I,o,343,2,5881.5999999996275,800361.7000000002,8072,WL,A,8.0
6,28.12399983406067,distr,31876.00016593933,Mon Jan 12 2026 15:06:20 GMT-0600 (Central Standard Time),806393.0,B,poo,I,o,145,2,6031.299999999814,800361.7000000002,8072,WL,A,8.0
6,28.907999992370605,distr,31092.000007629395,Mon Jan 12 2026 15:06:20 GMT-0600 (Central Standard Time),807176.2999999998,B,pool,I,l,763,2,6814.5999999996275,800361.7000000002,8072,WL,A,8.0
6,29.506999969482422,distr,30493.000030517578,Mon Jan 12 2026 15:06:20 GMT-0600 (Central Standard Time),807776.0,B,poolenter,I,enter,580,2,7414.299999999814,800361.7000000002,8072,WL,A,8.0
6,57.88199996948242,distr,2118.000030517578,Mon Jan 12 2026 15:06:20 GMT-0600 (Central Standard Time),836150.7000000002,B,enter,I,enter,28365,2,28374.400000000373,807776.2999999998,8072,WL,A,9.0
6,60.014999866485596,distr,-14.999866485595703,Mon Jan 12 2026 15:06:20 GMT-0600 (Central Standard Time),838283.2999999998,B,None,I,None,2127,2,2132.199999999255,836151.1000000006,8072,WL,A,10.0
7,18.444000005722046,immed,41555.999994277954,Mon Jan 12 2026 15:06:20 GMT-0600 (Central Standard Time),856777.4000000004,A,b,I,b,18424,2,18444.10000000056,838333.2999999998,8072,WL,A,1.0
7,18.628000020980835,immed,41371.999979019165,Mon Jan 12 2026 15:06:20 GMT-0600 (Central Standard Time),856961.0,A,bo,I,o,162,2,18627.700000000186,838333.2999999998,8072,WL,A,1.0
7,18.761000156402588,immed,41238.99984359741,Mon Jan 12 2026 15:06:20 GMT-0600 (Central Standard Time),857094.1000000006,A,boo,I,o,124,2,18760.800000000745,838333.2999999998,8072,WL,A,1.0
7,19.194000005722046,immed,40805.999994277954,Mon Jan 12 2026 15:06:20 GMT-0600 (Central Standard Time),857527.1000000006,A,book,I,k,422,2,19193.800000000745,838333.2999999998,8072,WL,A,1.0
7,19.526999950408936,immed,40473.000049591064,Mon Jan 12 2026 15:06:20 GMT-0600 (Central Standard Time),857860.2999999998,A,bookenter,I,enter,317,2,19527.0,838333.2999999998,8072,WL,A,1.0
7,22.092999935150146,immed,37907.00006484985,Mon Jan 12 2026 15:06:20 GMT-0600 (Central Standard Time),860426.0,A,f,I,f,2560,2,2565.2999999998137,857860.7000000002,8072,WL,A,2.0
7,22.193000078201294,immed,37806.999921798706,Mon Jan 12 2026 15:06:20 GMT-0600 (Central Standard Time),860525.9000000004,A,fl,I,l,91,2,2665.2000000001863,857860.7000000002,8072,WL,A,2.0
7,22.39300012588501,immed,37606.99987411499,Mon Jan 12 2026 15:06:20 GMT-0600 (Central Standard Time),860726.2000000002,A,flo,I,o,190,2,2865.5,857860.7000000002,8072,WL,A,2.0
7,22.610000133514404,immed,37389.999866485596,Mon Jan 12 2026 15:06:20 GMT-0600 (Central Standard Time),860942.9000000004,A,flow,I,w,198,2,3082.2000000001863,857860.7000000002,8072,WL,A,2.0
7,22.743000030517578,immed,37256.99996948242,Mon Jan 12 2026 15:06:20 GMT-0600 (Central Standard Time),861076.0,A,flowe,I,e,125,2,3215.2999999998137,857860.7000000002,8072,WL,A,2.0
7,22.89300012588501,immed,37106.99987411499,Mon Jan 12 2026 15:06:20 GMT-0600 (Central Standard Time),861225.7000000002,A,flower,I,r,145,2,3365.0,857860.7000000002,8072,WL,A,2.0
7,23.12600016593933,immed,36873.99983406067,Mon Jan 12 2026 15:06:20 GMT-0600 (Central Standard Time),861459.2000000002,A,flowerenter,I,enter,226,2,3598.5,857860.7000000002,8072,WL,A,2.0
7,23.592999935150146,immed,36407.00006484985,Mon Jan 12 2026 15:06:20 GMT-0600 (Central Standard Time),861925.7000000002,A,m,I,m,457,2,466.20000000018626,861459.5,8072,WL,A,3.0
7,23.743000030517578,immed,36256.99996948242,Mon Jan 12 2026 15:06:20 GMT-0600 (Central Standard Time),862075.7000000002,A,me,I,e,142,2,616.2000000001863,861459.5,8072,WL,A,3.0
7,23.842999935150146,immed,36157.00006484985,Mon Jan 12 2026 15:06:20 GMT-0600 (Central Standard Time),862175.7999999998,A,mea,I,a,89,2,716.2999999998137,861459.5,8072,WL,A,3.0
7,24.026000022888184,immed,35973.99997711182,Mon Jan 12 2026 15:06:20 GMT-0600 (Central Standard Time),862359.0,A,mead,I,d,173,2,899.5,861459.5,8072,WL,A,3.0
7,24.176000118255615,immed,35823.999881744385,Mon Jan 12 2026 15:06:20 GMT-0600 (Central Standard Time),862508.7999999998,A,meado,I,o,141,2,1049.2999999998137,861459.5,8072,WL,A,3.0
7,24.4760000705719,immed,35523.9999294281,Mon Jan 12 2026 15:06:20 GMT-0600 (Central Standard Time),862809.0,A,meadow,I,w,287,2,1349.5,861459.5,8072,WL,A,3.0
7,25.075999975204468,immed,34924.00002479553,Mon Jan 12 2026 15:06:20 GMT-0600 (Central Standard Time),863408.9000000004,A,meadowenter,I,enter,587,2,1949.4000000003725,861459.5,8072,WL,A,3.0
7,25.64199995994568,immed,34358.00004005432,Mon Jan 12 2026 15:06:20 GMT-0600 (Central Standard Time),863975.2000000002,A,t,I,t,548,2,565.9000000003725,863409.2999999998,8072,WL,A,4.0
7,25.825999975204468,immed,34174.00002479553,Mon Jan 12 2026 15:06:20 GMT-0600 (Central Standard Time),864158.5,A,tr,I,r,173,2,749.2000000001863,863409.2999999998,8072,WL,A,4.0
7,25.909000158309937,immed,34090.99984169006,Mon Jan 12 2026 15:06:20 GMT-0600 (Central Standard Time),864241.6000000006,A,tra,I,a,78,2,832.3000000007451,863409.2999999998,8072,WL,A,4.0
7,26.05900001525879,immed,33940.99998474121,Mon Jan 12 2026 15:06:20 GMT-0600 (Central Standard Time),864391.7999999998,A,trai,I,i,131,2,982.5,863409.2999999998,8072,WL,A,4.0
7,26.20900011062622,immed,33790.99988937378,Mon Jan 12 2026 15:06:20 GMT-0600 (Central Standard Time),864541.7000000002,A,train,I,n,133,2,1132.4000000003725,863409.2999999998,8072,WL,A,4.0
7,26.492000102996826,immed,33507.999897003174,Mon Jan 12 2026 15:06:20 GMT-0600 (Central Standard Time),864825.0,A,trainenter,I,enter,271,2,1415.7000000001863,863409.2999999998,8072,WL,A,4.0
7,28.490999937057495,immed,31509.000062942505,Mon Jan 12 2026 15:06:20 GMT-0600 (Central Standard Time),866824.4000000004,A,l,I,l,1987,2,1999.1000000005588,864825.2999999998,8072,WL,A,5.0
7,28.69099998474121,immed,31309.00001525879,Mon Jan 12 2026 15:06:20 GMT-0600 (Central Standard Time),867024.2000000002,A,lo,I,o,188,2,2198.9000000003725,864825.2999999998,8072,WL,A,5.0
7,29.02500009536743,immed,30974.99990463257,Mon Jan 12 2026 15:06:20 GMT-0600 (Central Standard Time),867357.7000000002,A,log,I,g,316,2,2532.4000000003725,864825.2999999998,8072,WL,A,5.0
7,29.308000087738037,immed,30691.999912261963,Mon Jan 12 2026 15:06:20 GMT-0600 (Central Standard Time),867640.6000000006,A,logenter,I,enter,271,2,2815.300000000745,864825.2999999998,8072,WL,A,5.0
7,31.0239999294281,immed,28976.0000705719,Mon Jan 12 2026 15:06:20 GMT-0600 (Central Standard Time),869356.7999999998,A,c,I,c,1708,2,1715.7999999998137,867641.0,8072,WL,A,6.0
7,31.256999969482422,immed,28743.000030517578,Mon Jan 12 2026 15:06:20 GMT-0600 (Central Standard Time),869590.0,A,ch,I,h,215,2,1949.0,867641.0,8072,WL,A,6.0
7,31.407000064849854,immed,28592.999935150146,Mon Jan 12 2026 15:06:20 GMT-0600 (Central Standard Time),869739.7000000002,A,chi,I,i,143,2,2098.7000000001863,867641.0,8072,WL,A,6.0
7,31.789999961853027,immed,28210.000038146973,Mon Jan 12 2026 15:06:20 GMT-0600 (Central Standard Time),870123.4000000004,A,chim,I,m,369,2,2482.4000000003725,867641.0,8072,WL,A,6.0
7,32.59000015258789,immed,27409.99984741211,Mon Jan 12 2026 15:06:20 GMT-0600 (Central Standard Time),870922.7000000002,A,chimn,I,n,793,2,3281.7000000001863,867641.0,8072,WL,A,6.0
7,32.82299995422363,immed,27177.000045776367,Mon Jan 12 2026 15:06:20 GMT-0600 (Central Standard Time),871156.2000000002,A,chimne,I,e,218,2,3515.2000000001863,867641.0,8072,WL,A,6.0
7,33.057000160217285,immed,26942.999839782715,Mon Jan 12 2026 15:06:20 GMT-0600 (Central Standard Time),871389.5,A,chimney,I,y,216,2,3748.5,867641.0,8072,WL,A,6.0
7,33.52300000190735,immed,26476.99999809265,Mon Jan 12 2026 15:06:20 GMT-0600 (Central Standard Time),871856.1000000006,A,chimneyenter,I,enter,446,2,4215.100000000559,867641.0,8072,WL,A,6.0
7,34.02300000190735,immed,25976.99999809265,Mon Jan 12 2026 15:06:20 GMT-0600 (Central Standard Time),872356.0,A,k,I,k,484,2,499.59999999962747,871856.4000000004,8072,WL,A,7.0
7,34.206000089645386,immed,25793.999910354614,Mon Jan 12 2026 15:06:20 GMT-0600 (Central Standard Time),872539.2000000002,A,ke,I,e,177,2,682.7999999998137,871856.4000000004,8072,WL,A,7.0
7,34.43900012969971,immed,25560.999870300293,Mon Jan 12 2026 15:06:20 GMT-0600 (Central Standard Time),872772.2999999998,A,key,I,y,225,2,915.8999999994412,871856.4000000004,8072,WL,A,7.0
7,34.77300000190735,immed,25226.99999809265,Mon Jan 12 2026 15:06:20 GMT-0600 (Central Standard Time),873105.5,A,keyenter,I,enter,320,2,1249.0999999996275,871856.4000000004,8072,WL,A,7.0
7,35.123000144958496,immed,24876.999855041504,Mon Jan 12 2026 15:06:20 GMT-0600 (Central Standard Time),873455.4000000004,A,d,I,d,340,2,349.6000000005588,873105.7999999998,8072,WL,A,8.0
7,35.621999979019165,immed,24378.000020980835,Mon Jan 12 2026 15:06:20 GMT-0600 (Central Standard Time),873955.2000000002,A,,I,backspace,493,2,849.4000000003725,873105.7999999998,8072,WL,A,8.0
7,35.82200002670288,immed,24177.99997329712,Mon Jan 12 2026 15:06:20 GMT-0600 (Central Standard Time),874155.2000000002,A,s,I,s,186,2,1049.4000000003725,873105.7999999998,8072,WL,A,8.0
7,36.1560001373291,immed,23843.9998626709,Mon Jan 12 2026 15:06:20 GMT-0600 (Central Standard Time),874488.6000000006,A,sa,I,a,321,2,1382.800000000745,873105.7999999998,8072,WL,A,8.0
7,36.58899998664856,immed,23411.00001335144,Mon Jan 12 2026 15:06:20 GMT-0600 (Central Standard Time),874921.5,A,sal,I,l,428,2,1815.7000000001863,873105.7999999998,8072,WL,A,8.0
7,36.7720000743866,immed,23227.999925613403,Mon Jan 12 2026 15:06:20 GMT-0600 (Central Standard Time),875104.9000000004,A,sald,I,d,171,2,1999.1000000005588,873105.7999999998,8072,WL,A,8.0
7,37.205000162124634,immed,22794.999837875366,Mon Jan 12 2026 15:06:20 GMT-0600 (Central Standard Time),875538.2999999998,A,sal,I,backspace,420,2,2432.5,873105.7999999998,8072,WL,A,8.0
7,37.32200002670288,immed,22677.99997329712,Mon Jan 12 2026 15:06:20 GMT-0600 (Central Standard Time),875655.2999999998,A,salt,I,t,106,2,2549.5,873105.7999999998,8072,WL,A,8.0
7,37.789000034332275,immed,22210.999965667725,Mon Jan 12 2026 15:06:20 GMT-0600 (Central Standard Time),876121.6000000006,A,saltenter,I,enter,453,2,3015.800000000745,873105.7999999998,8072,WL,A,8.0
7,38.33800005912781,immed,21661.999940872192,Mon Jan 12 2026 15:06:20 GMT-0600 (Central Standard Time),876671.1000000006,A,g,I,g,531,2,549.2000000001863,876121.9000000004,8072,WL,A,9.0
7,38.47200012207031,immed,21527.999877929688,Mon Jan 12 2026 15:06:20 GMT-0600 (Central Standard Time),876804.5,A,go,I,o,125,2,682.5999999996275,876121.9000000004,8072,WL,A,9.0
7,38.73800015449524,immed,21261.99984550476,Mon Jan 12 2026 15:06:20 GMT-0600 (Central Standard Time),877071.4000000004,A,gol,I,l,248,2,949.5,876121.9000000004,8072,WL,A,9.0
7,39.00500011444092,immed,20994.999885559082,Mon Jan 12 2026 15:06:20 GMT-0600 (Central Standard Time),877337.5,A,gold,I,d,261,2,1215.5999999996275,876121.9000000004,8072,WL,A,9.0
7,39.6710000038147,immed,20328.999996185303,Mon Jan 12 2026 15:06:20 GMT-0600 (Central Standard Time),878004.0,A,goldenter,I,enter,658,2,1882.0999999996275,876121.9000000004,8072,WL,A,9.0
7,40.78800010681152,immed,19211.999893188477,Mon Jan 12 2026 15:06:20 GMT-0600 (Central Standard Time),879120.6000000006,A,r,I,r,1097,2,1116.2000000001863,878004.4000000004,8072,WL,A,10.0
7,40.90400004386902,immed,19095.99995613098,Mon Jan 12 2026 15:06:20 GMT-0600 (Central Standard Time),879236.7999999998,A,ra,I,a,100,2,1232.3999999994412,878004.4000000004,8072,WL,A,10.0
7,41.03800010681152,immed,18961.999893188477,Mon Jan 12 2026 15:06:20 GMT-0600 (Central Standard Time),879370.5,A,rat,I,t,120,2,1366.0999999996275,878004.4000000004,8072,WL,A,10.0
