block_c,block_dur,condition,countdown,datetime,endtime,list,multichar_response,project,response,response_time,session_number,start_end,starttime,subject_id,task,task_vers,trial
,,,,Mon Nov 03 2025 16:18:55 GMT-0600 (Central Standard Time),,,,I,space,336,1,,,8072,WL,C,
prac,,0,,Mon Nov 03 2025 16:18:55 GMT-0600 (Central Standard Time),,NA,b,I,b,8473,1,,,8072,WL,C,1.0
prac,,0,,Mon Nov 03 2025 16:18:55 GMT-0600 (Central Standard Time),,NA,bo,I,o,279,1,,,8072,WL,C,1.0
prac,,0,,Mon Nov 03 2025 16:18:55 GMT-0600 (Central Standard Time),,NA,boo,I,o,70,1,,,8072,WL,C,1.0
prac,,0,,Mon Nov 03 2025 16:18:55 GMT-0600 (Central Standard Time),,NA,booo,I,o,175,1,,,8072,WL,C,1.0
prac,,0,,Mon Nov 03 2025 16:18:55 GMT-0600 (Central Standard Time),,NA,booos,I,s,165,1,,,8072,WL,C,1.0
prac,,0,,Mon Nov 03 2025 16:18:55 GMT-0600 (Central Standard Time),,NA,booost,I,t,270,1,,,8072,WL,C,1.0
prac,,0,,Mon Nov 03 2025 16:18:55 GMT-0600 (Central Standard Time),,NA,booos,I,backspace,1008,1,,,8072,WL,C,1.0
prac,,0,,Mon Nov 03 2025 16:18:55 GMT-0600 (Central Standard Time),,NA,booo,I,backspace,146,1,,,8072,WL,C,1.0
prac,,0,,Mon Nov 03 2025 16:18:55 GMT-0600 (Central Standard Time),,NA,boo,I,backspace,143,1,,,8072,WL,C,1.0
prac,,0,,Mon Nov 03 2025 16:18:55 GMT-0600 (Central Standard Time),,NA,boos,I,s,919,1,,,8072,WL,C,1.0
prac,,0,,Mon Nov 03 2025 16:18:55 GMT-0600 (Central Standard Time),,NA,boost,I,t,261,1,,,8072,WL,C,1.0
prac,,0,,Mon Nov 03 2025 16:18:55 GMT-0600 (Central Standard Time),,NA,boostenter,I,enter,375,1,,,8072,WL,C,1.0
1,0.8500001430511475,learn,59149.99985694885,Mon Nov 03 2025 16:18:55 GMT-0600 (Central Standard Time),129612.79999998212,A,q,I,q,843,1,849.0,128763.79999998212,8072,WL,C,1.0
1,1.1160001754760742,learn,58883.999824523926,Mon Nov 03 2025 16:18:55 GMT-0600 (Central Standard Time),129879.40000000596,A,qu,I,u,246,1,1115.6000000238419,128763.79999998212,8072,WL,C,1.0
1,1.2820000648498535,learn,58717.99993515015,Mon Nov 03 2025 16:18:55 GMT-0600 (Central Standard Time),130044.90000000596,A,que,I,e,156,1,1281.1000000238419,128763.79999998212,8072,WL,C,1.0
1,1.4490001201629639,learn,58550.999879837036,Mon Nov 03 2025 16:18:55 GMT-0600 (Central Standard Time),130212.29999998212,A,quee,I,e,158,1,1448.5,128763.79999998212,8072,WL,C,1.0
1,1.6820001602172852,learn,58317.999839782715,Mon Nov 03 2025 16:18:55 GMT-0600 (Central Standard Time),130445.5,A,queen,I,n,223,1,1681.7000000178814,128763.79999998212,8072,WL,C,1.0
1,2.5329999923706055,learn,57467.000007629395,Mon Nov 03 2025 16:18:55 GMT-0600 (Central Standard Time),131296.09999999404,A,queenenter,I,enter,839,1,2532.300000011921,128763.79999998212,8072,WL,C,1.0
1,4.203999996185303,learn,55796.0000038147,Mon Nov 03 2025 16:18:55 GMT-0600 (Central Standard Time),132967.0,A,b,I,b,1662,1,1670.5999999940395,131296.40000000596,8072,WL,C,2.0
1,4.3480000495910645,learn,55651.999950408936,Mon Nov 03 2025 16:18:55 GMT-0600 (Central Standard Time),133111.0,A,bo,I,o,134,1,1814.5999999940395,131296.40000000596,8072,WL,C,2.0
1,4.565999984741211,learn,55434.00001525879,Mon Nov 03 2025 16:18:55 GMT-0600 (Central Standard Time),133329.19999998808,A,boy,I,y,205,1,2032.7999999821186,131296.40000000596,8072,WL,C,2.0
1,5.133000135421753,learn,54866.99986457825,Mon Nov 03 2025 16:18:55 GMT-0600 (Central Standard Time),133895.90000000596,A,boyenter,I,enter,546,1,2599.5,131296.40000000596,8072,WL,C,2.0
1,5.7820000648498535,learn,54217.99993515015,Mon Nov 03 2025 16:18:55 GMT-0600 (Central Standard Time),134545.5,A,c,I,c,635,1,649.3000000119209,133896.19999998808,8072,WL,C,3.0
1,5.932000160217285,learn,54067.999839782715,Mon Nov 03 2025 16:18:55 GMT-0600 (Central Standard Time),134695.0,A,co,I,o,140,1,798.8000000119209,133896.19999998808,8072,WL,C,3.0
1,6.081000089645386,learn,53918.999910354614,Mon Nov 03 2025 16:18:55 GMT-0600 (Central Standard Time),134844.09999999404,A,cor,I,r,133,1,947.9000000059605,133896.19999998808,8072,WL,C,3.0
1,6.281000137329102,learn,53718.9998626709,Mon Nov 03 2025 16:18:55 GMT-0600 (Central Standard Time),135044.79999998212,A,corn,I,n,182,1,1148.5999999940395,133896.19999998808,8072,WL,C,3.0
1,6.580000162124634,learn,53419.999837875366,Mon Nov 03 2025 16:18:55 GMT-0600 (Central Standard Time),135343.5,A,cornenter,I,enter,289,1,1447.300000011921,133896.19999998808,8072,WL,C,3.0
1,7.148000001907349,learn,52851.99999809265,Mon Nov 03 2025 16:18:55 GMT-0600 (Central Standard Time),135911.19999998808,A,w,I,w,557,1,567.2999999821186,135343.90000000596,8072,WL,C,4.0
1,7.482000112533569,learn,52517.99988746643,Mon Nov 03 2025 16:18:55 GMT-0600 (Central Standard Time),136245.40000000596,A,wh,I,h,329,1,901.5,135343.90000000596,8072,WL,C,4.0
1,7.715000152587891,learn,52284.99984741211,Mon Nov 03 2025 16:18:55 GMT-0600 (Central Standard Time),136478.0,A,whe,I,e,222,1,1134.0999999940395,135343.90000000596,8072,WL,C,4.0
1,7.880000114440918,learn,52119.99988555908,Mon Nov 03 2025 16:18:55 GMT-0600 (Central Standard Time),136643.5,A,whea,I,a,150,1,1299.5999999940395,135343.90000000596,8072,WL,C,4.0
1,8.132000207901001,learn,51867.999792099,Mon Nov 03 2025 16:18:55 GMT-0600 (Central Standard Time),136895.5,A,wheat,I,t,231,1,1551.5999999940395,135343.90000000596,8072,WL,C,4.0
1,8.430000066757202,learn,51569.9999332428,Mon Nov 03 2025 16:18:55 GMT-0600 (Central Standard Time),137192.79999998212,A,wheatenter,I,enter,285,1,1848.8999999761581,135343.90000000596,8072,WL,C,4.0
1,8.815999984741211,learn,51184.00001525879,Mon Nov 03 2025 16:18:55 GMT-0600 (Central Standard Time),137578.79999998212,A,t,I,t,381,1,385.69999998807907,137193.09999999404,8072,WL,C,5.0
1,8.963000059127808,learn,51036.99994087219,Mon Nov 03 2025 16:18:55 GMT-0600 (Central Standard Time),137726.40000000596,A,to,I,o,136,1,533.3000000119209,137193.09999999404,8072,WL,C,5.0
1,9.129000186920166,learn,50870.999813079834,Mon Nov 03 2025 16:18:55 GMT-0600 (Central Standard Time),137892.19999998808,A,tow,I,w,155,1,699.0999999940395,137193.09999999404,8072,WL,C,5.0
1,9.297000169754028,learn,50702.99983024597,Mon Nov 03 2025 16:18:55 GMT-0600 (Central Standard Time),138060.19999998808,A,towe,I,e,153,1,867.0999999940395,137193.09999999404,8072,WL,C,5.0
1,9.448000192642212,learn,50551.99980735779,Mon Nov 03 2025 16:18:55 GMT-0600 (Central Standard Time),138211.0,A,tower,I,r,133,1,1017.9000000059605,137193.09999999404,8072,WL,C,5.0
1,9.84600019454956,learn,50153.99980545044,Mon Nov 03 2025 16:18:55 GMT-0600 (Central Standard Time),138609.09999999404,A,towerenter,I,enter,385,1,1416.0,137193.09999999404,8072,WL,C,5.0
1,10.296000003814697,learn,49703.9999961853,Mon Nov 03 2025 16:18:55 GMT-0600 (Central Standard Time),139059.19999998808,A,f,I,f,443,1,449.7999999821186,138609.40000000596,8072,WL,C,6.0
1,10.446000099182129,learn,49553.99990081787,Mon Nov 03 2025 16:18:55 GMT-0600 (Central Standard Time),139209.19999998808,A,fl,I,l,137,1,599.7999999821186,138609.40000000596,8072,WL,C,6.0
1,10.59600019454956,learn,49403.99980545044,Mon Nov 03 2025 16:18:55 GMT-0600 (Central Standard Time),139359.40000000596,A,fla,I,a,137,1,750.0,138609.40000000596,8072,WL,C,6.0
1,10.880000114440918,learn,49119.99988555908,Mon Nov 03 2025 16:18:55 GMT-0600 (Central Standard Time),139642.69999998808,A,flag,I,g,267,1,1033.2999999821186,138609.40000000596,8072,WL,C,6.0
1,11.281000137329102,learn,48718.9998626709,Mon Nov 03 2025 16:18:55 GMT-0600 (Central Standard Time),140043.69999998808,A,flagenter,I,enter,385,1,1434.2999999821186,138609.40000000596,8072,WL,C,6.0
1,11.979000091552734,learn,48020.999908447266,Mon Nov 03 2025 16:18:55 GMT-0600 (Central Standard Time),140742.09999999404,A,d,I,d,688,1,698.0999999940395,140044.0,8072,WL,C,7.0
1,12.162000179290771,learn,47837.99982070923,Mon Nov 03 2025 16:18:55 GMT-0600 (Central Standard Time),140925.5,A,do,I,o,174,1,881.5,140044.0,8072,WL,C,7.0
1,12.246000051498413,learn,47753.99994850159,Mon Nov 03 2025 16:18:55 GMT-0600 (Central Standard Time),141009.59999999404,A,doc,I,c,63,1,965.5999999940395,140044.0,8072,WL,C,7.0
1,12.462000131607056,learn,47537.999868392944,Mon Nov 03 2025 16:18:55 GMT-0600 (Central Standard Time),141225.09999999404,A,doct,I,t,203,1,1181.0999999940395,140044.0,8072,WL,C,7.0
1,12.645000219345093,learn,47354.99978065491,Mon Nov 03 2025 16:18:55 GMT-0600 (Central Standard Time),141408.59999999404,A,docto,I,o,173,1,1364.5999999940395,140044.0,8072,WL,C,7.0
1,13.978000164031982,learn,46021.99983596802,Mon Nov 03 2025 16:18:55 GMT-0600 (Central Standard Time),142741.5,A,doct,I,backspace,1324,1,2697.5,140044.0,8072,WL,C,7.0
1,14.297000169754028,learn,45702.99983024597,Mon Nov 03 2025 16:18:55 GMT-0600 (Central Standard Time),143059.79999998212,A,docte,I,e,310,1,3015.7999999821186,140044.0,8072,WL,C,7.0
1,14.412000179290771,learn,45587.99982070923,Mon Nov 03 2025 16:18:55 GMT-0600 (Central Standard Time),143174.79999998212,A,docter,I,r,104,1,3130.7999999821186,140044.0,8072,WL,C,7.0
1,14.76200008392334,learn,45237.99991607666,Mon Nov 03 2025 16:18:55 GMT-0600 (Central Standard Time),143525.0,A,docterenter,I,enter,332,1,3481.0,140044.0,8072,WL,C,7.0
1,23.907999992370605,learn,36092.000007629395,Mon Nov 03 2025 16:18:55 GMT-0600 (Central Standard Time),152671.59999999404,A,s,I,s,9135,1,9146.300000011921,143525.29999998212,8072,WL,C,8.0
1,24.05900001525879,learn,35940.99998474121,Mon Nov 03 2025 16:18:55 GMT-0600 (Central Standard Time),152821.69999998808,A,sh,I,h,143,1,9296.40000000596,143525.29999998212,8072,WL,C,8.0
1,24.19099998474121,learn,35809.00001525879,Mon Nov 03 2025 16:18:55 GMT-0600 (Central Standard Time),152954.40000000596,A,sho,I,o,118,1,9429.100000023842,143525.29999998212,8072,WL,C,8.0
1,24.409000158309937,learn,35590.99984169006,Mon Nov 03 2025 16:18:55 GMT-0600 (Central Standard Time),153172.5,A,shor,I,r,212,1,9647.200000017881,143525.29999998212,8072,WL,C,8.0
1,24.5770001411438,learn,35422.9998588562,Mon Nov 03 2025 16:18:55 GMT-0600 (Central Standard Time),153340.0,A,shore,I,e,151,1,9814.700000017881,143525.29999998212,8072,WL,C,8.0
1,24.895000219345093,learn,35104.99978065491,Mon Nov 03 2025 16:18:55 GMT-0600 (Central Standard Time),153657.79999998212,A,shoreenter,I,enter,304,1,10132.5,143525.29999998212,8072,WL,C,8.0
1,31.54100012779236,learn,28458.99987220764,Mon Nov 03 2025 16:18:55 GMT-0600 (Central Standard Time),160304.29999998212,A,l,I,l,6635,1,6646.199999988079,153658.09999999404,8072,WL,C,9.0
1,31.706000089645386,learn,28293.999910354614,Mon Nov 03 2025 16:18:55 GMT-0600 (Central Standard Time),160469.19999998808,A,le,I,e,157,1,6811.0999999940395,153658.09999999404,8072,WL,C,9.0
1,31.939000129699707,learn,28060.999870300293,Mon Nov 03 2025 16:18:55 GMT-0600 (Central Standard Time),160702.5,A,let,I,t,222,1,7044.4000000059605,153658.09999999404,8072,WL,C,9.0
1,32.09000015258789,learn,27909.99984741211,Mon Nov 03 2025 16:18:55 GMT-0600 (Central Standard Time),160853.59999999404,A,lett,I,t,143,1,7195.5,153658.09999999404,8072,WL,C,9.0
1,32.23900008201599,learn,27760.99991798401,Mon Nov 03 2025 16:18:55 GMT-0600 (Central Standard Time),161002.5,A,lette,I,e,144,1,7344.4000000059605,153658.09999999404,8072,WL,C,9.0
1,32.373000144958496,learn,27626.999855041504,Mon Nov 03 2025 16:18:55 GMT-0600 (Central Standard Time),161136.69999998808,A,letter,I,r,113,1,7478.5999999940395,153658.09999999404,8072,WL,C,9.0
1,32.60800004005432,learn,27391.99995994568,Mon Nov 03 2025 16:18:55 GMT-0600 (Central Standard Time),161371.19999998808,A,letterenter,I,enter,228,1,7713.0999999940395,153658.09999999404,8072,WL,C,9.0
1,40.71900010108948,learn,19280.999898910522,Mon Nov 03 2025 16:18:55 GMT-0600 (Central Standard Time),169483.09999999404,A,n,I,n,8097,1,8111.5999999940395,161371.5,8072,WL,C,10.0
1,40.88499999046326,learn,19115.000009536743,Mon Nov 03 2025 16:18:55 GMT-0600 (Central Standard Time),169649.40000000596,A,na,I,a,162,1,8277.90000000596,161371.5,8072,WL,C,10.0
1,41.05200004577637,learn,18947.999954223633,Mon Nov 03 2025 16:18:55 GMT-0600 (Central Standard Time),169816.29999998212,A,nai,I,i,157,1,8444.799999982119,161371.5,8072,WL,C,10.0
1,41.30200004577637,learn,18697.999954223633,Mon Nov 03 2025 16:18:55 GMT-0600 (Central Standard Time),170066.40000000596,A,nail,I,l,234,1,8694.90000000596,161371.5,8072,WL,C,10.0
1,42.23800015449524,learn,17761.99984550476,Mon Nov 03 2025 16:18:55 GMT-0600 (Central Standard Time),171001.69999998808,A,nailenter,I,enter,930,1,9630.199999988079,161371.5,8072,WL,C,10.0
1,56.747000217437744,learn,3252.999782562256,Mon Nov 03 2025 16:18:55 GMT-0600 (Central Standard Time),185511.19999998808,A,b,I,b,14499,1,14509.199999988079,171002.0,8072,WL,C,11.0
1,56.914000034332275,learn,3085.9999656677246,Mon Nov 03 2025 16:18:55 GMT-0600 (Central Standard Time),185677.5,A,bo,I,o,146,1,14675.5,171002.0,8072,WL,C,11.0
1,57.16300010681152,learn,2836.9998931884766,Mon Nov 03 2025 16:18:55 GMT-0600 (Central Standard Time),185927.40000000596,A,bod,I,d,228,1,14925.40000000596,171002.0,8072,WL,C,11.0
1,57.3970000743866,learn,2602.9999256134033,Mon Nov 03 2025 16:18:55 GMT-0600 (Central Standard Time),186161.09999999404,A,body,I,y,219,1,15159.09999999404,171002.0,8072,WL,C,11.0
1,57.632000207901,learn,2367.999792098999,Mon Nov 03 2025 16:18:55 GMT-0600 (Central Standard Time),186395.59999999404,A,bodyenter,I,enter,217,1,15393.59999999404,171002.0,8072,WL,C,11.0
1,60.01300001144409,learn,-13.000011444091797,Mon Nov 03 2025 16:18:55 GMT-0600 (Central Standard Time),188776.90000000596,A,None,I,None,2377,1,2381.100000023842,186395.79999998212,8072,WL,C,12.0
2,0.3190000057220459,learn,59680.999994277954,Mon Nov 03 2025 16:18:55 GMT-0600 (Central Standard Time),261738.40000000596,A,b,I,b,303,1,318.10000002384186,261420.29999998212,8072,WL,C,1.0
2,0.4499998092651367,learn,59550.00019073486,Mon Nov 03 2025 16:18:55 GMT-0600 (Central Standard Time),261870.09999999404,A,bo,I,o,113,1,449.80000001192093,261420.29999998212,8072,WL,C,1.0
2,0.7349998950958252,learn,59265.000104904175,Mon Nov 03 2025 16:18:55 GMT-0600 (Central Standard Time),262154.40000000596,A,bod,I,d,279,1,734.1000000238419,261420.29999998212,8072,WL,C,1.0
2,1.066999912261963,learn,58933.00008773804,Mon Nov 03 2025 16:18:55 GMT-0600 (Central Standard Time),262486.40000000596,A,body,I,y,322,1,1066.1000000238419,261420.29999998212,8072,WL,C,1.0
2,1.3999998569488525,learn,58600.00014305115,Mon Nov 03 2025 16:18:55 GMT-0600 (Central Standard Time),262820.1999999881,A,bodyenter,I,enter,320,1,1399.9000000059605,261420.29999998212,8072,WL,C,1.0
2,2.300999879837036,learn,57699.000120162964,Mon Nov 03 2025 16:18:55 GMT-0600 (Central Standard Time),263720.7999999821,A,c,I,c,880,1,900.3999999761581,262820.40000000596,8072,WL,C,2.0
2,2.549999952316284,learn,57450.000047683716,Mon Nov 03 2025 16:18:55 GMT-0600 (Central Standard Time),263970.1999999881,A,ch,I,h,234,1,1149.7999999821186,262820.40000000596,8072,WL,C,2.0
2,2.7019999027252197,learn,57298.00009727478,Mon Nov 03 2025 16:18:55 GMT-0600 (Central Standard Time),264121.5,A,cho,I,o,130,1,1301.0999999940395,262820.40000000596,8072,WL,C,2.0
2,3.048999786376953,learn,56951.00021362305,Mon Nov 03 2025 16:18:55 GMT-0600 (Central Standard Time),264468.7999999821,A,chor,I,r,329,1,1648.3999999761581,262820.40000000596,8072,WL,C,2.0
2,3.2170000076293945,learn,56782.999992370605,Mon Nov 03 2025 16:18:55 GMT-0600 (Central Standard Time),264636.6999999881,A,chore,I,e,147,1,1816.2999999821186,262820.40000000596,8072,WL,C,2.0
2,3.549999952316284,learn,56450.000047683716,Mon Nov 03 2025 16:18:55 GMT-0600 (Central Standard Time),264969.59999999404,A,choreenter,I,enter,321,1,2149.199999988079,262820.40000000596,8072,WL,C,2.0
2,4.382999897003174,learn,55617.000102996826,Mon Nov 03 2025 16:18:55 GMT-0600 (Central Standard Time),265802.2999999821,A,n,I,n,819,1,832.3999999761581,264969.90000000596,8072,WL,C,3.0
2,4.58299994468689,learn,55417.00005531311,Mon Nov 03 2025 16:18:55 GMT-0600 (Central Standard Time),266002.6999999881,A,na,I,a,179,1,1032.7999999821186,264969.90000000596,8072,WL,C,3.0
2,4.732999801635742,learn,55267.00019836426,Mon Nov 03 2025 16:18:55 GMT-0600 (Central Standard Time),266152.7999999821,A,nai,I,i,136,1,1182.8999999761581,264969.90000000596,8072,WL,C,3.0
2,4.916999816894531,learn,55083.00018310547,Mon Nov 03 2025 16:18:55 GMT-0600 (Central Standard Time),266337.09999999404,A,nail,I,l,165,1,1367.199999988079,264969.90000000596,8072,WL,C,3.0
2,5.232999801635742,learn,54767.00019836426,Mon Nov 03 2025 16:18:55 GMT-0600 (Central Standard Time),266652.6999999881,A,nailenter,I,enter,299,1,1682.7999999821186,264969.90000000596,8072,WL,C,3.0
2,5.748999834060669,learn,54251.00016593933,Mon Nov 03 2025 16:18:55 GMT-0600 (Central Standard Time),267169.0,A,l,I,l,503,1,516.0,266653.0,8072,WL,C,4.0
2,5.914999961853027,learn,54085.00003814697,Mon Nov 03 2025 16:18:55 GMT-0600 (Central Standard Time),267334.59999999404,A,le,I,e,157,1,681.5999999940395,266653.0,8072,WL,C,4.0
2,6.148999929428101,learn,53851.0000705719,Mon Nov 03 2025 16:18:55 GMT-0600 (Central Standard Time),267569.0,A,let,I,t,223,1,916.0,266653.0,8072,WL,C,4.0
2,6.316999912261963,learn,53683.00008773804,Mon Nov 03 2025 16:18:55 GMT-0600 (Central Standard Time),267736.2999999821,A,lett,I,t,148,1,1083.2999999821186,266653.0,8072,WL,C,4.0
2,6.498999834060669,learn,53501.00016593933,Mon Nov 03 2025 16:18:55 GMT-0600 (Central Standard Time),267918.2999999821,A,lette,I,e,172,1,1265.2999999821186,266653.0,8072,WL,C,4.0
2,6.665999889373779,learn,53334.00011062622,Mon Nov 03 2025 16:18:55 GMT-0600 (Central Standard Time),268085.7999999821,A,letter,I,r,150,1,1432.7999999821186,266653.0,8072,WL,C,4.0
2,7.181999921798706,learn,52818.000078201294,Mon Nov 03 2025 16:18:55 GMT-0600 (Central Standard Time),268601.5,A,letterenter,I,enter,511,1,1948.5,266653.0,8072,WL,C,4.0
2,7.9649999141693115,learn,52035.00008583069,Mon Nov 03 2025 16:18:55 GMT-0600 (Central Standard Time),269384.2999999821,A,s,I,s,771,1,782.5999999940395,268601.6999999881,8072,WL,C,5.0
2,8.080999851226807,learn,51919.00014877319,Mon Nov 03 2025 16:18:55 GMT-0600 (Central Standard Time),269501.0,A,sh,I,h,100,1,899.3000000119209,268601.6999999881,8072,WL,C,5.0
2,8.215999841690063,learn,51784.00015830994,Mon Nov 03 2025 16:18:55 GMT-0600 (Central Standard Time),269635.5,A,sho,I,o,130,1,1033.800000011921,268601.6999999881,8072,WL,C,5.0
2,8.398000001907349,learn,51601.99999809265,Mon Nov 03 2025 16:18:55 GMT-0600 (Central Standard Time),269818.09999999404,A,shor,I,r,167,1,1216.4000000059605,268601.6999999881,8072,WL,C,5.0
2,8.530999898910522,learn,51469.00010108948,Mon Nov 03 2025 16:18:55 GMT-0600 (Central Standard Time),269951.09999999404,A,shore,I,e,121,1,1349.4000000059605,268601.6999999881,8072,WL,C,5.0
2,8.898000001907349,learn,51101.99999809265,Mon Nov 03 2025 16:18:55 GMT-0600 (Central Standard Time),270317.90000000596,A,shoreenter,I,enter,349,1,1716.2000000178814,268601.6999999881,8072,WL,C,5.0
2,9.748999834060669,learn,50251.00016593933,Mon Nov 03 2025 16:18:55 GMT-0600 (Central Standard Time),271168.40000000596,A,q,I,q,830,1,850.3000000119209,270318.09999999404,8072,WL,C,6.0
2,9.997999906539917,learn,50002.00009346008,Mon Nov 03 2025 16:18:55 GMT-0600 (Central Standard Time),271417.59999999404,A,qu,I,u,226,1,1099.5,270318.09999999404,8072,WL,C,6.0
2,10.113999843597412,learn,49886.00015640259,Mon Nov 03 2025 16:18:55 GMT-0600 (Central Standard Time),271533.2999999821,A,que,I,e,107,1,1215.199999988079,270318.09999999404,8072,WL,C,6.0
2,10.280999898910522,learn,49719.00010108948,Mon Nov 03 2025 16:18:55 GMT-0600 (Central Standard Time),271700.90000000596,A,quee,I,e,151,1,1382.800000011921,270318.09999999404,8072,WL,C,6.0
2,10.431999921798706,learn,49568.000078201294,Mon Nov 03 2025 16:18:55 GMT-0600 (Central Standard Time),271851.5,A,queen,I,n,141,1,1533.4000000059605,270318.09999999404,8072,WL,C,6.0
2,10.763999938964844,learn,49236.000061035156,Mon Nov 03 2025 16:18:55 GMT-0600 (Central Standard Time),272183.7999999821,A,queenenter,I,enter,320,1,1865.699999988079,270318.09999999404,8072,WL,C,6.0
2,11.363999843597412,learn,48636.00015640259,Mon Nov 03 2025 16:18:55 GMT-0600 (Central Standard Time),272784.0,A,b,I,b,588,1,599.9000000059605,272184.09999999404,8072,WL,C,7.0
2,11.565999984741211,learn,48434.00001525879,Mon Nov 03 2025 16:18:55 GMT-0600 (Central Standard Time),272985.40000000596,A,bo,I,o,179,1,801.3000000119209,272184.09999999404,8072,WL,C,7.0
2,11.846999883651733,learn,48153.00011634827,Mon Nov 03 2025 16:18:55 GMT-0600 (Central Standard Time),273266.59999999404,A,boy,I,y,273,1,1082.5,272184.09999999404,8072,WL,C,7.0
2,12.413999795913696,learn,47586.000204086304,Mon Nov 03 2025 16:18:55 GMT-0600 (Central Standard Time),273833.5,A,boyh,I,h,546,1,1649.4000000059605,272184.09999999404,8072,WL,C,7.0
2,12.54699993133545,learn,47453.00006866455,Mon Nov 03 2025 16:18:55 GMT-0600 (Central Standard Time),273966.90000000596,A,boyho,I,o,120,1,1782.800000011921,272184.09999999404,8072,WL,C,7.0
2,12.817999839782715,learn,47182.000160217285,Mon Nov 03 2025 16:18:55 GMT-0600 (Central Standard Time),274238.0,A,boyhom,I,m,265,1,2053.9000000059605,272184.09999999404,8072,WL,C,7.0
2,13.097999811172485,learn,46902.000188827515,Mon Nov 03 2025 16:18:55 GMT-0600 (Central Standard Time),274517.6999999881,A,boyhome,I,e,263,1,2333.5999999940395,272184.09999999404,8072,WL,C,7.0
2,13.29699993133545,learn,46703.00006866455,Mon Nov 03 2025 16:18:55 GMT-0600 (Central Standard Time),274716.59999999404,A,boyhomeenter,I,enter,182,1,2532.5,272184.09999999404,8072,WL,C,7.0
2,13.679999828338623,learn,46320.00017166138,Mon Nov 03 2025 16:18:55 GMT-0600 (Central Standard Time),275099.59999999404,A,c,I,c,378,1,382.80000001192093,274716.7999999821,8072,WL,C,8.0
2,13.79699993133545,learn,46203.00006866455,Mon Nov 03 2025 16:18:55 GMT-0600 (Central Standard Time),275216.5,A,co,I,o,95,1,499.7000000178814,274716.7999999821,8072,WL,C,8.0
2,13.978999853134155,learn,46021.000146865845,Mon Nov 03 2025 16:18:55 GMT-0600 (Central Standard Time),275399.09999999404,A,cor,I,r,162,1,682.3000000119209,274716.7999999821,8072,WL,C,8.0
2,14.19599986076355,learn,45804.00013923645,Mon Nov 03 2025 16:18:55 GMT-0600 (Central Standard Time),275616.0,A,corn,I,n,206,1,899.2000000178814,274716.7999999821,8072,WL,C,8.0
2,14.563999891281128,learn,45436.00010871887,Mon Nov 03 2025 16:18:55 GMT-0600 (Central Standard Time),275983.40000000596,A,cornenter,I,enter,347,1,1266.6000000238419,274716.7999999821,8072,WL,C,8.0
2,14.845999956130981,learn,45154.00004386902,Mon Nov 03 2025 16:18:55 GMT-0600 (Central Standard Time),276266.1999999881,A,w,I,w,269,1,282.5,275983.6999999881,8072,WL,C,9.0
2,15.046000003814697,learn,44953.9999961853,Mon Nov 03 2025 16:18:55 GMT-0600 (Central Standard Time),276466.1999999881,A,wh,I,h,186,1,482.5,275983.6999999881,8072,WL,C,9.0
2,15.162999868392944,learn,44837.000131607056,Mon Nov 03 2025 16:18:55 GMT-0600 (Central Standard Time),276582.40000000596,A,whe,I,e,97,1,598.7000000178814,275983.6999999881,8072,WL,C,9.0
2,15.327999830245972,learn,44672.00016975403,Mon Nov 03 2025 16:18:55 GMT-0600 (Central Standard Time),276747.90000000596,A,whea,I,a,155,1,764.2000000178814,275983.6999999881,8072,WL,C,9.0
2,15.562999963760376,learn,44437.000036239624,Mon Nov 03 2025 16:18:55 GMT-0600 (Central Standard Time),276982.90000000596,A,wheat,I,t,225,1,999.2000000178814,275983.6999999881,8072,WL,C,9.0
2,15.828999996185303,learn,44171.0000038147,Mon Nov 03 2025 16:18:55 GMT-0600 (Central Standard Time),277248.7999999821,A,wheatenter,I,enter,252,1,1265.0999999940395,275983.6999999881,8072,WL,C,9.0
2,16.413999795913696,learn,43586.000204086304,Mon Nov 03 2025 16:18:55 GMT-0600 (Central Standard Time),277833.7999999821,A,h,I,h,580,1,584.7999999821186,277249.0,8072,WL,C,10.0
2,17.263000011444092,learn,42736.99998855591,Mon Nov 03 2025 16:18:55 GMT-0600 (Central Standard Time),278683.0,A,,I,backspace,834,1,1434.0,277249.0,8072,WL,C,10.0
2,17.627999782562256,learn,42372.000217437744,Mon Nov 03 2025 16:18:55 GMT-0600 (Central Standard Time),279048.09999999404,A,d,I,d,344,1,1799.0999999940395,277249.0,8072,WL,C,10.0
2,17.82799983024597,learn,42172.00016975403,Mon Nov 03 2025 16:18:55 GMT-0600 (Central Standard Time),279247.6999999881,A,dh,I,h,180,1,1998.699999988079,277249.0,8072,WL,C,10.0
2,17.960999965667725,learn,42039.000034332275,Mon Nov 03 2025 16:18:55 GMT-0600 (Central Standard Time),279380.5,A,dho,I,o,117,1,2131.5,277249.0,8072,WL,C,10.0
2,18.444999933242798,learn,41555.0000667572,Mon Nov 03 2025 16:18:55 GMT-0600 (Central Standard Time),279864.6999999881,A,dh,I,backspace,474,1,2615.699999988079,277249.0,8072,WL,C,10.0
2,18.62999987602234,learn,41370.00012397766,Mon Nov 03 2025 16:18:55 GMT-0600 (Central Standard Time),280049.90000000596,A,d,I,backspace,170,1,2800.9000000059605,277249.0,8072,WL,C,10.0
2,19.17899990081787,learn,40821.00009918213,Mon Nov 03 2025 16:18:55 GMT-0600 (Central Standard Time),280599.09999999404,A,do,I,o,530,1,3350.0999999940395,277249.0,8072,WL,C,10.0
2,19.360999822616577,learn,40639.00017738342,Mon Nov 03 2025 16:18:55 GMT-0600 (Central Standard Time),280780.90000000596,A,doc,I,c,172,1,3531.9000000059605,277249.0,8072,WL,C,10.0
2,19.597999811172485,learn,40402.000188827515,Mon Nov 03 2025 16:18:55 GMT-0600 (Central Standard Time),281017.40000000596,A,doct,I,t,222,1,3768.4000000059605,277249.0,8072,WL,C,10.0
2,19.777999877929688,learn,40222.00012207031,Mon Nov 03 2025 16:18:55 GMT-0600 (Central Standard Time),281198.0,A,docto,I,o,164,1,3949.0,277249.0,8072,WL,C,10.0
2,19.97699999809265,learn,40023.00000190735,Mon Nov 03 2025 16:18:55 GMT-0600 (Central Standard Time),281397.0,A,doctor,I,r,190,1,4148.0,277249.0,8072,WL,C,10.0
2,20.694999933242798,learn,39305.0000667572,Mon Nov 03 2025 16:18:55 GMT-0600 (Central Standard Time),282114.6999999881,A,doctorenter,I,enter,712,1,4865.699999988079,277249.0,8072,WL,C,10.0
2,30.007999897003174,learn,29992.000102996826,Mon Nov 03 2025 16:18:55 GMT-0600 (Central Standard Time),291428.6999999881,A,s,I,s,9298,1,9313.699999988079,282115.0,8072,WL,C,11.0
2,30.256999969482422,learn,29743.000030517578,Mon Nov 03 2025 16:18:55 GMT-0600 (Central Standard Time),291677.1999999881,A,su,I,u,231,1,9562.199999988079,282115.0,8072,WL,C,11.0
2,30.640999794006348,learn,29359.000205993652,Mon Nov 03 2025 16:18:55 GMT-0600 (Central Standard Time),292061.59999999404,A,sug,I,g,366,1,9946.59999999404,282115.0,8072,WL,C,11.0
2,30.857999801635742,learn,29142.000198364258,Mon Nov 03 2025 16:18:55 GMT-0600 (Central Standard Time),292278.09999999404,A,suge,I,e,201,1,10163.09999999404,282115.0,8072,WL,C,11.0
2,30.95799994468689,learn,29042.00005531311,Mon Nov 03 2025 16:18:55 GMT-0600 (Central Standard Time),292378.1999999881,A,suger,I,r,77,1,10263.199999988079,282115.0,8072,WL,C,11.0
2,31.60599994659424,learn,28394.00005340576,Mon Nov 03 2025 16:18:55 GMT-0600 (Central Standard Time),293026.40000000596,A,sugerenter,I,enter,642,1,10911.40000000596,282115.0,8072,WL,C,11.0
2,37.08799982070923,learn,22912.00017929077,Mon Nov 03 2025 16:18:55 GMT-0600 (Central Standard Time),298508.6999999881,A,t,I,t,5474,1,5482.0,293026.6999999881,8072,WL,C,12.0
2,37.25499987602234,learn,22745.00012397766,Mon Nov 03 2025 16:18:55 GMT-0600 (Central Standard Time),298675.5,A,to,I,o,161,1,5648.800000011921,293026.6999999881,8072,WL,C,12.0
2,37.67199993133545,learn,22328.00006866455,Mon Nov 03 2025 16:18:55 GMT-0600 (Central Standard Time),299092.6999999881,A,tow,I,w,411,1,6066.0,293026.6999999881,8072,WL,C,12.0
2,37.888999938964844,learn,22111.000061035156,Mon Nov 03 2025 16:18:55 GMT-0600 (Central Standard Time),299309.0,A,towe,I,e,210,1,6282.300000011921,293026.6999999881,8072,WL,C,12.0
2,38.08799982070923,learn,21912.00017929077,Mon Nov 03 2025 16:18:55 GMT-0600 (Central Standard Time),299508.90000000596,A,tower,I,r,190,1,6482.200000017881,293026.6999999881,8072,WL,C,12.0
2,38.33699989318848,learn,21663.000106811523,Mon Nov 03 2025 16:18:55 GMT-0600 (Central Standard Time),299757.7999999821,A,towerenter,I,enter,239,1,6731.0999999940395,293026.6999999881,8072,WL,C,12.0
2,38.97099995613098,learn,21029.00004386902,Mon Nov 03 2025 16:18:55 GMT-0600 (Central Standard Time),300391.5,A,f,I,f,615,1,633.4000000059605,299758.09999999404,8072,WL,C,13.0
2,39.15399980545044,learn,20846.00019454956,Mon Nov 03 2025 16:18:55 GMT-0600 (Central Standard Time),300574.1999999881,A,fl,I,l,172,1,816.0999999940395,299758.09999999404,8072,WL,C,13.0
2,39.287999868392944,learn,20712.000131607056,Mon Nov 03 2025 16:18:55 GMT-0600 (Central Standard Time),300708.40000000596,A,fla,I,a,118,1,950.3000000119209,299758.09999999404,8072,WL,C,13.0
2,39.520999908447266,learn,20479.000091552734,Mon Nov 03 2025 16:18:55 GMT-0600 (Central Standard Time),300941.6999999881,A,flag,I,g,214,1,1183.5999999940395,299758.09999999404,8072,WL,C,13.0
2,39.704999923706055,learn,20295.000076293945,Mon Nov 03 2025 16:18:55 GMT-0600 (Central Standard Time),301125.5,A,flagenter,I,enter,165,1,1367.4000000059605,299758.09999999404,8072,WL,C,13.0
2,47.93599987030029,learn,12064.000129699707,Mon Nov 03 2025 16:18:55 GMT-0600 (Central Standard Time),309356.2999999821,A,c,I,c,8223,1,8230.5,301125.7999999821,8072,WL,C,14.0
2,48.10199999809265,learn,11898.000001907349,Mon Nov 03 2025 16:18:55 GMT-0600 (Central Standard Time),309522.0,A,co,I,o,158,1,8396.200000017881,301125.7999999821,8072,WL,C,14.0
2,48.269999980926514,learn,11730.000019073486,Mon Nov 03 2025 16:18:55 GMT-0600 (Central Standard Time),309690.40000000596,A,cor,I,r,161,1,8564.600000023842,301125.7999999821,8072,WL,C,14.0
2,48.38499999046326,learn,11615.000009536743,Mon Nov 03 2025 16:18:55 GMT-0600 (Central Standard Time),309805.90000000596,A,corn,I,n,101,1,8680.100000023842,301125.7999999821,8072,WL,C,14.0
2,48.550999879837036,learn,11449.000120162964,Mon Nov 03 2025 16:18:55 GMT-0600 (Central Standard Time),309971.6999999881,A,cornenter,I,enter,150,1,8845.90000000596,301125.7999999821,8072,WL,C,14.0
2,60.013999938964844,learn,-13.99993896484375,Mon Nov 03 2025 16:18:55 GMT-0600 (Central Standard Time),321434.40000000596,A,None,I,None,11457,1,11462.5,309971.90000000596,8072,WL,C,15.0
3,0.8500001430511475,learn,59149.99985694885,Mon Nov 03 2025 16:18:55 GMT-0600 (Central Standard Time),393629.59999999404,A,c,I,c,842,1,850.3000000119209,392779.2999999821,8072,WL,C,1.0
3,1.0830001831054688,learn,58916.99981689453,Mon Nov 03 2025 16:18:55 GMT-0600 (Central Standard Time),393862.1999999881,A,ca,I,a,223,1,1082.9000000059605,392779.2999999821,8072,WL,C,1.0
3,1.3480000495910645,learn,58651.999950408936,Mon Nov 03 2025 16:18:55 GMT-0600 (Central Standard Time),394127.59999999404,A,cat,I,t,244,1,1348.300000011921,392779.2999999821,8072,WL,C,1.0
3,1.4660000801086426,learn,58533.99991989136,Mon Nov 03 2025 16:18:55 GMT-0600 (Central Standard Time),394245.2999999821,A,catt,I,t,110,1,1466.0,392779.2999999821,8072,WL,C,1.0
3,1.633000135421753,learn,58366.99986457825,Mon Nov 03 2025 16:18:55 GMT-0600 (Central Standard Time),394412.1999999881,A,cattl,I,l,161,1,1632.9000000059605,392779.2999999821,8072,WL,C,1.0
3,1.7660000324249268,learn,58233.99996757507,Mon Nov 03 2025 16:18:55 GMT-0600 (Central Standard Time),394545.6999999881,A,cattle,I,e,118,1,1766.4000000059605,392779.2999999821,8072,WL,C,1.0
3,2.117000102996826,learn,57882.999897003174,Mon Nov 03 2025 16:18:55 GMT-0600 (Central Standard Time),394895.90000000596,A,cattleenter,I,enter,331,1,2116.600000023842,392779.2999999821,8072,WL,C,1.0
3,2.432000160217285,learn,57567.999839782715,Mon Nov 03 2025 16:18:55 GMT-0600 (Central Standard Time),395211.1999999881,A,b,I,b,302,1,315.09999999403954,394896.09999999404,8072,WL,C,2.0
3,2.5830001831054688,learn,57416.99981689453,Mon Nov 03 2025 16:18:55 GMT-0600 (Central Standard Time),395362.09999999404,A,bo,I,o,139,1,466.0,394896.09999999404,8072,WL,C,2.0
3,2.7660000324249268,learn,57233.99996757507,Mon Nov 03 2025 16:18:55 GMT-0600 (Central Standard Time),395544.90000000596,A,bod,I,d,162,1,648.8000000119209,394896.09999999404,8072,WL,C,2.0
3,3.0320000648498535,learn,56967.99993515015,Mon Nov 03 2025 16:18:55 GMT-0600 (Central Standard Time),395811.09999999404,A,body,I,y,252,1,915.0,394896.09999999404,8072,WL,C,2.0
3,3.4810001850128174,learn,56518.99981498718,Mon Nov 03 2025 16:18:55 GMT-0600 (Central Standard Time),396259.7999999821,A,bodyenter,I,enter,440,1,1363.699999988079,394896.09999999404,8072,WL,C,2.0
3,3.949000120162964,learn,56050.999879837036,Mon Nov 03 2025 16:18:55 GMT-0600 (Central Standard Time),396728.09999999404,A,s,I,s,460,1,468.19999998807907,396259.90000000596,8072,WL,C,3.0
3,4.132000207901001,learn,55867.999792099,Mon Nov 03 2025 16:18:55 GMT-0600 (Central Standard Time),396911.40000000596,A,sh,I,h,163,1,651.5,396259.90000000596,8072,WL,C,3.0
3,4.264000177383423,learn,55735.99982261658,Mon Nov 03 2025 16:18:55 GMT-0600 (Central Standard Time),397043.59999999404,A,sho,I,o,117,1,783.6999999880791,396259.90000000596,8072,WL,C,3.0
3,4.615000009536743,learn,55384.99999046326,Mon Nov 03 2025 16:18:55 GMT-0600 (Central Standard Time),397393.90000000596,A,shor,I,r,339,1,1134.0,396259.90000000596,8072,WL,C,3.0
3,4.748000144958496,learn,55251.999855041504,Mon Nov 03 2025 16:18:55 GMT-0600 (Central Standard Time),397527.1999999881,A,shore,I,e,121,1,1267.2999999821186,396259.90000000596,8072,WL,C,3.0
3,5.134000062942505,learn,54865.999937057495,Mon Nov 03 2025 16:18:55 GMT-0600 (Central Standard Time),397913.0,A,shoreenter,I,enter,365,1,1653.0999999940395,396259.90000000596,8072,WL,C,3.0
3,5.865000009536743,learn,54134.99999046326,Mon Nov 03 2025 16:18:55 GMT-0600 (Central Standard Time),398644.0,A,b,I,b,715,1,730.8000000119209,397913.1999999881,8072,WL,C,4.0
3,5.999000072479248,learn,54000.99992752075,Mon Nov 03 2025 16:18:55 GMT-0600 (Central Standard Time),398778.09999999404,A,bo,I,o,121,1,864.9000000059605,397913.1999999881,8072,WL,C,4.0
3,6.246999979019165,learn,53753.000020980835,Mon Nov 03 2025 16:18:55 GMT-0600 (Central Standard Time),399026.40000000596,A,boy,I,y,243,1,1113.2000000178814,397913.1999999881,8072,WL,C,4.0
3,6.848999977111816,learn,53151.00002288818,Mon Nov 03 2025 16:18:55 GMT-0600 (Central Standard Time),399627.90000000596,A,boyq,I,q,587,1,1714.7000000178814,397913.1999999881,8072,WL,C,4.0
3,7.0340001583099365,learn,52965.99984169006,Mon Nov 03 2025 16:18:55 GMT-0600 (Central Standard Time),399813.40000000596,A,boyqu,I,u,178,1,1900.2000000178814,397913.1999999881,8072,WL,C,4.0
3,7.130000114440918,learn,52869.99988555908,Mon Nov 03 2025 16:18:55 GMT-0600 (Central Standard Time),399909.40000000596,A,boyque,I,e,85,1,1996.2000000178814,397913.1999999881,8072,WL,C,4.0
3,7.296000003814697,learn,52703.9999961853,Mon Nov 03 2025 16:18:55 GMT-0600 (Central Standard Time),400075.6999999881,A,boyquee,I,e,158,1,2162.5,397913.1999999881,8072,WL,C,4.0
3,7.515000104904175,learn,52484.999895095825,Mon Nov 03 2025 16:18:55 GMT-0600 (Central Standard Time),400294.5,A,boyqueen,I,n,211,1,2381.300000011921,397913.1999999881,8072,WL,C,4.0
3,8.398000001907349,learn,51601.99999809265,Mon Nov 03 2025 16:18:55 GMT-0600 (Central Standard Time),401177.59999999404,A,boyqueenw,I,w,869,1,3264.4000000059605,397913.1999999881,8072,WL,C,4.0
3,8.730000019073486,learn,51269.999980926514,Mon Nov 03 2025 16:18:55 GMT-0600 (Central Standard Time),401508.90000000596,A,boyqueenwh,I,h,323,1,3595.7000000178814,397913.1999999881,8072,WL,C,4.0
3,8.847000122070312,learn,51152.99987792969,Mon Nov 03 2025 16:18:55 GMT-0600 (Central Standard Time),401626.5,A,boyqueenwhe,I,e,114,1,3713.300000011921,397913.1999999881,8072,WL,C,4.0
3,9.014000177383423,learn,50985.99982261658,Mon Nov 03 2025 16:18:55 GMT-0600 (Central Standard Time),401793.0,A,boyqueenwhea,I,a,153,1,3879.800000011921,397913.1999999881,8072,WL,C,4.0
3,9.230000019073486,learn,50769.999980926514,Mon Nov 03 2025 16:18:55 GMT-0600 (Central Standard Time),402009.40000000596,A,boyqueenwheat,I,t,194,1,4096.200000017881,397913.1999999881,8072,WL,C,4.0
3,9.546000003814697,learn,50453.9999961853,Mon Nov 03 2025 16:18:55 GMT-0600 (Central Standard Time),402324.90000000596,A,boyqueenwheatenter,I,enter,298,1,4411.700000017881,397913.1999999881,8072,WL,C,4.0
3,10.04800009727478,learn,49951.99990272522,Mon Nov 03 2025 16:18:55 GMT-0600 (Central Standard Time),402827.0,A,c,I,c,488,1,501.7000000178814,402325.2999999821,8072,WL,C,5.0
3,10.144999980926514,learn,49855.000019073486,Mon Nov 03 2025 16:18:55 GMT-0600 (Central Standard Time),402924.2999999821,A,co,I,o,90,1,599.0,402325.2999999821,8072,WL,C,5.0
3,10.330000162124634,learn,49669.999837875366,Mon Nov 03 2025 16:18:55 GMT-0600 (Central Standard Time),403109.09999999404,A,cor,I,r,176,1,783.8000000119209,402325.2999999821,8072,WL,C,5.0
3,10.480000019073486,learn,49519.999980926514,Mon Nov 03 2025 16:18:55 GMT-0600 (Central Standard Time),403259.09999999404,A,corn,I,n,146,1,933.8000000119209,402325.2999999821,8072,WL,C,5.0
3,10.712000131607056,learn,49287.999868392944,Mon Nov 03 2025 16:18:55 GMT-0600 (Central Standard Time),403491.6999999881,A,cornenter,I,enter,227,1,1166.4000000059605,402325.2999999821,8072,WL,C,5.0
3,11.246000051498413,learn,48753.99994850159,Mon Nov 03 2025 16:18:55 GMT-0600 (Central Standard Time),404025.2999999821,A,d,I,d,530,1,533.3999999761581,403491.90000000596,8072,WL,C,6.0
3,11.396000146865845,learn,48603.999853134155,Mon Nov 03 2025 16:18:55 GMT-0600 (Central Standard Time),404175.5,A,do,I,o,138,1,683.5999999940395,403491.90000000596,8072,WL,C,6.0
3,11.53000020980835,learn,48469.99979019165,Mon Nov 03 2025 16:18:55 GMT-0600 (Central Standard Time),404308.7999999821,A,doc,I,c,124,1,816.8999999761581,403491.90000000596,8072,WL,C,6.0
3,11.828999996185303,learn,48171.0000038147,Mon Nov 03 2025 16:18:55 GMT-0600 (Central Standard Time),404608.0,A,doct,I,t,281,1,1116.0999999940395,403491.90000000596,8072,WL,C,6.0
3,11.979000091552734,learn,48020.999908447266,Mon Nov 03 2025 16:18:55 GMT-0600 (Central Standard Time),404757.90000000596,A,docto,I,o,141,1,1266.0,403491.90000000596,8072,WL,C,6.0
3,12.17799997329712,learn,47822.00002670288,Mon Nov 03 2025 16:18:55 GMT-0600 (Central Standard Time),404957.1999999881,A,doctor,I,r,190,1,1465.2999999821186,403491.90000000596,8072,WL,C,6.0
3,12.496000051498413,learn,47503.99994850159,Mon Nov 03 2025 16:18:55 GMT-0600 (Central Standard Time),405275.2999999821,A,doctorenter,I,enter,295,1,1783.3999999761581,403491.90000000596,8072,WL,C,6.0
3,12.894999980926514,learn,47105.000019073486,Mon Nov 03 2025 16:18:55 GMT-0600 (Central Standard Time),405674.0,A,s,I,s,393,1,398.40000000596046,405275.59999999404,8072,WL,C,7.0
3,13.196000099182129,learn,46803.99990081787,Mon Nov 03 2025 16:18:55 GMT-0600 (Central Standard Time),405974.7999999821,A,su,I,u,289,1,699.1999999880791,405275.59999999404,8072,WL,C,7.0
3,13.644999980926514,learn,46355.000019073486,Mon Nov 03 2025 16:18:55 GMT-0600 (Central Standard Time),406424.0,A,sug,I,g,436,1,1148.4000000059605,405275.59999999404,8072,WL,C,7.0
3,14.278000116348267,learn,45721.99988365173,Mon Nov 03 2025 16:18:55 GMT-0600 (Central Standard Time),407057.5,A,suge,I,e,622,1,1781.9000000059605,405275.59999999404,8072,WL,C,7.0
3,14.495000123977661,learn,45504.99987602234,Mon Nov 03 2025 16:18:55 GMT-0600 (Central Standard Time),407275.1999999881,A,suget,I,t,204,1,1999.5999999940395,405275.59999999404,8072,WL,C,7.0
3,14.811000108718872,learn,45188.99989128113,Mon Nov 03 2025 16:18:55 GMT-0600 (Central Standard Time),407590.5,A,sugetenter,I,enter,297,1,2314.9000000059605,405275.59999999404,8072,WL,C,7.0
3,17.259999990463257,learn,42740.00000953674,Mon Nov 03 2025 16:18:55 GMT-0600 (Central Standard Time),410040.2999999821,A,n,I,n,2439,1,2449.5999999940395,407590.6999999881,8072,WL,C,8.0
3,17.39400005340576,learn,42605.99994659424,Mon Nov 03 2025 16:18:55 GMT-0600 (Central Standard Time),410174.0,A,na,I,a,125,1,2583.300000011921,407590.6999999881,8072,WL,C,8.0
3,17.59500002861023,learn,42404.99997138977,Mon Nov 03 2025 16:18:55 GMT-0600 (Central Standard Time),410375.1999999881,A,nai,I,i,182,1,2784.5,407590.6999999881,8072,WL,C,8.0
3,17.892000198364258,learn,42107.99980163574,Mon Nov 03 2025 16:18:55 GMT-0600 (Central Standard Time),410672.40000000596,A,nail,I,l,276,1,3081.7000000178814,407590.6999999881,8072,WL,C,8.0
3,18.14300012588501,learn,41856.99987411499,Mon Nov 03 2025 16:18:55 GMT-0600 (Central Standard Time),410923.1999999881,A,nailenter,I,enter,234,1,3332.5,407590.6999999881,8072,WL,C,8.0
3,18.575999975204468,learn,41424.00002479553,Mon Nov 03 2025 16:18:55 GMT-0600 (Central Standard Time),411355.6999999881,A,l,I,l,426,1,432.40000000596046,410923.2999999821,8072,WL,C,9.0
3,18.743000030517578,learn,41256.99996948242,Mon Nov 03 2025 16:18:55 GMT-0600 (Central Standard Time),411522.6999999881,A,le,I,e,154,1,599.4000000059605,410923.2999999821,8072,WL,C,9.0
3,18.95900011062622,learn,41040.99988937378,Mon Nov 03 2025 16:18:55 GMT-0600 (Central Standard Time),411739.40000000596,A,let,I,t,200,1,816.1000000238419,410923.2999999821,8072,WL,C,9.0
3,19.109000205993652,learn,40890.99979400635,Mon Nov 03 2025 16:18:55 GMT-0600 (Central Standard Time),411889.0,A,lett,I,t,137,1,965.7000000178814,410923.2999999821,8072,WL,C,9.0
3,19.259999990463257,learn,40740.00000953674,Mon Nov 03 2025 16:18:55 GMT-0600 (Central Standard Time),412039.59999999404,A,lette,I,e,140,1,1116.300000011921,410923.2999999821,8072,WL,C,9.0
3,19.37600016593933,learn,40623.99983406067,Mon Nov 03 2025 16:18:55 GMT-0600 (Central Standard Time),412156.2999999821,A,letter,I,r,98,1,1233.0,410923.2999999821,8072,WL,C,9.0
3,19.642000198364258,learn,40357.99980163574,Mon Nov 03 2025 16:18:55 GMT-0600 (Central Standard Time),412421.59999999404,A,letterenter,I,enter,256,1,1498.300000011921,410923.2999999821,8072,WL,C,9.0
3,23.978000164031982,learn,36021.99983596802,Mon Nov 03 2025 16:18:55 GMT-0600 (Central Standard Time),416757.40000000596,A,h,I,h,4328,1,4335.600000023842,412421.7999999821,8072,WL,C,10.0
3,24.109000205993652,learn,35890.99979400635,Mon Nov 03 2025 16:18:55 GMT-0600 (Central Standard Time),416888.59999999404,A,ho,I,o,125,1,4466.800000011921,412421.7999999821,8072,WL,C,10.0
3,24.44099998474121,learn,35559.00001525879,Mon Nov 03 2025 16:18:55 GMT-0600 (Central Standard Time),417221.40000000596,A,hom,I,m,317,1,4799.600000023842,412421.7999999821,8072,WL,C,10.0
3,24.758000135421753,learn,35241.99986457825,Mon Nov 03 2025 16:18:55 GMT-0600 (Central Standard Time),417537.6999999881,A,home,I,e,302,1,5115.9000000059605,412421.7999999821,8072,WL,C,10.0
3,24.92300009727478,learn,35076.99990272522,Mon Nov 03 2025 16:18:55 GMT-0600 (Central Standard Time),417703.2999999821,A,homeenter,I,enter,155,1,5281.5,412421.7999999821,8072,WL,C,10.0
3,25.657000064849854,learn,34342.99993515015,Mon Nov 03 2025 16:18:55 GMT-0600 (Central Standard Time),418437.09999999404,A,c,I,c,717,1,733.5,417703.59999999404,8072,WL,C,11.0
3,25.892000198364258,learn,34107.99980163574,Mon Nov 03 2025 16:18:55 GMT-0600 (Central Standard Time),418671.7999999821,A,ca,I,a,217,1,968.1999999880791,417703.59999999404,8072,WL,C,11.0
3,25.991000175476074,learn,34008.999824523926,Mon Nov 03 2025 16:18:55 GMT-0600 (Central Standard Time),418770.7999999821,A,cam,I,m,85,1,1067.199999988079,417703.59999999404,8072,WL,C,11.0
3,26.19000005722046,learn,33809.99994277954,Mon Nov 03 2025 16:18:55 GMT-0600 (Central Standard Time),418970.0,A,camp,I,p,195,1,1266.4000000059605,417703.59999999404,8072,WL,C,11.0
3,26.54100012779236,learn,33458.99987220764,Mon Nov 03 2025 16:18:55 GMT-0600 (Central Standard Time),419321.40000000596,A,campenter,I,enter,338,1,1617.800000011921,417703.59999999404,8072,WL,C,11.0
3,30.972000122070312,learn,29027.999877929688,Mon Nov 03 2025 16:18:55 GMT-0600 (Central Standard Time),423752.2999999821,A,f,I,f,4411,1,4430.699999988079,419321.59999999404,8072,WL,C,12.0
3,31.188000202178955,learn,28811.999797821045,Mon Nov 03 2025 16:18:55 GMT-0600 (Central Standard Time),423968.2999999821,A,fl,I,l,200,1,4646.699999988079,419321.59999999404,8072,WL,C,12.0
3,31.305000066757202,learn,28694.999933242798,Mon Nov 03 2025 16:18:55 GMT-0600 (Central Standard Time),424085.5,A,fla,I,a,108,1,4763.9000000059605,419321.59999999404,8072,WL,C,12.0
3,31.505000114440918,learn,28494.999885559082,Mon Nov 03 2025 16:18:55 GMT-0600 (Central Standard Time),424285.0,A,flag,I,g,187,1,4963.4000000059605,419321.59999999404,8072,WL,C,12.0
3,31.639000177383423,learn,28360.999822616577,Mon Nov 03 2025 16:18:55 GMT-0600 (Central Standard Time),424419.40000000596,A,flagenter,I,enter,123,1,5097.800000011921,419321.59999999404,8072,WL,C,12.0
3,34.57100009918213,learn,25428.99990081787,Mon Nov 03 2025 16:18:55 GMT-0600 (Central Standard Time),427350.59999999404,A,t,I,t,2912,1,2931.0,424419.59999999404,8072,WL,C,13.0
3,34.72100019454956,learn,25278.99980545044,Mon Nov 03 2025 16:18:55 GMT-0600 (Central Standard Time),427501.5,A,to,I,o,139,1,3081.9000000059605,424419.59999999404,8072,WL,C,13.0
3,34.956000089645386,learn,25043.999910354614,Mon Nov 03 2025 16:18:55 GMT-0600 (Central Standard Time),427736.90000000596,A,tow,I,w,221,1,3317.300000011921,424419.59999999404,8072,WL,C,13.0
3,36.087000131607056,learn,23912.999868392944,Mon Nov 03 2025 16:18:55 GMT-0600 (Central Standard Time),428866.90000000596,A,toww,I,w,1122,1,4447.300000011921,424419.59999999404,8072,WL,C,13.0
3,36.354000091552734,learn,23645.999908447266,Mon Nov 03 2025 16:18:55 GMT-0600 (Central Standard Time),429133.6999999881,A,towwe,I,e,255,1,4714.0999999940395,424419.59999999404,8072,WL,C,13.0
3,36.687000036239624,learn,23312.999963760376,Mon Nov 03 2025 16:18:55 GMT-0600 (Central Standard Time),429467.40000000596,A,toww,I,backspace,323,1,5047.800000011921,424419.59999999404,8072,WL,C,13.0
3,36.871999979019165,learn,23128.000020980835,Mon Nov 03 2025 16:18:55 GMT-0600 (Central Standard Time),429652.2999999821,A,tow,I,backspace,166,1,5232.699999988079,424419.59999999404,8072,WL,C,13.0
3,37.73699998855591,learn,22263.00001144409,Mon Nov 03 2025 16:18:55 GMT-0600 (Central Standard Time),430516.59999999404,A,towe,I,e,842,1,6097.0,424419.59999999404,8072,WL,C,13.0
3,37.95300006866455,learn,22046.99993133545,Mon Nov 03 2025 16:18:55 GMT-0600 (Central Standard Time),430732.90000000596,A,tower,I,r,203,1,6313.300000011921,424419.59999999404,8072,WL,C,13.0
3,38.45300006866455,learn,21546.99993133545,Mon Nov 03 2025 16:18:55 GMT-0600 (Central Standard Time),431233.40000000596,A,towerenter,I,enter,478,1,6813.800000011921,424419.59999999404,8072,WL,C,13.0
3,56.330000162124634,learn,3669.999837875366,Mon Nov 03 2025 16:18:55 GMT-0600 (Central Standard Time),449110.40000000596,A,l,I,l,17859,1,17876.70000001788,431233.6999999881,8072,WL,C,14.0
3,56.430999994277954,learn,3569.000005722046,Mon Nov 03 2025 16:18:55 GMT-0600 (Central Standard Time),449210.59999999404,A,le,I,e,84,1,17976.90000000596,431233.6999999881,8072,WL,C,14.0
3,56.64800000190735,learn,3351.9999980926514,Mon Nov 03 2025 16:18:55 GMT-0600 (Central Standard Time),449428.40000000596,A,let,I,t,194,1,18194.70000001788,431233.6999999881,8072,WL,C,14.0
3,56.765000104904175,learn,3234.999895095825,Mon Nov 03 2025 16:18:55 GMT-0600 (Central Standard Time),449544.59999999404,A,lett,I,t,93,1,18310.90000000596,431233.6999999881,8072,WL,C,14.0
3,56.9300000667572,learn,3069.999933242798,Mon Nov 03 2025 16:18:55 GMT-0600 (Central Standard Time),449710.2999999821,A,lette,I,e,145,1,18476.59999999404,431233.6999999881,8072,WL,C,14.0
3,57.03000020980835,learn,2969.9997901916504,Mon Nov 03 2025 16:18:55 GMT-0600 (Central Standard Time),449810.40000000596,A,letter,I,r,91,1,18576.70000001788,431233.6999999881,8072,WL,C,14.0
3,57.17900013923645,learn,2820.99986076355,Mon Nov 03 2025 16:18:55 GMT-0600 (Central Standard Time),449959.09999999404,A,letterenter,I,enter,132,1,18725.40000000596,431233.6999999881,8072,WL,C,14.0
3,60.01400017738342,learn,-14.000177383422852,Mon Nov 03 2025 16:18:55 GMT-0600 (Central Standard Time),452793.6999999881,A,None,I,None,2831,1,2834.5,449959.1999999881,8072,WL,C,15.0
4,1.1180000305175781,learn,58881.99996948242,Mon Nov 03 2025 16:18:55 GMT-0600 (Central Standard Time),524404.400000006,A,b,I,b,1108,1,1117.2000000178814,523287.1999999881,8072,WL,C,1.0
4,1.3340001106262207,learn,58665.99988937378,Mon Nov 03 2025 16:18:55 GMT-0600 (Central Standard Time),524620.2999999821,A,bo,I,o,199,1,1333.0999999940395,523287.1999999881,8072,WL,C,1.0
4,1.751000165939331,learn,58248.99983406067,Mon Nov 03 2025 16:18:55 GMT-0600 (Central Standard Time),525037.7999999821,A,bod,I,d,400,1,1750.5999999940395,523287.1999999881,8072,WL,C,1.0
4,2.3489999771118164,learn,57651.00002288818,Mon Nov 03 2025 16:18:55 GMT-0600 (Central Standard Time),525635.400000006,A,body,I,y,582,1,2348.2000000178814,523287.1999999881,8072,WL,C,1.0
4,2.700000047683716,learn,57299.999952316284,Mon Nov 03 2025 16:18:55 GMT-0600 (Central Standard Time),525986.7999999821,A,bodyenter,I,enter,338,1,2699.5999999940395,523287.1999999881,8072,WL,C,1.0
4,3.4660000801086426,learn,56533.99991989136,Mon Nov 03 2025 16:18:55 GMT-0600 (Central Standard Time),526752.6999999881,A,b,I,b,746,1,765.6999999880791,525987.0,8072,WL,C,2.0
4,3.683000087738037,learn,56316.99991226196,Mon Nov 03 2025 16:18:55 GMT-0600 (Central Standard Time),526970.099999994,A,bo,I,o,203,1,983.0999999940395,525987.0,8072,WL,C,2.0
4,4.0329999923706055,learn,55967.000007629395,Mon Nov 03 2025 16:18:55 GMT-0600 (Central Standard Time),527320.0,A,boy,I,y,338,1,1333.0,525987.0,8072,WL,C,2.0
4,4.447999954223633,learn,55552.00004577637,Mon Nov 03 2025 16:18:55 GMT-0600 (Central Standard Time),527735.1999999881,A,boyenter,I,enter,405,1,1748.199999988079,525987.0,8072,WL,C,2.0
4,5.25,learn,54750.0,Mon Nov 03 2025 16:18:55 GMT-0600 (Central Standard Time),528537.1999999881,A,s,I,s,797,1,801.6999999880791,527735.5,8072,WL,C,3.0
4,5.466000080108643,learn,54533.99991989136,Mon Nov 03 2025 16:18:55 GMT-0600 (Central Standard Time),528753.099999994,A,sh,I,h,194,1,1017.5999999940395,527735.5,8072,WL,C,3.0
4,5.648000001907349,learn,54351.99999809265,Mon Nov 03 2025 16:18:55 GMT-0600 (Central Standard Time),528935.2999999821,A,sho,I,o,172,1,1199.7999999821186,527735.5,8072,WL,C,3.0
4,5.965000152587891,learn,54034.99984741211,Mon Nov 03 2025 16:18:55 GMT-0600 (Central Standard Time),529252.099999994,A,shor,I,r,311,1,1516.5999999940395,527735.5,8072,WL,C,3.0
4,6.13100004196167,learn,53868.99995803833,Mon Nov 03 2025 16:18:55 GMT-0600 (Central Standard Time),529418.1999999881,A,shore,I,e,150,1,1682.699999988079,527735.5,8072,WL,C,3.0
4,6.480999946594238,learn,53519.00005340576,Mon Nov 03 2025 16:18:55 GMT-0600 (Central Standard Time),529768.5,A,shoreenter,I,enter,330,1,2033.0,527735.5,8072,WL,C,3.0
4,7.013999938964844,learn,52986.000061035156,Mon Nov 03 2025 16:18:55 GMT-0600 (Central Standard Time),530301.099999994,A,c,I,c,525,1,532.3000000119209,529768.7999999821,8072,WL,C,4.0
4,7.233000040054321,learn,52766.99995994568,Mon Nov 03 2025 16:18:55 GMT-0600 (Central Standard Time),530520.1999999881,A,ca,I,a,199,1,751.4000000059605,529768.7999999821,8072,WL,C,4.0
4,7.498000144958496,learn,52501.999855041504,Mon Nov 03 2025 16:18:55 GMT-0600 (Central Standard Time),530785.0,A,cat,I,t,251,1,1016.2000000178814,529768.7999999821,8072,WL,C,4.0
4,7.647000074386597,learn,52352.9999256134,Mon Nov 03 2025 16:18:55 GMT-0600 (Central Standard Time),530934.1999999881,A,catt,I,t,132,1,1165.4000000059605,529768.7999999821,8072,WL,C,4.0
4,7.914000034332275,learn,52085.999965667725,Mon Nov 03 2025 16:18:55 GMT-0600 (Central Standard Time),531201.5,A,cattl,I,l,255,1,1432.7000000178814,529768.7999999821,8072,WL,C,4.0
4,8.097000122070312,learn,51902.99987792969,Mon Nov 03 2025 16:18:55 GMT-0600 (Central Standard Time),531384.900000006,A,cattle,I,e,172,1,1616.1000000238419,529768.7999999821,8072,WL,C,4.0
4,8.430000066757202,learn,51569.9999332428,Mon Nov 03 2025 16:18:55 GMT-0600 (Central Standard Time),531717.900000006,A,cattleenter,I,enter,324,1,1949.1000000238419,529768.7999999821,8072,WL,C,4.0
4,9.884000062942505,learn,50115.999937057495,Mon Nov 03 2025 16:18:55 GMT-0600 (Central Standard Time),533171.0,A,w,I,w,1449,1,1452.9000000059605,531718.099999994,8072,WL,C,5.0
4,10.164999961853027,learn,49835.00003814697,Mon Nov 03 2025 16:18:55 GMT-0600 (Central Standard Time),533452.2999999821,A,wh,I,h,276,1,1734.199999988079,531718.099999994,8072,WL,C,5.0
4,10.328999996185303,learn,49671.0000038147,Mon Nov 03 2025 16:18:55 GMT-0600 (Central Standard Time),533616.900000006,A,whe,I,e,141,1,1898.800000011921,531718.099999994,8072,WL,C,5.0
4,10.61300015449524,learn,49386.99984550476,Mon Nov 03 2025 16:18:55 GMT-0600 (Central Standard Time),533900.400000006,A,whea,I,a,266,1,2182.300000011921,531718.099999994,8072,WL,C,5.0
4,10.864000082015991,learn,49135.99991798401,Mon Nov 03 2025 16:18:55 GMT-0600 (Central Standard Time),534151.5,A,wheat,I,t,239,1,2433.4000000059605,531718.099999994,8072,WL,C,5.0
4,11.082000017166138,learn,48917.99998283386,Mon Nov 03 2025 16:18:55 GMT-0600 (Central Standard Time),534369.1999999881,A,wheatenter,I,enter,197,1,2651.0999999940395,531718.099999994,8072,WL,C,5.0
4,11.44700002670288,learn,48552.99997329712,Mon Nov 03 2025 16:18:55 GMT-0600 (Central Standard Time),534734.1999999881,A,c,I,c,347,1,364.7999999821186,534369.400000006,8072,WL,C,6.0
4,11.595999956130981,learn,48404.00004386902,Mon Nov 03 2025 16:18:55 GMT-0600 (Central Standard Time),534883.400000006,A,co,I,o,142,1,514.0,534369.400000006,8072,WL,C,6.0
4,11.828999996185303,learn,48171.0000038147,Mon Nov 03 2025 16:18:55 GMT-0600 (Central Standard Time),535116.900000006,A,cor,I,r,227,1,747.5,534369.400000006,8072,WL,C,6.0
4,12.04699993133545,learn,47953.00006866455,Mon Nov 03 2025 16:18:55 GMT-0600 (Central Standard Time),535334.099999994,A,corn,I,n,200,1,964.6999999880791,534369.400000006,8072,WL,C,6.0
4,12.328999996185303,learn,47671.0000038147,Mon Nov 03 2025 16:18:55 GMT-0600 (Central Standard Time),535616.900000006,A,cornenter,I,enter,271,1,1247.5,534369.400000006,8072,WL,C,6.0
4,12.946000099182129,learn,47053.99990081787,Mon Nov 03 2025 16:18:55 GMT-0600 (Central Standard Time),536233.099999994,A,d,I,d,603,1,616.0,535617.099999994,8072,WL,C,7.0
4,13.11300015449524,learn,46886.99984550476,Mon Nov 03 2025 16:18:55 GMT-0600 (Central Standard Time),536400.7999999821,A,do,I,o,154,1,783.6999999880791,535617.099999994,8072,WL,C,7.0
4,13.24399995803833,learn,46756.00004196167,Mon Nov 03 2025 16:18:55 GMT-0600 (Central Standard Time),536531.1999999881,A,doc,I,c,114,1,914.0999999940395,535617.099999994,8072,WL,C,7.0
4,13.495000123977661,learn,46504.99987602234,Mon Nov 03 2025 16:18:55 GMT-0600 (Central Standard Time),536782.599999994,A,doct,I,t,235,1,1165.5,535617.099999994,8072,WL,C,7.0
4,13.628999948501587,learn,46371.00005149841,Mon Nov 03 2025 16:18:55 GMT-0600 (Central Standard Time),536916.0,A,docto,I,o,124,1,1298.9000000059605,535617.099999994,8072,WL,C,7.0
4,13.779000043869019,learn,46220.99995613098,Mon Nov 03 2025 16:18:55 GMT-0600 (Central Standard Time),537066.0,A,doctor,I,r,145,1,1448.9000000059605,535617.099999994,8072,WL,C,7.0
4,14.54699993133545,learn,45453.00006866455,Mon Nov 03 2025 16:18:55 GMT-0600 (Central Standard Time),537833.900000006,A,doctorq,I,q,748,1,2216.800000011921,535617.099999994,8072,WL,C,7.0
4,14.763999938964844,learn,45236.000061035156,Mon Nov 03 2025 16:18:55 GMT-0600 (Central Standard Time),538051.099999994,A,doctorqu,I,u,195,1,2434.0,535617.099999994,8072,WL,C,7.0
4,14.996000051498413,learn,45003.99994850159,Mon Nov 03 2025 16:18:55 GMT-0600 (Central Standard Time),538283.599999994,A,doctorque,I,e,217,1,2666.5,535617.099999994,8072,WL,C,7.0
4,15.146000146865845,learn,44853.999853134155,Mon Nov 03 2025 16:18:55 GMT-0600 (Central Standard Time),538433.0,A,doctorquee,I,e,128,1,2815.9000000059605,535617.099999994,8072,WL,C,7.0
4,15.295000076293945,learn,44704.999923706055,Mon Nov 03 2025 16:18:55 GMT-0600 (Central Standard Time),538582.400000006,A,doctorqueen,I,n,138,1,2965.300000011921,535617.099999994,8072,WL,C,7.0
4,15.546000003814697,learn,44453.9999961853,Mon Nov 03 2025 16:18:55 GMT-0600 (Central Standard Time),538833.099999994,A,doctorqueenenter,I,enter,230,1,3216.0,535617.099999994,8072,WL,C,7.0
4,16.261000156402588,learn,43738.99984359741,Mon Nov 03 2025 16:18:55 GMT-0600 (Central Standard Time),539548.7999999821,A,t,I,t,708,1,715.3999999761581,538833.400000006,8072,WL,C,8.0
4,16.444000005722046,learn,43555.999994277954,Mon Nov 03 2025 16:18:55 GMT-0600 (Central Standard Time),539731.900000006,A,to,I,o,167,1,898.5,538833.400000006,8072,WL,C,8.0
4,16.628999948501587,learn,43371.00005149841,Mon Nov 03 2025 16:18:55 GMT-0600 (Central Standard Time),539916.6999999881,A,tow,I,w,181,1,1083.2999999821186,538833.400000006,8072,WL,C,8.0
4,16.811000108718872,learn,43188.99989128113,Mon Nov 03 2025 16:18:55 GMT-0600 (Central Standard Time),540098.2999999821,A,towe,I,e,169,1,1264.8999999761581,538833.400000006,8072,WL,C,8.0
4,16.978000164031982,learn,43021.99983596802,Mon Nov 03 2025 16:18:55 GMT-0600 (Central Standard Time),540265.900000006,A,tower,I,r,155,1,1432.5,538833.400000006,8072,WL,C,8.0
4,17.210999965667725,learn,42789.000034332275,Mon Nov 03 2025 16:18:55 GMT-0600 (Central Standard Time),540498.1999999881,A,towerenter,I,enter,219,1,1664.7999999821186,538833.400000006,8072,WL,C,8.0
4,17.611999988555908,learn,42388.00001144409,Mon Nov 03 2025 16:18:55 GMT-0600 (Central Standard Time),540899.400000006,A,f,I,f,386,1,400.80000001192093,540498.599999994,8072,WL,C,9.0
4,17.728000164031982,learn,42271.99983596802,Mon Nov 03 2025 16:18:55 GMT-0600 (Central Standard Time),541015.5,A,fl,I,l,107,1,516.9000000059605,540498.599999994,8072,WL,C,9.0
4,17.860000133514404,learn,42139.999866485596,Mon Nov 03 2025 16:18:55 GMT-0600 (Central Standard Time),541147.7999999821,A,fla,I,a,117,1,649.1999999880791,540498.599999994,8072,WL,C,9.0
4,18.094000101089478,learn,41905.99989891052,Mon Nov 03 2025 16:18:55 GMT-0600 (Central Standard Time),541381.5,A,flag,I,g,226,1,882.9000000059605,540498.599999994,8072,WL,C,9.0
4,18.34500002861023,learn,41654.99997138977,Mon Nov 03 2025 16:18:55 GMT-0600 (Central Standard Time),541632.0,A,flagenter,I,enter,231,1,1133.4000000059605,540498.599999994,8072,WL,C,9.0
4,24.192000150680542,learn,35807.99984931946,Mon Nov 03 2025 16:18:55 GMT-0600 (Central Standard Time),547479.099999994,A,s,I,s,5829,1,5846.9000000059605,541632.1999999881,8072,WL,C,10.0
4,24.45799994468689,learn,35542.00005531311,Mon Nov 03 2025 16:18:55 GMT-0600 (Central Standard Time),547745.7999999821,A,su,I,u,249,1,6113.5999999940395,541632.1999999881,8072,WL,C,10.0
4,24.69099998474121,learn,35309.00001525879,Mon Nov 03 2025 16:18:55 GMT-0600 (Central Standard Time),547978.7999999821,A,sug,I,g,207,1,6346.5999999940395,541632.1999999881,8072,WL,C,10.0
4,24.85800004005432,learn,35141.99995994568,Mon Nov 03 2025 16:18:55 GMT-0600 (Central Standard Time),548145.5,A,suge,I,e,152,1,6513.300000011921,541632.1999999881,8072,WL,C,10.0
4,24.95799994468689,learn,35042.00005531311,Mon Nov 03 2025 16:18:55 GMT-0600 (Central Standard Time),548245.5,A,suger,I,r,88,1,6613.300000011921,541632.1999999881,8072,WL,C,10.0
4,25.225000143051147,learn,34774.99985694885,Mon Nov 03 2025 16:18:55 GMT-0600 (Central Standard Time),548512.0,A,sugerenter,I,enter,245,1,6879.800000011921,541632.1999999881,8072,WL,C,10.0
4,29.207000017166138,learn,30792.999982833862,Mon Nov 03 2025 16:18:55 GMT-0600 (Central Standard Time),552494.1999999881,A,l,I,l,3972,1,3982.0,548512.1999999881,8072,WL,C,11.0
4,29.42300009727478,learn,30576.99990272522,Mon Nov 03 2025 16:18:55 GMT-0600 (Central Standard Time),552710.7999999821,A,le,I,e,204,1,4198.5999999940395,548512.1999999881,8072,WL,C,11.0
4,29.640000104904175,learn,30359.999895095825,Mon Nov 03 2025 16:18:55 GMT-0600 (Central Standard Time),552927.2999999821,A,let,I,t,202,1,4415.0999999940395,548512.1999999881,8072,WL,C,11.0
4,29.77300000190735,learn,30226.99999809265,Mon Nov 03 2025 16:18:55 GMT-0600 (Central Standard Time),553060.7999999821,A,lett,I,t,122,1,4548.5999999940395,548512.1999999881,8072,WL,C,11.0
4,29.973000049591064,learn,30026.999950408936,Mon Nov 03 2025 16:18:55 GMT-0600 (Central Standard Time),553260.400000006,A,lette,I,e,189,1,4748.200000017881,548512.1999999881,8072,WL,C,11.0
4,30.072999954223633,learn,29927.000045776367,Mon Nov 03 2025 16:18:55 GMT-0600 (Central Standard Time),553360.5,A,letter,I,r,87,1,4848.300000011921,548512.1999999881,8072,WL,C,11.0
4,30.258000135421753,learn,29741.999864578247,Mon Nov 03 2025 16:18:55 GMT-0600 (Central Standard Time),553545.099999994,A,letterenter,I,enter,179,1,5032.9000000059605,548512.1999999881,8072,WL,C,11.0
4,31.555999994277954,learn,28444.000005722046,Mon Nov 03 2025 16:18:55 GMT-0600 (Central Standard Time),554843.599999994,A,n,I,n,1283,1,1298.300000011921,553545.2999999821,8072,WL,C,12.0
4,31.706000089645386,learn,28293.999910354614,Mon Nov 03 2025 16:18:55 GMT-0600 (Central Standard Time),554993.599999994,A,na,I,a,132,1,1448.300000011921,553545.2999999821,8072,WL,C,12.0
4,31.85599994659424,learn,28144.00005340576,Mon Nov 03 2025 16:18:55 GMT-0600 (Central Standard Time),555143.099999994,A,nai,I,i,129,1,1597.800000011921,553545.2999999821,8072,WL,C,12.0
4,32.057000160217285,learn,27942.999839782715,Mon Nov 03 2025 16:18:55 GMT-0600 (Central Standard Time),555344.900000006,A,nail,I,l,187,1,1799.6000000238419,553545.2999999821,8072,WL,C,12.0
4,32.28999996185303,learn,27710.000038146973,Mon Nov 03 2025 16:18:55 GMT-0600 (Central Standard Time),555577.400000006,A,nailenter,I,enter,217,1,2032.1000000238419,553545.2999999821,8072,WL,C,12.0
4,40.07100009918213,learn,19928.99990081787,Mon Nov 03 2025 16:18:55 GMT-0600 (Central Standard Time),563357.900000006,A,q,I,q,7771,1,7780.4000000059605,555577.5,8072,WL,C,13.0
4,40.30400013923645,learn,19695.99986076355,Mon Nov 03 2025 16:18:55 GMT-0600 (Central Standard Time),563591.5,A,qu,I,u,220,1,8014.0,555577.5,8072,WL,C,13.0
4,40.47000002861023,learn,19529.99997138977,Mon Nov 03 2025 16:18:55 GMT-0600 (Central Standard Time),563757.6999999881,A,que,I,e,155,1,8180.199999988079,555577.5,8072,WL,C,13.0
4,40.604000091552734,learn,19395.999908447266,Mon Nov 03 2025 16:18:55 GMT-0600 (Central Standard Time),563890.900000006,A,quee,I,e,116,1,8313.40000000596,555577.5,8072,WL,C,13.0
4,40.769999980926514,learn,19230.000019073486,Mon Nov 03 2025 16:18:55 GMT-0600 (Central Standard Time),564058.0,A,queen,I,n,146,1,8480.5,555577.5,8072,WL,C,13.0
4,41.04100012779236,learn,18958.99987220764,Mon Nov 03 2025 16:18:55 GMT-0600 (Central Standard Time),564328.7999999821,A,queenenter,I,enter,264,1,8751.299999982119,555577.5,8072,WL,C,13.0
4,55.38199996948242,learn,4618.000030517578,Mon Nov 03 2025 16:18:55 GMT-0600 (Central Standard Time),578669.2999999821,A,n,I,n,14331,1,14340.299999982119,564329.0,8072,WL,C,14.0
4,55.61400008201599,learn,4385.999917984009,Mon Nov 03 2025 16:18:55 GMT-0600 (Central Standard Time),578901.7999999821,A,na,I,a,214,1,14572.799999982119,564329.0,8072,WL,C,14.0
4,55.765000104904175,learn,4234.999895095825,Mon Nov 03 2025 16:18:55 GMT-0600 (Central Standard Time),579052.0,A,nai,I,i,135,1,14723.0,564329.0,8072,WL,C,14.0
4,55.96500015258789,learn,4034.9998474121094,Mon Nov 03 2025 16:18:55 GMT-0600 (Central Standard Time),579252.5,A,nail,I,l,193,1,14923.5,564329.0,8072,WL,C,14.0
4,56.19700002670288,learn,3802.999973297119,Mon Nov 03 2025 16:18:55 GMT-0600 (Central Standard Time),579484.7999999821,A,nailenter,I,enter,215,1,15155.799999982119,564329.0,8072,WL,C,14.0
4,60.015000104904175,learn,-15.000104904174805,Mon Nov 03 2025 16:18:55 GMT-0600 (Central Standard Time),583302.1999999881,A,None,I,None,3814,1,3817.199999988079,579485.0,8072,WL,C,15.0
5,1.5510001182556152,learn,60000.0,Mon Nov 03 2025 16:18:55 GMT-0600 (Central Standard Time),656895.900000006,A,b,I,b,1540,1,1550.800000011921,655345.099999994,8072,WL,C,1.0
5,1.7840001583099365,learn,60000.0,Mon Nov 03 2025 16:18:55 GMT-0600 (Central Standard Time),657128.599999994,A,bo,I,o,219,1,1783.5,655345.099999994,8072,WL,C,1.0
5,2.1000001430511475,learn,60000.0,Mon Nov 03 2025 16:18:55 GMT-0600 (Central Standard Time),657444.900000006,A,boy,I,y,305,1,2099.800000011921,655345.099999994,8072,WL,C,1.0
5,2.4830000400543213,learn,60000.0,Mon Nov 03 2025 16:18:55 GMT-0600 (Central Standard Time),657828.0,A,boyenter,I,enter,366,1,2482.9000000059605,655345.099999994,8072,WL,C,1.0
5,3.299999952316284,learn,60000.0,Mon Nov 03 2025 16:18:55 GMT-0600 (Central Standard Time),658644.400000006,A,q,I,q,801,1,816.2000000178814,657828.1999999881,8072,WL,C,2.0
5,3.5320000648498535,learn,60000.0,Mon Nov 03 2025 16:18:55 GMT-0600 (Central Standard Time),658876.900000006,A,qu,I,u,223,1,1048.7000000178814,657828.1999999881,8072,WL,C,2.0
5,3.7330000400543213,learn,60000.0,Mon Nov 03 2025 16:18:55 GMT-0600 (Central Standard Time),659077.6999999881,A,que,I,e,192,1,1249.5,657828.1999999881,8072,WL,C,2.0
5,3.9149999618530273,learn,60000.0,Mon Nov 03 2025 16:18:55 GMT-0600 (Central Standard Time),659259.900000006,A,quee,I,e,175,1,1431.7000000178814,657828.1999999881,8072,WL,C,2.0
5,4.148000001907349,learn,60000.0,Mon Nov 03 2025 16:18:55 GMT-0600 (Central Standard Time),659493.2999999821,A,queen,I,n,216,1,1665.0999999940395,657828.1999999881,8072,WL,C,2.0
5,4.466000080108643,learn,60000.0,Mon Nov 03 2025 16:18:55 GMT-0600 (Central Standard Time),659810.7999999821,A,queenenter,I,enter,300,1,1982.5999999940395,657828.1999999881,8072,WL,C,2.0
5,5.351000070571899,learn,60000.0,Mon Nov 03 2025 16:18:55 GMT-0600 (Central Standard Time),660695.900000006,A,d,I,d,865,1,884.9000000059605,659811.0,8072,WL,C,3.0
5,5.615000009536743,learn,60000.0,Mon Nov 03 2025 16:18:55 GMT-0600 (Central Standard Time),660960.400000006,A,do,I,o,252,1,1149.4000000059605,659811.0,8072,WL,C,3.0
5,5.71399998664856,learn,60000.0,Mon Nov 03 2025 16:18:55 GMT-0600 (Central Standard Time),661059.2999999821,A,doc,I,c,83,1,1248.2999999821186,659811.0,8072,WL,C,3.0
5,5.999000072479248,learn,60000.0,Mon Nov 03 2025 16:18:55 GMT-0600 (Central Standard Time),661343.6999999881,A,doct,I,t,272,1,1532.699999988079,659811.0,8072,WL,C,3.0
5,6.184000015258789,learn,60000.0,Mon Nov 03 2025 16:18:55 GMT-0600 (Central Standard Time),661528.400000006,A,docto,I,o,164,1,1717.4000000059605,659811.0,8072,WL,C,3.0
5,6.449000120162964,learn,60000.0,Mon Nov 03 2025 16:18:55 GMT-0600 (Central Standard Time),661793.5,A,doctor,I,r,252,1,1982.5,659811.0,8072,WL,C,3.0
5,6.748000144958496,learn,60000.0,Mon Nov 03 2025 16:18:55 GMT-0600 (Central Standard Time),662093.0,A,doctorenter,I,enter,284,1,2282.0,659811.0,8072,WL,C,3.0
5,7.39900016784668,learn,60000.0,Mon Nov 03 2025 16:18:55 GMT-0600 (Central Standard Time),662743.6999999881,A,f,I,f,641,1,650.4000000059605,662093.2999999821,8072,WL,C,4.0
5,7.666000127792358,learn,60000.0,Mon Nov 03 2025 16:18:55 GMT-0600 (Central Standard Time),663010.599999994,A,fl,I,l,250,1,917.3000000119209,662093.2999999821,8072,WL,C,4.0
5,7.8480000495910645,learn,60000.0,Mon Nov 03 2025 16:18:55 GMT-0600 (Central Standard Time),663192.599999994,A,fla,I,a,162,1,1099.300000011921,662093.2999999821,8072,WL,C,4.0
5,8.397000074386597,learn,60000.0,Mon Nov 03 2025 16:18:55 GMT-0600 (Central Standard Time),663742.2999999821,A,flag,I,g,538,1,1649.0,662093.2999999821,8072,WL,C,4.0
5,9.051000118255615,learn,60000.0,Mon Nov 03 2025 16:18:55 GMT-0600 (Central Standard Time),664396.0,A,flagenter,I,enter,638,1,2302.7000000178814,662093.2999999821,8072,WL,C,4.0
5,10.79800009727478,learn,60000.0,Mon Nov 03 2025 16:18:55 GMT-0600 (Central Standard Time),666142.900000006,A,t,I,t,1736,1,1746.7000000178814,664396.1999999881,8072,WL,C,5.0
5,10.979000091552734,learn,60000.0,Mon Nov 03 2025 16:18:55 GMT-0600 (Central Standard Time),666324.400000006,A,to,I,o,172,1,1928.2000000178814,664396.1999999881,8072,WL,C,5.0
5,11.265000104904175,learn,60000.0,Mon Nov 03 2025 16:18:55 GMT-0600 (Central Standard Time),666610.2999999821,A,tow,I,w,273,1,2214.0999999940395,664396.1999999881,8072,WL,C,5.0
5,11.430000066757202,learn,60000.0,Mon Nov 03 2025 16:18:55 GMT-0600 (Central Standard Time),666774.599999994,A,towe,I,e,147,1,2378.4000000059605,664396.1999999881,8072,WL,C,5.0
5,11.630000114440918,learn,60000.0,Mon Nov 03 2025 16:18:55 GMT-0600 (Central Standard Time),666975.1999999881,A,tower,I,r,180,1,2579.0,664396.1999999881,8072,WL,C,5.0
5,11.930000066757202,learn,60000.0,Mon Nov 03 2025 16:18:55 GMT-0600 (Central Standard Time),667274.7999999821,A,towerenter,I,enter,278,1,2878.5999999940395,664396.1999999881,8072,WL,C,5.0
5,12.664000034332275,learn,60000.0,Mon Nov 03 2025 16:18:55 GMT-0600 (Central Standard Time),668008.5,A,s,I,s,713,1,733.3000000119209,667275.1999999881,8072,WL,C,6.0
5,12.963000059127808,learn,60000.0,Mon Nov 03 2025 16:18:55 GMT-0600 (Central Standard Time),668307.7999999821,A,su,I,u,291,1,1032.5999999940395,667275.1999999881,8072,WL,C,6.0
5,13.34500002861023,learn,60000.0,Mon Nov 03 2025 16:18:55 GMT-0600 (Central Standard Time),668690.1999999881,A,sug,I,g,368,1,1415.0,667275.1999999881,8072,WL,C,6.0
5,14.312000036239624,learn,60000.0,Mon Nov 03 2025 16:18:55 GMT-0600 (Central Standard Time),669656.5,A,suge,I,e,945,1,2381.300000011921,667275.1999999881,8072,WL,C,6.0
5,15.161999940872192,learn,60000.0,Mon Nov 03 2025 16:18:55 GMT-0600 (Central Standard Time),670506.6999999881,A,suger,I,r,835,1,3231.5,667275.1999999881,8072,WL,C,6.0
5,15.495000123977661,learn,60000.0,Mon Nov 03 2025 16:18:55 GMT-0600 (Central Standard Time),670840.2999999821,A,sugerenter,I,enter,320,1,3565.0999999940395,667275.1999999881,8072,WL,C,6.0
5,16.29700016975403,learn,60000.0,Mon Nov 03 2025 16:18:55 GMT-0600 (Central Standard Time),671641.900000006,A,h,I,h,797,1,801.3000000119209,670840.599999994,8072,WL,C,7.0
5,16.51200008392334,learn,60000.0,Mon Nov 03 2025 16:18:55 GMT-0600 (Central Standard Time),671856.400000006,A,ho,I,o,203,1,1015.8000000119209,670840.599999994,8072,WL,C,7.0
5,16.778000116348267,learn,60000.0,Mon Nov 03 2025 16:18:55 GMT-0600 (Central Standard Time),672123.0,A,hom,I,m,261,1,1282.4000000059605,670840.599999994,8072,WL,C,7.0
5,17.046000003814697,learn,60000.0,Mon Nov 03 2025 16:18:55 GMT-0600 (Central Standard Time),672391.099999994,A,home,I,e,257,1,1550.5,670840.599999994,8072,WL,C,7.0
5,17.311000108718872,learn,60000.0,Mon Nov 03 2025 16:18:55 GMT-0600 (Central Standard Time),672655.6999999881,A,homeenter,I,enter,252,1,1815.0999999940395,670840.599999994,8072,WL,C,7.0
5,17.628999948501587,learn,60000.0,Mon Nov 03 2025 16:18:55 GMT-0600 (Central Standard Time),672973.6999999881,A,c,I,c,310,1,317.7999999821186,672655.900000006,8072,WL,C,8.0
5,17.82800006866455,learn,60000.0,Mon Nov 03 2025 16:18:55 GMT-0600 (Central Standard Time),673172.6999999881,A,ca,I,a,177,1,516.7999999821186,672655.900000006,8072,WL,C,8.0
5,17.978000164031982,learn,60000.0,Mon Nov 03 2025 16:18:55 GMT-0600 (Central Standard Time),673323.0,A,cam,I,m,130,1,667.0999999940395,672655.900000006,8072,WL,C,8.0
5,18.228000164031982,learn,60000.0,Mon Nov 03 2025 16:18:55 GMT-0600 (Central Standard Time),673573.0,A,camp,I,p,242,1,917.0999999940395,672655.900000006,8072,WL,C,8.0
5,18.794000148773193,learn,60000.0,Mon Nov 03 2025 16:18:55 GMT-0600 (Central Standard Time),674139.2999999821,A,campenter,I,enter,551,1,1483.3999999761581,672655.900000006,8072,WL,C,8.0
5,19.479000091552734,learn,60000.0,Mon Nov 03 2025 16:18:55 GMT-0600 (Central Standard Time),674824.2999999821,A,s,I,s,664,1,684.6999999880791,674139.599999994,8072,WL,C,9.0
5,19.62600016593933,learn,60000.0,Mon Nov 03 2025 16:18:55 GMT-0600 (Central Standard Time),674971.0,A,sh,I,h,141,1,831.4000000059605,674139.599999994,8072,WL,C,9.0
5,19.74399995803833,learn,60000.0,Mon Nov 03 2025 16:18:55 GMT-0600 (Central Standard Time),675089.400000006,A,sho,I,o,107,1,949.8000000119209,674139.599999994,8072,WL,C,9.0
5,20.026999950408936,learn,60000.0,Mon Nov 03 2025 16:18:55 GMT-0600 (Central Standard Time),675372.0,A,shor,I,r,275,1,1232.4000000059605,674139.599999994,8072,WL,C,9.0
5,20.161999940872192,learn,60000.0,Mon Nov 03 2025 16:18:55 GMT-0600 (Central Standard Time),675507.0,A,shore,I,e,126,1,1367.4000000059605,674139.599999994,8072,WL,C,9.0
5,20.460000038146973,learn,60000.0,Mon Nov 03 2025 16:18:55 GMT-0600 (Central Standard Time),675805.2999999821,A,shoreenter,I,enter,287,1,1665.699999988079,674139.599999994,8072,WL,C,9.0
5,20.960000038146973,learn,60000.0,Mon Nov 03 2025 16:18:55 GMT-0600 (Central Standard Time),676305.2999999821,A,c,I,c,480,1,499.69999998807907,675805.599999994,8072,WL,C,10.0
5,21.19600009918213,learn,60000.0,Mon Nov 03 2025 16:18:55 GMT-0600 (Central Standard Time),676540.7999999821,A,co,I,o,217,1,735.1999999880791,675805.599999994,8072,WL,C,10.0
5,21.509999990463257,learn,60000.0,Mon Nov 03 2025 16:18:55 GMT-0600 (Central Standard Time),676855.0,A,cor,I,r,295,1,1049.4000000059605,675805.599999994,8072,WL,C,10.0
5,21.67799997329712,learn,60000.0,Mon Nov 03 2025 16:18:55 GMT-0600 (Central Standard Time),677022.5,A,corn,I,n,157,1,1216.9000000059605,675805.599999994,8072,WL,C,10.0
5,22.011000156402588,learn,60000.0,Mon Nov 03 2025 16:18:55 GMT-0600 (Central Standard Time),677355.7999999821,A,cornenter,I,enter,311,1,1550.199999988079,675805.599999994,8072,WL,C,10.0
5,22.460000038146973,learn,60000.0,Mon Nov 03 2025 16:18:55 GMT-0600 (Central Standard Time),677804.7999999821,A,w,I,w,440,1,448.7999999821186,677356.0,8072,WL,C,11.0
5,22.575999975204468,learn,60000.0,Mon Nov 03 2025 16:18:55 GMT-0600 (Central Standard Time),677921.1999999881,A,wh,I,h,105,1,565.1999999880791,677356.0,8072,WL,C,11.0
5,22.66000008583069,learn,60000.0,Mon Nov 03 2025 16:18:55 GMT-0600 (Central Standard Time),678005.1999999881,A,whe,I,e,64,1,649.1999999880791,677356.0,8072,WL,C,11.0
5,22.776000022888184,learn,60000.0,Mon Nov 03 2025 16:18:55 GMT-0600 (Central Standard Time),678121.2999999821,A,whea,I,a,102,1,765.2999999821186,677356.0,8072,WL,C,11.0
5,24.194000005722046,learn,60000.0,Mon Nov 03 2025 16:18:55 GMT-0600 (Central Standard Time),679538.7999999821,A,wheat,I,t,1411,1,2182.7999999821186,677356.0,8072,WL,C,11.0
5,24.443000078201294,learn,60000.0,Mon Nov 03 2025 16:18:55 GMT-0600 (Central Standard Time),679787.599999994,A,wheatenter,I,enter,234,1,2431.5999999940395,677356.0,8072,WL,C,11.0
5,32.873000144958496,learn,60000.0,Mon Nov 03 2025 16:18:55 GMT-0600 (Central Standard Time),688218.0,A,c,I,c,8424,1,8430.200000017881,679787.7999999821,8072,WL,C,12.0
5,33.07299995422363,learn,60000.0,Mon Nov 03 2025 16:18:55 GMT-0600 (Central Standard Time),688417.900000006,A,ca,I,a,186,1,8630.100000023842,679787.7999999821,8072,WL,C,12.0
5,33.30900001525879,learn,60000.0,Mon Nov 03 2025 16:18:55 GMT-0600 (Central Standard Time),688653.400000006,A,cat,I,t,225,1,8865.600000023842,679787.7999999821,8072,WL,C,12.0
5,33.456000089645386,learn,60000.0,Mon Nov 03 2025 16:18:55 GMT-0600 (Central Standard Time),688800.7999999821,A,catt,I,t,137,1,9013.0,679787.7999999821,8072,WL,C,12.0
5,33.623000144958496,learn,60000.0,Mon Nov 03 2025 16:18:55 GMT-0600 (Central Standard Time),688967.7999999821,A,cattl,I,l,154,1,9180.0,679787.7999999821,8072,WL,C,12.0
5,33.79100012779236,learn,60000.0,Mon Nov 03 2025 16:18:55 GMT-0600 (Central Standard Time),689135.5,A,cattle,I,e,146,1,9347.700000017881,679787.7999999821,8072,WL,C,12.0
5,34.02300000190735,learn,60000.0,Mon Nov 03 2025 16:18:55 GMT-0600 (Central Standard Time),689367.7999999821,A,cattleenter,I,enter,212,1,9580.0,679787.7999999821,8072,WL,C,12.0
5,61.66199994087219,learn,60000.0,Mon Nov 03 2025 16:18:55 GMT-0600 (Central Standard Time),717007.6999999881,A,n,I,n,27620,1,27639.69999998808,689368.0,8072,WL,C,13.0
6,0.5829999446868896,distr,59417.00005531311,Mon Nov 03 2025 16:18:55 GMT-0600 (Central Standard Time),792151.7999999821,B,m,I,m,561,1,583.0,791568.7999999821,8072,WL,C,1.0
6,0.8810000419616699,distr,59118.99995803833,Mon Nov 03 2025 16:18:55 GMT-0600 (Central Standard Time),792449.6999999881,B,mo,I,o,289,1,880.9000000059605,791568.7999999821,8072,WL,C,1.0
6,1.0679998397827148,distr,58932.000160217285,Mon Nov 03 2025 16:18:55 GMT-0600 (Central Standard Time),792637.0,B,mot,I,t,171,1,1068.2000000178814,791568.7999999821,8072,WL,C,1.0
6,1.2159998416900635,distr,58784.00015830994,Mon Nov 03 2025 16:18:55 GMT-0600 (Central Standard Time),792784.1999999881,B,moth,I,h,134,1,1215.4000000059605,791568.7999999821,8072,WL,C,1.0
6,1.3659999370574951,distr,58634.000062942505,Mon Nov 03 2025 16:18:55 GMT-0600 (Central Standard Time),792934.599999994,B,mothe,I,e,134,1,1365.800000011921,791568.7999999821,8072,WL,C,1.0
6,1.4489998817443848,distr,58551.000118255615,Mon Nov 03 2025 16:18:55 GMT-0600 (Central Standard Time),793017.599999994,B,mother,I,r,61,1,1448.800000011921,791568.7999999821,8072,WL,C,1.0
6,1.6979999542236328,distr,58302.00004577637,Mon Nov 03 2025 16:18:55 GMT-0600 (Central Standard Time),793266.599999994,B,motherenter,I,enter,240,1,1697.800000011921,791568.7999999821,8072,WL,C,1.0
6,2.250999927520752,distr,57749.00007247925,Mon Nov 03 2025 16:18:55 GMT-0600 (Central Standard Time),793819.1999999881,B,d,I,d,538,1,552.5,793266.6999999881,8072,WL,C,2.0
6,2.450000047683716,distr,57549.999952316284,Mon Nov 03 2025 16:18:55 GMT-0600 (Central Standard Time),794018.1999999881,B,do,I,o,192,1,751.5,793266.6999999881,8072,WL,C,2.0
6,2.682999849319458,distr,57317.00015068054,Mon Nov 03 2025 16:18:55 GMT-0600 (Central Standard Time),794250.900000006,B,dol,I,l,223,1,984.2000000178814,793266.6999999881,8072,WL,C,2.0
6,2.8489999771118164,distr,57151.00002288818,Mon Nov 03 2025 16:18:55 GMT-0600 (Central Standard Time),794417.5,B,doll,I,l,143,1,1150.800000011921,793266.6999999881,8072,WL,C,2.0
6,3.0160000324249268,distr,56983.99996757507,Mon Nov 03 2025 16:18:55 GMT-0600 (Central Standard Time),794584.7999999821,B,dolla,I,a,148,1,1318.0999999940395,793266.6999999881,8072,WL,C,2.0
6,3.2170000076293945,distr,56782.999992370605,Mon Nov 03 2025 16:18:55 GMT-0600 (Central Standard Time),794784.7999999821,B,dollar,I,r,178,1,1518.0999999940395,793266.6999999881,8072,WL,C,2.0
6,4.266999959945679,distr,55733.00004005432,Mon Nov 03 2025 16:18:55 GMT-0600 (Central Standard Time),795835.2999999821,B,dollarenter,I,enter,1035,1,2568.5999999940395,793266.6999999881,8072,WL,C,2.0
6,4.81499981880188,distr,55185.00018119812,Mon Nov 03 2025 16:18:55 GMT-0600 (Central Standard Time),796383.0,B,m,I,m,537,1,547.4000000059605,795835.599999994,8072,WL,C,3.0
6,5.016000032424927,distr,54983.99996757507,Mon Nov 03 2025 16:18:55 GMT-0600 (Central Standard Time),796584.0,B,mo,I,o,186,1,748.4000000059605,795835.599999994,8072,WL,C,3.0
6,5.132999897003174,distr,54867.000102996826,Mon Nov 03 2025 16:18:55 GMT-0600 (Central Standard Time),796701.1999999881,B,mon,I,n,110,1,865.5999999940395,795835.599999994,8072,WL,C,3.0
6,5.349999904632568,distr,54650.00009536743,Mon Nov 03 2025 16:18:55 GMT-0600 (Central Standard Time),796918.0,B,mone,I,e,198,1,1082.4000000059605,795835.599999994,8072,WL,C,3.0
6,5.5980000495910645,distr,54401.999950408936,Mon Nov 03 2025 16:18:55 GMT-0600 (Central Standard Time),797166.099999994,B,money,I,y,238,1,1330.5,795835.599999994,8072,WL,C,3.0
6,5.930999994277954,distr,54069.000005722046,Mon Nov 03 2025 16:18:55 GMT-0600 (Central Standard Time),797499.400000006,B,moneyv,I,v,313,1,1663.800000011921,795835.599999994,8072,WL,C,3.0
6,6.06499981880188,distr,53935.00018119812,Mon Nov 03 2025 16:18:55 GMT-0600 (Central Standard Time),797633.6999999881,B,moneyva,I,a,126,1,1798.0999999940395,795835.599999994,8072,WL,C,3.0
6,6.230999946594238,distr,53769.00005340576,Mon Nov 03 2025 16:18:55 GMT-0600 (Central Standard Time),797799.2999999821,B,moneyval,I,l,142,1,1963.699999988079,795835.599999994,8072,WL,C,3.0
6,6.363999843597412,distr,53636.00015640259,Mon Nov 03 2025 16:18:55 GMT-0600 (Central Standard Time),797932.6999999881,B,moneyvall,I,l,124,1,2097.0999999940395,795835.599999994,8072,WL,C,3.0
6,6.63100004196167,distr,53368.99995803833,Mon Nov 03 2025 16:18:55 GMT-0600 (Central Standard Time),798199.1999999881,B,moneyvalle,I,e,243,1,2363.5999999940395,795835.599999994,8072,WL,C,3.0
6,6.813999891281128,distr,53186.00010871887,Mon Nov 03 2025 16:18:55 GMT-0600 (Central Standard Time),798382.599999994,B,moneyvalley,I,y,169,1,2547.0,795835.599999994,8072,WL,C,3.0
6,7.182999849319458,distr,52817.00015068054,Mon Nov 03 2025 16:18:55 GMT-0600 (Central Standard Time),798750.900000006,B,moneyvalleyenter,I,enter,347,1,2915.300000011921,795835.599999994,8072,WL,C,3.0
6,7.582000017166138,distr,52417.99998283386,Mon Nov 03 2025 16:18:55 GMT-0600 (Central Standard Time),799150.2999999821,B,s,I,s,391,1,399.2999999821186,798751.0,8072,WL,C,4.0
6,7.797999858856201,distr,52202.0001411438,Mon Nov 03 2025 16:18:55 GMT-0600 (Central Standard Time),799366.599999994,B,sk,I,k,204,1,615.5999999940395,798751.0,8072,WL,C,4.0
6,8.06499981880188,distr,51935.00018119812,Mon Nov 03 2025 16:18:55 GMT-0600 (Central Standard Time),799632.900000006,B,sky,I,y,253,1,881.9000000059605,798751.0,8072,WL,C,4.0
6,8.363999843597412,distr,51636.00015640259,Mon Nov 03 2025 16:18:55 GMT-0600 (Central Standard Time),799932.599999994,B,skyenter,I,enter,291,1,1181.5999999940395,798751.0,8072,WL,C,4.0
6,9.228999853134155,distr,50771.000146865845,Mon Nov 03 2025 16:18:55 GMT-0600 (Central Standard Time),800797.7999999821,B,v,I,v,856,1,865.0999999940395,799932.6999999881,8072,WL,C,5.0
6,9.398000001907349,distr,50601.99999809265,Mon Nov 03 2025 16:18:55 GMT-0600 (Central Standard Time),800965.900000006,B,va,I,a,149,1,1033.2000000178814,799932.6999999881,8072,WL,C,5.0
6,9.56499981880188,distr,50435.00018119812,Mon Nov 03 2025 16:18:55 GMT-0600 (Central Standard Time),801133.400000006,B,val,I,l,158,1,1200.7000000178814,799932.6999999881,8072,WL,C,5.0
6,9.69700002670288,distr,50302.99997329712,Mon Nov 03 2025 16:18:55 GMT-0600 (Central Standard Time),801265.400000006,B,vall,I,l,127,1,1332.7000000178814,799932.6999999881,8072,WL,C,5.0
6,9.980000019073486,distr,50019.999980926514,Mon Nov 03 2025 16:18:55 GMT-0600 (Central Standard Time),801548.2999999821,B,valle,I,e,265,1,1615.5999999940395,799932.6999999881,8072,WL,C,5.0
6,10.200000047683716,distr,49799.999952316284,Mon Nov 03 2025 16:18:55 GMT-0600 (Central Standard Time),801768.1999999881,B,valley,I,y,198,1,1835.5,799932.6999999881,8072,WL,C,5.0
6,10.480000019073486,distr,49519.999980926514,Mon Nov 03 2025 16:18:55 GMT-0600 (Central Standard Time),802048.5,B,valleyenter,I,enter,266,1,2115.800000011921,799932.6999999881,8072,WL,C,5.0
6,11.678999900817871,distr,48321.00009918213,Mon Nov 03 2025 16:18:55 GMT-0600 (Central Standard Time),803247.400000006,B,c,I,c,1188,1,1198.7000000178814,802048.6999999881,8072,WL,C,6.0
6,11.828999996185303,distr,48171.0000038147,Mon Nov 03 2025 16:18:55 GMT-0600 (Central Standard Time),803397.400000006,B,ch,I,h,139,1,1348.7000000178814,802048.6999999881,8072,WL,C,6.0
6,12.062000036239624,distr,47937.999963760376,Mon Nov 03 2025 16:18:55 GMT-0600 (Central Standard Time),803630.099999994,B,chr,I,r,224,1,1581.4000000059605,802048.6999999881,8072,WL,C,6.0
6,12.21399998664856,distr,47786.00001335144,Mon Nov 03 2025 16:18:55 GMT-0600 (Central Standard Time),803781.900000006,B,chri,I,i,144,1,1733.2000000178814,802048.6999999881,8072,WL,C,6.0
6,12.246999979019165,distr,47753.000020980835,Mon Nov 03 2025 16:18:55 GMT-0600 (Central Standard Time),803815.099999994,B,chris,I,s,20,1,1766.4000000059605,802048.6999999881,8072,WL,C,6.0
6,12.44700002670288,distr,47552.99997329712,Mon Nov 03 2025 16:18:55 GMT-0600 (Central Standard Time),804015.0,B,christ,I,t,189,1,1966.300000011921,802048.6999999881,8072,WL,C,6.0
6,12.628999948501587,distr,47371.00005149841,Mon Nov 03 2025 16:18:55 GMT-0600 (Central Standard Time),804197.5,B,christm,I,m,163,1,2148.800000011921,802048.6999999881,8072,WL,C,6.0
6,12.748999834060669,distr,47251.00016593933,Mon Nov 03 2025 16:18:55 GMT-0600 (Central Standard Time),804317.400000006,B,christma,I,a,100,1,2268.7000000178814,802048.6999999881,8072,WL,C,6.0
6,13.01199984550476,distr,46988.00015449524,Mon Nov 03 2025 16:18:55 GMT-0600 (Central Standard Time),804580.6999999881,B,christmas,I,s,253,1,2532.0,802048.6999999881,8072,WL,C,6.0
6,13.460999965667725,distr,46539.000034332275,Mon Nov 03 2025 16:18:55 GMT-0600 (Central Standard Time),805029.6999999881,B,christmasenter,I,enter,435,1,2981.0,802048.6999999881,8072,WL,C,6.0
6,14.644999980926514,distr,45355.000019073486,Mon Nov 03 2025 16:18:55 GMT-0600 (Central Standard Time),806213.7999999821,B,m,I,m,1175,1,1183.7999999821186,805030.0,8072,WL,C,7.0
6,14.860999822616577,distr,45139.00017738342,Mon Nov 03 2025 16:18:55 GMT-0600 (Central Standard Time),806429.7999999821,B,me,I,e,203,1,1399.7999999821186,805030.0,8072,WL,C,7.0
6,14.944999933242798,distr,45055.0000667572,Mon Nov 03 2025 16:18:55 GMT-0600 (Central Standard Time),806513.7999999821,B,mea,I,a,69,1,1483.7999999821186,805030.0,8072,WL,C,7.0
6,15.145999908447266,distr,44854.000091552734,Mon Nov 03 2025 16:18:55 GMT-0600 (Central Standard Time),806714.099999994,B,meat,I,t,189,1,1684.0999999940395,805030.0,8072,WL,C,7.0
6,15.428999900817871,distr,44571.00009918213,Mon Nov 03 2025 16:18:55 GMT-0600 (Central Standard Time),806996.900000006,B,meatenter,I,enter,262,1,1966.9000000059605,805030.0,8072,WL,C,7.0
6,21.427000045776367,distr,38572.99995422363,Mon Nov 03 2025 16:18:55 GMT-0600 (Central Standard Time),812995.6999999881,B,w,I,w,5992,1,5998.5999999940395,806997.099999994,8072,WL,C,8.0
6,21.55900001525879,distr,38440.99998474121,Mon Nov 03 2025 16:18:55 GMT-0600 (Central Standard Time),813127.5,B,wi,I,i,121,1,6130.4000000059605,806997.099999994,8072,WL,C,8.0
6,21.67799997329712,distr,38322.00002670288,Mon Nov 03 2025 16:18:55 GMT-0600 (Central Standard Time),813246.400000006,B,win,I,n,109,1,6249.300000011921,806997.099999994,8072,WL,C,8.0
6,22.042999982833862,distr,37957.00001716614,Mon Nov 03 2025 16:18:55 GMT-0600 (Central Standard Time),813611.7999999821,B,wint,I,t,352,1,6614.699999988079,806997.099999994,8072,WL,C,8.0
6,22.26099991798401,distr,37739.00008201599,Mon Nov 03 2025 16:18:55 GMT-0600 (Central Standard Time),813828.900000006,B,winte,I,e,201,1,6831.800000011921,806997.099999994,8072,WL,C,8.0
6,22.342999935150146,distr,37657.00006484985,Mon Nov 03 2025 16:18:55 GMT-0600 (Central Standard Time),813911.599999994,B,winter,I,r,61,1,6914.5,806997.099999994,8072,WL,C,8.0
6,22.592000007629395,distr,37407.999992370605,Mon Nov 03 2025 16:18:55 GMT-0600 (Central Standard Time),814160.0,B,winterenter,I,enter,228,1,7162.9000000059605,806997.099999994,8072,WL,C,8.0
6,28.79199981689453,distr,31208.00018310547,Mon Nov 03 2025 16:18:55 GMT-0600 (Central Standard Time),820360.099999994,B,p,I,p,6180,1,6199.9000000059605,814160.1999999881,8072,WL,C,9.0
6,29.5239999294281,distr,30476.0000705719,Mon Nov 03 2025 16:18:55 GMT-0600 (Central Standard Time),821091.900000006,B,pl,I,l,722,1,6931.700000017881,814160.1999999881,8072,WL,C,9.0
6,29.657999992370605,distr,30342.000007629395,Mon Nov 03 2025 16:18:55 GMT-0600 (Central Standard Time),821226.400000006,B,pla,I,a,127,1,7066.200000017881,814160.1999999881,8072,WL,C,9.0
6,29.85800004005432,distr,30141.99995994568,Mon Nov 03 2025 16:18:55 GMT-0600 (Central Standard Time),821426.1999999881,B,plan,I,n,195,1,7266.0,814160.1999999881,8072,WL,C,9.0
6,30.10699987411499,distr,29893.00012588501,Mon Nov 03 2025 16:18:55 GMT-0600 (Central Standard Time),821675.6999999881,B,plant,I,t,232,1,7515.5,814160.1999999881,8072,WL,C,9.0
6,30.35699987411499,distr,29643.00012588501,Mon Nov 03 2025 16:18:55 GMT-0600 (Central Standard Time),821925.2999999821,B,plantenter,I,enter,238,1,7765.0999999940395,814160.1999999881,8072,WL,C,9.0
6,35.75399994850159,distr,24246.000051498413,Mon Nov 03 2025 16:18:55 GMT-0600 (Central Standard Time),827323.2999999821,B,b,I,b,5383,1,5397.799999982119,821925.5,8072,WL,C,10.0
6,35.937999963760376,distr,24062.000036239624,Mon Nov 03 2025 16:18:55 GMT-0600 (Central Standard Time),827507.1999999881,B,bu,I,u,170,1,5581.699999988079,821925.5,8072,WL,C,10.0
6,36.187999963760376,distr,23812.000036239624,Mon Nov 03 2025 16:18:55 GMT-0600 (Central Standard Time),827757.2999999821,B,but,I,t,241,1,5831.799999982119,821925.5,8072,WL,C,10.0
6,36.32099986076355,distr,23679.00013923645,Mon Nov 03 2025 16:18:55 GMT-0600 (Central Standard Time),827890.5,B,butt,I,t,127,1,5965.0,821925.5,8072,WL,C,10.0
6,36.47199988365173,distr,23528.000116348267,Mon Nov 03 2025 16:18:55 GMT-0600 (Central Standard Time),828040.7999999821,B,butte,I,e,137,1,6115.299999982119,821925.5,8072,WL,C,10.0
6,36.57099986076355,distr,23429.00013923645,Mon Nov 03 2025 16:18:55 GMT-0600 (Central Standard Time),828139.900000006,B,butter,I,r,91,1,6214.4000000059605,821925.5,8072,WL,C,10.0
6,36.704999923706055,distr,23295.000076293945,Mon Nov 03 2025 16:18:55 GMT-0600 (Central Standard Time),828274.1999999881,B,butterenter,I,enter,129,1,6348.699999988079,821925.5,8072,WL,C,10.0
6,60.01699995994568,distr,-16.99995994567871,Mon Nov 03 2025 16:18:55 GMT-0600 (Central Standard Time),851585.6999999881,B,None,I,None,23306,1,23311.29999998212,828274.400000006,8072,WL,C,11.0
7,0.7179999351501465,immed,59282.00006484985,Mon Nov 03 2025 16:18:55 GMT-0600 (Central Standard Time),872010.0,A,b,I,b,696,1,717.5,871292.5,8072,WL,C,1.0
7,1.6669998168945312,immed,58333.00018310547,Mon Nov 03 2025 16:18:55 GMT-0600 (Central Standard Time),872959.0,A,bo,I,o,928,1,1666.5,871292.5,8072,WL,C,1.0
7,1.8839998245239258,immed,58116.000175476074,Mon Nov 03 2025 16:18:55 GMT-0600 (Central Standard Time),873175.6999999881,A,boy,I,y,196,1,1883.199999988079,871292.5,8072,WL,C,1.0
7,2.248999834060669,immed,57751.00016593933,Mon Nov 03 2025 16:18:55 GMT-0600 (Central Standard Time),873541.1999999881,A,boyenter,I,enter,355,1,2248.699999988079,871292.5,8072,WL,C,1.0
7,3.0829999446868896,immed,56917.00005531311,Mon Nov 03 2025 16:18:55 GMT-0600 (Central Standard Time),874374.7999999821,A,d,I,d,814,1,833.3999999761581,873541.400000006,8072,WL,C,2.0
7,3.2669999599456787,immed,56733.00004005432,Mon Nov 03 2025 16:18:55 GMT-0600 (Central Standard Time),874559.0,A,do,I,o,174,1,1017.5999999940395,873541.400000006,8072,WL,C,2.0
7,3.382999897003174,immed,56617.000102996826,Mon Nov 03 2025 16:18:55 GMT-0600 (Central Standard Time),874675.1999999881,A,doc,I,c,102,1,1133.7999999821186,873541.400000006,8072,WL,C,2.0
7,3.6019999980926514,immed,56398.00000190735,Mon Nov 03 2025 16:18:55 GMT-0600 (Central Standard Time),874894.0,A,doct,I,t,199,1,1352.5999999940395,873541.400000006,8072,WL,C,2.0
7,3.7339999675750732,immed,56266.00003242493,Mon Nov 03 2025 16:18:55 GMT-0600 (Central Standard Time),875025.7999999821,A,docto,I,o,119,1,1484.3999999761581,873541.400000006,8072,WL,C,2.0
7,3.866999864578247,immed,56133.00013542175,Mon Nov 03 2025 16:18:55 GMT-0600 (Central Standard Time),875159.400000006,A,doctor,I,r,112,1,1618.0,873541.400000006,8072,WL,C,2.0
7,4.516999959945679,immed,55483.00004005432,Mon Nov 03 2025 16:18:55 GMT-0600 (Central Standard Time),875808.900000006,A,doctorq,I,q,645,1,2267.5,873541.400000006,8072,WL,C,2.0
7,4.75,immed,55250.0,Mon Nov 03 2025 16:18:55 GMT-0600 (Central Standard Time),876042.099999994,A,doctorqu,I,u,219,1,2500.699999988079,873541.400000006,8072,WL,C,2.0
7,4.881999969482422,immed,55118.00003051758,Mon Nov 03 2025 16:18:55 GMT-0600 (Central Standard Time),876174.5,A,doctorque,I,e,113,1,2633.0999999940395,873541.400000006,8072,WL,C,2.0
7,5.0329999923706055,immed,54967.000007629395,Mon Nov 03 2025 16:18:55 GMT-0600 (Central Standard Time),876325.2999999821,A,doctorquee,I,e,135,1,2783.899999976158,873541.400000006,8072,WL,C,2.0
7,5.198999881744385,immed,54801.000118255615,Mon Nov 03 2025 16:18:55 GMT-0600 (Central Standard Time),876491.2999999821,A,doctorqueen,I,n,151,1,2949.899999976158,873541.400000006,8072,WL,C,2.0
7,5.5329999923706055,immed,54467.000007629395,Mon Nov 03 2025 16:18:55 GMT-0600 (Central Standard Time),876824.6999999881,A,doctorqueenenter,I,enter,322,1,3283.2999999821186,873541.400000006,8072,WL,C,2.0
7,6.398999929428101,immed,53601.0000705719,Mon Nov 03 2025 16:18:55 GMT-0600 (Central Standard Time),877690.6999999881,A,t,I,t,851,1,865.6999999880791,876825.0,8072,WL,C,3.0
7,6.615999937057495,immed,53384.000062942505,Mon Nov 03 2025 16:18:55 GMT-0600 (Central Standard Time),877908.0,A,to,I,o,201,1,1083.0,876825.0,8072,WL,C,3.0
7,6.881999969482422,immed,53118.00003051758,Mon Nov 03 2025 16:18:55 GMT-0600 (Central Standard Time),878174.099999994,A,tow,I,w,254,1,1349.0999999940395,876825.0,8072,WL,C,3.0
7,7.099999904632568,immed,52900.00009536743,Mon Nov 03 2025 16:18:55 GMT-0600 (Central Standard Time),878392.400000006,A,towe,I,e,200,1,1567.4000000059605,876825.0,8072,WL,C,3.0
7,7.2149999141693115,immed,52785.00008583069,Mon Nov 03 2025 16:18:55 GMT-0600 (Central Standard Time),878507.400000006,A,tower,I,r,106,1,1682.4000000059605,876825.0,8072,WL,C,3.0
7,7.515999794006348,immed,52484.00020599365,Mon Nov 03 2025 16:18:55 GMT-0600 (Central Standard Time),878807.6999999881,A,towerenter,I,enter,282,1,1982.699999988079,876825.0,8072,WL,C,3.0
7,8.531999826431274,immed,51468.000173568726,Mon Nov 03 2025 16:18:55 GMT-0600 (Central Standard Time),879824.0,A,f,I,f,996,1,1016.0,878808.0,8072,WL,C,4.0
7,8.680999994277954,immed,51319.000005722046,Mon Nov 03 2025 16:18:55 GMT-0600 (Central Standard Time),879973.400000006,A,fl,I,l,139,1,1165.4000000059605,878808.0,8072,WL,C,4.0
7,8.980999946594238,immed,51019.00005340576,Mon Nov 03 2025 16:18:55 GMT-0600 (Central Standard Time),880273.2999999821,A,fla,I,a,295,1,1465.2999999821186,878808.0,8072,WL,C,4.0
7,9.330999851226807,immed,50669.00014877319,Mon Nov 03 2025 16:18:55 GMT-0600 (Central Standard Time),880623.099999994,A,flag,I,g,340,1,1815.0999999940395,878808.0,8072,WL,C,4.0
7,9.663999795913696,immed,50336.000204086304,Mon Nov 03 2025 16:18:55 GMT-0600 (Central Standard Time),880956.5,A,flagenter,I,enter,317,1,2148.5,878808.0,8072,WL,C,4.0
7,12.080999851226807,immed,47919.00014877319,Mon Nov 03 2025 16:18:55 GMT-0600 (Central Standard Time),883373.400000006,A,c,I,c,2408,1,2416.7000000178814,880956.6999999881,8072,WL,C,5.0
7,12.46399998664856,immed,47536.00001335144,Mon Nov 03 2025 16:18:55 GMT-0600 (Central Standard Time),883755.6999999881,A,co,I,o,367,1,2799.0,880956.6999999881,8072,WL,C,5.0
7,12.60099983215332,immed,47399.00016784668,Mon Nov 03 2025 16:18:55 GMT-0600 (Central Standard Time),883893.0,A,cor,I,r,131,1,2936.300000011921,880956.6999999881,8072,WL,C,5.0
7,12.813999891281128,immed,47186.00010871887,Mon Nov 03 2025 16:18:55 GMT-0600 (Central Standard Time),884105.7999999821,A,corn,I,n,199,1,3149.0999999940395,880956.6999999881,8072,WL,C,5.0
7,13.02999997138977,immed,46970.00002861023,Mon Nov 03 2025 16:18:55 GMT-0600 (Central Standard Time),884322.2999999821,A,cornenter,I,enter,211,1,3365.5999999940395,880956.6999999881,8072,WL,C,5.0
7,13.747999906539917,immed,46252.00009346008,Mon Nov 03 2025 16:18:55 GMT-0600 (Central Standard Time),885039.599999994,A,w,I,w,706,1,717.0999999940395,884322.5,8072,WL,C,6.0
7,13.911999940872192,immed,46088.00005912781,Mon Nov 03 2025 16:18:55 GMT-0600 (Central Standard Time),885204.2999999821,A,wh,I,h,157,1,881.7999999821186,884322.5,8072,WL,C,6.0
7,14.11299991607666,immed,45887.00008392334,Mon Nov 03 2025 16:18:55 GMT-0600 (Central Standard Time),885405.2999999821,A,whe,I,e,183,1,1082.7999999821186,884322.5,8072,WL,C,6.0
7,14.229999780654907,immed,45770.00021934509,Mon Nov 03 2025 16:18:55 GMT-0600 (Central Standard Time),885521.900000006,A,whee,I,e,111,1,1199.4000000059605,884322.5,8072,WL,C,6.0
7,14.646999835968018,immed,45353.00016403198,Mon Nov 03 2025 16:18:55 GMT-0600 (Central Standard Time),885938.7999999821,A,whe,I,backspace,402,1,1616.2999999821186,884322.5,8072,WL,C,6.0
7,14.79699993133545,immed,45203.00006866455,Mon Nov 03 2025 16:18:55 GMT-0600 (Central Standard Time),886089.1999999881,A,whee,I,e,138,1,1766.699999988079,884322.5,8072,WL,C,6.0
7,14.914999961853027,immed,45085.00003814697,Mon Nov 03 2025 16:18:55 GMT-0600 (Central Standard Time),886206.5,A,wheea,I,a,106,1,1884.0,884322.5,8072,WL,C,6.0
7,15.095999956130981,immed,44904.00004386902,Mon Nov 03 2025 16:18:55 GMT-0600 (Central Standard Time),886387.7999999821,A,wheeat,I,t,165,1,2065.2999999821186,884322.5,8072,WL,C,6.0
7,15.434999942779541,immed,44565.00005722046,Mon Nov 03 2025 16:18:55 GMT-0600 (Central Standard Time),886727.1999999881,A,wheea,I,backspace,319,1,2404.699999988079,884322.5,8072,WL,C,6.0
7,15.604999780654907,immed,44395.00021934509,Mon Nov 03 2025 16:18:55 GMT-0600 (Central Standard Time),886897.599999994,A,whee,I,backspace,167,1,2575.0999999940395,884322.5,8072,WL,C,6.0
7,15.748999834060669,immed,44251.00016593933,Mon Nov 03 2025 16:18:55 GMT-0600 (Central Standard Time),887041.7999999821,A,whe,I,backspace,130,1,2719.2999999821186,884322.5,8072,WL,C,6.0
7,16.294999837875366,immed,43705.000162124634,Mon Nov 03 2025 16:18:55 GMT-0600 (Central Standard Time),887587.6999999881,A,whea,I,a,540,1,3265.199999988079,884322.5,8072,WL,C,6.0
7,16.461999893188477,immed,43538.00010681152,Mon Nov 03 2025 16:18:55 GMT-0600 (Central Standard Time),887755.099999994,A,wheat,I,t,162,1,3432.5999999940395,884322.5,8072,WL,C,6.0
7,17.311999797821045,immed,42688.000202178955,Mon Nov 03 2025 16:18:55 GMT-0600 (Central Standard Time),888604.400000006,A,wheatenter,I,enter,833,1,4281.9000000059605,884322.5,8072,WL,C,6.0
7,19.459999799728394,immed,40540.00020027161,Mon Nov 03 2025 16:18:55 GMT-0600 (Central Standard Time),890753.0,A,s,I,s,2137,1,2148.4000000059605,888604.599999994,8072,WL,C,7.0
7,19.5939998626709,immed,40406.0001373291,Mon Nov 03 2025 16:18:55 GMT-0600 (Central Standard Time),890886.2999999821,A,sh,I,h,123,1,2281.699999988079,888604.599999994,8072,WL,C,7.0
7,19.694999933242798,immed,40305.0000667572,Mon Nov 03 2025 16:18:55 GMT-0600 (Central Standard Time),890987.400000006,A,sho,I,o,96,1,2382.800000011921,888604.599999994,8072,WL,C,7.0
7,19.961999893188477,immed,40038.00010681152,Mon Nov 03 2025 16:18:55 GMT-0600 (Central Standard Time),891254.2999999821,A,shor,I,r,257,1,2649.699999988079,888604.599999994,8072,WL,C,7.0
7,20.07699990272522,immed,39923.00009727478,Mon Nov 03 2025 16:18:55 GMT-0600 (Central Standard Time),891369.5,A,shore,I,e,102,1,2764.9000000059605,888604.599999994,8072,WL,C,7.0
7,20.360999822616577,immed,39639.00017738342,Mon Nov 03 2025 16:18:55 GMT-0600 (Central Standard Time),891653.6999999881,A,shoreenter,I,enter,266,1,3049.0999999940395,888604.599999994,8072,WL,C,7.0
7,29.107999801635742,immed,30892.000198364258,Mon Nov 03 2025 16:18:55 GMT-0600 (Central Standard Time),900400.7999999821,A,c,I,c,8726,1,8746.899999976158,891653.900000006,8072,WL,C,8.0
7,29.307999849319458,immed,30692.000150680542,Mon Nov 03 2025 16:18:55 GMT-0600 (Central Standard Time),900600.2999999821,A,ca,I,a,187,1,8946.399999976158,891653.900000006,8072,WL,C,8.0
7,29.507999897003174,immed,30492.000102996826,Mon Nov 03 2025 16:18:55 GMT-0600 (Central Standard Time),900800.1999999881,A,cat,I,t,188,1,9146.299999982119,891653.900000006,8072,WL,C,8.0
7,29.658999919891357,immed,30341.000080108643,Mon Nov 03 2025 16:18:55 GMT-0600 (Central Standard Time),900951.5,A,catt,I,t,133,1,9297.59999999404,891653.900000006,8072,WL,C,8.0
7,29.806999921798706,immed,30193.000078201294,Mon Nov 03 2025 16:18:55 GMT-0600 (Central Standard Time),901100.0,A,cattl,I,l,139,1,9446.09999999404,891653.900000006,8072,WL,C,8.0
7,29.923999786376953,immed,30076.000213623047,Mon Nov 03 2025 16:18:55 GMT-0600 (Central Standard Time),901216.7999999821,A,cattle,I,e,95,1,9562.899999976158,891653.900000006,8072,WL,C,8.0
7,30.14199995994568,immed,29858.00004005432,Mon Nov 03 2025 16:18:55 GMT-0600 (Central Standard Time),901434.7999999821,A,cattleenter,I,enter,194,1,9780.899999976158,891653.900000006,8072,WL,C,8.0
7,33.37399983406067,immed,26626.00016593933,Mon Nov 03 2025 16:18:55 GMT-0600 (Central Standard Time),904666.5,A,h,I,h,3209,1,3231.5,901435.0,8072,WL,C,9.0
7,33.472999811172485,immed,26527.000188827515,Mon Nov 03 2025 16:18:55 GMT-0600 (Central Standard Time),904766.1999999881,A,ho,I,o,86,1,3331.199999988079,901435.0,8072,WL,C,9.0
7,33.68999981880188,immed,26310.00018119812,Mon Nov 03 2025 16:18:55 GMT-0600 (Central Standard Time),904982.400000006,A,hom,I,m,198,1,3547.4000000059605,901435.0,8072,WL,C,9.0
