acc_sum,block,block_c,condition,correct,correct_response,datetime,endtime,flanker,jitter,project,response,response_test_buffer_response,response_test_target_response,response_time,response_time_test_buffer_response,response_time_test_target_response,row_sel,session_number,start_end,starttime,subject_id,target,task,task_vers,time_test_buffer,time_test_buffer_response,time_test_constants,time_test_flanker,time_test_jitter,time_test_logger,time_test_target,time_test_target_response,time_test_variables,trial
0,prac,1,con,0,z,Thu Aug 21 2025 17:42:07 GMT-0500 (Central Daylight Time),96136.90000009537,elated,800,O,None,,,1799,,,9,1,4875.100000143051,91261.79999995232,7208,elated,AF,A,,,,,,,,,,1
1,prac,1,inc,1,m,Thu Aug 21 2025 17:42:07 GMT-0500 (Central Daylight Time),99352.20000004768,elated,900,O,m,,,999,,,6,1,3207.7999999523163,96144.40000009537,7208,napkin,AF,A,,,,,,,,,,2
2,prac,1,con,1,z,Thu Aug 21 2025 17:42:07 GMT-0500 (Central Daylight Time),102151.20000004768,brutal,800,O,z,,,692,,,13,1,2791.2999999523163,99359.90000009537,7208,brutal,AF,A,,,,,,,,,,3
3,prac,1,inc,1,z,Thu Aug 21 2025 17:42:07 GMT-0500 (Central Daylight Time),105567.0,napkin,1100,O,z,,,1007,,,12,1,3409.2999999523163,102157.70000004768,7208,friend,AF,A,,,,,,,,,,4
4,prac,1,con,1,m,Thu Aug 21 2025 17:42:07 GMT-0500 (Central Daylight Time),108583.20000004768,remote,1000,O,m,,,700,,,7,1,3009.600000143051,105573.59999990463,7208,remote,AF,A,,,,,,,,,,5
4,prac,1,con,0,z,Thu Aug 21 2025 17:42:07 GMT-0500 (Central Daylight Time),111531.5,rage,1000,O,m,,,647,,,15,1,2940.7999999523163,108590.70000004768,7208,rage,AF,A,,,,,,,,,,6
5,prac,1,inc,1,m,Thu Aug 21 2025 17:42:07 GMT-0500 (Central Daylight Time),114581.79999995232,kind,900,O,m,,,859,,,2,1,3045.899999856949,111535.90000009537,7208,rock,AF,A,,,,,,,,,,7
6,prac,1,con,1,m,Thu Aug 21 2025 17:42:07 GMT-0500 (Central Daylight Time),117643.0,bell,1000,O,m,,,763,,,3,1,3053.9000000953674,114589.09999990463,7208,bell,AF,A,,,,,,,,,,8
7,prac,1,inc,1,z,Thu Aug 21 2025 17:42:07 GMT-0500 (Central Daylight Time),120613.59999990463,rock,900,O,z,,,771,,,10,1,2958.399999856949,117655.20000004768,7208,kind,AF,A,,,,,,,,,,9
8,prac,1,con,1,z,Thu Aug 21 2025 17:42:07 GMT-0500 (Central Daylight Time),123610.59999990463,love,1000,O,z,,,711,,,11,1,2991.7999999523163,120618.79999995232,7208,love,AF,A,,,,,,,,,,10
9,prac,1,inc,1,z,Thu Aug 21 2025 17:42:07 GMT-0500 (Central Daylight Time),126627.59999990463,film,900,O,z,,,815,,,14,1,3010.199999809265,123617.40000009537,7208,hate,AF,A,,,,,,,,,,11
10,prac,1,inc,1,z,Thu Aug 21 2025 17:42:07 GMT-0500 (Central Daylight Time),129777.40000009537,window,1100,O,z,,,742,,,16,1,3144.0,126633.40000009537,7208,temper,AF,A,,,,,,,,,,12
11,prac,1,inc,1,m,Thu Aug 21 2025 17:42:07 GMT-0500 (Central Daylight Time),133007.09999990463,hate,1100,O,m,,,823,,,4,1,3223.5999999046326,129783.5,7208,film,AF,A,,,,,,,,,,13
12,prac,1,inc,1,m,Thu Aug 21 2025 17:42:07 GMT-0500 (Central Daylight Time),136074.79999995232,brutal,1100,O,m,,,665,,,8,1,3061.5999999046326,133013.20000004768,7208,window,AF,A,,,,,,,,,,14
13,prac,1,con,1,m,Thu Aug 21 2025 17:42:07 GMT-0500 (Central Daylight Time),138905.70000004768,step,800,O,m,,,734,,,1,1,2824.7999999523163,136080.90000009537,7208,step,AF,A,,,,,,,,,,15
14,prac,1,con,1,m,Thu Aug 21 2025 17:42:07 GMT-0500 (Central Daylight Time),141621.20000004768,jacket,800,O,m,,,608,,,5,1,2709.0,138912.20000004768,7208,jacket,AF,A,,,,,,,,,,16
1,test,1,con,1,z,Thu Aug 21 2025 17:42:07 GMT-0500 (Central Daylight Time),154933.20000004768,love,900,O,z,z,None,918,718.0,200.0,18,1,2359.4000000953674,152573.79999995232,7208,love,AF,A,151863,151863,150235,151145,150235,152594,151662,151662,152594,1
2,test,1,inc,1,z,Thu Aug 21 2025 17:42:07 GMT-0500 (Central Daylight Time),157432.79999995232,film,1100,O,z,z,None,851,651.0,200.0,56,1,2492.0999999046326,154940.70000004768,7208,rage,AF,A,154428,154428,152602,153712,152602,155094,154227,154227,155094,2
3,test,1,con,1,z,Thu Aug 21 2025 17:42:07 GMT-0500 (Central Daylight Time),159814.29999995232,friend,1000,O,z,z,None,834,635.0,199.0,27,1,2373.2000000476837,157441.09999990463,7208,friend,AF,A,156826,156826,155102,156111,155102,157475,156627,156627,157475,3
4,test,1,con,1,m,Thu Aug 21 2025 17:42:07 GMT-0500 (Central Daylight Time),161747.20000004768,napkin,800,O,m,m,None,596,396.0,200.0,105,1,1926.4000000953674,159820.79999995232,7208,napkin,AF,A,159010,159010,157482,158292,157482,159408,158809,158809,159408,4
5,test,1,inc,1,m,Thu Aug 21 2025 17:42:07 GMT-0500 (Central Daylight Time),163963.79999995232,love,1000,O,m,m,None,668,453.0,215.0,71,1,2211.7999999523163,161752.0,7208,step,AF,A,161159,161160,159413,160427,159413,161625,160944,160944,161625,5
6,test,1,con,1,z,Thu Aug 21 2025 17:42:07 GMT-0500 (Central Daylight Time),166112.09999990463,rage,1000,O,z,z,None,606,404.0,202.0,51,1,2141.0,163971.09999990463,7208,rage,AF,A,163361,163361,161632,162645,161633,163773,163159,163159,163773,6
7,test,1,con,1,z,Thu Aug 21 2025 17:42:07 GMT-0500 (Central Daylight Time),168112.70000004768,rage,900,O,z,z,None,575,360.0,215.0,50,1,1995.0,166117.70000004768,7208,rage,AF,A,165407,165407,163779,164690,163779,165774,165191,165191,165774,7
8,test,1,inc,1,z,Thu Aug 21 2025 17:42:07 GMT-0500 (Central Daylight Time),170227.70000004768,jacket,800,O,z,z,None,770,567.0,203.0,5,1,2108.9000000953674,168118.79999995232,7208,elated,AF,A,167310,167310,165780,166592,165780,167889,167106,167106,167889,8
9,test,1,inc,1,m,Thu Aug 21 2025 17:42:07 GMT-0500 (Central Daylight Time),172344.79999995232,kind,900,O,m,m,None,667,466.0,201.0,70,1,2109.7999999523163,170235.0,7208,step,AF,A,169524,169524,167896,168807,167896,170006,169322,169322,170006,9
10,test,1,inc,1,z,Thu Aug 21 2025 17:42:07 GMT-0500 (Central Daylight Time),174744.20000004768,film,1100,O,z,z,None,760,560.0,200.0,24,1,2392.7999999523163,172351.40000009537,7208,love,AF,A,171839,171839,170012,171123,170013,172405,171638,171638,172405,10
11,test,1,con,1,z,Thu Aug 21 2025 17:42:07 GMT-0500 (Central Daylight Time),177076.09999990463,brutal,1000,O,z,z,None,798,599.0,199.0,35,1,2326.5999999046326,174749.5,7208,brutal,AF,A,174138,174138,172411,173422,172411,174737,173938,173938,174737,11
12,test,1,inc,1,m,Thu Aug 21 2025 17:42:07 GMT-0500 (Central Daylight Time),179292.59999990463,hate,1100,O,m,m,None,585,386.0,199.0,72,1,2211.399999856949,177081.20000004768,7208,step,AF,A,176555,176555,174742,175852,174742,176954,176355,176355,176953,12
13,test,1,con,1,m,Thu Aug 21 2025 17:42:07 GMT-0500 (Central Daylight Time),181492.09999990463,window,1100,O,m,m,None,583,383.0,200.0,124,1,2193.5,179298.59999990463,7208,window,AF,A,178770,178770,176960,178069,176960,179153,178570,178570,179153,13
14,test,1,inc,1,z,Thu Aug 21 2025 17:42:07 GMT-0500 (Central Daylight Time),183657.5,napkin,900,O,z,z,None,718,518.0,200.0,62,1,2159.7999999523163,181497.70000004768,7208,temper,AF,A,180786,180786,179159,180069,179159,181319,180586,180586,181319,14
15,test,1,con,1,m,Thu Aug 21 2025 17:42:07 GMT-0500 (Central Daylight Time),185823.20000004768,jacket,800,O,m,m,None,825,610.0,215.0,97,1,2160.0,183663.20000004768,7208,jacket,AF,A,182866,182866,181324,182137,181324,183484,182651,182651,183484,15
16,test,1,con,1,m,Thu Aug 21 2025 17:42:07 GMT-0500 (Central Daylight Time),187805.79999995232,step,900,O,m,m,None,550,336.0,214.0,66,1,1979.0,185826.79999995232,7208,step,AF,A,185117,185117,183488,184400,183488,185467,184902,184902,185467,16
17,test,1,con,1,z,Thu Aug 21 2025 17:42:07 GMT-0500 (Central Daylight Time),190021.90000009537,hate,1000,O,z,z,None,682,483.0,199.0,43,1,2210.5,187811.40000009537,7208,hate,AF,A,187184,187185,185472,186484,185473,187683,186985,186985,187683,17
18,test,1,inc,1,m,Thu Aug 21 2025 17:42:07 GMT-0500 (Central Daylight Time),192089.29999995232,kind,900,O,m,m,None,631,429.0,202.0,78,1,2060.7999999523163,190028.5,7208,rock,AF,A,189321,189321,187689,188601,187690,189750,189118,189118,189750,18
19,test,1,inc,1,z,Thu Aug 21 2025 17:42:07 GMT-0500 (Central Daylight Time),194071.59999990463,step,800,O,z,z,None,643,444.0,199.0,21,1,1976.7999999523163,192094.79999995232,7208,love,AF,A,191283,191283,189756,190566,189756,191733,191083,191083,191733,19
20,test,1,con,1,z,Thu Aug 21 2025 17:42:07 GMT-0500 (Central Daylight Time),196486.70000004768,love,1100,O,z,z,None,766,567.0,199.0,20,1,2410.100000143051,194076.59999990463,7208,love,AF,A,193565,193566,191738,192849,191738,194148,193366,193366,194148,20
21,test,1,con,1,z,Thu Aug 21 2025 17:42:07 GMT-0500 (Central Daylight Time),198753.09999990463,brutal,900,O,z,z,None,817,617.0,200.0,34,1,2258.199999809265,196494.90000009537,7208,brutal,AF,A,195782,195782,194156,195064,194156,196414,195582,195582,196414,21
22,test,1,inc,1,z,Thu Aug 21 2025 17:42:07 GMT-0500 (Central Daylight Time),200968.79999995232,napkin,900,O,z,z,None,789,573.0,216.0,38,1,2207.899999856949,198760.90000009537,7208,brutal,AF,A,198048,198048,196422,197329,196422,198630,197831,197831,198630,22
23,test,1,con,1,m,Thu Aug 21 2025 17:42:07 GMT-0500 (Central Daylight Time),202918.20000004768,rock,800,O,m,m,None,600,400.0,200.0,73,1,1943.4000000953674,200974.79999995232,7208,rock,AF,A,200164,200164,198636,199447,198636,200579,199963,199963,200579,23
24,test,1,con,1,m,Thu Aug 21 2025 17:42:07 GMT-0500 (Central Daylight Time),205100.29999995232,rock,1000,O,m,m,None,646,446.0,200.0,75,1,2177.7999999523163,202922.5,7208,rock,AF,A,202312,202312,200584,201597,200584,202761,202112,202112,202761,24
25,test,1,inc,1,m,Thu Aug 21 2025 17:42:07 GMT-0500 (Central Daylight Time),207316.79999995232,temper,1000,O,m,m,None,667,453.0,214.0,103,1,2211.2000000476837,205105.59999990463,7208,jacket,AF,A,204512,204512,202767,203779,202767,204978,204297,204297,204978,25
26,test,1,con,1,z,Thu Aug 21 2025 17:42:07 GMT-0500 (Central Daylight Time),209784.5,temper,1100,O,z,z,None,835,633.0,202.0,60,1,2462.9000000953674,207321.59999990463,7208,temper,AF,A,206812,206812,204983,206093,204983,207446,206609,206609,207446,26
27,test,1,con,1,m,Thu Aug 21 2025 17:42:07 GMT-0500 (Central Daylight Time),212082.40000009537,step,1000,O,m,m,None,753,539.0,214.0,67,1,2294.100000143051,209788.29999995232,7208,step,AF,A,209194,209194,207449,208462,207450,209743,208979,208979,209743,27
28,test,1,inc,1,z,Thu Aug 21 2025 17:42:07 GMT-0500 (Central Daylight Time),214081.70000004768,step,800,O,z,z,None,674,473.0,201.0,53,1,1994.2000000476837,212087.5,7208,rage,AF,A,211261,211261,209749,210559,209749,211743,211060,211060,211743,28
29,test,1,con,1,m,Thu Aug 21 2025 17:42:07 GMT-0500 (Central Daylight Time),216147.20000004768,jacket,900,O,m,m,None,627,412.0,215.0,98,1,2059.9000000953674,214087.29999995232,7208,jacket,AF,A,213393,213393,211748,212660,211749,213808,213177,213177,213808,29
30,test,1,con,1,m,Thu Aug 21 2025 17:42:07 GMT-0500 (Central Daylight Time),218196.0,jacket,1000,O,m,m,None,503,303.0,200.0,99,1,2043.2999999523163,216152.70000004768,7208,jacket,AF,A,215542,215542,213814,214826,213814,215857,215341,215341,215857,30
31,test,1,inc,1,m,Thu Aug 21 2025 17:42:07 GMT-0500 (Central Daylight Time),220214.0,rage,800,O,m,m,None,667,453.0,214.0,69,1,2014.7999999523163,218199.20000004768,7208,step,AF,A,217408,217408,215860,216675,215861,217875,217193,217193,217875,31
32,test,1,inc,1,m,Thu Aug 21 2025 17:42:07 GMT-0500 (Central Daylight Time),222445.70000004768,hate,1100,O,m,m,None,611,398.0,213.0,88,1,2226.0,220219.70000004768,7208,bell,AF,A,219705,219705,217881,218991,217881,220107,219492,219492,220107,32
33,test,1,con,1,z,Thu Aug 21 2025 17:42:07 GMT-0500 (Central Daylight Time),224760.20000004768,hate,1100,O,z,z,None,687,475.0,212.0,44,1,2309.4000000953674,222450.79999995232,7208,hate,AF,A,221938,221938,220112,221223,220112,222421,221725,221725,222421,33
34,test,1,con,1,m,Thu Aug 21 2025 17:42:07 GMT-0500 (Central Daylight Time),226927.5,napkin,1000,O,m,m,None,639,425.0,214.0,107,1,2163.0,224764.5,7208,napkin,AF,A,224155,224156,222426,223438,222426,224589,223940,223940,224589,34
35,test,1,con,1,m,Thu Aug 21 2025 17:42:07 GMT-0500 (Central Daylight Time),229158.79999995232,rock,1100,O,m,m,None,582,383.0,199.0,76,1,2225.2000000476837,226933.59999990463,7208,rock,AF,A,226422,226422,224595,225705,224595,226820,226222,226222,226820,35
36,test,1,inc,1,z,Thu Aug 21 2025 17:42:07 GMT-0500 (Central Daylight Time),231492.09999990463,film,1100,O,z,z,None,694,494.0,200.0,16,1,2330.699999809265,229161.40000009537,7208,kind,AF,A,228655,228655,226822,227939,226823,229153,228455,228455,229153,36
37,test,1,con,1,m,Thu Aug 21 2025 17:42:07 GMT-0500 (Central Daylight Time),233475.59999990463,window,800,O,m,m,None,645,446.0,199.0,121,1,1977.8999998569489,231497.70000004768,7208,window,AF,A,230687,230687,229159,229971,229159,231137,230488,230488,231137,37
38,test,1,inc,1,z,Thu Aug 21 2025 17:42:07 GMT-0500 (Central Daylight Time),235558.90000009537,jacket,800,O,z,z,None,734,518.0,216.0,61,1,2078.0,233480.90000009537,7208,temper,AF,A,232687,232687,231142,231954,231142,233220,232470,232470,233220,38
39,test,1,con,1,z,Thu Aug 21 2025 17:42:07 GMT-0500 (Central Daylight Time),237507.29999995232,temper,800,O,z,z,None,604,405.0,199.0,57,1,1943.2000000476837,235564.09999990463,7208,temper,AF,A,234752,234752,233225,234036,233225,235168,234553,234553,235168,39
40,test,1,con,1,z,Thu Aug 21 2025 17:42:07 GMT-0500 (Central Daylight Time),239788.90000009537,elated,1000,O,z,z,None,744,545.0,199.0,3,1,2274.800000190735,237514.09999990463,7208,elated,AF,A,236902,236902,235175,236185,235176,237450,236702,236702,237450,40
41,test,1,inc,1,z,Thu Aug 21 2025 17:42:07 GMT-0500 (Central Daylight Time),241956.0,jacket,800,O,z,z,None,815,616.0,199.0,29,1,2162.9000000953674,239793.09999990463,7208,friend,AF,A,238985,238985,237454,238268,237454,239617,238785,238785,239617,41
42,test,1,con,1,m,Thu Aug 21 2025 17:42:07 GMT-0500 (Central Daylight Time),244022.79999995232,film,800,O,m,m,None,728,512.0,216.0,89,1,2061.2999999523163,241961.5,7208,film,AF,A,241167,241167,239622,240435,239623,241684,240951,240951,241684,42
43,test,1,inc,1,z,Thu Aug 21 2025 17:42:07 GMT-0500 (Central Daylight Time),246054.40000009537,jacket,800,O,z,z,None,694,495.0,199.0,37,1,2027.3000001907349,244027.09999990463,7208,brutal,AF,A,243216,243216,241688,242500,241688,243716,243016,243016,243715,43
44,test,1,inc,1,m,Thu Aug 21 2025 17:42:07 GMT-0500 (Central Daylight Time),248055.20000004768,elated,800,O,m,m,None,653,453.0,200.0,109,1,1995.6000001430511,246059.59999990463,7208,napkin,AF,A,245248,245248,243721,244533,243721,245716,245048,245048,245716,44
45,test,1,con,1,z,Thu Aug 21 2025 17:42:07 GMT-0500 (Central Daylight Time),250318.5,friend,1100,O,z,z,None,614,415.0,199.0,28,1,2257.5999999046326,248060.90000009537,7208,friend,AF,A,247549,247549,245722,246832,245722,247980,247349,247349,247980,45
46,test,1,con,1,z,Thu Aug 21 2025 17:42:07 GMT-0500 (Central Daylight Time),252620.09999990463,kind,900,O,z,z,None,865,649.0,216.0,10,1,2298.7999999523163,250321.29999995232,7208,kind,AF,A,249632,249632,247982,248898,247983,250281,249415,249415,250281,46
47,test,1,con,1,z,Thu Aug 21 2025 17:42:07 GMT-0500 (Central Daylight Time),254834.5,friend,900,O,z,z,None,771,572.0,199.0,26,1,2209.0,252625.5,7208,friend,AF,A,251913,251913,250287,251197,250287,252496,251713,251713,252496,47
48,test,1,con,1,m,Thu Aug 21 2025 17:42:07 GMT-0500 (Central Daylight Time),256934.09999990463,remote,1000,O,m,m,None,561,361.0,200.0,115,1,2095.2999999523163,254838.79999995232,7208,remote,AF,A,254229,254229,252500,253514,252500,254595,254029,254029,254595,48
49,test,1,con,1,z,Thu Aug 21 2025 17:42:07 GMT-0500 (Central Daylight Time),259067.0,temper,900,O,z,z,None,687,487.0,200.0,58,1,2127.9000000953674,256939.09999990463,7208,temper,AF,A,256230,256230,254600,255513,254600,256728,256029,256029,256728,49
50,test,1,con,1,z,Thu Aug 21 2025 17:42:07 GMT-0500 (Central Daylight Time),261015.5,elated,800,O,z,z,None,617,418.0,199.0,1,1,1943.9000000953674,259071.59999990463,7208,elated,AF,A,258244,258244,256733,257543,256733,258677,258044,258044,258677,50
51,test,1,inc,1,m,Thu Aug 21 2025 17:42:07 GMT-0500 (Central Daylight Time),263031.5,brutal,900,O,m,m,None,574,374.0,200.0,126,1,2008.4000000953674,261023.09999990463,7208,window,AF,A,260311,260311,258684,259593,258684,260693,260110,260110,260693,51
52,test,1,inc,1,z,Thu Aug 21 2025 17:42:07 GMT-0500 (Central Daylight Time),265314.90000009537,remote,1000,O,z,z,None,735,536.0,199.0,31,1,2275.0,263039.90000009537,7208,friend,AF,A,262426,262426,260701,261710,260701,262976,262226,262226,262976,52
53,test,1,con,1,z,Thu Aug 21 2025 17:42:07 GMT-0500 (Central Daylight Time),267398.0,brutal,800,O,z,z,None,736,536.0,200.0,33,1,2076.2999999523163,265321.7000000477,7208,brutal,AF,A,264509,264509,262983,263792,262983,265059,264308,264308,265059,53
54,test,1,con,1,m,Thu Aug 21 2025 17:42:07 GMT-0500 (Central Daylight Time),269329.2999999523,remote,800,O,m,m,None,589,389.0,200.0,113,1,1925.3999998569489,267403.90000009537,7208,remote,AF,A,266592,266592,265065,265875,265065,266990,266391,266391,266990,54
55,test,1,inc,1,m,Thu Aug 21 2025 17:42:07 GMT-0500 (Central Daylight Time),271378.90000009537,brutal,900,O,m,m,None,620,405.0,215.0,110,1,2041.3000001907349,269337.59999990463,7208,napkin,AF,A,268624,268624,266999,267907,266999,269040,268408,268408,269040,55
56,test,1,con,1,m,Thu Aug 21 2025 17:42:07 GMT-0500 (Central Daylight Time),273311.90000009537,bell,800,O,m,m,None,606,407.0,199.0,81,1,1926.8000001907349,271385.09999990463,7208,bell,AF,A,270558,270558,269046,269857,269046,270973,270358,270358,270973,56
57,test,1,inc,1,m,Thu Aug 21 2025 17:42:07 GMT-0500 (Central Daylight Time),275294.2000000477,rage,800,O,m,m,None,632,418.0,214.0,77,1,1974.5,273319.7000000477,7208,rock,AF,A,272523,272523,270981,271791,270981,272955,272307,272308,272955,57
58,test,1,inc,1,m,Thu Aug 21 2025 17:42:07 GMT-0500 (Central Daylight Time),277460.09999990463,temper,1000,O,m,m,None,635,420.0,215.0,111,1,2157.399999856949,275302.7000000477,7208,napkin,AF,A,274689,274689,272964,273972,272964,275121,274473,274473,275121,58
59,test,1,con,1,z,Thu Aug 21 2025 17:42:07 GMT-0500 (Central Daylight Time),279892.7999999523,rage,1100,O,z,z,None,786,586.0,200.0,52,1,2426.0999999046326,277466.7000000477,7208,rage,AF,A,276955,276955,275128,276239,275128,277554,276754,276755,277554,59
60,test,1,con,1,z,Thu Aug 21 2025 17:42:07 GMT-0500 (Central Daylight Time),281876.2000000477,love,800,O,z,z,None,639,440.0,199.0,17,1,1975.7999999523163,279900.40000009537,7208,love,AF,A,279087,279087,277561,278371,277562,279537,278888,278888,279537,60
61,test,1,con,1,z,Thu Aug 21 2025 17:42:07 GMT-0500 (Central Daylight Time),283909.2000000477,kind,800,O,z,z,None,687,487.0,200.0,9,1,2026.9000000953674,281882.2999999523,7208,kind,AF,A,281070,281070,279543,280353,279544,281570,280870,280870,281570,61
61,test,1,inc,0,z,Thu Aug 21 2025 17:42:07 GMT-0500 (Central Daylight Time),286008.0,remote,1000,O,m,m,None,552,352.0,200.0,63,1,2090.7999999523163,283917.2000000477,7208,temper,AF,A,283302,283302,281578,282586,281578,283669,283102,283102,283669,62
62,test,1,inc,1,z,Thu Aug 21 2025 17:42:07 GMT-0500 (Central Daylight Time),288340.7000000477,bell,1000,O,z,z,None,795,595.0,200.0,15,1,2329.100000143051,286011.59999990463,7208,kind,AF,A,285402,285402,283673,284685,283673,286002,285202,285202,286002,63
63,test,1,con,1,z,Thu Aug 21 2025 17:42:07 GMT-0500 (Central Daylight Time),290472.90000009537,hate,800,O,z,z,None,790,591.0,199.0,41,1,2126.300000190735,288346.59999990463,7208,hate,AF,A,287534,287534,286008,286818,286008,288134,287335,287335,288134,64
64,test,1,con,1,m,Thu Aug 21 2025 17:42:07 GMT-0500 (Central Daylight Time),292423.0,step,800,O,m,m,None,602,401.0,201.0,65,1,1943.5,290479.5,7208,step,AF,A,289669,289669,288141,288952,288141,290084,289468,289468,290084,65
65,test,1,inc,1,m,Thu Aug 21 2025 17:42:07 GMT-0500 (Central Daylight Time),294354.40000009537,elated,800,O,m,m,None,593,394.0,199.0,101,1,1925.0,292429.40000009537,7208,jacket,AF,A,291618,291618,290090,290902,290091,292016,291418,291418,292015,66
66,test,1,con,1,m,Thu Aug 21 2025 17:42:07 GMT-0500 (Central Daylight Time),296689.09999990463,step,1100,O,m,m,None,683,484.0,199.0,68,1,2331.899999856949,294357.2000000477,7208,step,AF,A,293851,293851,292018,293134,292018,294350,293651,293651,294350,67
67,test,1,inc,1,z,Thu Aug 21 2025 17:42:07 GMT-0500 (Central Daylight Time),299005.5,window,1100,O,z,z,None,670,470.0,200.0,64,1,2311.2999999523163,296694.2000000477,7208,temper,AF,A,296183,296183,294355,295466,294355,296667,295983,295983,296666,68
68,test,1,con,1,z,Thu Aug 21 2025 17:42:07 GMT-0500 (Central Daylight Time),301303.59999990463,kind,1000,O,z,z,None,761,560.0,201.0,11,1,2292.2999999523163,299011.2999999523,7208,kind,AF,A,298399,298399,296672,297683,296673,298965,298198,298198,298965,69
69,test,1,inc,1,m,Thu Aug 21 2025 17:42:07 GMT-0500 (Central Daylight Time),303517.7999999523,brutal,900,O,m,m,None,774,575.0,199.0,118,1,2208.5999999046326,301309.2000000477,7208,remote,AF,A,300598,300599,298970,299882,298971,301179,300399,300399,301179,70
70,test,1,inc,1,z,Thu Aug 21 2025 17:42:07 GMT-0500 (Central Daylight Time),305651.7999999523,rock,900,O,z,z,None,685,470.0,215.0,54,1,2131.2999999523163,303520.5,7208,rage,AF,A,302831,302831,301182,302097,301182,303313,302615,302615,303313,71
71,test,1,inc,1,m,Thu Aug 21 2025 17:42:07 GMT-0500 (Central Daylight Time),307766.90000009537,elated,800,O,m,m,None,766,566.0,200.0,117,1,2109.300000190735,305657.59999990463,7208,remote,AF,A,304847,304847,303319,304130,303319,305428,304646,304647,305428,72
72,test,1,con,1,z,Thu Aug 21 2025 17:42:07 GMT-0500 (Central Daylight Time),310050.7000000477,elated,1100,O,z,z,None,639,439.0,200.0,4,1,2274.9000000953674,307775.7999999523,7208,elated,AF,A,307262,307262,305437,306547,305437,307712,307062,307062,307712,73
73,test,1,inc,1,z,Thu Aug 21 2025 17:42:07 GMT-0500 (Central Daylight Time),312217.09999990463,remote,1000,O,z,z,None,617,417.0,200.0,7,1,2161.7999999523163,310055.2999999523,7208,elated,AF,A,309446,309446,307716,308729,307717,309878,309246,309246,309878,74
74,test,1,inc,1,m,Thu Aug 21 2025 17:42:07 GMT-0500 (Central Daylight Time),314416.90000009537,love,1000,O,m,m,None,650,451.0,199.0,79,1,2193.7000000476837,312223.2000000477,7208,rock,AF,A,311612,311612,309884,310895,309884,312078,311412,311412,312078,75
75,test,1,con,1,m,Thu Aug 21 2025 17:42:07 GMT-0500 (Central Daylight Time),316632.2000000477,remote,900,O,m,m,None,791,591.0,200.0,114,1,2210.600000143051,314421.59999990463,7208,remote,AF,A,313695,313695,312083,312993,312083,314293,313494,313494,314293,76
76,test,1,inc,1,m,Thu Aug 21 2025 17:42:07 GMT-0500 (Central Daylight Time),318681.2999999523,kind,900,O,m,m,None,606,407.0,199.0,86,1,2044.3999998569489,316636.90000009537,7208,bell,AF,A,315926,315927,314298,315211,314298,316342,315727,315727,316342,77
77,test,1,inc,1,m,Thu Aug 21 2025 17:42:07 GMT-0500 (Central Daylight Time),320832.2000000477,love,1000,O,m,m,None,609,409.0,200.0,87,1,2144.5,318687.7000000477,7208,bell,AF,A,318076,318076,316349,317359,316349,318493,317875,317875,318493,78
78,test,1,con,1,z,Thu Aug 21 2025 17:42:07 GMT-0500 (Central Daylight Time),322996.5,hate,900,O,z,z,None,728,528.0,200.0,42,1,2160.5,320836.0,7208,hate,AF,A,320125,320125,318497,319408,318497,320658,319925,319925,320657,79
79,test,1,inc,1,z,Thu Aug 21 2025 17:42:07 GMT-0500 (Central Daylight Time),325329.2000000477,remote,1000,O,z,z,None,790,575.0,215.0,39,1,2327.600000143051,323001.59999990463,7208,brutal,AF,A,322408,322408,320663,321675,320663,322990,322193,322193,322990,80
80,test,1,inc,1,z,Thu Aug 21 2025 17:42:07 GMT-0500 (Central Daylight Time),327695.0,window,1100,O,z,z,None,741,527.0,214.0,40,1,2360.4000000953674,325334.59999990463,7208,brutal,AF,A,324824,324824,322996,324107,322996,325356,324609,324609,325356,81
81,test,1,inc,1,z,Thu Aug 21 2025 17:42:07 GMT-0500 (Central Daylight Time),329927.7999999523,bell,1000,O,z,z,None,706,506.0,200.0,47,1,2228.0,327699.7999999523,7208,hate,AF,A,327074,327074,325361,326371,325361,327589,326873,326873,327589,82
82,test,1,inc,1,m,Thu Aug 21 2025 17:42:07 GMT-0500 (Central Daylight Time),332245.09999990463,hate,1100,O,m,m,None,677,478.0,199.0,96,1,2314.5999999046326,329930.5,7208,film,AF,A,329423,329423,327592,328706,327592,329906,329224,329224,329906,83
83,test,1,con,1,z,Thu Aug 21 2025 17:42:07 GMT-0500 (Central Daylight Time),334592.7000000477,brutal,1100,O,z,z,None,708,508.0,200.0,36,1,2343.100000143051,332249.59999990463,7208,brutal,AF,A,331739,331739,329911,331023,329911,332254,331539,331539,332254,84
84,test,1,inc,1,m,Thu Aug 21 2025 17:42:07 GMT-0500 (Central Daylight Time),336692.59999990463,rage,800,O,m,m,None,754,553.0,201.0,85,1,2096.5999999046326,334596.0,7208,bell,AF,A,333788,333788,332257,333071,332257,334354,333587,333587,334354,85
85,test,1,con,1,m,Thu Aug 21 2025 17:42:07 GMT-0500 (Central Daylight Time),338758.09999990463,rock,900,O,m,m,None,625,426.0,199.0,74,1,2059.5999999046326,336698.5,7208,rock,AF,A,335988,335988,334360,335271,334360,336419,335788,335788,336419,86
86,test,1,con,1,m,Thu Aug 21 2025 17:42:07 GMT-0500 (Central Daylight Time),340757.5,window,900,O,m,m,None,567,352.0,215.0,122,1,1994.7999999523163,338762.7000000477,7208,window,AF,A,338053,338053,336424,337336,336424,338419,337837,337837,338419,87
87,test,1,con,1,m,Thu Aug 21 2025 17:42:07 GMT-0500 (Central Daylight Time),342972.0,jacket,1100,O,m,m,None,567,367.0,200.0,100,1,2209.2000000476837,340762.7999999523,7208,jacket,AF,A,340253,340253,338424,339534,338424,340633,340052,340052,340633,88
88,test,1,con,1,z,Thu Aug 21 2025 17:42:07 GMT-0500 (Central Daylight Time),345322.2999999523,temper,1000,O,z,z,None,807,606.0,201.0,59,1,2345.399999856949,342976.90000009537,7208,temper,AF,A,342369,342369,340638,341651,340638,342983,342168,342168,342983,89
89,test,1,inc,1,m,Thu Aug 21 2025 17:42:07 GMT-0500 (Central Daylight Time),347324.0,rage,800,O,m,m,None,651,452.0,199.0,93,1,1996.0,345328.0,7208,film,AF,A,344517,344517,342989,343801,342989,344985,344318,344318,344985,90
90,test,1,inc,1,z,Thu Aug 21 2025 17:42:07 GMT-0500 (Central Daylight Time),349489.0,step,800,O,z,z,None,823,624.0,199.0,45,1,2160.0999999046326,347328.90000009537,7208,hate,AF,A,346516,346517,344990,345800,344990,347150,346317,346317,347150,91
91,test,1,con,1,z,Thu Aug 21 2025 17:42:07 GMT-0500 (Central Daylight Time),351637.5,elated,900,O,z,z,None,702,502.0,200.0,2,1,2143.5,349494.0,7208,elated,AF,A,348783,348783,347155,348066,347155,349299,348583,348583,349299,92
92,test,1,inc,1,z,Thu Aug 21 2025 17:42:07 GMT-0500 (Central Daylight Time),353819.40000009537,rock,900,O,z,z,None,736,537.0,199.0,14,1,2176.600000143051,351642.7999999523,7208,kind,AF,A,350932,350932,349304,350216,349304,351480,350733,350733,351480,93
93,test,1,con,1,m,Thu Aug 21 2025 17:42:07 GMT-0500 (Central Daylight Time),356153.2000000477,remote,1100,O,m,m,None,684,483.0,201.0,116,1,2329.7999999523163,353823.40000009537,7208,remote,AF,A,353315,353315,351484,352597,351485,353814,353114,353114,353814,94
94,test,1,con,1,z,Thu Aug 21 2025 17:42:07 GMT-0500 (Central Daylight Time),358168.90000009537,friend,800,O,z,z,None,676,475.0,201.0,25,1,2011.3000001907349,356157.59999990463,7208,friend,AF,A,355348,355348,353819,354631,353819,355830,355146,355146,355830,95
95,test,1,inc,1,m,Thu Aug 21 2025 17:42:07 GMT-0500 (Central Daylight Time),360467.2000000477,friend,1100,O,m,m,None,652,453.0,199.0,112,1,2292.600000143051,358174.59999990463,7208,napkin,AF,A,357664,357664,355836,356948,355836,358128,357464,357464,358128,96
96,test,1,con,1,m,Thu Aug 21 2025 17:42:07 GMT-0500 (Central Daylight Time),363200.5,film,900,O,m,m,None,1283,1084.0,199.0,90,1,2729.4000000953674,360471.09999990463,7208,film,AF,A,359762,359762,358132,359047,358132,360862,359563,359563,360861,97
97,test,1,inc,1,m,Thu Aug 21 2025 17:42:07 GMT-0500 (Central Daylight Time),365482.90000009537,hate,1100,O,m,m,None,633,434.0,199.0,80,1,2278.0,363204.90000009537,7208,rock,AF,A,362695,362695,360866,361979,360866,363144,362495,362495,363144,98
98,test,1,inc,1,z,Thu Aug 21 2025 17:42:07 GMT-0500 (Central Daylight Time),367598.2999999523,rock,900,O,z,z,None,676,476.0,200.0,46,1,2110.899999856949,365487.40000009537,7208,hate,AF,A,364778,364778,363148,364062,363149,365259,364578,364578,365259,99
99,test,1,inc,1,m,Thu Aug 21 2025 17:42:07 GMT-0500 (Central Daylight Time),369580.59999990463,elated,800,O,m,m,None,644,444.0,200.0,125,1,1978.2999999523163,367602.2999999523,7208,window,AF,A,366793,366793,365263,366078,365264,367242,366592,366592,367242,100
100,test,1,con,1,m,Thu Aug 21 2025 17:42:07 GMT-0500 (Central Daylight Time),371729.7999999523,napkin,1100,O,m,m,None,506,305.0,201.0,108,1,2144.2999999523163,369585.5,7208,napkin,AF,A,369077,369077,367247,368360,367247,369391,368875,368875,369391,101
101,test,1,inc,1,m,Thu Aug 21 2025 17:42:07 GMT-0500 (Central Daylight Time),373980.09999990463,friend,1100,O,m,m,None,602,403.0,199.0,104,1,2246.5,371733.59999990463,7208,jacket,AF,A,371226,371226,369395,370508,369395,371641,371026,371026,371641,102
102,test,1,con,1,m,Thu Aug 21 2025 17:42:07 GMT-0500 (Central Daylight Time),376029.5,napkin,900,O,m,m,None,601,402.0,199.0,106,1,2044.0,373985.5,7208,napkin,AF,A,373275,373275,371647,372558,371647,373691,373076,373076,373691,103
103,test,1,inc,1,z,Thu Aug 21 2025 17:42:07 GMT-0500 (Central Daylight Time),378461.7000000477,film,1100,O,z,z,None,794,595.0,199.0,48,1,2427.2000000476837,376034.5,7208,hate,AF,A,375524,375524,373696,374808,373696,376123,375324,375324,376123,104
104,test,1,inc,1,m,Thu Aug 21 2025 17:42:07 GMT-0500 (Central Daylight Time),380512.40000009537,kind,900,O,m,m,None,602,401.0,201.0,94,1,2046.1000001430511,378466.2999999523,7208,film,AF,A,377757,377757,376127,377040,376128,378174,377556,377556,378173,105
105,test,1,inc,1,m,Thu Aug 21 2025 17:42:07 GMT-0500 (Central Daylight Time),382794.09999990463,friend,1100,O,m,m,None,640,440.0,200.0,120,1,2276.0999999046326,380518.0,7208,remote,AF,A,380005,380005,378179,379288,378179,380455,379805,379805,380455,106
106,test,1,inc,1,z,Thu Aug 21 2025 17:42:07 GMT-0500 (Central Daylight Time),384977.0,rock,900,O,z,z,None,742,541.0,201.0,22,1,2180.0999999046326,382796.90000009537,7208,love,AF,A,382088,382088,380458,381372,380458,382638,381887,381887,382638,107
107,test,1,inc,1,z,Thu Aug 21 2025 17:42:07 GMT-0500 (Central Daylight Time),387358.2999999523,bell,1000,O,z,z,None,835,634.0,201.0,55,1,2374.2000000476837,384984.09999990463,7208,rage,AF,A,384371,384371,382645,383654,382645,385019,384170,384170,385019,108
108,test,1,inc,1,z,Thu Aug 21 2025 17:42:07 GMT-0500 (Central Daylight Time),389591.2999999523,step,800,O,z,z,None,893,693.0,200.0,13,1,2222.5999999046326,387368.7000000477,7208,kind,AF,A,386552,386552,385030,385836,385030,387252,386352,386352,387252,109
109,test,1,inc,1,m,Thu Aug 21 2025 17:42:07 GMT-0500 (Central Daylight Time),391607.2000000477,brutal,900,O,m,m,None,575,375.0,200.0,102,1,2008.2000000476837,389599.0,7208,jacket,AF,A,388887,388887,387260,388169,387260,389268,388686,388686,389268,110
110,test,1,con,1,m,Thu Aug 21 2025 17:42:07 GMT-0500 (Central Daylight Time),393956.59999990463,film,1000,O,m,m,None,810,610.0,200.0,91,1,2339.699999809265,391616.90000009537,7208,film,AF,A,391002,391002,389278,390285,389278,391618,390801,390801,391618,111
111,test,1,inc,1,z,Thu Aug 21 2025 17:42:07 GMT-0500 (Central Daylight Time),396006.59999990463,napkin,900,O,z,z,None,609,410.0,199.0,30,1,2045.7999999523163,393960.7999999523,7208,friend,AF,A,393251,393251,391622,392535,391622,393668,393051,393051,393668,112
112,test,1,con,1,m,Thu Aug 21 2025 17:42:07 GMT-0500 (Central Daylight Time),398287.5,film,1100,O,m,m,None,634,434.0,200.0,92,1,2273.5,396014.0,7208,film,AF,A,395499,395499,393675,394783,393675,395949,395299,395299,395949,113
113,test,1,con,1,m,Thu Aug 21 2025 17:42:07 GMT-0500 (Central Daylight Time),400338.5,bell,1000,O,m,m,None,516,315.0,201.0,83,1,2048.2999999523163,398290.2000000477,7208,bell,AF,A,397683,397684,395951,396966,395952,398000,397482,397482,398000,114
114,test,1,con,1,z,Thu Aug 21 2025 17:42:07 GMT-0500 (Central Daylight Time),402688.2000000477,kind,1100,O,z,z,None,703,503.0,200.0,12,1,2343.9000000953674,400344.2999999523,7208,kind,AF,A,399831,399831,398005,399115,398006,400349,399631,399631,400349,115
115,test,1,con,1,m,Thu Aug 21 2025 17:42:07 GMT-0500 (Central Daylight Time),404670.40000009537,bell,900,O,m,m,None,536,336.0,200.0,82,1,1972.6000001430511,402697.7999999523,7208,bell,AF,A,401981,401981,400359,401264,400359,402331,401781,401781,402331,116
116,test,1,inc,1,m,Thu Aug 21 2025 17:42:07 GMT-0500 (Central Daylight Time),406802.2999999523,temper,1000,O,m,m,None,599,399.0,200.0,119,1,2123.5,404678.7999999523,7208,remote,AF,A,404064,404064,402340,403348,402340,404463,403864,403864,404463,117
117,test,1,inc,1,m,Thu Aug 21 2025 17:42:07 GMT-0500 (Central Daylight Time),408968.2999999523,temper,1000,O,m,m,None,625,425.0,200.0,127,1,2159.5999999046326,406808.7000000477,7208,window,AF,A,406196,406196,404470,405480,404470,406629,405996,405996,406629,118
118,test,1,con,1,z,Thu Aug 21 2025 17:42:07 GMT-0500 (Central Daylight Time),410951.2999999523,rage,800,O,z,z,None,643,442.0,201.0,49,1,1975.2999999523163,408976.0,7208,rage,AF,A,408163,408163,406637,407447,406637,408612,407962,407962,408612,119
118,test,1,con,0,z,Thu Aug 21 2025 17:42:07 GMT-0500 (Central Daylight Time),413251.2000000477,love,1000,O,m,m,None,766,565.0,201.0,19,1,2295.100000143051,410956.09999990463,7208,love,AF,A,410347,410347,408617,409631,408617,410912,410145,410145,410912,120
119,test,1,inc,1,m,Thu Aug 21 2025 17:42:07 GMT-0500 (Central Daylight Time),415499.5,friend,1100,O,m,m,None,613,412.0,201.0,128,1,2242.5,413257.0,7208,window,AF,A,412745,412745,410918,412029,410919,413161,412544,412544,413161,121
120,test,1,inc,1,z,Thu Aug 21 2025 17:42:07 GMT-0500 (Central Daylight Time),417899.5,bell,1000,O,z,z,None,861,660.0,201.0,23,1,2394.2999999523163,415505.2000000477,7208,love,AF,A,414896,414897,413166,414178,413167,415561,414695,414695,415561,122
121,test,1,con,1,m,Thu Aug 21 2025 17:42:07 GMT-0500 (Central Daylight Time),420132.7999999523,window,1000,O,m,m,None,682,483.0,199.0,123,1,2228.2999999523163,417904.5,7208,window,AF,A,417294,417294,415566,416579,415566,417794,417094,417094,417794,123
122,test,1,con,1,m,Thu Aug 21 2025 17:42:07 GMT-0500 (Central Daylight Time),422449.2000000477,bell,1100,O,m,m,None,667,468.0,199.0,84,1,2311.5,420137.7000000477,7208,bell,AF,A,419626,419626,417799,418910,417799,420110,419427,419427,420110,124
123,test,1,inc,1,z,Thu Aug 21 2025 17:42:07 GMT-0500 (Central Daylight Time),424595.7000000477,napkin,900,O,z,z,None,710,511.0,199.0,6,1,2140.7000000476837,422455.0,7208,elated,AF,A,421742,421742,420116,421026,420117,422257,421543,421543,422257,125
124,test,1,inc,1,z,Thu Aug 21 2025 17:42:07 GMT-0500 (Central Daylight Time),426996.90000009537,window,1100,O,z,z,None,776,577.0,199.0,8,1,2396.800000190735,424600.09999990463,7208,elated,AF,A,424077,424077,422261,423375,422261,424658,423877,423877,424658,126
125,test,1,inc,1,m,Thu Aug 21 2025 17:42:07 GMT-0500 (Central Daylight Time),429229.09999990463,love,1000,O,m,m,None,685,486.0,199.0,95,1,2226.7999999523163,427002.2999999523,7208,film,AF,A,426391,426391,424663,425675,424664,426890,426191,426191,426890,127
126,test,1,inc,1,z,Thu Aug 21 2025 17:42:07 GMT-0500 (Central Daylight Time),431527.0,window,1100,O,z,z,None,656,440.0,216.0,32,1,2292.7999999523163,429234.2000000477,7208,friend,AF,A,428740,428740,426895,428007,426896,429188,428524,428524,429188,128
