block_c,block_dur,condition,countdown,datetime,endtime,list,multichar_response,project,response,response_time,session_number,start_end,starttime,subject_id,task,task_vers,trial
,,,,Thu Jul 31 2025 14:05:13 GMT-0500 (Central Daylight Time),,,,I,space,357,2,,,8046,WL,A,
prac,,0,,Thu Jul 31 2025 14:05:13 GMT-0500 (Central Daylight Time),,NA,b,I,b,3560,2,,,8046,WL,A,1.0
prac,,0,,Thu Jul 31 2025 14:05:13 GMT-0500 (Central Daylight Time),,NA,bo,I,o,540,2,,,8046,WL,A,1.0
prac,,0,,Thu Jul 31 2025 14:05:13 GMT-0500 (Central Daylight Time),,NA,boo,I,o,200,2,,,8046,WL,A,1.0
prac,,0,,Thu Jul 31 2025 14:05:13 GMT-0500 (Central Daylight Time),,NA,boos,I,s,72,2,,,8046,WL,A,1.0
prac,,0,,Thu Jul 31 2025 14:05:13 GMT-0500 (Central Daylight Time),,NA,boost,I,t,379,2,,,8046,WL,A,1.0
prac,,0,,Thu Jul 31 2025 14:05:13 GMT-0500 (Central Daylight Time),,NA,boostenter,I,enter,860,2,,,8046,WL,A,1.0
1,1.0329999923706055,learn,58967.000007629395,Thu Jul 31 2025 14:05:13 GMT-0500 (Central Daylight Time),114329.5,A,t,I,t,1028,2,1032.7999999998137,113296.70000000019,8046,WL,A,1.0
1,1.432999849319458,learn,58567.00015068054,Thu Jul 31 2025 14:05:13 GMT-0500 (Central Daylight Time),114729.09999999963,A,tr,I,r,393,2,1432.3999999994412,113296.70000000019,8046,WL,A,1.0
1,1.6329998970031738,learn,58367.000102996826,Thu Jul 31 2025 14:05:13 GMT-0500 (Central Daylight Time),114929.09999999963,A,tra,I,a,185,2,1632.3999999994412,113296.70000000019,8046,WL,A,1.0
1,1.816999912261963,learn,58183.00008773804,Thu Jul 31 2025 14:05:13 GMT-0500 (Central Daylight Time),115113.09999999963,A,trai,I,i,170,2,1816.3999999994412,113296.70000000019,8046,WL,A,1.0
1,2.0329999923706055,learn,57967.000007629395,Thu Jul 31 2025 14:05:13 GMT-0500 (Central Daylight Time),115329.20000000019,A,train,I,n,194,2,2032.5,113296.70000000019,8046,WL,A,1.0
1,3.2159998416900635,learn,56784.00015830994,Thu Jul 31 2025 14:05:13 GMT-0500 (Central Daylight Time),116511.90000000037,A,trainenter,I,enter,1161,2,3215.2000000001863,113296.70000000019,8046,WL,A,1.0
1,4.480999946594238,learn,55519.00005340576,Thu Jul 31 2025 14:05:13 GMT-0500 (Central Daylight Time),117778.0,A,b,I,b,1260,2,1265.4000000003725,116512.59999999963,8046,WL,A,2.0
1,4.864999771118164,learn,55135.000228881836,Thu Jul 31 2025 14:05:13 GMT-0500 (Central Daylight Time),118161.29999999981,A,ba,I,a,378,2,1648.7000000001863,116512.59999999963,8046,WL,A,2.0
1,5.71399998664856,learn,54286.00001335144,Thu Jul 31 2025 14:05:13 GMT-0500 (Central Daylight Time),119011.09999999963,A,b,I,backspace,835,2,2498.5,116512.59999999963,8046,WL,A,2.0
1,5.947999954223633,learn,54052.00004577637,Thu Jul 31 2025 14:05:13 GMT-0500 (Central Daylight Time),119244.40000000037,A,,I,backspace,216,2,2731.800000000745,116512.59999999963,8046,WL,A,2.0
1,6.113999843597412,learn,53886.00015640259,Thu Jul 31 2025 14:05:13 GMT-0500 (Central Daylight Time),119411.09999999963,A,r,I,r,159,2,2898.5,116512.59999999963,8046,WL,A,2.0
1,6.430999994277954,learn,53569.000005722046,Thu Jul 31 2025 14:05:13 GMT-0500 (Central Daylight Time),119727.59999999963,A,rt,I,t,297,2,3215.0,116512.59999999963,8046,WL,A,2.0
1,6.663999795913696,learn,53336.000204086304,Thu Jul 31 2025 14:05:13 GMT-0500 (Central Daylight Time),119960.90000000037,A,rtt,I,t,228,2,3448.300000000745,116512.59999999963,8046,WL,A,2.0
1,7.046999931335449,learn,52953.00006866455,Thu Jul 31 2025 14:05:13 GMT-0500 (Central Daylight Time),120344.09999999963,A,rt,I,backspace,371,2,3831.5,116512.59999999963,8046,WL,A,2.0
1,7.230999946594238,learn,52769.00005340576,Thu Jul 31 2025 14:05:13 GMT-0500 (Central Daylight Time),120527.29999999981,A,r,I,backspace,164,2,4014.7000000001863,116512.59999999963,8046,WL,A,2.0
1,7.363999843597412,learn,52636.00015640259,Thu Jul 31 2025 14:05:13 GMT-0500 (Central Daylight Time),120660.79999999981,A,ra,I,a,117,2,4148.200000000186,116512.59999999963,8046,WL,A,2.0
1,7.663999795913696,learn,52336.000204086304,Thu Jul 31 2025 14:05:13 GMT-0500 (Central Daylight Time),120960.59999999963,A,rat,I,t,288,2,4448.0,116512.59999999963,8046,WL,A,2.0
1,7.863999843597412,learn,52136.00015640259,Thu Jul 31 2025 14:05:13 GMT-0500 (Central Daylight Time),121160.59999999963,A,ratt,I,t,180,2,4648.0,116512.59999999963,8046,WL,A,2.0
1,7.96399998664856,learn,52036.00001335144,Thu Jul 31 2025 14:05:13 GMT-0500 (Central Daylight Time),121260.70000000019,A,rattl,I,l,84,2,4748.100000000559,116512.59999999963,8046,WL,A,2.0
1,8.229999780654907,learn,51770.00021934509,Thu Jul 31 2025 14:05:13 GMT-0500 (Central Daylight Time),121527.0,A,rattle,I,e,247,2,5014.4000000003725,116512.59999999963,8046,WL,A,2.0
1,8.629999876022339,learn,51370.00012397766,Thu Jul 31 2025 14:05:13 GMT-0500 (Central Daylight Time),121926.79999999981,A,rattleenter,I,enter,389,2,5414.200000000186,116512.59999999963,8046,WL,A,2.0
1,9.446999788284302,learn,50553.0002117157,Thu Jul 31 2025 14:05:13 GMT-0500 (Central Daylight Time),122743.40000000037,A,l,I,l,805,2,816.1000000005588,121927.29999999981,8046,WL,A,3.0
1,9.812999963760376,learn,50187.000036239624,Thu Jul 31 2025 14:05:13 GMT-0500 (Central Daylight Time),123109.70000000019,A,lo,I,o,348,2,1182.4000000003725,121927.29999999981,8046,WL,A,3.0
1,9.979999780654907,learn,50020.00021934509,Thu Jul 31 2025 14:05:13 GMT-0500 (Central Daylight Time),123276.29999999981,A,log,I,g,157,2,1349.0,121927.29999999981,8046,WL,A,3.0
1,10.44599986076355,learn,49554.00013923645,Thu Jul 31 2025 14:05:13 GMT-0500 (Central Daylight Time),123743.09999999963,A,logenter,I,enter,447,2,1815.7999999998137,121927.29999999981,8046,WL,A,3.0
1,17.227999925613403,learn,42772.0000743866,Thu Jul 31 2025 14:05:13 GMT-0500 (Central Daylight Time),130524.29999999981,A,b,I,b,6764,2,6780.700000000186,123743.59999999963,8046,WL,A,4.0
1,17.376999855041504,learn,42623.000144958496,Thu Jul 31 2025 14:05:13 GMT-0500 (Central Daylight Time),130674.09999999963,A,bu,I,u,143,2,6930.5,123743.59999999963,8046,WL,A,4.0
1,17.560999870300293,learn,42439.00012969971,Thu Jul 31 2025 14:05:13 GMT-0500 (Central Daylight Time),130857.40000000037,A,but,I,t,178,2,7113.800000000745,123743.59999999963,8046,WL,A,4.0
1,17.76099991798401,learn,42239.00008201599,Thu Jul 31 2025 14:05:13 GMT-0500 (Central Daylight Time),131057.5,A,butt,I,t,187,2,7313.9000000003725,123743.59999999963,8046,WL,A,4.0
1,17.943999767303467,learn,42056.00023269653,Thu Jul 31 2025 14:05:13 GMT-0500 (Central Daylight Time),131240.7999999998,A,butto,I,o,170,2,7497.200000000186,123743.59999999963,8046,WL,A,4.0
1,18.143999814987183,learn,41856.00018501282,Thu Jul 31 2025 14:05:13 GMT-0500 (Central Daylight Time),131440.59999999963,A,button,I,n,178,2,7697.0,123743.59999999963,8046,WL,A,4.0
1,18.51099991798401,learn,41489.00008201599,Thu Jul 31 2025 14:05:13 GMT-0500 (Central Daylight Time),131807.2999999998,A,buttonenter,I,enter,347,2,8063.700000000186,123743.59999999963,8046,WL,A,4.0
1,23.192999839782715,learn,36807.000160217285,Thu Jul 31 2025 14:05:13 GMT-0500 (Central Daylight Time),136489.2999999998,A,r,I,r,4661,2,4681.5,131807.7999999998,8046,WL,A,5.0
1,23.375999927520752,learn,36624.00007247925,Thu Jul 31 2025 14:05:13 GMT-0500 (Central Daylight Time),136672.40000000037,A,ru,I,u,160,2,4864.600000000559,131807.7999999998,8046,WL,A,5.0
1,23.591999769210815,learn,36408.000230789185,Thu Jul 31 2025 14:05:13 GMT-0500 (Central Daylight Time),136888.7999999998,A,rug,I,g,204,2,5081.0,131807.7999999998,8046,WL,A,5.0
1,24.175999879837036,learn,35824.000120162964,Thu Jul 31 2025 14:05:13 GMT-0500 (Central Daylight Time),137472.2999999998,A,rugenter,I,enter,572,2,5664.5,131807.7999999998,8046,WL,A,5.0
1,31.322999954223633,learn,28677.000045776367,Thu Jul 31 2025 14:05:13 GMT-0500 (Central Daylight Time),144619.90000000037,A,l,I,l,7140,2,7147.200000000186,137472.7000000002,8046,WL,A,6.0
1,32.52300000190735,learn,27476.99999809265,Thu Jul 31 2025 14:05:13 GMT-0500 (Central Daylight Time),145819.7000000002,A,,I,backspace,1184,2,8347.0,137472.7000000002,8046,WL,A,6.0
1,43.335999965667725,learn,16664.000034332275,Thu Jul 31 2025 14:05:13 GMT-0500 (Central Daylight Time),156632.7000000002,A,m,I,m,10793,2,19160.0,137472.7000000002,8046,WL,A,6.0
1,43.63599991798401,learn,16364.000082015991,Thu Jul 31 2025 14:05:13 GMT-0500 (Central Daylight Time),156932.7000000002,A,me,I,e,283,2,19460.0,137472.7000000002,8046,WL,A,6.0
1,43.913999795913696,learn,16086.000204086304,Thu Jul 31 2025 14:05:13 GMT-0500 (Central Daylight Time),157211.0,A,mea,I,a,273,2,19738.299999999814,137472.7000000002,8046,WL,A,6.0
1,44.103999853134155,learn,15896.000146865845,Thu Jul 31 2025 14:05:13 GMT-0500 (Central Daylight Time),157401.0,A,mead,I,d,169,2,19928.299999999814,137472.7000000002,8046,WL,A,6.0
1,44.335999965667725,learn,15664.000034332275,Thu Jul 31 2025 14:05:13 GMT-0500 (Central Daylight Time),157632.2999999998,A,meado,I,o,207,2,20159.599999999627,137472.7000000002,8046,WL,A,6.0
1,44.55199980735779,learn,15448.000192642212,Thu Jul 31 2025 14:05:13 GMT-0500 (Central Daylight Time),157849.0,A,meadow,I,w,196,2,20376.299999999814,137472.7000000002,8046,WL,A,6.0
1,44.901999950408936,learn,15098.000049591064,Thu Jul 31 2025 14:05:13 GMT-0500 (Central Daylight Time),158198.90000000037,A,meadowenter,I,enter,330,2,20726.200000000186,137472.7000000002,8046,WL,A,6.0
1,60.013999938964844,learn,-13.99993896484375,Thu Jul 31 2025 14:05:13 GMT-0500 (Central Daylight Time),173310.7999999998,A,None,I,None,15108,2,15111.5,158199.2999999998,8046,WL,A,7.0
2,0.49900007247924805,learn,59500.99992752075,Thu Jul 31 2025 14:05:13 GMT-0500 (Central Daylight Time),242705.5,A,b,I,b,494,2,499.5,242206.0,8046,WL,A,1.0
2,0.8329999446868896,learn,59167.00005531311,Thu Jul 31 2025 14:05:13 GMT-0500 (Central Daylight Time),243039.09999999963,A,bo,I,o,315,2,833.0999999996275,242206.0,8046,WL,A,1.0
2,1.065999984741211,learn,58934.00001525879,Thu Jul 31 2025 14:05:13 GMT-0500 (Central Daylight Time),243272.09999999963,A,boo,I,o,221,2,1066.0999999996275,242206.0,8046,WL,A,1.0
2,1.2990000247955322,learn,58700.99997520447,Thu Jul 31 2025 14:05:13 GMT-0500 (Central Daylight Time),243505.5,A,book,I,k,220,2,1299.5,242206.0,8046,WL,A,1.0
2,1.8819999694824219,learn,58118.00003051758,Thu Jul 31 2025 14:05:13 GMT-0500 (Central Daylight Time),244088.59999999963,A,bookf,I,f,571,2,1882.5999999996275,242206.0,8046,WL,A,1.0
2,2.4660000801086426,learn,57533.99991989136,Thu Jul 31 2025 14:05:13 GMT-0500 (Central Daylight Time),244672.0,A,book,I,backspace,572,2,2466.0,242206.0,8046,WL,A,1.0
2,2.7660000324249268,learn,57233.99996757507,Thu Jul 31 2025 14:05:13 GMT-0500 (Central Daylight Time),244971.7999999998,A,bookenter,I,enter,293,2,2765.7999999998137,242206.0,8046,WL,A,1.0
2,3.3489999771118164,learn,56651.00002288818,Thu Jul 31 2025 14:05:13 GMT-0500 (Central Daylight Time),245554.7000000002,A,f,I,f,577,2,582.5,244972.2000000002,8046,WL,A,2.0
2,3.5820000171661377,learn,56417.99998283386,Thu Jul 31 2025 14:05:13 GMT-0500 (Central Daylight Time),245788.2999999998,A,fl,I,l,218,2,816.0999999996275,244972.2000000002,8046,WL,A,2.0
2,3.8489999771118164,learn,56151.00002288818,Thu Jul 31 2025 14:05:13 GMT-0500 (Central Daylight Time),246054.7000000002,A,flo,I,o,256,2,1082.5,244972.2000000002,8046,WL,A,2.0
2,4.014999866485596,learn,55985.000133514404,Thu Jul 31 2025 14:05:13 GMT-0500 (Central Daylight Time),246221.2000000002,A,flow,I,w,150,2,1249.0,244972.2000000002,8046,WL,A,2.0
2,4.164999961853027,learn,55835.00003814697,Thu Jul 31 2025 14:05:13 GMT-0500 (Central Daylight Time),246371.2999999998,A,flowe,I,e,143,2,1399.0999999996275,244972.2000000002,8046,WL,A,2.0
2,4.299000024795532,learn,55700.99997520447,Thu Jul 31 2025 14:05:13 GMT-0500 (Central Daylight Time),246504.59999999963,A,flower,I,r,120,2,1532.3999999994412,244972.2000000002,8046,WL,A,2.0
2,6.563999891281128,learn,53436.00010871887,Thu Jul 31 2025 14:05:13 GMT-0500 (Central Daylight Time),248770.40000000037,A,flowerenter,I,enter,2251,2,3798.2000000001863,244972.2000000002,8046,WL,A,2.0
2,7.0980000495910645,learn,52901.999950408936,Thu Jul 31 2025 14:05:13 GMT-0500 (Central Daylight Time),249303.59999999963,A,t,I,t,522,2,532.6999999992549,248770.90000000037,8046,WL,A,3.0
2,7.496999979019165,learn,52503.000020980835,Thu Jul 31 2025 14:05:13 GMT-0500 (Central Daylight Time),249703.5,A,tr,I,r,389,2,932.5999999996275,248770.90000000037,8046,WL,A,3.0
2,7.830999851226807,learn,52169.00014877319,Thu Jul 31 2025 14:05:13 GMT-0500 (Central Daylight Time),250036.7999999998,A,tra,I,a,317,2,1265.8999999994412,248770.90000000037,8046,WL,A,3.0
2,7.9649999141693115,learn,52035.00008583069,Thu Jul 31 2025 14:05:13 GMT-0500 (Central Daylight Time),250171.0,A,trai,I,i,128,2,1400.0999999996275,248770.90000000037,8046,WL,A,3.0
2,8.180999994277954,learn,51819.000005722046,Thu Jul 31 2025 14:05:13 GMT-0500 (Central Daylight Time),250386.7999999998,A,train,I,n,201,2,1615.8999999994412,248770.90000000037,8046,WL,A,3.0
2,8.813999891281128,learn,51186.00010871887,Thu Jul 31 2025 14:05:13 GMT-0500 (Central Daylight Time),251019.7000000002,A,trainenter,I,enter,626,2,2248.7999999998137,248770.90000000037,8046,WL,A,3.0
2,9.746999979019165,learn,50253.000020980835,Thu Jul 31 2025 14:05:13 GMT-0500 (Central Daylight Time),251952.90000000037,A,m,I,m,929,2,932.9000000003725,251020.0,8046,WL,A,4.0
2,10.162999868392944,learn,49837.000131607056,Thu Jul 31 2025 14:05:13 GMT-0500 (Central Daylight Time),252369.2999999998,A,me,I,e,395,2,1349.2999999998137,251020.0,8046,WL,A,4.0
2,10.329999923706055,learn,49670.000076293945,Thu Jul 31 2025 14:05:13 GMT-0500 (Central Daylight Time),252536.09999999963,A,mea,I,a,155,2,1516.0999999996275,251020.0,8046,WL,A,4.0
2,10.596999883651733,learn,49403.00011634827,Thu Jul 31 2025 14:05:13 GMT-0500 (Central Daylight Time),252802.59999999963,A,mead,I,d,261,2,1782.5999999996275,251020.0,8046,WL,A,4.0
2,10.779000043869019,learn,49220.99995613098,Thu Jul 31 2025 14:05:13 GMT-0500 (Central Daylight Time),252985.5,A,meado,I,o,176,2,1965.5,251020.0,8046,WL,A,4.0
2,10.94700002670288,learn,49052.99997329712,Thu Jul 31 2025 14:05:13 GMT-0500 (Central Daylight Time),253152.59999999963,A,meadow,I,w,146,2,2132.5999999996275,251020.0,8046,WL,A,4.0
2,11.36299991607666,learn,48637.00008392334,Thu Jul 31 2025 14:05:13 GMT-0500 (Central Daylight Time),253569.0,A,meadowenter,I,enter,404,2,2549.0,251020.0,8046,WL,A,4.0
2,11.796000003814697,learn,48203.9999961853,Thu Jul 31 2025 14:05:13 GMT-0500 (Central Daylight Time),254002.0,A,r,I,r,419,2,432.59999999962747,253569.40000000037,8046,WL,A,5.0
2,12.095999956130981,learn,47904.00004386902,Thu Jul 31 2025 14:05:13 GMT-0500 (Central Daylight Time),254301.90000000037,A,ru,I,u,282,2,732.5,253569.40000000037,8046,WL,A,5.0
2,12.279000043869019,learn,47720.99995613098,Thu Jul 31 2025 14:05:13 GMT-0500 (Central Daylight Time),254485.40000000037,A,rug,I,g,175,2,916.0,253569.40000000037,8046,WL,A,5.0
2,13.111999988555908,learn,46888.00001144409,Thu Jul 31 2025 14:05:13 GMT-0500 (Central Daylight Time),255318.2999999998,A,rugenter,I,enter,815,2,1748.8999999994412,253569.40000000037,8046,WL,A,5.0
2,14.361999988555908,learn,45638.00001144409,Thu Jul 31 2025 14:05:13 GMT-0500 (Central Daylight Time),256567.90000000037,A,l,I,l,1239,2,1249.300000000745,255318.59999999963,8046,WL,A,6.0
2,14.944999933242798,learn,45055.0000667572,Thu Jul 31 2025 14:05:13 GMT-0500 (Central Daylight Time),257151.09999999963,A,la,I,a,564,2,1832.5,255318.59999999963,8046,WL,A,6.0
2,16.16100001335144,learn,43838.99998664856,Thu Jul 31 2025 14:05:13 GMT-0500 (Central Daylight Time),258367.5,A,l,I,backspace,1197,2,3048.9000000003725,255318.59999999963,8046,WL,A,6.0
2,16.560999870300293,learn,43439.00012969971,Thu Jul 31 2025 14:05:13 GMT-0500 (Central Daylight Time),258767.09999999963,A,,I,backspace,380,2,3448.5,255318.59999999963,8046,WL,A,6.0
2,17.509999990463257,learn,42490.00000953674,Thu Jul 31 2025 14:05:13 GMT-0500 (Central Daylight Time),259716.59999999963,A,l,I,l,932,2,4398.0,255318.59999999963,8046,WL,A,6.0
2,17.759999990463257,learn,42240.00000953674,Thu Jul 31 2025 14:05:13 GMT-0500 (Central Daylight Time),259966.5,A,lo,I,o,231,2,4647.9000000003725,255318.59999999963,8046,WL,A,6.0
2,17.82699990272522,learn,42173.00009727478,Thu Jul 31 2025 14:05:13 GMT-0500 (Central Daylight Time),260033.5,A,log,I,g,62,2,4714.9000000003725,255318.59999999963,8046,WL,A,6.0
2,18.24399995803833,learn,41756.00004196167,Thu Jul 31 2025 14:05:13 GMT-0500 (Central Daylight Time),260450.09999999963,A,logenter,I,enter,403,2,5131.5,255318.59999999963,8046,WL,A,6.0
2,21.592999935150146,learn,38407.00006484985,Thu Jul 31 2025 14:05:13 GMT-0500 (Central Daylight Time),263799.0,A,b,I,b,3339,2,3348.5999999996275,260450.40000000037,8046,WL,A,7.0
2,21.842999935150146,learn,38157.00006484985,Thu Jul 31 2025 14:05:13 GMT-0500 (Central Daylight Time),264048.9000000004,A,bu,I,u,237,2,3598.5,260450.40000000037,8046,WL,A,7.0
2,22.026000022888184,learn,37973.99997711182,Thu Jul 31 2025 14:05:13 GMT-0500 (Central Daylight Time),264232.0999999996,A,but,I,t,163,2,3781.699999999255,260450.40000000037,8046,WL,A,7.0
2,22.243000030517578,learn,37756.99996948242,Thu Jul 31 2025 14:05:13 GMT-0500 (Central Daylight Time),264449.0,A,butt,I,t,211,2,3998.5999999996275,260450.40000000037,8046,WL,A,7.0
2,22.408999919891357,learn,37591.00008010864,Thu Jul 31 2025 14:05:13 GMT-0500 (Central Daylight Time),264615.4000000004,A,butto,I,o,156,2,4165.0,260450.40000000037,8046,WL,A,7.0
2,22.675999879837036,learn,37324.000120162964,Thu Jul 31 2025 14:05:13 GMT-0500 (Central Daylight Time),264882.2000000002,A,button,I,n,253,2,4431.799999999814,260450.40000000037,8046,WL,A,7.0
2,23.509000062942505,learn,36490.999937057495,Thu Jul 31 2025 14:05:13 GMT-0500 (Central Daylight Time),265715.2000000002,A,buttonenter,I,enter,826,2,5264.799999999814,260450.40000000037,8046,WL,A,7.0
2,24.79200005531311,learn,35207.99994468689,Thu Jul 31 2025 14:05:13 GMT-0500 (Central Daylight Time),266997.9000000004,A,c,I,c,1265,2,1282.4000000003725,265715.5,8046,WL,A,8.0
2,24.924999952316284,learn,35075.000047683716,Thu Jul 31 2025 14:05:13 GMT-0500 (Central Daylight Time),267131.2999999998,A,ch,I,h,126,2,1415.7999999998137,265715.5,8046,WL,A,8.0
2,25.108999967575073,learn,34891.00003242493,Thu Jul 31 2025 14:05:13 GMT-0500 (Central Daylight Time),267314.7000000002,A,chi,I,i,177,2,1599.2000000001863,265715.5,8046,WL,A,8.0
2,25.375,learn,34625.0,Thu Jul 31 2025 14:05:13 GMT-0500 (Central Daylight Time),267581.2000000002,A,chim,I,m,258,2,1865.7000000001863,265715.5,8046,WL,A,8.0
2,25.64199995994568,learn,34358.00004005432,Thu Jul 31 2025 14:05:13 GMT-0500 (Central Daylight Time),267847.9000000004,A,chimn,I,n,246,2,2132.4000000003725,265715.5,8046,WL,A,8.0
2,25.757999897003174,learn,34242.000102996826,Thu Jul 31 2025 14:05:13 GMT-0500 (Central Daylight Time),267964.5,A,chimne,I,e,108,2,2249.0,265715.5,8046,WL,A,8.0
2,26.075000047683716,learn,33924.999952316284,Thu Jul 31 2025 14:05:13 GMT-0500 (Central Daylight Time),268280.9000000004,A,chimney,I,y,312,2,2565.4000000003725,265715.5,8046,WL,A,8.0
2,26.657999992370605,learn,33342.000007629395,Thu Jul 31 2025 14:05:13 GMT-0500 (Central Daylight Time),268864.0,A,chimneyenter,I,enter,571,2,3148.5,265715.5,8046,WL,A,8.0
2,27.307999849319458,learn,32692.000150680542,Thu Jul 31 2025 14:05:13 GMT-0500 (Central Daylight Time),269513.9000000004,A,f,I,f,635,2,649.6000000005588,268864.2999999998,8046,WL,A,9.0
2,27.524999856948853,learn,32475.000143051147,Thu Jul 31 2025 14:05:13 GMT-0500 (Central Daylight Time),269730.7999999998,A,fi,I,i,203,2,866.5,268864.2999999998,8046,WL,A,9.0
2,27.757999897003174,learn,32242.000102996826,Thu Jul 31 2025 14:05:13 GMT-0500 (Central Daylight Time),269963.7999999998,A,fin,I,n,226,2,1099.5,268864.2999999998,8046,WL,A,9.0
2,27.907999992370605,learn,32092.000007629395,Thu Jul 31 2025 14:05:13 GMT-0500 (Central Daylight Time),270113.5999999996,A,fing,I,g,144,2,1249.2999999998137,268864.2999999998,8046,WL,A,9.0
2,28.174000024795532,learn,31825.999975204468,Thu Jul 31 2025 14:05:13 GMT-0500 (Central Daylight Time),270380.5,A,finge,I,e,259,2,1516.2000000001863,268864.2999999998,8046,WL,A,9.0
2,28.20899987220764,learn,31791.00012779236,Thu Jul 31 2025 14:05:13 GMT-0500 (Central Daylight Time),270415.0999999996,A,finger,I,r,16,2,1550.7999999998137,268864.2999999998,8046,WL,A,9.0
2,30.0239999294281,learn,29976.0000705719,Thu Jul 31 2025 14:05:13 GMT-0500 (Central Daylight Time),272229.7999999998,A,fingerenter,I,enter,1805,2,3365.5,268864.2999999998,8046,WL,A,9.0
2,38.25399994850159,learn,21746.000051498413,Thu Jul 31 2025 14:05:13 GMT-0500 (Central Daylight Time),280460.5,A,g,I,g,8223,2,8230.400000000373,272230.0999999996,8046,WL,A,10.0
2,38.537999868392944,learn,21462.000131607056,Thu Jul 31 2025 14:05:13 GMT-0500 (Central Daylight Time),280743.9000000004,A,go,I,o,272,2,8513.800000000745,272230.0999999996,8046,WL,A,10.0
2,38.82099986076355,learn,21179.00013923645,Thu Jul 31 2025 14:05:13 GMT-0500 (Central Daylight Time),281027.0,A,gol,I,l,276,2,8796.900000000373,272230.0999999996,8046,WL,A,10.0
2,38.98799991607666,learn,21012.00008392334,Thu Jul 31 2025 14:05:13 GMT-0500 (Central Daylight Time),281193.5999999996,A,gold,I,d,154,2,8963.5,272230.0999999996,8046,WL,A,10.0
2,39.72099995613098,learn,20279.00004386902,Thu Jul 31 2025 14:05:13 GMT-0500 (Central Daylight Time),281926.7999999998,A,goldenter,I,enter,714,2,9696.700000000186,272230.0999999996,8046,WL,A,10.0
2,40.11999988555908,learn,19880.000114440918,Thu Jul 31 2025 14:05:13 GMT-0500 (Central Daylight Time),282326.5,A,r,I,r,389,2,399.40000000037253,281927.0999999996,8046,WL,A,11.0
2,40.4539999961853,learn,19546.000003814697,Thu Jul 31 2025 14:05:13 GMT-0500 (Central Daylight Time),282659.9000000004,A,ra,I,a,318,2,732.8000000007451,281927.0999999996,8046,WL,A,11.0
2,40.80399990081787,learn,19196.00009918213,Thu Jul 31 2025 14:05:13 GMT-0500 (Central Daylight Time),283009.7000000002,A,rat,I,t,337,2,1082.6000000005588,281927.0999999996,8046,WL,A,11.0
2,41.020999908447266,learn,18979.000091552734,Thu Jul 31 2025 14:05:13 GMT-0500 (Central Daylight Time),283227.2999999998,A,ratt,I,t,211,2,1300.2000000001863,281927.0999999996,8046,WL,A,11.0
2,41.187000036239624,learn,18812.999963760376,Thu Jul 31 2025 14:05:13 GMT-0500 (Central Daylight Time),283393.0,A,rattl,I,l,145,2,1465.9000000003725,281927.0999999996,8046,WL,A,11.0
2,41.36999988555908,learn,18630.000114440918,Thu Jul 31 2025 14:05:13 GMT-0500 (Central Daylight Time),283576.2000000002,A,rattle,I,e,171,2,1649.1000000005588,281927.0999999996,8046,WL,A,11.0
2,42.335999965667725,learn,17664.000034332275,Thu Jul 31 2025 14:05:13 GMT-0500 (Central Daylight Time),284542.5999999996,A,rattleenter,I,enter,947,2,2615.5,281927.0999999996,8046,WL,A,11.0
2,50.300999879837036,learn,9699.000120162964,Thu Jul 31 2025 14:05:13 GMT-0500 (Central Daylight Time),292506.7000000002,A,h,I,h,7950,2,7963.799999999814,284542.9000000004,8046,WL,A,12.0
2,50.43400001525879,learn,9565.999984741211,Thu Jul 31 2025 14:05:13 GMT-0500 (Central Daylight Time),292639.9000000004,A,ha,I,a,113,2,8097.0,284542.9000000004,8046,WL,A,12.0
2,50.651000022888184,learn,9348.999977111816,Thu Jul 31 2025 14:05:13 GMT-0500 (Central Daylight Time),292856.9000000004,A,har,I,r,205,2,8314.0,284542.9000000004,8046,WL,A,12.0
2,50.89999985694885,learn,9100.000143051147,Thu Jul 31 2025 14:05:13 GMT-0500 (Central Daylight Time),293106.5999999996,A,harp,I,p,244,2,8563.699999999255,284542.9000000004,8046,WL,A,12.0
2,51.700000047683716,learn,8299.999952316284,Thu Jul 31 2025 14:05:13 GMT-0500 (Central Daylight Time),293906.2999999998,A,harpenter,I,enter,794,2,9363.399999999441,284542.9000000004,8046,WL,A,12.0
2,60.013999938964844,learn,-13.99993896484375,Thu Jul 31 2025 14:05:13 GMT-0500 (Central Daylight Time),302220.4000000004,A,None,I,None,8309,2,8313.800000000745,293906.5999999996,8046,WL,A,13.0
3,0.01699995994567871,learn,59983.00004005432,Thu Jul 31 2025 14:05:13 GMT-0500 (Central Daylight Time),371398.4000000004,A,n,I,n,0,2,16.40000000037253,371382.0,8046,WL,A,1.0
3,0.8499999046325684,learn,59150.00009536743,Thu Jul 31 2025 14:05:13 GMT-0500 (Central Daylight Time),372231.7999999998,A,nb,I,b,814,2,849.7999999998137,371382.0,8046,WL,A,1.0
3,1.4500000476837158,learn,58549.999952316284,Thu Jul 31 2025 14:05:13 GMT-0500 (Central Daylight Time),372831.5999999996,A,n,I,backspace,581,2,1449.5999999996275,371382.0,8046,WL,A,1.0
3,1.6170001029968262,learn,58382.999897003174,Thu Jul 31 2025 14:05:13 GMT-0500 (Central Daylight Time),372998.0,A,,I,backspace,157,2,1616.0,371382.0,8046,WL,A,1.0
3,1.7669999599456787,learn,58233.00004005432,Thu Jul 31 2025 14:05:13 GMT-0500 (Central Daylight Time),373148.0999999996,A,b,I,b,134,2,1766.0999999996275,371382.0,8046,WL,A,1.0
3,2.0,learn,58000.0,Thu Jul 31 2025 14:05:13 GMT-0500 (Central Daylight Time),373381.2999999998,A,bo,I,o,216,2,1999.2999999998137,371382.0,8046,WL,A,1.0
3,2.200000047683716,learn,57799.999952316284,Thu Jul 31 2025 14:05:13 GMT-0500 (Central Daylight Time),373581.2000000002,A,boo,I,o,191,2,2199.2000000001863,371382.0,8046,WL,A,1.0
3,2.382999897003174,learn,57617.000102996826,Thu Jul 31 2025 14:05:13 GMT-0500 (Central Daylight Time),373764.5999999996,A,book,I,k,166,2,2382.5999999996275,371382.0,8046,WL,A,1.0
3,2.816999912261963,learn,57183.00008773804,Thu Jul 31 2025 14:05:13 GMT-0500 (Central Daylight Time),374198.7999999998,A,bookenter,I,enter,423,2,2816.7999999998137,371382.0,8046,WL,A,1.0
3,3.299999952316284,learn,56700.000047683716,Thu Jul 31 2025 14:05:13 GMT-0500 (Central Daylight Time),374681.0999999996,A,f,I,f,478,2,481.8999999994412,374199.2000000002,8046,WL,A,2.0
3,3.5160000324249268,learn,56483.99996757507,Thu Jul 31 2025 14:05:13 GMT-0500 (Central Daylight Time),374897.4000000004,A,fl,I,l,211,2,698.2000000001863,374199.2000000002,8046,WL,A,2.0
3,3.7330000400543213,learn,56266.99995994568,Thu Jul 31 2025 14:05:13 GMT-0500 (Central Daylight Time),375114.0999999996,A,flo,I,o,211,2,914.8999999994412,374199.2000000002,8046,WL,A,2.0
3,3.865999937057495,learn,56134.000062942505,Thu Jul 31 2025 14:05:13 GMT-0500 (Central Daylight Time),375247.4000000004,A,flow,I,w,114,2,1048.2000000001863,374199.2000000002,8046,WL,A,2.0
3,3.9830000400543213,learn,56016.99995994568,Thu Jul 31 2025 14:05:13 GMT-0500 (Central Daylight Time),375363.9000000004,A,flowe,I,e,101,2,1164.7000000001863,374199.2000000002,8046,WL,A,2.0
3,4.132999897003174,learn,55867.000102996826,Thu Jul 31 2025 14:05:13 GMT-0500 (Central Daylight Time),375514.5,A,flower,I,r,145,2,1315.2999999998137,374199.2000000002,8046,WL,A,2.0
3,4.482000112533569,learn,55517.99988746643,Thu Jul 31 2025 14:05:13 GMT-0500 (Central Daylight Time),375863.7999999998,A,flowerenter,I,enter,329,2,1664.5999999996275,374199.2000000002,8046,WL,A,2.0
3,4.898999929428101,learn,55101.0000705719,Thu Jul 31 2025 14:05:13 GMT-0500 (Central Daylight Time),376280.2999999998,A,t,I,t,405,2,416.09999999962747,375864.2000000002,8046,WL,A,3.0
3,5.199000120162964,learn,54800.999879837036,Thu Jul 31 2025 14:05:13 GMT-0500 (Central Daylight Time),376580.2999999998,A,tr,I,r,292,2,716.0999999996275,375864.2000000002,8046,WL,A,3.0
3,5.381999969482422,learn,54618.00003051758,Thu Jul 31 2025 14:05:13 GMT-0500 (Central Daylight Time),376763.5,A,tra,I,a,167,2,899.2999999998137,375864.2000000002,8046,WL,A,3.0
3,5.5320000648498535,learn,54467.99993515015,Thu Jul 31 2025 14:05:13 GMT-0500 (Central Daylight Time),376913.2000000002,A,trai,I,i,137,2,1049.0,375864.2000000002,8046,WL,A,3.0
3,5.7149999141693115,learn,54285.00008583069,Thu Jul 31 2025 14:05:13 GMT-0500 (Central Daylight Time),377096.7000000002,A,train,I,n,170,2,1232.5,375864.2000000002,8046,WL,A,3.0
3,6.065000057220459,learn,53934.99994277954,Thu Jul 31 2025 14:05:13 GMT-0500 (Central Daylight Time),377446.7000000002,A,trainenter,I,enter,332,2,1582.5,375864.2000000002,8046,WL,A,3.0
3,6.414999961853027,learn,53585.00003814697,Thu Jul 31 2025 14:05:13 GMT-0500 (Central Daylight Time),377796.7000000002,A,r,I,r,333,2,349.6000000005588,377447.0999999996,8046,WL,A,4.0
3,6.848999977111816,learn,53151.00002288818,Thu Jul 31 2025 14:05:13 GMT-0500 (Central Daylight Time),378230.0999999996,A,ru,I,u,424,2,783.0,377447.0999999996,8046,WL,A,4.0
3,6.997999906539917,learn,53002.00009346008,Thu Jul 31 2025 14:05:13 GMT-0500 (Central Daylight Time),378379.7000000002,A,rug,I,g,142,2,932.6000000005588,377447.0999999996,8046,WL,A,4.0
3,8.447999954223633,learn,51552.00004577637,Thu Jul 31 2025 14:05:13 GMT-0500 (Central Daylight Time),379828.9000000004,A,rugenter,I,enter,1440,2,2381.800000000745,377447.0999999996,8046,WL,A,4.0
3,9.030999898910522,learn,50969.00010108948,Thu Jul 31 2025 14:05:13 GMT-0500 (Central Daylight Time),380412.5,A,m,I,m,568,2,583.4000000003725,379829.0999999996,8046,WL,A,5.0
3,9.180999994277954,learn,50819.000005722046,Thu Jul 31 2025 14:05:13 GMT-0500 (Central Daylight Time),380562.4000000004,A,me,I,e,144,2,733.3000000007451,379829.0999999996,8046,WL,A,5.0
3,9.38100004196167,learn,50618.99995803833,Thu Jul 31 2025 14:05:13 GMT-0500 (Central Daylight Time),380762.4000000004,A,mea,I,a,194,2,933.3000000007451,379829.0999999996,8046,WL,A,5.0
3,9.614000082015991,learn,50385.99991798401,Thu Jul 31 2025 14:05:13 GMT-0500 (Central Daylight Time),380995.5,A,mead,I,d,226,2,1166.4000000003725,379829.0999999996,8046,WL,A,5.0
3,9.763999938964844,learn,50236.000061035156,Thu Jul 31 2025 14:05:13 GMT-0500 (Central Daylight Time),381145.5999999996,A,meado,I,o,137,2,1316.5,379829.0999999996,8046,WL,A,5.0
3,9.914000034332275,learn,50085.999965667725,Thu Jul 31 2025 14:05:13 GMT-0500 (Central Daylight Time),381295.5999999996,A,meadow,I,w,131,2,1466.5,379829.0999999996,8046,WL,A,5.0
3,10.831000089645386,learn,49168.999910354614,Thu Jul 31 2025 14:05:13 GMT-0500 (Central Daylight Time),382212.2999999998,A,meadowenter,I,enter,901,2,2383.2000000001863,379829.0999999996,8046,WL,A,5.0
3,13.730000019073486,learn,46269.999980926514,Thu Jul 31 2025 14:05:13 GMT-0500 (Central Daylight Time),385111.2000000002,A,f,I,f,2888,2,2898.600000000559,382212.5999999996,8046,WL,A,6.0
3,13.996000051498413,learn,46003.99994850159,Thu Jul 31 2025 14:05:13 GMT-0500 (Central Daylight Time),385377.5999999996,A,fi,I,i,253,2,3165.0,382212.5999999996,8046,WL,A,6.0
3,14.296000003814697,learn,45703.9999961853,Thu Jul 31 2025 14:05:13 GMT-0500 (Central Daylight Time),385677.4000000004,A,fin,I,n,283,2,3464.800000000745,382212.5999999996,8046,WL,A,6.0
3,14.513000011444092,learn,45486.99998855591,Thu Jul 31 2025 14:05:13 GMT-0500 (Central Daylight Time),385894.2000000002,A,fing,I,g,199,2,3681.600000000559,382212.5999999996,8046,WL,A,6.0
3,14.796000003814697,learn,45203.9999961853,Thu Jul 31 2025 14:05:13 GMT-0500 (Central Daylight Time),386177.2000000002,A,finge,I,e,271,2,3964.600000000559,382212.5999999996,8046,WL,A,6.0
3,14.812000036239624,learn,45187.999963760376,Thu Jul 31 2025 14:05:13 GMT-0500 (Central Daylight Time),386193.9000000004,A,finger,I,r,10,2,3981.300000000745,382212.5999999996,8046,WL,A,6.0
3,15.828999996185303,learn,44171.0000038147,Thu Jul 31 2025 14:05:13 GMT-0500 (Central Daylight Time),387210.0999999996,A,fingerenter,I,enter,1003,2,4997.5,382212.5999999996,8046,WL,A,6.0
3,16.76200008392334,learn,43237.99991607666,Thu Jul 31 2025 14:05:13 GMT-0500 (Central Daylight Time),388143.4000000004,A,s,I,s,922,2,932.9000000003725,387210.5,8046,WL,A,7.0
3,16.977999925613403,learn,43022.0000743866,Thu Jul 31 2025 14:05:13 GMT-0500 (Central Daylight Time),388359.7999999998,A,sa,I,a,205,2,1149.2999999998137,387210.5,8046,WL,A,7.0
3,17.24500012397766,learn,42754.99987602234,Thu Jul 31 2025 14:05:13 GMT-0500 (Central Daylight Time),388626.4000000004,A,sal,I,l,253,2,1415.9000000003725,387210.5,8046,WL,A,7.0
3,17.663000106811523,learn,42336.99989318848,Thu Jul 31 2025 14:05:13 GMT-0500 (Central Daylight Time),389044.0,A,salt,I,t,402,2,1833.5,387210.5,8046,WL,A,7.0
3,19.210999965667725,learn,40789.000034332275,Thu Jul 31 2025 14:05:13 GMT-0500 (Central Daylight Time),390592.7000000002,A,saltenter,I,enter,1527,2,3382.2000000001863,387210.5,8046,WL,A,7.0
3,21.710000038146973,learn,38289.99996185303,Thu Jul 31 2025 14:05:13 GMT-0500 (Central Daylight Time),393091.9000000004,A,a,I,a,2492,2,2498.9000000003725,390593.0,8046,WL,A,8.0
3,22.026999950408936,learn,37973.000049591064,Thu Jul 31 2025 14:05:13 GMT-0500 (Central Daylight Time),393408.5,A,ap,I,p,295,2,2815.5,390593.0,8046,WL,A,8.0
3,22.24399995803833,learn,37756.00004196167,Thu Jul 31 2025 14:05:13 GMT-0500 (Central Daylight Time),393624.9000000004,A,app,I,p,196,2,3031.9000000003725,390593.0,8046,WL,A,8.0
3,22.493000030517578,learn,37506.99996948242,Thu Jul 31 2025 14:05:13 GMT-0500 (Central Daylight Time),393874.5999999996,A,appl,I,l,243,2,3281.5999999996275,390593.0,8046,WL,A,8.0
3,22.677000045776367,learn,37322.99995422363,Thu Jul 31 2025 14:05:13 GMT-0500 (Central Daylight Time),394058.2000000002,A,apple,I,e,178,2,3465.2000000001863,390593.0,8046,WL,A,8.0
3,24.842999935150146,learn,35157.00006484985,Thu Jul 31 2025 14:05:13 GMT-0500 (Central Daylight Time),396224.0999999996,A,appleenter,I,enter,2155,2,5631.0999999996275,390593.0,8046,WL,A,8.0
3,25.526000022888184,learn,34473.99997711182,Thu Jul 31 2025 14:05:13 GMT-0500 (Central Daylight Time),396907.0999999996,A,c,I,c,669,2,682.6999999992549,396224.4000000004,8046,WL,A,9.0
3,25.691999912261963,learn,34308.00008773804,Thu Jul 31 2025 14:05:13 GMT-0500 (Central Daylight Time),397073.5999999996,A,ch,I,h,161,2,849.1999999992549,396224.4000000004,8046,WL,A,9.0
3,25.89300012588501,learn,34106.99987411499,Thu Jul 31 2025 14:05:13 GMT-0500 (Central Daylight Time),397274.7999999998,A,chi,I,i,195,2,1050.3999999994412,396224.4000000004,8046,WL,A,9.0
3,26.158999919891357,learn,33841.00008010864,Thu Jul 31 2025 14:05:13 GMT-0500 (Central Daylight Time),397540.4000000004,A,chim,I,m,250,2,1316.0,396224.4000000004,8046,WL,A,9.0
3,26.426000118255615,learn,33573.999881744385,Thu Jul 31 2025 14:05:13 GMT-0500 (Central Daylight Time),397807.0,A,chimn,I,n,247,2,1582.5999999996275,396224.4000000004,8046,WL,A,9.0
3,26.592000007629395,learn,33407.999992370605,Thu Jul 31 2025 14:05:13 GMT-0500 (Central Daylight Time),397973.5,A,chimne,I,e,157,2,1749.0999999996275,396224.4000000004,8046,WL,A,9.0
3,26.825000047683716,learn,33174.999952316284,Thu Jul 31 2025 14:05:13 GMT-0500 (Central Daylight Time),398206.7999999998,A,chimney,I,y,215,2,1982.3999999994412,396224.4000000004,8046,WL,A,9.0
3,27.72499990463257,learn,32275.00009536743,Thu Jul 31 2025 14:05:13 GMT-0500 (Central Daylight Time),399106.5,A,chimneyenter,I,enter,893,2,2882.0999999996275,396224.4000000004,8046,WL,A,9.0
3,28.242000102996826,learn,31757.999897003174,Thu Jul 31 2025 14:05:13 GMT-0500 (Central Daylight Time),399623.0,A,b,I,b,506,2,516.0999999996275,399106.9000000004,8046,WL,A,10.0
3,28.407999992370605,learn,31592.000007629395,Thu Jul 31 2025 14:05:13 GMT-0500 (Central Daylight Time),399789.5999999996,A,bu,I,u,149,2,682.6999999992549,399106.9000000004,8046,WL,A,10.0
3,28.60800004005432,learn,31391.99995994568,Thu Jul 31 2025 14:05:13 GMT-0500 (Central Daylight Time),399989.5999999996,A,but,I,t,190,2,882.6999999992549,399106.9000000004,8046,WL,A,10.0
3,28.79100012779236,learn,31208.99987220764,Thu Jul 31 2025 14:05:13 GMT-0500 (Central Daylight Time),400173.0,A,butt,I,t,166,2,1066.0999999996275,399106.9000000004,8046,WL,A,10.0
3,28.924999952316284,learn,31075.000047683716,Thu Jul 31 2025 14:05:13 GMT-0500 (Central Daylight Time),400306.0999999996,A,butto,I,o,119,2,1199.199999999255,399106.9000000004,8046,WL,A,10.0
3,29.157999992370605,learn,30842.000007629395,Thu Jul 31 2025 14:05:13 GMT-0500 (Central Daylight Time),400539.5999999996,A,button,I,n,226,2,1432.699999999255,399106.9000000004,8046,WL,A,10.0
3,30.092000007629395,learn,29907.999992370605,Thu Jul 31 2025 14:05:13 GMT-0500 (Central Daylight Time),401473.2000000002,A,buttonenter,I,enter,929,2,2366.2999999998137,399106.9000000004,8046,WL,A,10.0
3,30.891000032424927,learn,29108.999967575073,Thu Jul 31 2025 14:05:13 GMT-0500 (Central Daylight Time),402272.0999999996,A,h,I,h,779,2,798.6999999992549,401473.4000000004,8046,WL,A,11.0
3,31.2739999294281,learn,28726.0000705719,Thu Jul 31 2025 14:05:13 GMT-0500 (Central Daylight Time),402655.5,A,ha,I,a,364,2,1182.0999999996275,401473.4000000004,8046,WL,A,11.0
3,31.490999937057495,learn,28509.000062942505,Thu Jul 31 2025 14:05:13 GMT-0500 (Central Daylight Time),402871.9000000004,A,har,I,r,205,2,1398.5,401473.4000000004,8046,WL,A,11.0
3,31.789999961853027,learn,28210.000038146973,Thu Jul 31 2025 14:05:13 GMT-0500 (Central Daylight Time),403171.7000000002,A,harp,I,p,293,2,1698.2999999998137,401473.4000000004,8046,WL,A,11.0
3,33.62299990653992,learn,26377.000093460083,Thu Jul 31 2025 14:05:13 GMT-0500 (Central Daylight Time),405004.5999999996,A,harpenter,I,enter,1817,2,3531.199999999255,401473.4000000004,8046,WL,A,11.0
3,34.17300009727478,learn,25826.99990272522,Thu Jul 31 2025 14:05:13 GMT-0500 (Central Daylight Time),405554.5999999996,A,g,I,g,536,2,549.7999999998137,405004.7999999998,8046,WL,A,12.0
3,34.456000089645386,learn,25543.999910354614,Thu Jul 31 2025 14:05:13 GMT-0500 (Central Daylight Time),405837.7000000002,A,go,I,o,266,2,832.9000000003725,405004.7999999998,8046,WL,A,12.0
3,34.723000049591064,learn,25276.999950408936,Thu Jul 31 2025 14:05:13 GMT-0500 (Central Daylight Time),406104.4000000004,A,gol,I,l,255,2,1099.6000000005588,405004.7999999998,8046,WL,A,12.0
3,34.92300009727478,learn,25076.99990272522,Thu Jul 31 2025 14:05:13 GMT-0500 (Central Daylight Time),406304.2000000002,A,gold,I,d,179,2,1299.4000000003725,405004.7999999998,8046,WL,A,12.0
3,38.57200002670288,learn,21427.99997329712,Thu Jul 31 2025 14:05:13 GMT-0500 (Central Daylight Time),409953.0999999996,A,goldenter,I,enter,3644,2,4948.299999999814,405004.7999999998,8046,WL,A,12.0
3,38.954999923706055,learn,21045.000076293945,Thu Jul 31 2025 14:05:13 GMT-0500 (Central Daylight Time),410336.2999999998,A,l,I,l,372,2,383.0,409953.2999999998,8046,WL,A,13.0
3,39.204999923706055,learn,20795.000076293945,Thu Jul 31 2025 14:05:13 GMT-0500 (Central Daylight Time),410586.2000000002,A,lo,I,o,236,2,632.9000000003725,409953.2999999998,8046,WL,A,13.0
3,39.33800005912781,learn,20661.999940872192,Thu Jul 31 2025 14:05:13 GMT-0500 (Central Daylight Time),410719.9000000004,A,log,I,g,121,2,766.6000000005588,409953.2999999998,8046,WL,A,13.0
3,39.77300000190735,learn,20226.99999809265,Thu Jul 31 2025 14:05:13 GMT-0500 (Central Daylight Time),411153.9000000004,A,logenter,I,enter,419,2,1200.6000000005588,409953.2999999998,8046,WL,A,13.0
3,60.015000104904175,learn,-15.000104904174805,Thu Jul 31 2025 14:05:13 GMT-0500 (Central Daylight Time),431396.4000000004,A,None,I,None,20237,2,20242.10000000056,411154.2999999998,8046,WL,A,14.0
4,0.6169998645782471,learn,59383.00013542175,Thu Jul 31 2025 14:05:13 GMT-0500 (Central Daylight Time),500291.2999999998,A,b,I,b,603,2,616.5,499674.7999999998,8046,WL,A,1.0
4,0.9670000076293945,learn,59032.999992370605,Thu Jul 31 2025 14:05:13 GMT-0500 (Central Daylight Time),500641.4000000004,A,bo,I,o,345,2,966.6000000005588,499674.7999999998,8046,WL,A,1.0
4,1.1659998893737793,learn,58834.00011062622,Thu Jul 31 2025 14:05:13 GMT-0500 (Central Daylight Time),500841.0999999996,A,boo,I,o,195,2,1166.2999999998137,499674.7999999998,8046,WL,A,1.0
4,1.4830000400543213,learn,58516.99995994568,Thu Jul 31 2025 14:05:13 GMT-0500 (Central Daylight Time),501157.7000000002,A,book,I,k,307,2,1482.9000000003725,499674.7999999998,8046,WL,A,1.0
4,2.115999937057495,learn,57884.000062942505,Thu Jul 31 2025 14:05:13 GMT-0500 (Central Daylight Time),501790.7999999998,A,bookenter,I,enter,615,2,2116.0,499674.7999999998,8046,WL,A,1.0
4,2.8329999446868896,learn,57167.00005531311,Thu Jul 31 2025 14:05:13 GMT-0500 (Central Daylight Time),502507.2999999998,A,f,I,f,702,2,716.2000000001863,501791.0999999996,8046,WL,A,2.0
4,3.0329999923706055,learn,56967.000007629395,Thu Jul 31 2025 14:05:13 GMT-0500 (Central Daylight Time),502707.5,A,fl,I,l,193,2,916.4000000003725,501791.0999999996,8046,WL,A,2.0
4,3.2990000247955322,learn,56700.99997520447,Thu Jul 31 2025 14:05:13 GMT-0500 (Central Daylight Time),502973.9000000004,A,flo,I,o,256,2,1182.800000000745,501791.0999999996,8046,WL,A,2.0
4,3.381999969482422,learn,56618.00003051758,Thu Jul 31 2025 14:05:13 GMT-0500 (Central Daylight Time),503057.2000000002,A,flow,I,w,63,2,1266.1000000005588,501791.0999999996,8046,WL,A,2.0
4,3.631999969482422,learn,56368.00003051758,Thu Jul 31 2025 14:05:13 GMT-0500 (Central Daylight Time),503307.0999999996,A,flowe,I,e,235,2,1516.0,501791.0999999996,8046,WL,A,2.0
4,3.7159998416900635,learn,56284.00015830994,Thu Jul 31 2025 14:05:13 GMT-0500 (Central Daylight Time),503390.4000000004,A,flower,I,r,74,2,1599.300000000745,501791.0999999996,8046,WL,A,2.0
4,4.2149999141693115,learn,55785.00008583069,Thu Jul 31 2025 14:05:13 GMT-0500 (Central Daylight Time),503890.2999999998,A,flowerenter,I,enter,494,2,2099.2000000001863,501791.0999999996,8046,WL,A,2.0
4,5.049000024795532,learn,54950.99997520447,Thu Jul 31 2025 14:05:13 GMT-0500 (Central Daylight Time),504723.4000000004,A,t,I,t,818,2,832.9000000003725,503890.5,8046,WL,A,3.0
4,5.2820000648498535,learn,54717.99993515015,Thu Jul 31 2025 14:05:13 GMT-0500 (Central Daylight Time),504956.5999999996,A,tr,I,r,224,2,1066.0999999996275,503890.5,8046,WL,A,3.0
4,5.398000001907349,learn,54601.99999809265,Thu Jul 31 2025 14:05:13 GMT-0500 (Central Daylight Time),505073.2000000002,A,tra,I,a,112,2,1182.7000000001863,503890.5,8046,WL,A,3.0
4,5.565000057220459,learn,54434.99994277954,Thu Jul 31 2025 14:05:13 GMT-0500 (Central Daylight Time),505239.7999999998,A,trai,I,i,147,2,1349.2999999998137,503890.5,8046,WL,A,3.0
4,6.0980000495910645,learn,53901.999950408936,Thu Jul 31 2025 14:05:13 GMT-0500 (Central Daylight Time),505772.9000000004,A,train,I,n,525,2,1882.4000000003725,503890.5,8046,WL,A,3.0
4,6.914999961853027,learn,53085.00003814697,Thu Jul 31 2025 14:05:13 GMT-0500 (Central Daylight Time),506589.4000000004,A,trainenter,I,enter,799,2,2698.9000000003725,503890.5,8046,WL,A,3.0
4,7.264999866485596,learn,52735.000133514404,Thu Jul 31 2025 14:05:13 GMT-0500 (Central Daylight Time),506939.2999999998,A,r,I,r,343,2,349.5,506589.7999999998,8046,WL,A,4.0
4,7.5980000495910645,learn,52401.999950408936,Thu Jul 31 2025 14:05:13 GMT-0500 (Central Daylight Time),507272.5999999996,A,ru,I,u,321,2,682.7999999998137,506589.7999999998,8046,WL,A,4.0
4,7.730999946594238,learn,52269.00005340576,Thu Jul 31 2025 14:05:13 GMT-0500 (Central Daylight Time),507405.7000000002,A,rug,I,g,116,2,815.9000000003725,506589.7999999998,8046,WL,A,4.0
4,8.047999858856201,learn,51952.0001411438,Thu Jul 31 2025 14:05:13 GMT-0500 (Central Daylight Time),507722.2999999998,A,rugenter,I,enter,311,2,1132.5,506589.7999999998,8046,WL,A,4.0
4,8.980999946594238,learn,51019.00005340576,Thu Jul 31 2025 14:05:13 GMT-0500 (Central Daylight Time),508655.5,A,m,I,m,915,2,932.9000000003725,507722.5999999996,8046,WL,A,5.0
4,9.180999994277954,learn,50819.000005722046,Thu Jul 31 2025 14:05:13 GMT-0500 (Central Daylight Time),508855.4000000004,A,me,I,e,181,2,1132.800000000745,507722.5999999996,8046,WL,A,5.0
4,9.346999883651733,learn,50653.00011634827,Thu Jul 31 2025 14:05:13 GMT-0500 (Central Daylight Time),509021.9000000004,A,mea,I,a,156,2,1299.300000000745,507722.5999999996,8046,WL,A,5.0
4,9.730000019073486,learn,50269.999980926514,Thu Jul 31 2025 14:05:13 GMT-0500 (Central Daylight Time),509405.2000000002,A,mead,I,d,367,2,1682.6000000005588,507722.5999999996,8046,WL,A,5.0
4,9.914000034332275,learn,50085.999965667725,Thu Jul 31 2025 14:05:13 GMT-0500 (Central Daylight Time),509588.7000000002,A,meado,I,o,175,2,1866.1000000005588,507722.5999999996,8046,WL,A,5.0
4,10.063999891281128,learn,49936.00010871887,Thu Jul 31 2025 14:05:13 GMT-0500 (Central Daylight Time),509738.4000000004,A,meadow,I,w,144,2,2015.800000000745,507722.5999999996,8046,WL,A,5.0
4,11.148000001907349,learn,48851.99999809265,Thu Jul 31 2025 14:05:13 GMT-0500 (Central Daylight Time),510822.4000000004,A,meadowenter,I,enter,1065,2,3099.800000000745,507722.5999999996,8046,WL,A,5.0
4,12.996000051498413,learn,47003.99994850159,Thu Jul 31 2025 14:05:13 GMT-0500 (Central Daylight Time),512671.0,A,j,I,j,1838,2,1848.4000000003725,510822.5999999996,8046,WL,A,6.0
4,13.11299991607666,learn,46887.00008392334,Thu Jul 31 2025 14:05:13 GMT-0500 (Central Daylight Time),512787.7000000002,A,jf,I,f,102,2,1965.1000000005588,510822.5999999996,8046,WL,A,6.0
4,13.662999868392944,learn,46337.000131607056,Thu Jul 31 2025 14:05:13 GMT-0500 (Central Daylight Time),513337.2999999998,A,j,I,backspace,545,2,2514.7000000001863,510822.5999999996,8046,WL,A,6.0
4,13.845999956130981,learn,46154.00004386902,Thu Jul 31 2025 14:05:13 GMT-0500 (Central Daylight Time),513520.9000000004,A,,I,backspace,164,2,2698.300000000745,510822.5999999996,8046,WL,A,6.0
4,14.279000043869019,learn,45720.99995613098,Thu Jul 31 2025 14:05:13 GMT-0500 (Central Daylight Time),513954.0,A,f,I,f,420,2,3131.4000000003725,510822.5999999996,8046,WL,A,6.0
4,15.178999900817871,learn,44821.00009918213,Thu Jul 31 2025 14:05:13 GMT-0500 (Central Daylight Time),514853.7000000002,A,fi,I,i,882,2,4031.100000000559,510822.5999999996,8046,WL,A,6.0
4,15.361999988555908,learn,44638.00001144409,Thu Jul 31 2025 14:05:13 GMT-0500 (Central Daylight Time),515036.9000000004,A,fin,I,n,167,2,4214.300000000745,510822.5999999996,8046,WL,A,6.0
4,15.461999893188477,learn,44538.00010681152,Thu Jul 31 2025 14:05:13 GMT-0500 (Central Daylight Time),515136.7999999998,A,fing,I,g,80,2,4314.200000000186,510822.5999999996,8046,WL,A,6.0
4,15.67799997329712,learn,44322.00002670288,Thu Jul 31 2025 14:05:13 GMT-0500 (Central Daylight Time),515353.0999999996,A,finge,I,e,211,2,4530.5,510822.5999999996,8046,WL,A,6.0
4,15.713000059127808,learn,44286.99994087219,Thu Jul 31 2025 14:05:13 GMT-0500 (Central Daylight Time),515387.5999999996,A,finger,I,r,28,2,4565.0,510822.5999999996,8046,WL,A,6.0
4,16.42899990081787,learn,43571.00009918213,Thu Jul 31 2025 14:05:13 GMT-0500 (Central Daylight Time),516104.2999999998,A,fingerenter,I,enter,697,2,5281.700000000186,510822.5999999996,8046,WL,A,6.0
4,16.894999980926514,learn,43105.000019073486,Thu Jul 31 2025 14:05:13 GMT-0500 (Central Daylight Time),516569.7999999998,A,s,I,s,452,2,465.20000000018626,516104.5999999996,8046,WL,A,7.0
4,17.044999837875366,learn,42955.000162124634,Thu Jul 31 2025 14:05:13 GMT-0500 (Central Daylight Time),516719.7000000002,A,sa,I,a,130,2,615.1000000005588,516104.5999999996,8046,WL,A,7.0
4,17.26099991798401,learn,42739.00008201599,Thu Jul 31 2025 14:05:13 GMT-0500 (Central Daylight Time),516936.0999999996,A,sal,I,l,205,2,831.5,516104.5999999996,8046,WL,A,7.0
4,17.57800006866455,learn,42421.99993133545,Thu Jul 31 2025 14:05:13 GMT-0500 (Central Daylight Time),517252.7999999998,A,salt,I,t,309,2,1148.2000000001863,516104.5999999996,8046,WL,A,7.0
4,17.89400005340576,learn,42105.99994659424,Thu Jul 31 2025 14:05:13 GMT-0500 (Central Daylight Time),517569.2000000002,A,saltenter,I,enter,296,2,1464.6000000005588,516104.5999999996,8046,WL,A,7.0
4,18.32800006866455,learn,41671.99993133545,Thu Jul 31 2025 14:05:13 GMT-0500 (Central Daylight Time),518002.5,A,a,I,a,420,2,433.0,517569.5,8046,WL,A,8.0
4,18.560999870300293,learn,41439.00012969971,Thu Jul 31 2025 14:05:13 GMT-0500 (Central Daylight Time),518235.5999999996,A,ap,I,p,218,2,666.0999999996275,517569.5,8046,WL,A,8.0
4,18.76099991798401,learn,41239.00008201599,Thu Jul 31 2025 14:05:13 GMT-0500 (Central Daylight Time),518435.7999999998,A,app,I,p,193,2,866.2999999998137,517569.5,8046,WL,A,8.0
4,19.026999950408936,learn,40973.000049591064,Thu Jul 31 2025 14:05:13 GMT-0500 (Central Daylight Time),518702.0999999996,A,appl,I,l,249,2,1132.5999999996275,517569.5,8046,WL,A,8.0
4,19.17799997329712,learn,40822.00002670288,Thu Jul 31 2025 14:05:13 GMT-0500 (Central Daylight Time),518852.4000000004,A,apple,I,e,142,2,1282.9000000003725,517569.5,8046,WL,A,8.0
4,19.477999925613403,learn,40522.0000743866,Thu Jul 31 2025 14:05:13 GMT-0500 (Central Daylight Time),519152.2999999998,A,appleenter,I,enter,288,2,1582.7999999998137,517569.5,8046,WL,A,8.0
4,19.793999910354614,learn,40206.000089645386,Thu Jul 31 2025 14:05:13 GMT-0500 (Central Daylight Time),519468.7999999998,A,c,I,c,309,2,316.20000000018626,519152.5999999996,8046,WL,A,9.0
4,20.194000005722046,learn,39805.999994277954,Thu Jul 31 2025 14:05:13 GMT-0500 (Central Daylight Time),519868.5999999996,A,ch,I,h,384,2,716.0,519152.5999999996,8046,WL,A,9.0
4,20.444000005722046,learn,39555.999994277954,Thu Jul 31 2025 14:05:13 GMT-0500 (Central Daylight Time),520118.7000000002,A,chi,I,i,240,2,966.1000000005588,519152.5999999996,8046,WL,A,9.0
4,20.759999990463257,learn,39240.00000953674,Thu Jul 31 2025 14:05:13 GMT-0500 (Central Daylight Time),520435.2000000002,A,chim,I,m,310,2,1282.6000000005588,519152.5999999996,8046,WL,A,9.0
4,21.009999990463257,learn,38990.00000953674,Thu Jul 31 2025 14:05:13 GMT-0500 (Central Daylight Time),520685.2000000002,A,chimn,I,n,242,2,1532.6000000005588,519152.5999999996,8046,WL,A,9.0
4,21.15999984741211,learn,38840.00015258789,Thu Jul 31 2025 14:05:13 GMT-0500 (Central Daylight Time),520835.0,A,chimne,I,e,136,2,1682.4000000003725,519152.5999999996,8046,WL,A,9.0
4,21.509999990463257,learn,38490.00000953674,Thu Jul 31 2025 14:05:13 GMT-0500 (Central Daylight Time),521185.0,A,chimney,I,y,330,2,2032.4000000003725,519152.5999999996,8046,WL,A,9.0
4,21.993000030517578,learn,38006.99996948242,Thu Jul 31 2025 14:05:13 GMT-0500 (Central Daylight Time),521668.2000000002,A,chimneyenter,I,enter,476,2,2515.600000000559,519152.5999999996,8046,WL,A,9.0
4,22.825999975204468,learn,37174.00002479553,Thu Jul 31 2025 14:05:13 GMT-0500 (Central Daylight Time),522501.0999999996,A,b,I,b,824,2,832.5999999996275,521668.5,8046,WL,A,10.0
4,23.05999994277954,learn,36940.00005722046,Thu Jul 31 2025 14:05:13 GMT-0500 (Central Daylight Time),522734.2999999998,A,bu,I,u,216,2,1065.7999999998137,521668.5,8046,WL,A,10.0
4,23.259000062942505,learn,36740.999937057495,Thu Jul 31 2025 14:05:13 GMT-0500 (Central Daylight Time),522934.2000000002,A,but,I,t,182,2,1265.7000000001863,521668.5,8046,WL,A,10.0
4,23.4760000705719,learn,36523.9999294281,Thu Jul 31 2025 14:05:13 GMT-0500 (Central Daylight Time),523150.9000000004,A,butt,I,t,207,2,1482.4000000003725,521668.5,8046,WL,A,10.0
4,23.5939998626709,learn,36406.0001373291,Thu Jul 31 2025 14:05:13 GMT-0500 (Central Daylight Time),523268.7999999998,A,butto,I,o,110,2,1600.2999999998137,521668.5,8046,WL,A,10.0
4,23.842999935150146,learn,36157.00006484985,Thu Jul 31 2025 14:05:13 GMT-0500 (Central Daylight Time),523517.5,A,button,I,n,232,2,1849.0,521668.5,8046,WL,A,10.0
4,25.575999975204468,learn,34424.00002479553,Thu Jul 31 2025 14:05:13 GMT-0500 (Central Daylight Time),525250.2000000002,A,buttonenter,I,enter,1719,2,3581.7000000001863,521668.5,8046,WL,A,10.0
4,25.97499990463257,learn,34025.00009536743,Thu Jul 31 2025 14:05:13 GMT-0500 (Central Daylight Time),525650.0999999996,A,l,I,l,394,2,399.5,525250.5999999996,8046,WL,A,11.0
4,26.30900001525879,learn,33690.99998474121,Thu Jul 31 2025 14:05:13 GMT-0500 (Central Daylight Time),525983.2999999998,A,lo,I,o,315,2,732.7000000001863,525250.5999999996,8046,WL,A,11.0
4,26.60800004005432,learn,33391.99995994568,Thu Jul 31 2025 14:05:13 GMT-0500 (Central Daylight Time),526283.2000000002,A,log,I,g,284,2,1032.6000000005588,525250.5999999996,8046,WL,A,11.0
4,27.057999849319458,learn,32942.00015068054,Thu Jul 31 2025 14:05:13 GMT-0500 (Central Daylight Time),526733.0999999996,A,logenter,I,enter,433,2,1482.5,525250.5999999996,8046,WL,A,11.0
4,27.557999849319458,learn,32442.000150680542,Thu Jul 31 2025 14:05:13 GMT-0500 (Central Daylight Time),527232.9000000004,A,k,I,k,487,2,499.5,526733.4000000004,8046,WL,A,12.0
4,27.79099988937378,learn,32209.00011062622,Thu Jul 31 2025 14:05:13 GMT-0500 (Central Daylight Time),527466.2000000002,A,ke,I,e,219,2,732.7999999998137,526733.4000000004,8046,WL,A,12.0
4,28.024999856948853,learn,31975.000143051147,Thu Jul 31 2025 14:05:13 GMT-0500 (Central Daylight Time),527699.7000000002,A,key,I,y,218,2,966.2999999998137,526733.4000000004,8046,WL,A,12.0
4,28.507999897003174,learn,31492.000102996826,Thu Jul 31 2025 14:05:13 GMT-0500 (Central Daylight Time),528182.7999999998,A,keyenter,I,enter,473,2,1449.3999999994412,526733.4000000004,8046,WL,A,12.0
4,28.907999992370605,learn,31092.000007629395,Thu Jul 31 2025 14:05:13 GMT-0500 (Central Daylight Time),528582.7000000002,A,r,I,r,389,2,399.6000000005588,528183.0999999996,8046,WL,A,13.0
4,29.223999977111816,learn,30776.000022888184,Thu Jul 31 2025 14:05:13 GMT-0500 (Central Daylight Time),528899.0999999996,A,ra,I,a,301,2,716.0,528183.0999999996,8046,WL,A,13.0
4,29.54099988937378,learn,30459.00011062622,Thu Jul 31 2025 14:05:13 GMT-0500 (Central Daylight Time),529215.5,A,rat,I,t,296,2,1032.4000000003725,528183.0999999996,8046,WL,A,13.0
4,29.757999897003174,learn,30242.000102996826,Thu Jul 31 2025 14:05:13 GMT-0500 (Central Daylight Time),529432.2999999998,A,ratt,I,t,196,2,1249.2000000001863,528183.0999999996,8046,WL,A,13.0
4,30.024999856948853,learn,29975.000143051147,Thu Jul 31 2025 14:05:13 GMT-0500 (Central Daylight Time),529699.9000000004,A,rattl,I,l,252,2,1516.800000000745,528183.0999999996,8046,WL,A,13.0
4,30.19099998474121,learn,29809.00001525879,Thu Jul 31 2025 14:05:13 GMT-0500 (Central Daylight Time),529865.5,A,rattle,I,e,144,2,1682.4000000003725,528183.0999999996,8046,WL,A,13.0
4,31.407000064849854,learn,28592.999935150146,Thu Jul 31 2025 14:05:13 GMT-0500 (Central Daylight Time),531081.5,A,rattleenter,I,enter,1211,2,2898.4000000003725,528183.0999999996,8046,WL,A,13.0
4,31.973999977111816,learn,28026.000022888184,Thu Jul 31 2025 14:05:13 GMT-0500 (Central Daylight Time),531648.2999999998,A,g,I,g,546,2,566.5,531081.7999999998,8046,WL,A,14.0
4,32.24000000953674,learn,27759.999990463257,Thu Jul 31 2025 14:05:13 GMT-0500 (Central Daylight Time),531914.7999999998,A,go,I,o,260,2,833.0,531081.7999999998,8046,WL,A,14.0
4,32.556999921798706,learn,27443.000078201294,Thu Jul 31 2025 14:05:13 GMT-0500 (Central Daylight Time),532231.4000000004,A,gol,I,l,306,2,1149.6000000005588,531081.7999999998,8046,WL,A,14.0
4,32.77300000190735,learn,27226.99999809265,Thu Jul 31 2025 14:05:13 GMT-0500 (Central Daylight Time),532448.0,A,gold,I,d,196,2,1366.2000000001863,531081.7999999998,8046,WL,A,14.0
4,34.638999938964844,learn,25361.000061035156,Thu Jul 31 2025 14:05:13 GMT-0500 (Central Daylight Time),534313.9000000004,A,goldenter,I,enter,1852,2,3232.100000000559,531081.7999999998,8046,WL,A,14.0
4,49.16700005531311,learn,10832.99994468689,Thu Jul 31 2025 14:05:13 GMT-0500 (Central Daylight Time),548842.7000000002,A,h,I,h,14522,2,14528.5,534314.2000000002,8046,WL,A,15.0
4,49.28399991989136,learn,10716.000080108643,Thu Jul 31 2025 14:05:13 GMT-0500 (Central Daylight Time),548959.4000000004,A,ha,I,a,97,2,14645.200000000186,534314.2000000002,8046,WL,A,15.0
4,49.58399987220764,learn,10416.000127792358,Thu Jul 31 2025 14:05:13 GMT-0500 (Central Daylight Time),549259.5,A,har,I,r,294,2,14945.299999999814,534314.2000000002,8046,WL,A,15.0
4,49.73300004005432,learn,10266.999959945679,Thu Jul 31 2025 14:05:13 GMT-0500 (Central Daylight Time),549409.0999999996,A,harp,I,p,129,2,15094.899999999441,534314.2000000002,8046,WL,A,15.0
4,50.049999952316284,learn,9950.000047683716,Thu Jul 31 2025 14:05:13 GMT-0500 (Central Daylight Time),549725.7999999998,A,harpenter,I,enter,300,2,15411.599999999627,534314.2000000002,8046,WL,A,15.0
5,0.6830000877380371,learn,60000.0,Thu Jul 31 2025 14:05:13 GMT-0500 (Central Daylight Time),618820.7999999998,A,f,I,f,674,2,682.8999999994412,618137.9000000004,8046,WL,A,1.0
5,1.2990000247955322,learn,60000.0,Thu Jul 31 2025 14:05:13 GMT-0500 (Central Daylight Time),619437.2999999998,A,fl,I,l,606,2,1299.3999999994412,618137.9000000004,8046,WL,A,1.0
5,1.8499999046325684,learn,60000.0,Thu Jul 31 2025 14:05:13 GMT-0500 (Central Daylight Time),619988.4000000004,A,f,I,backspace,544,2,1850.5,618137.9000000004,8046,WL,A,1.0
5,2.0820000171661377,learn,60000.0,Thu Jul 31 2025 14:05:13 GMT-0500 (Central Daylight Time),620220.5,A,,I,backspace,224,2,2082.5999999996275,618137.9000000004,8046,WL,A,1.0
5,2.2990000247955322,learn,60000.0,Thu Jul 31 2025 14:05:13 GMT-0500 (Central Daylight Time),620436.9000000004,A,b,I,b,208,2,2299.0,618137.9000000004,8046,WL,A,1.0
5,3.5480000972747803,learn,60000.0,Thu Jul 31 2025 14:05:13 GMT-0500 (Central Daylight Time),621686.5,A,bo,I,o,1232,2,3548.5999999996275,618137.9000000004,8046,WL,A,1.0
5,3.749000072479248,learn,60000.0,Thu Jul 31 2025 14:05:13 GMT-0500 (Central Daylight Time),621886.7000000002,A,boo,I,o,190,2,3748.7999999998137,618137.9000000004,8046,WL,A,1.0
5,3.9819998741149902,learn,60000.0,Thu Jul 31 2025 14:05:13 GMT-0500 (Central Daylight Time),622120.0,A,book,I,k,214,2,3982.0999999996275,618137.9000000004,8046,WL,A,1.0
5,4.7149999141693115,learn,60000.0,Thu Jul 31 2025 14:05:13 GMT-0500 (Central Daylight Time),622852.7000000002,A,bookenter,I,enter,717,2,4714.799999999814,618137.9000000004,8046,WL,A,1.0
5,5.315000057220459,learn,60000.0,Thu Jul 31 2025 14:05:13 GMT-0500 (Central Daylight Time),623452.7999999998,A,f,I,f,584,2,599.7000000001863,622853.0999999996,8046,WL,A,2.0
5,5.480999946594238,learn,60000.0,Thu Jul 31 2025 14:05:13 GMT-0500 (Central Daylight Time),623619.5,A,fl,I,l,159,2,766.4000000003725,622853.0999999996,8046,WL,A,2.0
5,5.7149999141693115,learn,60000.0,Thu Jul 31 2025 14:05:13 GMT-0500 (Central Daylight Time),623852.7000000002,A,flo,I,o,225,2,999.6000000005588,622853.0999999996,8046,WL,A,2.0
5,5.813999891281128,learn,60000.0,Thu Jul 31 2025 14:05:13 GMT-0500 (Central Daylight Time),623952.5,A,flow,I,w,80,2,1099.4000000003725,622853.0999999996,8046,WL,A,2.0
5,5.947999954223633,learn,60000.0,Thu Jul 31 2025 14:05:13 GMT-0500 (Central Daylight Time),624085.7999999998,A,flowe,I,e,115,2,1232.7000000001863,622853.0999999996,8046,WL,A,2.0
5,6.0309998989105225,learn,60000.0,Thu Jul 31 2025 14:05:13 GMT-0500 (Central Daylight Time),624169.2999999998,A,flower,I,r,63,2,1316.2000000001863,622853.0999999996,8046,WL,A,2.0
5,8.147000074386597,learn,60000.0,Thu Jul 31 2025 14:05:13 GMT-0500 (Central Daylight Time),626285.2999999998,A,flowerenter,I,enter,2099,2,3432.2000000001863,622853.0999999996,8046,WL,A,2.0
5,9.063999891281128,learn,60000.0,Thu Jul 31 2025 14:05:13 GMT-0500 (Central Daylight Time),627201.5999999996,A,t,I,t,903,2,916.0,626285.5999999996,8046,WL,A,3.0
5,9.329999923706055,learn,60000.0,Thu Jul 31 2025 14:05:13 GMT-0500 (Central Daylight Time),627468.2999999998,A,tr,I,r,259,2,1182.7000000001863,626285.5999999996,8046,WL,A,3.0
5,9.496999979019165,learn,60000.0,Thu Jul 31 2025 14:05:13 GMT-0500 (Central Daylight Time),627634.7999999998,A,tra,I,a,160,2,1349.2000000001863,626285.5999999996,8046,WL,A,3.0
5,9.663000106811523,learn,60000.0,Thu Jul 31 2025 14:05:13 GMT-0500 (Central Daylight Time),627801.2000000002,A,trai,I,i,162,2,1515.6000000005588,626285.5999999996,8046,WL,A,3.0
5,9.86299991607666,learn,60000.0,Thu Jul 31 2025 14:05:13 GMT-0500 (Central Daylight Time),628001.0999999996,A,train,I,n,196,2,1715.5,626285.5999999996,8046,WL,A,3.0
5,10.348000049591064,learn,60000.0,Thu Jul 31 2025 14:05:13 GMT-0500 (Central Daylight Time),628486.5,A,trainenter,I,enter,473,2,2200.9000000003725,626285.5999999996,8046,WL,A,3.0
5,10.895999908447266,learn,60000.0,Thu Jul 31 2025 14:05:13 GMT-0500 (Central Daylight Time),629034.5,A,r,I,r,534,2,547.7999999998137,628486.7000000002,8046,WL,A,4.0
5,11.129999876022339,learn,60000.0,Thu Jul 31 2025 14:05:13 GMT-0500 (Central Daylight Time),629267.7000000002,A,ru,I,u,226,2,781.0,628486.7000000002,8046,WL,A,4.0
5,11.279000043869019,learn,60000.0,Thu Jul 31 2025 14:05:13 GMT-0500 (Central Daylight Time),629417.4000000004,A,rug,I,g,145,2,930.7000000001863,628486.7000000002,8046,WL,A,4.0
5,12.911999940872192,learn,60000.0,Thu Jul 31 2025 14:05:13 GMT-0500 (Central Daylight Time),631050.4000000004,A,rugenter,I,enter,1627,2,2563.7000000001863,628486.7000000002,8046,WL,A,4.0
5,13.479000091552734,learn,60000.0,Thu Jul 31 2025 14:05:13 GMT-0500 (Central Daylight Time),631616.7999999998,A,m,I,m,561,2,566.0999999996275,631050.7000000002,8046,WL,A,5.0
5,13.678999900817871,learn,60000.0,Thu Jul 31 2025 14:05:13 GMT-0500 (Central Daylight Time),631816.7999999998,A,me,I,e,179,2,766.0999999996275,631050.7000000002,8046,WL,A,5.0
5,13.795000076293945,learn,60000.0,Thu Jul 31 2025 14:05:13 GMT-0500 (Central Daylight Time),631933.5999999996,A,mea,I,a,108,2,882.8999999994412,631050.7000000002,8046,WL,A,5.0
5,14.045000076293945,learn,60000.0,Thu Jul 31 2025 14:05:13 GMT-0500 (Central Daylight Time),632183.5999999996,A,mead,I,d,231,2,1132.8999999994412,631050.7000000002,8046,WL,A,5.0
5,14.161999940872192,learn,60000.0,Thu Jul 31 2025 14:05:13 GMT-0500 (Central Daylight Time),632299.9000000004,A,meado,I,o,108,2,1249.2000000001863,631050.7000000002,8046,WL,A,5.0
5,14.34500002861023,learn,60000.0,Thu Jul 31 2025 14:05:13 GMT-0500 (Central Daylight Time),632483.0999999996,A,meadow,I,w,177,2,1432.3999999994412,631050.7000000002,8046,WL,A,5.0
5,15.460999965667725,learn,60000.0,Thu Jul 31 2025 14:05:13 GMT-0500 (Central Daylight Time),633599.5,A,meadowenter,I,enter,1097,2,2548.7999999998137,631050.7000000002,8046,WL,A,5.0
5,17.57800006866455,learn,60000.0,Thu Jul 31 2025 14:05:13 GMT-0500 (Central Daylight Time),635715.5999999996,A,h,I,h,2101,2,2115.7999999998137,633599.7999999998,8046,WL,A,6.0
5,17.74399995803833,learn,60000.0,Thu Jul 31 2025 14:05:13 GMT-0500 (Central Daylight Time),635882.2999999998,A,ha,I,a,153,2,2282.5,633599.7999999998,8046,WL,A,6.0
5,18.026999950408936,learn,60000.0,Thu Jul 31 2025 14:05:13 GMT-0500 (Central Daylight Time),636165.4000000004,A,har,I,r,266,2,2565.600000000559,633599.7999999998,8046,WL,A,6.0
5,18.51099991798401,learn,60000.0,Thu Jul 31 2025 14:05:13 GMT-0500 (Central Daylight Time),636648.7999999998,A,harp,I,p,471,2,3049.0,633599.7999999998,8046,WL,A,6.0
5,19.026999950408936,learn,60000.0,Thu Jul 31 2025 14:05:13 GMT-0500 (Central Daylight Time),637165.0,A,harpenter,I,enter,508,2,3565.2000000001863,633599.7999999998,8046,WL,A,6.0
5,19.57699990272522,learn,60000.0,Thu Jul 31 2025 14:05:13 GMT-0500 (Central Daylight Time),637714.9000000004,A,f,I,f,544,2,549.6000000005588,637165.2999999998,8046,WL,A,7.0
5,19.777999877929688,learn,60000.0,Thu Jul 31 2025 14:05:13 GMT-0500 (Central Daylight Time),637915.9000000004,A,fi,I,i,186,2,750.6000000005588,637165.2999999998,8046,WL,A,7.0
5,20.042999982833862,learn,60000.0,Thu Jul 31 2025 14:05:13 GMT-0500 (Central Daylight Time),638181.5999999996,A,fin,I,n,257,2,1016.2999999998137,637165.2999999998,8046,WL,A,7.0
5,20.193000078201294,learn,60000.0,Thu Jul 31 2025 14:05:13 GMT-0500 (Central Daylight Time),638331.5,A,fing,I,g,134,2,1166.2000000001863,637165.2999999998,8046,WL,A,7.0
5,20.47699999809265,learn,60000.0,Thu Jul 31 2025 14:05:13 GMT-0500 (Central Daylight Time),638614.5999999996,A,finge,I,e,273,2,1449.2999999998137,637165.2999999998,8046,WL,A,7.0
5,20.55999994277954,learn,60000.0,Thu Jul 31 2025 14:05:13 GMT-0500 (Central Daylight Time),638698.0999999996,A,finger,I,r,70,2,1532.7999999998137,637165.2999999998,8046,WL,A,7.0
5,21.210000038146973,learn,60000.0,Thu Jul 31 2025 14:05:13 GMT-0500 (Central Daylight Time),639347.5999999996,A,fingerenter,I,enter,634,2,2182.2999999998137,637165.2999999998,8046,WL,A,7.0
5,22.443000078201294,learn,60000.0,Thu Jul 31 2025 14:05:13 GMT-0500 (Central Daylight Time),640580.7000000002,A,s,I,s,1217,2,1232.6000000005588,639348.0999999996,8046,WL,A,8.0
5,22.625999927520752,learn,60000.0,Thu Jul 31 2025 14:05:13 GMT-0500 (Central Daylight Time),640763.9000000004,A,sa,I,a,168,2,1415.800000000745,639348.0999999996,8046,WL,A,8.0
5,22.80900001525879,learn,60000.0,Thu Jul 31 2025 14:05:13 GMT-0500 (Central Daylight Time),640947.0999999996,A,sal,I,l,169,2,1599.0,639348.0999999996,8046,WL,A,8.0
5,23.108999967575073,learn,60000.0,Thu Jul 31 2025 14:05:13 GMT-0500 (Central Daylight Time),641247.0999999996,A,salt,I,t,289,2,1899.0,639348.0999999996,8046,WL,A,8.0
5,23.425999879837036,learn,60000.0,Thu Jul 31 2025 14:05:13 GMT-0500 (Central Daylight Time),641563.7999999998,A,saltenter,I,enter,310,2,2215.7000000001863,639348.0999999996,8046,WL,A,8.0
5,23.72499990463257,learn,60000.0,Thu Jul 31 2025 14:05:13 GMT-0500 (Central Daylight Time),641863.5999999996,A,a,I,a,281,2,299.5,641564.0999999996,8046,WL,A,9.0
5,24.009000062942505,learn,60000.0,Thu Jul 31 2025 14:05:13 GMT-0500 (Central Daylight Time),642147.0,A,ap,I,p,277,2,582.9000000003725,641564.0999999996,8046,WL,A,9.0
5,24.27500009536743,learn,60000.0,Thu Jul 31 2025 14:05:13 GMT-0500 (Central Daylight Time),642413.5,A,app,I,p,249,2,849.4000000003725,641564.0999999996,8046,WL,A,9.0
5,24.54200005531311,learn,60000.0,Thu Jul 31 2025 14:05:13 GMT-0500 (Central Daylight Time),642679.9000000004,A,appl,I,l,247,2,1115.800000000745,641564.0999999996,8046,WL,A,9.0
5,24.743000030517578,learn,60000.0,Thu Jul 31 2025 14:05:13 GMT-0500 (Central Daylight Time),642881.2000000002,A,apple,I,e,180,2,1317.1000000005588,641564.0999999996,8046,WL,A,9.0
5,25.77500009536743,learn,60000.0,Thu Jul 31 2025 14:05:13 GMT-0500 (Central Daylight Time),643913.0,A,appleenter,I,enter,1027,2,2348.9000000003725,641564.0999999996,8046,WL,A,9.0
5,28.573999881744385,learn,60000.0,Thu Jul 31 2025 14:05:13 GMT-0500 (Central Daylight Time),646712.4000000004,A,m,I,m,2779,2,2799.100000000559,643913.2999999998,8046,WL,A,10.0
5,29.54200005531311,learn,60000.0,Thu Jul 31 2025 14:05:13 GMT-0500 (Central Daylight Time),647679.7000000002,A,,I,backspace,948,2,3766.4000000003725,643913.2999999998,8046,WL,A,10.0
5,30.407000064849854,learn,60000.0,Thu Jul 31 2025 14:05:13 GMT-0500 (Central Daylight Time),648544.9000000004,A,b,I,b,861,2,4631.600000000559,643913.2999999998,8046,WL,A,10.0
5,31.490000009536743,learn,60000.0,Thu Jul 31 2025 14:05:13 GMT-0500 (Central Daylight Time),649627.7999999998,A,bu,I,u,1068,2,5714.5,643913.2999999998,8046,WL,A,10.0
5,31.622999906539917,learn,60000.0,Thu Jul 31 2025 14:05:13 GMT-0500 (Central Daylight Time),649761.0999999996,A,but,I,t,121,2,5847.799999999814,643913.2999999998,8046,WL,A,10.0
5,31.822999954223633,learn,60000.0,Thu Jul 31 2025 14:05:13 GMT-0500 (Central Daylight Time),649961.0999999996,A,butt,I,t,196,2,6047.799999999814,643913.2999999998,8046,WL,A,10.0
5,31.956000089645386,learn,60000.0,Thu Jul 31 2025 14:05:13 GMT-0500 (Central Daylight Time),650094.2999999998,A,butto,I,o,116,2,6181.0,643913.2999999998,8046,WL,A,10.0
5,32.15599989891052,learn,60000.0,Thu Jul 31 2025 14:05:13 GMT-0500 (Central Daylight Time),650294.2000000002,A,button,I,n,183,2,6380.9000000003725,643913.2999999998,8046,WL,A,10.0
5,32.539000034332275,learn,60000.0,Thu Jul 31 2025 14:05:13 GMT-0500 (Central Daylight Time),650677.5999999996,A,buttonenter,I,enter,373,2,6764.299999999814,643913.2999999998,8046,WL,A,10.0
5,32.90599989891052,learn,60000.0,Thu Jul 31 2025 14:05:13 GMT-0500 (Central Daylight Time),651044.2999999998,A,l,I,l,359,2,366.3999999994412,650677.9000000004,8046,WL,A,11.0
5,33.17300009727478,learn,60000.0,Thu Jul 31 2025 14:05:13 GMT-0500 (Central Daylight Time),651310.7999999998,A,lo,I,o,255,2,632.8999999994412,650677.9000000004,8046,WL,A,11.0
5,33.35599994659424,learn,60000.0,Thu Jul 31 2025 14:05:13 GMT-0500 (Central Daylight Time),651494.0999999996,A,log,I,g,166,2,816.1999999992549,650677.9000000004,8046,WL,A,11.0
5,33.882999897003174,learn,60000.0,Thu Jul 31 2025 14:05:13 GMT-0500 (Central Daylight Time),652021.2000000002,A,logenter,I,enter,523,2,1343.2999999998137,650677.9000000004,8046,WL,A,11.0
5,34.289000034332275,learn,60000.0,Thu Jul 31 2025 14:05:13 GMT-0500 (Central Daylight Time),652426.9000000004,A,k,I,k,399,2,405.30000000074506,652021.5999999996,8046,WL,A,12.0
5,34.5220000743866,learn,60000.0,Thu Jul 31 2025 14:05:13 GMT-0500 (Central Daylight Time),652660.2999999998,A,ke,I,e,218,2,638.7000000001863,652021.5999999996,8046,WL,A,12.0
5,34.855000019073486,learn,60000.0,Thu Jul 31 2025 14:05:13 GMT-0500 (Central Daylight Time),652993.5,A,key,I,y,320,2,971.9000000003725,652021.5999999996,8046,WL,A,12.0
5,35.65499997138977,learn,60000.0,Thu Jul 31 2025 14:05:13 GMT-0500 (Central Daylight Time),653792.9000000004,A,keyenter,I,enter,795,2,1771.300000000745,652021.5999999996,8046,WL,A,12.0
5,36.38800001144409,learn,60000.0,Thu Jul 31 2025 14:05:13 GMT-0500 (Central Daylight Time),654526.2000000002,A,r,I,r,724,2,733.0,653793.2000000002,8046,WL,A,13.0
5,36.605000019073486,learn,60000.0,Thu Jul 31 2025 14:05:13 GMT-0500 (Central Daylight Time),654743.0999999996,A,ra,I,a,206,2,949.8999999994412,653793.2000000002,8046,WL,A,13.0
5,36.75499987602234,learn,60000.0,Thu Jul 31 2025 14:05:13 GMT-0500 (Central Daylight Time),654893.0,A,rat,I,t,134,2,1099.7999999998137,653793.2000000002,8046,WL,A,13.0
5,37.15499997138977,learn,60000.0,Thu Jul 31 2025 14:05:13 GMT-0500 (Central Daylight Time),655292.7000000002,A,ratt,I,t,392,2,1499.5,653793.2000000002,8046,WL,A,13.0
5,37.38800001144409,learn,60000.0,Thu Jul 31 2025 14:05:13 GMT-0500 (Central Daylight Time),655525.9000000004,A,rattl,I,l,223,2,1732.7000000001863,653793.2000000002,8046,WL,A,13.0
5,37.55399990081787,learn,60000.0,Thu Jul 31 2025 14:05:13 GMT-0500 (Central Daylight Time),655692.5,A,rattle,I,e,158,2,1899.2999999998137,653793.2000000002,8046,WL,A,13.0
5,37.83800005912781,learn,60000.0,Thu Jul 31 2025 14:05:13 GMT-0500 (Central Daylight Time),655975.7999999998,A,rattleenter,I,enter,272,2,2182.5999999996275,653793.2000000002,8046,WL,A,13.0
5,38.32100009918213,learn,60000.0,Thu Jul 31 2025 14:05:13 GMT-0500 (Central Daylight Time),656459.0,A,g,I,g,469,2,482.79999999981374,655976.2000000002,8046,WL,A,14.0
5,38.65400004386902,learn,60000.0,Thu Jul 31 2025 14:05:13 GMT-0500 (Central Daylight Time),656792.4000000004,A,go,I,o,313,2,816.2000000001863,655976.2000000002,8046,WL,A,14.0
5,39.08699989318848,learn,60000.0,Thu Jul 31 2025 14:05:13 GMT-0500 (Central Daylight Time),657225.4000000004,A,gol,I,l,428,2,1249.2000000001863,655976.2000000002,8046,WL,A,14.0
5,39.33699989318848,learn,60000.0,Thu Jul 31 2025 14:05:13 GMT-0500 (Central Daylight Time),657475.2999999998,A,gold,I,d,236,2,1499.0999999996275,655976.2000000002,8046,WL,A,14.0
5,41.36899995803833,learn,60000.0,Thu Jul 31 2025 14:05:13 GMT-0500 (Central Daylight Time),659508.0,A,goldenter,I,enter,2017,2,3531.7999999998137,655976.2000000002,8046,WL,A,14.0
5,42.05200004577637,learn,60000.0,Thu Jul 31 2025 14:05:13 GMT-0500 (Central Daylight Time),660191.0999999996,A,h,I,h,673,2,682.7999999998137,659508.2999999998,8046,WL,A,15.0
5,42.35199999809265,learn,60000.0,Thu Jul 31 2025 14:05:13 GMT-0500 (Central Daylight Time),660490.9000000004,A,ha,I,a,294,2,982.6000000005588,659508.2999999998,8046,WL,A,15.0
5,42.58500003814697,learn,60000.0,Thu Jul 31 2025 14:05:13 GMT-0500 (Central Daylight Time),660724.4000000004,A,har,I,r,226,2,1216.1000000005588,659508.2999999998,8046,WL,A,15.0
5,42.75200009346008,learn,60000.0,Thu Jul 31 2025 14:05:13 GMT-0500 (Central Daylight Time),660890.7000000002,A,harp,I,p,153,2,1382.4000000003725,659508.2999999998,8046,WL,A,15.0
5,44.03500008583069,learn,60000.0,Thu Jul 31 2025 14:05:13 GMT-0500 (Central Daylight Time),662173.9000000004,A,harpenter,I,enter,1266,2,2665.600000000559,659508.2999999998,8046,WL,A,15.0
6,0.7170000076293945,distr,59282.999992370605,Thu Jul 31 2025 14:05:13 GMT-0500 (Central Daylight Time),735816.9000000004,B,j,I,j,704,2,716.0,735100.9000000004,8046,WL,A,1.0
6,1.1670000553131104,distr,58832.99994468689,Thu Jul 31 2025 14:05:13 GMT-0500 (Central Daylight Time),736267.2000000002,B,ju,I,u,442,2,1166.2999999998137,735100.9000000004,8046,WL,A,1.0
6,1.432999849319458,distr,58567.00015068054,Thu Jul 31 2025 14:05:13 GMT-0500 (Central Daylight Time),736533.5999999996,B,jud,I,d,257,2,1432.699999999255,735100.9000000004,8046,WL,A,1.0
6,1.7170000076293945,distr,58282.999992370605,Thu Jul 31 2025 14:05:13 GMT-0500 (Central Daylight Time),736816.9000000004,B,judg,I,g,270,2,1716.0,735100.9000000004,8046,WL,A,1.0
6,1.932999849319458,distr,58067.00015068054,Thu Jul 31 2025 14:05:13 GMT-0500 (Central Daylight Time),737033.5,B,judge,I,e,211,2,1932.5999999996275,735100.9000000004,8046,WL,A,1.0
6,2.75,distr,57250.0,Thu Jul 31 2025 14:05:13 GMT-0500 (Central Daylight Time),737850.0999999996,B,judgeenter,I,enter,803,2,2749.199999999255,735100.9000000004,8046,WL,A,1.0
6,3.315999984741211,distr,56684.00001525879,Thu Jul 31 2025 14:05:13 GMT-0500 (Central Daylight Time),738416.5999999996,B,d,I,d,545,2,566.1999999992549,737850.4000000004,8046,WL,A,2.0
6,3.6989998817443848,distr,56301.000118255615,Thu Jul 31 2025 14:05:13 GMT-0500 (Central Daylight Time),738799.5,B,da,I,a,371,2,949.0999999996275,737850.4000000004,8046,WL,A,2.0
6,3.9489998817443848,distr,56051.000118255615,Thu Jul 31 2025 14:05:13 GMT-0500 (Central Daylight Time),739049.4000000004,B,daw,I,w,236,2,1199.0,737850.4000000004,8046,WL,A,2.0
6,4.448999881744385,distr,55551.000118255615,Thu Jul 31 2025 14:05:13 GMT-0500 (Central Daylight Time),739549.7000000002,B,dawn,I,n,491,2,1699.2999999998137,737850.4000000004,8046,WL,A,2.0
6,5.0320000648498535,distr,54967.99993515015,Thu Jul 31 2025 14:05:13 GMT-0500 (Central Daylight Time),740132.7999999998,B,dawnenter,I,enter,575,2,2282.399999999441,737850.4000000004,8046,WL,A,2.0
6,5.448999881744385,distr,54551.000118255615,Thu Jul 31 2025 14:05:13 GMT-0500 (Central Daylight Time),740549.2999999998,B,g,I,g,400,2,416.09999999962747,740133.2000000002,8046,WL,A,3.0
6,5.799000024795532,distr,54200.99997520447,Thu Jul 31 2025 14:05:13 GMT-0500 (Central Daylight Time),740899.0999999996,B,gr,I,r,335,2,765.8999999994412,740133.2000000002,8046,WL,A,3.0
6,5.998999834060669,distr,54001.00016593933,Thu Jul 31 2025 14:05:13 GMT-0500 (Central Daylight Time),741099.2999999998,B,gra,I,a,186,2,966.0999999996275,740133.2000000002,8046,WL,A,3.0
6,6.23199987411499,distr,53768.00012588501,Thu Jul 31 2025 14:05:13 GMT-0500 (Central Daylight Time),741332.2999999998,B,gran,I,n,218,2,1199.0999999996275,740133.2000000002,8046,WL,A,3.0
6,6.381999969482422,distr,53618.00003051758,Thu Jul 31 2025 14:05:13 GMT-0500 (Central Daylight Time),741482.2999999998,B,grant,I,t,143,2,1349.0999999996275,740133.2000000002,8046,WL,A,3.0
6,7.447999954223633,distr,52552.00004577637,Thu Jul 31 2025 14:05:13 GMT-0500 (Central Daylight Time),742548.2999999998,B,grantenter,I,enter,1058,2,2415.0999999996275,740133.2000000002,8046,WL,A,3.0
6,7.764999866485596,distr,52235.000133514404,Thu Jul 31 2025 14:05:13 GMT-0500 (Central Daylight Time),742865.2000000002,B,c,I,c,311,2,316.6000000005588,742548.5999999996,8046,WL,A,4.0
6,8.065999984741211,distr,51934.00001525879,Thu Jul 31 2025 14:05:13 GMT-0500 (Central Daylight Time),743166.2999999998,B,co,I,o,291,2,617.7000000001863,742548.5999999996,8046,WL,A,4.0
6,8.214999914169312,distr,51785.00008583069,Thu Jul 31 2025 14:05:13 GMT-0500 (Central Daylight Time),743315.0999999996,B,cou,I,u,134,2,766.5,742548.5999999996,8046,WL,A,4.0
6,8.480999946594238,distr,51519.00005340576,Thu Jul 31 2025 14:05:13 GMT-0500 (Central Daylight Time),743581.7999999998,B,cout,I,t,258,2,1033.2000000001863,742548.5999999996,8046,WL,A,4.0
6,9.049000024795532,distr,50950.99997520447,Thu Jul 31 2025 14:05:13 GMT-0500 (Central Daylight Time),744149.2000000002,B,cou,I,backspace,549,2,1600.6000000005588,742548.5999999996,8046,WL,A,4.0
6,9.697999954223633,distr,50302.00004577637,Thu Jul 31 2025 14:05:13 GMT-0500 (Central Daylight Time),744797.9000000004,B,coun,I,n,640,2,2249.300000000745,742548.5999999996,8046,WL,A,4.0
6,9.88100004196167,distr,50118.99995803833,Thu Jul 31 2025 14:05:13 GMT-0500 (Central Daylight Time),744981.2999999998,B,count,I,t,175,2,2432.7000000001863,742548.5999999996,8046,WL,A,4.0
6,10.180999994277954,distr,49819.000005722046,Thu Jul 31 2025 14:05:13 GMT-0500 (Central Daylight Time),745281.2999999998,B,county,I,y,279,2,2732.7000000001863,742548.5999999996,8046,WL,A,4.0
6,10.780999898910522,distr,49219.00010108948,Thu Jul 31 2025 14:05:13 GMT-0500 (Central Daylight Time),745880.9000000004,B,countyenter,I,enter,580,2,3332.300000000745,742548.5999999996,8046,WL,A,4.0
6,11.379999876022339,distr,48620.00012397766,Thu Jul 31 2025 14:05:13 GMT-0500 (Central Daylight Time),746480.9000000004,B,p,I,p,588,2,599.7000000001863,745881.2000000002,8046,WL,A,5.0
6,11.730000019073486,distr,48269.999980926514,Thu Jul 31 2025 14:05:13 GMT-0500 (Central Daylight Time),746830.7999999998,B,po,I,o,340,2,949.5999999996275,745881.2000000002,8046,WL,A,5.0
6,11.980999946594238,distr,48019.00005340576,Thu Jul 31 2025 14:05:13 GMT-0500 (Central Daylight Time),747081.0,B,poo,I,o,229,2,1199.7999999998137,745881.2000000002,8046,WL,A,5.0
6,12.29699993133545,distr,47703.00006866455,Thu Jul 31 2025 14:05:13 GMT-0500 (Central Daylight Time),747397.2999999998,B,pool,I,l,308,2,1516.0999999996275,745881.2000000002,8046,WL,A,5.0
6,14.628999948501587,distr,45371.00005149841,Thu Jul 31 2025 14:05:13 GMT-0500 (Central Daylight Time),749729.7000000002,B,poolenter,I,enter,2319,2,3848.5,745881.2000000002,8046,WL,A,5.0
6,16.828999996185303,distr,43171.0000038147,Thu Jul 31 2025 14:05:13 GMT-0500 (Central Daylight Time),751929.0,B,c,I,c,2195,2,2198.9000000003725,749730.0999999996,8046,WL,A,6.0
6,17.161999940872192,distr,42838.00005912781,Thu Jul 31 2025 14:05:13 GMT-0500 (Central Daylight Time),752262.2000000002,B,ch,I,h,315,2,2532.100000000559,749730.0999999996,8046,WL,A,6.0
6,17.394999980926514,distr,42605.000019073486,Thu Jul 31 2025 14:05:13 GMT-0500 (Central Daylight Time),752495.7000000002,B,cha,I,a,213,2,2765.600000000559,749730.0999999996,8046,WL,A,6.0
6,17.562000036239624,distr,42437.999963760376,Thu Jul 31 2025 14:05:13 GMT-0500 (Central Daylight Time),752662.2999999998,B,chai,I,i,157,2,2932.2000000001863,749730.0999999996,8046,WL,A,6.0
6,17.794999837875366,distr,42205.000162124634,Thu Jul 31 2025 14:05:13 GMT-0500 (Central Daylight Time),752895.4000000004,B,chair,I,r,222,2,3165.300000000745,749730.0999999996,8046,WL,A,6.0
6,19.227999925613403,distr,40772.0000743866,Thu Jul 31 2025 14:05:13 GMT-0500 (Central Daylight Time),754328.2999999998,B,chairenter,I,enter,1412,2,4598.200000000186,749730.0999999996,8046,WL,A,6.0
6,60.014999866485596,distr,-14.999866485595703,Thu Jul 31 2025 14:05:13 GMT-0500 (Central Daylight Time),795115.7000000002,B,None,I,None,40784,2,40787.10000000056,754328.5999999996,8046,WL,A,7.0
7,0.5,immed,59500.0,Thu Jul 31 2025 14:05:13 GMT-0500 (Central Daylight Time),803529.4000000004,A,b,I,b,496,2,499.6000000005588,803029.7999999998,8046,WL,A,1.0
7,0.8159999847412109,immed,59184.00001525879,Thu Jul 31 2025 14:05:13 GMT-0500 (Central Daylight Time),803846.0,A,bo,I,o,298,2,816.2000000001863,803029.7999999998,8046,WL,A,1.0
7,1.0160000324249268,immed,58983.99996757507,Thu Jul 31 2025 14:05:13 GMT-0500 (Central Daylight Time),804046.0,A,boo,I,o,191,2,1016.2000000001863,803029.7999999998,8046,WL,A,1.0
7,1.2829999923706055,immed,58717.000007629395,Thu Jul 31 2025 14:05:13 GMT-0500 (Central Daylight Time),804312.7000000002,A,book,I,k,247,2,1282.9000000003725,803029.7999999998,8046,WL,A,1.0
7,2.115000009536743,immed,57884.99999046326,Thu Jul 31 2025 14:05:13 GMT-0500 (Central Daylight Time),805145.4000000004,A,bookenter,I,enter,828,2,2115.600000000559,803029.7999999998,8046,WL,A,1.0
7,2.565999984741211,immed,57434.00001525879,Thu Jul 31 2025 14:05:13 GMT-0500 (Central Daylight Time),805595.5999999996,A,f,I,f,443,2,450.09999999962747,805145.5,8046,WL,A,2.0
7,2.815000057220459,immed,57184.99994277954,Thu Jul 31 2025 14:05:13 GMT-0500 (Central Daylight Time),805845.2999999998,A,fl,I,l,241,2,699.7999999998137,805145.5,8046,WL,A,2.0
7,3.065000057220459,immed,56934.99994277954,Thu Jul 31 2025 14:05:13 GMT-0500 (Central Daylight Time),806095.2999999998,A,flo,I,o,231,2,949.7999999998137,805145.5,8046,WL,A,2.0
7,3.2320001125335693,immed,56767.99988746643,Thu Jul 31 2025 14:05:13 GMT-0500 (Central Daylight Time),806262.0,A,flow,I,w,149,2,1116.5,805145.5,8046,WL,A,2.0
7,3.765000104904175,immed,56234.999895095825,Thu Jul 31 2025 14:05:13 GMT-0500 (Central Daylight Time),806794.9000000004,A,flowe,I,e,527,2,1649.4000000003725,805145.5,8046,WL,A,2.0
7,3.8489999771118164,immed,56151.00002288818,Thu Jul 31 2025 14:05:13 GMT-0500 (Central Daylight Time),806878.5,A,flower,I,r,65,2,1733.0,805145.5,8046,WL,A,2.0
7,6.398000001907349,immed,53601.99999809265,Thu Jul 31 2025 14:05:13 GMT-0500 (Central Daylight Time),809427.7000000002,A,flowerenter,I,enter,2542,2,4282.200000000186,805145.5,8046,WL,A,2.0
7,7.697000026702881,immed,52302.99997329712,Thu Jul 31 2025 14:05:13 GMT-0500 (Central Daylight Time),810727.0999999996,A,t,I,t,1281,2,1299.0,809428.0999999996,8046,WL,A,3.0
7,7.914000034332275,immed,52085.999965667725,Thu Jul 31 2025 14:05:13 GMT-0500 (Central Daylight Time),810943.7000000002,A,tr,I,r,197,2,1515.6000000005588,809428.0999999996,8046,WL,A,3.0
7,8.064000129699707,immed,51935.99987030029,Thu Jul 31 2025 14:05:13 GMT-0500 (Central Daylight Time),811094.0999999996,A,tra,I,a,133,2,1666.0,809428.0999999996,8046,WL,A,3.0
7,8.19700002670288,immed,51802.99997329712,Thu Jul 31 2025 14:05:13 GMT-0500 (Central Daylight Time),811227.2000000002,A,trai,I,i,119,2,1799.1000000005588,809428.0999999996,8046,WL,A,3.0
7,8.44700002670288,immed,51552.99997329712,Thu Jul 31 2025 14:05:13 GMT-0500 (Central Daylight Time),811476.9000000004,A,train,I,n,234,2,2048.800000000745,809428.0999999996,8046,WL,A,3.0
7,8.814000129699707,immed,51185.99987030029,Thu Jul 31 2025 14:05:13 GMT-0500 (Central Daylight Time),811843.4000000004,A,trainenter,I,enter,360,2,2415.300000000745,809428.0999999996,8046,WL,A,3.0
7,9.263999938964844,immed,50736.000061035156,Thu Jul 31 2025 14:05:13 GMT-0500 (Central Daylight Time),812293.5,A,r,I,r,440,2,449.70000000018626,811843.7999999998,8046,WL,A,4.0
7,9.496999979019165,immed,50503.000020980835,Thu Jul 31 2025 14:05:13 GMT-0500 (Central Daylight Time),812526.5999999996,A,ru,I,u,215,2,682.7999999998137,811843.7999999998,8046,WL,A,4.0
7,9.680000066757202,immed,50319.9999332428,Thu Jul 31 2025 14:05:13 GMT-0500 (Central Daylight Time),812709.9000000004,A,rug,I,g,174,2,866.1000000005588,811843.7999999998,8046,WL,A,4.0
7,10.180999994277954,immed,49819.000005722046,Thu Jul 31 2025 14:05:13 GMT-0500 (Central Daylight Time),813210.7999999998,A,rugenter,I,enter,495,2,1367.0,811843.7999999998,8046,WL,A,4.0
7,11.095999956130981,immed,48904.00004386902,Thu Jul 31 2025 14:05:13 GMT-0500 (Central Daylight Time),814126.0,A,m,I,m,898,2,914.9000000003725,813211.0999999996,8046,WL,A,5.0
7,11.330000162124634,immed,48669.999837875366,Thu Jul 31 2025 14:05:13 GMT-0500 (Central Daylight Time),814359.5,A,me,I,e,223,2,1148.4000000003725,813211.0999999996,8046,WL,A,5.0
7,11.513000011444092,immed,48486.99998855591,Thu Jul 31 2025 14:05:13 GMT-0500 (Central Daylight Time),814542.7000000002,A,mea,I,a,173,2,1331.6000000005588,813211.0999999996,8046,WL,A,5.0
7,11.796000003814697,immed,48203.9999961853,Thu Jul 31 2025 14:05:13 GMT-0500 (Central Daylight Time),814825.7000000002,A,mead,I,d,277,2,1614.6000000005588,813211.0999999996,8046,WL,A,5.0
7,11.963000059127808,immed,48036.99994087219,Thu Jul 31 2025 14:05:13 GMT-0500 (Central Daylight Time),814992.5999999996,A,meado,I,o,146,2,1781.5,813211.0999999996,8046,WL,A,5.0
7,12.11300015449524,immed,47886.99984550476,Thu Jul 31 2025 14:05:13 GMT-0500 (Central Daylight Time),815142.5,A,meadow,I,w,140,2,1931.4000000003725,813211.0999999996,8046,WL,A,5.0
7,14.078999996185303,immed,45921.0000038147,Thu Jul 31 2025 14:05:13 GMT-0500 (Central Daylight Time),817108.5999999996,A,meadowenter,I,enter,1949,2,3897.5,813211.0999999996,8046,WL,A,5.0
7,15.411999940872192,immed,44588.00005912781,Thu Jul 31 2025 14:05:13 GMT-0500 (Central Daylight Time),818441.4000000004,A,f,I,f,1320,2,1332.5,817108.9000000004,8046,WL,A,6.0
7,15.628000020980835,immed,44371.999979019165,Thu Jul 31 2025 14:05:13 GMT-0500 (Central Daylight Time),818658.0,A,fi,I,i,203,2,1549.0999999996275,817108.9000000004,8046,WL,A,6.0
7,15.82800006866455,immed,44171.99993133545,Thu Jul 31 2025 14:05:13 GMT-0500 (Central Daylight Time),818857.9000000004,A,fin,I,n,187,2,1749.0,817108.9000000004,8046,WL,A,6.0
7,15.962000131607056,immed,44037.999868392944,Thu Jul 31 2025 14:05:13 GMT-0500 (Central Daylight Time),818991.4000000004,A,fing,I,g,123,2,1882.5,817108.9000000004,8046,WL,A,6.0
7,16.144999980926514,immed,43855.000019073486,Thu Jul 31 2025 14:05:13 GMT-0500 (Central Daylight Time),819174.5999999996,A,finge,I,e,173,2,2065.699999999255,817108.9000000004,8046,WL,A,6.0
7,16.210999965667725,immed,43789.000034332275,Thu Jul 31 2025 14:05:13 GMT-0500 (Central Daylight Time),819241.0999999996,A,finger,I,r,53,2,2132.199999999255,817108.9000000004,8046,WL,A,6.0
7,16.57800006866455,immed,43421.99993133545,Thu Jul 31 2025 14:05:13 GMT-0500 (Central Daylight Time),819608.0999999996,A,fingerenter,I,enter,356,2,2499.199999999255,817108.9000000004,8046,WL,A,6.0
7,16.92799997329712,immed,43072.00002670288,Thu Jul 31 2025 14:05:13 GMT-0500 (Central Daylight Time),819957.7000000002,A,a,I,a,333,2,349.29999999981374,819608.4000000004,8046,WL,A,7.0
7,17.210999965667725,immed,42789.000034332275,Thu Jul 31 2025 14:05:13 GMT-0500 (Central Daylight Time),820240.9000000004,A,ap,I,p,271,2,632.5,819608.4000000004,8046,WL,A,7.0
7,17.460999965667725,immed,42539.000034332275,Thu Jul 31 2025 14:05:13 GMT-0500 (Central Daylight Time),820490.7999999998,A,app,I,p,236,2,882.3999999994412,819608.4000000004,8046,WL,A,7.0
7,17.728000164031982,immed,42271.99983596802,Thu Jul 31 2025 14:05:13 GMT-0500 (Central Daylight Time),820757.4000000004,A,appl,I,l,258,2,1149.0,819608.4000000004,8046,WL,A,7.0
7,17.878000020980835,immed,42121.999979019165,Thu Jul 31 2025 14:05:13 GMT-0500 (Central Daylight Time),820907.5,A,apple,I,e,142,2,1299.0999999996275,819608.4000000004,8046,WL,A,7.0
7,18.210999965667725,immed,41789.000034332275,Thu Jul 31 2025 14:05:13 GMT-0500 (Central Daylight Time),821240.4000000004,A,appleenter,I,enter,321,2,1632.0,819608.4000000004,8046,WL,A,7.0
7,18.427000045776367,immed,41572.99995422363,Thu Jul 31 2025 14:05:13 GMT-0500 (Central Daylight Time),821457.0,A,a,I,a,205,2,216.29999999981374,821240.7000000002,8046,WL,A,8.0
7,18.91000008583069,immed,41089.99991416931,Thu Jul 31 2025 14:05:13 GMT-0500 (Central Daylight Time),821940.2999999998,A,,I,backspace,467,2,699.5999999996275,821240.7000000002,8046,WL,A,8.0
7,19.0770001411438,immed,40922.9998588562,Thu Jul 31 2025 14:05:13 GMT-0500 (Central Daylight Time),822106.9000000004,A,s,I,s,153,2,866.2000000001863,821240.7000000002,8046,WL,A,8.0
7,19.24399995803833,immed,40756.00004196167,Thu Jul 31 2025 14:05:13 GMT-0500 (Central Daylight Time),822273.7999999998,A,sa,I,a,154,2,1033.0999999996275,821240.7000000002,8046,WL,A,8.0
7,19.444000005722046,immed,40555.999994277954,Thu Jul 31 2025 14:05:13 GMT-0500 (Central Daylight Time),822473.5,A,sal,I,l,187,2,1232.7999999998137,821240.7000000002,8046,WL,A,8.0
7,19.64400005340576,immed,40355.99994659424,Thu Jul 31 2025 14:05:13 GMT-0500 (Central Daylight Time),822673.5999999996,A,salt,I,t,186,2,1432.8999999994412,821240.7000000002,8046,WL,A,8.0
7,19.960000038146973,immed,40039.99996185303,Thu Jul 31 2025 14:05:13 GMT-0500 (Central Daylight Time),822990.2000000002,A,saltenter,I,enter,307,2,1749.5,821240.7000000002,8046,WL,A,8.0
7,20.792999982833862,immed,39207.00001716614,Thu Jul 31 2025 14:05:13 GMT-0500 (Central Daylight Time),823823.0,A,m,I,m,814,2,832.5,822990.5,8046,WL,A,9.0
7,20.993000030517578,immed,39006.99996948242,Thu Jul 31 2025 14:05:13 GMT-0500 (Central Daylight Time),824023.0999999996,A,me,I,e,188,2,1032.5999999996275,822990.5,8046,WL,A,9.0
7,21.193000078201294,immed,38806.999921798706,Thu Jul 31 2025 14:05:13 GMT-0500 (Central Daylight Time),824223.0999999996,A,mea,I,a,181,2,1232.5999999996275,822990.5,8046,WL,A,9.0
7,21.592999935150146,immed,38407.00006484985,Thu Jul 31 2025 14:05:13 GMT-0500 (Central Daylight Time),824623.0,A,mead,I,d,380,2,1632.5,822990.5,8046,WL,A,9.0
7,21.842999935150146,immed,38157.00006484985,Thu Jul 31 2025 14:05:13 GMT-0500 (Central Daylight Time),824872.9000000004,A,meado,I,o,246,2,1882.4000000003725,822990.5,8046,WL,A,9.0
7,21.993000030517578,immed,38006.99996948242,Thu Jul 31 2025 14:05:13 GMT-0500 (Central Daylight Time),825022.9000000004,A,meadow,I,w,132,2,2032.4000000003725,822990.5,8046,WL,A,9.0
7,23.926000118255615,immed,36073.999881744385,Thu Jul 31 2025 14:05:13 GMT-0500 (Central Daylight Time),826955.7000000002,A,meadowenter,I,enter,1918,2,3965.2000000001863,822990.5,8046,WL,A,9.0
7,24.592000007629395,immed,35407.999992370605,Thu Jul 31 2025 14:05:13 GMT-0500 (Central Daylight Time),827622.0,A,l,I,l,657,2,666.0,826956.0,8046,WL,A,10.0
7,24.858999967575073,immed,35141.00003242493,Thu Jul 31 2025 14:05:13 GMT-0500 (Central Daylight Time),827888.5,A,lo,I,o,255,2,932.5,826956.0,8046,WL,A,10.0
7,25.009000062942505,immed,34990.999937057495,Thu Jul 31 2025 14:05:13 GMT-0500 (Central Daylight Time),828038.4000000004,A,log,I,g,132,2,1082.4000000003725,826956.0,8046,WL,A,10.0
7,25.758000135421753,immed,34241.99986457825,Thu Jul 31 2025 14:05:13 GMT-0500 (Central Daylight Time),828788.2000000002,A,logenter,I,enter,734,2,1832.2000000001863,826956.0,8046,WL,A,10.0
7,26.325000047683716,immed,33674.999952316284,Thu Jul 31 2025 14:05:13 GMT-0500 (Central Daylight Time),829354.7999999998,A,k,I,k,561,2,566.3999999994412,828788.4000000004,8046,WL,A,11.0
7,26.657999992370605,immed,33342.000007629395,Thu Jul 31 2025 14:05:13 GMT-0500 (Central Daylight Time),829687.9000000004,A,ke,I,e,313,2,899.5,828788.4000000004,8046,WL,A,11.0
7,26.95799994468689,immed,33042.00005531311,Thu Jul 31 2025 14:05:13 GMT-0500 (Central Daylight Time),829988.0999999996,A,key,I,y,285,2,1199.699999999255,828788.4000000004,8046,WL,A,11.0
7,27.973999977111816,immed,32026.000022888184,Thu Jul 31 2025 14:05:13 GMT-0500 (Central Daylight Time),831004.2000000002,A,keyenter,I,enter,1000,2,2215.7999999998137,828788.4000000004,8046,WL,A,11.0
7,28.54100012779236,immed,31458.99987220764,Thu Jul 31 2025 14:05:13 GMT-0500 (Central Daylight Time),831570.9000000004,A,r,I,r,561,2,566.4000000003725,831004.5,8046,WL,A,12.0
7,28.85700011253357,immed,31142.99988746643,Thu Jul 31 2025 14:05:13 GMT-0500 (Central Daylight Time),831887.2000000002,A,ra,I,a,297,2,882.7000000001863,831004.5,8046,WL,A,12.0
7,29.174000024795532,immed,30825.999975204468,Thu Jul 31 2025 14:05:13 GMT-0500 (Central Daylight Time),832203.7999999998,A,rat,I,t,301,2,1199.2999999998137,831004.5,8046,WL,A,12.0
7,29.391000032424927,immed,30608.999967575073,Thu Jul 31 2025 14:05:13 GMT-0500 (Central Daylight Time),832420.4000000004,A,ratt,I,t,209,2,1415.9000000003725,831004.5,8046,WL,A,12.0
7,29.641000032424927,immed,30358.999967575073,Thu Jul 31 2025 14:05:13 GMT-0500 (Central Daylight Time),832670.4000000004,A,rattl,I,l,231,2,1665.9000000003725,831004.5,8046,WL,A,12.0
7,29.84000015258789,immed,30159.99984741211,Thu Jul 31 2025 14:05:13 GMT-0500 (Central Daylight Time),832870.2000000002,A,rattle,I,e,190,2,1865.7000000001863,831004.5,8046,WL,A,12.0
7,30.490000009536743,immed,29509.999990463257,Thu Jul 31 2025 14:05:13 GMT-0500 (Central Daylight Time),833520.0999999996,A,rattleenter,I,enter,639,2,2515.5999999996275,831004.5,8046,WL,A,12.0
7,31.223000049591064,immed,28776.999950408936,Thu Jul 31 2025 14:05:13 GMT-0500 (Central Daylight Time),834253.0999999996,A,g,I,g,717,2,732.6999999992549,833520.4000000004,8046,WL,A,13.0
7,31.42300009727478,immed,28576.99990272522,Thu Jul 31 2025 14:05:13 GMT-0500 (Central Daylight Time),834453.2000000002,A,go,I,o,192,2,932.7999999998137,833520.4000000004,8046,WL,A,13.0
7,31.67300009727478,immed,28326.99990272522,Thu Jul 31 2025 14:05:13 GMT-0500 (Central Daylight Time),834703.0,A,gol,I,l,232,2,1182.5999999996275,833520.4000000004,8046,WL,A,13.0
7,31.84000015258789,immed,28159.99984741211,Thu Jul 31 2025 14:05:13 GMT-0500 (Central Daylight Time),834869.5999999996,A,gold,I,d,149,2,1349.199999999255,833520.4000000004,8046,WL,A,13.0
7,32.223000049591064,immed,27776.999950408936,Thu Jul 31 2025 14:05:13 GMT-0500 (Central Daylight Time),835252.7999999998,A,goldenter,I,enter,375,2,1732.3999999994412,833520.4000000004,8046,WL,A,13.0
7,32.890000104904175,immed,27109.999895095825,Thu Jul 31 2025 14:05:13 GMT-0500 (Central Daylight Time),835919.4000000004,A,h,I,h,648,2,666.4000000003725,835253.0,8046,WL,A,14.0
7,33.07299995422363,immed,26927.000045776367,Thu Jul 31 2025 14:05:13 GMT-0500 (Central Daylight Time),836102.7000000002,A,ha,I,a,165,2,849.7000000001863,835253.0,8046,WL,A,14.0
7,33.388999938964844,immed,26611.000061035156,Thu Jul 31 2025 14:05:13 GMT-0500 (Central Daylight Time),836419.4000000004,A,har,I,r,302,2,1166.4000000003725,835253.0,8046,WL,A,14.0
7,33.67300009727478,immed,26326.99990272522,Thu Jul 31 2025 14:05:13 GMT-0500 (Central Daylight Time),836702.5,A,harp,I,p,273,2,1449.5,835253.0,8046,WL,A,14.0
7,34.15700006484985,immed,25842.999935150146,Thu Jul 31 2025 14:05:13 GMT-0500 (Central Daylight Time),837186.5999999996,A,harpenter,I,enter,478,2,1933.5999999996275,835253.0,8046,WL,A,14.0
7,56.56500005722046,immed,3434.999942779541,Thu Jul 31 2025 14:05:13 GMT-0500 (Central Daylight Time),859595.0999999996,A,b,I,b,22402,2,22408.099999999627,837187.0,8046,WL,A,15.0
7,56.79800009727478,immed,3201.9999027252197,Thu Jul 31 2025 14:05:13 GMT-0500 (Central Daylight Time),859828.5,A,bu,I,u,225,2,22641.5,837187.0,8046,WL,A,15.0
7,57.015000104904175,immed,2984.999895095825,Thu Jul 31 2025 14:05:13 GMT-0500 (Central Daylight Time),860045.0,A,but,I,t,208,2,22858.0,837187.0,8046,WL,A,15.0
7,57.263999938964844,immed,2736.0000610351562,Thu Jul 31 2025 14:05:13 GMT-0500 (Central Daylight Time),860294.7999999998,A,butt,I,t,231,2,23107.799999999814,837187.0,8046,WL,A,15.0
7,57.46500015258789,immed,2534.9998474121094,Thu Jul 31 2025 14:05:13 GMT-0500 (Central Daylight Time),860494.9000000004,A,butto,I,o,182,2,23307.900000000373,837187.0,8046,WL,A,15.0
7,57.66499996185303,immed,2335.0000381469727,Thu Jul 31 2025 14:05:13 GMT-0500 (Central Daylight Time),860695.0999999996,A,button,I,n,190,2,23508.099999999627,837187.0,8046,WL,A,15.0
7,57.94799995422363,immed,2052.000045776367,Thu Jul 31 2025 14:05:13 GMT-0500 (Central Daylight Time),860978.0999999996,A,buttonenter,I,enter,278,2,23791.099999999627,837187.0,8046,WL,A,15.0
