block_c,block_dur,condition,countdown,datetime,endtime,list,multichar_response,project,response,response_time,session_number,start_end,starttime,subject_id,task,task_vers,trial
,,,,Mon Dec 08 2025 09:23:47 GMT-0600 (Central Standard Time),,,,I,space,1364,3,,,8046,WL,B,
prac,,0,,Mon Dec 08 2025 09:23:47 GMT-0600 (Central Standard Time),,NA,b,I,b,2384,3,,,8046,WL,B,1.0
prac,,0,,Mon Dec 08 2025 09:23:47 GMT-0600 (Central Standard Time),,NA,bo,I,o,525,3,,,8046,WL,B,1.0
prac,,0,,Mon Dec 08 2025 09:23:47 GMT-0600 (Central Standard Time),,NA,boo,I,o,179,3,,,8046,WL,B,1.0
prac,,0,,Mon Dec 08 2025 09:23:47 GMT-0600 (Central Standard Time),,NA,boos,I,s,149,3,,,8046,WL,B,1.0
prac,,0,,Mon Dec 08 2025 09:23:47 GMT-0600 (Central Standard Time),,NA,boost,I,t,229,3,,,8046,WL,B,1.0
prac,,0,,Mon Dec 08 2025 09:23:47 GMT-0600 (Central Standard Time),,NA,boostenter,I,enter,1497,3,,,8046,WL,B,1.0
1,0.7839999198913574,learn,59216.00008010864,Mon Dec 08 2025 09:23:47 GMT-0600 (Central Standard Time),130997.69999998808,A,b,I,b,772,3,783.3000000119209,130214.39999997616,8046,WL,B,1.0
1,1.3020000457763672,learn,58697.99995422363,Mon Dec 08 2025 09:23:47 GMT-0600 (Central Standard Time),131516.19999998808,A,bo,I,o,513,3,1301.800000011921,130214.39999997616,8046,WL,B,1.0
1,1.4849998950958252,learn,58515.000104904175,Mon Dec 08 2025 09:23:47 GMT-0600 (Central Standard Time),131698.89999997616,A,boo,I,o,165,3,1484.5,130214.39999997616,8046,WL,B,1.0
1,1.6329998970031738,learn,58367.000102996826,Mon Dec 08 2025 09:23:47 GMT-0600 (Central Standard Time),131847.19999998808,A,boos,I,s,138,3,1632.800000011921,130214.39999997616,8046,WL,B,1.0
1,1.9199998378753662,learn,58080.000162124634,Mon Dec 08 2025 09:23:47 GMT-0600 (Central Standard Time),132133.69999998808,A,boost,I,t,269,3,1919.300000011921,130214.39999997616,8046,WL,B,1.0
1,2.8489999771118164,learn,57151.00002288818,Mon Dec 08 2025 09:23:47 GMT-0600 (Central Standard Time),133063.09999999404,A,boostenter,I,enter,918,3,2848.7000000178814,130214.39999997616,8046,WL,B,1.0
1,4.049000024795532,learn,55950.99997520447,Mon Dec 08 2025 09:23:47 GMT-0600 (Central Standard Time),134263.19999998808,A,c,I,c,1181,3,1199.800000011921,133063.39999997616,8046,WL,B,2.0
1,4.448999881744385,learn,55551.000118255615,Mon Dec 08 2025 09:23:47 GMT-0600 (Central Standard Time),134663.39999997616,A,ci,I,i,387,3,1600.0,133063.39999997616,8046,WL,B,2.0
1,4.681999921798706,learn,55318.000078201294,Mon Dec 08 2025 09:23:47 GMT-0600 (Central Standard Time),134896.39999997616,A,cit,I,t,215,3,1833.0,133063.39999997616,8046,WL,B,2.0
1,4.881999969482422,learn,55118.00003051758,Mon Dec 08 2025 09:23:47 GMT-0600 (Central Standard Time),135095.79999998212,A,city,I,y,187,3,2032.4000000059605,133063.39999997616,8046,WL,B,2.0
1,5.33299994468689,learn,54667.00005531311,Mon Dec 08 2025 09:23:47 GMT-0600 (Central Standard Time),135546.39999997616,A,cityenter,I,enter,435,3,2483.0,133063.39999997616,8046,WL,B,2.0
1,6.049999952316284,learn,53950.000047683716,Mon Dec 08 2025 09:23:47 GMT-0600 (Central Standard Time),136263.79999998212,A,p,I,p,705,3,717.0,135546.79999998212,8046,WL,B,3.0
1,6.4659998416900635,learn,53534.00015830994,Mon Dec 08 2025 09:23:47 GMT-0600 (Central Standard Time),136679.79999998212,A,pu,I,u,405,3,1133.0,135546.79999998212,8046,WL,B,3.0
1,6.81499981880188,learn,53185.00018119812,Mon Dec 08 2025 09:23:47 GMT-0600 (Central Standard Time),137029.09999999404,A,pup,I,p,340,3,1482.300000011921,135546.79999998212,8046,WL,B,3.0
1,7.116999864578247,learn,52883.00013542175,Mon Dec 08 2025 09:23:47 GMT-0600 (Central Standard Time),137330.39999997616,A,pupi,I,i,286,3,1783.5999999940395,135546.79999998212,8046,WL,B,3.0
1,7.500999927520752,learn,52499.00007247925,Mon Dec 08 2025 09:23:47 GMT-0600 (Central Standard Time),137715.0,A,pupil,I,l,377,3,2168.2000000178814,135546.79999998212,8046,WL,B,3.0
1,8.881999969482422,learn,51118.00003051758,Mon Dec 08 2025 09:23:47 GMT-0600 (Central Standard Time),139095.5,A,pupilenter,I,enter,1360,3,3548.7000000178814,135546.79999998212,8046,WL,B,3.0
1,9.88100004196167,learn,50118.99995803833,Mon Dec 08 2025 09:23:47 GMT-0600 (Central Standard Time),140095.19999998808,A,c,I,c,988,3,999.4000000059605,139095.79999998212,8046,WL,B,4.0
1,10.313999891281128,learn,49686.00010871887,Mon Dec 08 2025 09:23:47 GMT-0600 (Central Standard Time),140527.69999998808,A,ca,I,a,410,3,1431.9000000059605,139095.79999998212,8046,WL,B,4.0
1,10.530999898910522,learn,49469.00010108948,Mon Dec 08 2025 09:23:47 GMT-0600 (Central Standard Time),140744.5,A,cab,I,b,205,3,1648.7000000178814,139095.79999998212,8046,WL,B,4.0
1,10.764999866485596,learn,49235.000133514404,Mon Dec 08 2025 09:23:47 GMT-0600 (Central Standard Time),140978.5,A,cabi,I,i,220,3,1882.7000000178814,139095.79999998212,8046,WL,B,4.0
1,10.980999946594238,learn,49019.00005340576,Mon Dec 08 2025 09:23:47 GMT-0600 (Central Standard Time),141194.69999998808,A,cabin,I,n,211,3,2098.9000000059605,139095.79999998212,8046,WL,B,4.0
1,11.46399998664856,learn,48536.00001335144,Mon Dec 08 2025 09:23:47 GMT-0600 (Central Standard Time),141677.89999997616,A,cabinenter,I,enter,474,3,2582.0999999940395,139095.79999998212,8046,WL,B,4.0
1,12.27999997138977,learn,47720.00002861023,Mon Dec 08 2025 09:23:47 GMT-0600 (Central Standard Time),142494.0,A,l,I,l,805,3,815.8000000119209,141678.19999998808,8046,WL,B,5.0
1,12.646999835968018,learn,47353.00016403198,Mon Dec 08 2025 09:23:47 GMT-0600 (Central Standard Time),142860.59999999404,A,la,I,a,357,3,1182.4000000059605,141678.19999998808,8046,WL,B,5.0
1,12.88100004196167,learn,47118.99995803833,Mon Dec 08 2025 09:23:47 GMT-0600 (Central Standard Time),143094.79999998212,A,lak,I,k,222,3,1416.5999999940395,141678.19999998808,8046,WL,B,5.0
1,13.180999994277954,learn,46819.000005722046,Mon Dec 08 2025 09:23:47 GMT-0600 (Central Standard Time),143395.0,A,lake,I,e,285,3,1716.800000011921,141678.19999998808,8046,WL,B,5.0
1,13.996999979019165,learn,46003.000020980835,Mon Dec 08 2025 09:23:47 GMT-0600 (Central Standard Time),144210.79999998212,A,lakeenter,I,enter,811,3,2532.5999999940395,141678.19999998808,8046,WL,B,5.0
1,14.263000011444092,learn,45736.99998855591,Mon Dec 08 2025 09:23:47 GMT-0600 (Central Standard Time),144477.0,A,s,I,s,249,3,265.90000000596046,144211.09999999404,8046,WL,B,6.0
1,14.628999948501587,learn,45371.00005149841,Mon Dec 08 2025 09:23:47 GMT-0600 (Central Standard Time),144843.5,A,st,I,t,351,3,632.4000000059605,144211.09999999404,8046,WL,B,6.0
1,14.828999996185303,learn,45171.0000038147,Mon Dec 08 2025 09:23:47 GMT-0600 (Central Standard Time),145042.89999997616,A,sta,I,a,184,3,831.7999999821186,144211.09999999404,8046,WL,B,6.0
1,14.962999820709229,learn,45037.00017929077,Mon Dec 08 2025 09:23:47 GMT-0600 (Central Standard Time),145176.79999998212,A,star,I,r,121,3,965.6999999880791,144211.09999999404,8046,WL,B,6.0
1,15.712999820709229,learn,44287.00017929077,Mon Dec 08 2025 09:23:47 GMT-0600 (Central Standard Time),145926.59999999404,A,starenter,I,enter,728,3,1715.5,144211.09999999404,8046,WL,B,6.0
1,16.162999868392944,learn,43837.000131607056,Mon Dec 08 2025 09:23:47 GMT-0600 (Central Standard Time),146376.59999999404,A,a,I,a,445,3,449.80000001192093,145926.79999998212,8046,WL,B,7.0
1,16.494999885559082,learn,43505.00011444092,Mon Dec 08 2025 09:23:47 GMT-0600 (Central Standard Time),146709.19999998808,A,ar,I,r,323,3,782.4000000059605,145926.79999998212,8046,WL,B,7.0
1,16.66100001335144,learn,43338.99998664856,Mon Dec 08 2025 09:23:47 GMT-0600 (Central Standard Time),146875.39999997616,A,arm,I,m,159,3,948.5999999940395,145926.79999998212,8046,WL,B,7.0
1,17.194999933242798,learn,42805.0000667572,Mon Dec 08 2025 09:23:47 GMT-0600 (Central Standard Time),147408.79999998212,A,armenter,I,enter,527,3,1482.0,145926.79999998212,8046,WL,B,7.0
1,18.51199984550476,learn,41488.00015449524,Mon Dec 08 2025 09:23:47 GMT-0600 (Central Standard Time),148725.79999998212,A,p,I,p,1297,3,1316.7999999821186,147409.0,8046,WL,B,8.0
1,18.812000036239624,learn,41187.999963760376,Mon Dec 08 2025 09:23:47 GMT-0600 (Central Standard Time),149026.19999998808,A,pi,I,i,296,3,1617.199999988079,147409.0,8046,WL,B,8.0
1,19.09500002861023,learn,40904.99997138977,Mon Dec 08 2025 09:23:47 GMT-0600 (Central Standard Time),149308.79999998212,A,pip,I,p,276,3,1899.7999999821186,147409.0,8046,WL,B,8.0
1,19.49399995803833,learn,40506.00004196167,Mon Dec 08 2025 09:23:47 GMT-0600 (Central Standard Time),149708.19999998808,A,pipe,I,e,391,3,2299.199999988079,147409.0,8046,WL,B,8.0
1,19.944000005722046,learn,40055.999994277954,Mon Dec 08 2025 09:23:47 GMT-0600 (Central Standard Time),150157.59999999404,A,pipeenter,I,enter,432,3,2748.5999999940395,147409.0,8046,WL,B,8.0
1,20.65999984741211,learn,39340.00015258789,Mon Dec 08 2025 09:23:47 GMT-0600 (Central Standard Time),150874.0,A,a,I,a,702,3,716.1000000238419,150157.89999997616,8046,WL,B,9.0
1,22.895999908447266,learn,37104.000091552734,Mon Dec 08 2025 09:23:47 GMT-0600 (Central Standard Time),153110.0,A,,I,backspace,2225,3,2952.100000023842,150157.89999997616,8046,WL,B,9.0
1,23.293999910354614,learn,36706.000089645386,Mon Dec 08 2025 09:23:47 GMT-0600 (Central Standard Time),153507.59999999404,A,c,I,c,381,3,3349.7000000178814,150157.89999997616,8046,WL,B,9.0
1,24.14299988746643,learn,35857.00011253357,Mon Dec 08 2025 09:23:47 GMT-0600 (Central Standard Time),154356.69999998808,A,,I,backspace,841,3,4198.800000011921,150157.89999997616,8046,WL,B,9.0
1,24.292999982833862,learn,35707.00001716614,Mon Dec 08 2025 09:23:47 GMT-0600 (Central Standard Time),154506.59999999404,A,a,I,a,134,3,4348.700000017881,150157.89999997616,8046,WL,B,9.0
1,24.792999982833862,learn,35207.00001716614,Mon Dec 08 2025 09:23:47 GMT-0600 (Central Standard Time),155007.29999998212,A,al,I,l,487,3,4849.4000000059605,150157.89999997616,8046,WL,B,9.0
1,25.5939998626709,learn,34406.0001373291,Mon Dec 08 2025 09:23:47 GMT-0600 (Central Standard Time),155807.5,A,ala,I,a,789,3,5649.600000023842,150157.89999997616,8046,WL,B,9.0
1,25.80999994277954,learn,34190.00005722046,Mon Dec 08 2025 09:23:47 GMT-0600 (Central Standard Time),156023.79999998212,A,alar,I,r,196,3,5865.9000000059605,150157.89999997616,8046,WL,B,9.0
1,25.97599983215332,learn,34024.00016784668,Mon Dec 08 2025 09:23:47 GMT-0600 (Central Standard Time),156190.19999998808,A,alarm,I,m,147,3,6032.300000011921,150157.89999997616,8046,WL,B,9.0
1,26.325999975204468,learn,33674.00002479553,Mon Dec 08 2025 09:23:47 GMT-0600 (Central Standard Time),156539.5,A,alarmenter,I,enter,341,3,6381.600000023842,150157.89999997616,8046,WL,B,9.0
1,26.677000045776367,learn,33322.99995422363,Mon Dec 08 2025 09:23:47 GMT-0600 (Central Standard Time),156891.0,A,c,I,c,338,3,351.2000000178814,156539.79999998212,8046,WL,B,10.0
1,26.991999864578247,learn,33008.00013542175,Mon Dec 08 2025 09:23:47 GMT-0600 (Central Standard Time),157206.0,A,cl,I,l,297,3,666.2000000178814,156539.79999998212,8046,WL,B,10.0
1,27.35800004005432,learn,32641.99995994568,Mon Dec 08 2025 09:23:47 GMT-0600 (Central Standard Time),157571.89999997616,A,clo,I,o,353,3,1032.0999999940395,156539.79999998212,8046,WL,B,10.0
1,27.658999919891357,learn,32341.000080108643,Mon Dec 08 2025 09:23:47 GMT-0600 (Central Standard Time),157873.39999997616,A,cloc,I,c,292,3,1333.5999999940395,156539.79999998212,8046,WL,B,10.0
1,28.427000045776367,learn,31572.999954223633,Mon Dec 08 2025 09:23:47 GMT-0600 (Central Standard Time),158641.0,A,clock,I,k,754,3,2101.2000000178814,156539.79999998212,8046,WL,B,10.0
1,31.823999881744385,learn,28176.000118255615,Mon Dec 08 2025 09:23:47 GMT-0600 (Central Standard Time),162037.79999998212,A,clockenter,I,enter,3387,3,5498.0,156539.79999998212,8046,WL,B,10.0
1,32.89100003242493,learn,27108.999967575073,Mon Dec 08 2025 09:23:47 GMT-0600 (Central Standard Time),163105.39999997616,A,f,I,f,1062,3,1067.199999988079,162038.19999998808,8046,WL,B,11.0
1,33.24199986457825,learn,26758.000135421753,Mon Dec 08 2025 09:23:47 GMT-0600 (Central Standard Time),163455.69999998808,A,fi,I,i,330,3,1417.5,162038.19999998808,8046,WL,B,11.0
1,33.33999991416931,learn,26660.00008583069,Mon Dec 08 2025 09:23:47 GMT-0600 (Central Standard Time),163554.39999997616,A,fir,I,r,92,3,1516.199999988079,162038.19999998808,8046,WL,B,11.0
1,33.555999994277954,learn,26444.000005722046,Mon Dec 08 2025 09:23:47 GMT-0600 (Central Standard Time),163770.5,A,fire,I,e,200,3,1732.300000011921,162038.19999998808,8046,WL,B,11.0
1,34.12299990653992,learn,25877.000093460083,Mon Dec 08 2025 09:23:47 GMT-0600 (Central Standard Time),164337.19999998808,A,fireenter,I,enter,552,3,2299.0,162038.19999998808,8046,WL,B,11.0
1,36.039000034332275,learn,23960.999965667725,Mon Dec 08 2025 09:23:47 GMT-0600 (Central Standard Time),166253.19999998808,A,c,I,c,1907,3,1915.699999988079,164337.5,8046,WL,B,12.0
1,36.25699996948242,learn,23743.000030517578,Mon Dec 08 2025 09:23:47 GMT-0600 (Central Standard Time),166470.59999999404,A,ca,I,a,195,3,2133.0999999940395,164337.5,8046,WL,B,12.0
1,36.50600004196167,learn,23493.99995803833,Mon Dec 08 2025 09:23:47 GMT-0600 (Central Standard Time),166719.59999999404,A,cab,I,b,236,3,2382.0999999940395,164337.5,8046,WL,B,12.0
1,36.68899989128113,learn,23311.000108718872,Mon Dec 08 2025 09:23:47 GMT-0600 (Central Standard Time),166903.59999999404,A,cabi,I,i,162,3,2566.0999999940395,164337.5,8046,WL,B,12.0
1,36.93899989128113,learn,23061.000108718872,Mon Dec 08 2025 09:23:47 GMT-0600 (Central Standard Time),167152.69999998808,A,cabin,I,n,233,3,2815.199999988079,164337.5,8046,WL,B,12.0
1,37.537999868392944,learn,22462.000131607056,Mon Dec 08 2025 09:23:47 GMT-0600 (Central Standard Time),167752.0,A,cabinenter,I,enter,580,3,3414.5,164337.5,8046,WL,B,12.0
1,60.014999866485596,learn,-14.999866485595703,Mon Dec 08 2025 09:23:47 GMT-0600 (Central Standard Time),190229.09999999404,A,None,I,None,22471,3,22476.90000000596,167752.19999998808,8046,WL,B,13.0
2,1.133000135421753,learn,58866.99986457825,Mon Dec 08 2025 09:23:47 GMT-0600 (Central Standard Time),265539.89999997616,A,b,I,b,1114,3,1132.199999988079,264407.6999999881,8046,WL,B,1.0
2,3.013000011444092,learn,56986.99998855591,Mon Dec 08 2025 09:23:47 GMT-0600 (Central Standard Time),267420.5,A,,I,backspace,1871,3,3012.800000011921,264407.6999999881,8046,WL,B,1.0
2,3.430999994277954,learn,56569.000005722046,Mon Dec 08 2025 09:23:47 GMT-0600 (Central Standard Time),267838.2999999821,A,c,I,c,407,3,3430.5999999940395,264407.6999999881,8046,WL,B,1.0
2,3.6470000743865967,learn,56352.9999256134,Mon Dec 08 2025 09:23:47 GMT-0600 (Central Standard Time),268054.39999997616,A,ci,I,i,197,3,3646.699999988079,264407.6999999881,8046,WL,B,1.0
2,4.397000074386597,learn,55602.9999256134,Mon Dec 08 2025 09:23:47 GMT-0600 (Central Standard Time),268804.5,A,cit,I,t,734,3,4396.800000011921,264407.6999999881,8046,WL,B,1.0
2,4.630000114440918,learn,55369.99988555908,Mon Dec 08 2025 09:23:47 GMT-0600 (Central Standard Time),269037.5,A,city,I,y,225,3,4629.800000011921,264407.6999999881,8046,WL,B,1.0
2,5.296000003814697,learn,54703.9999961853,Mon Dec 08 2025 09:23:47 GMT-0600 (Central Standard Time),269703.39999997616,A,cityenter,I,enter,646,3,5295.699999988079,264407.6999999881,8046,WL,B,1.0
2,5.781000137329102,learn,54218.9998626709,Mon Dec 08 2025 09:23:47 GMT-0600 (Central Standard Time),270188.09999999404,A,g,I,g,481,3,484.5,269703.59999999404,8046,WL,B,2.0
2,6.113000154495239,learn,53886.99984550476,Mon Dec 08 2025 09:23:47 GMT-0600 (Central Standard Time),270519.7999999821,A,gr,I,r,319,3,816.1999999880791,269703.59999999404,8046,WL,B,2.0
2,6.328999996185303,learn,53671.0000038147,Mon Dec 08 2025 09:23:47 GMT-0600 (Central Standard Time),270736.59999999404,A,gra,I,a,205,3,1033.0,269703.59999999404,8046,WL,B,2.0
2,6.696000099182129,learn,53303.99990081787,Mon Dec 08 2025 09:23:47 GMT-0600 (Central Standard Time),271103.1999999881,A,gras,I,s,357,3,1399.5999999940395,269703.59999999404,8046,WL,B,2.0
2,6.897000074386597,learn,53102.9999256134,Mon Dec 08 2025 09:23:47 GMT-0600 (Central Standard Time),271304.89999997616,A,grass,I,s,196,3,1601.2999999821186,269703.59999999404,8046,WL,B,2.0
2,7.644999980926514,learn,52355.000019073486,Mon Dec 08 2025 09:23:47 GMT-0600 (Central Standard Time),272052.5,A,grassenter,I,enter,731,3,2348.9000000059605,269703.59999999404,8046,WL,B,2.0
2,8.080000162124634,learn,51919.999837875366,Mon Dec 08 2025 09:23:47 GMT-0600 (Central Standard Time),272487.6999999881,A,d,I,d,423,3,435.0,272052.6999999881,8046,WL,B,3.0
2,8.42900013923645,learn,51570.99986076355,Mon Dec 08 2025 09:23:47 GMT-0600 (Central Standard Time),272836.2999999821,A,do,I,o,332,3,783.5999999940395,272052.6999999881,8046,WL,B,3.0
2,8.695000171661377,learn,51304.99982833862,Mon Dec 08 2025 09:23:47 GMT-0600 (Central Standard Time),273102.0,A,doo,I,o,246,3,1049.300000011921,272052.6999999881,8046,WL,B,3.0
2,9.111000061035156,learn,50888.999938964844,Mon Dec 08 2025 09:23:47 GMT-0600 (Central Standard Time),273518.5,A,door,I,r,406,3,1465.800000011921,272052.6999999881,8046,WL,B,3.0
2,11.91100001335144,learn,48088.99998664856,Mon Dec 08 2025 09:23:47 GMT-0600 (Central Standard Time),276318.5,A,doorenter,I,enter,2780,3,4265.800000011921,272052.6999999881,8046,WL,B,3.0
2,12.377000093460083,learn,47622.99990653992,Mon Dec 08 2025 09:23:47 GMT-0600 (Central Standard Time),276784.6999999881,A,s,I,s,452,3,466.0,276318.6999999881,8046,WL,B,4.0
2,12.779000043869019,learn,47220.99995613098,Mon Dec 08 2025 09:23:47 GMT-0600 (Central Standard Time),277186.2999999821,A,st,I,t,387,3,867.5999999940395,276318.6999999881,8046,WL,B,4.0
2,12.995000123977661,learn,47004.99987602234,Mon Dec 08 2025 09:23:47 GMT-0600 (Central Standard Time),277402.1999999881,A,sta,I,a,211,3,1083.5,276318.6999999881,8046,WL,B,4.0
2,13.093000173568726,learn,46906.999826431274,Mon Dec 08 2025 09:23:47 GMT-0600 (Central Standard Time),277500.09999999404,A,star,I,r,88,3,1181.4000000059605,276318.6999999881,8046,WL,B,4.0
2,13.861000061035156,learn,46138.999938964844,Mon Dec 08 2025 09:23:47 GMT-0600 (Central Standard Time),278268.0,A,starenter,I,enter,758,3,1949.300000011921,276318.6999999881,8046,WL,B,4.0
2,14.277000188827515,learn,45722.999811172485,Mon Dec 08 2025 09:23:47 GMT-0600 (Central Standard Time),278684.59999999404,A,a,I,a,402,3,416.30000001192093,278268.2999999821,8046,WL,B,5.0
2,14.609000205993652,learn,45390.99979400635,Mon Dec 08 2025 09:23:47 GMT-0600 (Central Standard Time),279016.6999999881,A,ar,I,r,326,3,748.4000000059605,278268.2999999821,8046,WL,B,5.0
2,14.89300012588501,learn,45106.99987411499,Mon Dec 08 2025 09:23:47 GMT-0600 (Central Standard Time),279300.6999999881,A,arm,I,m,273,3,1032.4000000059605,278268.2999999821,8046,WL,B,5.0
2,16.009999990463257,learn,43990.00000953674,Mon Dec 08 2025 09:23:47 GMT-0600 (Central Standard Time),280417.09999999404,A,armenter,I,enter,1095,3,2148.800000011921,278268.2999999821,8046,WL,B,5.0
2,16.677000045776367,learn,43322.99995422363,Mon Dec 08 2025 09:23:47 GMT-0600 (Central Standard Time),281084.2999999821,A,p,I,p,660,3,667.0,280417.2999999821,8046,WL,B,6.0
2,16.89300012588501,learn,43106.99987411499,Mon Dec 08 2025 09:23:47 GMT-0600 (Central Standard Time),281300.39999997616,A,pu,I,u,198,3,883.0999999940395,280417.2999999821,8046,WL,B,6.0
2,17.24500012397766,learn,42754.99987602234,Mon Dec 08 2025 09:23:47 GMT-0600 (Central Standard Time),281652.0,A,pup,I,p,337,3,1234.7000000178814,280417.2999999821,8046,WL,B,6.0
2,17.492000102996826,learn,42507.999897003174,Mon Dec 08 2025 09:23:47 GMT-0600 (Central Standard Time),281899.6999999881,A,pupi,I,i,240,3,1482.4000000059605,280417.2999999821,8046,WL,B,6.0
2,17.692000150680542,learn,42307.99984931946,Mon Dec 08 2025 09:23:47 GMT-0600 (Central Standard Time),282099.09999999404,A,pupil,I,l,190,3,1681.800000011921,280417.2999999821,8046,WL,B,6.0
2,18.042999982833862,learn,41957.00001716614,Mon Dec 08 2025 09:23:47 GMT-0600 (Central Standard Time),282450.0,A,pupilenter,I,enter,346,3,2032.7000000178814,280417.2999999821,8046,WL,B,6.0
2,18.808000087738037,learn,41191.99991226196,Mon Dec 08 2025 09:23:47 GMT-0600 (Central Standard Time),283215.6999999881,A,c,I,c,745,3,765.4000000059605,282450.2999999821,8046,WL,B,7.0
2,19.058000087738037,learn,40941.99991226196,Mon Dec 08 2025 09:23:47 GMT-0600 (Central Standard Time),283465.5,A,ca,I,a,236,3,1015.2000000178814,282450.2999999821,8046,WL,B,7.0
2,19.243000030517578,learn,40756.99996948242,Mon Dec 08 2025 09:23:47 GMT-0600 (Central Standard Time),283650.6999999881,A,cab,I,b,170,3,1200.4000000059605,282450.2999999821,8046,WL,B,7.0
2,19.79200005531311,learn,40207.99994468689,Mon Dec 08 2025 09:23:47 GMT-0600 (Central Standard Time),284199.1999999881,A,cabi,I,i,538,3,1748.9000000059605,282450.2999999821,8046,WL,B,7.0
2,20.223999977111816,learn,39776.00002288818,Mon Dec 08 2025 09:23:47 GMT-0600 (Central Standard Time),284631.59999999404,A,cabin,I,n,412,3,2181.300000011921,282450.2999999821,8046,WL,B,7.0
2,21.623000144958496,learn,38376.999855041504,Mon Dec 08 2025 09:23:47 GMT-0600 (Central Standard Time),286030.7999999821,A,cabinenter,I,enter,1380,3,3580.5,282450.2999999821,8046,WL,B,7.0
2,23.040000200271606,learn,36959.99979972839,Mon Dec 08 2025 09:23:47 GMT-0600 (Central Standard Time),287447.59999999404,A,w,I,w,1398,3,1416.5,286031.09999999404,8046,WL,B,8.0
2,23.240000009536743,learn,36759.99999046326,Mon Dec 08 2025 09:23:47 GMT-0600 (Central Standard Time),287647.1999999881,A,wi,I,i,187,3,1616.0999999940395,286031.09999999404,8046,WL,B,8.0
2,23.424000024795532,learn,36575.99997520447,Mon Dec 08 2025 09:23:47 GMT-0600 (Central Standard Time),287831.09999999404,A,win,I,n,174,3,1800.0,286031.09999999404,8046,WL,B,8.0
2,23.674000024795532,learn,36325.99997520447,Mon Dec 08 2025 09:23:47 GMT-0600 (Central Standard Time),288081.39999997616,A,wind,I,d,243,3,2050.2999999821186,286031.09999999404,8046,WL,B,8.0
2,23.824000120162964,learn,36175.999879837036,Mon Dec 08 2025 09:23:47 GMT-0600 (Central Standard Time),288230.89999997616,A,windo,I,o,130,3,2199.7999999821186,286031.09999999404,8046,WL,B,8.0
2,23.975000143051147,learn,36024.99985694885,Mon Dec 08 2025 09:23:47 GMT-0600 (Central Standard Time),288381.89999997616,A,window,I,w,139,3,2350.7999999821186,286031.09999999404,8046,WL,B,8.0
2,26.25600004196167,learn,33743.99995803833,Mon Dec 08 2025 09:23:47 GMT-0600 (Central Standard Time),290663.6999999881,A,windowenter,I,enter,2268,3,4632.5999999940395,286031.09999999404,8046,WL,B,8.0
2,27.507000207901,learn,32492.999792099,Mon Dec 08 2025 09:23:47 GMT-0600 (Central Standard Time),291914.2999999821,A,p,I,p,1230,3,1250.2999999821186,290664.0,8046,WL,B,9.0
2,28.00600004196167,learn,31993.99995803833,Mon Dec 08 2025 09:23:47 GMT-0600 (Central Standard Time),292412.89999997616,A,pi,I,i,477,3,1748.8999999761581,290664.0,8046,WL,B,9.0
2,28.289000034332275,learn,31710.999965667725,Mon Dec 08 2025 09:23:47 GMT-0600 (Central Standard Time),292696.2999999821,A,pip,I,p,262,3,2032.2999999821186,290664.0,8046,WL,B,9.0
2,28.639000177383423,learn,31360.999822616577,Mon Dec 08 2025 09:23:47 GMT-0600 (Central Standard Time),293046.0,A,pipe,I,e,335,3,2382.0,290664.0,8046,WL,B,9.0
2,31.703999996185303,learn,28296.000003814697,Mon Dec 08 2025 09:23:47 GMT-0600 (Central Standard Time),296111.89999997616,A,pipeenter,I,enter,3044,3,5447.899999976158,290664.0,8046,WL,B,9.0
2,32.3050000667572,learn,27694.999933242798,Mon Dec 08 2025 09:23:47 GMT-0600 (Central Standard Time),296712.5,A,a,I,a,595,3,600.3000000119209,296112.1999999881,8046,WL,B,10.0
2,32.88700008392334,learn,27112.99991607666,Mon Dec 08 2025 09:23:47 GMT-0600 (Central Standard Time),297294.5,A,al,I,l,571,3,1182.300000011921,296112.1999999881,8046,WL,B,10.0
2,33.47000002861023,learn,26529.99997138977,Mon Dec 08 2025 09:23:47 GMT-0600 (Central Standard Time),297878.0,A,a,I,backspace,562,3,1765.800000011921,296112.1999999881,8046,WL,B,10.0
2,33.63700008392334,learn,26362.99991607666,Mon Dec 08 2025 09:23:47 GMT-0600 (Central Standard Time),298044.1999999881,A,,I,backspace,145,3,1932.0,296112.1999999881,8046,WL,B,10.0
2,33.73900008201599,learn,26260.99991798401,Mon Dec 08 2025 09:23:47 GMT-0600 (Central Standard Time),298146.2999999821,A,c,I,c,86,3,2034.0999999940395,296112.1999999881,8046,WL,B,10.0
2,33.9539999961853,learn,26046.000003814697,Mon Dec 08 2025 09:23:47 GMT-0600 (Central Standard Time),298361.2999999821,A,cl,I,l,207,3,2249.0999999940395,296112.1999999881,8046,WL,B,10.0
2,34.2039999961853,learn,25796.000003814697,Mon Dec 08 2025 09:23:47 GMT-0600 (Central Standard Time),298611.09999999404,A,clo,I,o,232,3,2498.9000000059605,296112.1999999881,8046,WL,B,10.0
2,34.337000131607056,learn,25662.999868392944,Mon Dec 08 2025 09:23:47 GMT-0600 (Central Standard Time),298744.1999999881,A,cloc,I,c,119,3,2632.0,296112.1999999881,8046,WL,B,10.0
2,34.539000034332275,learn,25460.999965667725,Mon Dec 08 2025 09:23:47 GMT-0600 (Central Standard Time),298946.09999999404,A,clock,I,k,185,3,2833.9000000059605,296112.1999999881,8046,WL,B,10.0
2,35.007000207901,learn,24992.999792099,Mon Dec 08 2025 09:23:47 GMT-0600 (Central Standard Time),299414.0,A,clockenter,I,enter,448,3,3301.800000011921,296112.1999999881,8046,WL,B,10.0
2,35.854000091552734,learn,24145.999908447266,Mon Dec 08 2025 09:23:47 GMT-0600 (Central Standard Time),300261.39999997616,A,f,I,f,830,3,847.1999999880791,299414.1999999881,8046,WL,B,11.0
2,36.07000017166138,learn,23929.999828338623,Mon Dec 08 2025 09:23:47 GMT-0600 (Central Standard Time),300477.5,A,fi,I,i,197,3,1063.300000011921,299414.1999999881,8046,WL,B,11.0
2,36.354000091552734,learn,23645.999908447266,Mon Dec 08 2025 09:23:47 GMT-0600 (Central Standard Time),300761.09999999404,A,fir,I,r,277,3,1346.9000000059605,299414.1999999881,8046,WL,B,11.0
2,36.55299997329712,learn,23447.00002670288,Mon Dec 08 2025 09:23:47 GMT-0600 (Central Standard Time),300960.1999999881,A,fire,I,e,185,3,1546.0,299414.1999999881,8046,WL,B,11.0
2,39.01900005340576,learn,20980.99994659424,Mon Dec 08 2025 09:23:47 GMT-0600 (Central Standard Time),303426.2999999821,A,fireenter,I,enter,2450,3,4012.0999999940395,299414.1999999881,8046,WL,B,11.0
2,39.55200004577637,learn,20447.999954223633,Mon Dec 08 2025 09:23:47 GMT-0600 (Central Standard Time),303959.2999999821,A,s,I,s,513,3,532.6999999880791,303426.59999999404,8046,WL,B,12.0
2,40.218000173568726,learn,19781.999826431274,Mon Dec 08 2025 09:23:47 GMT-0600 (Central Standard Time),304625.59999999404,A,st,I,t,650,3,1199.0,303426.59999999404,8046,WL,B,12.0
2,40.50200009346008,learn,19497.999906539917,Mon Dec 08 2025 09:23:47 GMT-0600 (Central Standard Time),304909.0,A,sta,I,a,264,3,1482.4000000059605,303426.59999999404,8046,WL,B,12.0
2,40.652000188827515,learn,19347.999811172485,Mon Dec 08 2025 09:23:47 GMT-0600 (Central Standard Time),305059.09999999404,A,star,I,r,129,3,1632.5,303426.59999999404,8046,WL,B,12.0
2,42.26800012588501,learn,17731.99987411499,Mon Dec 08 2025 09:23:47 GMT-0600 (Central Standard Time),306675.1999999881,A,sta,I,backspace,1597,3,3248.5999999940395,303426.59999999404,8046,WL,B,12.0
2,42.467000007629395,learn,17532.999992370605,Mon Dec 08 2025 09:23:47 GMT-0600 (Central Standard Time),306874.7999999821,A,st,I,backspace,183,3,3448.199999988079,303426.59999999404,8046,WL,B,12.0
2,42.66900014877319,learn,17330.999851226807,Mon Dec 08 2025 09:23:47 GMT-0600 (Central Standard Time),307076.59999999404,A,s,I,backspace,181,3,3650.0,303426.59999999404,8046,WL,B,12.0
2,43.1010000705719,learn,16898.9999294281,Mon Dec 08 2025 09:23:47 GMT-0600 (Central Standard Time),307508.09999999404,A,,I,backspace,422,3,4081.5,303426.59999999404,8046,WL,B,12.0
2,43.31700015068054,learn,16682.999849319458,Mon Dec 08 2025 09:23:47 GMT-0600 (Central Standard Time),307724.7999999821,A,w,I,w,206,3,4298.199999988079,303426.59999999404,8046,WL,B,12.0
2,43.51800012588501,learn,16481.99987411499,Mon Dec 08 2025 09:23:47 GMT-0600 (Central Standard Time),307925.59999999404,A,wi,I,i,189,3,4499.0,303426.59999999404,8046,WL,B,12.0
2,43.83500003814697,learn,16164.999961853027,Mon Dec 08 2025 09:23:47 GMT-0600 (Central Standard Time),308242.5,A,wif,I,f,308,3,4815.9000000059605,303426.59999999404,8046,WL,B,12.0
2,44.03500008583069,learn,15964.999914169312,Mon Dec 08 2025 09:23:47 GMT-0600 (Central Standard Time),308442.7999999821,A,wife,I,e,181,3,5016.199999988079,303426.59999999404,8046,WL,B,12.0
2,44.782999992370605,learn,15217.000007629395,Mon Dec 08 2025 09:23:47 GMT-0600 (Central Standard Time),309190.89999997616,A,wifeenter,I,enter,726,3,5764.299999982119,303426.59999999404,8046,WL,B,12.0
2,45.532999992370605,learn,14467.000007629395,Mon Dec 08 2025 09:23:47 GMT-0600 (Central Standard Time),309940.7999999821,A,s,I,s,733,3,749.6999999880791,309191.09999999404,8046,WL,B,13.0
2,46.2020001411438,learn,13797.999858856201,Mon Dec 08 2025 09:23:47 GMT-0600 (Central Standard Time),310609.39999997616,A,st,I,t,644,3,1418.2999999821186,309191.09999999404,8046,WL,B,13.0
2,46.41700005531311,learn,13582.99994468689,Mon Dec 08 2025 09:23:47 GMT-0600 (Central Standard Time),310825.0,A,sta,I,a,203,3,1633.9000000059605,309191.09999999404,8046,WL,B,13.0
2,46.58300018310547,learn,13416.999816894531,Mon Dec 08 2025 09:23:47 GMT-0600 (Central Standard Time),310990.09999999404,A,star,I,r,154,3,1799.0,309191.09999999404,8046,WL,B,13.0
2,50.11500000953674,learn,9884.999990463257,Mon Dec 08 2025 09:23:47 GMT-0600 (Central Standard Time),314522.7999999821,A,starenter,I,enter,3525,3,5331.699999988079,309191.09999999404,8046,WL,B,13.0
2,50.902000188827515,learn,9097.999811172485,Mon Dec 08 2025 09:23:47 GMT-0600 (Central Standard Time),315309.39999997616,A,a,I,a,768,3,786.2999999821186,314523.09999999404,8046,WL,B,14.0
2,51.23100018501282,learn,8768.999814987183,Mon Dec 08 2025 09:23:47 GMT-0600 (Central Standard Time),315638.5,A,ar,I,r,308,3,1115.4000000059605,314523.09999999404,8046,WL,B,14.0
2,51.430999994277954,learn,8569.000005722046,Mon Dec 08 2025 09:23:47 GMT-0600 (Central Standard Time),315838.89999997616,A,arm,I,m,188,3,1315.7999999821186,314523.09999999404,8046,WL,B,14.0
2,52.64800000190735,learn,7351.999998092651,Mon Dec 08 2025 09:23:47 GMT-0600 (Central Standard Time),317055.5,A,armenter,I,enter,1202,3,2532.4000000059605,314523.09999999404,8046,WL,B,14.0
2,60.01300001144409,learn,-13.000011444091797,Mon Dec 08 2025 09:23:47 GMT-0600 (Central Standard Time),324420.09999999404,A,None,I,None,7359,3,7364.300000011921,317055.7999999821,8046,WL,B,15.0
3,0.434999942779541,learn,59565.00005722046,Mon Dec 08 2025 09:23:47 GMT-0600 (Central Standard Time),395031.5,A,s,I,s,422,3,434.40000000596046,394597.09999999404,8046,WL,B,1.0
3,0.9830000400543213,learn,59016.99995994568,Mon Dec 08 2025 09:23:47 GMT-0600 (Central Standard Time),395579.7999999821,A,st,I,t,532,3,982.6999999880791,394597.09999999404,8046,WL,B,1.0
3,1.25,learn,58750.0,Mon Dec 08 2025 09:23:47 GMT-0600 (Central Standard Time),395846.89999997616,A,str,I,r,247,3,1249.7999999821186,394597.09999999404,8046,WL,B,1.0
3,1.5179998874664307,learn,58482.00011253357,Mon Dec 08 2025 09:23:47 GMT-0600 (Central Standard Time),396114.2999999821,A,stre,I,e,261,3,1517.199999988079,394597.09999999404,8046,WL,B,1.0
3,1.7000000476837158,learn,58299.999952316284,Mon Dec 08 2025 09:23:47 GMT-0600 (Central Standard Time),396296.6999999881,A,stree,I,e,176,3,1699.5999999940395,394597.09999999404,8046,WL,B,1.0
3,1.8329999446868896,learn,58167.00005531311,Mon Dec 08 2025 09:23:47 GMT-0600 (Central Standard Time),396429.39999997616,A,street,I,t,123,3,1832.2999999821186,394597.09999999404,8046,WL,B,1.0
3,3.2690000534057617,learn,56730.99994659424,Mon Dec 08 2025 09:23:47 GMT-0600 (Central Standard Time),397865.1999999881,A,streetenter,I,enter,1432,3,3268.0999999940395,394597.09999999404,8046,WL,B,1.0
3,4.0,learn,56000.0,Mon Dec 08 2025 09:23:47 GMT-0600 (Central Standard Time),398596.2999999821,A,d,I,d,714,3,730.7999999821186,397865.5,8046,WL,B,2.0
3,4.415999889373779,learn,55584.00011062622,Mon Dec 08 2025 09:23:47 GMT-0600 (Central Standard Time),399012.39999997616,A,do,I,o,405,3,1146.8999999761581,397865.5,8046,WL,B,2.0
3,4.6499998569488525,learn,55350.00014305115,Mon Dec 08 2025 09:23:47 GMT-0600 (Central Standard Time),399246.39999997616,A,doo,I,o,216,3,1380.8999999761581,397865.5,8046,WL,B,2.0
3,5.148999929428101,learn,54851.0000705719,Mon Dec 08 2025 09:23:47 GMT-0600 (Central Standard Time),399745.59999999404,A,door,I,r,495,3,1880.0999999940395,397865.5,8046,WL,B,2.0
3,7.430999994277954,learn,52569.000005722046,Mon Dec 08 2025 09:23:47 GMT-0600 (Central Standard Time),402027.59999999404,A,doorenter,I,enter,2264,3,4162.0999999940395,397865.5,8046,WL,B,2.0
3,7.915999889373779,learn,52084.00011062622,Mon Dec 08 2025 09:23:47 GMT-0600 (Central Standard Time),402512.5,A,w,I,w,471,3,484.5,402028.0,8046,WL,B,3.0
3,8.132999897003174,learn,51867.000102996826,Mon Dec 08 2025 09:23:47 GMT-0600 (Central Standard Time),402729.5,A,wi,I,i,196,3,701.5,402028.0,8046,WL,B,3.0
3,8.38100004196167,learn,51618.99995803833,Mon Dec 08 2025 09:23:47 GMT-0600 (Central Standard Time),402977.6999999881,A,win,I,n,242,3,949.6999999880791,402028.0,8046,WL,B,3.0
3,8.547999858856201,learn,51452.0001411438,Mon Dec 08 2025 09:23:47 GMT-0600 (Central Standard Time),403144.39999997616,A,wind,I,d,140,3,1116.3999999761581,402028.0,8046,WL,B,3.0
3,8.747999906539917,learn,51252.00009346008,Mon Dec 08 2025 09:23:47 GMT-0600 (Central Standard Time),403344.2999999821,A,windo,I,o,185,3,1316.2999999821186,402028.0,8046,WL,B,3.0
3,8.964999914169312,learn,51035.00008583069,Mon Dec 08 2025 09:23:47 GMT-0600 (Central Standard Time),403561.39999997616,A,window,I,w,212,3,1533.3999999761581,402028.0,8046,WL,B,3.0
3,10.063999891281128,learn,49936.00010871887,Mon Dec 08 2025 09:23:47 GMT-0600 (Central Standard Time),404660.7999999821,A,windowenter,I,enter,1092,3,2632.7999999821186,402028.0,8046,WL,B,3.0
3,11.115000009536743,learn,48884.99999046326,Mon Dec 08 2025 09:23:47 GMT-0600 (Central Standard Time),405711.39999997616,A,s,I,s,1039,3,1050.2999999821186,404661.09999999404,8046,WL,B,4.0
3,11.530999898910522,learn,48469.00010108948,Mon Dec 08 2025 09:23:47 GMT-0600 (Central Standard Time),406127.6999999881,A,st,I,t,403,3,1466.5999999940395,404661.09999999404,8046,WL,B,4.0
3,11.77999997138977,learn,48220.00002861023,Mon Dec 08 2025 09:23:47 GMT-0600 (Central Standard Time),406376.89999997616,A,sta,I,a,243,3,1715.7999999821186,404661.09999999404,8046,WL,B,4.0
3,11.899999856948853,learn,48100.00014305115,Mon Dec 08 2025 09:23:47 GMT-0600 (Central Standard Time),406497.09999999404,A,star,I,r,112,3,1836.0,404661.09999999404,8046,WL,B,4.0
3,12.634000062942505,learn,47365.999937057495,Mon Dec 08 2025 09:23:47 GMT-0600 (Central Standard Time),407230.89999997616,A,starenter,I,enter,714,3,2569.7999999821186,404661.09999999404,8046,WL,B,4.0
3,12.996999979019165,learn,47003.000020980835,Mon Dec 08 2025 09:23:47 GMT-0600 (Central Standard Time),407593.1999999881,A,a,I,a,356,3,362.09999999403954,407231.09999999404,8046,WL,B,5.0
3,13.36299991607666,learn,46637.00008392334,Mon Dec 08 2025 09:23:47 GMT-0600 (Central Standard Time),407959.6999999881,A,ar,I,r,349,3,728.5999999940395,407231.09999999404,8046,WL,B,5.0
3,13.79699993133545,learn,46203.00006866455,Mon Dec 08 2025 09:23:47 GMT-0600 (Central Standard Time),408393.1999999881,A,arm,I,m,426,3,1162.0999999940395,407231.09999999404,8046,WL,B,5.0
3,16.397000074386597,learn,43602.9999256134,Mon Dec 08 2025 09:23:47 GMT-0600 (Central Standard Time),410993.1999999881,A,armenter,I,enter,2593,3,3762.0999999940395,407231.09999999404,8046,WL,B,5.0
3,17.361000061035156,learn,42638.999938964844,Mon Dec 08 2025 09:23:47 GMT-0600 (Central Standard Time),411958.0,A,c,I,c,955,3,964.6000000238419,410993.39999997616,8046,WL,B,6.0
3,17.580999851226807,learn,42419.00014877319,Mon Dec 08 2025 09:23:47 GMT-0600 (Central Standard Time),412177.5,A,ca,I,a,212,3,1184.1000000238419,410993.39999997616,8046,WL,B,6.0
3,17.960999965667725,learn,42039.000034332275,Mon Dec 08 2025 09:23:47 GMT-0600 (Central Standard Time),412557.7999999821,A,cab,I,b,362,3,1564.4000000059605,410993.39999997616,8046,WL,B,6.0
3,18.961999893188477,learn,41038.00010681152,Mon Dec 08 2025 09:23:47 GMT-0600 (Central Standard Time),413558.1999999881,A,ca,I,backspace,982,3,2564.800000011921,410993.39999997616,8046,WL,B,6.0
3,19.210999965667725,learn,40789.000034332275,Mon Dec 08 2025 09:23:47 GMT-0600 (Central Standard Time),413807.59999999404,A,c,I,backspace,229,3,2814.2000000178814,410993.39999997616,8046,WL,B,6.0
3,19.411999940872192,learn,40588.00005912781,Mon Dec 08 2025 09:23:47 GMT-0600 (Central Standard Time),414008.6999999881,A,,I,backspace,179,3,3015.300000011921,410993.39999997616,8046,WL,B,6.0
3,19.562999963760376,learn,40437.000036239624,Mon Dec 08 2025 09:23:47 GMT-0600 (Central Standard Time),414159.39999997616,A,s,I,s,136,3,3166.0,410993.39999997616,8046,WL,B,6.0
3,19.777999877929688,learn,40222.00012207031,Mon Dec 08 2025 09:23:47 GMT-0600 (Central Standard Time),414374.7999999821,A,si,I,i,202,3,3381.4000000059605,410993.39999997616,8046,WL,B,6.0
3,20.244999885559082,learn,39755.00011444092,Mon Dec 08 2025 09:23:47 GMT-0600 (Central Standard Time),414841.59999999404,A,s,I,backspace,444,3,3848.2000000178814,410993.39999997616,8046,WL,B,6.0
3,20.40999984741211,learn,39590.00015258789,Mon Dec 08 2025 09:23:47 GMT-0600 (Central Standard Time),415007.0,A,,I,backspace,152,3,4013.600000023842,410993.39999997616,8046,WL,B,6.0
3,20.546000003814697,learn,39453.9999961853,Mon Dec 08 2025 09:23:47 GMT-0600 (Central Standard Time),415142.5,A,w,I,w,116,3,4149.100000023842,410993.39999997616,8046,WL,B,6.0
3,20.76199984550476,learn,39238.00015449524,Mon Dec 08 2025 09:23:47 GMT-0600 (Central Standard Time),415359.0,A,wi,I,i,204,3,4365.600000023842,410993.39999997616,8046,WL,B,6.0
3,20.897000074386597,learn,39102.9999256134,Mon Dec 08 2025 09:23:47 GMT-0600 (Central Standard Time),415493.1999999881,A,wif,I,f,115,3,4499.800000011921,410993.39999997616,8046,WL,B,6.0
3,21.09500002861023,learn,38904.99997138977,Mon Dec 08 2025 09:23:47 GMT-0600 (Central Standard Time),415692.39999997616,A,wife,I,e,192,3,4699.0,410993.39999997616,8046,WL,B,6.0
3,21.39299988746643,learn,38607.00011253357,Mon Dec 08 2025 09:23:47 GMT-0600 (Central Standard Time),415990.59999999404,A,wifeenter,I,enter,288,3,4997.200000017881,410993.39999997616,8046,WL,B,6.0
3,22.14299988746643,learn,37857.00011253357,Mon Dec 08 2025 09:23:47 GMT-0600 (Central Standard Time),416740.59999999404,A,c,I,c,734,3,749.8000000119209,415990.7999999821,8046,WL,B,7.0
3,22.47499990463257,learn,37525.00009536743,Mon Dec 08 2025 09:23:47 GMT-0600 (Central Standard Time),417072.6999999881,A,ca,I,a,328,3,1081.9000000059605,415990.7999999821,8046,WL,B,7.0
3,22.796000003814697,learn,37203.9999961853,Mon Dec 08 2025 09:23:47 GMT-0600 (Central Standard Time),417393.39999997616,A,cab,I,b,308,3,1402.5999999940395,415990.7999999821,8046,WL,B,7.0
3,23.95799994468689,learn,36042.00005531311,Mon Dec 08 2025 09:23:47 GMT-0600 (Central Standard Time),418556.09999999404,A,cabi,I,i,1156,3,2565.300000011921,415990.7999999821,8046,WL,B,7.0
3,24.292999982833862,learn,35707.00001716614,Mon Dec 08 2025 09:23:47 GMT-0600 (Central Standard Time),418890.7999999821,A,cabin,I,n,329,3,2900.0,415990.7999999821,8046,WL,B,7.0
3,26.424999952316284,learn,33575.000047683716,Mon Dec 08 2025 09:23:47 GMT-0600 (Central Standard Time),421022.39999997616,A,cabinenter,I,enter,2112,3,5031.5999999940395,415990.7999999821,8046,WL,B,7.0
3,27.473000049591064,learn,32526.999950408936,Mon Dec 08 2025 09:23:47 GMT-0600 (Central Standard Time),422070.6999999881,A,p,I,p,1038,3,1048.199999988079,421022.5,8046,WL,B,8.0
3,27.905999898910522,learn,32094.000101089478,Mon Dec 08 2025 09:23:47 GMT-0600 (Central Standard Time),422504.1999999881,A,pi,I,i,423,3,1481.699999988079,421022.5,8046,WL,B,8.0
3,28.174000024795532,learn,31825.999975204468,Mon Dec 08 2025 09:23:47 GMT-0600 (Central Standard Time),422771.2999999821,A,pip,I,p,250,3,1748.7999999821186,421022.5,8046,WL,B,8.0
3,28.539000034332275,learn,31460.999965667725,Mon Dec 08 2025 09:23:47 GMT-0600 (Central Standard Time),423137.1999999881,A,pipe,I,e,362,3,2114.699999988079,421022.5,8046,WL,B,8.0
3,29.622999906539917,learn,30377.000093460083,Mon Dec 08 2025 09:23:47 GMT-0600 (Central Standard Time),424220.2999999821,A,pipeenter,I,enter,1067,3,3197.7999999821186,421022.5,8046,WL,B,8.0
3,30.122999906539917,learn,29877.000093460083,Mon Dec 08 2025 09:23:47 GMT-0600 (Central Standard Time),424721.0,A,s,I,s,488,3,500.40000000596046,424220.59999999404,8046,WL,B,9.0
3,30.424000024795532,learn,29575.999975204468,Mon Dec 08 2025 09:23:47 GMT-0600 (Central Standard Time),425021.5,A,sk,I,k,290,3,800.9000000059605,424220.59999999404,8046,WL,B,9.0
3,30.723000049591064,learn,29276.999950408936,Mon Dec 08 2025 09:23:47 GMT-0600 (Central Standard Time),425320.89999997616,A,ski,I,i,296,3,1100.2999999821186,424220.59999999404,8046,WL,B,9.0
3,30.97499990463257,learn,29025.00009536743,Mon Dec 08 2025 09:23:47 GMT-0600 (Central Standard Time),425572.59999999404,A,skin,I,n,234,3,1352.0,424220.59999999404,8046,WL,B,9.0
3,31.490000009536743,learn,28509.999990463257,Mon Dec 08 2025 09:23:47 GMT-0600 (Central Standard Time),426087.5,A,skinenter,I,enter,504,3,1866.9000000059605,424220.59999999404,8046,WL,B,9.0
3,32.15599989891052,learn,27844.000101089478,Mon Dec 08 2025 09:23:47 GMT-0600 (Central Standard Time),426754.39999997616,A,a,I,a,653,3,666.7999999821186,426087.59999999404,8046,WL,B,10.0
3,32.509000062942505,learn,27490.999937057495,Mon Dec 08 2025 09:23:47 GMT-0600 (Central Standard Time),427106.89999997616,A,al,I,l,329,3,1019.2999999821186,426087.59999999404,8046,WL,B,10.0
3,32.87400007247925,learn,27125.999927520752,Mon Dec 08 2025 09:23:47 GMT-0600 (Central Standard Time),427471.2999999821,A,ala,I,a,353,3,1383.699999988079,426087.59999999404,8046,WL,B,10.0
3,33.08999991416931,learn,26910.00008583069,Mon Dec 08 2025 09:23:47 GMT-0600 (Central Standard Time),427687.2999999821,A,alar,I,r,196,3,1599.699999988079,426087.59999999404,8046,WL,B,10.0
3,34.42199993133545,learn,25578.00006866455,Mon Dec 08 2025 09:23:47 GMT-0600 (Central Standard Time),429019.6999999881,A,alarm,I,m,1323,3,2932.0999999940395,426087.59999999404,8046,WL,B,10.0
3,37.97000002861023,learn,22029.99997138977,Mon Dec 08 2025 09:23:47 GMT-0600 (Central Standard Time),432568.1999999881,A,alarmenter,I,enter,3528,3,6480.5999999940395,426087.59999999404,8046,WL,B,10.0
3,38.38800001144409,learn,21611.99998855591,Mon Dec 08 2025 09:23:47 GMT-0600 (Central Standard Time),432985.7999999821,A,c,I,c,412,3,417.40000000596046,432568.39999997616,8046,WL,B,11.0
3,38.638999938964844,learn,21361.000061035156,Mon Dec 08 2025 09:23:47 GMT-0600 (Central Standard Time),433236.39999997616,A,ci,I,i,241,3,668.0,432568.39999997616,8046,WL,B,11.0
3,38.82099986076355,learn,21179.00013923645,Mon Dec 08 2025 09:23:47 GMT-0600 (Central Standard Time),433418.6999999881,A,cit,I,t,174,3,850.3000000119209,432568.39999997616,8046,WL,B,11.0
3,39.15599989891052,learn,20844.000101089478,Mon Dec 08 2025 09:23:47 GMT-0600 (Central Standard Time),433753.89999997616,A,city,I,y,322,3,1185.5,432568.39999997616,8046,WL,B,11.0
3,42.15299987792969,learn,17847.000122070312,Mon Dec 08 2025 09:23:47 GMT-0600 (Central Standard Time),436750.6999999881,A,cityenter,I,enter,2976,3,4182.300000011921,432568.39999997616,8046,WL,B,11.0
3,49.00099992752075,learn,10999.000072479248,Mon Dec 08 2025 09:23:47 GMT-0600 (Central Standard Time),443598.39999997616,A,w,I,w,6838,3,6847.5,436750.89999997616,8046,WL,B,12.0
3,49.401000022888184,learn,10598.999977111816,Mon Dec 08 2025 09:23:47 GMT-0600 (Central Standard Time),443998.89999997616,A,wi,I,i,381,3,7248.0,436750.89999997616,8046,WL,B,12.0
3,49.59999990463257,learn,10400.000095367432,Mon Dec 08 2025 09:23:47 GMT-0600 (Central Standard Time),444198.09999999404,A,win,I,n,187,3,7447.200000017881,436750.89999997616,8046,WL,B,12.0
3,49.89999985694885,learn,10100.000143051147,Mon Dec 08 2025 09:23:47 GMT-0600 (Central Standard Time),444497.5,A,wind,I,d,288,3,7746.600000023842,436750.89999997616,8046,WL,B,12.0
3,50.03399991989136,learn,9966.000080108643,Mon Dec 08 2025 09:23:47 GMT-0600 (Central Standard Time),444631.5,A,windo,I,o,121,3,7880.600000023842,436750.89999997616,8046,WL,B,12.0
3,50.26699995994568,learn,9733.000040054321,Mon Dec 08 2025 09:23:47 GMT-0600 (Central Standard Time),444864.59999999404,A,window,I,w,211,3,8113.700000017881,436750.89999997616,8046,WL,B,12.0
3,51.198999881744385,learn,8801.000118255615,Mon Dec 08 2025 09:23:47 GMT-0600 (Central Standard Time),445797.1999999881,A,windowenter,I,enter,921,3,9046.300000011921,436750.89999997616,8046,WL,B,12.0
3,51.53200006484985,learn,8467.999935150146,Mon Dec 08 2025 09:23:47 GMT-0600 (Central Standard Time),446129.5,A,d,I,d,326,3,332.10000002384186,445797.39999997616,8046,WL,B,13.0
3,51.79900002479553,learn,8200.999975204468,Mon Dec 08 2025 09:23:47 GMT-0600 (Central Standard Time),446396.89999997616,A,do,I,o,259,3,599.5,445797.39999997616,8046,WL,B,13.0
3,52.09999990463257,learn,7900.000095367432,Mon Dec 08 2025 09:23:47 GMT-0600 (Central Standard Time),446698.0,A,doo,I,o,289,3,900.6000000238419,445797.39999997616,8046,WL,B,13.0
3,52.514999866485596,learn,7485.000133514404,Mon Dec 08 2025 09:23:47 GMT-0600 (Central Standard Time),447113.09999999404,A,door,I,r,399,3,1315.7000000178814,445797.39999997616,8046,WL,B,13.0
3,56.181999921798706,learn,3818.000078201294,Mon Dec 08 2025 09:23:47 GMT-0600 (Central Standard Time),450779.2999999821,A,doorenter,I,enter,3658,3,4981.9000000059605,445797.39999997616,8046,WL,B,13.0
3,56.88199996948242,learn,3118.000030517578,Mon Dec 08 2025 09:23:47 GMT-0600 (Central Standard Time),451479.7999999821,A,s,I,s,689,3,700.1999999880791,450779.59999999404,8046,WL,B,14.0
3,57.115999937057495,learn,2884.000062942505,Mon Dec 08 2025 09:23:47 GMT-0600 (Central Standard Time),451713.39999997616,A,sk,I,k,211,3,933.7999999821186,450779.59999999404,8046,WL,B,14.0
3,57.36500000953674,learn,2634.999990463257,Mon Dec 08 2025 09:23:47 GMT-0600 (Central Standard Time),451962.89999997616,A,ski,I,i,243,3,1183.2999999821186,450779.59999999404,8046,WL,B,14.0
3,57.6470000743866,learn,2352.9999256134033,Mon Dec 08 2025 09:23:47 GMT-0600 (Central Standard Time),452244.89999997616,A,skin,I,n,272,3,1465.2999999821186,450779.59999999404,8046,WL,B,14.0
3,60.014999866485596,learn,-14.999866485595703,Mon Dec 08 2025 09:23:47 GMT-0600 (Central Standard Time),454612.89999997616,A,skinNone,I,None,2361,3,3833.2999999821186,450779.59999999404,8046,WL,B,14.0
4,0.7000000476837158,learn,59299.999952316284,Mon Dec 08 2025 09:23:47 GMT-0600 (Central Standard Time),524256.1999999881,A,s,I,s,690,3,700.0999999940395,523556.09999999404,8046,WL,B,1.0
4,1.0989999771118164,learn,58901.00002288818,Mon Dec 08 2025 09:23:47 GMT-0600 (Central Standard Time),524655.1999999881,A,st,I,t,379,3,1099.0999999940395,523556.09999999404,8046,WL,B,1.0
4,1.4170000553131104,learn,58582.99994468689,Mon Dec 08 2025 09:23:47 GMT-0600 (Central Standard Time),524972.5,A,str,I,r,308,3,1416.4000000059605,523556.09999999404,8046,WL,B,1.0
4,1.7000000476837158,learn,58299.999952316284,Mon Dec 08 2025 09:23:47 GMT-0600 (Central Standard Time),525255.8999999762,A,stre,I,e,263,3,1699.7999999821186,523556.09999999404,8046,WL,B,1.0
4,1.932999849319458,learn,58067.00015068054,Mon Dec 08 2025 09:23:47 GMT-0600 (Central Standard Time),525489.3999999762,A,stree,I,e,229,3,1933.2999999821186,523556.09999999404,8046,WL,B,1.0
4,2.065999984741211,learn,57934.00001525879,Mon Dec 08 2025 09:23:47 GMT-0600 (Central Standard Time),525622.099999994,A,street,I,t,123,3,2066.0,523556.09999999404,8046,WL,B,1.0
4,2.797999858856201,learn,57202.0001411438,Mon Dec 08 2025 09:23:47 GMT-0600 (Central Standard Time),526354.3999999762,A,streetenter,I,enter,712,3,2798.2999999821186,523556.09999999404,8046,WL,B,1.0
4,3.1489999294281006,learn,56851.0000705719,Mon Dec 08 2025 09:23:47 GMT-0600 (Central Standard Time),526705.5,A,g,I,g,346,3,351.0,526354.5,8046,WL,B,2.0
4,3.498999834060669,learn,56501.00016593933,Mon Dec 08 2025 09:23:47 GMT-0600 (Central Standard Time),527055.0,A,gr,I,r,334,3,700.5,526354.5,8046,WL,B,2.0
4,3.7159998416900635,learn,56284.00015830994,Mon Dec 08 2025 09:23:47 GMT-0600 (Central Standard Time),527272.3999999762,A,gra,I,a,203,3,917.8999999761581,526354.5,8046,WL,B,2.0
4,4.047999858856201,learn,55952.0001411438,Mon Dec 08 2025 09:23:47 GMT-0600 (Central Standard Time),527604.099999994,A,gras,I,s,319,3,1249.5999999940395,526354.5,8046,WL,B,2.0
4,4.264999866485596,learn,55735.000133514404,Mon Dec 08 2025 09:23:47 GMT-0600 (Central Standard Time),527820.7999999821,A,grass,I,s,208,3,1466.2999999821186,526354.5,8046,WL,B,2.0
4,4.815000057220459,learn,55184.99994277954,Mon Dec 08 2025 09:23:47 GMT-0600 (Central Standard Time),528371.099999994,A,grassenter,I,enter,545,3,2016.5999999940395,526354.5,8046,WL,B,2.0
4,5.248999834060669,learn,54751.00016593933,Mon Dec 08 2025 09:23:47 GMT-0600 (Central Standard Time),528805.099999994,A,c,I,c,418,3,433.7000000178814,528371.3999999762,8046,WL,B,3.0
4,5.582000017166138,learn,54417.99998283386,Mon Dec 08 2025 09:23:47 GMT-0600 (Central Standard Time),529137.6999999881,A,ci,I,i,315,3,766.3000000119209,528371.3999999762,8046,WL,B,3.0
4,5.797999858856201,learn,54202.0001411438,Mon Dec 08 2025 09:23:47 GMT-0600 (Central Standard Time),529354.2999999821,A,cit,I,t,205,3,982.9000000059605,528371.3999999762,8046,WL,B,3.0
4,6.0309998989105225,learn,53969.00010108948,Mon Dec 08 2025 09:23:47 GMT-0600 (Central Standard Time),529586.7999999821,A,city,I,y,222,3,1215.4000000059605,528371.3999999762,8046,WL,B,3.0
4,6.764999866485596,learn,53235.000133514404,Mon Dec 08 2025 09:23:47 GMT-0600 (Central Standard Time),530320.7999999821,A,cityenter,I,enter,713,3,1949.4000000059605,528371.3999999762,8046,WL,B,3.0
4,7.2809998989105225,learn,52719.00010108948,Mon Dec 08 2025 09:23:47 GMT-0600 (Central Standard Time),530837.2999999821,A,w,I,w,507,3,516.2999999821186,530321.0,8046,WL,B,4.0
4,7.563999891281128,learn,52436.00010871887,Mon Dec 08 2025 09:23:47 GMT-0600 (Central Standard Time),531120.3999999762,A,wi,I,i,261,3,799.3999999761581,530321.0,8046,WL,B,4.0
4,7.83299994468689,learn,52167.00005531311,Mon Dec 08 2025 09:23:47 GMT-0600 (Central Standard Time),531388.7999999821,A,win,I,n,252,3,1067.7999999821186,530321.0,8046,WL,B,4.0
4,8.113999843597412,learn,51886.00015640259,Mon Dec 08 2025 09:23:47 GMT-0600 (Central Standard Time),531670.0,A,wind,I,d,259,3,1349.0,530321.0,8046,WL,B,4.0
4,8.430999994277954,learn,51569.000005722046,Mon Dec 08 2025 09:23:47 GMT-0600 (Central Standard Time),531986.6999999881,A,windo,I,o,306,3,1665.699999988079,530321.0,8046,WL,B,4.0
4,8.63100004196167,learn,51368.99995803833,Mon Dec 08 2025 09:23:47 GMT-0600 (Central Standard Time),532186.599999994,A,window,I,w,186,3,1865.5999999940395,530321.0,8046,WL,B,4.0
4,10.263999938964844,learn,49736.000061035156,Mon Dec 08 2025 09:23:47 GMT-0600 (Central Standard Time),533819.599999994,A,windowenter,I,enter,1614,3,3498.5999999940395,530321.0,8046,WL,B,4.0
4,10.79699993133545,learn,49203.00006866455,Mon Dec 08 2025 09:23:47 GMT-0600 (Central Standard Time),534352.6999999881,A,a,I,a,519,3,532.6999999880791,533820.0,8046,WL,B,5.0
4,11.579999923706055,learn,48420.000076293945,Mon Dec 08 2025 09:23:47 GMT-0600 (Central Standard Time),535135.8999999762,A,,I,backspace,765,3,1315.8999999761581,533820.0,8046,WL,B,5.0
4,11.779000043869019,learn,48220.99995613098,Mon Dec 08 2025 09:23:47 GMT-0600 (Central Standard Time),535335.0,A,s,I,s,184,3,1515.0,533820.0,8046,WL,B,5.0
4,12.145999908447266,learn,47854.000091552734,Mon Dec 08 2025 09:23:47 GMT-0600 (Central Standard Time),535703.5,A,st,I,t,349,3,1883.5,533820.0,8046,WL,B,5.0
4,12.378000020980835,learn,47621.999979019165,Mon Dec 08 2025 09:23:47 GMT-0600 (Central Standard Time),535935.6999999881,A,sta,I,a,215,3,2115.699999988079,533820.0,8046,WL,B,5.0
4,12.52999997138977,learn,47470.00002861023,Mon Dec 08 2025 09:23:47 GMT-0600 (Central Standard Time),536087.2999999821,A,star,I,r,129,3,2267.2999999821186,533820.0,8046,WL,B,5.0
4,13.111999988555908,learn,46888.00001144409,Mon Dec 08 2025 09:23:47 GMT-0600 (Central Standard Time),536669.0,A,starenter,I,enter,563,3,2849.0,533820.0,8046,WL,B,5.0
4,13.510999917984009,learn,46489.00008201599,Mon Dec 08 2025 09:23:47 GMT-0600 (Central Standard Time),537068.5,A,a,I,a,384,3,399.2000000178814,536669.2999999821,8046,WL,B,6.0
4,13.727999925613403,learn,46272.0000743866,Mon Dec 08 2025 09:23:47 GMT-0600 (Central Standard Time),537285.099999994,A,ar,I,r,193,3,615.8000000119209,536669.2999999821,8046,WL,B,6.0
4,14.111999988555908,learn,45888.00001144409,Mon Dec 08 2025 09:23:47 GMT-0600 (Central Standard Time),537669.3999999762,A,arm,I,m,363,3,1000.0999999940395,536669.2999999821,8046,WL,B,6.0
4,14.944999933242798,learn,45055.0000667572,Mon Dec 08 2025 09:23:47 GMT-0600 (Central Standard Time),538502.0,A,armenter,I,enter,820,3,1832.7000000178814,536669.2999999821,8046,WL,B,6.0
4,15.65999984741211,learn,44340.00015258789,Mon Dec 08 2025 09:23:47 GMT-0600 (Central Standard Time),539217.599999994,A,w,I,w,701,3,715.3000000119209,538502.2999999821,8046,WL,B,7.0
4,15.963000059127808,learn,44036.99994087219,Mon Dec 08 2025 09:23:47 GMT-0600 (Central Standard Time),539519.8999999762,A,wi,I,i,288,3,1017.5999999940395,538502.2999999821,8046,WL,B,7.0
4,16.194000005722046,learn,43805.999994277954,Mon Dec 08 2025 09:23:47 GMT-0600 (Central Standard Time),539751.099999994,A,wif,I,f,206,3,1248.800000011921,538502.2999999821,8046,WL,B,7.0
4,16.57699990272522,learn,43423.00009727478,Mon Dec 08 2025 09:23:47 GMT-0600 (Central Standard Time),540134.6999999881,A,wife,I,e,372,3,1632.4000000059605,538502.2999999821,8046,WL,B,7.0
4,18.177000045776367,learn,41822.99995422363,Mon Dec 08 2025 09:23:47 GMT-0600 (Central Standard Time),541734.2999999821,A,wifeenter,I,enter,1579,3,3232.0,538502.2999999821,8046,WL,B,7.0
4,18.55999994277954,learn,41440.00005722046,Mon Dec 08 2025 09:23:47 GMT-0600 (Central Standard Time),542117.0,A,d,I,d,374,3,382.5,541734.5,8046,WL,B,8.0
4,18.74399995803833,learn,41256.00004196167,Mon Dec 08 2025 09:23:47 GMT-0600 (Central Standard Time),542300.7999999821,A,do,I,o,171,3,566.2999999821186,541734.5,8046,WL,B,8.0
4,18.97599983215332,learn,41024.00016784668,Mon Dec 08 2025 09:23:47 GMT-0600 (Central Standard Time),542533.599999994,A,doo,I,o,215,3,799.0999999940395,541734.5,8046,WL,B,8.0
4,19.276000022888184,learn,40723.99997711182,Mon Dec 08 2025 09:23:47 GMT-0600 (Central Standard Time),542833.2999999821,A,door,I,r,274,3,1098.7999999821186,541734.5,8046,WL,B,8.0
4,20.39299988746643,learn,39607.00011253357,Mon Dec 08 2025 09:23:47 GMT-0600 (Central Standard Time),543949.6999999881,A,doorenter,I,enter,1094,3,2215.199999988079,541734.5,8046,WL,B,8.0
4,20.95899987220764,learn,39041.00012779236,Mon Dec 08 2025 09:23:47 GMT-0600 (Central Standard Time),544516.7999999821,A,c,I,c,550,3,566.6999999880791,543950.099999994,8046,WL,B,9.0
4,21.29200005531311,learn,38707.99994468689,Mon Dec 08 2025 09:23:47 GMT-0600 (Central Standard Time),544849.6999999881,A,ca,I,a,323,3,899.5999999940395,543950.099999994,8046,WL,B,9.0
4,21.575999975204468,learn,38424.00002479553,Mon Dec 08 2025 09:23:47 GMT-0600 (Central Standard Time),545133.2999999821,A,cab,I,b,270,3,1183.199999988079,543950.099999994,8046,WL,B,9.0
4,21.924999952316284,learn,38075.000047683716,Mon Dec 08 2025 09:23:47 GMT-0600 (Central Standard Time),545482.2999999821,A,cabi,I,i,332,3,1532.199999988079,543950.099999994,8046,WL,B,9.0
4,22.24399995803833,learn,37756.00004196167,Mon Dec 08 2025 09:23:47 GMT-0600 (Central Standard Time),545801.599999994,A,cabin,I,n,296,3,1851.5,543950.099999994,8046,WL,B,9.0
4,25.007999897003174,learn,34992.000102996826,Mon Dec 08 2025 09:23:47 GMT-0600 (Central Standard Time),548565.1999999881,A,cabinenter,I,enter,2745,3,4615.0999999940395,543950.099999994,8046,WL,B,9.0
4,26.223999977111816,learn,33776.00002288818,Mon Dec 08 2025 09:23:47 GMT-0600 (Central Standard Time),549781.599999994,A,w,I,w,1206,3,1216.2000000178814,548565.3999999762,8046,WL,B,10.0
4,26.557999849319458,learn,33442.00015068054,Mon Dec 08 2025 09:23:47 GMT-0600 (Central Standard Time),550114.7999999821,A,wi,I,i,316,3,1549.4000000059605,548565.3999999762,8046,WL,B,10.0
4,26.75600004196167,learn,33243.99995803833,Mon Dec 08 2025 09:23:47 GMT-0600 (Central Standard Time),550313.099999994,A,win,I,n,184,3,1747.7000000178814,548565.3999999762,8046,WL,B,10.0
4,26.840999841690063,learn,33159.00015830994,Mon Dec 08 2025 09:23:47 GMT-0600 (Central Standard Time),550397.6999999881,A,wind,I,d,77,3,1832.300000011921,548565.3999999762,8046,WL,B,10.0
4,27.073999881744385,learn,32926.000118255615,Mon Dec 08 2025 09:23:47 GMT-0600 (Central Standard Time),550631.0,A,windo,I,o,213,3,2065.600000023842,548565.3999999762,8046,WL,B,10.0
4,27.139999866485596,learn,32860.000133514404,Mon Dec 08 2025 09:23:47 GMT-0600 (Central Standard Time),550697.2999999821,A,window,I,w,59,3,2131.9000000059605,548565.3999999762,8046,WL,B,10.0
4,28.889999866485596,learn,31110.000133514404,Mon Dec 08 2025 09:23:47 GMT-0600 (Central Standard Time),552447.099999994,A,windowenter,I,enter,1738,3,3881.7000000178814,548565.3999999762,8046,WL,B,10.0
4,30.305999994277954,learn,29694.000005722046,Mon Dec 08 2025 09:23:47 GMT-0600 (Central Standard Time),553863.2999999821,A,s,I,s,1396,3,1416.0,552447.2999999821,8046,WL,B,11.0
4,31.155999898910522,learn,28844.000101089478,Mon Dec 08 2025 09:23:47 GMT-0600 (Central Standard Time),554713.099999994,A,,I,backspace,825,3,2265.800000011921,552447.2999999821,8046,WL,B,11.0
4,32.48799991607666,learn,27512.00008392334,Mon Dec 08 2025 09:23:47 GMT-0600 (Central Standard Time),556045.2999999821,A,p,I,p,1314,3,3598.0,552447.2999999821,8046,WL,B,11.0
4,32.757999897003174,learn,27242.000102996826,Mon Dec 08 2025 09:23:47 GMT-0600 (Central Standard Time),556315.1999999881,A,pi,I,i,265,3,3867.9000000059605,552447.2999999821,8046,WL,B,11.0
4,32.98799991607666,learn,27012.00008392334,Mon Dec 08 2025 09:23:47 GMT-0600 (Central Standard Time),556545.6999999881,A,pip,I,p,215,3,4098.4000000059605,552447.2999999821,8046,WL,B,11.0
4,33.28699994087219,learn,26713.000059127808,Mon Dec 08 2025 09:23:47 GMT-0600 (Central Standard Time),556844.6999999881,A,pipe,I,e,288,3,4397.4000000059605,552447.2999999821,8046,WL,B,11.0
4,34.00499987602234,learn,25995.00012397766,Mon Dec 08 2025 09:23:47 GMT-0600 (Central Standard Time),557562.099999994,A,pipeenter,I,enter,704,3,5114.800000011921,552447.2999999821,8046,WL,B,11.0
4,34.625,learn,25375.0,Mon Dec 08 2025 09:23:47 GMT-0600 (Central Standard Time),558182.3999999762,A,s,I,s,616,3,620.0,557562.3999999762,8046,WL,B,12.0
4,35.40400004386902,learn,24595.99995613098,Mon Dec 08 2025 09:23:47 GMT-0600 (Central Standard Time),558961.3999999762,A,sk,I,k,768,3,1399.0,557562.3999999762,8046,WL,B,12.0
4,35.77199983596802,learn,24228.000164031982,Mon Dec 08 2025 09:23:47 GMT-0600 (Central Standard Time),559329.1999999881,A,ski,I,i,363,3,1766.800000011921,557562.3999999762,8046,WL,B,12.0
4,36.103999853134155,learn,23896.000146865845,Mon Dec 08 2025 09:23:47 GMT-0600 (Central Standard Time),559661.6999999881,A,skin,I,n,323,3,2099.300000011921,557562.3999999762,8046,WL,B,12.0
4,38.687000036239624,learn,21312.999963760376,Mon Dec 08 2025 09:23:47 GMT-0600 (Central Standard Time),562243.7999999821,A,skinenter,I,enter,2576,3,4681.4000000059605,557562.3999999762,8046,WL,B,12.0
4,39.2039999961853,learn,20796.000003814697,Mon Dec 08 2025 09:23:47 GMT-0600 (Central Standard Time),562760.8999999762,A,c,I,c,497,3,516.7999999821186,562244.099999994,8046,WL,B,13.0
4,39.539000034332275,learn,20460.999965667725,Mon Dec 08 2025 09:23:47 GMT-0600 (Central Standard Time),563095.7999999821,A,cl,I,l,320,3,851.6999999880791,562244.099999994,8046,WL,B,13.0
4,39.86999988555908,learn,20130.000114440918,Mon Dec 08 2025 09:23:47 GMT-0600 (Central Standard Time),563427.2999999821,A,clo,I,o,311,3,1183.199999988079,562244.099999994,8046,WL,B,13.0
4,40.13599991798401,learn,19864.00008201599,Mon Dec 08 2025 09:23:47 GMT-0600 (Central Standard Time),563693.7999999821,A,cloc,I,c,256,3,1449.699999988079,562244.099999994,8046,WL,B,13.0
4,41.00399994850159,learn,18996.000051498413,Mon Dec 08 2025 09:23:47 GMT-0600 (Central Standard Time),564561.0,A,clock,I,k,862,3,2316.9000000059605,562244.099999994,8046,WL,B,13.0
4,41.8199999332428,learn,18180.000066757202,Mon Dec 08 2025 09:23:47 GMT-0600 (Central Standard Time),565376.7999999821,A,clockenter,I,enter,802,3,3132.699999988079,562244.099999994,8046,WL,B,13.0
4,42.33500003814697,learn,17664.999961853027,Mon Dec 08 2025 09:23:47 GMT-0600 (Central Standard Time),565892.2999999821,A,l,I,l,506,3,515.2999999821186,565377.0,8046,WL,B,14.0
4,42.63499999046326,learn,17365.000009536743,Mon Dec 08 2025 09:23:47 GMT-0600 (Central Standard Time),566192.599999994,A,la,I,a,278,3,815.5999999940395,565377.0,8046,WL,B,14.0
4,42.901999950408936,learn,17098.000049591064,Mon Dec 08 2025 09:23:47 GMT-0600 (Central Standard Time),566458.8999999762,A,lak,I,k,250,3,1081.8999999761581,565377.0,8046,WL,B,14.0
4,43.134000062942505,learn,16865.999937057495,Mon Dec 08 2025 09:23:47 GMT-0600 (Central Standard Time),566691.6999999881,A,lake,I,e,216,3,1314.699999988079,565377.0,8046,WL,B,14.0
4,43.501999855041504,learn,16498.000144958496,Mon Dec 08 2025 09:23:47 GMT-0600 (Central Standard Time),567058.6999999881,A,lakeenter,I,enter,361,3,1681.699999988079,565377.0,8046,WL,B,14.0
4,47.60099983215332,learn,12399.00016784668,Mon Dec 08 2025 09:23:47 GMT-0600 (Central Standard Time),571158.099999994,A,s,I,s,4080,3,4099.200000017881,567058.8999999762,8046,WL,B,15.0
4,47.89999985694885,learn,12100.000143051147,Mon Dec 08 2025 09:23:47 GMT-0600 (Central Standard Time),571457.5,A,st,I,t,285,3,4398.600000023842,567058.8999999762,8046,WL,B,15.0
4,48.08399987220764,learn,11916.000127792358,Mon Dec 08 2025 09:23:47 GMT-0600 (Central Standard Time),571641.599999994,A,sta,I,a,161,3,4582.700000017881,567058.8999999762,8046,WL,B,15.0
4,48.200000047683716,learn,11799.999952316284,Mon Dec 08 2025 09:23:47 GMT-0600 (Central Standard Time),571757.2999999821,A,star,I,r,98,3,4698.4000000059605,567058.8999999762,8046,WL,B,15.0
4,48.53399991989136,learn,11466.000080108643,Mon Dec 08 2025 09:23:47 GMT-0600 (Central Standard Time),572090.8999999762,A,starenter,I,enter,329,3,5032.0,567058.8999999762,8046,WL,B,15.0
5,0.44700002670288086,learn,60000.0,Mon Dec 08 2025 09:23:47 GMT-0600 (Central Standard Time),644217.6999999881,A,s,I,s,440,3,446.90000000596046,643770.7999999821,8046,WL,B,1.0
5,0.8310000896453857,learn,60000.0,Mon Dec 08 2025 09:23:47 GMT-0600 (Central Standard Time),644601.0,A,st,I,t,371,3,830.2000000178814,643770.7999999821,8046,WL,B,1.0
5,1.2970001697540283,learn,60000.0,Mon Dec 08 2025 09:23:47 GMT-0600 (Central Standard Time),645067.8999999762,A,ste,I,e,445,3,1297.0999999940395,643770.7999999821,8046,WL,B,1.0
5,1.5139999389648438,learn,60000.0,Mon Dec 08 2025 09:23:47 GMT-0600 (Central Standard Time),645284.5,A,stee,I,e,200,3,1513.7000000178814,643770.7999999821,8046,WL,B,1.0
5,2.4140000343322754,learn,60000.0,Mon Dec 08 2025 09:23:47 GMT-0600 (Central Standard Time),646184.8999999762,A,ste,I,backspace,895,3,2414.0999999940395,643770.7999999821,8046,WL,B,1.0
5,2.630000114440918,learn,60000.0,Mon Dec 08 2025 09:23:47 GMT-0600 (Central Standard Time),646400.6999999881,A,st,I,backspace,209,3,2629.9000000059605,643770.7999999821,8046,WL,B,1.0
5,2.830000162124634,learn,60000.0,Mon Dec 08 2025 09:23:47 GMT-0600 (Central Standard Time),646600.2999999821,A,s,I,backspace,185,3,2829.5,643770.7999999821,8046,WL,B,1.0
5,3.7290000915527344,learn,60000.0,Mon Dec 08 2025 09:23:47 GMT-0600 (Central Standard Time),647499.3999999762,A,st,I,t,881,3,3728.5999999940395,643770.7999999821,8046,WL,B,1.0
5,3.9630000591278076,learn,60000.0,Mon Dec 08 2025 09:23:47 GMT-0600 (Central Standard Time),647733.3999999762,A,str,I,r,224,3,3962.5999999940395,643770.7999999821,8046,WL,B,1.0
5,4.078999996185303,learn,60000.0,Mon Dec 08 2025 09:23:47 GMT-0600 (Central Standard Time),647849.8999999762,A,stre,I,e,103,3,4079.0999999940395,643770.7999999821,8046,WL,B,1.0
5,4.2790000438690186,learn,60000.0,Mon Dec 08 2025 09:23:47 GMT-0600 (Central Standard Time),648049.6999999881,A,stree,I,e,193,3,4278.9000000059605,643770.7999999821,8046,WL,B,1.0
5,4.496000051498413,learn,60000.0,Mon Dec 08 2025 09:23:47 GMT-0600 (Central Standard Time),648266.8999999762,A,street,I,t,192,3,4496.0999999940395,643770.7999999821,8046,WL,B,1.0
5,4.944999933242798,learn,60000.0,Mon Dec 08 2025 09:23:47 GMT-0600 (Central Standard Time),648715.6999999881,A,streetenter,I,enter,440,3,4944.9000000059605,643770.7999999821,8046,WL,B,1.0
5,5.38100004196167,learn,60000.0,Mon Dec 08 2025 09:23:47 GMT-0600 (Central Standard Time),649151.3999999762,A,g,I,g,426,3,435.5,648715.8999999762,8046,WL,B,2.0
5,5.712000131607056,learn,60000.0,Mon Dec 08 2025 09:23:47 GMT-0600 (Central Standard Time),649482.6999999881,A,gr,I,r,315,3,766.8000000119209,648715.8999999762,8046,WL,B,2.0
5,5.963000059127808,learn,60000.0,Mon Dec 08 2025 09:23:47 GMT-0600 (Central Standard Time),649733.599999994,A,gra,I,a,230,3,1017.7000000178814,648715.8999999762,8046,WL,B,2.0
5,6.177999973297119,learn,60000.0,Mon Dec 08 2025 09:23:47 GMT-0600 (Central Standard Time),649948.7999999821,A,gras,I,s,203,3,1232.9000000059605,648715.8999999762,8046,WL,B,2.0
5,6.42900013923645,learn,60000.0,Mon Dec 08 2025 09:23:47 GMT-0600 (Central Standard Time),650199.5,A,grass,I,s,229,3,1483.6000000238419,648715.8999999762,8046,WL,B,2.0
5,8.900000095367432,learn,60000.0,Mon Dec 08 2025 09:23:47 GMT-0600 (Central Standard Time),652669.8999999762,A,grassenter,I,enter,2460,3,3954.0,648715.8999999762,8046,WL,B,2.0
5,9.345999956130981,learn,60000.0,Mon Dec 08 2025 09:23:47 GMT-0600 (Central Standard Time),653116.099999994,A,d,I,d,439,3,446.0,652670.099999994,8046,WL,B,3.0
5,9.594000101089478,learn,60000.0,Mon Dec 08 2025 09:23:47 GMT-0600 (Central Standard Time),653364.3999999762,A,do,I,o,238,3,694.2999999821186,652670.099999994,8046,WL,B,3.0
5,9.927000045776367,learn,60000.0,Mon Dec 08 2025 09:23:47 GMT-0600 (Central Standard Time),653697.7999999821,A,doo,I,o,319,3,1027.699999988079,652670.099999994,8046,WL,B,3.0
5,10.478000164031982,learn,60000.0,Mon Dec 08 2025 09:23:47 GMT-0600 (Central Standard Time),654248.099999994,A,door,I,r,527,3,1578.0,652670.099999994,8046,WL,B,3.0
5,11.561000108718872,learn,60000.0,Mon Dec 08 2025 09:23:47 GMT-0600 (Central Standard Time),655331.3999999762,A,doorenter,I,enter,1075,3,2661.2999999821186,652670.099999994,8046,WL,B,3.0
5,12.026000022888184,learn,60000.0,Mon Dec 08 2025 09:23:47 GMT-0600 (Central Standard Time),655797.599999994,A,s,I,s,456,3,466.0,655331.599999994,8046,WL,B,4.0
5,12.426000118255615,learn,60000.0,Mon Dec 08 2025 09:23:47 GMT-0600 (Central Standard Time),656197.2999999821,A,st,I,t,389,3,865.6999999880791,655331.599999994,8046,WL,B,4.0
5,13.025000095367432,learn,60000.0,Mon Dec 08 2025 09:23:47 GMT-0600 (Central Standard Time),656797.0,A,sta,I,a,587,3,1465.4000000059605,655331.599999994,8046,WL,B,4.0
5,13.225000143051147,learn,60000.0,Mon Dec 08 2025 09:23:47 GMT-0600 (Central Standard Time),656997.1999999881,A,star,I,r,192,3,1665.5999999940395,655331.599999994,8046,WL,B,4.0
5,13.975000143051147,learn,60000.0,Mon Dec 08 2025 09:23:47 GMT-0600 (Central Standard Time),657747.099999994,A,starenter,I,enter,734,3,2415.5,655331.599999994,8046,WL,B,4.0
5,14.192000150680542,learn,60000.0,Mon Dec 08 2025 09:23:47 GMT-0600 (Central Standard Time),657964.099999994,A,a,I,a,201,3,216.7000000178814,657747.3999999762,8046,WL,B,5.0
5,14.525000095367432,learn,60000.0,Mon Dec 08 2025 09:23:47 GMT-0600 (Central Standard Time),658296.5,A,ar,I,r,317,3,549.1000000238419,657747.3999999762,8046,WL,B,5.0
5,14.791000127792358,learn,60000.0,Mon Dec 08 2025 09:23:47 GMT-0600 (Central Standard Time),658563.099999994,A,arm,I,m,259,3,815.7000000178814,657747.3999999762,8046,WL,B,5.0
5,16.341000080108643,learn,60000.0,Mon Dec 08 2025 09:23:47 GMT-0600 (Central Standard Time),660113.099999994,A,armenter,I,enter,1531,3,2365.7000000178814,657747.3999999762,8046,WL,B,5.0
5,17.907000064849854,learn,60000.0,Mon Dec 08 2025 09:23:47 GMT-0600 (Central Standard Time),661678.8999999762,A,w,I,w,1547,3,1565.5,660113.3999999762,8046,WL,B,6.0
5,18.028000116348267,learn,60000.0,Mon Dec 08 2025 09:23:47 GMT-0600 (Central Standard Time),661799.3999999762,A,wi,I,i,113,3,1686.0,660113.3999999762,8046,WL,B,6.0
5,18.223000049591064,learn,60000.0,Mon Dec 08 2025 09:23:47 GMT-0600 (Central Standard Time),661995.099999994,A,wif,I,f,179,3,1881.7000000178814,660113.3999999762,8046,WL,B,6.0
5,18.457000017166138,learn,60000.0,Mon Dec 08 2025 09:23:47 GMT-0600 (Central Standard Time),662229.099999994,A,wife,I,e,215,3,2115.7000000178814,660113.3999999762,8046,WL,B,6.0
5,19.60700011253357,learn,60000.0,Mon Dec 08 2025 09:23:47 GMT-0600 (Central Standard Time),663378.7999999821,A,wifeenter,I,enter,1134,3,3265.4000000059605,660113.3999999762,8046,WL,B,6.0
5,19.98900008201599,learn,60000.0,Mon Dec 08 2025 09:23:47 GMT-0600 (Central Standard Time),663760.6999999881,A,c,I,c,369,3,381.59999999403954,663379.099999994,8046,WL,B,7.0
5,20.141000032424927,learn,60000.0,Mon Dec 08 2025 09:23:47 GMT-0600 (Central Standard Time),663912.5,A,ci,I,i,147,3,533.4000000059605,663379.099999994,8046,WL,B,7.0
5,20.34000015258789,learn,60000.0,Mon Dec 08 2025 09:23:47 GMT-0600 (Central Standard Time),664111.7999999821,A,cit,I,t,186,3,732.6999999880791,663379.099999994,8046,WL,B,7.0
5,20.506999969482422,learn,60000.0,Mon Dec 08 2025 09:23:47 GMT-0600 (Central Standard Time),664279.2999999821,A,city,I,y,153,3,900.1999999880791,663379.099999994,8046,WL,B,7.0
5,20.990000009536743,learn,60000.0,Mon Dec 08 2025 09:23:47 GMT-0600 (Central Standard Time),664761.5,A,cityenter,I,enter,474,3,1382.4000000059605,663379.099999994,8046,WL,B,7.0
5,21.52400016784668,learn,60000.0,Mon Dec 08 2025 09:23:47 GMT-0600 (Central Standard Time),665295.2999999821,A,w,I,w,514,3,533.5,664761.7999999821,8046,WL,B,8.0
5,21.723999977111816,learn,60000.0,Mon Dec 08 2025 09:23:47 GMT-0600 (Central Standard Time),665495.2999999821,A,wi,I,i,178,3,733.5,664761.7999999821,8046,WL,B,8.0
5,21.94099998474121,learn,60000.0,Mon Dec 08 2025 09:23:47 GMT-0600 (Central Standard Time),665712.3999999762,A,win,I,n,193,3,950.5999999940395,664761.7999999821,8046,WL,B,8.0
5,22.123000144958496,learn,60000.0,Mon Dec 08 2025 09:23:47 GMT-0600 (Central Standard Time),665895.099999994,A,wind,I,d,165,3,1133.300000011921,664761.7999999821,8046,WL,B,8.0
5,22.341000080108643,learn,60000.0,Mon Dec 08 2025 09:23:47 GMT-0600 (Central Standard Time),666112.599999994,A,windo,I,o,204,3,1350.800000011921,664761.7999999821,8046,WL,B,8.0
5,22.47099995613098,learn,60000.0,Mon Dec 08 2025 09:23:47 GMT-0600 (Central Standard Time),666242.6999999881,A,window,I,w,120,3,1480.9000000059605,664761.7999999821,8046,WL,B,8.0
5,24.786999940872192,learn,60000.0,Mon Dec 08 2025 09:23:47 GMT-0600 (Central Standard Time),668559.0,A,windowenter,I,enter,2306,3,3797.2000000178814,664761.7999999821,8046,WL,B,8.0
5,25.505000114440918,learn,60000.0,Mon Dec 08 2025 09:23:47 GMT-0600 (Central Standard Time),669276.2999999821,A,c,I,c,709,3,717.0999999940395,668559.1999999881,8046,WL,B,9.0
5,25.9060001373291,learn,60000.0,Mon Dec 08 2025 09:23:47 GMT-0600 (Central Standard Time),669677.8999999762,A,ca,I,a,381,3,1118.699999988079,668559.1999999881,8046,WL,B,9.0
5,26.189000129699707,learn,60000.0,Mon Dec 08 2025 09:23:47 GMT-0600 (Central Standard Time),669960.1999999881,A,cab,I,b,274,3,1401.0,668559.1999999881,8046,WL,B,9.0
5,26.47099995613098,learn,60000.0,Mon Dec 08 2025 09:23:47 GMT-0600 (Central Standard Time),670242.2999999821,A,cabi,I,i,265,3,1683.0999999940395,668559.1999999881,8046,WL,B,9.0
5,27.205000162124634,learn,60000.0,Mon Dec 08 2025 09:23:47 GMT-0600 (Central Standard Time),670976.1999999881,A,cabin,I,n,719,3,2417.0,668559.1999999881,8046,WL,B,9.0
5,28.286999940872192,learn,60000.0,Mon Dec 08 2025 09:23:47 GMT-0600 (Central Standard Time),672059.1999999881,A,cabinenter,I,enter,1065,3,3500.0,668559.1999999881,8046,WL,B,9.0
5,29.337000131607056,learn,60000.0,Mon Dec 08 2025 09:23:47 GMT-0600 (Central Standard Time),673108.3999999762,A,l,I,l,1033,3,1049.0,672059.3999999762,8046,WL,B,10.0
5,29.536999940872192,learn,60000.0,Mon Dec 08 2025 09:23:47 GMT-0600 (Central Standard Time),673308.5,A,la,I,a,189,3,1249.1000000238419,672059.3999999762,8046,WL,B,10.0
5,29.786999940872192,learn,60000.0,Mon Dec 08 2025 09:23:47 GMT-0600 (Central Standard Time),673558.3999999762,A,lak,I,k,239,3,1499.0,672059.3999999762,8046,WL,B,10.0
5,29.921000003814697,learn,60000.0,Mon Dec 08 2025 09:23:47 GMT-0600 (Central Standard Time),673692.2999999821,A,lake,I,e,124,3,1632.9000000059605,672059.3999999762,8046,WL,B,10.0
5,30.20300006866455,learn,60000.0,Mon Dec 08 2025 09:23:47 GMT-0600 (Central Standard Time),673974.3999999762,A,lakeenter,I,enter,270,3,1915.0,672059.3999999762,8046,WL,B,10.0
5,30.95300006866455,learn,60000.0,Mon Dec 08 2025 09:23:47 GMT-0600 (Central Standard Time),674724.7999999821,A,p,I,p,742,3,750.0999999940395,673974.6999999881,8046,WL,B,11.0
5,31.335999965667725,learn,60000.0,Mon Dec 08 2025 09:23:47 GMT-0600 (Central Standard Time),675107.8999999762,A,pi,I,i,368,3,1133.199999988079,673974.6999999881,8046,WL,B,11.0
5,31.60199999809265,learn,60000.0,Mon Dec 08 2025 09:23:47 GMT-0600 (Central Standard Time),675374.1999999881,A,pip,I,p,253,3,1399.5,673974.6999999881,8046,WL,B,11.0
5,32.03600001335144,learn,60000.0,Mon Dec 08 2025 09:23:47 GMT-0600 (Central Standard Time),675808.2999999821,A,pipe,I,e,414,3,1833.5999999940395,673974.6999999881,8046,WL,B,11.0
5,33.11800003051758,learn,60000.0,Mon Dec 08 2025 09:23:47 GMT-0600 (Central Standard Time),676889.5,A,pipeenter,I,enter,1074,3,2914.800000011921,673974.6999999881,8046,WL,B,11.0
5,33.66900014877319,learn,60000.0,Mon Dec 08 2025 09:23:47 GMT-0600 (Central Standard Time),677441.099999994,A,s,I,s,538,3,551.4000000059605,676889.6999999881,8046,WL,B,12.0
5,33.986000061035156,learn,60000.0,Mon Dec 08 2025 09:23:47 GMT-0600 (Central Standard Time),677757.7999999821,A,sk,I,k,305,3,868.0999999940395,676889.6999999881,8046,WL,B,12.0
5,34.26900005340576,learn,60000.0,Mon Dec 08 2025 09:23:47 GMT-0600 (Central Standard Time),678040.7999999821,A,ski,I,i,278,3,1151.0999999940395,676889.6999999881,8046,WL,B,12.0
5,34.98699998855591,learn,60000.0,Mon Dec 08 2025 09:23:47 GMT-0600 (Central Standard Time),678758.1999999881,A,skin,I,n,707,3,1868.5,676889.6999999881,8046,WL,B,12.0
5,36.28600001335144,learn,60000.0,Mon Dec 08 2025 09:23:47 GMT-0600 (Central Standard Time),680057.099999994,A,skinenter,I,enter,1291,3,3167.4000000059605,676889.6999999881,8046,WL,B,12.0
5,37.20099997520447,learn,60000.0,Mon Dec 08 2025 09:23:47 GMT-0600 (Central Standard Time),680972.6999999881,A,c,I,c,899,3,915.1999999880791,680057.5,8046,WL,B,13.0
5,38.151999950408936,learn,60000.0,Mon Dec 08 2025 09:23:47 GMT-0600 (Central Standard Time),681923.7999999821,A,cl,I,l,936,3,1866.2999999821186,680057.5,8046,WL,B,13.0
5,38.46799993515015,learn,60000.0,Mon Dec 08 2025 09:23:47 GMT-0600 (Central Standard Time),682240.1999999881,A,clo,I,o,297,3,2182.699999988079,680057.5,8046,WL,B,13.0
5,38.735000133514404,learn,60000.0,Mon Dec 08 2025 09:23:47 GMT-0600 (Central Standard Time),682506.7999999821,A,cloc,I,c,252,3,2449.2999999821186,680057.5,8046,WL,B,13.0
5,38.91799998283386,learn,60000.0,Mon Dec 08 2025 09:23:47 GMT-0600 (Central Standard Time),682689.599999994,A,clock,I,k,161,3,2632.0999999940395,680057.5,8046,WL,B,13.0
5,39.66600012779236,learn,60000.0,Mon Dec 08 2025 09:23:47 GMT-0600 (Central Standard Time),683437.6999999881,A,clockenter,I,enter,728,3,3380.199999988079,680057.5,8046,WL,B,13.0
5,43.33299994468689,learn,60000.0,Mon Dec 08 2025 09:23:47 GMT-0600 (Central Standard Time),687104.3999999762,A,p,I,p,3654,3,3666.399999976158,683438.0,8046,WL,B,14.0
5,43.64900016784668,learn,60000.0,Mon Dec 08 2025 09:23:47 GMT-0600 (Central Standard Time),687420.7999999821,A,pu,I,u,296,3,3982.7999999821186,683438.0,8046,WL,B,14.0
5,43.91700005531311,learn,60000.0,Mon Dec 08 2025 09:23:47 GMT-0600 (Central Standard Time),687688.1999999881,A,pup,I,p,248,3,4250.199999988079,683438.0,8046,WL,B,14.0
5,44.199000120162964,learn,60000.0,Mon Dec 08 2025 09:23:47 GMT-0600 (Central Standard Time),687970.7999999821,A,pupi,I,i,276,3,4532.799999982119,683438.0,8046,WL,B,14.0
5,44.49900007247925,learn,60000.0,Mon Dec 08 2025 09:23:47 GMT-0600 (Central Standard Time),688270.6999999881,A,pupil,I,l,288,3,4832.699999988079,683438.0,8046,WL,B,14.0
5,48.23099994659424,learn,60000.0,Mon Dec 08 2025 09:23:47 GMT-0600 (Central Standard Time),692002.5,A,pupilenter,I,enter,3725,3,8564.5,683438.0,8046,WL,B,14.0
5,51.61400008201599,learn,60000.0,Mon Dec 08 2025 09:23:47 GMT-0600 (Central Standard Time),695386.0,A,enter,I,enter,3362,3,3383.300000011921,692002.6999999881,8046,WL,B,15.0
6,0.7190001010894775,distr,59280.99989891052,Mon Dec 08 2025 09:23:47 GMT-0600 (Central Standard Time),764915.599999994,B,b,I,b,694,3,718.8000000119209,764196.7999999821,8046,WL,B,1.0
6,1.1159999370574951,distr,58884.000062942505,Mon Dec 08 2025 09:23:47 GMT-0600 (Central Standard Time),765312.599999994,B,ba,I,a,390,3,1115.800000011921,764196.7999999821,8046,WL,B,1.0
6,1.3680000305175781,distr,58631.99996948242,Mon Dec 08 2025 09:23:47 GMT-0600 (Central Standard Time),765563.7999999821,B,bab,I,b,235,3,1367.0,764196.7999999821,8046,WL,B,1.0
6,1.6660001277923584,distr,58333.99987220764,Mon Dec 08 2025 09:23:47 GMT-0600 (Central Standard Time),765862.3999999762,B,baby,I,y,279,3,1665.5999999940395,764196.7999999821,8046,WL,B,1.0
6,2.7660000324249268,distr,57233.99996757507,Mon Dec 08 2025 09:23:47 GMT-0600 (Central Standard Time),766962.5,B,babyenter,I,enter,1084,3,2765.7000000178814,764196.7999999821,8046,WL,B,1.0
6,3.368000030517578,distr,56631.99996948242,Mon Dec 08 2025 09:23:47 GMT-0600 (Central Standard Time),767564.5,B,p,I,p,597,3,601.8000000119209,766962.6999999881,8046,WL,B,2.0
6,3.749000072479248,distr,56250.99992752075,Mon Dec 08 2025 09:23:47 GMT-0600 (Central Standard Time),767944.8999999762,B,pa,I,a,367,3,982.1999999880791,766962.6999999881,8046,WL,B,2.0
6,3.931999921798706,distr,56068.000078201294,Mon Dec 08 2025 09:23:47 GMT-0600 (Central Standard Time),768127.8999999762,B,pal,I,l,170,3,1165.199999988079,766962.6999999881,8046,WL,B,2.0
6,4.115999937057495,distr,55884.000062942505,Mon Dec 08 2025 09:23:47 GMT-0600 (Central Standard Time),768311.8999999762,B,pala,I,a,162,3,1349.199999988079,766962.6999999881,8046,WL,B,2.0
6,4.335000038146973,distr,55664.99996185303,Mon Dec 08 2025 09:23:47 GMT-0600 (Central Standard Time),768531.5,B,palac,I,c,213,3,1568.800000011921,766962.6999999881,8046,WL,B,2.0
6,4.584000110626221,distr,55415.99988937378,Mon Dec 08 2025 09:23:47 GMT-0600 (Central Standard Time),768779.8999999762,B,palace,I,e,244,3,1817.199999988079,766962.6999999881,8046,WL,B,2.0
6,5.230999946594238,distr,54769.00005340576,Mon Dec 08 2025 09:23:47 GMT-0600 (Central Standard Time),769427.599999994,B,palaceenter,I,enter,632,3,2464.9000000059605,766962.6999999881,8046,WL,B,2.0
6,5.631999969482422,distr,54368.00003051758,Mon Dec 08 2025 09:23:47 GMT-0600 (Central Standard Time),769828.099999994,B,v,I,v,393,3,400.30000001192093,769427.7999999821,8046,WL,B,3.0
6,5.851000070571899,distr,54148.9999294281,Mon Dec 08 2025 09:23:47 GMT-0600 (Central Standard Time),770047.1999999881,B,vi,I,i,209,3,619.4000000059605,769427.7999999821,8046,WL,B,3.0
6,6.0980000495910645,distr,53901.999950408936,Mon Dec 08 2025 09:23:47 GMT-0600 (Central Standard Time),770294.1999999881,B,vil,I,l,234,3,866.4000000059605,769427.7999999821,8046,WL,B,3.0
6,6.269000053405762,distr,53730.99994659424,Mon Dec 08 2025 09:23:47 GMT-0600 (Central Standard Time),770465.3999999762,B,vill,I,l,163,3,1037.5999999940395,769427.7999999821,8046,WL,B,3.0
6,6.4019999504089355,distr,53598.000049591064,Mon Dec 08 2025 09:23:47 GMT-0600 (Central Standard Time),770598.3999999762,B,villa,I,a,126,3,1170.5999999940395,769427.7999999821,8046,WL,B,3.0
6,6.565999984741211,distr,53434.00001525879,Mon Dec 08 2025 09:23:47 GMT-0600 (Central Standard Time),770761.8999999762,B,villag,I,g,150,3,1334.0999999940395,769427.7999999821,8046,WL,B,3.0
6,6.748000144958496,distr,53251.999855041504,Mon Dec 08 2025 09:23:47 GMT-0600 (Central Standard Time),770943.7999999821,B,village,I,e,170,3,1516.0,769427.7999999821,8046,WL,B,3.0
6,7.4649999141693115,distr,52535.00008583069,Mon Dec 08 2025 09:23:47 GMT-0600 (Central Standard Time),771661.1999999881,B,villageenter,I,enter,706,3,2233.4000000059605,769427.7999999821,8046,WL,B,3.0
6,8.04800009727478,distr,51951.99990272522,Mon Dec 08 2025 09:23:47 GMT-0600 (Central Standard Time),772243.8999999762,B,b,I,b,574,3,582.5,771661.3999999762,8046,WL,B,4.0
6,8.299000024795532,distr,51700.99997520447,Mon Dec 08 2025 09:23:47 GMT-0600 (Central Standard Time),772494.8999999762,B,bu,I,u,231,3,833.5,771661.3999999762,8046,WL,B,4.0
6,8.52999997138977,distr,51470.00002861023,Mon Dec 08 2025 09:23:47 GMT-0600 (Central Standard Time),772726.5,B,bui,I,i,211,3,1065.1000000238419,771661.3999999762,8046,WL,B,4.0
6,8.781000137329102,distr,51218.9998626709,Mon Dec 08 2025 09:23:47 GMT-0600 (Central Standard Time),772977.1999999881,B,buil,I,l,236,3,1315.800000011921,771661.3999999762,8046,WL,B,4.0
6,8.980999946594238,distr,51019.00005340576,Mon Dec 08 2025 09:23:47 GMT-0600 (Central Standard Time),773176.8999999762,B,build,I,d,191,3,1515.5,771661.3999999762,8046,WL,B,4.0
6,9.147000074386597,distr,50852.9999256134,Mon Dec 08 2025 09:23:47 GMT-0600 (Central Standard Time),773343.6999999881,B,buildi,I,i,153,3,1682.300000011921,771661.3999999762,8046,WL,B,4.0
6,9.331000089645386,distr,50668.999910354614,Mon Dec 08 2025 09:23:47 GMT-0600 (Central Standard Time),773527.099999994,B,buildin,I,n,173,3,1865.7000000178814,771661.3999999762,8046,WL,B,4.0
6,9.44700002670288,distr,50552.99997329712,Mon Dec 08 2025 09:23:47 GMT-0600 (Central Standard Time),773643.0,B,building,I,g,102,3,1981.6000000238419,771661.3999999762,8046,WL,B,4.0
6,12.460999965667725,distr,47539.000034332275,Mon Dec 08 2025 09:23:47 GMT-0600 (Central Standard Time),776658.099999994,B,buildingenter,I,enter,2999,3,4996.700000017881,771661.3999999762,8046,WL,B,4.0
6,14.861999988555908,distr,45138.00001144409,Mon Dec 08 2025 09:23:47 GMT-0600 (Central Standard Time),779058.599999994,B,o,I,o,2395,3,2400.2000000178814,776658.3999999762,8046,WL,B,5.0
6,15.045000076293945,distr,44954.999923706055,Mon Dec 08 2025 09:23:47 GMT-0600 (Central Standard Time),779241.5,B,oc,I,c,169,3,2583.100000023842,776658.3999999762,8046,WL,B,5.0
6,15.263000011444092,distr,44736.99998855591,Mon Dec 08 2025 09:23:47 GMT-0600 (Central Standard Time),779459.599999994,B,oce,I,e,211,3,2801.2000000178814,776658.3999999762,8046,WL,B,5.0
6,15.477999925613403,distr,44522.0000743866,Mon Dec 08 2025 09:23:47 GMT-0600 (Central Standard Time),779674.8999999762,B,ocea,I,a,200,3,3016.5,776658.3999999762,8046,WL,B,5.0
6,15.694999933242798,distr,44305.0000667572,Mon Dec 08 2025 09:23:47 GMT-0600 (Central Standard Time),779891.7999999821,B,ocean,I,n,198,3,3233.4000000059605,776658.3999999762,8046,WL,B,5.0
6,17.17799997329712,distr,42822.00002670288,Mon Dec 08 2025 09:23:47 GMT-0600 (Central Standard Time),781374.3999999762,B,oceanenter,I,enter,1471,3,4716.0,776658.3999999762,8046,WL,B,5.0
6,30.891000032424927,distr,29108.999967575073,Mon Dec 08 2025 09:23:47 GMT-0600 (Central Standard Time),795087.8999999762,B,b,I,b,13693,3,13713.299999982119,781374.599999994,8046,WL,B,6.0
6,31.174000024795532,distr,28825.999975204468,Mon Dec 08 2025 09:23:47 GMT-0600 (Central Standard Time),795370.599999994,B,bu,I,u,268,3,13996.0,781374.599999994,8046,WL,B,6.0
6,31.42300009727478,distr,28576.99990272522,Mon Dec 08 2025 09:23:47 GMT-0600 (Central Standard Time),795620.0,B,bui,I,i,232,3,14245.40000000596,781374.599999994,8046,WL,B,6.0
6,31.722000122070312,distr,28277.999877929688,Mon Dec 08 2025 09:23:47 GMT-0600 (Central Standard Time),795918.6999999881,B,buil,I,l,287,3,14544.09999999404,781374.599999994,8046,WL,B,6.0
6,31.873000144958496,distr,28126.999855041504,Mon Dec 08 2025 09:23:47 GMT-0600 (Central Standard Time),796070.099999994,B,build,I,d,133,3,14695.5,781374.599999994,8046,WL,B,6.0
6,32.02300000190735,distr,27976.99999809265,Mon Dec 08 2025 09:23:47 GMT-0600 (Central Standard Time),796220.099999994,B,buildi,I,i,140,3,14845.5,781374.599999994,8046,WL,B,6.0
6,32.24000000953674,distr,27759.999990463257,Mon Dec 08 2025 09:23:47 GMT-0600 (Central Standard Time),796436.2999999821,B,buildin,I,n,205,3,15061.699999988079,781374.599999994,8046,WL,B,6.0
6,32.32299995422363,distr,27677.000045776367,Mon Dec 08 2025 09:23:47 GMT-0600 (Central Standard Time),796519.2999999821,B,building,I,g,71,3,15144.699999988079,781374.599999994,8046,WL,B,6.0
6,33.0220000743866,distr,26977.999925613403,Mon Dec 08 2025 09:23:47 GMT-0600 (Central Standard Time),797218.2999999821,B,buildingenter,I,enter,692,3,15843.699999988079,781374.599999994,8046,WL,B,6.0
6,38.07200002670288,distr,21927.99997329712,Mon Dec 08 2025 09:23:47 GMT-0600 (Central Standard Time),802268.1999999881,B,enter,I,enter,5035,3,5049.699999988079,797218.5,8046,WL,B,7.0
6,38.87100005149841,distr,21128.999948501587,Mon Dec 08 2025 09:23:47 GMT-0600 (Central Standard Time),803067.599999994,B,enter,I,enter,791,3,799.0999999940395,802268.5,8046,WL,B,8.0
6,39.80299997329712,distr,20197.00002670288,Mon Dec 08 2025 09:23:47 GMT-0600 (Central Standard Time),803999.8999999762,B,enter,I,enter,920,3,932.0999999940395,803067.7999999821,8046,WL,B,9.0
6,40.0699999332428,distr,19930.000066757202,Mon Dec 08 2025 09:23:47 GMT-0600 (Central Standard Time),804266.5,B,enter,I,enter,254,3,266.40000000596046,804000.099999994,8046,WL,B,10.0
6,40.28699994087219,distr,19713.000059127808,Mon Dec 08 2025 09:23:47 GMT-0600 (Central Standard Time),804484.1999999881,B,enter,I,enter,212,3,217.5,804266.6999999881,8046,WL,B,11.0
6,40.604000091552734,distr,19395.999908447266,Mon Dec 08 2025 09:23:47 GMT-0600 (Central Standard Time),804800.7999999821,B,enter,I,enter,296,3,316.40000000596046,804484.3999999762,8046,WL,B,12.0
6,40.98699998855591,distr,19013.00001144409,Mon Dec 08 2025 09:23:47 GMT-0600 (Central Standard Time),805183.5,B,enter,I,enter,363,3,382.5,804801.0,8046,WL,B,13.0
6,41.28699994087219,distr,18713.000059127808,Mon Dec 08 2025 09:23:47 GMT-0600 (Central Standard Time),805483.599999994,B,enter,I,enter,293,3,299.80000001192093,805183.7999999821,8046,WL,B,14.0
6,41.62000012397766,distr,18379.99987602234,Mon Dec 08 2025 09:23:47 GMT-0600 (Central Standard Time),805816.8999999762,B,enter,I,enter,320,3,333.0,805483.8999999762,8046,WL,B,15.0
7,0.6640000343322754,immed,59335.999965667725,Mon Dec 08 2025 09:23:47 GMT-0600 (Central Standard Time),814163.1999999881,A,s,I,s,656,3,663.8000000119209,813499.3999999762,8046,WL,B,1.0
7,1.0469999313354492,immed,58953.00006866455,Mon Dec 08 2025 09:23:47 GMT-0600 (Central Standard Time),814546.0,A,st,I,t,377,3,1046.6000000238419,813499.3999999762,8046,WL,B,1.0
7,1.565000057220459,immed,58434.99994277954,Mon Dec 08 2025 09:23:47 GMT-0600 (Central Standard Time),815063.3999999762,A,ste,I,e,507,3,1564.0,813499.3999999762,8046,WL,B,1.0
7,1.7669999599456787,immed,58233.00004005432,Mon Dec 08 2025 09:23:47 GMT-0600 (Central Standard Time),815265.8999999762,A,stee,I,e,195,3,1766.5,813499.3999999762,8046,WL,B,1.0
7,2.2309999465942383,immed,57769.00005340576,Mon Dec 08 2025 09:23:47 GMT-0600 (Central Standard Time),815730.1999999881,A,ste,I,backspace,458,3,2230.800000011921,813499.3999999762,8046,WL,B,1.0
7,2.447999954223633,immed,57552.00004577637,Mon Dec 08 2025 09:23:47 GMT-0600 (Central Standard Time),815946.2999999821,A,st,I,backspace,193,3,2446.9000000059605,813499.3999999762,8046,WL,B,1.0
7,2.615000009536743,immed,57384.99999046326,Mon Dec 08 2025 09:23:47 GMT-0600 (Central Standard Time),816113.7999999821,A,str,I,r,152,3,2614.4000000059605,813499.3999999762,8046,WL,B,1.0
7,2.7639999389648438,immed,57236.000061035156,Mon Dec 08 2025 09:23:47 GMT-0600 (Central Standard Time),816262.7999999821,A,stre,I,e,139,3,2763.4000000059605,813499.3999999762,8046,WL,B,1.0
7,3.0299999713897705,immed,56970.00002861023,Mon Dec 08 2025 09:23:47 GMT-0600 (Central Standard Time),816528.8999999762,A,stree,I,e,261,3,3029.5,813499.3999999762,8046,WL,B,1.0
7,3.180999994277954,immed,56819.000005722046,Mon Dec 08 2025 09:23:47 GMT-0600 (Central Standard Time),816679.5,A,street,I,t,131,3,3180.100000023842,813499.3999999762,8046,WL,B,1.0
7,4.96399998664856,immed,55036.00001335144,Mon Dec 08 2025 09:23:47 GMT-0600 (Central Standard Time),818462.6999999881,A,streetenter,I,enter,1773,3,4963.300000011921,813499.3999999762,8046,WL,B,1.0
7,5.430000066757202,immed,54569.9999332428,Mon Dec 08 2025 09:23:47 GMT-0600 (Central Standard Time),818928.6999999881,A,g,I,g,455,3,465.80000001192093,818462.8999999762,8046,WL,B,2.0
7,5.829999923706055,immed,54170.000076293945,Mon Dec 08 2025 09:23:47 GMT-0600 (Central Standard Time),819329.0,A,gr,I,r,395,3,866.1000000238419,818462.8999999762,8046,WL,B,2.0
7,6.229000091552734,immed,53770.999908447266,Mon Dec 08 2025 09:23:47 GMT-0600 (Central Standard Time),819728.1999999881,A,gra,I,a,386,3,1265.300000011921,818462.8999999762,8046,WL,B,2.0
7,6.496000051498413,immed,53503.99994850159,Mon Dec 08 2025 09:23:47 GMT-0600 (Central Standard Time),819994.5,A,gras,I,s,262,3,1531.6000000238419,818462.8999999762,8046,WL,B,2.0
7,6.664000034332275,immed,53335.999965667725,Mon Dec 08 2025 09:23:47 GMT-0600 (Central Standard Time),820162.3999999762,A,grass,I,s,162,3,1699.5,818462.8999999762,8046,WL,B,2.0
7,7.378999948501587,immed,52621.00005149841,Mon Dec 08 2025 09:23:47 GMT-0600 (Central Standard Time),820877.8999999762,A,grassenter,I,enter,695,3,2415.0,818462.8999999762,8046,WL,B,2.0
7,8.328999996185303,immed,51671.0000038147,Mon Dec 08 2025 09:23:47 GMT-0600 (Central Standard Time),821827.7999999821,A,d,I,d,943,3,949.6999999880791,820878.099999994,8046,WL,B,3.0
7,8.545000076293945,immed,51454.999923706055,Mon Dec 08 2025 09:23:47 GMT-0600 (Central Standard Time),822044.0,A,do,I,o,200,3,1165.9000000059605,820878.099999994,8046,WL,B,3.0
7,8.77999997138977,immed,51220.00002861023,Mon Dec 08 2025 09:23:47 GMT-0600 (Central Standard Time),822278.7999999821,A,doo,I,o,225,3,1400.699999988079,820878.099999994,8046,WL,B,3.0
7,9.129999876022339,immed,50870.00012397766,Mon Dec 08 2025 09:23:47 GMT-0600 (Central Standard Time),822628.6999999881,A,door,I,r,333,3,1750.5999999940395,820878.099999994,8046,WL,B,3.0
7,11.295000076293945,immed,48704.999923706055,Mon Dec 08 2025 09:23:47 GMT-0600 (Central Standard Time),824794.099999994,A,doorenter,I,enter,2149,3,3916.0,820878.099999994,8046,WL,B,3.0
7,11.843999862670898,immed,48156.0001373291,Mon Dec 08 2025 09:23:47 GMT-0600 (Central Standard Time),825343.099999994,A,s,I,s,529,3,548.8000000119209,824794.2999999821,8046,WL,B,4.0
7,12.427000045776367,immed,47572.99995422363,Mon Dec 08 2025 09:23:47 GMT-0600 (Central Standard Time),825926.1999999881,A,st,I,t,565,3,1131.9000000059605,824794.2999999821,8046,WL,B,4.0
7,12.664000034332275,immed,47335.999965667725,Mon Dec 08 2025 09:23:47 GMT-0600 (Central Standard Time),826162.5,A,sta,I,a,213,3,1368.2000000178814,824794.2999999821,8046,WL,B,4.0
7,12.776999950408936,immed,47223.000049591064,Mon Dec 08 2025 09:23:47 GMT-0600 (Central Standard Time),826276.1999999881,A,star,I,r,105,3,1481.9000000059605,824794.2999999821,8046,WL,B,4.0
7,13.694000005722046,immed,46305.999994277954,Mon Dec 08 2025 09:23:47 GMT-0600 (Central Standard Time),827192.8999999762,A,starenter,I,enter,905,3,2398.5999999940395,824794.2999999821,8046,WL,B,4.0
7,14.043999910354614,immed,45956.000089645386,Mon Dec 08 2025 09:23:47 GMT-0600 (Central Standard Time),827543.099999994,A,a,I,a,343,3,350.0,827193.099999994,8046,WL,B,5.0
7,14.41100001335144,immed,45588.99998664856,Mon Dec 08 2025 09:23:47 GMT-0600 (Central Standard Time),827909.5,A,ar,I,r,358,3,716.4000000059605,827193.099999994,8046,WL,B,5.0
7,14.74399995803833,immed,45256.00004196167,Mon Dec 08 2025 09:23:47 GMT-0600 (Central Standard Time),828242.1999999881,A,arm,I,m,318,3,1049.0999999940395,827193.099999994,8046,WL,B,5.0
7,16.2260000705719,immed,43773.9999294281,Mon Dec 08 2025 09:23:47 GMT-0600 (Central Standard Time),829725.0,A,armenter,I,enter,1465,3,2531.9000000059605,827193.099999994,8046,WL,B,5.0
7,16.575999975204468,immed,43424.00002479553,Mon Dec 08 2025 09:23:47 GMT-0600 (Central Standard Time),830075.099999994,A,c,I,c,335,3,349.90000000596046,829725.1999999881,8046,WL,B,6.0
7,16.743000030517578,immed,43256.99996948242,Mon Dec 08 2025 09:23:47 GMT-0600 (Central Standard Time),830242.1999999881,A,ci,I,i,154,3,517.0,829725.1999999881,8046,WL,B,6.0
7,16.941999912261963,immed,43058.00008773804,Mon Dec 08 2025 09:23:47 GMT-0600 (Central Standard Time),830441.099999994,A,cit,I,t,192,3,715.9000000059605,829725.1999999881,8046,WL,B,6.0
7,17.144999980926514,immed,42855.000019073486,Mon Dec 08 2025 09:23:47 GMT-0600 (Central Standard Time),830643.8999999762,A,city,I,y,199,3,918.6999999880791,829725.1999999881,8046,WL,B,6.0
7,18.32699990272522,immed,41673.00009727478,Mon Dec 08 2025 09:23:47 GMT-0600 (Central Standard Time),831826.0,A,cityenter,I,enter,1166,3,2100.800000011921,829725.1999999881,8046,WL,B,6.0
7,19.241999864578247,immed,40758.00013542175,Mon Dec 08 2025 09:23:47 GMT-0600 (Central Standard Time),832740.8999999762,A,w,I,w,897,3,914.6999999880791,831826.1999999881,8046,WL,B,7.0
7,19.45899987220764,immed,40541.00012779236,Mon Dec 08 2025 09:23:47 GMT-0600 (Central Standard Time),832958.099999994,A,wi,I,i,208,3,1131.9000000059605,831826.1999999881,8046,WL,B,7.0
7,19.691999912261963,immed,40308.00008773804,Mon Dec 08 2025 09:23:47 GMT-0600 (Central Standard Time),833191.1999999881,A,win,I,n,212,3,1365.0,831826.1999999881,8046,WL,B,7.0
7,19.91000008583069,immed,40089.99991416931,Mon Dec 08 2025 09:23:47 GMT-0600 (Central Standard Time),833408.1999999881,A,wind,I,d,194,3,1582.0,831826.1999999881,8046,WL,B,7.0
7,20.20899987220764,immed,39791.00012779236,Mon Dec 08 2025 09:23:47 GMT-0600 (Central Standard Time),833707.2999999821,A,windo,I,o,284,3,1881.0999999940395,831826.1999999881,8046,WL,B,7.0
7,20.39199995994568,immed,39608.00004005432,Mon Dec 08 2025 09:23:47 GMT-0600 (Central Standard Time),833890.599999994,A,window,I,w,177,3,2064.4000000059605,831826.1999999881,8046,WL,B,7.0
7,23.207000017166138,immed,36792.99998283386,Mon Dec 08 2025 09:23:47 GMT-0600 (Central Standard Time),836706.2999999821,A,windowenter,I,enter,2801,3,4880.0999999940395,831826.1999999881,8046,WL,B,7.0
7,24.08999991416931,immed,35910.00008583069,Mon Dec 08 2025 09:23:47 GMT-0600 (Central Standard Time),837589.6999999881,A,w,I,w,876,3,883.1999999880791,836706.5,8046,WL,B,8.0
7,24.256999969482422,immed,35743.00003051758,Mon Dec 08 2025 09:23:47 GMT-0600 (Central Standard Time),837756.2999999821,A,wi,I,i,149,3,1049.7999999821186,836706.5,8046,WL,B,8.0
7,24.374000072479248,immed,35625.99992752075,Mon Dec 08 2025 09:23:47 GMT-0600 (Central Standard Time),837872.7999999821,A,wif,I,f,113,3,1166.2999999821186,836706.5,8046,WL,B,8.0
7,24.641000032424927,immed,35358.99996757507,Mon Dec 08 2025 09:23:47 GMT-0600 (Central Standard Time),838140.099999994,A,wife,I,e,251,3,1433.5999999940395,836706.5,8046,WL,B,8.0
7,26.223000049591064,immed,33776.999950408936,Mon Dec 08 2025 09:23:47 GMT-0600 (Central Standard Time),839722.099999994,A,wifeenter,I,enter,1577,3,3015.5999999940395,836706.5,8046,WL,B,8.0
7,26.756999969482422,immed,33243.00003051758,Mon Dec 08 2025 09:23:47 GMT-0600 (Central Standard Time),840255.7999999821,A,p,I,p,522,3,533.5,839722.2999999821,8046,WL,B,9.0
7,27.039999961853027,immed,32960.00003814697,Mon Dec 08 2025 09:23:47 GMT-0600 (Central Standard Time),840539.2999999821,A,pu,I,u,269,3,817.0,839722.2999999821,8046,WL,B,9.0
7,27.33899998664856,immed,32661.00001335144,Mon Dec 08 2025 09:23:47 GMT-0600 (Central Standard Time),840838.599999994,A,pup,I,p,288,3,1116.300000011921,839722.2999999821,8046,WL,B,9.0
7,27.787999868392944,immed,32212.000131607056,Mon Dec 08 2025 09:23:47 GMT-0600 (Central Standard Time),841287.6999999881,A,pupi,I,i,437,3,1565.4000000059605,839722.2999999821,8046,WL,B,9.0
7,28.055999994277954,immed,31944.000005722046,Mon Dec 08 2025 09:23:47 GMT-0600 (Central Standard Time),841555.599999994,A,pupil,I,l,253,3,1833.300000011921,839722.2999999821,8046,WL,B,9.0
7,29.08899998664856,immed,30911.00001335144,Mon Dec 08 2025 09:23:47 GMT-0600 (Central Standard Time),842587.6999999881,A,pupilenter,I,enter,1023,3,2865.4000000059605,839722.2999999821,8046,WL,B,9.0
7,29.555999994277954,immed,30444.000005722046,Mon Dec 08 2025 09:23:47 GMT-0600 (Central Standard Time),843054.6999999881,A,c,I,c,456,3,466.69999998807907,842588.0,8046,WL,B,10.0
7,29.938999891281128,immed,30061.000108718872,Mon Dec 08 2025 09:23:47 GMT-0600 (Central Standard Time),843438.0,A,ca,I,a,365,3,850.0,842588.0,8046,WL,B,10.0
7,30.188999891281128,immed,29811.000108718872,Mon Dec 08 2025 09:23:47 GMT-0600 (Central Standard Time),843688.5,A,cab,I,b,238,3,1100.5,842588.0,8046,WL,B,10.0
7,30.65499997138977,immed,29345.00002861023,Mon Dec 08 2025 09:23:47 GMT-0600 (Central Standard Time),844154.0,A,cabi,I,i,461,3,1566.0,842588.0,8046,WL,B,10.0
7,30.90499997138977,immed,29095.00002861023,Mon Dec 08 2025 09:23:47 GMT-0600 (Central Standard Time),844404.0,A,cabin,I,n,235,3,1816.0,842588.0,8046,WL,B,10.0
7,31.82200002670288,immed,28177.99997329712,Mon Dec 08 2025 09:23:47 GMT-0600 (Central Standard Time),845321.1999999881,A,cabinenter,I,enter,912,3,2733.199999988079,842588.0,8046,WL,B,10.0
7,32.63800001144409,immed,27361.99998855591,Mon Dec 08 2025 09:23:47 GMT-0600 (Central Standard Time),846137.0,A,l,I,l,795,3,815.5,845321.5,8046,WL,B,11.0
7,32.86999988555908,immed,27130.000114440918,Mon Dec 08 2025 09:23:47 GMT-0600 (Central Standard Time),846369.0,A,la,I,a,219,3,1047.5,845321.5,8046,WL,B,11.0
7,33.18599987030029,immed,26814.000129699707,Mon Dec 08 2025 09:23:47 GMT-0600 (Central Standard Time),846685.3999999762,A,lak,I,k,308,3,1363.8999999761581,845321.5,8046,WL,B,11.0
7,33.4210000038147,immed,26578.999996185303,Mon Dec 08 2025 09:23:47 GMT-0600 (Central Standard Time),846919.8999999762,A,lake,I,e,223,3,1598.3999999761581,845321.5,8046,WL,B,11.0
7,34.30399990081787,immed,25696.00009918213,Mon Dec 08 2025 09:23:47 GMT-0600 (Central Standard Time),847803.2999999821,A,lakeenter,I,enter,877,3,2481.7999999821186,845321.5,8046,WL,B,11.0
7,34.82100009918213,immed,25178.99990081787,Mon Dec 08 2025 09:23:47 GMT-0600 (Central Standard Time),848320.099999994,A,s,I,s,496,3,516.5999999940395,847803.5,8046,WL,B,12.0
7,35.15299987792969,immed,24847.000122070312,Mon Dec 08 2025 09:23:47 GMT-0600 (Central Standard Time),848652.5,A,sk,I,k,316,3,849.0,847803.5,8046,WL,B,12.0
7,35.53600001335144,immed,24463.99998664856,Mon Dec 08 2025 09:23:47 GMT-0600 (Central Standard Time),849035.6999999881,A,ski,I,i,367,3,1232.199999988079,847803.5,8046,WL,B,12.0
7,35.80399990081787,immed,24196.00009918213,Mon Dec 08 2025 09:23:47 GMT-0600 (Central Standard Time),849303.5,A,skin,I,n,257,3,1500.0,847803.5,8046,WL,B,12.0
7,36.7189998626709,immed,23281.0001373291,Mon Dec 08 2025 09:23:47 GMT-0600 (Central Standard Time),850218.2999999821,A,skinenter,I,enter,900,3,2414.7999999821186,847803.5,8046,WL,B,12.0
7,37.187000036239624,immed,22812.999963760376,Mon Dec 08 2025 09:23:47 GMT-0600 (Central Standard Time),850685.8999999762,A,p,I,p,449,3,467.39999997615814,850218.5,8046,WL,B,13.0
7,37.47099995613098,immed,22529.00004386902,Mon Dec 08 2025 09:23:47 GMT-0600 (Central Standard Time),850970.1999999881,A,pi,I,i,279,3,751.6999999880791,850218.5,8046,WL,B,13.0
7,37.7720000743866,immed,22227.999925613403,Mon Dec 08 2025 09:23:47 GMT-0600 (Central Standard Time),851270.7999999821,A,pip,I,p,288,3,1052.2999999821186,850218.5,8046,WL,B,13.0
