Number,acc_sum,block,block_c,block_cond,con_img,correct,correct_response,datetime,endtime,jitter,project,response,response_time,row_sel,session_number,start_end,starttime,subject_id,task,task_vers,trial
3,1,prac,1,A,circle.png,1,z,Tue May 13 2025 12:42:19 GMT-0500 (Central Daylight Time),54506.10000002384,1200,I,z,672,3,1,2660.199999988079,51845.90000003576,8047,NTS,B,1
1,2,prac,1,A,circle.png,1,z,Tue May 13 2025 12:42:19 GMT-0500 (Central Daylight Time),56839.700000047684,1000,I,z,535,1,1,2326.400000035763,54513.30000001192,8047,NTS,B,2
8,3,prac,1,A,circle.png,1,m,Tue May 13 2025 12:42:19 GMT-0500 (Central Daylight Time),59754.30000001192,1600,I,m,530,7,1,2908.599999964237,56845.700000047684,8047,NTS,B,3
8,4,prac,1,A,circle.png,1,m,Tue May 13 2025 12:42:19 GMT-0500 (Central Daylight Time),62637.10000002384,1600,I,m,486,7,1,2877.300000011921,59759.80000001192,8047,NTS,B,4
3,5,prac,1,A,circle.png,1,z,Tue May 13 2025 12:42:19 GMT-0500 (Central Daylight Time),65185.90000003576,1200,I,z,556,3,1,2543.300000011921,62642.60000002384,8047,NTS,B,5
6,6,prac,1,A,circle.png,1,m,Tue May 13 2025 12:42:19 GMT-0500 (Central Daylight Time),68518.10000002384,1900,I,m,643,5,1,3326.300000011921,65191.80000001192,8047,NTS,B,6
9,7,prac,1,A,circle.png,1,m,Tue May 13 2025 12:42:19 GMT-0500 (Central Daylight Time),71384.0,1500,I,m,567,8,1,2860.399999976158,68523.60000002384,8047,NTS,B,7
2,8,prac,1,A,circle.png,1,z,Tue May 13 2025 12:42:19 GMT-0500 (Central Daylight Time),74699.70000004768,2000,I,z,529,2,1,3309.900000035763,71389.80000001192,8047,NTS,B,8
4,9,prac,1,A,circle.png,1,z,Tue May 13 2025 12:42:19 GMT-0500 (Central Daylight Time),77682.0,1400,I,z,797,4,1,2976.5,74705.5,8047,NTS,B,9
7,10,prac,1,A,circle.png,1,m,Tue May 13 2025 12:42:19 GMT-0500 (Central Daylight Time),80731.20000004768,1700,I,m,555,6,1,3043.5,77687.70000004768,8047,NTS,B,10
7,11,prac,1,A,circle.png,1,m,Tue May 13 2025 12:42:19 GMT-0500 (Central Daylight Time),83763.40000003576,1700,I,m,538,6,1,3026.600000023842,80736.80000001192,8047,NTS,B,11
2,12,prac,1,A,circle.png,1,z,Tue May 13 2025 12:42:19 GMT-0500 (Central Daylight Time),87129.30000001192,2000,I,z,582,2,1,3360.399999976158,83768.90000003576,8047,NTS,B,12
9,1,prac,1,B,triangle.png,1,z,Tue May 13 2025 12:42:19 GMT-0500 (Central Daylight Time),117619.60000002384,1400,I,z,801,8,1,3111.0,114508.60000002384,8047,NTS,B,1
7,2,prac,1,B,triangle.png,1,z,Tue May 13 2025 12:42:19 GMT-0500 (Central Daylight Time),121235.10000002384,2000,I,z,830,6,1,3609.5,117625.60000002384,8047,NTS,B,2
1,3,prac,1,B,triangle.png,1,z,Tue May 13 2025 12:42:19 GMT-0500 (Central Daylight Time),124633.90000003576,1900,I,z,714,1,1,3393.0,121240.90000003576,8047,NTS,B,3
8,4,prac,1,B,triangle.png,1,m,Tue May 13 2025 12:42:19 GMT-0500 (Central Daylight Time),127083.40000003576,1200,I,m,463,7,1,2444.100000023842,124639.30000001192,8047,NTS,B,4
9,5,prac,1,B,triangle.png,1,z,Tue May 13 2025 12:42:19 GMT-0500 (Central Daylight Time),129915.70000004768,1400,I,z,638,8,1,2827.0,127088.70000004768,8047,NTS,B,5
6,6,prac,1,B,triangle.png,1,m,Tue May 13 2025 12:42:19 GMT-0500 (Central Daylight Time),132365.0,1000,I,m,654,5,1,2443.399999976158,129921.60000002384,8047,NTS,B,6
1,7,prac,1,B,triangle.png,1,z,Tue May 13 2025 12:42:19 GMT-0500 (Central Daylight Time),135630.70000004768,1900,I,z,569,1,1,3260.300000011921,132370.40000003576,8047,NTS,B,7
4,8,prac,1,B,triangle.png,1,m,Tue May 13 2025 12:42:19 GMT-0500 (Central Daylight Time),138596.30000001192,1500,I,m,671,4,1,2960.0,135636.30000001192,8047,NTS,B,8
3,9,prac,1,B,triangle.png,1,z,Tue May 13 2025 12:42:19 GMT-0500 (Central Daylight Time),141928.60000002384,1600,I,z,884,3,1,3326.800000011921,138601.80000001192,8047,NTS,B,9
7,10,prac,1,B,triangle.png,1,z,Tue May 13 2025 12:42:19 GMT-0500 (Central Daylight Time),145577.5,2000,I,z,865,6,1,3643.599999964237,141933.90000003576,8047,NTS,B,10
8,11,prac,1,B,triangle.png,1,m,Tue May 13 2025 12:42:19 GMT-0500 (Central Daylight Time),148209.90000003576,1200,I,m,648,7,1,2627.400000035763,145582.5,8047,NTS,B,11
2,11,prac,1,B,triangle.png,0,m,Tue May 13 2025 12:42:19 GMT-0500 (Central Daylight Time),151325.5,1700,I,z,628,2,1,3110.7999999523163,148214.70000004768,8047,NTS,B,12
6,1,test,1,A,circle.png,1,m,Tue May 13 2025 12:42:19 GMT-0500 (Central Daylight Time),173418.70000004768,1900,I,m,840,5,1,2761.400000035763,170657.30000001192,8047,NTS,B,1
2,2,test,1,A,circle.png,1,z,Tue May 13 2025 12:42:19 GMT-0500 (Central Daylight Time),176051.20000004768,2000,I,z,606,2,1,2628.300000011921,173422.90000003576,8047,NTS,B,2
1,3,test,1,A,circle.png,1,z,Tue May 13 2025 12:42:19 GMT-0500 (Central Daylight Time),177800.40000003576,1000,I,z,726,1,1,1744.699999988079,176055.70000004768,8047,NTS,B,3
7,4,test,1,A,circle.png,1,m,Tue May 13 2025 12:42:19 GMT-0500 (Central Daylight Time),180199.80000001192,1700,I,m,677,6,1,2395.599999964237,177804.20000004768,8047,NTS,B,4
2,5,test,1,A,circle.png,1,z,Tue May 13 2025 12:42:19 GMT-0500 (Central Daylight Time),182965.70000004768,2000,I,z,745,2,1,2762.100000023842,180203.60000002384,8047,NTS,B,5
2,6,test,1,A,circle.png,1,z,Tue May 13 2025 12:42:19 GMT-0500 (Central Daylight Time),185548.20000004768,2000,I,z,564,2,1,2579.0,182969.20000004768,8047,NTS,B,6
8,7,test,1,A,circle.png,1,m,Tue May 13 2025 12:42:19 GMT-0500 (Central Daylight Time),187814.0,1600,I,m,637,7,1,2261.699999988079,185552.30000001192,8047,NTS,B,7
3,8,test,1,A,circle.png,1,z,Tue May 13 2025 12:42:19 GMT-0500 (Central Daylight Time),189913.30000001192,1200,I,z,875,3,1,2095.5,187817.80000001192,8047,NTS,B,8
9,9,test,1,A,circle.png,1,m,Tue May 13 2025 12:42:19 GMT-0500 (Central Daylight Time),192046.10000002384,1500,I,m,603,8,1,2128.399999976158,189917.70000004768,8047,NTS,B,9
9,10,test,1,A,circle.png,1,m,Tue May 13 2025 12:42:19 GMT-0500 (Central Daylight Time),194278.60000002384,1500,I,m,703,8,1,2228.800000011921,192049.80000001192,8047,NTS,B,10
8,11,test,1,A,circle.png,1,m,Tue May 13 2025 12:42:19 GMT-0500 (Central Daylight Time),196761.30000001192,1600,I,m,850,7,1,2478.899999976158,194282.40000003576,8047,NTS,B,11
6,12,test,1,A,circle.png,1,m,Tue May 13 2025 12:42:19 GMT-0500 (Central Daylight Time),199427.0,1900,I,m,748,5,1,2661.699999988079,196765.30000001192,8047,NTS,B,12
4,13,test,1,A,circle.png,1,z,Tue May 13 2025 12:42:19 GMT-0500 (Central Daylight Time),201559.70000004768,1400,I,z,702,4,1,2128.7000000476837,199431.0,8047,NTS,B,13
9,14,test,1,A,circle.png,1,m,Tue May 13 2025 12:42:19 GMT-0500 (Central Daylight Time),203692.40000003576,1500,I,m,613,8,1,2128.699999988079,201563.70000004768,8047,NTS,B,14
2,15,test,1,A,circle.png,1,z,Tue May 13 2025 12:42:19 GMT-0500 (Central Daylight Time),206474.80000001192,2000,I,z,757,2,1,2778.5,203696.30000001192,8047,NTS,B,15
3,16,test,1,A,circle.png,1,z,Tue May 13 2025 12:42:19 GMT-0500 (Central Daylight Time),208524.20000004768,1200,I,z,830,3,1,2045.800000011921,206478.40000003576,8047,NTS,B,16
8,17,test,1,A,circle.png,1,m,Tue May 13 2025 12:42:19 GMT-0500 (Central Daylight Time),211590.30000001192,1600,I,m,1437,7,1,3061.800000011921,208528.5,8047,NTS,B,17
1,18,test,1,A,circle.png,1,z,Tue May 13 2025 12:42:19 GMT-0500 (Central Daylight Time),213306.0,1000,I,z,691,1,1,1712.0,211594.0,8047,NTS,B,18
4,19,test,1,A,circle.png,1,z,Tue May 13 2025 12:42:19 GMT-0500 (Central Daylight Time),215421.90000003576,1400,I,z,695,4,1,2112.199999988079,213309.70000004768,8047,NTS,B,19
3,20,test,1,A,circle.png,1,z,Tue May 13 2025 12:42:19 GMT-0500 (Central Daylight Time),217354.90000003576,1200,I,z,706,3,1,1929.5,215425.40000003576,8047,NTS,B,20
6,21,test,1,A,circle.png,1,m,Tue May 13 2025 12:42:19 GMT-0500 (Central Daylight Time),219970.5,1900,I,m,691,5,1,2611.5,217359.0,8047,NTS,B,21
4,22,test,1,A,circle.png,1,z,Tue May 13 2025 12:42:19 GMT-0500 (Central Daylight Time),222003.30000001192,1400,I,z,614,4,1,2028.800000011921,219974.5,8047,NTS,B,22
3,23,test,1,A,circle.png,1,z,Tue May 13 2025 12:42:19 GMT-0500 (Central Daylight Time),223952.60000002384,1200,I,z,718,3,1,1945.3999999761581,222007.20000004768,8047,NTS,B,23
7,24,test,1,A,circle.png,1,m,Tue May 13 2025 12:42:19 GMT-0500 (Central Daylight Time),226285.20000004768,1700,I,m,612,6,1,2329.0,223956.20000004768,8047,NTS,B,24
7,1,test,1,B,triangle.png,1,z,Tue May 13 2025 12:42:19 GMT-0500 (Central Daylight Time),242763.60000002384,1600,I,z,1057,14,1,2679.300000011921,240084.30000001192,8047,NTS,B,1
3,2,test,1,B,triangle.png,1,z,Tue May 13 2025 12:42:19 GMT-0500 (Central Daylight Time),244912.70000004768,1600,I,z,518,3,1,2144.900000035763,242767.80000001192,8047,NTS,B,2
8,3,test,1,B,triangle.png,1,m,Tue May 13 2025 12:42:19 GMT-0500 (Central Daylight Time),247128.90000003576,1700,I,m,484,15,1,2212.5,244916.40000003576,8047,NTS,B,3
3,4,test,1,B,triangle.png,1,z,Tue May 13 2025 12:42:19 GMT-0500 (Central Daylight Time),250144.40000003576,2000,I,z,993,11,1,3011.5,247132.90000003576,8047,NTS,B,4
7,5,test,1,B,triangle.png,1,z,Tue May 13 2025 12:42:19 GMT-0500 (Central Daylight Time),252810.60000002384,2000,I,z,641,6,1,2662.399999976158,250148.20000004768,8047,NTS,B,5
3,6,test,1,B,triangle.png,1,z,Tue May 13 2025 12:42:19 GMT-0500 (Central Daylight Time),255009.60000002384,1600,I,z,567,3,1,2195.300000011921,252814.30000001192,8047,NTS,B,6
9,7,test,1,B,triangle.png,1,z,Tue May 13 2025 12:42:19 GMT-0500 (Central Daylight Time),257625.60000002384,1900,I,z,684,16,1,2612.199999988079,255013.40000003576,8047,NTS,B,7
8,8,test,1,B,triangle.png,1,m,Tue May 13 2025 12:42:19 GMT-0500 (Central Daylight Time),259691.40000003576,1200,I,m,848,7,1,2062.100000023842,257629.30000001192,8047,NTS,B,8
8,9,test,1,B,triangle.png,1,m,Tue May 13 2025 12:42:19 GMT-0500 (Central Daylight Time),261924.10000002384,1700,I,m,506,15,1,2228.699999988079,259695.40000003576,8047,NTS,B,9
7,10,test,1,B,triangle.png,1,z,Tue May 13 2025 12:42:19 GMT-0500 (Central Daylight Time),264206.7000000477,1600,I,z,661,14,1,2278.600000023842,261928.10000002384,8047,NTS,B,10
9,11,test,1,B,triangle.png,1,z,Tue May 13 2025 12:42:19 GMT-0500 (Central Daylight Time),266639.2000000477,1400,I,z,1002,8,1,2428.600000023842,264210.60000002384,8047,NTS,B,11
1,12,test,1,B,triangle.png,1,z,Tue May 13 2025 12:42:19 GMT-0500 (Central Daylight Time),268738.60000002384,1400,I,z,674,9,1,2095.399999976158,266643.2000000477,8047,NTS,B,12
2,13,test,1,B,triangle.png,1,m,Tue May 13 2025 12:42:19 GMT-0500 (Central Daylight Time),271054.5,1700,I,m,595,2,1,2312.199999988079,268742.3000000119,8047,NTS,B,13
8,14,test,1,B,triangle.png,1,m,Tue May 13 2025 12:42:19 GMT-0500 (Central Daylight Time),272987.3000000119,1200,I,m,715,7,1,1929.300000011921,271058.0,8047,NTS,B,14
4,15,test,1,B,triangle.png,1,m,Tue May 13 2025 12:42:19 GMT-0500 (Central Daylight Time),274603.40000003576,1000,I,m,590,12,1,1612.199999988079,272991.2000000477,8047,NTS,B,15
9,16,test,1,B,triangle.png,1,z,Tue May 13 2025 12:42:19 GMT-0500 (Central Daylight Time),277235.90000003576,1900,I,z,714,16,1,2628.400000035763,274607.5,8047,NTS,B,16
2,17,test,1,B,triangle.png,1,m,Tue May 13 2025 12:42:19 GMT-0500 (Central Daylight Time),279968.40000003576,1700,I,m,1001,2,1,2729.0,277239.40000003576,8047,NTS,B,17
6,18,test,1,B,triangle.png,1,m,Tue May 13 2025 12:42:19 GMT-0500 (Central Daylight Time),281830.0,1000,I,m,698,5,1,1857.8999999761581,279972.10000002384,8047,NTS,B,18
1,19,test,1,B,triangle.png,1,z,Tue May 13 2025 12:42:19 GMT-0500 (Central Daylight Time),284383.8000000119,1900,I,z,619,1,1,2549.0,281834.8000000119,8047,NTS,B,19
6,20,test,1,B,triangle.png,1,m,Tue May 13 2025 12:42:19 GMT-0500 (Central Daylight Time),286499.7000000477,1500,I,m,598,13,1,2112.5,284387.2000000477,8047,NTS,B,20
6,21,test,1,B,triangle.png,1,m,Tue May 13 2025 12:42:19 GMT-0500 (Central Daylight Time),288549.0,1500,I,m,529,13,1,2045.3999999761581,286503.60000002384,8047,NTS,B,21
4,22,test,1,B,triangle.png,1,m,Tue May 13 2025 12:42:19 GMT-0500 (Central Daylight Time),290765.0,1500,I,m,696,4,1,2212.5,288552.5,8047,NTS,B,22
4,23,test,1,B,triangle.png,1,m,Tue May 13 2025 12:42:19 GMT-0500 (Central Daylight Time),292314.5,1000,I,m,516,12,1,1545.7999999523163,290768.7000000477,8047,NTS,B,23
2,24,test,1,B,triangle.png,1,m,Tue May 13 2025 12:42:19 GMT-0500 (Central Daylight Time),294147.3000000119,1200,I,m,607,10,1,1829.0,292318.3000000119,8047,NTS,B,24
9,0,prac,1,C,circle.png,0,m,Tue May 13 2025 12:42:19 GMT-0500 (Central Daylight Time),337916.90000003576,1900,I,None,1516,8,1,4193.900000035763,333723.0,8047,NTS,B,1
2,0,prac,1,C,triangle.png,0,m,Tue May 13 2025 12:42:19 GMT-0500 (Central Daylight Time),341815.60000002384,1600,I,None,1516,2,1,3893.0,337922.60000002384,8047,NTS,B,2
8,0,prac,1,C,triangle.png,0,m,Tue May 13 2025 12:42:19 GMT-0500 (Central Daylight Time),345514.5,1400,I,None,1516,7,1,3693.899999976158,341820.60000002384,8047,NTS,B,3
9,0,prac,1,C,circle.png,0,m,Tue May 13 2025 12:42:19 GMT-0500 (Central Daylight Time),349713.3000000119,1900,I,None,1516,8,1,4193.599999964237,345519.7000000477,8047,NTS,B,4
3,0,prac,1,C,triangle.png,0,z,Tue May 13 2025 12:42:19 GMT-0500 (Central Daylight Time),353511.8000000119,1500,I,None,1516,3,1,3793.0,349718.8000000119,8047,NTS,B,5
2,0,prac,1,C,triangle.png,0,m,Tue May 13 2025 12:42:19 GMT-0500 (Central Daylight Time),357410.60000002384,1600,I,None,1515,2,1,3893.800000011921,353516.8000000119,8047,NTS,B,6
4,1,prac,1,C,circle.png,1,z,Tue May 13 2025 12:42:19 GMT-0500 (Central Daylight Time),360493.10000002384,1000,I,z,1286,4,1,3077.5,357415.60000002384,8047,NTS,B,7
6,1,prac,1,C,circle.png,0,m,Tue May 13 2025 12:42:19 GMT-0500 (Central Daylight Time),364791.8000000119,2000,I,None,1515,5,1,4293.399999976158,360498.40000003576,8047,NTS,B,8
6,2,prac,1,C,circle.png,1,m,Tue May 13 2025 12:42:19 GMT-0500 (Central Daylight Time),368207.5,2000,I,m,626,5,1,3410.2999999523163,364797.2000000477,8047,NTS,B,9
7,3,prac,1,C,triangle.png,1,z,Tue May 13 2025 12:42:19 GMT-0500 (Central Daylight Time),371656.3000000119,1200,I,z,1450,6,1,3443.899999976158,368212.40000003576,8047,NTS,B,10
1,4,prac,1,C,circle.png,1,z,Tue May 13 2025 12:42:19 GMT-0500 (Central Daylight Time),375521.7000000477,1700,I,z,1381,1,1,3860.0,371661.7000000477,8047,NTS,B,11
4,5,prac,1,C,circle.png,1,z,Tue May 13 2025 12:42:19 GMT-0500 (Central Daylight Time),378304.3000000119,1000,I,z,991,4,1,2777.699999988079,375526.60000002384,8047,NTS,B,12
2,0,prac,2,C,triangle.png,0,m,Tue May 13 2025 12:42:19 GMT-0500 (Central Daylight Time),390367.0,1600,I,None,1516,2,1,3893.699999988079,386473.3000000119,8047,NTS,B,1
1,1,prac,2,C,circle.png,1,z,Tue May 13 2025 12:42:19 GMT-0500 (Central Daylight Time),393499.3000000119,1700,I,z,638,1,1,3124.099999964237,390375.2000000477,8047,NTS,B,2
3,2,prac,2,C,triangle.png,1,z,Tue May 13 2025 12:42:19 GMT-0500 (Central Daylight Time),396798.40000003576,1500,I,z,1010,3,1,3294.199999988079,393504.2000000477,8047,NTS,B,3
9,3,prac,2,C,circle.png,1,m,Tue May 13 2025 12:42:19 GMT-0500 (Central Daylight Time),400430.5,1900,I,m,935,8,1,3627.0,396803.5,8047,NTS,B,4
3,4,prac,2,C,triangle.png,1,z,Tue May 13 2025 12:42:19 GMT-0500 (Central Daylight Time),403496.2000000477,1500,I,z,775,3,1,3060.300000011921,400435.90000003576,8047,NTS,B,5
1,5,prac,2,C,circle.png,1,z,Tue May 13 2025 12:42:19 GMT-0500 (Central Daylight Time),406878.60000002384,1700,I,z,893,1,1,3377.199999988079,403501.40000003576,8047,NTS,B,6
8,6,prac,2,C,triangle.png,1,m,Tue May 13 2025 12:42:19 GMT-0500 (Central Daylight Time),410010.7000000477,1400,I,m,947,7,1,3127.400000035763,406883.3000000119,8047,NTS,B,7
7,6,prac,2,C,triangle.png,0,z,Tue May 13 2025 12:42:19 GMT-0500 (Central Daylight Time),413176.7000000477,1200,I,m,1182,6,1,3160.7000000476837,410016.0,8047,NTS,B,8
4,7,prac,2,C,circle.png,1,z,Tue May 13 2025 12:42:19 GMT-0500 (Central Daylight Time),416075.60000002384,1000,I,z,1113,4,1,2893.800000011921,413181.8000000119,8047,NTS,B,9
6,8,prac,2,C,circle.png,1,m,Tue May 13 2025 12:42:19 GMT-0500 (Central Daylight Time),419757.7000000477,2000,I,m,894,5,1,3677.100000023842,416080.60000002384,8047,NTS,B,10
8,8,prac,2,C,triangle.png,0,m,Tue May 13 2025 12:42:19 GMT-0500 (Central Daylight Time),423456.60000002384,1400,I,None,1516,7,1,3694.100000023842,419762.5,8047,NTS,B,11
9,9,prac,2,C,circle.png,1,m,Tue May 13 2025 12:42:19 GMT-0500 (Central Daylight Time),427222.10000002384,1900,I,m,1077,8,1,3760.300000011921,423461.8000000119,8047,NTS,B,12
4,0,test,1,C,triangle.png,0,m,Tue May 13 2025 12:42:19 GMT-0500 (Central Daylight Time),446782.8000000119,1500,I,None,1516,12,1,3029.5,443753.3000000119,8047,NTS,B,1
4,1,test,1,C,triangle.png,1,m,Tue May 13 2025 12:42:19 GMT-0500 (Central Daylight Time),449098.5,1500,I,m,791,20,1,2309.899999976158,446788.60000002384,8047,NTS,B,2
9,1,test,1,C,triangle.png,0,z,Tue May 13 2025 12:42:19 GMT-0500 (Central Daylight Time),452030.90000003576,1400,I,None,1516,16,1,2928.100000023842,449102.8000000119,8047,NTS,B,3
4,2,test,1,C,circle.png,1,z,Tue May 13 2025 12:42:19 GMT-0500 (Central Daylight Time),454730.2000000477,1400,I,z,1274,4,1,2695.5,452034.7000000477,8047,NTS,B,4
6,3,test,1,C,circle.png,1,m,Tue May 13 2025 12:42:19 GMT-0500 (Central Daylight Time),457495.90000003576,1900,I,m,835,21,1,2761.800000011921,454734.10000002384,8047,NTS,B,5
6,4,test,1,C,triangle.png,1,m,Tue May 13 2025 12:42:19 GMT-0500 (Central Daylight Time),459478.5,1000,I,m,961,13,1,1978.3999999761581,457500.10000002384,8047,NTS,B,6
7,5,test,1,C,circle.png,1,m,Tue May 13 2025 12:42:19 GMT-0500 (Central Daylight Time),462494.40000003576,2000,I,m,995,14,1,3012.300000011921,459482.10000002384,8047,NTS,B,7
8,5,test,1,C,triangle.png,0,m,Tue May 13 2025 12:42:19 GMT-0500 (Central Daylight Time),465626.8000000119,1600,I,None,1516,7,1,3128.699999988079,462498.10000002384,8047,NTS,B,8
1,6,test,1,C,triangle.png,1,z,Tue May 13 2025 12:42:19 GMT-0500 (Central Daylight Time),468592.3000000119,1900,I,z,1043,17,1,2961.800000011921,465630.5,8047,NTS,B,9
3,6,test,1,C,triangle.png,0,z,Tue May 13 2025 12:42:19 GMT-0500 (Central Daylight Time),471324.90000003576,1200,I,None,1516,3,1,2728.300000011921,468596.60000002384,8047,NTS,B,10
7,6,test,1,C,triangle.png,0,z,Tue May 13 2025 12:42:19 GMT-0500 (Central Daylight Time),474557.2000000477,1700,I,None,1516,22,1,3228.300000011921,471328.90000003576,8047,NTS,B,11
2,6,test,1,C,triangle.png,0,m,Tue May 13 2025 12:42:19 GMT-0500 (Central Daylight Time),478089.3000000119,2000,I,None,1515,2,1,3528.099999964237,474561.2000000477,8047,NTS,B,12
7,7,test,1,C,triangle.png,1,z,Tue May 13 2025 12:42:19 GMT-0500 (Central Daylight Time),480921.8000000119,1700,I,z,1100,6,1,2828.5,478093.3000000119,8047,NTS,B,13
9,8,test,1,C,circle.png,1,m,Tue May 13 2025 12:42:19 GMT-0500 (Central Daylight Time),483687.60000002384,1500,I,m,1243,24,1,2761.899999976158,480925.7000000477,8047,NTS,B,14
8,8,test,1,C,triangle.png,0,m,Tue May 13 2025 12:42:19 GMT-0500 (Central Daylight Time),486820.0,1600,I,None,1516,23,1,3128.599999964237,483691.40000003576,8047,NTS,B,15
1,9,test,1,C,triangle.png,1,z,Tue May 13 2025 12:42:19 GMT-0500 (Central Daylight Time),489735.7000000477,1900,I,z,993,9,1,2911.900000035763,486823.8000000119,8047,NTS,B,16
6,10,test,1,C,circle.png,1,m,Tue May 13 2025 12:42:19 GMT-0500 (Central Daylight Time),492834.90000003576,1900,I,m,1182,5,1,3093.199999988079,489741.7000000477,8047,NTS,B,17
9,11,test,1,C,circle.png,1,m,Tue May 13 2025 12:42:19 GMT-0500 (Central Daylight Time),495367.3000000119,1500,I,m,1003,8,1,2528.399999976158,492838.90000003576,8047,NTS,B,18
2,12,test,1,C,circle.png,1,z,Tue May 13 2025 12:42:19 GMT-0500 (Central Daylight Time),497933.10000002384,1700,I,z,846,10,1,2562.399999976158,495370.7000000477,8047,NTS,B,19
3,13,test,1,C,circle.png,1,z,Tue May 13 2025 12:42:19 GMT-0500 (Central Daylight Time),500266.0,1600,I,z,700,11,1,2328.899999976158,497937.10000002384,8047,NTS,B,20
8,14,test,1,C,circle.png,1,m,Tue May 13 2025 12:42:19 GMT-0500 (Central Daylight Time),502481.90000003576,1200,I,m,984,15,1,2212.0,500269.90000003576,8047,NTS,B,21
3,15,test,1,C,circle.png,1,z,Tue May 13 2025 12:42:19 GMT-0500 (Central Daylight Time),504814.3000000119,1600,I,z,704,19,1,2328.899999976158,502485.40000003576,8047,NTS,B,22
2,16,test,1,C,circle.png,1,z,Tue May 13 2025 12:42:19 GMT-0500 (Central Daylight Time),507080.40000003576,1700,I,z,543,18,1,2262.300000011921,504818.10000002384,8047,NTS,B,23
1,17,test,1,C,circle.png,1,z,Tue May 13 2025 12:42:19 GMT-0500 (Central Daylight Time),508663.2000000477,1000,I,z,553,1,1,1579.0,507084.2000000477,8047,NTS,B,24
8,1,test,2,C,triangle.png,1,m,Tue May 13 2025 12:42:19 GMT-0500 (Central Daylight Time),516993.90000003576,1600,I,m,775,7,1,2395.900000035763,514598.0,8047,NTS,B,1
6,2,test,2,C,triangle.png,1,m,Tue May 13 2025 12:42:19 GMT-0500 (Central Daylight Time),518576.8000000119,1000,I,m,559,13,1,1578.5999999642372,516998.2000000477,8047,NTS,B,2
7,3,test,2,C,triangle.png,1,z,Tue May 13 2025 12:42:19 GMT-0500 (Central Daylight Time),521092.60000002384,1700,I,z,789,6,1,2512.300000011921,518580.3000000119,8047,NTS,B,3
4,4,test,2,C,triangle.png,1,m,Tue May 13 2025 12:42:19 GMT-0500 (Central Daylight Time),523342.0,1500,I,m,721,12,1,2245.599999964237,521096.40000003576,8047,NTS,B,4
1,5,test,2,C,circle.png,1,z,Tue May 13 2025 12:42:19 GMT-0500 (Central Daylight Time),525474.4000000358,1000,I,z,1100,1,1,2127.900000035763,523346.5,8047,NTS,B,5
2,6,test,2,C,circle.png,1,z,Tue May 13 2025 12:42:19 GMT-0500 (Central Daylight Time),528040.2000000477,1700,I,z,835,10,1,2561.600000023842,525478.6000000238,8047,NTS,B,6
3,7,test,2,C,circle.png,1,z,Tue May 13 2025 12:42:19 GMT-0500 (Central Daylight Time),530472.9000000358,1600,I,z,809,19,1,2428.800000011921,528044.1000000238,8047,NTS,B,7
9,8,test,2,C,circle.png,1,m,Tue May 13 2025 12:42:19 GMT-0500 (Central Daylight Time),532922.2000000477,1500,I,m,924,8,1,2445.7000000476837,530476.5,8047,NTS,B,8
9,9,test,2,C,triangle.png,1,z,Tue May 13 2025 12:42:19 GMT-0500 (Central Daylight Time),535688.0,1400,I,z,1343,24,1,2762.0,532926.0,8047,NTS,B,9
7,10,test,2,C,circle.png,1,m,Tue May 13 2025 12:42:19 GMT-0500 (Central Daylight Time),538836.9000000358,2000,I,m,1129,14,1,3144.699999988079,535692.2000000477,8047,NTS,B,10
2,10,test,2,C,triangle.png,0,m,Tue May 13 2025 12:42:19 GMT-0500 (Central Daylight Time),541769.6000000238,2000,I,z,846,2,1,2928.699999988079,538840.9000000358,8047,NTS,B,11
8,11,test,2,C,circle.png,1,m,Tue May 13 2025 12:42:19 GMT-0500 (Central Daylight Time),544418.7000000477,1200,I,m,1424,23,1,2645.400000035763,541773.3000000119,8047,NTS,B,12
1,12,test,2,C,triangle.png,1,z,Tue May 13 2025 12:42:19 GMT-0500 (Central Daylight Time),547517.8000000119,1900,I,z,1171,17,1,3092.399999976158,544425.4000000358,8047,NTS,B,13
4,12,test,2,C,circle.png,0,z,Tue May 13 2025 12:42:19 GMT-0500 (Central Daylight Time),550449.9000000358,1400,I,None,1516,4,1,2927.699999988079,547522.2000000477,8047,NTS,B,14
6,13,test,2,C,triangle.png,1,m,Tue May 13 2025 12:42:19 GMT-0500 (Central Daylight Time),552849.4000000358,1000,I,m,1367,21,1,2395.600000023842,550453.8000000119,8047,NTS,B,15
3,14,test,2,C,triangle.png,1,z,Tue May 13 2025 12:42:19 GMT-0500 (Central Daylight Time),554765.3000000119,1200,I,z,696,3,1,1912.0999999642372,552853.2000000477,8047,NTS,B,16
3,14,test,2,C,circle.png,0,z,Tue May 13 2025 12:42:19 GMT-0500 (Central Daylight Time),557281.1000000238,1600,I,m,884,11,1,2512.0,554769.1000000238,8047,NTS,B,17
2,15,test,2,C,circle.png,1,z,Tue May 13 2025 12:42:19 GMT-0500 (Central Daylight Time),559980.3000000119,1700,I,z,972,18,1,2695.300000011921,557285.0,8047,NTS,B,18
7,16,test,2,C,circle.png,1,m,Tue May 13 2025 12:42:19 GMT-0500 (Central Daylight Time),562746.4000000358,2000,I,m,749,22,1,2762.100000023842,559984.3000000119,8047,NTS,B,19
1,17,test,2,C,triangle.png,1,z,Tue May 13 2025 12:42:19 GMT-0500 (Central Daylight Time),565445.5,1900,I,z,767,9,1,2695.199999988079,562750.3000000119,8047,NTS,B,20
8,18,test,2,C,circle.png,1,m,Tue May 13 2025 12:42:19 GMT-0500 (Central Daylight Time),567777.9000000358,1200,I,m,1100,15,1,2328.5,565449.4000000358,8047,NTS,B,21
6,19,test,2,C,circle.png,1,m,Tue May 13 2025 12:42:19 GMT-0500 (Central Daylight Time),570593.7000000477,1900,I,m,883,5,1,2811.7000000476837,567782.0,8047,NTS,B,22
9,20,test,2,C,triangle.png,1,z,Tue May 13 2025 12:42:19 GMT-0500 (Central Daylight Time),573226.3000000119,1400,I,z,1208,16,1,2628.899999976158,570597.4000000358,8047,NTS,B,23
4,21,test,2,C,triangle.png,1,m,Tue May 13 2025 12:42:19 GMT-0500 (Central Daylight Time),576008.6000000238,1500,I,m,1259,20,1,2778.600000023842,573230.0,8047,NTS,B,24
3,1,test,3,C,triangle.png,1,z,Tue May 13 2025 12:42:19 GMT-0500 (Central Daylight Time),583106.5,1200,I,z,833,3,1,2063.399999976158,581043.1000000238,8047,NTS,B,1
2,1,test,3,C,circle.png,0,z,Tue May 13 2025 12:42:19 GMT-0500 (Central Daylight Time),585805.6000000238,1700,I,m,979,10,1,2694.899999976158,583110.7000000477,8047,NTS,B,2
1,2,test,3,C,circle.png,1,z,Tue May 13 2025 12:42:19 GMT-0500 (Central Daylight Time),587421.6000000238,1000,I,z,588,1,1,1612.300000011921,585809.3000000119,8047,NTS,B,3
4,3,test,3,C,triangle.png,1,m,Tue May 13 2025 12:42:19 GMT-0500 (Central Daylight Time),590154.1000000238,1500,I,m,1200,12,1,2728.899999976158,587425.2000000477,8047,NTS,B,4
3,4,test,3,C,circle.png,1,z,Tue May 13 2025 12:42:19 GMT-0500 (Central Daylight Time),593103.1000000238,1600,I,z,1319,11,1,2945.100000023842,590158.0,8047,NTS,B,5
8,5,test,3,C,triangle.png,1,m,Tue May 13 2025 12:42:19 GMT-0500 (Central Daylight Time),596119.0,1600,I,m,1394,7,1,3012.099999964237,593106.9000000358,8047,NTS,B,6
6,6,test,3,C,triangle.png,1,m,Tue May 13 2025 12:42:19 GMT-0500 (Central Daylight Time),597702.0,1000,I,m,554,13,1,1579.5,596122.5,8047,NTS,B,7
1,7,test,3,C,circle.png,1,z,Tue May 13 2025 12:42:19 GMT-0500 (Central Daylight Time),599567.8000000119,1000,I,z,844,17,1,1861.8999999761581,597705.9000000358,8047,NTS,B,8
4,7,test,3,C,circle.png,0,z,Tue May 13 2025 12:42:19 GMT-0500 (Central Daylight Time),602500.2000000477,1400,I,None,1516,4,1,2928.600000023842,599571.6000000238,8047,NTS,B,9
6,8,test,3,C,circle.png,1,m,Tue May 13 2025 12:42:19 GMT-0500 (Central Daylight Time),605249.6000000238,1900,I,m,817,21,1,2745.5,602504.1000000238,8047,NTS,B,10
7,8,test,3,C,triangle.png,0,z,Tue May 13 2025 12:42:19 GMT-0500 (Central Daylight Time),608481.7000000477,1700,I,None,1516,22,1,3228.100000023842,605253.6000000238,8047,NTS,B,11
7,9,test,3,C,triangle.png,1,z,Tue May 13 2025 12:42:19 GMT-0500 (Central Daylight Time),611180.8000000119,1700,I,z,972,6,1,2695.199999988079,608485.6000000238,8047,NTS,B,12
3,10,test,3,C,triangle.png,1,z,Tue May 13 2025 12:42:19 GMT-0500 (Central Daylight Time),613330.3000000119,1200,I,z,924,19,1,2145.5,611184.8000000119,8047,NTS,B,13
6,11,test,3,C,circle.png,1,m,Tue May 13 2025 12:42:19 GMT-0500 (Central Daylight Time),616346.0,1900,I,m,1091,5,1,3012.0,613334.0,8047,NTS,B,14
2,11,test,3,C,triangle.png,0,m,Tue May 13 2025 12:42:19 GMT-0500 (Central Daylight Time),619878.2000000477,2000,I,None,1516,2,1,3528.400000035763,616349.8000000119,8047,NTS,B,15
9,12,test,3,C,triangle.png,1,z,Tue May 13 2025 12:42:19 GMT-0500 (Central Daylight Time),622310.7000000477,1400,I,z,1003,16,1,2428.100000023842,619882.6000000238,8047,NTS,B,16
8,13,test,3,C,circle.png,1,m,Tue May 13 2025 12:42:19 GMT-0500 (Central Daylight Time),624343.3000000119,1200,I,m,803,15,1,2028.5999999642372,622314.7000000477,8047,NTS,B,17
9,13,test,3,C,circle.png,0,m,Tue May 13 2025 12:42:19 GMT-0500 (Central Daylight Time),626827.3000000119,1500,I,z,966,24,1,2480.5,624346.8000000119,8047,NTS,B,18
4,14,test,3,C,circle.png,1,z,Tue May 13 2025 12:42:19 GMT-0500 (Central Daylight Time),629391.9000000358,1400,I,z,1143,20,1,2560.600000023842,626831.3000000119,8047,NTS,B,19
8,14,test,3,C,triangle.png,0,m,Tue May 13 2025 12:42:19 GMT-0500 (Central Daylight Time),632524.3000000119,1600,I,None,1515,23,1,3128.399999976158,629395.9000000358,8047,NTS,B,20
1,15,test,3,C,triangle.png,1,z,Tue May 13 2025 12:42:19 GMT-0500 (Central Daylight Time),635334.2000000477,1900,I,z,893,9,1,2805.400000035763,632528.8000000119,8047,NTS,B,21
9,16,test,3,C,circle.png,1,m,Tue May 13 2025 12:42:19 GMT-0500 (Central Daylight Time),637805.8000000119,1500,I,m,945,8,1,2467.300000011921,635338.5,8047,NTS,B,22
7,17,test,3,C,circle.png,1,m,Tue May 13 2025 12:42:19 GMT-0500 (Central Daylight Time),640588.5,2000,I,m,757,14,1,2779.099999964237,637809.4000000358,8047,NTS,B,23
2,18,test,3,C,triangle.png,1,m,Tue May 13 2025 12:42:19 GMT-0500 (Central Daylight Time),643870.4000000358,2000,I,m,1261,18,1,3278.400000035763,640592.0,8047,NTS,B,24
8,1,test,4,C,circle.png,1,m,Tue May 13 2025 12:42:19 GMT-0500 (Central Daylight Time),652684.4000000358,1200,I,m,939,15,1,2162.300000011921,650522.1000000238,8047,NTS,B,1
1,2,test,4,C,triangle.png,1,z,Tue May 13 2025 12:42:19 GMT-0500 (Central Daylight Time),655766.9000000358,1900,I,z,1161,9,1,3075.199999988079,652691.7000000477,8047,NTS,B,2
9,3,test,4,C,circle.png,1,m,Tue May 13 2025 12:42:19 GMT-0500 (Central Daylight Time),658499.2000000477,1500,I,m,1214,24,1,2727.800000011921,655771.4000000358,8047,NTS,B,3
6,4,test,4,C,circle.png,1,m,Tue May 13 2025 12:42:19 GMT-0500 (Central Daylight Time),661081.8000000119,1900,I,m,658,21,1,2577.800000011921,658504.0,8047,NTS,B,4
6,5,test,4,C,circle.png,1,m,Tue May 13 2025 12:42:19 GMT-0500 (Central Daylight Time),663714.4000000358,1900,I,m,708,5,1,2628.600000023842,661085.8000000119,8047,NTS,B,5
3,5,test,4,C,circle.png,0,z,Tue May 13 2025 12:42:19 GMT-0500 (Central Daylight Time),666846.7000000477,1600,I,None,1516,11,1,3128.7000000476837,663718.0,8047,NTS,B,6
2,6,test,4,C,triangle.png,1,m,Tue May 13 2025 12:42:19 GMT-0500 (Central Daylight Time),670029.1000000238,2000,I,m,1155,18,1,3175.600000023842,666853.5,8047,NTS,B,7
7,7,test,4,C,triangle.png,1,z,Tue May 13 2025 12:42:19 GMT-0500 (Central Daylight Time),672628.3000000119,1700,I,z,872,6,1,2595.599999964237,670032.7000000477,8047,NTS,B,8
6,8,test,4,C,triangle.png,1,m,Tue May 13 2025 12:42:19 GMT-0500 (Central Daylight Time),674544.5,1000,I,m,893,13,1,1912.0999999642372,672632.4000000358,8047,NTS,B,9
8,8,test,4,C,triangle.png,0,m,Tue May 13 2025 12:42:19 GMT-0500 (Central Daylight Time),677676.6000000238,1600,I,None,1516,7,1,3128.199999988079,674548.4000000358,8047,NTS,B,10
7,9,test,4,C,circle.png,1,m,Tue May 13 2025 12:42:19 GMT-0500 (Central Daylight Time),681158.9000000358,2000,I,m,1461,14,1,3478.199999988079,677680.7000000477,8047,NTS,B,11
1,10,test,4,C,circle.png,1,z,Tue May 13 2025 12:42:19 GMT-0500 (Central Daylight Time),682925.1000000238,1000,I,z,738,1,1,1762.3999999761581,681162.7000000477,8047,NTS,B,12
4,10,test,4,C,triangle.png,0,m,Tue May 13 2025 12:42:19 GMT-0500 (Central Daylight Time),685957.3000000119,1500,I,None,1515,12,1,3028.399999976158,682928.9000000358,8047,NTS,B,13
2,11,test,4,C,circle.png,1,z,Tue May 13 2025 12:42:19 GMT-0500 (Central Daylight Time),688806.6000000238,1700,I,z,1120,10,1,2845.399999976158,685961.2000000477,8047,NTS,B,14
3,11,test,4,C,triangle.png,0,z,Tue May 13 2025 12:42:19 GMT-0500 (Central Daylight Time),691239.2000000477,1200,I,m,1203,3,1,2428.5,688810.7000000477,8047,NTS,B,15
4,12,test,4,C,circle.png,1,z,Tue May 13 2025 12:42:19 GMT-0500 (Central Daylight Time),693821.4000000358,1400,I,z,1162,20,1,2578.5,691242.9000000358,8047,NTS,B,16
2,12,test,4,C,triangle.png,0,m,Tue May 13 2025 12:42:19 GMT-0500 (Central Daylight Time),697354.0,2000,I,None,1516,2,1,3528.899999976158,693825.1000000238,8047,NTS,B,17
9,13,test,4,C,circle.png,1,m,Tue May 13 2025 12:42:19 GMT-0500 (Central Daylight Time),699903.2000000477,1500,I,m,1027,8,1,2545.5,697357.7000000477,8047,NTS,B,18
1,14,test,4,C,circle.png,1,z,Tue May 13 2025 12:42:19 GMT-0500 (Central Daylight Time),701869.2000000477,1000,I,z,938,17,1,1961.7000000476837,699907.5,8047,NTS,B,19
8,14,test,4,C,triangle.png,0,m,Tue May 13 2025 12:42:19 GMT-0500 (Central Daylight Time),705001.6000000238,1600,I,None,1516,23,1,3128.600000023842,701873.0,8047,NTS,B,20
9,15,test,4,C,triangle.png,1,z,Tue May 13 2025 12:42:19 GMT-0500 (Central Daylight Time),707767.3000000119,1400,I,z,1336,16,1,2762.099999964237,705005.2000000477,8047,NTS,B,21
3,16,test,4,C,triangle.png,1,z,Tue May 13 2025 12:42:19 GMT-0500 (Central Daylight Time),709800.0,1200,I,z,802,19,1,2029.0,707771.0,8047,NTS,B,22
7,17,test,4,C,triangle.png,1,z,Tue May 13 2025 12:42:19 GMT-0500 (Central Daylight Time),712682.7000000477,1700,I,z,1166,22,1,2876.100000023842,709806.6000000238,8047,NTS,B,23
4,18,test,4,C,circle.png,1,z,Tue May 13 2025 12:42:19 GMT-0500 (Central Daylight Time),715164.8000000119,1400,I,z,1055,4,1,2477.800000011921,712687.0,8047,NTS,B,24
