Number,acc_sum,block,block_c,block_cond,con_img,correct,correct_response,datetime,endtime,jitter,project,response,response_time,row_sel,session_number,start_end,starttime,subject_id,task,task_vers,trial
6,1,prac,1,A,circle.png,1,m,Wed Oct 22 2025 15:49:28 GMT-0400 (Eastern Daylight Time),59622.89999997616,1900,I,m,911,5,1,3589.399999976158,56033.5,9034,NTS,C,1
8,2,prac,1,A,circle.png,1,m,Wed Oct 22 2025 15:49:28 GMT-0400 (Eastern Daylight Time),62605.89999997616,1600,I,m,587,7,1,2969.7000000476837,59636.199999928474,9034,NTS,C,2
9,3,prac,1,A,circle.png,1,m,Wed Oct 22 2025 15:49:28 GMT-0400 (Eastern Daylight Time),65456.0,1500,I,m,551,8,1,2840.0,62616.0,9034,NTS,C,3
4,4,prac,1,A,circle.png,1,z,Wed Oct 22 2025 15:49:28 GMT-0400 (Eastern Daylight Time),68172.59999990463,1400,I,z,522,4,1,2705.399999976158,65467.199999928474,9034,NTS,C,4
3,5,prac,1,A,circle.png,1,z,Wed Oct 22 2025 15:49:28 GMT-0400 (Eastern Daylight Time),70722.59999990463,1200,I,z,551,3,1,2541.6999999284744,68180.89999997616,9034,NTS,C,5
7,6,prac,1,A,circle.png,1,m,Wed Oct 22 2025 15:49:28 GMT-0400 (Eastern Daylight Time),73855.59999990463,1700,I,m,636,6,1,3120.1999999284744,70735.39999997616,9034,NTS,C,6
3,7,prac,1,A,circle.png,1,z,Wed Oct 22 2025 15:49:28 GMT-0400 (Eastern Daylight Time),76422.09999990463,1200,I,z,579,3,1,2558.5999999046326,73863.5,9034,NTS,C,7
2,8,prac,1,A,circle.png,1,z,Wed Oct 22 2025 15:49:28 GMT-0400 (Eastern Daylight Time),79822.59999990463,2000,I,z,604,2,1,3392.0,76430.59999990463,9034,NTS,C,8
2,9,prac,1,A,circle.png,1,z,Wed Oct 22 2025 15:49:28 GMT-0400 (Eastern Daylight Time),83155.5,2000,I,z,532,2,1,3322.9000000953674,79832.59999990463,9034,NTS,C,9
6,9,prac,1,A,circle.png,0,m,Wed Oct 22 2025 15:49:28 GMT-0400 (Eastern Daylight Time),86455.79999995232,1900,I,z,612,5,1,3291.5,83164.29999995232,9034,NTS,C,10
1,10,prac,1,A,circle.png,1,z,Wed Oct 22 2025 15:49:28 GMT-0400 (Eastern Daylight Time),88839.29999995232,1000,I,z,596,1,1,2371.7999999523163,86467.5,9034,NTS,C,11
1,11,prac,1,A,circle.png,1,z,Wed Oct 22 2025 15:49:28 GMT-0400 (Eastern Daylight Time),91306.0,1000,I,z,676,1,1,2457.3000000715256,88848.69999992847,9034,NTS,C,12
7,1,prac,1,B,triangle.png,1,z,Wed Oct 22 2025 15:49:28 GMT-0400 (Eastern Daylight Time),134272.69999992847,2000,I,z,953,6,1,3740.600000023842,130532.09999990463,9034,NTS,C,1
8,2,prac,1,B,triangle.png,1,m,Wed Oct 22 2025 15:49:28 GMT-0400 (Eastern Daylight Time),136872.5,1200,I,m,611,7,1,2588.0,134284.5,9034,NTS,C,2
8,3,prac,1,B,triangle.png,1,m,Wed Oct 22 2025 15:49:28 GMT-0400 (Eastern Daylight Time),139589.09999990463,1200,I,m,731,7,1,2705.399999976158,136883.69999992847,9034,NTS,C,3
3,4,prac,1,B,triangle.png,1,z,Wed Oct 22 2025 15:49:28 GMT-0400 (Eastern Daylight Time),142622.5,1600,I,z,639,3,1,3021.600000023842,139600.89999997616,9034,NTS,C,4
9,5,prac,1,B,triangle.png,1,z,Wed Oct 22 2025 15:49:28 GMT-0400 (Eastern Daylight Time),145505.79999995232,1400,I,z,668,8,1,2863.0,142642.79999995232,9034,NTS,C,5
1,6,prac,1,B,triangle.png,1,z,Wed Oct 22 2025 15:49:28 GMT-0400 (Eastern Daylight Time),148772.29999995232,1900,I,z,581,1,1,3254.7999999523163,145517.5,9034,NTS,C,6
6,7,prac,1,B,triangle.png,1,m,Wed Oct 22 2025 15:49:28 GMT-0400 (Eastern Daylight Time),151189.09999990463,1000,I,m,631,5,1,2406.5999999046326,148782.5,9034,NTS,C,7
4,8,prac,1,B,triangle.png,1,m,Wed Oct 22 2025 15:49:28 GMT-0400 (Eastern Daylight Time),154205.69999992847,1500,I,m,723,4,1,3002.7999999523163,151202.89999997616,9034,NTS,C,8
4,9,prac,1,B,triangle.png,1,m,Wed Oct 22 2025 15:49:28 GMT-0400 (Eastern Daylight Time),157105.69999992847,1500,I,m,602,4,1,2887.0,154218.69999992847,9034,NTS,C,9
7,10,prac,1,B,triangle.png,1,z,Wed Oct 22 2025 15:49:28 GMT-0400 (Eastern Daylight Time),160588.69999992847,2000,I,z,691,6,1,3473.2999999523163,157115.39999997616,9034,NTS,C,10
2,11,prac,1,B,triangle.png,1,m,Wed Oct 22 2025 15:49:28 GMT-0400 (Eastern Daylight Time),163922.5,1700,I,m,834,2,1,3326.3000000715256,160596.19999992847,9034,NTS,C,11
9,12,prac,1,B,triangle.png,1,z,Wed Oct 22 2025 15:49:28 GMT-0400 (Eastern Daylight Time),167105.79999995232,1400,I,z,985,8,1,3171.899999976158,163933.89999997616,9034,NTS,C,12
3,1,test,1,A,circle.png,1,z,Wed Oct 22 2025 15:49:28 GMT-0400 (Eastern Daylight Time),189738.59999990463,1200,I,z,926,3,1,2150.5999999046326,187588.0,9034,NTS,C,1
6,2,test,1,A,circle.png,1,m,Wed Oct 22 2025 15:49:28 GMT-0400 (Eastern Daylight Time),192255.29999995232,1900,I,m,587,5,1,2510.899999976158,189744.39999997616,9034,NTS,C,2
9,3,test,1,A,circle.png,1,m,Wed Oct 22 2025 15:49:28 GMT-0400 (Eastern Daylight Time),194388.59999990463,1500,I,m,614,8,1,2127.399999976158,192261.19999992847,9034,NTS,C,3
9,4,test,1,A,circle.png,1,m,Wed Oct 22 2025 15:49:28 GMT-0400 (Eastern Daylight Time),196455.69999992847,1500,I,m,544,8,1,2061.100000023842,194394.59999990463,9034,NTS,C,4
8,5,test,1,A,circle.png,1,m,Wed Oct 22 2025 15:49:28 GMT-0400 (Eastern Daylight Time),198722.39999997616,1600,I,m,635,7,1,2255.600000023842,196466.79999995232,9034,NTS,C,5
6,6,test,1,A,circle.png,1,m,Wed Oct 22 2025 15:49:28 GMT-0400 (Eastern Daylight Time),201522.09999990463,1900,I,m,866,5,1,2791.1999999284744,198730.89999997616,9034,NTS,C,6
6,7,test,1,A,circle.png,1,m,Wed Oct 22 2025 15:49:28 GMT-0400 (Eastern Daylight Time),204072.0,1900,I,m,628,5,1,2543.8000000715256,201528.19999992847,9034,NTS,C,7
7,8,test,1,A,circle.png,1,m,Wed Oct 22 2025 15:49:28 GMT-0400 (Eastern Daylight Time),206755.59999990463,1700,I,m,950,6,1,2677.7999999523163,204077.79999995232,9034,NTS,C,8
6,9,test,1,A,circle.png,1,m,Wed Oct 22 2025 15:49:28 GMT-0400 (Eastern Daylight Time),209339.0,1900,I,m,661,5,1,2572.0,206767.0,9034,NTS,C,9
1,10,test,1,A,circle.png,1,z,Wed Oct 22 2025 15:49:28 GMT-0400 (Eastern Daylight Time),211022.29999995232,1000,I,z,656,1,1,1674.8999999761581,209347.39999997616,9034,NTS,C,10
2,11,test,1,A,circle.png,1,z,Wed Oct 22 2025 15:49:28 GMT-0400 (Eastern Daylight Time),213605.89999997616,2000,I,z,564,2,1,2574.7000000476837,211031.19999992847,9034,NTS,C,11
1,12,test,1,A,circle.png,1,z,Wed Oct 22 2025 15:49:28 GMT-0400 (Eastern Daylight Time),215488.79999995232,1000,I,z,854,1,1,1875.0,213613.79999995232,9034,NTS,C,12
8,13,test,1,A,circle.png,1,m,Wed Oct 22 2025 15:49:28 GMT-0400 (Eastern Daylight Time),217688.89999997616,1600,I,m,579,7,1,2190.899999976158,215498.0,9034,NTS,C,13
4,14,test,1,A,circle.png,1,z,Wed Oct 22 2025 15:49:28 GMT-0400 (Eastern Daylight Time),219788.79999995232,1400,I,z,674,4,1,2092.2999999523163,217696.5,9034,NTS,C,14
2,15,test,1,A,circle.png,1,z,Wed Oct 22 2025 15:49:28 GMT-0400 (Eastern Daylight Time),222472.29999995232,2000,I,z,663,2,1,2674.7000000476837,219797.59999990463,9034,NTS,C,15
4,16,test,1,A,circle.png,1,z,Wed Oct 22 2025 15:49:28 GMT-0400 (Eastern Daylight Time),224772.39999997616,1400,I,z,865,4,1,2288.8000000715256,222483.59999990463,9034,NTS,C,16
9,17,test,1,A,circle.png,1,m,Wed Oct 22 2025 15:49:28 GMT-0400 (Eastern Daylight Time),226889.0,1500,I,m,594,8,1,2102.600000023842,224786.39999997616,9034,NTS,C,17
8,18,test,1,A,circle.png,1,m,Wed Oct 22 2025 15:49:28 GMT-0400 (Eastern Daylight Time),229272.29999995232,1600,I,m,760,7,1,2375.0,226897.29999995232,9034,NTS,C,18
3,19,test,1,A,circle.png,1,z,Wed Oct 22 2025 15:49:28 GMT-0400 (Eastern Daylight Time),231439.0,1200,I,z,939,3,1,2153.2000000476837,229285.79999995232,9034,NTS,C,19
7,20,test,1,A,circle.png,1,m,Wed Oct 22 2025 15:49:28 GMT-0400 (Eastern Daylight Time),234438.79999995232,1700,I,m,1280,6,1,2991.2999999523163,231447.5,9034,NTS,C,20
7,21,test,1,A,circle.png,1,m,Wed Oct 22 2025 15:49:28 GMT-0400 (Eastern Daylight Time),236838.69999992847,1700,I,m,680,6,1,2390.2999999523163,234448.39999997616,9034,NTS,C,21
4,22,test,1,A,circle.png,1,z,Wed Oct 22 2025 15:49:28 GMT-0400 (Eastern Daylight Time),238872.19999992847,1400,I,z,612,4,1,2025.6999999284744,236846.5,9034,NTS,C,22
7,23,test,1,A,circle.png,1,m,Wed Oct 22 2025 15:49:28 GMT-0400 (Eastern Daylight Time),241205.59999990463,1700,I,m,597,6,1,2319.399999976158,238886.19999992847,9034,NTS,C,23
3,24,test,1,A,circle.png,1,z,Wed Oct 22 2025 15:49:28 GMT-0400 (Eastern Daylight Time),243038.79999995232,1200,I,z,605,3,1,1818.5,241220.29999995232,9034,NTS,C,24
6,1,test,1,B,triangle.png,1,m,Wed Oct 22 2025 15:49:28 GMT-0400 (Eastern Daylight Time),264655.6999999285,1500,I,m,1305,13,1,2825.5,261830.19999992847,9034,NTS,C,1
7,2,test,1,B,triangle.png,1,z,Wed Oct 22 2025 15:49:28 GMT-0400 (Eastern Daylight Time),267555.59999990463,2000,I,z,868,6,1,2888.2999999523163,264667.2999999523,9034,NTS,C,2
8,3,test,1,B,triangle.png,1,m,Wed Oct 22 2025 15:49:28 GMT-0400 (Eastern Daylight Time),269439.0,1200,I,m,656,7,1,1874.3000000715256,267564.6999999285,9034,NTS,C,3
1,4,test,1,B,triangle.png,1,z,Wed Oct 22 2025 15:49:28 GMT-0400 (Eastern Daylight Time),271472.1999999285,1400,I,z,605,9,1,2021.3999999761581,269450.7999999523,9034,NTS,C,4
4,5,test,1,B,triangle.png,1,m,Wed Oct 22 2025 15:49:28 GMT-0400 (Eastern Daylight Time),273188.89999997616,1000,I,m,699,12,1,1703.0,271485.89999997616,9034,NTS,C,5
9,6,test,1,B,triangle.png,1,z,Wed Oct 22 2025 15:49:28 GMT-0400 (Eastern Daylight Time),275822.2999999523,1900,I,z,707,16,1,2627.0,273195.2999999523,9034,NTS,C,6
9,7,test,1,B,triangle.png,1,z,Wed Oct 22 2025 15:49:28 GMT-0400 (Eastern Daylight Time),277772.2999999523,1400,I,z,525,8,1,1936.1000000238419,275836.1999999285,9034,NTS,C,7
2,8,test,1,B,triangle.png,1,m,Wed Oct 22 2025 15:49:28 GMT-0400 (Eastern Daylight Time),280138.89999997616,1700,I,m,643,2,1,2357.7000000476837,277781.1999999285,9034,NTS,C,8
3,9,test,1,B,triangle.png,1,z,Wed Oct 22 2025 15:49:28 GMT-0400 (Eastern Daylight Time),282755.39999997616,2000,I,z,584,11,1,2606.8000000715256,280148.59999990463,9034,NTS,C,9
2,10,test,1,B,triangle.png,1,m,Wed Oct 22 2025 15:49:28 GMT-0400 (Eastern Daylight Time),284821.6999999285,1200,I,m,847,10,1,2058.399999976158,282763.2999999523,9034,NTS,C,10
9,11,test,1,B,triangle.png,1,z,Wed Oct 22 2025 15:49:28 GMT-0400 (Eastern Daylight Time),287288.39999997616,1900,I,z,545,16,1,2461.399999976158,284827.0,9034,NTS,C,11
6,12,test,1,B,triangle.png,1,m,Wed Oct 22 2025 15:49:28 GMT-0400 (Eastern Daylight Time),289488.1999999285,1500,I,m,671,13,1,2194.5,287293.6999999285,9034,NTS,C,12
3,13,test,1,B,triangle.png,1,z,Wed Oct 22 2025 15:49:28 GMT-0400 (Eastern Daylight Time),291688.7999999523,1600,I,z,580,3,1,2195.2999999523163,289493.5,9034,NTS,C,13
1,14,test,1,B,triangle.png,1,z,Wed Oct 22 2025 15:49:28 GMT-0400 (Eastern Daylight Time),293722.2999999523,1400,I,z,611,9,1,2024.7000000476837,291697.59999990463,9034,NTS,C,14
9,14,test,1,B,triangle.png,0,z,Wed Oct 22 2025 15:49:28 GMT-0400 (Eastern Daylight Time),295739.0,1400,I,m,594,8,1,2003.7000000476837,293735.2999999523,9034,NTS,C,15
7,15,test,1,B,triangle.png,1,z,Wed Oct 22 2025 15:49:28 GMT-0400 (Eastern Daylight Time),298188.7999999523,1600,I,z,824,14,1,2441.600000023842,295747.1999999285,9034,NTS,C,16
4,16,test,1,B,triangle.png,1,m,Wed Oct 22 2025 15:49:28 GMT-0400 (Eastern Daylight Time),300422.6999999285,1500,I,m,715,4,1,2225.399999976158,298197.2999999523,9034,NTS,C,17
4,17,test,1,B,triangle.png,1,m,Wed Oct 22 2025 15:49:28 GMT-0400 (Eastern Daylight Time),302922.1999999285,1500,I,m,977,4,1,2485.899999976158,300436.2999999523,9034,NTS,C,18
8,18,test,1,B,triangle.png,1,m,Wed Oct 22 2025 15:49:28 GMT-0400 (Eastern Daylight Time),305288.89999997616,1700,I,m,645,15,1,2351.899999976158,302937.0,9034,NTS,C,19
8,19,test,1,B,triangle.png,1,m,Wed Oct 22 2025 15:49:28 GMT-0400 (Eastern Daylight Time),307622.6999999285,1700,I,m,616,15,1,2324.899999976158,305297.7999999523,9034,NTS,C,20
6,20,test,1,B,triangle.png,1,m,Wed Oct 22 2025 15:49:28 GMT-0400 (Eastern Daylight Time),309755.59999990463,1000,I,m,1110,5,1,2125.399999976158,307630.1999999285,9034,NTS,C,21
7,21,test,1,B,triangle.png,1,z,Wed Oct 22 2025 15:49:28 GMT-0400 (Eastern Daylight Time),312088.89999997616,1600,I,z,712,14,1,2324.399999976158,309764.5,9034,NTS,C,22
1,22,test,1,B,triangle.png,1,z,Wed Oct 22 2025 15:49:28 GMT-0400 (Eastern Daylight Time),314688.59999990463,1900,I,z,670,1,1,2590.2999999523163,312098.2999999523,9034,NTS,C,23
8,23,test,1,B,triangle.png,1,m,Wed Oct 22 2025 15:49:28 GMT-0400 (Eastern Daylight Time),316638.7999999523,1200,I,m,723,7,1,1945.0,314693.7999999523,9034,NTS,C,24
7,1,prac,1,C,triangle.png,1,z,Wed Oct 22 2025 15:49:28 GMT-0400 (Eastern Daylight Time),368288.5,1200,I,z,1486,6,1,3472.3000000715256,364816.1999999285,9034,NTS,C,1
6,2,prac,1,C,circle.png,1,m,Wed Oct 22 2025 15:49:28 GMT-0400 (Eastern Daylight Time),371872.0,2000,I,m,787,5,1,3576.2000000476837,368295.7999999523,9034,NTS,C,2
9,3,prac,1,C,circle.png,1,m,Wed Oct 22 2025 15:49:28 GMT-0400 (Eastern Daylight Time),375622.39999997616,1900,I,m,1064,8,1,3743.399999976158,371879.0,9034,NTS,C,3
8,3,prac,1,C,triangle.png,0,m,Wed Oct 22 2025 15:49:28 GMT-0400 (Eastern Daylight Time),378655.39999997616,1400,I,z,837,7,1,3021.899999976158,375633.5,9034,NTS,C,4
3,4,prac,1,C,triangle.png,1,z,Wed Oct 22 2025 15:49:28 GMT-0400 (Eastern Daylight Time),382089.09999990463,1500,I,z,1143,3,1,3426.2999999523163,378662.7999999523,9034,NTS,C,5
1,5,prac,1,C,circle.png,1,z,Wed Oct 22 2025 15:49:28 GMT-0400 (Eastern Daylight Time),385455.59999990463,1700,I,z,871,1,1,3352.899999976158,382102.6999999285,9034,NTS,C,6
3,6,prac,1,C,triangle.png,1,z,Wed Oct 22 2025 15:49:28 GMT-0400 (Eastern Daylight Time),389089.09999990463,1500,I,z,1337,3,1,3619.7999999523163,385469.2999999523,9034,NTS,C,7
2,6,prac,1,C,triangle.png,0,m,Wed Oct 22 2025 15:49:28 GMT-0400 (Eastern Daylight Time),392988.7999999523,1600,I,None,1516,2,1,3889.0,389099.7999999523,9034,NTS,C,8
2,6,prac,1,C,triangle.png,0,m,Wed Oct 22 2025 15:49:28 GMT-0400 (Eastern Daylight Time),396005.39999997616,1600,I,z,632,2,1,3006.2000000476837,392999.1999999285,9034,NTS,C,9
1,7,prac,1,C,circle.png,1,z,Wed Oct 22 2025 15:49:28 GMT-0400 (Eastern Daylight Time),399738.89999997616,1700,I,z,1242,1,1,3722.5,396016.39999997616,9034,NTS,C,10
6,8,prac,1,C,circle.png,1,m,Wed Oct 22 2025 15:49:28 GMT-0400 (Eastern Daylight Time),403238.89999997616,2000,I,m,696,5,1,3481.8000000715256,399757.09999990463,9034,NTS,C,11
4,8,prac,1,C,circle.png,0,z,Wed Oct 22 2025 15:49:28 GMT-0400 (Eastern Daylight Time),405855.89999997616,1000,I,m,821,4,1,2605.399999976158,403250.5,9034,NTS,C,12
7,0,test,1,C,triangle.png,0,z,Wed Oct 22 2025 15:49:28 GMT-0400 (Eastern Daylight Time),443072.2999999523,1700,I,None,1516,6,1,3219.2999999523163,439853.0,9034,NTS,C,1
6,1,test,1,C,circle.png,1,m,Wed Oct 22 2025 15:49:28 GMT-0400 (Eastern Daylight Time),446005.59999990463,1900,I,m,1016,5,1,2923.6999999284744,443081.89999997616,9034,NTS,C,2
6,2,test,1,C,circle.png,1,m,Wed Oct 22 2025 15:49:28 GMT-0400 (Eastern Daylight Time),448805.39999997616,1900,I,m,882,21,1,2785.7000000476837,446019.6999999285,9034,NTS,C,3
3,3,test,1,C,circle.png,1,z,Wed Oct 22 2025 15:49:28 GMT-0400 (Eastern Daylight Time),451388.6999999285,1600,I,z,958,11,1,2572.7999999523163,448815.89999997616,9034,NTS,C,4
6,3,test,1,C,triangle.png,0,m,Wed Oct 22 2025 15:49:28 GMT-0400 (Eastern Daylight Time),453938.7999999523,1000,I,None,1516,13,1,2539.2999999523163,451399.5,9034,NTS,C,5
8,4,test,1,C,triangle.png,1,m,Wed Oct 22 2025 15:49:28 GMT-0400 (Eastern Daylight Time),456238.5,1600,I,m,673,23,1,2288.9000000953674,453949.59999990463,9034,NTS,C,6
1,5,test,1,C,triangle.png,1,z,Wed Oct 22 2025 15:49:28 GMT-0400 (Eastern Daylight Time),459188.6999999285,1900,I,z,1017,17,1,2944.899999976158,456243.7999999523,9034,NTS,C,7
4,5,test,1,C,triangle.png,0,m,Wed Oct 22 2025 15:49:28 GMT-0400 (Eastern Daylight Time),462222.2999999523,1500,I,None,1517,12,1,3025.399999976158,459196.89999997616,9034,NTS,C,8
4,5,test,1,C,circle.png,0,z,Wed Oct 22 2025 15:49:28 GMT-0400 (Eastern Daylight Time),464622.0,1400,I,m,957,4,1,2383.3000000715256,462238.6999999285,9034,NTS,C,9
2,5,test,1,C,circle.png,0,z,Wed Oct 22 2025 15:49:28 GMT-0400 (Eastern Daylight Time),467855.59999990463,1700,I,None,1516,10,1,3219.0,464636.59999990463,9034,NTS,C,10
2,5,test,1,C,triangle.png,0,m,Wed Oct 22 2025 15:49:28 GMT-0400 (Eastern Daylight Time),471238.6999999285,2000,I,z,1364,2,1,3372.899999976158,467865.7999999523,9034,NTS,C,11
1,6,test,1,C,circle.png,1,z,Wed Oct 22 2025 15:49:28 GMT-0400 (Eastern Daylight Time),473688.6999999285,1000,I,z,1429,1,1,2439.600000023842,471249.09999990463,9034,NTS,C,12
9,7,test,1,C,circle.png,1,m,Wed Oct 22 2025 15:49:28 GMT-0400 (Eastern Daylight Time),476455.09999990463,1500,I,m,1246,24,1,2751.5999999046326,473703.5,9034,NTS,C,13
2,7,test,1,C,circle.png,0,z,Wed Oct 22 2025 15:49:28 GMT-0400 (Eastern Daylight Time),479238.6999999285,1700,I,m,1064,18,1,2777.7999999523163,476460.89999997616,9034,NTS,C,14
9,7,test,1,C,circle.png,0,m,Wed Oct 22 2025 15:49:28 GMT-0400 (Eastern Daylight Time),482272.1999999285,1500,I,None,1516,8,1,3019.600000023842,479252.59999990463,9034,NTS,C,15
1,8,test,1,C,triangle.png,1,z,Wed Oct 22 2025 15:49:28 GMT-0400 (Eastern Daylight Time),485538.59999990463,1900,I,z,1336,9,1,3257.5,482281.09999990463,9034,NTS,C,16
9,8,test,1,C,triangle.png,0,z,Wed Oct 22 2025 15:49:28 GMT-0400 (Eastern Daylight Time),488472.1999999285,1400,I,None,1516,16,1,2925.0,485547.1999999285,9034,NTS,C,17
3,9,test,1,C,triangle.png,1,z,Wed Oct 22 2025 15:49:28 GMT-0400 (Eastern Daylight Time),490705.5,1200,I,z,1004,3,1,2221.0,488484.5,9034,NTS,C,18
7,10,test,1,C,circle.png,1,m,Wed Oct 22 2025 15:49:28 GMT-0400 (Eastern Daylight Time),494038.59999990463,2000,I,m,1315,14,1,3319.5,490719.09999990463,9034,NTS,C,19
8,11,test,1,C,circle.png,1,m,Wed Oct 22 2025 15:49:28 GMT-0400 (Eastern Daylight Time),496422.0,1200,I,m,1165,15,1,2375.9000000953674,494046.09999990463,9034,NTS,C,20
8,11,test,1,C,triangle.png,0,m,Wed Oct 22 2025 15:49:28 GMT-0400 (Eastern Daylight Time),499572.1999999285,1600,I,None,1516,7,1,3134.6999999284744,496437.5,9034,NTS,C,21
7,12,test,1,C,triangle.png,1,z,Wed Oct 22 2025 15:49:28 GMT-0400 (Eastern Daylight Time),502605.2999999523,1700,I,z,1308,22,1,3025.2999999523163,499580.0,9034,NTS,C,22
3,12,test,1,C,circle.png,0,z,Wed Oct 22 2025 15:49:28 GMT-0400 (Eastern Daylight Time),505738.7999999523,1600,I,None,1516,19,1,3125.0,502613.7999999523,9034,NTS,C,23
4,12,test,1,C,triangle.png,0,m,Wed Oct 22 2025 15:49:28 GMT-0400 (Eastern Daylight Time),508772.0,1500,I,None,1516,20,1,3023.3000000715256,505748.6999999285,9034,NTS,C,24
4,0,test,2,C,triangle.png,0,m,Wed Oct 22 2025 15:49:28 GMT-0400 (Eastern Daylight Time),531472.2999999523,1500,I,None,1516,12,1,3026.7000000476837,528445.5999999046,9034,NTS,C,1
1,1,test,2,C,triangle.png,1,z,Wed Oct 22 2025 15:49:28 GMT-0400 (Eastern Daylight Time),534405.1999999285,1900,I,z,1000,9,1,2920.600000023842,531484.5999999046,9034,NTS,C,2
7,1,test,2,C,circle.png,0,m,Wed Oct 22 2025 15:49:28 GMT-0400 (Eastern Daylight Time),537938.7999999523,2000,I,None,1516,14,1,3528.7000000476837,534410.0999999046,9034,NTS,C,3
9,2,test,2,C,circle.png,1,m,Wed Oct 22 2025 15:49:28 GMT-0400 (Eastern Daylight Time),540171.6999999285,1500,I,m,708,8,1,2224.2999999523163,537947.3999999762,9034,NTS,C,4
8,3,test,2,C,circle.png,1,m,Wed Oct 22 2025 15:49:28 GMT-0400 (Eastern Daylight Time),542006.0,1200,I,m,616,23,1,1828.5,540177.5,9034,NTS,C,5
4,3,test,2,C,triangle.png,0,m,Wed Oct 22 2025 15:49:28 GMT-0400 (Eastern Daylight Time),544305.2999999523,1500,I,z,770,20,1,2291.2999999523163,542014.0,9034,NTS,C,6
3,3,test,2,C,triangle.png,0,z,Wed Oct 22 2025 15:49:28 GMT-0400 (Eastern Daylight Time),547038.7999999523,1200,I,None,1516,3,1,2723.2999999523163,544315.5,9034,NTS,C,7
1,3,test,2,C,triangle.png,0,z,Wed Oct 22 2025 15:49:28 GMT-0400 (Eastern Daylight Time),550472.0,1900,I,None,1516,17,1,3424.8000000715256,547047.1999999285,9034,NTS,C,8
1,4,test,2,C,circle.png,1,z,Wed Oct 22 2025 15:49:28 GMT-0400 (Eastern Daylight Time),552805.5,1000,I,z,1315,1,1,2319.2000000476837,550486.2999999523,9034,NTS,C,9
7,5,test,2,C,circle.png,1,m,Wed Oct 22 2025 15:49:28 GMT-0400 (Eastern Daylight Time),555955.5,2000,I,m,1118,22,1,3141.8000000715256,552813.6999999285,9034,NTS,C,10
9,6,test,2,C,triangle.png,1,z,Wed Oct 22 2025 15:49:28 GMT-0400 (Eastern Daylight Time),558872.0,1400,I,z,1497,16,1,2907.8000000715256,555964.1999999285,9034,NTS,C,11
3,6,test,2,C,circle.png,0,z,Wed Oct 22 2025 15:49:28 GMT-0400 (Eastern Daylight Time),562005.1999999285,1600,I,None,1516,19,1,3124.7999999523163,558880.3999999762,9034,NTS,C,12
8,6,test,2,C,triangle.png,0,m,Wed Oct 22 2025 15:49:28 GMT-0400 (Eastern Daylight Time),565138.7999999523,1600,I,None,1516,7,1,3127.5,562011.2999999523,9034,NTS,C,13
2,6,test,2,C,circle.png,0,z,Wed Oct 22 2025 15:49:28 GMT-0400 (Eastern Daylight Time),568188.7999999523,1700,I,m,1325,18,1,3040.5,565148.2999999523,9034,NTS,C,14
3,7,test,2,C,circle.png,1,z,Wed Oct 22 2025 15:49:28 GMT-0400 (Eastern Daylight Time),570922.0,1600,I,z,1111,11,1,2724.5,568197.5,9034,NTS,C,15
2,8,test,2,C,circle.png,1,z,Wed Oct 22 2025 15:49:28 GMT-0400 (Eastern Daylight Time),573688.5999999046,1700,I,z,1046,10,1,2757.7999999523163,570930.7999999523,9034,NTS,C,16
7,9,test,2,C,triangle.png,1,z,Wed Oct 22 2025 15:49:28 GMT-0400 (Eastern Daylight Time),576888.7999999523,1700,I,z,1479,6,1,3190.899999976158,573697.8999999762,9034,NTS,C,17
6,10,test,2,C,circle.png,1,m,Wed Oct 22 2025 15:49:28 GMT-0400 (Eastern Daylight Time),579872.0999999046,1900,I,m,1038,5,1,2967.6999999284744,576904.3999999762,9034,NTS,C,18
9,11,test,2,C,triangle.png,1,z,Wed Oct 22 2025 15:49:28 GMT-0400 (Eastern Daylight Time),582422.1999999285,1400,I,z,1132,24,1,2540.899999976158,579881.2999999523,9034,NTS,C,19
8,12,test,2,C,circle.png,1,m,Wed Oct 22 2025 15:49:28 GMT-0400 (Eastern Daylight Time),584522.0999999046,1200,I,m,878,15,1,2093.5999999046326,582428.5,9034,NTS,C,20
6,12,test,2,C,triangle.png,0,m,Wed Oct 22 2025 15:49:28 GMT-0400 (Eastern Daylight Time),587055.1999999285,1000,I,None,1516,21,1,2521.7999999523163,584533.3999999762,9034,NTS,C,21
4,12,test,2,C,circle.png,0,z,Wed Oct 22 2025 15:49:28 GMT-0400 (Eastern Daylight Time),589988.6999999285,1400,I,None,1517,4,1,2925.2999999523163,587063.3999999762,9034,NTS,C,22
2,13,test,2,C,triangle.png,1,m,Wed Oct 22 2025 15:49:28 GMT-0400 (Eastern Daylight Time),593288.6999999285,2000,I,m,1279,2,1,3291.100000023842,589997.5999999046,9034,NTS,C,23
6,13,test,2,C,triangle.png,0,m,Wed Oct 22 2025 15:49:28 GMT-0400 (Eastern Daylight Time),595822.0,1000,I,None,1516,13,1,2523.2000000476837,593298.7999999523,9034,NTS,C,24
1,1,test,3,C,triangle.png,1,z,Wed Oct 22 2025 15:49:28 GMT-0400 (Eastern Daylight Time),602038.5999999046,1900,I,z,1281,9,1,3196.0,598842.5999999046,9034,NTS,C,1
6,1,test,3,C,circle.png,0,m,Wed Oct 22 2025 15:49:28 GMT-0400 (Eastern Daylight Time),605472.0,1900,I,None,1517,21,1,3422.9000000953674,602049.0999999046,9034,NTS,C,2
2,1,test,3,C,triangle.png,0,m,Wed Oct 22 2025 15:49:28 GMT-0400 (Eastern Daylight Time),608338.5999999046,2000,I,z,836,2,1,2857.5,605481.0999999046,9034,NTS,C,3
2,2,test,3,C,triangle.png,1,m,Wed Oct 22 2025 15:49:28 GMT-0400 (Eastern Daylight Time),611755.3999999762,2000,I,m,1393,18,1,3405.2000000476837,608350.1999999285,9034,NTS,C,4
1,3,test,3,C,circle.png,1,z,Wed Oct 22 2025 15:49:28 GMT-0400 (Eastern Daylight Time),613938.3999999762,1000,I,z,1151,17,1,2173.8000000715256,611764.5999999046,9034,NTS,C,5
3,3,test,3,C,circle.png,0,z,Wed Oct 22 2025 15:49:28 GMT-0400 (Eastern Daylight Time),617005.2999999523,1600,I,m,1440,11,1,3061.600000023842,613943.6999999285,9034,NTS,C,6
9,4,test,3,C,triangle.png,1,z,Wed Oct 22 2025 15:49:28 GMT-0400 (Eastern Daylight Time),619788.5999999046,1400,I,z,1358,16,1,2775.7999999523163,617012.7999999523,9034,NTS,C,7
8,4,test,3,C,triangle.png,0,m,Wed Oct 22 2025 15:49:28 GMT-0400 (Eastern Daylight Time),622871.7999999523,1600,I,z,1463,7,1,3068.5,619803.2999999523,9034,NTS,C,8
6,4,test,3,C,circle.png,0,m,Wed Oct 22 2025 15:49:28 GMT-0400 (Eastern Daylight Time),626305.5,1900,I,None,1516,5,1,3424.8000000715256,622880.6999999285,9034,NTS,C,9
7,4,test,3,C,circle.png,0,m,Wed Oct 22 2025 15:49:28 GMT-0400 (Eastern Daylight Time),629038.6999999285,2000,I,z,707,14,1,2724.5,626314.1999999285,9034,NTS,C,10
7,5,test,3,C,triangle.png,1,z,Wed Oct 22 2025 15:49:28 GMT-0400 (Eastern Daylight Time),631738.5999999046,1700,I,z,960,6,1,2684.7999999523163,629053.7999999523,9034,NTS,C,11
4,6,test,3,C,circle.png,1,z,Wed Oct 22 2025 15:49:28 GMT-0400 (Eastern Daylight Time),634338.5,1400,I,z,1169,4,1,2585.7000000476837,631752.7999999523,9034,NTS,C,12
9,7,test,3,C,circle.png,1,m,Wed Oct 22 2025 15:49:28 GMT-0400 (Eastern Daylight Time),636588.5999999046,1500,I,m,725,24,1,2241.0999999046326,634347.5,9034,NTS,C,13
8,8,test,3,C,circle.png,1,m,Wed Oct 22 2025 15:49:28 GMT-0400 (Eastern Daylight Time),638555.1999999285,1200,I,m,742,15,1,1958.0,636597.1999999285,9034,NTS,C,14
8,8,test,3,C,triangle.png,0,m,Wed Oct 22 2025 15:49:28 GMT-0400 (Eastern Daylight Time),641055.2999999523,1600,I,z,873,23,1,2491.399999976158,638563.8999999762,9034,NTS,C,15
4,9,test,3,C,circle.png,1,z,Wed Oct 22 2025 15:49:28 GMT-0400 (Eastern Daylight Time),643772.0,1400,I,z,1292,20,1,2705.9000000953674,641066.0999999046,9034,NTS,C,16
3,10,test,3,C,triangle.png,1,z,Wed Oct 22 2025 15:49:28 GMT-0400 (Eastern Daylight Time),646205.1999999285,1200,I,z,1208,19,1,2424.5,643780.6999999285,9034,NTS,C,17
4,10,test,3,C,triangle.png,0,m,Wed Oct 22 2025 15:49:28 GMT-0400 (Eastern Daylight Time),648955.3999999762,1500,I,z,1226,12,1,2741.3000000715256,646214.0999999046,9034,NTS,C,18
6,11,test,3,C,triangle.png,1,m,Wed Oct 22 2025 15:49:28 GMT-0400 (Eastern Daylight Time),651055.1999999285,1000,I,m,1056,13,1,2084.0,648971.1999999285,9034,NTS,C,19
9,12,test,3,C,circle.png,1,m,Wed Oct 22 2025 15:49:28 GMT-0400 (Eastern Daylight Time),653888.6999999285,1500,I,m,1305,8,1,2822.399999976158,651066.2999999523,9034,NTS,C,20
3,13,test,3,C,triangle.png,1,z,Wed Oct 22 2025 15:49:28 GMT-0400 (Eastern Daylight Time),656404.8999999762,1200,I,z,1298,3,1,2506.8000000715256,653898.0999999046,9034,NTS,C,21
2,14,test,3,C,circle.png,1,z,Wed Oct 22 2025 15:49:28 GMT-0400 (Eastern Daylight Time),659605.6999999285,1700,I,z,1482,10,1,3191.600000023842,656414.0999999046,9034,NTS,C,22
1,15,test,3,C,circle.png,1,z,Wed Oct 22 2025 15:49:28 GMT-0400 (Eastern Daylight Time),662088.5999999046,1000,I,z,1462,1,1,2474.5999999046326,659614.0,9034,NTS,C,23
7,15,test,3,C,triangle.png,0,z,Wed Oct 22 2025 15:49:28 GMT-0400 (Eastern Daylight Time),665321.8999999762,1700,I,None,1516,22,1,3224.5,662097.3999999762,9034,NTS,C,24
6,1,test,4,C,triangle.png,1,m,Wed Oct 22 2025 15:49:28 GMT-0400 (Eastern Daylight Time),669272.0,1000,I,m,1346,13,1,2352.8000000715256,666919.1999999285,9034,NTS,C,1
7,2,test,4,C,triangle.png,1,z,Wed Oct 22 2025 15:49:28 GMT-0400 (Eastern Daylight Time),671922.0,1700,I,z,920,6,1,2637.8000000715256,669284.1999999285,9034,NTS,C,2
8,3,test,4,C,triangle.png,1,m,Wed Oct 22 2025 15:49:28 GMT-0400 (Eastern Daylight Time),674438.5,1600,I,m,898,23,1,2506.4000000953674,671932.0999999046,9034,NTS,C,3
1,4,test,4,C,circle.png,1,z,Wed Oct 22 2025 15:49:28 GMT-0400 (Eastern Daylight Time),676521.8999999762,1000,I,z,1062,1,1,2071.7000000476837,674450.1999999285,9034,NTS,C,4
3,5,test,4,C,circle.png,1,z,Wed Oct 22 2025 15:49:28 GMT-0400 (Eastern Daylight Time),678955.2999999523,1600,I,z,810,11,1,2424.100000023842,676531.1999999285,9034,NTS,C,5
9,6,test,4,C,circle.png,1,m,Wed Oct 22 2025 15:49:28 GMT-0400 (Eastern Daylight Time),681438.5,1500,I,m,956,8,1,2475.5,678963.0,9034,NTS,C,6
8,7,test,4,C,circle.png,1,m,Wed Oct 22 2025 15:49:28 GMT-0400 (Eastern Daylight Time),683438.5999999046,1200,I,m,774,15,1,1991.5,681447.0999999046,9034,NTS,C,7
9,8,test,4,C,circle.png,1,m,Wed Oct 22 2025 15:49:28 GMT-0400 (Eastern Daylight Time),685755.2999999523,1500,I,m,793,24,1,2306.600000023842,683448.6999999285,9034,NTS,C,8
7,9,test,4,C,triangle.png,1,z,Wed Oct 22 2025 15:49:28 GMT-0400 (Eastern Daylight Time),688255.3999999762,1700,I,z,773,22,1,2486.8000000715256,685768.5999999046,9034,NTS,C,9
6,10,test,4,C,circle.png,1,m,Wed Oct 22 2025 15:49:28 GMT-0400 (Eastern Daylight Time),690872.0,1900,I,m,697,21,1,2606.4000000953674,688265.5999999046,9034,NTS,C,10
7,11,test,4,C,circle.png,1,m,Wed Oct 22 2025 15:49:28 GMT-0400 (Eastern Daylight Time),694121.8999999762,2000,I,m,1228,14,1,3240.600000023842,690881.2999999523,9034,NTS,C,11
2,11,test,4,C,triangle.png,0,m,Wed Oct 22 2025 15:49:28 GMT-0400 (Eastern Daylight Time),697105.3999999762,2000,I,z,954,18,1,2974.100000023842,694131.2999999523,9034,NTS,C,12
9,12,test,4,C,triangle.png,1,z,Wed Oct 22 2025 15:49:28 GMT-0400 (Eastern Daylight Time),699588.5999999046,1400,I,z,1050,16,1,2474.2999999523163,697114.2999999523,9034,NTS,C,13
8,13,test,4,C,triangle.png,1,m,Wed Oct 22 2025 15:49:28 GMT-0400 (Eastern Daylight Time),701988.2999999523,1600,I,m,766,7,1,2387.7999999523163,699600.5,9034,NTS,C,14
3,14,test,4,C,triangle.png,1,z,Wed Oct 22 2025 15:49:28 GMT-0400 (Eastern Daylight Time),703938.5999999046,1200,I,z,718,19,1,1944.1999999284744,701994.3999999762,9034,NTS,C,15
3,15,test,4,C,triangle.png,1,z,Wed Oct 22 2025 15:49:28 GMT-0400 (Eastern Daylight Time),705921.5999999046,1200,I,z,752,3,1,1974.3999999761581,703947.1999999285,9034,NTS,C,16
4,15,test,4,C,circle.png,0,z,Wed Oct 22 2025 15:49:28 GMT-0400 (Eastern Daylight Time),708221.7999999523,1400,I,m,874,20,1,2293.0,705928.7999999523,9034,NTS,C,17
2,16,test,4,C,triangle.png,1,m,Wed Oct 22 2025 15:49:28 GMT-0400 (Eastern Daylight Time),711638.2999999523,2000,I,m,1398,2,1,3411.2999999523163,708227.0,9034,NTS,C,18
1,17,test,4,C,triangle.png,1,z,Wed Oct 22 2025 15:49:28 GMT-0400 (Eastern Daylight Time),714671.7999999523,1900,I,z,1106,9,1,3020.5,711651.2999999523,9034,NTS,C,19
6,18,test,4,C,circle.png,1,m,Wed Oct 22 2025 15:49:28 GMT-0400 (Eastern Daylight Time),717471.7999999523,1900,I,m,872,5,1,2788.7000000476837,714683.0999999046,9034,NTS,C,20
1,19,test,4,C,circle.png,1,z,Wed Oct 22 2025 15:49:28 GMT-0400 (Eastern Daylight Time),719471.8999999762,1000,I,z,972,17,1,1994.5,717477.3999999762,9034,NTS,C,21
4,20,test,4,C,circle.png,1,z,Wed Oct 22 2025 15:49:28 GMT-0400 (Eastern Daylight Time),721938.6999999285,1400,I,z,1036,4,1,2458.1999999284744,719480.5,9034,NTS,C,22
2,21,test,4,C,circle.png,1,z,Wed Oct 22 2025 15:49:28 GMT-0400 (Eastern Daylight Time),724438.5,1700,I,z,765,10,1,2484.600000023842,721953.8999999762,9034,NTS,C,23
4,22,test,4,C,triangle.png,1,m,Wed Oct 22 2025 15:49:28 GMT-0400 (Eastern Daylight Time),726988.5999999046,1500,I,m,1025,12,1,2541.0,724447.5999999046,9034,NTS,C,24
