acc_sum,block,block_c,block_cond,con_img,correct,correct_response,datetime,endtime,face,jitter,line,project,response,response_time,row_sel,session_number,start_end,starttime,subject_id,task,task_vers,trial
1,prac,1,A,haborder.png,1,z,Tue Jun 03 2025 08:40:59 GMT-0500 (Central Daylight Time),68373.30000000075,CFD-WF-037-016-A.jpg,1600,solid,O,z,1040,10,1,3430.0,64943.300000000745,7160,ATS,C,1
2,prac,1,A,haborder.png,1,m,Tue Jun 03 2025 08:40:59 GMT-0500 (Central Daylight Time),71423.30000000075,CFD-BM-034-035-HC.jpg,1700,solid,O,m,558,1,1,6480.0,64943.300000000745,7160,ATS,C,2
3,prac,1,A,haborder.png,1,z,Tue Jun 03 2025 08:40:59 GMT-0500 (Central Daylight Time),73923.39999999851,CFD-BF-031-020-A.jpg,1000,solid,O,z,707,4,1,8980.099999997765,64943.300000000745,7160,ATS,C,3
4,prac,1,A,haborder.png,1,m,Tue Jun 03 2025 08:40:59 GMT-0500 (Central Daylight Time),76722.0,CFD-WM-028-005-HC.jpg,1400,solid,O,m,605,7,1,11778.699999999255,64943.300000000745,7160,ATS,C,4
5,prac,1,A,haborder.png,1,m,Tue Jun 03 2025 08:40:59 GMT-0500 (Central Daylight Time),80505.30000000075,CFD-BF-019-004-HC.jpg,2000,solid,O,m,990,5,1,15562.0,64943.300000000745,7160,ATS,C,5
6,prac,1,A,haborder.png,1,z,Tue Jun 03 2025 08:40:59 GMT-0500 (Central Daylight Time),83154.69999999925,CFD-BF-002-018-A.jpg,1200,solid,O,z,656,6,1,18211.39999999851,64943.300000000745,7160,ATS,C,6
7,prac,1,A,haborder.png,1,m,Tue Jun 03 2025 08:40:59 GMT-0500 (Central Daylight Time),86436.30000000075,CFD-WM-035-036-HC.jpg,1700,solid,O,m,779,9,1,21493.0,64943.300000000745,7160,ATS,C,7
8,prac,1,A,haborder.png,1,z,Tue Jun 03 2025 08:40:59 GMT-0500 (Central Daylight Time),89901.89999999851,CFD-WM-036-018-A.jpg,1900,solid,O,z,774,8,1,24958.599999997765,64943.300000000745,7160,ATS,C,8
9,prac,1,A,haborder.png,1,z,Tue Jun 03 2025 08:40:59 GMT-0500 (Central Daylight Time),93084.80000000075,CFD-BM-043-014-A.jpg,1600,solid,O,z,793,2,1,28141.5,64943.300000000745,7160,ATS,C,9
10,prac,1,A,haborder.png,1,m,Tue Jun 03 2025 08:40:59 GMT-0500 (Central Daylight Time),96234.39999999851,CFD-BM-022-004-HC.jpg,1500,solid,O,m,857,3,1,31291.099999997765,64943.300000000745,7160,ATS,C,10
11,prac,1,A,haborder.png,1,m,Tue Jun 03 2025 08:40:59 GMT-0500 (Central Daylight Time),99299.89999999851,CFD-WF-013-009-HC.jpg,1500,solid,O,m,772,11,1,34356.599999997765,64943.300000000745,7160,ATS,C,11
12,prac,1,A,haborder.png,1,z,Tue Jun 03 2025 08:40:59 GMT-0500 (Central Daylight Time),101965.19999999925,CFD-WF-023-013-A.jpg,1000,solid,O,z,853,12,1,37021.89999999851,64943.300000000745,7160,ATS,C,12
0,prac,1,B,mfborder.png,0,m,Tue Jun 03 2025 08:40:59 GMT-0500 (Central Daylight Time),135856.80000000075,CFD-BM-021-026-A.jpg,1600,2,O,None,1501,dash,1,3886.10000000149,131970.69999999925,7160,ATS,C,1
1,prac,1,B,mfborder.png,1,z,Tue Jun 03 2025 08:40:59 GMT-0500 (Central Daylight Time),139453.5,CFD-BF-042-031-HC.jpg,1500,3,O,z,1302,dash,1,7482.800000000745,131970.69999999925,7160,ATS,C,2
2,prac,1,B,mfborder.png,1,m,Tue Jun 03 2025 08:40:59 GMT-0500 (Central Daylight Time),143202.30000000075,CFD-WM-036-018-A.jpg,1700,9,O,m,1256,dash,1,11231.60000000149,131970.69999999925,7160,ATS,C,3
3,prac,1,B,mfborder.png,1,z,Tue Jun 03 2025 08:40:59 GMT-0500 (Central Daylight Time),146300.6000000015,CFD-WF-037-016-A.jpg,1500,11,O,z,802,dash,1,14329.900000002235,131970.69999999925,7160,ATS,C,4
4,prac,1,B,mfborder.png,1,m,Tue Jun 03 2025 08:40:59 GMT-0500 (Central Daylight Time),149499.6000000015,CFD-BM-022-004-HC.jpg,1700,1,O,m,714,dash,1,17528.900000002235,131970.69999999925,7160,ATS,C,5
5,prac,1,B,mfborder.png,1,z,Tue Jun 03 2025 08:40:59 GMT-0500 (Central Daylight Time),152016.30000000075,CFD-BF-031-020-A.jpg,1000,4,O,z,732,dash,1,20045.60000000149,131970.69999999925,7160,ATS,C,6
6,prac,1,B,mfborder.png,1,m,Tue Jun 03 2025 08:40:59 GMT-0500 (Central Daylight Time),154815.69999999925,CFD-WM-034-040-A.jpg,1200,6,O,m,826,dash,1,22845.0,131970.69999999925,7160,ATS,C,7
7,prac,1,B,mfborder.png,1,z,Tue Jun 03 2025 08:40:59 GMT-0500 (Central Daylight Time),157180.80000000075,CFD-WF-013-009-HC.jpg,1000,12,O,z,578,dash,1,25210.10000000149,131970.69999999925,7160,ATS,C,8
8,prac,1,B,mfborder.png,1,m,Tue Jun 03 2025 08:40:59 GMT-0500 (Central Daylight Time),160630.80000000075,CFD-BM-043-014-A.jpg,2000,5,O,m,660,dash,1,28660.10000000149,131970.69999999925,7160,ATS,C,9
9,prac,1,B,mfborder.png,1,z,Tue Jun 03 2025 08:40:59 GMT-0500 (Central Daylight Time),164061.1000000015,CFD-WF-001-010-HC.jpg,1900,8,O,z,743,dash,1,32090.400000002235,131970.69999999925,7160,ATS,C,10
10,prac,1,B,mfborder.png,1,z,Tue Jun 03 2025 08:40:59 GMT-0500 (Central Daylight Time),167012.1000000015,CFD-BF-019-004-HC.jpg,1400,7,O,z,755,dash,1,35041.400000002235,131970.69999999925,7160,ATS,C,11
11,prac,1,B,mfborder.png,1,m,Tue Jun 03 2025 08:40:59 GMT-0500 (Central Daylight Time),170510.6000000015,CFD-WM-035-036-HC.jpg,1600,10,O,m,1110,dash,1,38539.900000002235,131970.69999999925,7160,ATS,C,12
1,test,1,A,haborder.png,1,m,Tue Jun 03 2025 08:40:59 GMT-0500 (Central Daylight Time),190369.80000000075,CFD-BM-034-035-HC.jpg,1700,solid,O,m,684,1,1,2414.300000000745,187955.5,7160,ATS,C,1
2,test,1,A,haborder.png,1,m,Tue Jun 03 2025 08:40:59 GMT-0500 (Central Daylight Time),192668.80000000075,CFD-WM-035-036-HC.jpg,1700,solid,O,m,580,9,1,4713.300000000745,187955.5,7160,ATS,C,2
2,test,1,A,haborder.png,0,z,Tue Jun 03 2025 08:40:59 GMT-0500 (Central Daylight Time),195884.0,CFD-WM-036-018-A.jpg,1900,solid,O,m,1296,8,1,7928.5,187955.5,7160,ATS,C,3
3,test,1,A,haborder.png,1,m,Tue Jun 03 2025 08:40:59 GMT-0500 (Central Daylight Time),198617.3999999985,CFD-BM-022-004-HC.jpg,1500,solid,O,m,1202,3,1,10661.89999999851,187955.5,7160,ATS,C,4
4,test,1,A,haborder.png,1,m,Tue Jun 03 2025 08:40:59 GMT-0500 (Central Daylight Time),201365.80000000075,CFD-BM-034-035-HC.jpg,1700,solid,O,m,1020,1,1,13410.300000000745,187955.5,7160,ATS,C,5
5,test,1,A,haborder.png,1,z,Tue Jun 03 2025 08:40:59 GMT-0500 (Central Daylight Time),203517.30000000075,CFD-WF-037-016-A.jpg,1600,solid,O,z,531,10,1,15561.800000000745,187955.5,7160,ATS,C,6
6,test,1,A,haborder.png,1,m,Tue Jun 03 2025 08:40:59 GMT-0500 (Central Daylight Time),205697.69999999925,CFD-WF-013-009-HC.jpg,1500,solid,O,m,657,11,1,17742.199999999255,187955.5,7160,ATS,C,7
7,test,1,A,haborder.png,1,m,Tue Jun 03 2025 08:40:59 GMT-0500 (Central Daylight Time),208463.0,CFD-BF-019-004-HC.jpg,2000,solid,O,m,733,5,1,20507.5,187955.5,7160,ATS,C,8
8,test,1,A,haborder.png,1,m,Tue Jun 03 2025 08:40:59 GMT-0500 (Central Daylight Time),210646.80000000075,CFD-WM-028-005-HC.jpg,1400,solid,O,m,751,7,1,22691.300000000745,187955.5,7160,ATS,C,9
9,test,1,A,haborder.png,1,m,Tue Jun 03 2025 08:40:59 GMT-0500 (Central Daylight Time),213511.80000000075,CFD-BF-019-004-HC.jpg,2000,solid,O,m,842,5,1,25556.300000000745,187955.5,7160,ATS,C,10
10,test,1,A,haborder.png,1,m,Tue Jun 03 2025 08:40:59 GMT-0500 (Central Daylight Time),215644.8999999985,CFD-WF-013-009-HC.jpg,1500,solid,O,m,613,11,1,27689.39999999851,187955.5,7160,ATS,C,11
11,test,1,A,haborder.png,1,m,Tue Jun 03 2025 08:40:59 GMT-0500 (Central Daylight Time),217994.3999999985,CFD-WM-035-036-HC.jpg,1700,solid,O,m,623,9,1,30038.89999999851,187955.5,7160,ATS,C,12
12,test,1,A,haborder.png,1,m,Tue Jun 03 2025 08:40:59 GMT-0500 (Central Daylight Time),220144.80000000075,CFD-BM-022-004-HC.jpg,1500,solid,O,m,618,3,1,32189.300000000745,187955.5,7160,ATS,C,13
13,test,1,A,haborder.png,1,z,Tue Jun 03 2025 08:40:59 GMT-0500 (Central Daylight Time),221826.80000000075,CFD-BF-031-020-A.jpg,1000,solid,O,z,649,4,1,33871.300000000745,187955.5,7160,ATS,C,14
14,test,1,A,haborder.png,1,z,Tue Jun 03 2025 08:40:59 GMT-0500 (Central Daylight Time),224508.3999999985,CFD-WM-036-018-A.jpg,1900,solid,O,z,763,8,1,36552.89999999851,187955.5,7160,ATS,C,15
15,test,1,A,haborder.png,1,z,Tue Jun 03 2025 08:40:59 GMT-0500 (Central Daylight Time),226893.30000000075,CFD-BM-043-014-A.jpg,1600,solid,O,z,767,2,1,38937.800000000745,187955.5,7160,ATS,C,16
16,test,1,A,haborder.png,1,z,Tue Jun 03 2025 08:40:59 GMT-0500 (Central Daylight Time),228458.3999999985,CFD-WF-023-013-A.jpg,1000,solid,O,z,549,12,1,40502.89999999851,187955.5,7160,ATS,C,17
17,test,1,A,haborder.png,1,z,Tue Jun 03 2025 08:40:59 GMT-0500 (Central Daylight Time),230673.6000000015,CFD-BM-043-014-A.jpg,1600,solid,O,z,597,2,1,42718.10000000149,187955.5,7160,ATS,C,18
18,test,1,A,haborder.png,1,z,Tue Jun 03 2025 08:40:59 GMT-0500 (Central Daylight Time),232275.0,CFD-WF-023-013-A.jpg,1000,solid,O,z,567,12,1,44319.5,187955.5,7160,ATS,C,19
19,test,1,A,haborder.png,1,z,Tue Jun 03 2025 08:40:59 GMT-0500 (Central Daylight Time),234089.69999999925,CFD-BF-002-018-A.jpg,1200,solid,O,z,583,6,1,46134.199999999255,187955.5,7160,ATS,C,20
20,test,1,A,haborder.png,1,m,Tue Jun 03 2025 08:40:59 GMT-0500 (Central Daylight Time),236105.69999999925,CFD-WM-028-005-HC.jpg,1400,solid,O,m,585,7,1,48150.199999999255,187955.5,7160,ATS,C,21
21,test,1,A,haborder.png,1,z,Tue Jun 03 2025 08:40:59 GMT-0500 (Central Daylight Time),238371.6000000015,CFD-WF-037-016-A.jpg,1600,solid,O,z,639,10,1,50416.10000000149,187955.5,7160,ATS,C,22
22,test,1,A,haborder.png,1,z,Tue Jun 03 2025 08:40:59 GMT-0500 (Central Daylight Time),240501.69999999925,CFD-BF-031-020-A.jpg,1000,solid,O,z,1108,4,1,52546.199999999255,187955.5,7160,ATS,C,23
23,test,1,A,haborder.png,1,z,Tue Jun 03 2025 08:40:59 GMT-0500 (Central Daylight Time),242354.0,CFD-BF-002-018-A.jpg,1200,solid,O,z,625,6,1,54398.5,187955.5,7160,ATS,C,24
1,test,1,B,mfborder.png,1,m,Tue Jun 03 2025 08:40:59 GMT-0500 (Central Daylight Time),264963.30000000075,CFD-BM-043-014-A.jpg,2000,dash,O,m,816,5,1,2848.699999999255,262114.6000000015,7160,ATS,C,1
2,test,1,B,mfborder.png,1,m,Tue Jun 03 2025 08:40:59 GMT-0500 (Central Daylight Time),267128.80000000075,CFD-BM-021-026-A.jpg,1600,dash,O,m,534,2,1,5014.199999999255,262114.6000000015,7160,ATS,C,2
3,test,1,B,mfborder.png,1,m,Tue Jun 03 2025 08:40:59 GMT-0500 (Central Daylight Time),268826.19999999925,CFD-WM-034-040-A.jpg,1200,dash,O,m,478,6,1,6711.599999997765,262114.6000000015,7160,ATS,C,3
4,test,1,B,mfborder.png,1,m,Tue Jun 03 2025 08:40:59 GMT-0500 (Central Daylight Time),271061.5,CFD-BM-022-004-HC.jpg,1700,dash,O,m,504,1,1,8946.89999999851,262114.6000000015,7160,ATS,C,4
5,test,1,B,mfborder.png,1,z,Tue Jun 03 2025 08:40:59 GMT-0500 (Central Daylight Time),273510.30000000075,CFD-WF-001-010-HC.jpg,1900,dash,O,z,520,8,1,11395.699999999255,262114.6000000015,7160,ATS,C,5
6,test,1,B,mfborder.png,1,m,Tue Jun 03 2025 08:40:59 GMT-0500 (Central Daylight Time),275927.8999999985,CFD-WM-036-018-A.jpg,1700,dash,O,m,694,9,1,13813.29999999702,262114.6000000015,7160,ATS,C,6
7,test,1,B,mfborder.png,1,z,Tue Jun 03 2025 08:40:59 GMT-0500 (Central Daylight Time),277758.6000000015,CFD-BF-031-020-A.jpg,1000,dash,O,z,800,4,1,15644.0,262114.6000000015,7160,ATS,C,7
8,test,1,B,mfborder.png,1,m,Tue Jun 03 2025 08:40:59 GMT-0500 (Central Daylight Time),280124.19999999925,CFD-BM-021-026-A.jpg,1600,dash,O,m,723,2,1,18009.599999997765,262114.6000000015,7160,ATS,C,8
9,test,1,B,mfborder.png,1,m,Tue Jun 03 2025 08:40:59 GMT-0500 (Central Daylight Time),282091.3999999985,CFD-WM-034-040-A.jpg,1200,dash,O,m,741,6,1,19976.79999999702,262114.6000000015,7160,ATS,C,9
10,test,1,B,mfborder.png,1,z,Tue Jun 03 2025 08:40:59 GMT-0500 (Central Daylight Time),284206.19999999925,CFD-BF-019-004-HC.jpg,1400,dash,O,z,695,7,1,22091.599999997765,262114.6000000015,7160,ATS,C,10
11,test,1,B,mfborder.png,1,z,Tue Jun 03 2025 08:40:59 GMT-0500 (Central Daylight Time),285871.0,CFD-BF-031-020-A.jpg,1000,dash,O,z,642,4,1,23756.39999999851,262114.6000000015,7160,ATS,C,11
12,test,1,B,mfborder.png,1,z,Tue Jun 03 2025 08:40:59 GMT-0500 (Central Daylight Time),287907.30000000075,CFD-BF-019-004-HC.jpg,1400,dash,O,z,617,7,1,25792.699999999255,262114.6000000015,7160,ATS,C,12
13,test,1,B,mfborder.png,1,m,Tue Jun 03 2025 08:40:59 GMT-0500 (Central Daylight Time),290253.8999999985,CFD-WM-035-036-HC.jpg,1600,dash,O,m,720,10,1,28139.29999999702,262114.6000000015,7160,ATS,C,13
14,test,1,B,mfborder.png,1,m,Tue Jun 03 2025 08:40:59 GMT-0500 (Central Daylight Time),293086.19999999925,CFD-WM-036-018-A.jpg,1700,dash,O,m,1100,9,1,30971.599999997765,262114.6000000015,7160,ATS,C,14
15,test,1,B,mfborder.png,1,z,Tue Jun 03 2025 08:40:59 GMT-0500 (Central Daylight Time),295301.5,CFD-BF-042-031-HC.jpg,1500,dash,O,z,687,3,1,33186.89999999851,262114.6000000015,7160,ATS,C,15
16,test,1,B,mfborder.png,1,z,Tue Jun 03 2025 08:40:59 GMT-0500 (Central Daylight Time),297435.1000000015,CFD-WF-037-016-A.jpg,1500,dash,O,z,605,11,1,35320.5,262114.6000000015,7160,ATS,C,16
17,test,1,B,mfborder.png,1,z,Tue Jun 03 2025 08:40:59 GMT-0500 (Central Daylight Time),299521.6000000015,CFD-WF-037-016-A.jpg,1500,dash,O,z,553,11,1,37407.0,262114.6000000015,7160,ATS,C,17
18,test,1,B,mfborder.png,1,m,Tue Jun 03 2025 08:40:59 GMT-0500 (Central Daylight Time),302019.5,CFD-BM-043-014-A.jpg,2000,dash,O,m,483,5,1,39904.89999999851,262114.6000000015,7160,ATS,C,18
19,test,1,B,mfborder.png,1,m,Tue Jun 03 2025 08:40:59 GMT-0500 (Central Daylight Time),304300.69999999925,CFD-BM-022-004-HC.jpg,1700,dash,O,m,556,1,1,42186.099999997765,262114.6000000015,7160,ATS,C,19
20,test,1,B,mfborder.png,1,z,Tue Jun 03 2025 08:40:59 GMT-0500 (Central Daylight Time),306102.69999999925,CFD-WF-013-009-HC.jpg,1000,dash,O,z,771,12,1,43988.099999997765,262114.6000000015,7160,ATS,C,20
21,test,1,B,mfborder.png,1,z,Tue Jun 03 2025 08:40:59 GMT-0500 (Central Daylight Time),308532.30000000075,CFD-WF-001-010-HC.jpg,1900,dash,O,z,512,8,1,46417.699999999255,262114.6000000015,7160,ATS,C,21
22,test,1,B,mfborder.png,1,m,Tue Jun 03 2025 08:40:59 GMT-0500 (Central Daylight Time),310765.5,CFD-WM-035-036-HC.jpg,1600,dash,O,m,603,10,1,48650.89999999851,262114.6000000015,7160,ATS,C,22
23,test,1,B,mfborder.png,1,z,Tue Jun 03 2025 08:40:59 GMT-0500 (Central Daylight Time),312414.3999999985,CFD-WF-013-009-HC.jpg,1000,dash,O,z,627,12,1,50299.79999999702,262114.6000000015,7160,ATS,C,23
24,test,1,B,mfborder.png,1,z,Tue Jun 03 2025 08:40:59 GMT-0500 (Central Daylight Time),314497.1000000015,CFD-BF-042-031-HC.jpg,1500,dash,O,z,549,3,1,52382.5,262114.6000000015,7160,ATS,C,24
0,prac,1,C,mfborder.png,0,m,Tue Jun 03 2025 08:40:59 GMT-0500 (Central Daylight Time),404269.0,CFD-BM-034-035-HC.jpg,2000,solid,O,z,950,3,1,3749.60000000149,400519.3999999985,7160,ATS,C,1
1,prac,1,C,mfborder.png,1,m,Tue Jun 03 2025 08:40:59 GMT-0500 (Central Daylight Time),407101.80000000075,CFD-BM-043-014-A.jpg,1200,dash,O,m,828,3,1,6582.400000002235,400519.3999999985,7160,ATS,C,2
2,prac,1,C,mfborder.png,1,z,Tue Jun 03 2025 08:40:59 GMT-0500 (Central Daylight Time),410350.6000000015,CFD-WF-013-009-HC.jpg,1600,dash,O,z,860,3,1,9831.20000000298,400519.3999999985,7160,ATS,C,3
3,prac,1,C,mfborder.png,1,z,Tue Jun 03 2025 08:40:59 GMT-0500 (Central Daylight Time),412832.80000000075,CFD-BF-019-004-HC.jpg,1000,dash,O,z,700,3,1,12313.400000002235,400519.3999999985,7160,ATS,C,4
4,prac,1,C,haborder.png,1,z,Tue Jun 03 2025 08:40:59 GMT-0500 (Central Daylight Time),416148.69999999925,CFD-WF-037-016-A.jpg,1600,dash,O,z,947,3,1,15629.300000000745,400519.3999999985,7160,ATS,C,5
5,prac,1,C,haborder.png,1,z,Tue Jun 03 2025 08:40:59 GMT-0500 (Central Daylight Time),419480.80000000075,CFD-BF-002-018-A.jpg,1700,solid,O,z,833,3,1,18961.400000002235,400519.3999999985,7160,ATS,C,6
6,prac,1,C,haborder.png,1,m,Tue Jun 03 2025 08:40:59 GMT-0500 (Central Daylight Time),422663.30000000075,CFD-WM-028-005-HC.jpg,1000,dash,O,m,1384,3,1,22143.900000002235,400519.3999999985,7160,ATS,C,7
7,prac,1,C,haborder.png,1,m,Tue Jun 03 2025 08:40:59 GMT-0500 (Central Daylight Time),425910.8999999985,CFD-WM-028-005-HC.jpg,1400,solid,O,m,1058,3,1,25391.5,400519.3999999985,7160,ATS,C,8
8,prac,1,C,haborder.png,1,z,Tue Jun 03 2025 08:40:59 GMT-0500 (Central Daylight Time),429394.8999999985,CFD-BF-031-020-A.jpg,1900,dash,O,z,799,3,1,28875.5,400519.3999999985,7160,ATS,C,9
9,prac,1,C,haborder.png,1,m,Tue Jun 03 2025 08:40:59 GMT-0500 (Central Daylight Time),432843.5,CFD-BM-022-004-HC.jpg,1500,solid,O,m,1164,3,1,32324.10000000149,400519.3999999985,7160,ATS,C,10
10,prac,1,C,mfborder.png,1,z,Tue Jun 03 2025 08:40:59 GMT-0500 (Central Daylight Time),436141.80000000075,CFD-WF-023-013-A.jpg,1500,solid,O,z,1002,3,1,35622.400000002235,400519.3999999985,7160,ATS,C,11
11,prac,1,C,mfborder.png,1,m,Tue Jun 03 2025 08:40:59 GMT-0500 (Central Daylight Time),439740.1000000015,CFD-WM-036-018-A.jpg,1700,solid,O,m,1100,3,1,39220.70000000298,400519.3999999985,7160,ATS,C,12
1,test,1,C,haborder.png,1,m,Tue Jun 03 2025 08:40:59 GMT-0500 (Central Daylight Time),513917.0,CFD-WF-001-010-HC.jpg,1500,solid,O,m,1179,11,1,2697.10000000149,511219.8999999985,7160,ATS,C,1
1,test,1,C,haborder.png,0,z,Tue Jun 03 2025 08:40:59 GMT-0500 (Central Daylight Time),516998.80000000075,CFD-BM-043-014-A.jpg,1900,solid,O,m,1152,8,1,5778.900000002235,511219.8999999985,7160,ATS,C,2
2,test,1,C,mfborder.png,1,m,Tue Jun 03 2025 08:40:59 GMT-0500 (Central Daylight Time),519314.3999999985,CFD-BM-022-004-HC.jpg,1200,dash,O,m,1098,6,1,8094.5,511219.8999999985,7160,ATS,C,3
3,test,1,C,haborder.png,1,m,Tue Jun 03 2025 08:40:59 GMT-0500 (Central Daylight Time),521597.0,CFD-WF-013-009-HC.jpg,1000,solid,O,m,1261,12,1,10377.10000000149,511219.8999999985,7160,ATS,C,4
4,test,1,C,mfborder.png,1,z,Tue Jun 03 2025 08:40:59 GMT-0500 (Central Daylight Time),524164.69999999925,CFD-BF-042-031-HC.jpg,1700,dash,O,z,840,1,1,12944.800000000745,511219.8999999985,7160,ATS,C,5
5,test,1,C,mfborder.png,1,m,Tue Jun 03 2025 08:40:59 GMT-0500 (Central Daylight Time),526246.8000000007,CFD-WM-035-036-HC.jpg,1000,dash,O,m,1053,4,1,15026.900000002235,511219.8999999985,7160,ATS,C,6
6,test,1,C,mfborder.png,1,z,Tue Jun 03 2025 08:40:59 GMT-0500 (Central Daylight Time),528611.3000000007,CFD-BF-031-020-A.jpg,1600,dash,O,z,738,2,1,17391.400000002235,511219.8999999985,7160,ATS,C,7
6,test,1,C,haborder.png,0,m,Tue Jun 03 2025 08:40:59 GMT-0500 (Central Daylight Time),531744.6999999993,CFD-BF-019-004-HC.jpg,1600,solid,O,None,1509,10,1,20524.800000000745,511219.8999999985,7160,ATS,C,8
7,test,1,C,haborder.png,1,z,Tue Jun 03 2025 08:40:59 GMT-0500 (Central Daylight Time),534593.1000000015,CFD-BM-021-026-A.jpg,1700,solid,O,z,1124,9,1,23373.20000000298,511219.8999999985,7160,ATS,C,9
8,test,1,C,mfborder.png,1,z,Tue Jun 03 2025 08:40:59 GMT-0500 (Central Daylight Time),537228.8999999985,CFD-WF-037-016-A.jpg,1500,dash,O,z,1116,3,1,26009.0,511219.8999999985,7160,ATS,C,10
9,test,1,C,haborder.png,1,m,Tue Jun 03 2025 08:40:59 GMT-0500 (Central Daylight Time),540124.5,CFD-BF-019-004-HC.jpg,1600,solid,O,m,1271,10,1,28904.60000000149,511219.8999999985,7160,ATS,C,11
10,test,1,C,mfborder.png,1,z,Tue Jun 03 2025 08:40:59 GMT-0500 (Central Daylight Time),542639.8999999985,CFD-WF-037-016-A.jpg,1500,dash,O,z,992,3,1,31420.0,511219.8999999985,7160,ATS,C,12
11,test,1,C,mfborder.png,1,m,Tue Jun 03 2025 08:40:59 GMT-0500 (Central Daylight Time),544706.3999999985,CFD-WM-035-036-HC.jpg,1000,dash,O,m,1031,4,1,33486.5,511219.8999999985,7160,ATS,C,13
11,test,1,C,haborder.png,0,z,Tue Jun 03 2025 08:40:59 GMT-0500 (Central Daylight Time),547439.6000000015,CFD-BM-021-026-A.jpg,1700,solid,O,m,1001,9,1,36219.70000000298,511219.8999999985,7160,ATS,C,14
11,test,1,C,haborder.png,0,z,Tue Jun 03 2025 08:40:59 GMT-0500 (Central Daylight Time),550871.8999999985,CFD-BM-043-014-A.jpg,1900,solid,O,None,1516,8,1,39652.0,511219.8999999985,7160,ATS,C,15
11,test,1,C,mfborder.png,0,m,Tue Jun 03 2025 08:40:59 GMT-0500 (Central Daylight Time),553704.1999999993,CFD-WM-034-040-A.jpg,2000,dash,O,z,801,5,1,42484.300000000745,511219.8999999985,7160,ATS,C,16
11,test,1,C,haborder.png,0,m,Tue Jun 03 2025 08:40:59 GMT-0500 (Central Daylight Time),556668.8999999985,CFD-WF-001-010-HC.jpg,1500,solid,O,z,1444,11,1,45449.0,511219.8999999985,7160,ATS,C,17
11,test,1,C,haborder.png,0,m,Tue Jun 03 2025 08:40:59 GMT-0500 (Central Daylight Time),558819.1000000015,CFD-WF-013-009-HC.jpg,1000,solid,O,z,1126,12,1,47599.20000000298,511219.8999999985,7160,ATS,C,18
12,test,1,C,haborder.png,1,z,Tue Jun 03 2025 08:40:59 GMT-0500 (Central Daylight Time),561084.5,CFD-WM-036-018-A.jpg,1400,solid,O,z,838,7,1,49864.60000000149,511219.8999999985,7160,ATS,C,19
13,test,1,C,mfborder.png,1,z,Tue Jun 03 2025 08:40:59 GMT-0500 (Central Daylight Time),564166.6000000015,CFD-BF-031-020-A.jpg,1600,dash,O,z,1461,2,1,52946.70000000298,511219.8999999985,7160,ATS,C,20
14,test,1,C,mfborder.png,1,m,Tue Jun 03 2025 08:40:59 GMT-0500 (Central Daylight Time),566554.8000000007,CFD-BM-022-004-HC.jpg,1200,dash,O,m,1171,6,1,55334.900000002235,511219.8999999985,7160,ATS,C,21
15,test,1,C,mfborder.png,1,m,Tue Jun 03 2025 08:40:59 GMT-0500 (Central Daylight Time),569349.1000000015,CFD-WM-034-040-A.jpg,2000,dash,O,m,771,5,1,58129.20000000298,511219.8999999985,7160,ATS,C,22
15,test,1,C,haborder.png,0,z,Tue Jun 03 2025 08:40:59 GMT-0500 (Central Daylight Time),572271.6000000015,CFD-WM-036-018-A.jpg,1400,solid,O,None,1502,7,1,61051.70000000298,511219.8999999985,7160,ATS,C,23
16,test,1,C,mfborder.png,1,z,Tue Jun 03 2025 08:40:59 GMT-0500 (Central Daylight Time),574946.1000000015,CFD-BF-042-031-HC.jpg,1700,dash,O,z,957,1,1,63726.20000000298,511219.8999999985,7160,ATS,C,24
1,test,2,C,haborder.png,1,m,Tue Jun 03 2025 08:40:59 GMT-0500 (Central Daylight Time),579495.6999999993,CFD-WM-028-005-HC.jpg,1500,solid,O,m,970,11,1,2498.0,576997.6999999993,7160,ATS,C,1
2,test,2,C,mfborder.png,1,z,Tue Jun 03 2025 08:40:59 GMT-0500 (Central Daylight Time),581979.8999999985,CFD-WF-023-013-A.jpg,1600,dash,O,z,854,2,1,4982.199999999255,576997.6999999993,7160,ATS,C,2
3,test,2,C,haborder.png,1,z,Tue Jun 03 2025 08:40:59 GMT-0500 (Central Daylight Time),584561.1000000015,CFD-WF-037-016-A.jpg,1700,solid,O,z,850,9,1,7563.400000002235,576997.6999999993,7160,ATS,C,3
4,test,2,C,mfborder.png,1,m,Tue Jun 03 2025 08:40:59 GMT-0500 (Central Daylight Time),587577.1999999993,CFD-BM-043-014-A.jpg,2000,dash,O,m,984,5,1,10579.5,576997.6999999993,7160,ATS,C,4
5,test,2,C,haborder.png,1,m,Tue Jun 03 2025 08:40:59 GMT-0500 (Central Daylight Time),589992.5,CFD-BM-022-004-HC.jpg,1600,solid,O,m,793,10,1,12994.800000000745,576997.6999999993,7160,ATS,C,5
6,test,2,C,haborder.png,1,m,Tue Jun 03 2025 08:40:59 GMT-0500 (Central Daylight Time),592307.8000000007,CFD-WM-028-005-HC.jpg,1500,solid,O,m,788,11,1,15310.10000000149,576997.6999999993,7160,ATS,C,6
6,test,2,C,mfborder.png,0,m,Tue Jun 03 2025 08:40:59 GMT-0500 (Central Daylight Time),595356.1000000015,CFD-BM-043-014-A.jpg,2000,dash,O,z,1028,5,1,18358.400000002235,576997.6999999993,7160,ATS,C,7
6,test,2,C,mfborder.png,0,z,Tue Jun 03 2025 08:40:59 GMT-0500 (Central Daylight Time),598391.0,CFD-BF-019-004-HC.jpg,1500,dash,O,None,1516,3,1,21393.300000000745,576997.6999999993,7160,ATS,C,8
7,test,2,C,mfborder.png,1,z,Tue Jun 03 2025 08:40:59 GMT-0500 (Central Daylight Time),600805.8999999985,CFD-WF-023-013-A.jpg,1600,dash,O,z,787,2,1,23808.199999999255,576997.6999999993,7160,ATS,C,9
8,test,2,C,haborder.png,1,z,Tue Jun 03 2025 08:40:59 GMT-0500 (Central Daylight Time),603339.1000000015,CFD-BF-031-020-A.jpg,1400,solid,O,z,1114,7,1,26341.400000002235,576997.6999999993,7160,ATS,C,10
9,test,2,C,mfborder.png,1,m,Tue Jun 03 2025 08:40:59 GMT-0500 (Central Daylight Time),605404.1000000015,CFD-BM-034-035-HC.jpg,1000,dash,O,m,1038,4,1,28406.400000002235,576997.6999999993,7160,ATS,C,11
10,test,2,C,mfborder.png,1,m,Tue Jun 03 2025 08:40:59 GMT-0500 (Central Daylight Time),607220.6000000015,CFD-BM-034-035-HC.jpg,1000,dash,O,m,797,4,1,30222.900000002235,576997.6999999993,7160,ATS,C,12
11,test,2,C,haborder.png,1,m,Tue Jun 03 2025 08:40:59 GMT-0500 (Central Daylight Time),609119.3999999985,CFD-WM-028-005-HC.jpg,1000,solid,O,m,869,12,1,32121.699999999255,576997.6999999993,7160,ATS,C,13
12,test,2,C,haborder.png,1,z,Tue Jun 03 2025 08:40:59 GMT-0500 (Central Daylight Time),612186.3000000007,CFD-WF-037-016-A.jpg,1700,solid,O,z,1342,9,1,35188.60000000149,576997.6999999993,7160,ATS,C,14
12,test,2,C,mfborder.png,0,m,Tue Jun 03 2025 08:40:59 GMT-0500 (Central Daylight Time),614819.6999999993,CFD-WM-036-018-A.jpg,1200,dash,O,z,1406,6,1,37822.0,576997.6999999993,7160,ATS,C,15
13,test,2,C,haborder.png,1,m,Tue Jun 03 2025 08:40:59 GMT-0500 (Central Daylight Time),617284.5,CFD-BM-022-004-HC.jpg,1600,solid,O,m,838,10,1,40286.800000000745,576997.6999999993,7160,ATS,C,16
13,test,2,C,haborder.png,0,z,Tue Jun 03 2025 08:40:59 GMT-0500 (Central Daylight Time),620250.8000000007,CFD-BF-002-018-A.jpg,1900,solid,O,m,1040,8,1,43253.10000000149,576997.6999999993,7160,ATS,C,17
14,test,2,C,haborder.png,1,z,Tue Jun 03 2025 08:40:59 GMT-0500 (Central Daylight Time),622699.1999999993,CFD-BF-031-020-A.jpg,1400,solid,O,z,1023,7,1,45701.5,576997.6999999993,7160,ATS,C,18
15,test,2,C,mfborder.png,1,m,Tue Jun 03 2025 08:40:59 GMT-0500 (Central Daylight Time),625131.6999999993,CFD-WM-036-018-A.jpg,1200,dash,O,m,1205,6,1,48134.0,576997.6999999993,7160,ATS,C,19
16,test,2,C,mfborder.png,1,z,Tue Jun 03 2025 08:40:59 GMT-0500 (Central Daylight Time),627598.3999999985,CFD-BF-019-004-HC.jpg,1500,dash,O,z,938,3,1,50600.699999999255,576997.6999999993,7160,ATS,C,20
17,test,2,C,mfborder.png,1,z,Tue Jun 03 2025 08:40:59 GMT-0500 (Central Daylight Time),630313.3000000007,CFD-WF-013-009-HC.jpg,1700,dash,O,z,993,1,1,53315.60000000149,576997.6999999993,7160,ATS,C,21
18,test,2,C,mfborder.png,1,z,Tue Jun 03 2025 08:40:59 GMT-0500 (Central Daylight Time),632795.8000000007,CFD-WF-013-009-HC.jpg,1700,dash,O,z,756,1,1,55798.10000000149,576997.6999999993,7160,ATS,C,22
19,test,2,C,haborder.png,1,z,Tue Jun 03 2025 08:40:59 GMT-0500 (Central Daylight Time),635378.3999999985,CFD-BF-002-018-A.jpg,1900,solid,O,z,667,8,1,58380.699999999255,576997.6999999993,7160,ATS,C,23
19,test,2,C,haborder.png,0,m,Tue Jun 03 2025 08:40:59 GMT-0500 (Central Daylight Time),637511.3999999985,CFD-WM-028-005-HC.jpg,1000,solid,O,z,1103,12,1,60513.699999999255,576997.6999999993,7160,ATS,C,24
1,test,3,C,mfborder.png,1,m,Tue Jun 03 2025 08:40:59 GMT-0500 (Central Daylight Time),641943.3000000007,CFD-WM-034-040-A.jpg,2000,dash,O,m,1151,5,1,3183.5,638759.8000000007,7160,ATS,C,1
2,test,3,C,mfborder.png,1,z,Tue Jun 03 2025 08:40:59 GMT-0500 (Central Daylight Time),644275.8999999985,CFD-WF-037-016-A.jpg,1500,dash,O,z,796,3,1,5516.099999997765,638759.8000000007,7160,ATS,C,2
2,test,3,C,haborder.png,0,z,Tue Jun 03 2025 08:40:59 GMT-0500 (Central Daylight Time),647041.3999999985,CFD-BM-021-026-A.jpg,1700,solid,O,m,1033,9,1,8281.599999997765,638759.8000000007,7160,ATS,C,3
3,test,3,C,haborder.png,1,m,Tue Jun 03 2025 08:40:59 GMT-0500 (Central Daylight Time),648773.3999999985,CFD-WF-013-009-HC.jpg,1000,solid,O,m,712,12,1,10013.599999997765,638759.8000000007,7160,ATS,C,4
4,test,3,C,mfborder.png,1,m,Tue Jun 03 2025 08:40:59 GMT-0500 (Central Daylight Time),650773.3999999985,CFD-WM-035-036-HC.jpg,1000,dash,O,m,971,4,1,12013.599999997765,638759.8000000007,7160,ATS,C,5
5,test,3,C,mfborder.png,1,m,Tue Jun 03 2025 08:40:59 GMT-0500 (Central Daylight Time),652755.8000000007,CFD-BM-022-004-HC.jpg,1200,dash,O,m,765,6,1,13996.0,638759.8000000007,7160,ATS,C,6
6,test,3,C,mfborder.png,1,m,Tue Jun 03 2025 08:40:59 GMT-0500 (Central Daylight Time),654588.6000000015,CFD-BM-022-004-HC.jpg,1200,dash,O,m,614,6,1,15828.800000000745,638759.8000000007,7160,ATS,C,7
7,test,3,C,haborder.png,1,z,Tue Jun 03 2025 08:40:59 GMT-0500 (Central Daylight Time),657404.1999999993,CFD-BM-043-014-A.jpg,1900,solid,O,z,898,8,1,18644.39999999851,638759.8000000007,7160,ATS,C,8
8,test,3,C,mfborder.png,1,z,Tue Jun 03 2025 08:40:59 GMT-0500 (Central Daylight Time),660235.5,CFD-BF-042-031-HC.jpg,1700,dash,O,z,1104,1,1,21475.699999999255,638759.8000000007,7160,ATS,C,9
9,test,3,C,mfborder.png,1,z,Tue Jun 03 2025 08:40:59 GMT-0500 (Central Daylight Time),662836.6999999993,CFD-BF-031-020-A.jpg,1600,dash,O,z,973,2,1,24076.89999999851,638759.8000000007,7160,ATS,C,10
10,test,3,C,haborder.png,1,m,Tue Jun 03 2025 08:40:59 GMT-0500 (Central Daylight Time),665075.1999999993,CFD-WF-001-010-HC.jpg,1500,solid,O,m,703,11,1,26315.39999999851,638759.8000000007,7160,ATS,C,11
11,test,3,C,mfborder.png,1,z,Tue Jun 03 2025 08:40:59 GMT-0500 (Central Daylight Time),668100.8999999985,CFD-BF-042-031-HC.jpg,1700,dash,O,z,1304,1,1,29341.099999997765,638759.8000000007,7160,ATS,C,12
12,test,3,C,mfborder.png,1,z,Tue Jun 03 2025 08:40:59 GMT-0500 (Central Daylight Time),670566.6999999993,CFD-WF-037-016-A.jpg,1500,dash,O,z,935,3,1,31806.89999999851,638759.8000000007,7160,ATS,C,13
13,test,3,C,haborder.png,1,z,Tue Jun 03 2025 08:40:59 GMT-0500 (Central Daylight Time),673282.8999999985,CFD-BM-021-026-A.jpg,1700,solid,O,z,991,9,1,34523.099999997765,638759.8000000007,7160,ATS,C,14
13,test,3,C,haborder.png,0,z,Tue Jun 03 2025 08:40:59 GMT-0500 (Central Daylight Time),676366.5,CFD-BM-043-014-A.jpg,1900,solid,O,m,1150,8,1,37606.699999999255,638759.8000000007,7160,ATS,C,15
13,test,3,C,haborder.png,0,m,Tue Jun 03 2025 08:40:59 GMT-0500 (Central Daylight Time),678982.0,CFD-BF-019-004-HC.jpg,1600,solid,O,z,999,10,1,40222.199999999255,638759.8000000007,7160,ATS,C,16
14,test,3,C,mfborder.png,1,m,Tue Jun 03 2025 08:40:59 GMT-0500 (Central Daylight Time),681464.1999999993,CFD-WM-035-036-HC.jpg,1000,dash,O,m,1460,4,1,42704.39999999851,638759.8000000007,7160,ATS,C,17
14,test,3,C,haborder.png,0,z,Tue Jun 03 2025 08:40:59 GMT-0500 (Central Daylight Time),683828.0,CFD-WM-036-018-A.jpg,1400,solid,O,m,938,7,1,45068.199999999255,638759.8000000007,7160,ATS,C,18
15,test,3,C,haborder.png,1,z,Tue Jun 03 2025 08:40:59 GMT-0500 (Central Daylight Time),686163.6000000015,CFD-WM-036-018-A.jpg,1400,solid,O,z,917,7,1,47403.800000000745,638759.8000000007,7160,ATS,C,19
15,test,3,C,haborder.png,0,m,Tue Jun 03 2025 08:40:59 GMT-0500 (Central Daylight Time),688645.1000000015,CFD-WF-013-009-HC.jpg,1000,solid,O,z,1457,12,1,49885.300000000745,638759.8000000007,7160,ATS,C,20
15,test,3,C,haborder.png,0,m,Tue Jun 03 2025 08:40:59 GMT-0500 (Central Daylight Time),690995.3000000007,CFD-WF-001-010-HC.jpg,1500,solid,O,z,833,11,1,52235.5,638759.8000000007,7160,ATS,C,21
16,test,3,C,mfborder.png,1,z,Tue Jun 03 2025 08:40:59 GMT-0500 (Central Daylight Time),693760.3999999985,CFD-BF-031-020-A.jpg,1600,dash,O,z,1144,2,1,55000.599999997765,638759.8000000007,7160,ATS,C,22
17,test,3,C,mfborder.png,1,m,Tue Jun 03 2025 08:40:59 GMT-0500 (Central Daylight Time),696891.8000000007,CFD-WM-034-040-A.jpg,2000,dash,O,m,1104,5,1,58132.0,638759.8000000007,7160,ATS,C,23
17,test,3,C,haborder.png,0,m,Tue Jun 03 2025 08:40:59 GMT-0500 (Central Daylight Time),699607.3999999985,CFD-BF-019-004-HC.jpg,1600,solid,O,z,1086,10,1,60847.599999997765,638759.8000000007,7160,ATS,C,24
1,test,4,C,haborder.png,1,m,Tue Jun 03 2025 08:40:59 GMT-0500 (Central Daylight Time),703187.8000000007,CFD-BM-022-004-HC.jpg,1600,solid,O,m,710,10,1,2329.0,700858.8000000007,7160,ATS,C,1
1,test,4,C,mfborder.png,0,z,Tue Jun 03 2025 08:40:59 GMT-0500 (Central Daylight Time),705838.1999999993,CFD-WF-013-009-HC.jpg,1700,dash,O,m,911,1,1,4979.39999999851,700858.8000000007,7160,ATS,C,2
2,test,4,C,haborder.png,1,z,Tue Jun 03 2025 08:40:59 GMT-0500 (Central Daylight Time),708603.8999999985,CFD-BF-002-018-A.jpg,1900,solid,O,z,846,8,1,7745.099999997765,700858.8000000007,7160,ATS,C,3
2,test,4,C,mfborder.png,0,m,Tue Jun 03 2025 08:40:59 GMT-0500 (Central Daylight Time),711470.6999999993,CFD-BM-043-014-A.jpg,2000,dash,O,z,836,5,1,10611.89999999851,700858.8000000007,7160,ATS,C,4
3,test,4,C,mfborder.png,1,z,Tue Jun 03 2025 08:40:59 GMT-0500 (Central Daylight Time),713986.5,CFD-WF-013-009-HC.jpg,1700,dash,O,z,797,1,1,13127.699999999255,700858.8000000007,7160,ATS,C,5
4,test,4,C,mfborder.png,1,m,Tue Jun 03 2025 08:40:59 GMT-0500 (Central Daylight Time),716120.1000000015,CFD-BM-034-035-HC.jpg,1000,dash,O,m,1101,4,1,15261.300000000745,700858.8000000007,7160,ATS,C,6
5,test,4,C,haborder.png,1,m,Tue Jun 03 2025 08:40:59 GMT-0500 (Central Daylight Time),718218.1999999993,CFD-WM-028-005-HC.jpg,1000,solid,O,m,1074,12,1,17359.39999999851,700858.8000000007,7160,ATS,C,7
6,test,4,C,haborder.png,1,z,Tue Jun 03 2025 08:40:59 GMT-0500 (Central Daylight Time),720750.6000000015,CFD-WF-037-016-A.jpg,1700,solid,O,z,812,9,1,19891.800000000745,700858.8000000007,7160,ATS,C,8
7,test,4,C,mfborder.png,1,z,Tue Jun 03 2025 08:40:59 GMT-0500 (Central Daylight Time),723466.6999999993,CFD-WF-023-013-A.jpg,1600,dash,O,z,1082,2,1,22607.89999999851,700858.8000000007,7160,ATS,C,9
8,test,4,C,mfborder.png,1,m,Tue Jun 03 2025 08:40:59 GMT-0500 (Central Daylight Time),725365.6000000015,CFD-WM-036-018-A.jpg,1200,dash,O,m,678,6,1,24506.800000000745,700858.8000000007,7160,ATS,C,10
9,test,4,C,haborder.png,1,m,Tue Jun 03 2025 08:40:59 GMT-0500 (Central Daylight Time),727882.0,CFD-WM-028-005-HC.jpg,1500,solid,O,m,990,11,1,27023.199999999255,700858.8000000007,7160,ATS,C,11
10,test,4,C,mfborder.png,1,z,Tue Jun 03 2025 08:40:59 GMT-0500 (Central Daylight Time),730163.8999999985,CFD-BF-019-004-HC.jpg,1500,dash,O,z,763,3,1,29305.099999997765,700858.8000000007,7160,ATS,C,12
11,test,4,C,mfborder.png,1,m,Tue Jun 03 2025 08:40:59 GMT-0500 (Central Daylight Time),732014.1000000015,CFD-BM-034-035-HC.jpg,1000,dash,O,m,821,4,1,31155.300000000745,700858.8000000007,7160,ATS,C,13
12,test,4,C,mfborder.png,1,m,Tue Jun 03 2025 08:40:59 GMT-0500 (Central Daylight Time),734813.5,CFD-BM-043-014-A.jpg,2000,dash,O,m,770,5,1,33954.699999999255,700858.8000000007,7160,ATS,C,14
13,test,4,C,haborder.png,1,z,Tue Jun 03 2025 08:40:59 GMT-0500 (Central Daylight Time),737179.8000000007,CFD-BF-031-020-A.jpg,1400,solid,O,z,938,7,1,36321.0,700858.8000000007,7160,ATS,C,15
14,test,4,C,mfborder.png,1,m,Tue Jun 03 2025 08:40:59 GMT-0500 (Central Daylight Time),739530.8000000007,CFD-WM-036-018-A.jpg,1200,dash,O,m,1110,6,1,38672.0,700858.8000000007,7160,ATS,C,16
15,test,4,C,haborder.png,1,z,Tue Jun 03 2025 08:40:59 GMT-0500 (Central Daylight Time),742527.0,CFD-BF-002-018-A.jpg,1900,solid,O,z,1071,8,1,41668.199999999255,700858.8000000007,7160,ATS,C,17
16,test,4,C,haborder.png,1,z,Tue Jun 03 2025 08:40:59 GMT-0500 (Central Daylight Time),745027.5,CFD-WF-037-016-A.jpg,1700,solid,O,z,760,9,1,44168.699999999255,700858.8000000007,7160,ATS,C,18
17,test,4,C,haborder.png,1,m,Tue Jun 03 2025 08:40:59 GMT-0500 (Central Daylight Time),747542.8999999985,CFD-BM-022-004-HC.jpg,1600,solid,O,m,894,10,1,46684.099999997765,700858.8000000007,7160,ATS,C,19
18,test,4,C,haborder.png,1,m,Tue Jun 03 2025 08:40:59 GMT-0500 (Central Daylight Time),749226.3000000007,CFD-WM-028-005-HC.jpg,1000,solid,O,m,657,12,1,48367.5,700858.8000000007,7160,ATS,C,20
19,test,4,C,mfborder.png,1,z,Tue Jun 03 2025 08:40:59 GMT-0500 (Central Daylight Time),751506.1000000015,CFD-BF-019-004-HC.jpg,1500,dash,O,z,747,3,1,50647.300000000745,700858.8000000007,7160,ATS,C,21
20,test,4,C,mfborder.png,1,z,Tue Jun 03 2025 08:40:59 GMT-0500 (Central Daylight Time),753773.1000000015,CFD-WF-023-013-A.jpg,1600,dash,O,z,639,2,1,52914.300000000745,700858.8000000007,7160,ATS,C,22
20,test,4,C,haborder.png,0,z,Tue Jun 03 2025 08:40:59 GMT-0500 (Central Daylight Time),756138.8000000007,CFD-BF-031-020-A.jpg,1400,solid,O,m,938,7,1,55280.0,700858.8000000007,7160,ATS,C,23
21,test,4,C,haborder.png,1,m,Tue Jun 03 2025 08:40:59 GMT-0500 (Central Daylight Time),758822.6999999993,CFD-WM-028-005-HC.jpg,1500,solid,O,m,1162,11,1,57963.89999999851,700858.8000000007,7160,ATS,C,24
