acc_sum,block,block_c,change,condition,correct,correct_response,datetime,endtime,face,project,response,response_time,row_sel,session_number,start_end,starttime,subject_id,task,task_vers,trial
0,prac,1,,1-Back,,,Thu Mar 19 2026 10:27:39 GMT-0500 (Central Daylight Time),,097_m_f_n_a.png,I,space,8829,1,1,,,8100,NNB,B,0
1,prac,1,0.0,1-Back,1.0,m,Thu Mar 19 2026 10:27:39 GMT-0500 (Central Daylight Time),246532.5,152_y_f_n_a.png,I,m,992,2,1,1856.3999999761581,244676.10000002384,8100,NNB,B,1
2,prac,1,1.0,1-Back,1.0,z,Thu Mar 19 2026 10:27:39 GMT-0500 (Central Daylight Time),248398.29999995232,152_y_f_n_a.png,I,z,1089,3,1,1861.7999999523163,246536.5,8100,NNB,B,2
3,prac,1,0.0,1-Back,1.0,m,Thu Mar 19 2026 10:27:39 GMT-0500 (Central Daylight Time),250330.89999997616,176_o_m_n_a.png,I,m,1056,4,1,1924.3999999761581,248406.5,8100,NNB,B,3
4,prac,1,0.0,1-Back,1.0,m,Thu Mar 19 2026 10:27:39 GMT-0500 (Central Daylight Time),252713.60000002384,126_m_m_n_a.png,I,m,1521,5,1,2379.0,250334.60000002384,8100,NNB,B,4
5,prac,1,1.0,1-Back,1.0,z,Thu Mar 19 2026 10:27:39 GMT-0500 (Central Daylight Time),254196.60000002384,126_m_m_n_a.png,I,z,703,6,1,1472.8999999761581,252723.70000004768,8100,NNB,B,5
6,prac,1,0.0,1-Back,1.0,m,Thu Mar 19 2026 10:27:39 GMT-0500 (Central Daylight Time),256362.5,086_o_f_n_a.png,I,m,1288,7,1,2161.899999976158,254200.60000002384,8100,NNB,B,6
7,prac,1,0.0,1-Back,1.0,m,Thu Mar 19 2026 10:27:39 GMT-0500 (Central Daylight Time),258228.70000004768,178_m_m_n_a.png,I,m,988,8,1,1855.8000000715256,256372.89999997616,8100,NNB,B,7
8,prac,1,0.0,1-Back,1.0,m,Thu Mar 19 2026 10:27:39 GMT-0500 (Central Daylight Time),259944.79999995232,097_m_f_n_a.png,I,m,929,9,1,1712.1999999284744,258232.60000002384,8100,NNB,B,8
9,prac,1,1.0,1-Back,1.0,z,Thu Mar 19 2026 10:27:39 GMT-0500 (Central Daylight Time),261494.20000004768,097_m_f_n_a.png,I,z,762,10,1,1543.2000000476837,259951.0,8100,NNB,B,9
10,prac,1,0.0,1-Back,1.0,m,Thu Mar 19 2026 10:27:39 GMT-0500 (Central Daylight Time),263143.7000000477,176_o_m_n_a.png,I,m,872,11,1,1645.5,261498.20000004768,8100,NNB,B,10
11,prac,1,0.0,1-Back,1.0,m,Thu Mar 19 2026 10:27:39 GMT-0500 (Central Daylight Time),264885.7000000477,173_y_f_n_a.png,I,m,876,12,1,1734.1000000238419,263151.60000002384,8100,NNB,B,11
0,test,1,0.0,1-Back,,,Thu Mar 19 2026 10:27:39 GMT-0500 (Central Daylight Time),264885.7000000477,152_y_f_n_a.png,I,space,9329,1,1,1734.1000000238419,263151.60000002384,8100,NNB,B,0
1,test,1,0.0,1-Back,1.0,m,Thu Mar 19 2026 10:27:39 GMT-0500 (Central Daylight Time),286270.0,029_m_f_n_a.png,I,m,953,2,1,1975.7999999523163,284294.2000000477,8100,NNB,B,1
2,test,1,0.0,1-Back,1.0,m,Thu Mar 19 2026 10:27:39 GMT-0500 (Central Daylight Time),288052.5,173_y_f_n_a.png,I,m,757,3,1,1779.7000000476837,286272.7999999523,8100,NNB,B,2
3,test,1,1.0,1-Back,1.0,z,Thu Mar 19 2026 10:27:39 GMT-0500 (Central Daylight Time),289802.0,173_y_f_n_a.png,I,z,726,4,1,1743.7000000476837,288058.2999999523,8100,NNB,B,3
4,test,1,0.0,1-Back,1.0,m,Thu Mar 19 2026 10:27:39 GMT-0500 (Central Daylight Time),291867.7999999523,029_m_f_n_a.png,I,m,1048,5,1,2063.2999999523163,289804.5,8100,NNB,B,4
5,test,1,0.0,1-Back,1.0,m,Thu Mar 19 2026 10:27:39 GMT-0500 (Central Daylight Time),293584.2999999523,176_o_m_n_a.png,I,m,685,6,1,1711.2999999523163,291873.0,8100,NNB,B,5
6,test,1,1.0,1-Back,1.0,z,Thu Mar 19 2026 10:27:39 GMT-0500 (Central Daylight Time),295466.7999999523,176_o_m_n_a.png,I,z,866,7,1,1879.7999999523163,293587.0,8100,NNB,B,6
7,test,1,0.0,1-Back,1.0,m,Thu Mar 19 2026 10:27:39 GMT-0500 (Central Daylight Time),297749.2999999523,126_m_m_n_a.png,I,m,1256,8,1,2274.5999999046326,295474.7000000477,8100,NNB,B,7
8,test,1,0.0,1-Back,1.0,m,Thu Mar 19 2026 10:27:39 GMT-0500 (Central Daylight Time),299515.60000002384,086_o_f_n_a.png,I,m,741,9,1,1763.7000000476837,297751.89999997616,8100,NNB,B,8
9,test,1,0.0,1-Back,1.0,m,Thu Mar 19 2026 10:27:39 GMT-0500 (Central Daylight Time),301332.0,126_m_m_n_a.png,I,m,790,10,1,1811.6000000238419,299520.39999997616,8100,NNB,B,9
10,test,1,0.0,1-Back,1.0,m,Thu Mar 19 2026 10:27:39 GMT-0500 (Central Daylight Time),303147.60000002384,153_y_m_n_a.png,I,m,798,11,1,1812.7000000476837,301334.89999997616,8100,NNB,B,10
10,test,1,1.0,1-Back,0.0,z,Thu Mar 19 2026 10:27:39 GMT-0500 (Central Daylight Time),305130.2999999523,153_y_m_n_a.png,I,m,966,12,1,1977.0999999046326,303153.2000000477,8100,NNB,B,11
11,test,1,0.0,1-Back,1.0,m,Thu Mar 19 2026 10:27:39 GMT-0500 (Central Daylight Time),306829.7999999523,110_o_f_n_a.png,I,m,671,13,1,1697.0999999046326,305132.7000000477,8100,NNB,B,12
12,test,1,1.0,1-Back,1.0,z,Thu Mar 19 2026 10:27:39 GMT-0500 (Central Daylight Time),309162.60000002384,110_o_f_n_a.png,I,z,1308,14,1,2327.899999976158,306834.7000000477,8100,NNB,B,13
13,test,1,0.0,1-Back,1.0,m,Thu Mar 19 2026 10:27:39 GMT-0500 (Central Daylight Time),311012.0,013_y_m_n_a.png,I,m,824,15,1,1846.7000000476837,309165.2999999523,8100,NNB,B,14
14,test,1,0.0,1-Back,1.0,m,Thu Mar 19 2026 10:27:39 GMT-0500 (Central Daylight Time),312794.89999997616,097_m_f_n_a.png,I,m,731,16,1,1778.3999999761581,311016.5,8100,NNB,B,15
15,test,1,0.0,1-Back,1.0,m,Thu Mar 19 2026 10:27:39 GMT-0500 (Central Daylight Time),314460.89999997616,065_o_m_n_a.png,I,m,640,17,1,1663.6000000238419,312797.2999999523,8100,NNB,B,16
16,test,1,0.0,1-Back,1.0,m,Thu Mar 19 2026 10:27:39 GMT-0500 (Central Daylight Time),316310.39999997616,097_m_f_n_a.png,I,m,828,18,1,1845.1999999284744,314465.2000000477,8100,NNB,B,17
0,test,2,0.0,1-Back,,,Thu Mar 19 2026 10:27:39 GMT-0500 (Central Daylight Time),316310.39999997616,126_m_m_n_a.png,I,space,1979,1,1,1845.1999999284744,314465.2000000477,8100,NNB,B,0
1,test,2,0.0,1-Back,1.0,m,Thu Mar 19 2026 10:27:39 GMT-0500 (Central Daylight Time),322041.89999997616,029_m_f_n_a.png,I,m,709,2,1,1726.2999999523163,320315.60000002384,8100,NNB,B,1
2,test,2,1.0,1-Back,1.0,z,Thu Mar 19 2026 10:27:39 GMT-0500 (Central Daylight Time),323574.7000000477,029_m_f_n_a.png,I,z,503,3,1,1530.3000000715256,322044.39999997616,8100,NNB,B,2
3,test,2,0.0,1-Back,1.0,m,Thu Mar 19 2026 10:27:39 GMT-0500 (Central Daylight Time),325207.39999997616,126_m_m_n_a.png,I,m,603,4,1,1628.7999999523163,323578.60000002384,8100,NNB,B,3
3,test,2,0.0,1-Back,0.0,m,Thu Mar 19 2026 10:27:39 GMT-0500 (Central Daylight Time),327140.2000000477,153_y_m_n_a.png,I,z,906,5,1,1930.0,325210.2000000477,8100,NNB,B,4
4,test,2,0.0,1-Back,1.0,m,Thu Mar 19 2026 10:27:39 GMT-0500 (Central Daylight Time),329156.10000002384,152_y_f_n_a.png,I,m,998,6,1,2009.8999999761581,327146.2000000477,8100,NNB,B,5
5,test,2,1.0,1-Back,1.0,z,Thu Mar 19 2026 10:27:39 GMT-0500 (Central Daylight Time),331039.2000000477,152_y_f_n_a.png,I,z,853,7,1,1880.6000000238419,329158.60000002384,8100,NNB,B,6
6,test,2,0.0,1-Back,1.0,m,Thu Mar 19 2026 10:27:39 GMT-0500 (Central Daylight Time),333005.2000000477,153_y_m_n_a.png,I,m,939,8,1,1961.3000000715256,331043.89999997616,8100,NNB,B,7
7,test,2,0.0,1-Back,1.0,m,Thu Mar 19 2026 10:27:39 GMT-0500 (Central Daylight Time),334588.89999997616,110_o_f_n_a.png,I,m,565,9,1,1581.2999999523163,333007.60000002384,8100,NNB,B,8
8,test,2,0.0,1-Back,1.0,m,Thu Mar 19 2026 10:27:39 GMT-0500 (Central Daylight Time),336220.60000002384,178_m_m_n_a.png,I,m,612,10,1,1627.7000000476837,334592.89999997616,8100,NNB,B,9
9,test,2,1.0,1-Back,1.0,z,Thu Mar 19 2026 10:27:39 GMT-0500 (Central Daylight Time),337870.2999999523,178_m_m_n_a.png,I,z,630,11,1,1646.7999999523163,336223.5,8100,NNB,B,10
10,test,2,0.0,1-Back,1.0,m,Thu Mar 19 2026 10:27:39 GMT-0500 (Central Daylight Time),339570.0,110_o_f_n_a.png,I,m,675,12,1,1695.2999999523163,337874.7000000477,8100,NNB,B,11
11,test,2,0.0,1-Back,1.0,m,Thu Mar 19 2026 10:27:39 GMT-0500 (Central Daylight Time),341269.2999999523,086_o_f_n_a.png,I,m,680,13,1,1696.6999999284744,339572.60000002384,8100,NNB,B,12
12,test,2,0.0,1-Back,1.0,m,Thu Mar 19 2026 10:27:39 GMT-0500 (Central Daylight Time),342885.2000000477,176_o_m_n_a.png,I,m,588,14,1,1610.7000000476837,341274.5,8100,NNB,B,13
13,test,2,0.0,1-Back,1.0,m,Thu Mar 19 2026 10:27:39 GMT-0500 (Central Daylight Time),344518.0,065_o_m_n_a.png,I,m,613,15,1,1630.0,342888.0,8100,NNB,B,14
14,test,2,1.0,1-Back,1.0,z,Thu Mar 19 2026 10:27:39 GMT-0500 (Central Daylight Time),346167.7999999523,065_o_m_n_a.png,I,z,620,16,1,1646.2999999523163,344521.5,8100,NNB,B,15
15,test,2,0.0,1-Back,1.0,m,Thu Mar 19 2026 10:27:39 GMT-0500 (Central Daylight Time),347667.0,013_y_m_n_a.png,I,m,482,17,1,1496.7999999523163,346170.2000000477,8100,NNB,B,16
16,test,2,1.0,1-Back,1.0,z,Thu Mar 19 2026 10:27:39 GMT-0500 (Central Daylight Time),349150.2000000477,013_y_m_n_a.png,I,z,463,18,1,1476.0,347674.2000000477,8100,NNB,B,17
0,test,3,1.0,1-Back,,,Thu Mar 19 2026 10:27:39 GMT-0500 (Central Daylight Time),349150.2000000477,173_y_f_n_a.png,I,space,1763,1,1,1476.0,347674.2000000477,8100,NNB,B,0
1,test,3,0.0,1-Back,1.0,m,Thu Mar 19 2026 10:27:39 GMT-0500 (Central Daylight Time),354581.7999999523,065_o_m_n_a.png,I,m,564,1,1,1576.5,353005.2999999523,8100,NNB,B,1
1,test,3,1.0,1-Back,0.0,z,Thu Mar 19 2026 10:27:39 GMT-0500 (Central Daylight Time),356081.2000000477,065_o_m_n_a.png,I,m,477,1,1,1496.8000000715256,354584.39999997616,8100,NNB,B,2
2,test,3,0.0,1-Back,1.0,m,Thu Mar 19 2026 10:27:39 GMT-0500 (Central Daylight Time),357880.89999997616,097_m_f_n_a.png,I,m,768,1,1,1793.6999999284744,356087.2000000477,8100,NNB,B,3
3,test,3,1.0,1-Back,1.0,z,Thu Mar 19 2026 10:27:39 GMT-0500 (Central Daylight Time),359514.5,097_m_f_n_a.png,I,z,601,1,1,1631.0,357883.5,8100,NNB,B,4
4,test,3,0.0,1-Back,1.0,m,Thu Mar 19 2026 10:27:39 GMT-0500 (Central Daylight Time),361346.39999997616,110_o_f_n_a.png,I,m,800,1,1,1826.1000000238419,359520.2999999523,8100,NNB,B,5
4,test,3,0.0,1-Back,0.0,m,Thu Mar 19 2026 10:27:39 GMT-0500 (Central Daylight Time),363162.5,153_y_m_n_a.png,I,z,783,1,1,1813.3999999761581,361349.10000002384,8100,NNB,B,6
5,test,3,0.0,1-Back,1.0,m,Thu Mar 19 2026 10:27:39 GMT-0500 (Central Daylight Time),365196.10000002384,110_o_f_n_a.png,I,m,1014,1,1,2027.8999999761581,363168.2000000477,8100,NNB,B,7
6,test,3,0.0,1-Back,1.0,m,Thu Mar 19 2026 10:27:39 GMT-0500 (Central Daylight Time),366861.2999999523,013_y_m_n_a.png,I,m,646,1,1,1662.5999999046326,365198.7000000477,8100,NNB,B,8
6,test,3,1.0,1-Back,0.0,z,Thu Mar 19 2026 10:27:39 GMT-0500 (Central Daylight Time),368627.2999999523,013_y_m_n_a.png,I,m,740,1,1,1760.8999999761581,366866.39999997616,8100,NNB,B,9
7,test,3,0.0,1-Back,1.0,m,Thu Mar 19 2026 10:27:39 GMT-0500 (Central Daylight Time),370459.7999999523,029_m_f_n_a.png,I,m,815,1,1,1829.8999999761581,368629.89999997616,8100,NNB,B,10
8,test,3,0.0,1-Back,1.0,m,Thu Mar 19 2026 10:27:39 GMT-0500 (Central Daylight Time),372226.2999999523,152_y_f_n_a.png,I,m,733,1,1,1762.6999999284744,370463.60000002384,8100,NNB,B,11
9,test,3,1.0,1-Back,1.0,z,Thu Mar 19 2026 10:27:39 GMT-0500 (Central Daylight Time),373792.7000000477,152_y_f_n_a.png,I,z,544,1,1,1563.7000000476837,372229.0,8100,NNB,B,12
10,test,3,0.0,1-Back,1.0,m,Thu Mar 19 2026 10:27:39 GMT-0500 (Central Daylight Time),375475.2999999523,029_m_f_n_a.png,I,m,658,1,1,1676.3999999761581,373798.89999997616,8100,NNB,B,13
11,test,3,0.0,1-Back,1.0,m,Thu Mar 19 2026 10:27:39 GMT-0500 (Central Daylight Time),377174.7999999523,126_m_m_n_a.png,I,m,670,1,1,1696.7999999523163,375478.0,8100,NNB,B,14
12,test,3,1.0,1-Back,1.0,z,Thu Mar 19 2026 10:27:39 GMT-0500 (Central Daylight Time),378591.0,126_m_m_n_a.png,I,z,388,1,1,1411.8999999761581,377179.10000002384,8100,NNB,B,15
13,test,3,0.0,1-Back,1.0,m,Thu Mar 19 2026 10:27:39 GMT-0500 (Central Daylight Time),380390.2999999523,086_o_f_n_a.png,I,m,770,1,1,1796.6999999284744,378593.60000002384,8100,NNB,B,16
14,test,3,1.0,1-Back,1.0,z,Thu Mar 19 2026 10:27:39 GMT-0500 (Central Daylight Time),382039.89999997616,086_o_f_n_a.png,I,z,628,1,1,1644.7999999523163,380395.10000002384,8100,NNB,B,17
0,test,4,1.0,1-Back,,,Thu Mar 19 2026 10:27:39 GMT-0500 (Central Daylight Time),382039.89999997616,097_m_f_n_a.png,I,space,1394,1,1,1644.7999999523163,380395.10000002384,8100,NNB,B,0
1,test,4,0.0,1-Back,1.0,m,Thu Mar 19 2026 10:27:39 GMT-0500 (Central Daylight Time),387238.10000002384,065_o_m_n_a.png,I,m,696,2,1,1710.2000000476837,385527.89999997616,8100,NNB,B,1
1,test,4,0.0,1-Back,0.0,m,Thu Mar 19 2026 10:27:39 GMT-0500 (Central Daylight Time),388887.7999999523,097_m_f_n_a.png,I,z,628,3,1,1646.7999999523163,387241.0,8100,NNB,B,2
2,test,4,0.0,1-Back,1.0,m,Thu Mar 19 2026 10:27:39 GMT-0500 (Central Daylight Time),390703.7999999523,110_o_f_n_a.png,I,m,786,4,1,1810.3999999761581,388893.39999997616,8100,NNB,B,3
3,test,4,1.0,1-Back,1.0,z,Thu Mar 19 2026 10:27:39 GMT-0500 (Central Daylight Time),392369.7999999523,110_o_f_n_a.png,I,z,634,5,1,1663.3999999761581,390706.39999997616,8100,NNB,B,4
4,test,4,0.0,1-Back,1.0,m,Thu Mar 19 2026 10:27:39 GMT-0500 (Central Daylight Time),394618.89999997616,152_y_f_n_a.png,I,m,1232,6,1,2244.7999999523163,392374.10000002384,8100,NNB,B,5
5,test,4,0.0,1-Back,1.0,m,Thu Mar 19 2026 10:27:39 GMT-0500 (Central Daylight Time),396351.60000002384,153_y_m_n_a.png,I,m,710,7,1,1730.3000000715256,394621.2999999523,8100,NNB,B,6
6,test,4,1.0,1-Back,1.0,z,Thu Mar 19 2026 10:27:39 GMT-0500 (Central Daylight Time),397834.89999997616,153_y_m_n_a.png,I,z,458,8,1,1476.6999999284744,396358.2000000477,8100,NNB,B,7
7,test,4,0.0,1-Back,1.0,m,Thu Mar 19 2026 10:27:39 GMT-0500 (Central Daylight Time),399602.10000002384,152_y_f_n_a.png,I,m,735,9,1,1764.7000000476837,397837.39999997616,8100,NNB,B,8
8,test,4,0.0,1-Back,1.0,m,Thu Mar 19 2026 10:27:39 GMT-0500 (Central Daylight Time),401217.2000000477,178_m_m_n_a.png,I,m,593,10,1,1610.0,399607.2000000477,8100,NNB,B,9
9,test,4,1.0,1-Back,1.0,z,Thu Mar 19 2026 10:27:39 GMT-0500 (Central Daylight Time),402884.0,178_m_m_n_a.png,I,z,648,11,1,1664.2000000476837,401219.7999999523,8100,NNB,B,10
10,test,4,0.0,1-Back,1.0,m,Thu Mar 19 2026 10:27:39 GMT-0500 (Central Daylight Time),404466.2999999523,086_o_f_n_a.png,I,m,550,12,1,1576.8999999761581,402889.39999997616,8100,NNB,B,11
11,test,4,0.0,1-Back,1.0,m,Thu Mar 19 2026 10:27:39 GMT-0500 (Central Daylight Time),406163.2000000477,176_o_m_n_a.png,I,m,544,13,1,1694.3000000715256,404468.89999997616,8100,NNB,B,12
12,test,4,0.0,1-Back,1.0,m,Thu Mar 19 2026 10:27:39 GMT-0500 (Central Daylight Time),407981.60000002384,086_o_f_n_a.png,I,m,789,14,1,1813.2000000476837,406168.39999997616,8100,NNB,B,13
13,test,4,0.0,1-Back,1.0,m,Thu Mar 19 2026 10:27:39 GMT-0500 (Central Daylight Time),409564.60000002384,173_y_f_n_a.png,I,m,556,15,1,1580.3999999761581,407984.2000000477,8100,NNB,B,14
14,test,4,1.0,1-Back,1.0,z,Thu Mar 19 2026 10:27:39 GMT-0500 (Central Daylight Time),410997.39999997616,173_y_f_n_a.png,I,z,406,16,1,1427.5,409569.89999997616,8100,NNB,B,15
15,test,4,0.0,1-Back,1.0,m,Thu Mar 19 2026 10:27:39 GMT-0500 (Central Daylight Time),412547.10000002384,029_m_f_n_a.png,I,m,517,17,1,1547.1000000238419,411000.0,8100,NNB,B,16
16,test,4,1.0,1-Back,1.0,z,Thu Mar 19 2026 10:27:39 GMT-0500 (Central Daylight Time),414213.10000002384,029_m_f_n_a.png,I,z,647,18,1,1660.7000000476837,412552.39999997616,8100,NNB,B,17
0,test,5,1.0,1-Back,,,Thu Mar 19 2026 10:27:39 GMT-0500 (Central Daylight Time),414213.10000002384,176_o_m_n_a.png,I,space,16493,1,1,1660.7000000476837,412552.39999997616,8100,NNB,B,0
0,test,5,1.0,1-Back,0.0,z,Thu Mar 19 2026 10:27:39 GMT-0500 (Central Daylight Time),434207.89999997616,176_o_m_n_a.png,I,m,454,2,1,1477.5,432730.39999997616,8100,NNB,B,1
1,test,5,0.0,1-Back,1.0,m,Thu Mar 19 2026 10:27:39 GMT-0500 (Central Daylight Time),436122.89999997616,152_y_f_n_a.png,I,m,892,3,1,1911.6000000238419,434211.2999999523,8100,NNB,B,2
2,test,5,0.0,1-Back,1.0,m,Thu Mar 19 2026 10:27:39 GMT-0500 (Central Daylight Time),437889.2000000477,153_y_m_n_a.png,I,m,735,4,1,1761.4000000953674,436127.7999999523,8100,NNB,B,3
3,test,5,0.0,1-Back,1.0,m,Thu Mar 19 2026 10:27:39 GMT-0500 (Central Daylight Time),439471.7999999523,152_y_f_n_a.png,I,m,552,5,1,1580.0999999046326,437891.7000000477,8100,NNB,B,4
4,test,5,0.0,1-Back,1.0,m,Thu Mar 19 2026 10:27:39 GMT-0500 (Central Daylight Time),441121.2999999523,126_m_m_n_a.png,I,m,627,6,1,1644.3999999761581,439476.89999997616,8100,NNB,B,5
5,test,5,1.0,1-Back,1.0,z,Thu Mar 19 2026 10:27:39 GMT-0500 (Central Daylight Time),442654.2999999523,126_m_m_n_a.png,I,z,513,7,1,1530.5999999046326,441123.7000000477,8100,NNB,B,6
6,test,5,0.0,1-Back,1.0,m,Thu Mar 19 2026 10:27:39 GMT-0500 (Central Daylight Time),444237.0,173_y_f_n_a.png,I,m,563,8,1,1575.6000000238419,442661.39999997616,8100,NNB,B,7
7,test,5,0.0,1-Back,1.0,m,Thu Mar 19 2026 10:27:39 GMT-0500 (Central Daylight Time),445886.39999997616,013_y_m_n_a.png,I,m,621,9,1,1646.7999999523163,444239.60000002384,8100,NNB,B,8
8,test,5,0.0,1-Back,1.0,m,Thu Mar 19 2026 10:27:39 GMT-0500 (Central Daylight Time),447852.5,173_y_f_n_a.png,I,m,946,10,1,1960.0,445892.5,8100,NNB,B,9
9,test,5,0.0,1-Back,1.0,m,Thu Mar 19 2026 10:27:39 GMT-0500 (Central Daylight Time),449485.39999997616,086_o_f_n_a.png,I,m,606,11,1,1630.3999999761581,447855.0,8100,NNB,B,10
10,test,5,1.0,1-Back,1.0,z,Thu Mar 19 2026 10:27:39 GMT-0500 (Central Daylight Time),450902.7000000477,086_o_f_n_a.png,I,z,396,12,1,1412.2000000476837,449490.5,8100,NNB,B,11
11,test,5,0.0,1-Back,1.0,m,Thu Mar 19 2026 10:27:39 GMT-0500 (Central Daylight Time),452434.60000002384,065_o_m_n_a.png,I,m,509,13,1,1529.2000000476837,450905.39999997616,8100,NNB,B,12
12,test,5,0.0,1-Back,1.0,m,Thu Mar 19 2026 10:27:39 GMT-0500 (Central Daylight Time),454034.2999999523,097_m_f_n_a.png,I,m,571,14,1,1595.8999999761581,452438.39999997616,8100,NNB,B,13
13,test,5,1.0,1-Back,1.0,z,Thu Mar 19 2026 10:27:39 GMT-0500 (Central Daylight Time),455516.7000000477,097_m_f_n_a.png,I,z,456,15,1,1479.9000000953674,454036.7999999523,8100,NNB,B,14
14,test,5,0.0,1-Back,1.0,m,Thu Mar 19 2026 10:27:39 GMT-0500 (Central Daylight Time),457033.0,065_o_m_n_a.png,I,m,486,16,1,1510.5,455522.5,8100,NNB,B,15
15,test,5,0.0,1-Back,1.0,m,Thu Mar 19 2026 10:27:39 GMT-0500 (Central Daylight Time),458599.2000000477,029_m_f_n_a.png,I,m,545,17,1,1563.7000000476837,457035.5,8100,NNB,B,16
16,test,5,0.0,1-Back,1.0,m,Thu Mar 19 2026 10:27:39 GMT-0500 (Central Daylight Time),460198.5,178_m_m_n_a.png,I,m,569,18,1,1593.7999999523163,458604.7000000477,8100,NNB,B,17
0,prac,1,0.0,2-Back,,,Thu Mar 19 2026 10:27:39 GMT-0500 (Central Daylight Time),460198.5,013_y_m_n_a.png,I,space,5686,1,1,1593.7999999523163,458604.7000000477,8100,NNB,B,0
0,prac,1,0.0,2-Back,,,Thu Mar 19 2026 10:27:39 GMT-0500 (Central Daylight Time),460198.5,029_m_f_n_a.png,I,space,5686,2,1,1593.7999999523163,458604.7000000477,8100,NNB,B,0
0,prac,1,1.0,2-Back,0.0,m,Thu Mar 19 2026 10:27:39 GMT-0500 (Central Daylight Time),590341.6000000238,065_o_m_n_a.png,I,z,1158,3,1,2012.5,588329.1000000238,8100,NNB,B,1
0,prac,1,0.0,2-Back,0.0,m,Thu Mar 19 2026 10:27:39 GMT-0500 (Central Daylight Time),593223.7999999523,086_o_f_n_a.png,I,None,2008,4,1,2874.5999999046326,590349.2000000477,8100,NNB,B,2
1,prac,1,0.0,2-Back,1.0,z,Thu Mar 19 2026 10:27:39 GMT-0500 (Central Daylight Time),595923.2000000477,065_o_m_n_a.png,I,z,1919,5,1,2695.4000000953674,593227.7999999523,8100,NNB,B,3
1,prac,1,1.0,2-Back,0.0,z,Thu Mar 19 2026 10:27:39 GMT-0500 (Central Daylight Time),598705.7000000477,086_o_f_n_a.png,I,None,2006,6,1,2773.4000000953674,595932.2999999523,8100,NNB,B,4
1,prac,1,0.0,2-Back,0.0,m,Thu Mar 19 2026 10:27:39 GMT-0500 (Central Daylight Time),601137.8999999762,178_m_m_n_a.png,I,z,1580,7,1,2429.0,598708.8999999762,8100,NNB,B,5
1,prac,1,0.0,2-Back,0.0,m,Thu Mar 19 2026 10:27:39 GMT-0500 (Central Daylight Time),604003.8999999762,176_o_m_n_a.png,I,None,2004,8,1,2858.899999976158,601145.0,8100,NNB,B,6
1,prac,1,0.0,2-Back,0.0,m,Thu Mar 19 2026 10:27:39 GMT-0500 (Central Daylight Time),606869.5,173_y_f_n_a.png,I,None,2015,9,1,2861.899999976158,604007.6000000238,8100,NNB,B,7
1,prac,1,1.0,2-Back,0.0,z,Thu Mar 19 2026 10:27:39 GMT-0500 (Central Daylight Time),609652.0,176_o_m_n_a.png,I,None,2009,10,1,2775.899999976158,606876.1000000238,8100,NNB,B,8
2,prac,1,0.0,2-Back,1.0,m,Thu Mar 19 2026 10:27:39 GMT-0500 (Central Daylight Time),611035.2000000477,152_y_f_n_a.png,I,m,533,11,1,1379.6000000238419,609655.6000000238,8100,NNB,B,9
2,prac,1,0.0,2-Back,0.0,m,Thu Mar 19 2026 10:27:39 GMT-0500 (Central Daylight Time),613817.5,178_m_m_n_a.png,I,None,2009,12,1,2776.100000023842,611041.3999999762,8100,NNB,B,10
0,prac,2,0.0,2-Back,,,Thu Mar 19 2026 10:27:39 GMT-0500 (Central Daylight Time),613817.5,013_y_m_n_a.png,I,a,53222,1,1,2776.100000023842,611041.3999999762,8100,NNB,B,0
0,prac,2,0.0,2-Back,,,Thu Mar 19 2026 10:27:39 GMT-0500 (Central Daylight Time),613817.5,029_m_f_n_a.png,I,a,53222,2,1,2776.100000023842,611041.3999999762,8100,NNB,B,0
0,prac,2,1.0,2-Back,0.0,m,Thu Mar 19 2026 10:27:39 GMT-0500 (Central Daylight Time),674198.7000000477,065_o_m_n_a.png,I,z,1064,3,1,1928.9000000953674,672269.7999999523,8100,NNB,B,1
0,prac,2,0.0,2-Back,0.0,m,Thu Mar 19 2026 10:27:39 GMT-0500 (Central Daylight Time),677081.0,086_o_f_n_a.png,I,None,2009,4,1,2875.600000023842,674205.3999999762,8100,NNB,B,2
0,prac,2,0.0,2-Back,0.0,z,Thu Mar 19 2026 10:27:39 GMT-0500 (Central Daylight Time),678697.2999999523,065_o_m_n_a.png,I,m,845,5,1,1612.8999999761581,677084.3999999762,8100,NNB,B,3
1,prac,2,1.0,2-Back,1.0,z,Thu Mar 19 2026 10:27:39 GMT-0500 (Central Daylight Time),679980.2999999523,086_o_f_n_a.png,I,z,505,6,1,1275.8999999761581,678704.3999999762,8100,NNB,B,4
1,prac,2,0.0,2-Back,0.0,m,Thu Mar 19 2026 10:27:39 GMT-0500 (Central Daylight Time),682845.7000000477,178_m_m_n_a.png,I,None,2013,7,1,2862.100000023842,679983.6000000238,8100,NNB,B,5
2,prac,2,0.0,2-Back,1.0,m,Thu Mar 19 2026 10:27:39 GMT-0500 (Central Daylight Time),685178.5,176_o_m_n_a.png,I,m,1467,8,1,2325.2000000476837,682853.2999999523,8100,NNB,B,6
2,prac,2,0.0,2-Back,0.0,m,Thu Mar 19 2026 10:27:39 GMT-0500 (Central Daylight Time),688044.0,173_y_f_n_a.png,I,None,2017,9,1,2862.0,685182.0,8100,NNB,B,7
2,prac,2,1.0,2-Back,0.0,z,Thu Mar 19 2026 10:27:39 GMT-0500 (Central Daylight Time),689327.1000000238,176_o_m_n_a.png,I,m,503,10,1,1275.2000000476837,688051.8999999762,8100,NNB,B,8
2,prac,2,0.0,2-Back,0.0,m,Thu Mar 19 2026 10:27:39 GMT-0500 (Central Daylight Time),691943.2000000477,152_y_f_n_a.png,I,z,1760,11,1,2612.9000000953674,689330.2999999523,8100,NNB,B,9
3,prac,2,0.0,2-Back,1.0,m,Thu Mar 19 2026 10:27:39 GMT-0500 (Central Daylight Time),694025.7000000477,178_m_m_n_a.png,I,m,1300,12,1,2075.9000000953674,691949.7999999523,8100,NNB,B,10
0,test,1,0.0,2-Back,,,Thu Mar 19 2026 10:27:39 GMT-0500 (Central Daylight Time),694025.7000000477,153_y_m_n_a.png,I,space,12568,1,1,2075.9000000953674,691949.7999999523,8100,NNB,B,0
0,test,1,0.0,2-Back,,,Thu Mar 19 2026 10:27:39 GMT-0500 (Central Daylight Time),694025.7000000477,153_y_m_n_a.png,I,space,12568,2,1,2075.9000000953674,691949.7999999523,8100,NNB,B,0
1,test,1,0.0,2-Back,1.0,m,Thu Mar 19 2026 10:27:39 GMT-0500 (Central Daylight Time),720850.6000000238,086_o_f_n_a.png,I,m,998,3,1,2013.8000000715256,718836.7999999523,8100,NNB,B,1
1,test,1,0.0,2-Back,0.0,m,Thu Mar 19 2026 10:27:39 GMT-0500 (Central Daylight Time),723882.8999999762,126_m_m_n_a.png,I,None,2016,4,1,3028.7999999523163,720854.1000000238,8100,NNB,B,2
2,test,1,1.0,2-Back,1.0,z,Thu Mar 19 2026 10:27:39 GMT-0500 (Central Daylight Time),725799.2000000477,086_o_f_n_a.png,I,z,895,5,1,1913.8000000715256,723885.3999999762,8100,NNB,B,3
2,test,1,0.0,2-Back,0.0,m,Thu Mar 19 2026 10:27:39 GMT-0500 (Central Daylight Time),728831.6000000238,152_y_f_n_a.png,I,None,2015,6,1,3028.7000000476837,725802.8999999762,8100,NNB,B,4
2,test,1,0.0,2-Back,0.0,m,Thu Mar 19 2026 10:27:39 GMT-0500 (Central Daylight Time),730831.0,126_m_m_n_a.png,I,z,970,7,1,1996.8999999761581,728834.1000000238,8100,NNB,B,5
2,test,1,1.0,2-Back,0.0,z,Thu Mar 19 2026 10:27:39 GMT-0500 (Central Daylight Time),733863.2999999523,152_y_f_n_a.png,I,None,2014,8,1,3025.5999999046326,730837.7000000477,8100,NNB,B,6
3,test,1,0.0,2-Back,1.0,m,Thu Mar 19 2026 10:27:39 GMT-0500 (Central Daylight Time),736272.2999999523,013_y_m_n_a.png,I,m,1377,9,1,2406.5999999046326,733865.7000000477,8100,NNB,B,7
3,test,1,0.0,2-Back,0.0,m,Thu Mar 19 2026 10:27:39 GMT-0500 (Central Daylight Time),739294.7999999523,110_o_f_n_a.png,I,None,2016,10,1,3017.7999999523163,736277.0,8100,NNB,B,8
4,test,1,1.0,2-Back,1.0,z,Thu Mar 19 2026 10:27:39 GMT-0500 (Central Daylight Time),741444.6000000238,013_y_m_n_a.png,I,z,1123,11,1,2147.600000023842,739297.0,8100,NNB,B,9
4,test,1,0.0,2-Back,0.0,m,Thu Mar 19 2026 10:27:39 GMT-0500 (Central Daylight Time),744476.5,029_m_f_n_a.png,I,None,2016,12,1,3027.100000023842,741449.3999999762,8100,NNB,B,10
4,test,1,0.0,2-Back,0.0,m,Thu Mar 19 2026 10:27:39 GMT-0500 (Central Daylight Time),746609.3999999762,029_m_f_n_a.png,I,z,1102,13,1,2130.399999976158,744479.0,8100,NNB,B,11
4,test,1,0.0,2-Back,0.0,m,Thu Mar 19 2026 10:27:39 GMT-0500 (Central Daylight Time),749641.7000000477,065_o_m_n_a.png,I,None,2016,14,1,3026.4000000953674,746615.2999999523,8100,NNB,B,12
5,test,1,0.0,2-Back,1.0,m,Thu Mar 19 2026 10:27:39 GMT-0500 (Central Daylight Time),751674.3999999762,110_o_f_n_a.png,I,m,1008,15,1,2029.8999999761581,749644.5,8100,NNB,B,13
6,test,1,1.0,2-Back,1.0,z,Thu Mar 19 2026 10:27:39 GMT-0500 (Central Daylight Time),753840.5,065_o_m_n_a.png,I,z,1136,16,1,2160.0,751680.5,8100,NNB,B,14
6,test,1,0.0,2-Back,0.0,m,Thu Mar 19 2026 10:27:39 GMT-0500 (Central Daylight Time),756872.6000000238,097_m_f_n_a.png,I,None,2016,17,1,3029.7000000476837,753842.8999999762,8100,NNB,B,15
7,test,1,0.0,2-Back,1.0,m,Thu Mar 19 2026 10:27:39 GMT-0500 (Central Daylight Time),759288.5,178_m_m_n_a.png,I,m,1386,18,1,2411.600000023842,756876.8999999762,8100,NNB,B,16
0,test,2,0.0,2-Back,,,Thu Mar 19 2026 10:27:39 GMT-0500 (Central Daylight Time),759288.5,178_m_m_n_a.png,I,space,6946,1,1,2411.600000023842,756876.8999999762,8100,NNB,B,0
0,test,2,0.0,2-Back,,,Thu Mar 19 2026 10:27:39 GMT-0500 (Central Daylight Time),759288.5,173_y_f_n_a.png,I,space,6946,2,1,2411.600000023842,756876.8999999762,8100,NNB,B,0
1,test,2,1.0,2-Back,1.0,z,Thu Mar 19 2026 10:27:39 GMT-0500 (Central Daylight Time),772934.2999999523,178_m_m_n_a.png,I,z,546,3,1,1563.6999999284744,771370.6000000238,8100,NNB,B,1
1,test,2,0.0,2-Back,0.0,m,Thu Mar 19 2026 10:27:39 GMT-0500 (Central Daylight Time),775966.7000000477,097_m_f_n_a.png,I,None,2016,4,1,3028.4000000953674,772938.2999999523,8100,NNB,B,2
1,test,2,0.0,2-Back,0.0,m,Thu Mar 19 2026 10:27:39 GMT-0500 (Central Daylight Time),777866.2000000477,173_y_f_n_a.png,I,z,867,5,1,1897.1000000238419,775969.1000000238,8100,NNB,B,3
1,test,2,0.0,2-Back,0.0,m,Thu Mar 19 2026 10:27:39 GMT-0500 (Central Daylight Time),780898.6000000238,065_o_m_n_a.png,I,None,2016,6,1,3028.0,777870.6000000238,8100,NNB,B,4
2,test,2,0.0,2-Back,1.0,m,Thu Mar 19 2026 10:27:39 GMT-0500 (Central Daylight Time),783047.8999999762,152_y_f_n_a.png,I,m,1128,7,1,2146.6999999284744,780901.2000000477,8100,NNB,B,5
2,test,2,1.0,2-Back,0.0,z,Thu Mar 19 2026 10:27:39 GMT-0500 (Central Daylight Time),786081.1000000238,065_o_m_n_a.png,I,None,2017,8,1,3029.7000000476837,783051.3999999762,8100,NNB,B,6
3,test,2,0.0,2-Back,1.0,m,Thu Mar 19 2026 10:27:39 GMT-0500 (Central Daylight Time),788129.2000000477,013_y_m_n_a.png,I,m,1017,9,1,2044.7000000476837,786084.5,8100,NNB,B,7
3,test,2,0.0,2-Back,0.0,m,Thu Mar 19 2026 10:27:39 GMT-0500 (Central Daylight Time),791162.0,013_y_m_n_a.png,I,None,2016,10,1,3028.2999999523163,788133.7000000477,8100,NNB,B,8
4,test,2,0.0,2-Back,1.0,m,Thu Mar 19 2026 10:27:39 GMT-0500 (Central Daylight Time),793328.0,029_m_f_n_a.png,I,m,1144,11,1,2163.399999976158,791164.6000000238,8100,NNB,B,9
4,test,2,0.0,2-Back,0.0,m,Thu Mar 19 2026 10:27:39 GMT-0500 (Central Daylight Time),796277.1000000238,173_y_f_n_a.png,I,z,1930,12,1,2945.2000000476837,793331.8999999762,8100,NNB,B,10
4,test,2,1.0,2-Back,0.0,z,Thu Mar 19 2026 10:27:39 GMT-0500 (Central Daylight Time),799310.6000000238,029_m_f_n_a.png,I,None,2017,13,1,3031.3000000715256,796279.2999999523,8100,NNB,B,11
5,test,2,0.0,2-Back,1.0,m,Thu Mar 19 2026 10:27:39 GMT-0500 (Central Daylight Time),801308.7999999523,176_o_m_n_a.png,I,m,980,14,1,1994.2999999523163,799314.5,8100,NNB,B,12
5,test,2,0.0,2-Back,0.0,m,Thu Mar 19 2026 10:27:39 GMT-0500 (Central Daylight Time),804341.2000000477,176_o_m_n_a.png,I,None,2015,15,1,3029.9000000953674,801311.2999999523,8100,NNB,B,13
5,test,2,0.0,2-Back,0.0,m,Thu Mar 19 2026 10:27:39 GMT-0500 (Central Daylight Time),807373.6000000238,110_o_f_n_a.png,I,None,2016,16,1,3027.600000023842,804346.0,8100,NNB,B,14
6,test,2,0.0,2-Back,1.0,m,Thu Mar 19 2026 10:27:39 GMT-0500 (Central Daylight Time),809589.6000000238,126_m_m_n_a.png,I,m,1189,17,1,2213.5,807376.1000000238,8100,NNB,B,15
6,test,2,1.0,2-Back,0.0,z,Thu Mar 19 2026 10:27:39 GMT-0500 (Central Daylight Time),812622.1000000238,110_o_f_n_a.png,I,None,2016,18,1,3028.899999976158,809593.2000000477,8100,NNB,B,16
0,test,3,1.0,2-Back,,,Thu Mar 19 2026 10:27:39 GMT-0500 (Central Daylight Time),812622.1000000238,153_y_m_n_a.png,I,space,3524,1,1,3028.899999976158,809593.2000000477,8100,NNB,B,0
0,test,3,1.0,2-Back,,,Thu Mar 19 2026 10:27:39 GMT-0500 (Central Daylight Time),812622.1000000238,153_y_m_n_a.png,I,space,3524,2,1,3028.899999976158,809593.2000000477,8100,NNB,B,0
1,test,3,0.0,2-Back,1.0,m,Thu Mar 19 2026 10:27:39 GMT-0500 (Central Daylight Time),823218.8999999762,110_o_f_n_a.png,I,m,908,3,1,1931.0,821287.8999999762,8100,NNB,B,1
1,test,3,0.0,2-Back,0.0,m,Thu Mar 19 2026 10:27:39 GMT-0500 (Central Daylight Time),826250.8999999762,178_m_m_n_a.png,I,None,2016,4,1,3028.0,823222.8999999762,8100,NNB,B,2
1,test,3,1.0,2-Back,0.0,z,Thu Mar 19 2026 10:27:39 GMT-0500 (Central Daylight Time),828766.7000000477,110_o_f_n_a.png,I,m,1487,5,1,2513.5,826253.2000000477,8100,NNB,B,3
1,test,3,0.0,2-Back,0.0,m,Thu Mar 19 2026 10:27:39 GMT-0500 (Central Daylight Time),831799.1000000238,013_y_m_n_a.png,I,None,2015,6,1,3028.399999976158,828770.7000000477,8100,NNB,B,4
2,test,3,0.0,2-Back,1.0,m,Thu Mar 19 2026 10:27:39 GMT-0500 (Central Daylight Time),833948.7000000477,178_m_m_n_a.png,I,m,1130,7,1,2147.2000000476837,831801.5,8100,NNB,B,5
2,test,3,1.0,2-Back,0.0,z,Thu Mar 19 2026 10:27:39 GMT-0500 (Central Daylight Time),836981.7999999523,013_y_m_n_a.png,I,None,2016,8,1,3027.1999999284744,833954.6000000238,8100,NNB,B,6
3,test,3,0.0,2-Back,1.0,m,Thu Mar 19 2026 10:27:39 GMT-0500 (Central Daylight Time),839197.0,173_y_f_n_a.png,I,m,1189,9,1,2212.7999999523163,836984.2000000477,8100,NNB,B,7
3,test,3,0.0,2-Back,0.0,m,Thu Mar 19 2026 10:27:39 GMT-0500 (Central Daylight Time),842229.2999999523,126_m_m_n_a.png,I,None,2015,10,1,3027.6999999284744,839201.6000000238,8100,NNB,B,8
4,test,3,1.0,2-Back,1.0,z,Thu Mar 19 2026 10:27:39 GMT-0500 (Central Daylight Time),844345.1000000238,173_y_f_n_a.png,I,z,1084,11,1,2113.399999976158,842231.7000000477,8100,NNB,B,9
4,test,3,1.0,2-Back,0.0,z,Thu Mar 19 2026 10:27:39 GMT-0500 (Central Daylight Time),847377.7999999523,126_m_m_n_a.png,I,None,2016,12,1,3027.0999999046326,844350.7000000477,8100,NNB,B,10
5,test,3,0.0,2-Back,1.0,m,Thu Mar 19 2026 10:27:39 GMT-0500 (Central Daylight Time),849377.1000000238,110_o_f_n_a.png,I,m,968,13,1,1997.1000000238419,847380.0,8100,NNB,B,11
5,test,3,0.0,2-Back,0.0,m,Thu Mar 19 2026 10:27:39 GMT-0500 (Central Daylight Time),852409.7999999523,097_m_f_n_a.png,I,None,2016,14,1,3027.0999999046326,849382.7000000477,8100,NNB,B,12
6,test,3,0.0,2-Back,1.0,m,Thu Mar 19 2026 10:27:39 GMT-0500 (Central Daylight Time),854476.8999999762,065_o_m_n_a.png,I,m,1041,15,1,2064.7999999523163,852412.1000000238,8100,NNB,B,13
6,test,3,1.0,2-Back,0.0,z,Thu Mar 19 2026 10:27:39 GMT-0500 (Central Daylight Time),857508.0,097_m_f_n_a.png,I,None,2016,16,1,3026.899999976158,854481.1000000238,8100,NNB,B,14
7,test,3,0.0,2-Back,1.0,m,Thu Mar 19 2026 10:27:39 GMT-0500 (Central Daylight Time),859540.6000000238,086_o_f_n_a.png,I,m,1006,17,1,2030.1000000238419,857510.5,8100,NNB,B,15
7,test,3,0.0,2-Back,0.0,m,Thu Mar 19 2026 10:27:39 GMT-0500 (Central Daylight Time),862573.1000000238,086_o_f_n_a.png,I,None,2015,18,1,3027.899999976158,859545.2000000477,8100,NNB,B,16
0,test,4,0.0,2-Back,,,Thu Mar 19 2026 10:27:39 GMT-0500 (Central Daylight Time),862573.1000000238,176_o_m_n_a.png,I,space,2958,1,1,3027.899999976158,859545.2000000477,8100,NNB,B,0
0,test,4,0.0,2-Back,,,Thu Mar 19 2026 10:27:39 GMT-0500 (Central Daylight Time),862573.1000000238,152_y_f_n_a.png,I,space,2958,2,1,3027.899999976158,859545.2000000477,8100,NNB,B,0
1,test,4,1.0,2-Back,1.0,z,Thu Mar 19 2026 10:27:39 GMT-0500 (Central Daylight Time),872736.5,176_o_m_n_a.png,I,z,977,3,1,1993.0,870743.5,8100,NNB,B,1
1,test,4,1.0,2-Back,0.0,z,Thu Mar 19 2026 10:27:39 GMT-0500 (Central Daylight Time),875768.8999999762,152_y_f_n_a.png,I,None,2016,4,1,3030.0,872738.8999999762,8100,NNB,B,2
2,test,4,0.0,2-Back,1.0,m,Thu Mar 19 2026 10:27:39 GMT-0500 (Central Daylight Time),878518.0,110_o_f_n_a.png,I,m,1729,5,1,2745.2000000476837,875772.7999999523,8100,NNB,B,3
2,test,4,0.0,2-Back,0.0,m,Thu Mar 19 2026 10:27:39 GMT-0500 (Central Daylight Time),881550.3999999762,110_o_f_n_a.png,I,None,2015,6,1,3029.899999976158,878520.5,8100,NNB,B,4
3,test,4,0.0,2-Back,1.0,m,Thu Mar 19 2026 10:27:39 GMT-0500 (Central Daylight Time),883833.1000000238,029_m_f_n_a.png,I,m,1251,7,1,2277.899999976158,881555.2000000477,8100,NNB,B,5
3,test,4,0.0,2-Back,0.0,m,Thu Mar 19 2026 10:27:39 GMT-0500 (Central Daylight Time),886865.6000000238,013_y_m_n_a.png,I,None,2016,8,1,3030.2000000476837,883835.3999999762,8100,NNB,B,6
4,test,4,1.0,2-Back,1.0,z,Thu Mar 19 2026 10:27:39 GMT-0500 (Central Daylight Time),888897.8999999762,029_m_f_n_a.png,I,z,999,9,1,2027.8999999761581,886870.0,8100,NNB,B,7
4,test,4,0.0,2-Back,0.0,m,Thu Mar 19 2026 10:27:39 GMT-0500 (Central Daylight Time),891930.6000000238,126_m_m_n_a.png,I,None,2016,10,1,3030.5,888900.1000000238,8100,NNB,B,8
4,test,4,0.0,2-Back,0.0,m,Thu Mar 19 2026 10:27:39 GMT-0500 (Central Daylight Time),893813.3999999762,013_y_m_n_a.png,I,z,864,11,1,1878.7999999523163,891934.6000000238,8100,NNB,B,9
4,test,4,0.0,2-Back,0.0,m,Thu Mar 19 2026 10:27:39 GMT-0500 (Central Daylight Time),896845.7999999523,086_o_f_n_a.png,I,None,2016,12,1,3030.0,893815.7999999523,8100,NNB,B,10
5,test,4,0.0,2-Back,1.0,m,Thu Mar 19 2026 10:27:39 GMT-0500 (Central Daylight Time),898995.1000000238,153_y_m_n_a.png,I,m,1124,13,1,2145.5,896849.6000000238,8100,NNB,B,11
6,test,4,1.0,2-Back,1.0,z,Thu Mar 19 2026 10:27:39 GMT-0500 (Central Daylight Time),901255.2000000477,086_o_f_n_a.png,I,z,1226,14,1,2257.4000000953674,898997.7999999523,8100,NNB,B,12
6,test,4,1.0,2-Back,0.0,z,Thu Mar 19 2026 10:27:39 GMT-0500 (Central Daylight Time),903626.6000000238,153_y_m_n_a.png,I,m,1341,15,1,2364.100000023842,901262.5,8100,NNB,B,13
6,test,4,0.0,2-Back,0.0,m,Thu Mar 19 2026 10:27:39 GMT-0500 (Central Daylight Time),906659.6000000238,178_m_m_n_a.png,I,None,2016,16,1,3030.600000023842,903629.0,8100,NNB,B,14
6,test,4,0.0,2-Back,0.0,m,Thu Mar 19 2026 10:27:39 GMT-0500 (Central Daylight Time),909691.7000000477,097_m_f_n_a.png,I,None,2015,17,1,3028.3000000715256,906663.3999999762,8100,NNB,B,15
7,test,4,1.0,2-Back,1.0,z,Thu Mar 19 2026 10:27:39 GMT-0500 (Central Daylight Time),911890.6000000238,178_m_m_n_a.png,I,z,1182,18,1,2196.5,909694.1000000238,8100,NNB,B,16
0,test,5,1.0,2-Back,,,Thu Mar 19 2026 10:27:39 GMT-0500 (Central Daylight Time),911890.6000000238,153_y_m_n_a.png,I,space,2208,1,1,2196.5,909694.1000000238,8100,NNB,B,0
0,test,5,1.0,2-Back,,,Thu Mar 19 2026 10:27:39 GMT-0500 (Central Daylight Time),911890.6000000238,097_m_f_n_a.png,I,space,2208,2,1,2196.5,909694.1000000238,8100,NNB,B,0
1,test,5,1.0,2-Back,1.0,z,Thu Mar 19 2026 10:27:39 GMT-0500 (Central Daylight Time),921121.3999999762,153_y_m_n_a.png,I,z,943,3,1,1961.1999999284744,919160.2000000477,8100,NNB,B,1
1,test,5,1.0,2-Back,0.0,z,Thu Mar 19 2026 10:27:39 GMT-0500 (Central Daylight Time),924154.0,097_m_f_n_a.png,I,None,2016,4,1,3030.2999999523163,921123.7000000477,8100,NNB,B,2
1,test,5,0.0,2-Back,0.0,m,Thu Mar 19 2026 10:27:39 GMT-0500 (Central Daylight Time),927186.0,086_o_f_n_a.png,I,None,2014,5,1,3028.100000023842,924157.8999999762,8100,NNB,B,3
1,test,5,0.0,2-Back,0.0,m,Thu Mar 19 2026 10:27:39 GMT-0500 (Central Daylight Time),929586.5,153_y_m_n_a.png,I,z,1376,6,1,2398.100000023842,927188.3999999762,8100,NNB,B,4
1,test,5,0.0,2-Back,0.0,m,Thu Mar 19 2026 10:27:39 GMT-0500 (Central Daylight Time),932617.5,173_y_f_n_a.png,I,None,2015,7,1,3026.899999976158,929590.6000000238,8100,NNB,B,5
1,test,5,0.0,2-Back,0.0,m,Thu Mar 19 2026 10:27:39 GMT-0500 (Central Daylight Time),935516.8999999762,086_o_f_n_a.png,I,z,1881,8,1,2897.100000023842,932619.7999999523,8100,NNB,B,6
2,test,5,1.0,2-Back,1.0,z,Thu Mar 19 2026 10:27:39 GMT-0500 (Central Daylight Time),937633.0,173_y_f_n_a.png,I,z,1086,9,1,2111.2999999523163,935521.7000000477,8100,NNB,B,7
2,test,5,0.0,2-Back,0.0,m,Thu Mar 19 2026 10:27:39 GMT-0500 (Central Daylight Time),940649.7000000477,065_o_m_n_a.png,I,None,2001,10,1,3014.4000000953674,937635.2999999523,8100,NNB,B,8
2,test,5,0.0,2-Back,0.0,m,Thu Mar 19 2026 10:27:39 GMT-0500 (Central Daylight Time),943681.1000000238,029_m_f_n_a.png,I,None,2016,11,1,3026.899999976158,940654.2000000477,8100,NNB,B,9
3,test,5,0.0,2-Back,1.0,m,Thu Mar 19 2026 10:27:39 GMT-0500 (Central Daylight Time),945813.7999999523,126_m_m_n_a.png,I,m,1114,12,1,2130.399999976158,943683.3999999762,8100,NNB,B,10
3,test,5,0.0,2-Back,0.0,m,Thu Mar 19 2026 10:27:39 GMT-0500 (Central Daylight Time),948373.5,065_o_m_n_a.png,I,z,1542,13,1,2556.100000023842,945817.3999999762,8100,NNB,B,11
4,test,5,1.0,2-Back,1.0,z,Thu Mar 19 2026 10:27:39 GMT-0500 (Central Daylight Time),950661.8999999762,126_m_m_n_a.png,I,z,1272,14,1,2285.7999999523163,948376.1000000238,8100,NNB,B,12
4,test,5,0.0,2-Back,0.0,m,Thu Mar 19 2026 10:27:39 GMT-0500 (Central Daylight Time),953694.5,152_y_f_n_a.png,I,None,2016,15,1,3029.100000023842,950665.3999999762,8100,NNB,B,13
4,test,5,0.0,2-Back,0.0,m,Thu Mar 19 2026 10:27:39 GMT-0500 (Central Daylight Time),956728.1000000238,176_o_m_n_a.png,I,None,2017,16,1,3031.2000000476837,953696.8999999762,8100,NNB,B,14
5,test,5,0.0,2-Back,1.0,m,Thu Mar 19 2026 10:27:39 GMT-0500 (Central Daylight Time),958509.7000000477,029_m_f_n_a.png,I,m,755,17,1,1776.9000000953674,956732.7999999523,8100,NNB,B,15
5,test,5,1.0,2-Back,0.0,z,Thu Mar 19 2026 10:27:39 GMT-0500 (Central Daylight Time),961542.5,176_o_m_n_a.png,I,None,2016,18,1,3030.2999999523163,958512.2000000477,8100,NNB,B,16
