acc_sum,block,block_c,condition,correct,correct_response,datetime,endtime,flanker,jitter,project,response,response_test_buffer_response,response_test_target_response,response_time,response_time_test_buffer_response,response_time_test_target_response,row_sel,session_number,start_end,starttime,subject_id,target,task,task_vers,time_test_buffer,time_test_buffer_response,time_test_constants,time_test_flanker,time_test_jitter,time_test_logger,time_test_target,time_test_target_response,time_test_variables,trial
1,prac,1,con,1,z,Tue Aug 06 2024 17:43:54 GMT-0500 (Central Daylight Time),141922.2999999998,elated,800,O,z,,,631,,,9,1,2726.2999999998137,139196.0,7009,elated,AF,A,,,,,,,,,,1
2,prac,1,con,1,z,Tue Aug 06 2024 17:43:54 GMT-0500 (Central Daylight Time),144888.0,brutal,800,O,z,,,720,,,13,1,2960.8000000002794,141927.19999999972,7009,brutal,AF,A,,,,,,,,,,2
3,prac,1,inc,1,m,Tue Aug 06 2024 17:43:54 GMT-0500 (Central Daylight Time),147886.8999999999,brutal,1100,O,m,,,592,,,8,1,2994.399999999907,144892.5,7009,window,AF,A,,,,,,,,,,3
4,prac,1,con,1,m,Tue Aug 06 2024 17:43:54 GMT-0500 (Central Daylight Time),150619.3999999999,step,800,O,m,,,622,,,1,1,2728.399999999907,147891.0,7009,step,AF,A,,,,,,,,,,4
5,prac,1,inc,1,z,Tue Aug 06 2024 17:43:54 GMT-0500 (Central Daylight Time),153668.6000000001,film,900,O,z,,,843,,,14,1,3044.2000000001863,150624.3999999999,7009,hate,AF,A,,,,,,,,,,5
6,prac,1,inc,1,z,Tue Aug 06 2024 17:43:54 GMT-0500 (Central Daylight Time),156767.6000000001,napkin,1100,O,z,,,699,,,12,1,3094.600000000093,153673.0,7009,friend,AF,A,,,,,,,,,,6
7,prac,1,con,1,z,Tue Aug 06 2024 17:43:54 GMT-0500 (Central Daylight Time),159700.19999999972,rage,1000,O,z,,,628,,,15,1,2928.5,156771.69999999972,7009,rage,AF,A,,,,,,,,,,7
8,prac,1,con,1,m,Tue Aug 06 2024 17:43:54 GMT-0500 (Central Daylight Time),162365.69999999972,jacket,800,O,m,,,561,,,5,1,2661.399999999907,159704.2999999998,7009,jacket,AF,A,,,,,,,,,,8
9,prac,1,con,1,z,Tue Aug 06 2024 17:43:54 GMT-0500 (Central Daylight Time),165264.7999999998,love,1000,O,z,,,590,,,11,1,2894.7999999998137,162370.0,7009,love,AF,A,,,,,,,,,,9
10,prac,1,inc,1,z,Tue Aug 06 2024 17:43:54 GMT-0500 (Central Daylight Time),168147.3999999999,rock,900,O,z,,,671,,,10,1,2878.2999999998137,165269.1000000001,7009,kind,AF,A,,,,,,,,,,10
11,prac,1,inc,1,m,Tue Aug 06 2024 17:43:54 GMT-0500 (Central Daylight Time),170979.6000000001,elated,900,O,m,,,629,,,6,1,2827.5,168152.1000000001,7009,napkin,AF,A,,,,,,,,,,11
12,prac,1,con,1,m,Tue Aug 06 2024 17:43:54 GMT-0500 (Central Daylight Time),174095.6000000001,remote,1000,O,m,,,799,,,7,1,3112.0,170983.6000000001,7009,remote,AF,A,,,,,,,,,,12
13,prac,1,inc,1,m,Tue Aug 06 2024 17:43:54 GMT-0500 (Central Daylight Time),177111.0,hate,1100,O,m,,,608,,,4,1,3011.2000000001863,174099.7999999998,7009,film,AF,A,,,,,,,,,,13
14,prac,1,inc,1,m,Tue Aug 06 2024 17:43:54 GMT-0500 (Central Daylight Time),179910.2999999998,kind,900,O,m,,,594,,,2,1,2795.2999999998137,177115.0,7009,rock,AF,A,,,,,,,,,,14
15,prac,1,con,1,m,Tue Aug 06 2024 17:43:54 GMT-0500 (Central Daylight Time),182842.7999999998,bell,1000,O,m,,,629,,,3,1,2928.5,179914.2999999998,7009,bell,AF,A,,,,,,,,,,15
16,prac,1,inc,1,z,Tue Aug 06 2024 17:43:54 GMT-0500 (Central Daylight Time),185891.69999999972,window,1100,O,z,,,645,,,16,1,3044.1999999997206,182847.5,7009,temper,AF,A,,,,,,,,,,16
1,test,1,con,1,m,Tue Aug 06 2024 17:43:54 GMT-0500 (Central Daylight Time),207918.1000000001,napkin,800,O,m,m,None,662,462.0,200.0,105,1,1996.2000000001863,205921.8999999999,7009,napkin,AF,A,204233,204233,202703,203516,202703,204699,204032,204032,204699,1
2,test,1,inc,1,z,Tue Aug 06 2024 17:43:54 GMT-0500 (Central Daylight Time),210217.2999999998,film,1100,O,z,z,None,651,451.0,200.0,16,1,2294.600000000093,207922.69999999972,7009,kind,AF,A,206532,206532,204704,205816,204704,206998,206332,206332,206998,2
3,test,1,con,1,z,Tue Aug 06 2024 17:43:54 GMT-0500 (Central Daylight Time),212250.1000000001,elated,900,O,z,z,None,584,384.0,200.0,2,1,2028.6000000000931,210221.5,7009,elated,AF,A,208631,208631,207003,207915,207003,209031,208431,208431,209031,3
4,test,1,con,1,z,Tue Aug 06 2024 17:43:54 GMT-0500 (Central Daylight Time),214332.69999999972,kind,1000,O,z,z,None,539,310.0,229.0,11,1,2078.5,212254.19999999972,7009,kind,AF,A,210793,210793,209035,210048,209035,211114,210564,210564,211114,4
5,test,1,inc,1,m,Tue Aug 06 2024 17:43:54 GMT-0500 (Central Daylight Time),216398.5,temper,1000,O,m,m,None,520,320.0,200.0,103,1,2061.600000000093,214336.8999999999,7009,jacket,AF,A,212847,212847,211118,212130,211118,213180,212647,212647,213180,5
6,test,1,inc,1,z,Tue Aug 06 2024 17:43:54 GMT-0500 (Central Daylight Time),218331.6000000001,jacket,800,O,z,z,None,589,390.0,199.0,29,1,1929.3000000002794,216402.2999999998,7009,friend,AF,A,214713,214713,213183,213996,213184,215113,214513,214513,215113,6
7,test,1,con,1,z,Tue Aug 06 2024 17:43:54 GMT-0500 (Central Daylight Time),220430.6000000001,kind,900,O,z,z,None,652,453.0,199.0,10,1,2095.0,218335.6000000001,7009,kind,AF,A,216746,216746,215117,216029,215117,217212,216546,216546,217212,7
8,test,1,con,1,m,Tue Aug 06 2024 17:43:54 GMT-0500 (Central Daylight Time),222330.19999999972,rock,800,O,m,m,None,550,350.0,200.0,73,1,1895.6999999997206,220434.5,7009,rock,AF,A,218745,218745,217216,218028,217216,219111,218545,218545,219111,8
9,test,1,con,1,m,Tue Aug 06 2024 17:43:54 GMT-0500 (Central Daylight Time),224446.2999999998,window,1000,O,m,m,None,571,370.0,201.0,123,1,2111.7999999998137,222334.5,7009,window,AF,A,220845,220845,219116,220128,219116,221227,220644,220644,221227,9
10,test,1,inc,1,m,Tue Aug 06 2024 17:43:54 GMT-0500 (Central Daylight Time),226478.8999999999,kind,900,O,m,m,None,585,385.0,200.0,94,1,2028.6000000000931,224450.2999999998,7009,film,AF,A,222861,222861,221231,222144,221232,223260,222660,222660,223260,10
11,test,1,con,1,z,Tue Aug 06 2024 17:43:54 GMT-0500 (Central Daylight Time),228494.7999999998,love,900,O,z,z,None,577,377.0,200.0,18,1,2011.5,226483.2999999998,7009,love,AF,A,224893,224893,223264,224177,223265,225276,224693,224693,225276,11
12,test,1,con,1,m,Tue Aug 06 2024 17:43:54 GMT-0500 (Central Daylight Time),230461.1000000001,rock,900,O,m,m,None,530,330.0,200.0,74,1,1962.3000000002794,228498.7999999998,7009,rock,AF,A,226909,226909,225280,226192,225280,227242,226709,226709,227242,12
13,test,1,con,1,z,Tue Aug 06 2024 17:43:54 GMT-0500 (Central Daylight Time),232743.6000000001,friend,1100,O,z,z,None,644,444.0,200.0,28,1,2278.8000000002794,230464.7999999998,7009,friend,AF,A,229075,229075,227246,228359,227246,229525,228875,228875,229525,13
14,test,1,con,1,m,Tue Aug 06 2024 17:43:54 GMT-0500 (Central Daylight Time),234809.6000000001,jacket,1000,O,m,m,None,515,316.0,199.0,99,1,2062.100000000093,232747.5,7009,jacket,AF,A,231258,231258,229529,230541,229529,231591,231058,231058,231590,14
15,test,1,con,1,m,Tue Aug 06 2024 17:43:54 GMT-0500 (Central Daylight Time),236709.1000000001,napkin,900,O,m,m,None,455,255.0,200.0,106,1,1895.8000000002794,234813.2999999998,7009,napkin,AF,A,233224,233224,231594,232507,231595,233490,233024,233024,233490,15
16,test,1,inc,1,z,Tue Aug 06 2024 17:43:54 GMT-0500 (Central Daylight Time),238841.69999999972,rock,900,O,z,z,None,617,417.0,200.0,46,1,2128.899999999907,236712.7999999998,7009,hate,AF,A,235190,235190,233494,234483,233494,235623,234990,234990,235623,16
17,test,1,inc,1,z,Tue Aug 06 2024 17:43:54 GMT-0500 (Central Daylight Time),240974.5,bell,1000,O,z,z,None,587,387.0,200.0,47,1,2129.2000000001863,238845.2999999998,7009,hate,AF,A,237356,237356,235626,236639,235627,237756,237156,237156,237756,17
18,test,1,con,1,m,Tue Aug 06 2024 17:43:54 GMT-0500 (Central Daylight Time),243190.5,remote,900,O,m,m,None,768,569.0,199.0,114,1,2212.3000000002794,240978.19999999972,7009,remote,AF,A,239389,239389,237759,238672,237759,239972,239189,239189,239972,18
19,test,1,inc,1,m,Tue Aug 06 2024 17:43:54 GMT-0500 (Central Daylight Time),245189.7999999998,elated,800,O,m,m,None,654,455.0,199.0,125,1,1995.1999999997206,243194.6000000001,7009,window,AF,A,241504,241504,239976,240788,239976,241971,241304,241305,241971,19
20,test,1,inc,1,m,Tue Aug 06 2024 17:43:54 GMT-0500 (Central Daylight Time),247505.6000000001,hate,1100,O,m,m,None,666,467.0,199.0,72,1,2311.8000000002794,245193.7999999998,7009,step,AF,A,243804,243804,241975,243087,241975,244287,243604,243604,244287,20
21,test,1,con,1,m,Tue Aug 06 2024 17:43:54 GMT-0500 (Central Daylight Time),249622.0,rock,1000,O,m,m,None,570,371.0,199.0,75,1,2112.399999999907,247509.6000000001,7009,rock,AF,A,246020,246020,244291,245303,244291,246403,245820,245820,246403,21
22,test,1,inc,1,m,Tue Aug 06 2024 17:43:54 GMT-0500 (Central Daylight Time),251471.19999999972,elated,800,O,m,m,None,503,303.0,200.0,101,1,1843.3999999999069,249627.7999999998,7009,jacket,AF,A,247936,247936,246409,247219,246409,248252,247736,247736,248252,22
23,test,1,con,1,z,Tue Aug 06 2024 17:43:54 GMT-0500 (Central Daylight Time),253570.2999999998,friend,900,O,z,z,None,666,466.0,200.0,26,1,2094.6999999997206,251475.6000000001,7009,friend,AF,A,249885,249885,248257,249169,248257,250351,249685,249685,250351,23
24,test,1,inc,1,m,Tue Aug 06 2024 17:43:54 GMT-0500 (Central Daylight Time),255486.6000000001,elated,800,O,m,m,None,577,378.0,199.0,109,1,1912.5,253574.1000000001,7009,napkin,AF,A,251885,251885,250355,251168,250355,252268,251685,251685,252268,24
25,test,1,inc,1,z,Tue Aug 06 2024 17:43:54 GMT-0500 (Central Daylight Time),257702.5,window,1100,O,z,z,None,569,370.0,199.0,32,1,2212.100000000093,255490.3999999999,7009,friend,AF,A,254100,254100,252271,253384,252272,254484,253901,253901,254483,25
26,test,1,con,1,z,Tue Aug 06 2024 17:43:54 GMT-0500 (Central Daylight Time),259951.7999999998,brutal,1000,O,z,z,None,700,501.0,199.0,35,1,2245.600000000093,257706.19999999972,7009,brutal,AF,A,256217,256217,254487,255500,254488,256733,256017,256017,256733,26
27,test,1,inc,1,z,Tue Aug 06 2024 17:43:54 GMT-0500 (Central Daylight Time),262051.0,napkin,900,O,z,z,None,658,457.0,201.0,6,1,2095.600000000093,259955.3999999999,7009,elated,AF,A,258366,258366,256736,257649,256737,258832,258165,258165,258832,27
28,test,1,con,1,z,Tue Aug 06 2024 17:43:54 GMT-0500 (Central Daylight Time),264033.6000000001,elated,1000,O,z,z,None,442,242.0,200.0,3,1,1978.9000000003725,262054.69999999972,7009,elated,AF,A,260565,260565,258836,259849,258836,260815,260365,260365,260815,28
29,test,1,inc,1,z,Tue Aug 06 2024 17:43:54 GMT-0500 (Central Daylight Time),266266.1999999997,window,1100,O,z,z,None,597,398.0,199.0,8,1,2228.7999999998137,264037.3999999999,7009,elated,AF,A,262648,262648,260818,261932,260819,263047,262448,262448,263047,29
30,test,1,inc,1,m,Tue Aug 06 2024 17:43:54 GMT-0500 (Central Daylight Time),268432.2999999998,temper,1000,O,m,m,None,626,427.0,199.0,119,1,2162.2999999998137,266270.0,7009,remote,AF,A,264780,264780,263051,264064,263051,265213,264581,264581,265213,30
31,test,1,con,1,z,Tue Aug 06 2024 17:43:54 GMT-0500 (Central Daylight Time),270731.6000000001,brutal,1100,O,z,z,None,671,472.0,199.0,36,1,2295.600000000093,268436.0,7009,brutal,AF,A,267030,267030,265217,266330,265217,267513,266831,266831,267513,31
32,test,1,inc,1,z,Tue Aug 06 2024 17:43:54 GMT-0500 (Central Daylight Time),272714.2999999998,step,800,O,z,z,None,641,441.0,200.0,53,1,1978.6999999997206,270735.6000000001,7009,rage,AF,A,269046,269046,267517,268329,267517,269495,268846,268846,269495,32
33,test,1,con,1,z,Tue Aug 06 2024 17:43:54 GMT-0500 (Central Daylight Time),274780.3999999999,rage,1100,O,z,z,None,429,230.0,199.0,52,1,2062.2000000001863,272718.1999999997,7009,rage,AF,A,271328,271328,269499,270612,269499,271562,271128,271129,271561,33
34,test,1,con,1,m,Tue Aug 06 2024 17:43:54 GMT-0500 (Central Daylight Time),276646.5,remote,800,O,m,m,None,527,328.0,199.0,113,1,1862.3000000002794,274784.1999999997,7009,remote,AF,A,273095,273095,271565,272378,271565,273428,272895,272895,273428,34
35,test,1,con,1,z,Tue Aug 06 2024 17:43:54 GMT-0500 (Central Daylight Time),278479.2999999998,kind,800,O,z,z,None,485,286.0,199.0,9,1,1828.8999999999069,276650.3999999999,7009,kind,AF,A,274961,274961,273431,274244,273432,275260,274761,274761,275260,35
36,test,1,con,1,m,Tue Aug 06 2024 17:43:54 GMT-0500 (Central Daylight Time),280678.6000000001,rock,1100,O,m,m,None,562,362.0,200.0,76,1,2195.7000000001863,278482.8999999999,7009,rock,AF,A,277093,277093,275264,276377,275264,277460,276893,276893,277460,36
37,test,1,inc,1,z,Tue Aug 06 2024 17:43:54 GMT-0500 (Central Daylight Time),282827.7999999998,remote,1000,O,z,z,None,613,414.0,199.0,39,1,2145.6999999997206,280682.1000000001,7009,brutal,AF,A,279193,279193,277463,278476,277463,279609,278993,278993,279609,37
38,test,1,con,1,m,Tue Aug 06 2024 17:43:54 GMT-0500 (Central Daylight Time),284771.5,film,900,O,m,m,None,510,310.0,200.0,90,1,1940.1000000000931,282831.3999999999,7009,film,AF,A,281242,281242,279612,280526,279613,281553,281042,281042,281553,38
39,test,1,con,1,m,Tue Aug 06 2024 17:43:54 GMT-0500 (Central Daylight Time),286526.6999999997,step,800,O,m,m,None,418,219.0,199.0,65,1,1750.8999999999069,284775.7999999998,7009,step,AF,A,283075,283075,281557,282358,281557,283308,282875,282875,283308,39
40,test,1,inc,1,z,Tue Aug 06 2024 17:43:54 GMT-0500 (Central Daylight Time),288709.2999999998,film,1100,O,z,z,None,536,337.0,199.0,56,1,2178.600000000093,286530.6999999997,7009,rage,AF,A,285141,285141,283312,284424,283312,285490,284941,284941,285490,40
41,test,1,con,1,z,Tue Aug 06 2024 17:43:54 GMT-0500 (Central Daylight Time),290442.1000000001,love,800,O,z,z,None,390,191.0,199.0,17,1,1729.1000000000931,288713.0,7009,love,AF,A,287023,287024,285494,286307,285494,287223,286824,286824,287223,41
42,test,1,con,1,z,Tue Aug 06 2024 17:43:54 GMT-0500 (Central Daylight Time),292191.6000000001,hate,800,O,z,z,None,411,211.0,200.0,41,1,1745.8000000002794,290445.7999999998,7009,hate,AF,A,288756,288756,287227,288040,287227,288973,288556,288556,288973,42
43,test,1,inc,1,z,Tue Aug 06 2024 17:43:54 GMT-0500 (Central Daylight Time),294390.8999999999,film,1100,O,z,z,None,551,352.0,199.0,48,1,2195.600000000093,292195.2999999998,7009,hate,AF,A,290806,290806,288976,290089,288977,291172,290606,290606,291172,43
44,test,1,con,1,z,Tue Aug 06 2024 17:43:54 GMT-0500 (Central Daylight Time),296340.2999999998,rage,1000,O,z,z,None,414,214.0,200.0,51,1,1945.6999999997206,294394.6000000001,7009,rage,AF,A,292905,292905,291176,292189,291176,293121,292705,292705,293121,44
45,test,1,con,1,m,Tue Aug 06 2024 17:43:54 GMT-0500 (Central Daylight Time),298223.0,jacket,900,O,m,m,None,436,236.0,200.0,98,1,1878.8000000002794,296344.1999999997,7009,jacket,AF,A,294754,294754,293125,294038,293126,295004,294554,294554,295004,45
46,test,1,con,1,z,Tue Aug 06 2024 17:43:54 GMT-0500 (Central Daylight Time),300272.5,hate,900,O,z,z,None,602,402.0,200.0,42,1,2045.8999999999069,298226.6000000001,7009,hate,AF,A,296637,296637,295008,295921,295008,297054,296437,296437,297054,46
47,test,1,inc,1,m,Tue Aug 06 2024 17:43:54 GMT-0500 (Central Daylight Time),302455.0,friend,1100,O,m,m,None,542,343.0,199.0,120,1,2178.7000000001863,300276.2999999998,7009,remote,AF,A,298887,298887,297057,298170,297058,299236,298687,298687,299236,47
48,test,1,con,1,m,Tue Aug 06 2024 17:43:54 GMT-0500 (Central Daylight Time),304487.6000000001,film,1000,O,m,m,None,494,294.0,200.0,91,1,2029.0,302458.6000000001,7009,film,AF,A,300969,300969,299240,300253,299240,301269,300769,300769,301269,48
49,test,1,inc,1,m,Tue Aug 06 2024 17:43:54 GMT-0500 (Central Daylight Time),306587.1000000001,brutal,900,O,m,m,None,656,456.0,200.0,102,1,2095.4000000003725,304491.6999999997,7009,jacket,AF,A,302902,302902,301273,302185,301273,303368,302702,302702,303368,49
50,test,1,con,1,m,Tue Aug 06 2024 17:43:54 GMT-0500 (Central Daylight Time),308619.6000000001,bell,900,O,m,m,None,467,265.0,202.0,82,1,2028.7000000001863,306590.8999999999,7009,bell,AF,A,305134,305134,303372,304285,303372,305401,304932,304932,305401,50
51,test,1,con,1,m,Tue Aug 06 2024 17:43:54 GMT-0500 (Central Daylight Time),310802.1999999997,window,1100,O,m,m,None,548,349.0,199.0,124,1,2178.899999999907,308623.2999999998,7009,window,AF,A,307234,307234,305404,306517,305405,307583,307034,307034,307583,51
52,test,1,con,1,m,Tue Aug 06 2024 17:43:54 GMT-0500 (Central Daylight Time),312885.1000000001,remote,1100,O,m,m,None,439,239.0,200.0,116,1,2079.600000000093,310805.5,7009,remote,AF,A,309416,309416,307587,308700,307587,309666,309216,309216,309666,52
53,test,1,inc,1,m,Tue Aug 06 2024 17:43:54 GMT-0500 (Central Daylight Time),314784.5,brutal,900,O,m,m,None,452,252.0,200.0,126,1,1895.8000000002794,312888.6999999997,7009,window,AF,A,311299,311299,309670,310583,309670,311566,311099,311099,311565,53
54,test,1,inc,1,m,Tue Aug 06 2024 17:43:54 GMT-0500 (Central Daylight Time),316733.8999999999,kind,900,O,m,m,None,512,313.0,199.0,86,1,1945.3999999999069,314788.5,7009,bell,AF,A,313198,313198,311570,312482,311570,313515,312999,312999,313515,54
55,test,1,inc,1,m,Tue Aug 06 2024 17:43:54 GMT-0500 (Central Daylight Time),318533.3999999999,rage,800,O,m,m,None,455,255.0,200.0,85,1,1795.7000000001863,316737.6999999997,7009,bell,AF,A,315048,315048,313519,314331,313519,315315,314848,314848,315314,55
56,test,1,inc,1,z,Tue Aug 06 2024 17:43:54 GMT-0500 (Central Daylight Time),320615.8999999999,film,1100,O,z,z,None,436,236.0,200.0,24,1,2078.7000000001863,318537.1999999997,7009,love,AF,A,317147,317147,315318,316431,315318,317397,316947,316947,317397,56
57,test,1,con,1,m,Tue Aug 06 2024 17:43:54 GMT-0500 (Central Daylight Time),322815.2999999998,napkin,1100,O,m,m,None,553,353.0,200.0,108,1,2195.600000000093,320619.6999999997,7009,napkin,AF,A,319230,319230,317401,318513,317401,319596,319030,319030,319596,57
58,test,1,inc,1,m,Tue Aug 06 2024 17:43:54 GMT-0500 (Central Daylight Time),324864.6999999997,love,1000,O,m,m,None,502,302.0,200.0,95,1,2045.5999999996275,322819.1000000001,7009,film,AF,A,321329,321329,319600,320613,319600,321646,321129,321129,321646,58
59,test,1,inc,1,z,Tue Aug 06 2024 17:43:54 GMT-0500 (Central Daylight Time),327015.1999999997,window,1100,O,z,z,None,503,304.0,199.0,40,1,2146.899999999907,324868.2999999998,7009,brutal,AF,A,323479,323479,321649,322762,321650,323796,323279,323279,323796,59
60,test,1,inc,1,z,Tue Aug 06 2024 17:43:54 GMT-0500 (Central Daylight Time),328980.1000000001,bell,1000,O,z,z,None,423,223.0,200.0,23,1,1961.1000000000931,327019.0,7009,love,AF,A,325528,325528,323800,324812,323800,325761,325328,325328,325761,60
61,test,1,inc,1,z,Tue Aug 06 2024 17:43:54 GMT-0500 (Central Daylight Time),331046.1999999997,remote,1000,O,z,z,None,529,329.0,200.0,63,1,2062.5,328983.6999999997,7009,temper,AF,A,327494,327494,325765,326778,325765,327827,327294,327294,327827,61
62,test,1,inc,1,z,Tue Aug 06 2024 17:43:54 GMT-0500 (Central Daylight Time),332778.6000000001,step,800,O,z,z,None,414,199.0,215.0,21,1,1728.6000000000931,331050.0,7009,love,AF,A,329360,329360,327831,328643,327831,329560,329145,329145,329560,62
63,test,1,con,1,z,Tue Aug 06 2024 17:43:54 GMT-0500 (Central Daylight Time),334878.1999999997,hate,1100,O,z,z,None,461,262.0,199.0,44,1,2096.2999999998137,332781.8999999999,7009,hate,AF,A,331393,331393,329563,330676,329563,331659,331193,331193,331659,63
64,test,1,inc,1,z,Tue Aug 06 2024 17:43:54 GMT-0500 (Central Daylight Time),336860.6999999997,bell,1000,O,z,z,None,438,239.0,199.0,55,1,1978.8999999999069,334881.7999999998,7009,rage,AF,A,333392,333392,331663,332676,331663,333642,333193,333193,333642,64
65,test,1,con,1,z,Tue Aug 06 2024 17:43:54 GMT-0500 (Central Daylight Time),338793.8999999999,rage,900,O,z,z,None,484,284.0,200.0,50,1,1929.3999999999069,336864.5,7009,rage,AF,A,335275,335275,333646,334559,333646,335575,335075,335075,335575,65
66,test,1,con,1,m,Tue Aug 06 2024 17:43:54 GMT-0500 (Central Daylight Time),341093.1999999997,step,1100,O,m,m,None,655,455.0,200.0,68,1,2295.399999999907,338797.7999999998,7009,step,AF,A,337408,337408,335579,336691,335579,337874,337208,337208,337874,66
67,test,1,inc,1,z,Tue Aug 06 2024 17:43:54 GMT-0500 (Central Daylight Time),343225.6999999997,bell,1000,O,z,z,None,599,399.0,200.0,15,1,2128.899999999907,341096.7999999998,7009,kind,AF,A,339607,339607,337878,338890,337878,340007,339407,339407,340007,67
68,test,1,con,1,m,Tue Aug 06 2024 17:43:54 GMT-0500 (Central Daylight Time),345024.8999999999,jacket,800,O,m,m,None,449,250.0,199.0,97,1,1795.3999999999069,343229.5,7009,jacket,AF,A,341540,341540,340011,340823,340011,341806,341340,341340,341806,68
69,test,1,con,1,m,Tue Aug 06 2024 17:43:54 GMT-0500 (Central Daylight Time),346874.5,window,900,O,m,m,None,399,200.0,199.0,122,1,1845.8000000002794,345028.6999999997,7009,window,AF,A,343439,343439,341810,342723,341810,343656,343240,343240,343656,69
70,test,1,con,1,z,Tue Aug 06 2024 17:43:54 GMT-0500 (Central Daylight Time),348873.6999999997,brutal,900,O,z,z,None,565,366.0,199.0,34,1,1995.7999999998137,346877.8999999999,7009,brutal,AF,A,345289,345289,343659,344572,343659,345655,345089,345089,345655,70
71,test,1,inc,1,z,Tue Aug 06 2024 17:43:54 GMT-0500 (Central Daylight Time),350773.3999999999,napkin,900,O,z,z,None,462,263.0,199.0,38,1,1896.1000000000931,348877.2999999998,7009,brutal,AF,A,347288,347288,345658,346571,345659,347555,347088,347088,347554,71
72,test,1,inc,1,m,Tue Aug 06 2024 17:43:54 GMT-0500 (Central Daylight Time),352772.6000000001,brutal,900,O,m,m,None,561,362.0,199.0,110,1,1995.6000000000931,350777.0,7009,napkin,AF,A,349188,349188,347558,348471,347558,349554,348988,348988,349554,72
72,test,1,con,0,z,Tue Aug 06 2024 17:43:54 GMT-0500 (Central Daylight Time),354721.7999999998,temper,1000,O,m,m,None,414,214.0,200.0,59,1,1945.6999999997206,352776.1000000001,7009,temper,AF,A,351288,351288,349557,350570,349557,351503,351087,351087,351503,73
73,test,1,inc,1,z,Tue Aug 06 2024 17:43:54 GMT-0500 (Central Daylight Time),356621.2999999998,step,800,O,z,z,None,555,355.0,200.0,45,1,1896.1000000000931,354725.1999999997,7009,hate,AF,A,353036,353036,351506,352320,351506,353402,352836,352836,353402,74
74,test,1,inc,1,m,Tue Aug 06 2024 17:43:54 GMT-0500 (Central Daylight Time),358554.1999999997,kind,900,O,m,m,None,482,283.0,199.0,78,1,1929.1999999997206,356625.0,7009,rock,AF,A,355035,355036,353406,354319,353406,355335,354836,354836,355335,75
75,test,1,inc,1,m,Tue Aug 06 2024 17:43:54 GMT-0500 (Central Daylight Time),360703.5,temper,1000,O,m,m,None,603,403.0,200.0,127,1,2145.7000000001863,358557.7999999998,7009,window,AF,A,357068,357068,355339,356352,355339,357485,356868,356868,357485,76
76,test,1,inc,1,z,Tue Aug 06 2024 17:43:54 GMT-0500 (Central Daylight Time),362686.1000000001,napkin,900,O,z,z,None,536,337.0,199.0,30,1,1979.0,360707.1000000001,7009,friend,AF,A,359118,359118,357488,358401,357488,359467,358918,358918,359467,77
77,test,1,inc,1,m,Tue Aug 06 2024 17:43:54 GMT-0500 (Central Daylight Time),364569.0,rage,800,O,m,m,None,534,334.0,200.0,93,1,1879.2000000001863,362689.7999999998,7009,film,AF,A,361000,361000,359471,360284,359471,361350,360800,360800,361350,78
78,test,1,con,1,m,Tue Aug 06 2024 17:43:54 GMT-0500 (Central Daylight Time),366568.3999999999,step,1000,O,m,m,None,451,251.0,200.0,67,1,1995.6000000000931,364572.7999999998,7009,step,AF,A,363083,363083,361354,362367,361354,363349,362883,362883,363349,79
79,test,1,inc,1,z,Tue Aug 06 2024 17:43:54 GMT-0500 (Central Daylight Time),368617.5,remote,1000,O,z,z,None,500,300.0,200.0,31,1,2045.5,366572.0,7009,friend,AF,A,365082,365082,363353,364366,363353,365399,364882,364882,365398,80
80,test,1,inc,1,z,Tue Aug 06 2024 17:43:54 GMT-0500 (Central Daylight Time),370583.6000000001,jacket,800,O,z,z,None,618,419.0,199.0,5,1,1962.5,368621.1000000001,7009,elated,AF,A,366932,366932,365402,366215,365402,367365,366732,366732,367365,81
81,test,1,inc,1,m,Tue Aug 06 2024 17:43:54 GMT-0500 (Central Daylight Time),372483.2999999998,rage,800,O,m,m,None,556,357.0,199.0,69,1,1896.1999999997206,370587.1000000001,7009,step,AF,A,368898,368898,367368,368181,367368,369264,368698,368698,369264,82
82,test,1,con,1,m,Tue Aug 06 2024 17:43:54 GMT-0500 (Central Daylight Time),374699.1000000001,film,1100,O,m,m,None,574,374.0,200.0,92,1,2212.2000000001863,372486.8999999999,7009,film,AF,A,371097,371097,369268,370381,369268,371480,370897,370897,371480,83
82,test,1,con,0,z,Tue Aug 06 2024 17:43:54 GMT-0500 (Central Daylight Time),376831.6000000001,temper,1100,O,m,m,None,494,294.0,200.0,60,1,2128.8000000002794,374702.7999999998,7009,temper,AF,A,373313,373313,371484,372597,371484,373613,373113,373113,373613,84
83,test,1,inc,1,z,Tue Aug 06 2024 17:43:54 GMT-0500 (Central Daylight Time),378892.0,rock,900,O,z,z,None,611,411.0,200.0,14,1,2056.7000000001863,376835.2999999998,7009,kind,AF,A,375246,375246,373616,374531,373617,375673,375046,375046,375673,85
84,test,1,inc,1,m,Tue Aug 06 2024 17:43:54 GMT-0500 (Central Daylight Time),381080.2999999998,friend,1100,O,m,m,None,552,352.0,200.0,112,1,2184.2999999998137,378896.0,7009,napkin,AF,A,377495,377495,375677,376778,375677,377861,377295,377295,377861,86
85,test,1,inc,1,z,Tue Aug 06 2024 17:43:54 GMT-0500 (Central Daylight Time),383196.3999999999,remote,1000,O,z,z,None,580,379.0,201.0,7,1,2112.600000000093,381083.7999999998,7009,elated,AF,A,379596,379596,377865,378878,377865,379977,379394,379394,379977,87
86,test,1,con,1,z,Tue Aug 06 2024 17:43:54 GMT-0500 (Central Daylight Time),385295.7999999998,elated,1100,O,z,z,None,459,260.0,199.0,4,1,2096.0,383199.7999999998,7009,elated,AF,A,381810,381810,379981,381094,379981,382077,381611,381611,382077,88
87,test,1,inc,1,m,Tue Aug 06 2024 17:43:54 GMT-0500 (Central Daylight Time),387461.6000000001,friend,1100,O,m,m,None,545,345.0,200.0,104,1,2162.100000000093,385299.5,7009,jacket,AF,A,383894,383894,382081,383193,382081,384243,383694,383694,384243,89
88,test,1,inc,1,z,Tue Aug 06 2024 17:43:54 GMT-0500 (Central Daylight Time),389344.3999999999,jacket,800,O,z,z,None,535,335.0,200.0,37,1,1879.2999999998137,387465.1000000001,7009,brutal,AF,A,385776,385776,384246,385059,384246,386126,385576,385576,386125,90
89,test,1,con,1,m,Tue Aug 06 2024 17:43:54 GMT-0500 (Central Daylight Time),391228.2999999998,window,800,O,m,m,None,547,348.0,199.0,121,1,1880.1999999997206,389348.1000000001,7009,window,AF,A,387659,387659,386129,386942,386129,388009,387459,387459,388009,91
90,test,1,con,1,m,Tue Aug 06 2024 17:43:54 GMT-0500 (Central Daylight Time),393060.0,film,800,O,m,m,None,498,298.0,200.0,89,1,1828.3999999999069,391231.6000000001,7009,film,AF,A,389541,389541,388013,388825,388013,389841,389341,389341,389841,92
91,test,1,con,1,z,Tue Aug 06 2024 17:43:54 GMT-0500 (Central Daylight Time),394927.1000000001,rage,800,O,z,z,None,520,320.0,200.0,49,1,1863.5,393063.6000000001,7009,rage,AF,A,391374,391374,389845,390658,389845,391708,391174,391174,391708,93
92,test,1,con,1,z,Tue Aug 06 2024 17:43:54 GMT-0500 (Central Daylight Time),397025.3999999999,kind,1100,O,z,z,None,459,259.0,200.0,12,1,2094.7999999998137,394930.6000000001,7009,kind,AF,A,393540,393540,391712,392824,391712,393806,393340,393340,393806,94
93,test,1,inc,1,m,Tue Aug 06 2024 17:43:54 GMT-0500 (Central Daylight Time),399108.1999999997,love,1000,O,m,m,None,547,348.0,199.0,79,1,2079.399999999907,397028.7999999998,7009,rock,AF,A,395539,395539,393810,394823,393810,395889,395340,395340,395889,95
94,test,1,inc,1,m,Tue Aug 06 2024 17:43:54 GMT-0500 (Central Daylight Time),401107.5,love,1000,O,m,m,None,465,265.0,200.0,71,1,1995.7000000001863,399111.7999999998,7009,step,AF,A,397622,397622,395893,396905,395893,397889,397422,397422,397888,96
95,test,1,con,1,m,Tue Aug 06 2024 17:43:54 GMT-0500 (Central Daylight Time),403223.3999999999,bell,1000,O,m,m,None,461,261.0,200.0,83,1,2112.2999999998137,401111.1000000001,7009,bell,AF,A,399738,399738,397892,399036,397892,400004,399538,399538,400004,97
96,test,1,inc,1,m,Tue Aug 06 2024 17:43:54 GMT-0500 (Central Daylight Time),405306.1000000001,hate,1100,O,m,m,None,440,241.0,199.0,88,1,2079.100000000093,403227.0,7009,bell,AF,A,401837,401838,400008,401121,400008,402087,401638,401638,402087,98
97,test,1,inc,1,m,Tue Aug 06 2024 17:43:54 GMT-0500 (Central Daylight Time),407338.5,elated,800,O,m,m,None,698,499.0,199.0,117,1,2028.8000000002794,405309.6999999997,7009,remote,AF,A,403620,403620,402091,402904,402091,404120,403421,403421,404120,99
98,test,1,con,1,z,Tue Aug 06 2024 17:43:54 GMT-0500 (Central Daylight Time),409255.0,friend,800,O,z,z,None,569,370.0,199.0,25,1,1913.0,407342.0,7009,friend,AF,A,405653,405653,404123,404937,404123,406036,405453,405453,406036,100
99,test,1,inc,1,m,Tue Aug 06 2024 17:43:54 GMT-0500 (Central Daylight Time),411437.5,hate,1100,O,m,m,None,546,346.0,200.0,96,1,2178.7000000001863,409258.7999999998,7009,film,AF,A,407869,407869,406040,407153,406040,408219,407669,407669,408219,101
100,test,1,inc,1,z,Tue Aug 06 2024 17:43:54 GMT-0500 (Central Daylight Time),413403.6000000001,step,800,O,z,z,None,622,423.0,199.0,13,1,1962.2000000001863,411441.3999999999,7009,kind,AF,A,409752,409752,408222,409035,408223,410185,409552,409552,410185,102
101,test,1,inc,1,m,Tue Aug 06 2024 17:43:54 GMT-0500 (Central Daylight Time),415436.2999999998,brutal,900,O,m,m,None,596,397.0,199.0,118,1,2029.0,413407.2999999998,7009,remote,AF,A,411817,411818,410188,411101,410189,412217,411618,411618,412217,103
102,test,1,inc,1,m,Tue Aug 06 2024 17:43:54 GMT-0500 (Central Daylight Time),417569.1000000001,love,1000,O,m,m,None,583,384.0,199.0,87,1,2129.100000000093,415440.0,7009,bell,AF,A,413950,413950,412221,413234,412221,414350,413750,413751,414350,104
103,test,1,con,1,z,Tue Aug 06 2024 17:43:54 GMT-0500 (Central Daylight Time),419668.1000000001,love,1100,O,z,z,None,464,264.0,200.0,20,1,2095.3000000002794,417572.7999999998,7009,love,AF,A,416183,416183,414354,415466,414354,416449,415983,415983,416449,105
104,test,1,inc,1,z,Tue Aug 06 2024 17:43:54 GMT-0500 (Central Daylight Time),421634.2999999998,jacket,800,O,z,z,None,625,425.0,200.0,61,1,1962.6999999997206,419671.6000000001,7009,temper,AF,A,417982,417982,416453,417266,416453,418415,417782,417782,418415,106
105,test,1,inc,1,m,Tue Aug 06 2024 17:43:54 GMT-0500 (Central Daylight Time),423816.8999999999,hate,1100,O,m,m,None,533,333.0,200.0,80,1,2178.899999999907,421638.0,7009,rock,AF,A,420248,420249,418419,419532,418419,420598,420048,420048,420598,107
106,test,1,inc,1,m,Tue Aug 06 2024 17:43:54 GMT-0500 (Central Daylight Time),425894.1000000001,kind,900,O,m,m,None,644,444.0,200.0,70,1,2073.4000000003725,423820.6999999997,7009,step,AF,A,422231,422231,420602,421515,420602,422675,422031,422031,422675,108
107,test,1,con,1,m,Tue Aug 06 2024 17:43:54 GMT-0500 (Central Daylight Time),428015.6000000001,jacket,1100,O,m,m,None,486,286.0,200.0,100,1,2117.600000000093,425898.0,7009,jacket,AF,A,424497,424497,422679,423780,422679,424797,424297,424297,424797,109
108,test,1,inc,1,z,Tue Aug 06 2024 17:43:54 GMT-0500 (Central Daylight Time),430165.0,window,1100,O,z,z,None,512,313.0,199.0,64,1,2145.5,428019.5,7009,temper,AF,A,426630,426630,424800,425913,424801,426946,426430,426430,426946,110
109,test,1,con,1,m,Tue Aug 06 2024 17:43:54 GMT-0500 (Central Daylight Time),432281.1000000001,remote,1000,O,m,m,None,568,368.0,200.0,115,1,2112.0,430169.1000000001,7009,remote,AF,A,428679,428679,426950,427964,426951,429062,428479,428479,429062,111
110,test,1,inc,1,z,Tue Aug 06 2024 17:43:54 GMT-0500 (Central Daylight Time),434246.8999999999,rock,900,O,z,z,None,528,328.0,200.0,22,1,1961.8999999999069,432285.0,7009,love,AF,A,430695,430695,429066,429978,429066,431028,430495,430495,431028,112
111,test,1,con,1,z,Tue Aug 06 2024 17:43:54 GMT-0500 (Central Daylight Time),436396.5,friend,1000,O,z,z,None,605,406.0,199.0,27,1,2146.2000000001863,434250.2999999998,7009,friend,AF,A,432761,432761,431031,432044,431032,433178,432562,432562,433178,113
112,test,1,con,1,z,Tue Aug 06 2024 17:43:54 GMT-0500 (Central Daylight Time),438429.0,love,1000,O,z,z,None,489,289.0,200.0,19,1,2028.8000000002794,436400.1999999997,7009,love,AF,A,434910,434910,433181,434194,433181,435210,434710,434710,435210,114
113,test,1,con,1,z,Tue Aug 06 2024 17:43:54 GMT-0500 (Central Daylight Time),440528.1000000001,temper,800,O,z,z,None,751,551.0,200.0,57,1,2095.600000000093,438432.5,7009,temper,AF,A,436743,436743,435214,436027,435214,437309,436543,436543,437309,115
114,test,1,con,1,z,Tue Aug 06 2024 17:43:54 GMT-0500 (Central Daylight Time),442577.3999999999,hate,1000,O,z,z,None,509,309.0,200.0,43,1,2045.5,440531.8999999999,7009,hate,AF,A,439042,439042,437313,438326,437313,439358,438842,438842,439358,116
115,test,1,inc,1,z,Tue Aug 06 2024 17:43:54 GMT-0500 (Central Daylight Time),444543.6999999997,napkin,900,O,z,z,None,526,327.0,199.0,62,1,1962.1999999997206,442581.5,7009,temper,AF,A,440992,440992,439363,440275,439363,441325,440792,440792,441325,117
116,test,1,con,1,m,Tue Aug 06 2024 17:43:54 GMT-0500 (Central Daylight Time),446459.8999999999,step,900,O,m,m,None,472,272.0,200.0,66,1,1912.6000000000931,444547.2999999998,7009,step,AF,A,442958,442958,441328,442241,441328,443241,442758,442758,443241,118
117,test,1,inc,1,m,Tue Aug 06 2024 17:43:54 GMT-0500 (Central Daylight Time),448275.6000000001,rage,800,O,m,m,None,472,272.0,200.0,77,1,1812.1000000000931,446463.5,7009,rock,AF,A,444774,444774,443245,444058,443245,445057,444574,444574,445057,119
118,test,1,con,1,m,Tue Aug 06 2024 17:43:54 GMT-0500 (Central Daylight Time),450408.5,bell,1100,O,m,m,None,442,242.0,200.0,84,1,2128.8000000002794,448279.6999999997,7009,bell,AF,A,446940,446940,445061,446231,445061,447190,446740,446740,447190,120
119,test,1,inc,1,z,Tue Aug 06 2024 17:43:54 GMT-0500 (Central Daylight Time),452491.2999999998,rock,900,O,z,z,None,639,440.0,199.0,54,1,2079.2999999998137,450412.0,7009,rage,AF,A,448823,448823,447193,448106,447193,449272,448623,448623,449272,121
120,test,1,con,1,m,Tue Aug 06 2024 17:43:54 GMT-0500 (Central Daylight Time),454440.7999999998,bell,800,O,m,m,None,599,385.0,214.0,81,1,1945.7999999998137,452495.0,7009,bell,AF,A,450822,450822,449276,450089,449276,451222,450608,450608,451222,122
121,test,1,inc,1,m,Tue Aug 06 2024 17:43:54 GMT-0500 (Central Daylight Time),456556.6000000001,temper,1000,O,m,m,None,579,380.0,199.0,111,1,2112.0,454444.6000000001,7009,napkin,AF,A,452955,452955,451226,452238,451226,453338,452755,452755,453338,123
122,test,1,con,1,z,Tue Aug 06 2024 17:43:54 GMT-0500 (Central Daylight Time),458589.2999999998,temper,900,O,z,z,None,612,413.0,199.0,58,1,2029.1000000000931,456560.1999999997,7009,temper,AF,A,454954,454954,453341,454254,453341,455370,454755,454755,455370,124
123,test,1,con,1,z,Tue Aug 06 2024 17:43:54 GMT-0500 (Central Daylight Time),460522.1999999997,elated,800,O,z,z,None,583,384.0,199.0,1,1,1929.1999999997206,458593.0,7009,elated,AF,A,456903,456903,455374,456187,455374,457303,456704,456704,457303,125
124,test,1,con,1,m,Tue Aug 06 2024 17:43:54 GMT-0500 (Central Daylight Time),462654.8999999999,napkin,1000,O,m,m,None,587,386.0,201.0,107,1,2129.0,460525.8999999999,7009,napkin,AF,A,459037,459037,457307,458320,457307,459436,458836,458836,459436,126
125,test,1,inc,1,m,Tue Aug 06 2024 17:43:54 GMT-0500 (Central Daylight Time),464754.1999999997,friend,1100,O,m,m,None,450,250.0,200.0,128,1,2095.7999999998137,462658.3999999999,7009,window,AF,A,461269,461269,459439,460553,459440,461535,461069,461069,461535,127
126,test,1,con,1,z,Tue Aug 06 2024 17:43:54 GMT-0500 (Central Daylight Time),466720.0,brutal,800,O,z,z,None,619,419.0,200.0,33,1,1962.2000000001863,464757.7999999998,7009,brutal,AF,A,463068,463068,461539,462353,461539,463501,462868,462868,463501,128
