acc_sum,block,block_c,block_cond,con_img,correct,correct_response,datetime,endtime,face,jitter,line,project,response,response_time,row_sel,session_number,start_end,starttime,subject_id,task,task_vers,trial
0,prac,1,A,haborder.png,0,m,Wed Dec 03 2025 16:15:32 GMT-0600 (Central Standard Time),58465.59999999404,CFD-BM-020-024-HC.jpg,1500,solid,O,None,1515,3,,3800.5,54665.09999999404,7250,ATS,B,1
1,prac,1,A,haborder.png,1,z,Wed Dec 03 2025 16:15:32 GMT-0600 (Central Standard Time),61014.0,CFD-BF-051-043-A.jpg,1000,solid,O,z,744,4,,6348.9000000059605,54665.09999999404,7250,ATS,B,2
2,prac,1,A,haborder.png,1,z,Wed Dec 03 2025 16:15:32 GMT-0600 (Central Standard Time),64279.0,CFD-WM-009-009-A.jpg,1900,solid,O,z,576,8,,9613.90000000596,54665.09999999404,7250,ATS,B,3
3,prac,1,A,haborder.png,1,m,Wed Dec 03 2025 16:15:32 GMT-0600 (Central Standard Time),67628.80000001192,CFD-BM-015-017-HC.jpg,1700,solid,O,m,851,1,,12963.700000017881,54665.09999999404,7250,ATS,B,4
4,prac,1,A,haborder.png,1,m,Wed Dec 03 2025 16:15:32 GMT-0600 (Central Standard Time),70844.5,CFD-WM-012-007-HC.jpg,1700,solid,O,m,720,9,,16179.40000000596,54665.09999999404,7250,ATS,B,5
5,prac,1,A,haborder.png,1,z,Wed Dec 03 2025 16:15:32 GMT-0600 (Central Standard Time),74092.80000001192,CFD-WF-026-008-A.jpg,1600,solid,O,z,851,10,,19427.70000001788,54665.09999999404,7250,ATS,B,6
6,prac,1,A,haborder.png,1,m,Wed Dec 03 2025 16:15:32 GMT-0600 (Central Standard Time),77591.80000001192,CFD-BF-035-007-HC.jpg,2000,solid,O,m,701,5,,22926.70000001788,54665.09999999404,7250,ATS,B,7
7,prac,1,A,haborder.png,1,z,Wed Dec 03 2025 16:15:32 GMT-0600 (Central Standard Time),80126.0,CFD-WF-013-015-A.jpg,1000,solid,O,z,746,12,,25460.90000000596,54665.09999999404,7250,ATS,B,8
8,prac,1,A,haborder.png,1,z,Wed Dec 03 2025 16:15:32 GMT-0600 (Central Standard Time),83473.20000001788,CFD-BM-037-041-A.jpg,1600,solid,O,z,950,2,,28808.100000023842,54665.09999999404,7250,ATS,B,9
9,prac,1,A,haborder.png,1,m,Wed Dec 03 2025 16:15:32 GMT-0600 (Central Standard Time),86541.40000000596,CFD-WF-011-006-HC.jpg,1500,solid,O,m,784,11,,31876.30000001192,54665.09999999404,7250,ATS,B,10
10,prac,1,A,haborder.png,1,z,Wed Dec 03 2025 16:15:32 GMT-0600 (Central Standard Time),89523.20000001788,CFD-BF-050-012-A.jpg,1200,solid,O,z,1000,6,,34858.10000002384,54665.09999999404,7250,ATS,B,11
11,prac,1,A,haborder.png,1,m,Wed Dec 03 2025 16:15:32 GMT-0600 (Central Standard Time),92490.0,CFD-WM-011-006-HC.jpg,1400,solid,O,m,760,7,,37824.90000000596,54665.09999999404,7250,ATS,B,12
0,prac,1,B,mfborder.png,0,z,Wed Dec 03 2025 16:15:32 GMT-0600 (Central Standard Time),115613.59999999404,CFD-BF-035-007-HC.jpg,1400,dash,O,None,1515,7,,3699.2999999821186,111914.30000001192,7250,ATS,B,1
1,prac,1,B,mfborder.png,1,z,Wed Dec 03 2025 16:15:32 GMT-0600 (Central Standard Time),119228.09999999404,CFD-BF-027-013-HC.jpg,1500,dash,O,z,1339,3,,7313.799999982119,111914.30000001192,7250,ATS,B,2
2,prac,1,B,mfborder.png,1,m,Wed Dec 03 2025 16:15:32 GMT-0600 (Central Standard Time),123212.30000001192,CFD-BM-037-041-A.jpg,2000,dash,O,m,1174,5,,11298.0,111914.30000001192,7250,ATS,B,3
3,prac,1,B,mfborder.png,1,m,Wed Dec 03 2025 16:15:32 GMT-0600 (Central Standard Time),127077.20000001788,CFD-WM-012-007-HC.jpg,1600,dash,O,m,1496,10,,15162.90000000596,111914.30000001192,7250,ATS,B,4
3,prac,1,B,mfborder.png,0,m,Wed Dec 03 2025 16:15:32 GMT-0600 (Central Standard Time),131074.09999999404,CFD-BM-020-024-HC.jpg,1700,dash,O,None,1515,1,,19159.79999998212,111914.30000001192,7250,ATS,B,5
3,prac,1,B,mfborder.png,0,m,Wed Dec 03 2025 16:15:32 GMT-0600 (Central Standard Time),134290.5,CFD-BM-041-048-A.jpg,1600,dash,O,z,822,2,,22376.19999998808,111914.30000001192,7250,ATS,B,6
3,prac,1,B,mfborder.png,0,m,Wed Dec 03 2025 16:15:32 GMT-0600 (Central Standard Time),138288.20000001788,CFD-WM-009-009-A.jpg,1700,dash,O,None,1514,9,,26373.90000000596,111914.30000001192,7250,ATS,B,7
3,prac,1,B,mfborder.png,0,z,Wed Dec 03 2025 16:15:32 GMT-0600 (Central Standard Time),140821.59999999404,CFD-BF-051-043-A.jpg,1000,dash,O,m,744,4,,28907.29999998212,111914.30000001192,7250,ATS,B,8
4,prac,1,B,mfborder.png,1,z,Wed Dec 03 2025 16:15:32 GMT-0600 (Central Standard Time),143987.09999999404,CFD-WF-011-006-HC.jpg,1000,dash,O,z,1365,12,,32072.79999998212,111914.30000001192,7250,ATS,B,9
5,prac,1,B,mfborder.png,1,z,Wed Dec 03 2025 16:15:32 GMT-0600 (Central Standard Time),147269.90000000596,CFD-WF-026-008-A.jpg,1500,dash,O,z,994,11,,35355.59999999404,111914.30000001192,7250,ATS,B,10
6,prac,1,B,mfborder.png,1,z,Wed Dec 03 2025 16:15:32 GMT-0600 (Central Standard Time),150835.80000001192,CFD-WF-027-007-HC.jpg,1900,dash,O,z,887,8,,38921.5,111914.30000001192,7250,ATS,B,11
7,prac,1,B,mfborder.png,1,m,Wed Dec 03 2025 16:15:32 GMT-0600 (Central Standard Time),154002.09999999404,CFD-WM-037-060-A.jpg,1200,dash,O,m,1180,6,,42087.79999998212,111914.30000001192,7250,ATS,B,12
1,test,1,A,haborder.png,1,m,Wed Dec 03 2025 16:15:32 GMT-0600 (Central Standard Time),180409.40000000596,CFD-BF-035-007-HC.jpg,2000,solid,O,m,977,5,,2999.0999999940395,177410.30000001192,7250,ATS,B,1
2,test,1,A,haborder.png,1,z,Wed Dec 03 2025 16:15:32 GMT-0600 (Central Standard Time),183175.20000001788,CFD-WM-009-009-A.jpg,1900,solid,O,z,836,8,,5764.9000000059605,177410.30000001192,7250,ATS,B,2
3,test,1,A,haborder.png,1,m,Wed Dec 03 2025 16:15:32 GMT-0600 (Central Standard Time),185291.40000000596,CFD-WF-011-006-HC.jpg,1500,solid,O,m,593,11,,7881.0999999940395,177410.30000001192,7250,ATS,B,3
4,test,1,A,haborder.png,1,m,Wed Dec 03 2025 16:15:32 GMT-0600 (Central Standard Time),187891.70000001788,CFD-BM-020-024-HC.jpg,1500,solid,O,m,1053,3,,10481.40000000596,177410.30000001192,7250,ATS,B,4
5,test,1,A,haborder.png,1,m,Wed Dec 03 2025 16:15:32 GMT-0600 (Central Standard Time),189872.90000000596,CFD-WM-011-006-HC.jpg,1400,solid,O,m,552,7,,12462.59999999404,177410.30000001192,7250,ATS,B,5
6,test,1,A,haborder.png,1,z,Wed Dec 03 2025 16:15:32 GMT-0600 (Central Standard Time),192405.20000001788,CFD-BM-037-041-A.jpg,1600,solid,O,z,904,2,,14994.90000000596,177410.30000001192,7250,ATS,B,6
7,test,1,A,haborder.png,1,z,Wed Dec 03 2025 16:15:32 GMT-0600 (Central Standard Time),195055.59999999404,CFD-WM-009-009-A.jpg,1900,solid,O,z,721,8,,17645.29999998212,177410.30000001192,7250,ATS,B,7
8,test,1,A,haborder.png,1,z,Wed Dec 03 2025 16:15:32 GMT-0600 (Central Standard Time),196821.5,CFD-BF-051-043-A.jpg,1000,solid,O,z,739,4,,19411.19999998808,177410.30000001192,7250,ATS,B,8
9,test,1,A,haborder.png,1,m,Wed Dec 03 2025 16:15:32 GMT-0600 (Central Standard Time),199536.0,CFD-WM-012-007-HC.jpg,1700,solid,O,m,995,9,,22125.69999998808,177410.30000001192,7250,ATS,B,9
10,test,1,A,haborder.png,1,z,Wed Dec 03 2025 16:15:32 GMT-0600 (Central Standard Time),201451.80000001192,CFD-WF-013-015-A.jpg,1000,solid,O,z,882,12,,24041.5,177410.30000001192,7250,ATS,B,10
11,test,1,A,haborder.png,1,m,Wed Dec 03 2025 16:15:32 GMT-0600 (Central Standard Time),204635.70000001788,CFD-BF-035-007-HC.jpg,2000,solid,O,m,1159,5,,27225.40000000596,177410.30000001192,7250,ATS,B,11
12,test,1,A,haborder.png,1,z,Wed Dec 03 2025 16:15:32 GMT-0600 (Central Standard Time),207033.40000000596,CFD-WF-026-008-A.jpg,1600,solid,O,z,751,10,,29623.09999999404,177410.30000001192,7250,ATS,B,12
13,test,1,A,haborder.png,1,m,Wed Dec 03 2025 16:15:32 GMT-0600 (Central Standard Time),209482.59999999404,CFD-BM-015-017-HC.jpg,1700,solid,O,m,725,1,,32072.29999998212,177410.30000001192,7250,ATS,B,13
14,test,1,A,haborder.png,1,z,Wed Dec 03 2025 16:15:32 GMT-0600 (Central Standard Time),211898.59999999404,CFD-WF-026-008-A.jpg,1600,solid,O,z,767,10,,34488.29999998212,177410.30000001192,7250,ATS,B,14
15,test,1,A,haborder.png,1,z,Wed Dec 03 2025 16:15:32 GMT-0600 (Central Standard Time),214182.0,CFD-BF-050-012-A.jpg,1200,solid,O,z,1064,6,,36771.69999998808,177410.30000001192,7250,ATS,B,15
16,test,1,A,haborder.png,1,m,Wed Dec 03 2025 16:15:32 GMT-0600 (Central Standard Time),216681.30000001192,CFD-WM-012-007-HC.jpg,1700,solid,O,m,778,9,,39271.0,177410.30000001192,7250,ATS,B,16
17,test,1,A,haborder.png,1,m,Wed Dec 03 2025 16:15:32 GMT-0600 (Central Standard Time),218864.20000001788,CFD-WM-011-006-HC.jpg,1400,solid,O,m,761,7,,41453.90000000596,177410.30000001192,7250,ATS,B,17
18,test,1,A,haborder.png,1,z,Wed Dec 03 2025 16:15:32 GMT-0600 (Central Standard Time),220612.40000000596,CFD-BF-051-043-A.jpg,1000,solid,O,z,723,4,,43202.09999999404,177410.30000001192,7250,ATS,B,18
19,test,1,A,haborder.png,1,z,Wed Dec 03 2025 16:15:32 GMT-0600 (Central Standard Time),222812.5,CFD-BF-050-012-A.jpg,1200,solid,O,z,974,6,,45402.19999998808,177410.30000001192,7250,ATS,B,19
20,test,1,A,haborder.png,1,m,Wed Dec 03 2025 16:15:32 GMT-0600 (Central Standard Time),225028.30000001192,CFD-WF-011-006-HC.jpg,1500,solid,O,m,691,11,,47618.0,177410.30000001192,7250,ATS,B,20
21,test,1,A,haborder.png,1,z,Wed Dec 03 2025 16:15:32 GMT-0600 (Central Standard Time),227443.80000001192,CFD-BM-037-041-A.jpg,1600,solid,O,z,783,2,,50033.5,177410.30000001192,7250,ATS,B,21
22,test,1,A,haborder.png,1,m,Wed Dec 03 2025 16:15:32 GMT-0600 (Central Standard Time),229661.30000001192,CFD-BM-020-024-HC.jpg,1500,solid,O,m,684,3,,52251.0,177410.30000001192,7250,ATS,B,22
23,test,1,A,haborder.png,1,z,Wed Dec 03 2025 16:15:32 GMT-0600 (Central Standard Time),231792.90000000596,CFD-WF-013-015-A.jpg,1000,solid,O,z,1102,12,,54382.59999999404,177410.30000001192,7250,ATS,B,23
24,test,1,A,haborder.png,1,m,Wed Dec 03 2025 16:15:32 GMT-0600 (Central Standard Time),234627.70000001788,CFD-BM-015-017-HC.jpg,1700,solid,O,m,1110,1,,57217.40000000596,177410.30000001192,7250,ATS,B,24
0,test,1,B,mfborder.png,0,z,Wed Dec 03 2025 16:15:32 GMT-0600 (Central Standard Time),246454.90000000596,CFD-BF-035-007-HC.jpg,1400,dash,O,m,1488,7,,2915.199999988079,243539.70000001788,7250,ATS,B,1
1,test,1,B,mfborder.png,1,z,Wed Dec 03 2025 16:15:32 GMT-0600 (Central Standard Time),249336.90000000596,CFD-WF-026-008-A.jpg,1500,dash,O,z,1358,11,,5797.199999988079,243539.70000001788,7250,ATS,B,2
2,test,1,B,mfborder.png,1,m,Wed Dec 03 2025 16:15:32 GMT-0600 (Central Standard Time),252303.0,CFD-WM-009-009-A.jpg,1700,dash,O,m,1237,9,,8763.299999982119,243539.70000001788,7250,ATS,B,3
3,test,1,B,mfborder.png,1,z,Wed Dec 03 2025 16:15:32 GMT-0600 (Central Standard Time),254706.59999999404,CFD-BF-027-013-HC.jpg,1500,dash,O,z,874,3,,11166.899999976158,243539.70000001788,7250,ATS,B,4
4,test,1,B,mfborder.png,1,z,Wed Dec 03 2025 16:15:32 GMT-0600 (Central Standard Time),256451.5,CFD-WF-011-006-HC.jpg,1000,dash,O,z,724,12,,12911.799999982119,243539.70000001788,7250,ATS,B,5
5,test,1,B,mfborder.png,1,z,Wed Dec 03 2025 16:15:32 GMT-0600 (Central Standard Time),259716.59999999404,CFD-WF-027-007-HC.jpg,1900,dash,O,z,1348,8,,16176.899999976158,243539.70000001788,7250,ATS,B,6
6,test,1,B,mfborder.png,1,m,Wed Dec 03 2025 16:15:32 GMT-0600 (Central Standard Time),262632.5,CFD-WM-012-007-HC.jpg,1600,dash,O,m,1285,10,,19092.79999998212,243539.70000001788,7250,ATS,B,7
7,test,1,B,mfborder.png,1,m,Wed Dec 03 2025 16:15:32 GMT-0600 (Central Standard Time),265247.90000000596,CFD-BM-037-041-A.jpg,2000,dash,O,m,586,5,,21708.19999998808,243539.70000001788,7250,ATS,B,8
8,test,1,B,mfborder.png,1,z,Wed Dec 03 2025 16:15:32 GMT-0600 (Central Standard Time),268031.7000000179,CFD-WF-027-007-HC.jpg,1900,dash,O,z,852,8,,24492.0,243539.70000001788,7250,ATS,B,9
9,test,1,B,mfborder.png,1,m,Wed Dec 03 2025 16:15:32 GMT-0600 (Central Standard Time),270713.8000000119,CFD-BM-020-024-HC.jpg,1700,dash,O,m,951,1,,27174.09999999404,243539.70000001788,7250,ATS,B,10
10,test,1,B,mfborder.png,1,z,Wed Dec 03 2025 16:15:32 GMT-0600 (Central Standard Time),273063.5,CFD-BF-027-013-HC.jpg,1500,dash,O,z,827,3,,29523.79999998212,243539.70000001788,7250,ATS,B,11
11,test,1,B,mfborder.png,1,m,Wed Dec 03 2025 16:15:32 GMT-0600 (Central Standard Time),276277.7000000179,CFD-BM-020-024-HC.jpg,1700,dash,O,m,1487,1,,32738.0,243539.70000001788,7250,ATS,B,12
11,test,1,B,mfborder.png,0,m,Wed Dec 03 2025 16:15:32 GMT-0600 (Central Standard Time),278877.0,CFD-BM-041-048-A.jpg,1600,dash,O,z,971,2,,35337.29999998212,243539.70000001788,7250,ATS,B,13
11,test,1,B,mfborder.png,0,z,Wed Dec 03 2025 16:15:32 GMT-0600 (Central Standard Time),281459.90000000596,CFD-BF-035-007-HC.jpg,1400,dash,O,m,1151,7,,37920.19999998808,243539.70000001788,7250,ATS,B,14
12,test,1,B,mfborder.png,1,m,Wed Dec 03 2025 16:15:32 GMT-0600 (Central Standard Time),284027.2000000179,CFD-BM-041-048-A.jpg,1600,dash,O,m,941,2,,40487.5,243539.70000001788,7250,ATS,B,15
13,test,1,B,mfborder.png,1,z,Wed Dec 03 2025 16:15:32 GMT-0600 (Central Standard Time),286991.59999999404,CFD-WF-026-008-A.jpg,1500,dash,O,z,1444,11,,43451.89999997616,243539.70000001788,7250,ATS,B,16
14,test,1,B,mfborder.png,1,z,Wed Dec 03 2025 16:15:32 GMT-0600 (Central Standard Time),288925.40000000596,CFD-BF-051-043-A.jpg,1000,dash,O,z,905,4,,45385.69999998808,243539.70000001788,7250,ATS,B,17
15,test,1,B,mfborder.png,1,m,Wed Dec 03 2025 16:15:32 GMT-0600 (Central Standard Time),291073.8000000119,CFD-WM-037-060-A.jpg,1200,dash,O,m,918,6,,47534.09999999404,243539.70000001788,7250,ATS,B,18
16,test,1,B,mfborder.png,1,z,Wed Dec 03 2025 16:15:32 GMT-0600 (Central Standard Time),293143.3000000119,CFD-BF-051-043-A.jpg,1000,dash,O,z,1039,4,,49603.59999999404,243539.70000001788,7250,ATS,B,19
17,test,1,B,mfborder.png,1,m,Wed Dec 03 2025 16:15:32 GMT-0600 (Central Standard Time),295588.59999999404,CFD-WM-012-007-HC.jpg,1600,dash,O,m,814,10,,52048.89999997616,243539.70000001788,7250,ATS,B,20
18,test,1,B,mfborder.png,1,z,Wed Dec 03 2025 16:15:32 GMT-0600 (Central Standard Time),297506.59999999404,CFD-WF-011-006-HC.jpg,1000,dash,O,z,886,12,,53966.89999997616,243539.70000001788,7250,ATS,B,21
19,test,1,B,mfborder.png,1,m,Wed Dec 03 2025 16:15:32 GMT-0600 (Central Standard Time),299987.5,CFD-WM-037-060-A.jpg,1200,dash,O,m,1257,6,,56447.79999998212,243539.70000001788,7250,ATS,B,22
20,test,1,B,mfborder.png,1,m,Wed Dec 03 2025 16:15:32 GMT-0600 (Central Standard Time),302836.8000000119,CFD-WM-009-009-A.jpg,1700,dash,O,m,1127,9,,59297.09999999404,243539.70000001788,7250,ATS,B,23
21,test,1,B,mfborder.png,1,m,Wed Dec 03 2025 16:15:32 GMT-0600 (Central Standard Time),305719.40000000596,CFD-BM-037-041-A.jpg,2000,dash,O,m,853,5,,62179.69999998808,243539.70000001788,7250,ATS,B,24
0,9,1,C,haborder.png,0,z,Wed Dec 03 2025 16:15:32 GMT-0600 (Central Standard Time),399891.8000000119,CFD-WF-026-008-A.jpg,1600,dash,O,None,1516,prac,,3918.0999999940395,395973.7000000179,7250,ATS,B,1
0,12,1,C,haborder.png,0,m,Wed Dec 03 2025 16:15:32 GMT-0600 (Central Standard Time),403572.8000000119,CFD-WM-011-006-HC.jpg,1400,solid,O,None,1515,prac,,7599.0999999940395,395973.7000000179,7250,ATS,B,2
0,8,1,C,haborder.png,0,z,Wed Dec 03 2025 16:15:32 GMT-0600 (Central Standard Time),407570.7000000179,CFD-BF-050-012-A.jpg,1700,solid,O,None,1504,prac,,11597.0,395973.7000000179,7250,ATS,B,3
1,5,1,C,mfborder.png,1,m,Wed Dec 03 2025 16:15:32 GMT-0600 (Central Standard Time),410855.09999999404,CFD-BM-037-041-A.jpg,1200,dash,O,m,1304,prac,,14881.399999976158,395973.7000000179,7250,ATS,B,4
1,3,1,C,mfborder.png,0,z,Wed Dec 03 2025 16:15:32 GMT-0600 (Central Standard Time),413519.3000000119,CFD-BF-035-007-HC.jpg,1000,dash,O,m,893,prac,,17545.59999999404,395973.7000000179,7250,ATS,B,5
1,2,1,C,mfborder.png,0,z,Wed Dec 03 2025 16:15:32 GMT-0600 (Central Standard Time),417333.0,CFD-WF-013-015-A.jpg,1500,solid,O,None,1518,prac,,21359.29999998212,395973.7000000179,7250,ATS,B,6
2,10,1,C,haborder.png,1,m,Wed Dec 03 2025 16:15:32 GMT-0600 (Central Standard Time),420532.7000000179,CFD-BM-020-024-HC.jpg,1500,solid,O,m,912,prac,,24559.0,395973.7000000179,7250,ATS,B,7
3,11,1,C,haborder.png,1,m,Wed Dec 03 2025 16:15:32 GMT-0600 (Central Standard Time),423069.5,CFD-WM-011-006-HC.jpg,1000,dash,O,m,765,prac,,27095.79999998212,395973.7000000179,7250,ATS,B,8
3,7,1,C,haborder.png,0,z,Wed Dec 03 2025 16:15:32 GMT-0600 (Central Standard Time),427265.8000000119,CFD-BF-051-043-A.jpg,1900,dash,O,None,1516,prac,,31292.09999999404,395973.7000000179,7250,ATS,B,9
4,1,1,C,mfborder.png,1,z,Wed Dec 03 2025 16:15:32 GMT-0600 (Central Standard Time),430779.3000000119,CFD-WF-011-006-HC.jpg,1600,dash,O,z,1123,prac,,34805.59999999404,395973.7000000179,7250,ATS,B,10
4,6,1,C,mfborder.png,0,m,Wed Dec 03 2025 16:15:32 GMT-0600 (Central Standard Time),434764.8000000119,CFD-WM-009-009-A.jpg,1700,solid,O,None,1516,prac,,38791.09999999404,395973.7000000179,7250,ATS,B,11
4,4,1,C,mfborder.png,0,m,Wed Dec 03 2025 16:15:32 GMT-0600 (Central Standard Time),439061.8000000119,CFD-BM-015-017-HC.jpg,2000,solid,O,None,1513,prac,,43088.09999999404,395973.7000000179,7250,ATS,B,12
0,5,2,C,mfborder.png,0,m,Wed Dec 03 2025 16:15:32 GMT-0600 (Central Standard Time),446626.5,CFD-BM-037-041-A.jpg,1200,dash,O,None,1518,prac,,50652.79999998212,395973.7000000179,7250,ATS,B,1
0,2,2,C,mfborder.png,0,z,Wed Dec 03 2025 16:15:32 GMT-0600 (Central Standard Time),450425.40000000596,CFD-WF-013-015-A.jpg,1500,solid,O,None,1514,prac,,54451.69999998808,395973.7000000179,7250,ATS,B,2
0,6,2,C,mfborder.png,0,m,Wed Dec 03 2025 16:15:32 GMT-0600 (Central Standard Time),453790.2000000179,CFD-WM-009-009-A.jpg,1700,solid,O,z,896,prac,,57816.5,395973.7000000179,7250,ATS,B,3
0,1,2,C,mfborder.png,0,z,Wed Dec 03 2025 16:15:32 GMT-0600 (Central Standard Time),457670.59999999404,CFD-WF-011-006-HC.jpg,1600,dash,O,None,1501,prac,,61696.89999997616,395973.7000000179,7250,ATS,B,4
1,3,2,C,mfborder.png,1,z,Wed Dec 03 2025 16:15:32 GMT-0600 (Central Standard Time),459806.40000000596,CFD-BF-035-007-HC.jpg,1000,dash,O,z,351,prac,,63832.69999998808,395973.7000000179,7250,ATS,B,5
2,7,2,C,haborder.png,1,z,Wed Dec 03 2025 16:15:32 GMT-0600 (Central Standard Time),463951.0,CFD-BF-051-043-A.jpg,1900,dash,O,z,1467,prac,,67977.29999998212,395973.7000000179,7250,ATS,B,6
2,10,2,C,haborder.png,0,m,Wed Dec 03 2025 16:15:32 GMT-0600 (Central Standard Time),467737.2000000179,CFD-BM-020-024-HC.jpg,1500,solid,O,None,1514,prac,,71763.5,395973.7000000179,7250,ATS,B,7
2,8,2,C,haborder.png,0,z,Wed Dec 03 2025 16:15:32 GMT-0600 (Central Standard Time),471732.5,CFD-BF-050-012-A.jpg,1700,solid,O,None,1518,prac,,75758.79999998212,395973.7000000179,7250,ATS,B,8
2,11,2,C,haborder.png,0,m,Wed Dec 03 2025 16:15:32 GMT-0600 (Central Standard Time),475031.90000000596,CFD-WM-011-006-HC.jpg,1000,dash,O,None,1513,prac,,79058.19999998808,395973.7000000179,7250,ATS,B,9
2,9,2,C,haborder.png,0,z,Wed Dec 03 2025 16:15:32 GMT-0600 (Central Standard Time),477531.8000000119,CFD-WF-026-008-A.jpg,1600,dash,O,m,107,prac,,81558.09999999404,395973.7000000179,7250,ATS,B,10
2,4,2,C,mfborder.png,0,m,Wed Dec 03 2025 16:15:32 GMT-0600 (Central Standard Time),481829.2000000179,CFD-BM-015-017-HC.jpg,2000,solid,O,None,1516,prac,,85855.5,395973.7000000179,7250,ATS,B,11
2,12,2,C,haborder.png,0,m,Wed Dec 03 2025 16:15:32 GMT-0600 (Central Standard Time),485528.3000000119,CFD-WM-011-006-HC.jpg,1400,solid,O,None,1517,prac,,89554.59999999404,395973.7000000179,7250,ATS,B,12
0,test,1,C,haborder.png,0,m,Wed Dec 03 2025 16:15:32 GMT-0600 (Central Standard Time),576467.5,CFD-WF-027-007-HC.jpg,1500,solid,O,None,1516,11,,3033.5999999940395,573433.900000006,7250,ATS,B,1
0,test,1,C,mfborder.png,0,m,Wed Dec 03 2025 16:15:32 GMT-0600 (Central Standard Time),579448.099999994,CFD-WM-037-060-A.jpg,2000,dash,O,z,936,5,,6014.199999988079,573433.900000006,7250,ATS,B,2
1,test,1,C,mfborder.png,1,m,Wed Dec 03 2025 16:15:32 GMT-0600 (Central Standard Time),581599.0,CFD-BM-020-024-HC.jpg,1200,dash,O,m,922,6,,8165.0999999940395,573433.900000006,7250,ATS,B,3
2,test,1,C,mfborder.png,1,m,Wed Dec 03 2025 16:15:32 GMT-0600 (Central Standard Time),584012.7000000179,CFD-BM-020-024-HC.jpg,1200,dash,O,m,1187,6,,10578.800000011921,573433.900000006,7250,ATS,B,4
3,test,1,C,haborder.png,1,z,Wed Dec 03 2025 16:15:32 GMT-0600 (Central Standard Time),586546.2000000179,CFD-BM-041-048-A.jpg,1700,solid,O,z,804,9,,13112.300000011921,573433.900000006,7250,ATS,B,5
4,test,1,C,haborder.png,1,m,Wed Dec 03 2025 16:15:32 GMT-0600 (Central Standard Time),588712.2000000179,CFD-WF-027-007-HC.jpg,1500,solid,O,m,636,11,,15278.300000011921,573433.900000006,7250,ATS,B,6
5,test,1,C,haborder.png,1,z,Wed Dec 03 2025 16:15:32 GMT-0600 (Central Standard Time),591427.8000000119,CFD-WM-009-009-A.jpg,1400,solid,O,z,1284,7,,17993.90000000596,573433.900000006,7250,ATS,B,7
6,test,1,C,haborder.png,1,m,Wed Dec 03 2025 16:15:32 GMT-0600 (Central Standard Time),593210.5,CFD-WF-011-006-HC.jpg,1000,solid,O,m,751,12,,19776.59999999404,573433.900000006,7250,ATS,B,8
7,test,1,C,haborder.png,1,m,Wed Dec 03 2025 16:15:32 GMT-0600 (Central Standard Time),594943.400000006,CFD-WF-011-006-HC.jpg,1000,solid,O,m,703,12,,21509.5,573433.900000006,7250,ATS,B,9
7,test,1,C,mfborder.png,0,z,Wed Dec 03 2025 16:15:32 GMT-0600 (Central Standard Time),597526.3000000119,CFD-BF-027-013-HC.jpg,1700,dash,O,m,855,1,,24092.40000000596,573433.900000006,7250,ATS,B,10
7,test,1,C,mfborder.png,0,z,Wed Dec 03 2025 16:15:32 GMT-0600 (Central Standard Time),599924.8000000119,CFD-BF-027-013-HC.jpg,1700,dash,O,m,672,1,,26490.90000000596,573433.900000006,7250,ATS,B,11
8,test,1,C,haborder.png,1,z,Wed Dec 03 2025 16:15:32 GMT-0600 (Central Standard Time),602691.599999994,CFD-BM-041-048-A.jpg,1700,solid,O,z,1034,9,,29257.69999998808,573433.900000006,7250,ATS,B,12
9,test,1,C,haborder.png,1,z,Wed Dec 03 2025 16:15:32 GMT-0600 (Central Standard Time),605924.099999994,CFD-BM-037-041-A.jpg,1900,solid,O,z,1302,8,,32490.19999998808,573433.900000006,7250,ATS,B,13
10,test,1,C,haborder.png,1,m,Wed Dec 03 2025 16:15:32 GMT-0600 (Central Standard Time),608122.3000000119,CFD-BF-035-007-HC.jpg,1600,solid,O,m,575,10,,34688.40000000596,573433.900000006,7250,ATS,B,14
10,test,1,C,mfborder.png,0,m,Wed Dec 03 2025 16:15:32 GMT-0600 (Central Standard Time),610655.900000006,CFD-WM-012-007-HC.jpg,1000,dash,O,None,1515,4,,37222.0,573433.900000006,7250,ATS,B,15
11,test,1,C,mfborder.png,1,z,Wed Dec 03 2025 16:15:32 GMT-0600 (Central Standard Time),613054.3000000119,CFD-BF-051-043-A.jpg,1600,dash,O,z,779,2,,39620.40000000596,573433.900000006,7250,ATS,B,16
12,test,1,C,mfborder.png,1,m,Wed Dec 03 2025 16:15:32 GMT-0600 (Central Standard Time),614670.5,CFD-WM-012-007-HC.jpg,1000,dash,O,m,588,4,,41236.59999999404,573433.900000006,7250,ATS,B,17
12,test,1,C,mfborder.png,0,m,Wed Dec 03 2025 16:15:32 GMT-0600 (Central Standard Time),617303.599999994,CFD-WM-037-060-A.jpg,2000,dash,O,z,604,5,,43869.69999998808,573433.900000006,7250,ATS,B,18
13,test,1,C,haborder.png,1,m,Wed Dec 03 2025 16:15:32 GMT-0600 (Central Standard Time),619552.5,CFD-BF-035-007-HC.jpg,1600,solid,O,m,626,10,,46118.59999999404,573433.900000006,7250,ATS,B,19
14,test,1,C,mfborder.png,1,z,Wed Dec 03 2025 16:15:32 GMT-0600 (Central Standard Time),621801.2000000179,CFD-WF-026-008-A.jpg,1500,dash,O,z,717,3,,48367.30000001192,573433.900000006,7250,ATS,B,20
15,test,1,C,mfborder.png,1,z,Wed Dec 03 2025 16:15:32 GMT-0600 (Central Standard Time),624001.3000000119,CFD-WF-026-008-A.jpg,1500,dash,O,z,668,3,,50567.40000000596,573433.900000006,7250,ATS,B,21
16,test,1,C,haborder.png,1,z,Wed Dec 03 2025 16:15:32 GMT-0600 (Central Standard Time),626401.3000000119,CFD-WM-009-009-A.jpg,1400,solid,O,z,978,7,,52967.40000000596,573433.900000006,7250,ATS,B,22
17,test,1,C,haborder.png,1,z,Wed Dec 03 2025 16:15:32 GMT-0600 (Central Standard Time),629099.400000006,CFD-BM-037-041-A.jpg,1900,solid,O,z,767,8,,55665.5,573433.900000006,7250,ATS,B,23
18,test,1,C,mfborder.png,1,z,Wed Dec 03 2025 16:15:32 GMT-0600 (Central Standard Time),631398.7000000179,CFD-BF-051-043-A.jpg,1600,dash,O,z,671,2,,57964.80000001192,573433.900000006,7250,ATS,B,24
1,test,2,C,haborder.png,1,z,Wed Dec 03 2025 16:15:32 GMT-0600 (Central Standard Time),636097.099999994,CFD-BF-051-043-A.jpg,1400,solid,O,z,809,7,,2233.0999999940395,633864.0,7250,ATS,B,1
1,test,2,C,mfborder.png,0,m,Wed Dec 03 2025 16:15:32 GMT-0600 (Central Standard Time),638829.8000000119,CFD-BM-037-041-A.jpg,2000,dash,O,z,705,5,,4965.800000011921,633864.0,7250,ATS,B,2
1,test,2,C,mfborder.png,0,z,Wed Dec 03 2025 16:15:32 GMT-0600 (Central Standard Time),641868.5,CFD-BF-035-007-HC.jpg,1500,dash,O,None,1517,3,,8004.5,633864.0,7250,ATS,B,3
2,test,2,C,haborder.png,1,m,Wed Dec 03 2025 16:15:32 GMT-0600 (Central Standard Time),643828.400000006,CFD-WM-011-006-HC.jpg,1000,solid,O,m,940,12,,9964.40000000596,633864.0,7250,ATS,B,4
3,test,2,C,haborder.png,1,z,Wed Dec 03 2025 16:15:32 GMT-0600 (Central Standard Time),646810.400000006,CFD-BF-050-012-A.jpg,1900,solid,O,z,1058,8,,12946.40000000596,633864.0,7250,ATS,B,5
4,test,2,C,haborder.png,1,m,Wed Dec 03 2025 16:15:32 GMT-0600 (Central Standard Time),648359.2000000179,CFD-WM-011-006-HC.jpg,1000,solid,O,m,519,12,,14495.200000017881,633864.0,7250,ATS,B,6
5,test,2,C,mfborder.png,1,m,Wed Dec 03 2025 16:15:32 GMT-0600 (Central Standard Time),650193.3000000119,CFD-BM-015-017-HC.jpg,1000,dash,O,m,810,4,,16329.300000011921,633864.0,7250,ATS,B,7
6,test,2,C,mfborder.png,1,z,Wed Dec 03 2025 16:15:32 GMT-0600 (Central Standard Time),652661.5,CFD-WF-013-015-A.jpg,1600,dash,O,z,840,2,,18797.5,633864.0,7250,ATS,B,8
7,test,2,C,haborder.png,1,z,Wed Dec 03 2025 16:15:32 GMT-0600 (Central Standard Time),655174.2000000179,CFD-WF-026-008-A.jpg,1700,solid,O,z,788,9,,21310.20000001788,633864.0,7250,ATS,B,9
8,test,2,C,mfborder.png,1,z,Wed Dec 03 2025 16:15:32 GMT-0600 (Central Standard Time),657690.400000006,CFD-WF-013-015-A.jpg,1600,dash,O,z,894,2,,23826.40000000596,633864.0,7250,ATS,B,10
9,test,2,C,haborder.png,1,m,Wed Dec 03 2025 16:15:32 GMT-0600 (Central Standard Time),659959.0,CFD-WM-011-006-HC.jpg,1500,solid,O,m,738,11,,26095.0,633864.0,7250,ATS,B,11
10,test,2,C,haborder.png,1,m,Wed Dec 03 2025 16:15:32 GMT-0600 (Central Standard Time),662439.3000000119,CFD-BM-020-024-HC.jpg,1600,solid,O,m,855,10,,28575.30000001192,633864.0,7250,ATS,B,12
10,test,2,C,mfborder.png,0,z,Wed Dec 03 2025 16:15:32 GMT-0600 (Central Standard Time),664822.5,CFD-WF-011-006-HC.jpg,1700,dash,O,m,651,1,,30958.5,633864.0,7250,ATS,B,13
11,test,2,C,haborder.png,1,m,Wed Dec 03 2025 16:15:32 GMT-0600 (Central Standard Time),667054.400000006,CFD-BM-020-024-HC.jpg,1600,solid,O,m,600,10,,33190.40000000596,633864.0,7250,ATS,B,14
11,test,2,C,mfborder.png,0,m,Wed Dec 03 2025 16:15:32 GMT-0600 (Central Standard Time),669574.0,CFD-BM-015-017-HC.jpg,1000,dash,O,None,1502,4,,35710.0,633864.0,7250,ATS,B,15
11,test,2,C,mfborder.png,0,z,Wed Dec 03 2025 16:15:32 GMT-0600 (Central Standard Time),672202.7000000179,CFD-WF-011-006-HC.jpg,1700,dash,O,m,910,1,,38338.70000001788,633864.0,7250,ATS,B,16
11,test,2,C,mfborder.png,0,z,Wed Dec 03 2025 16:15:32 GMT-0600 (Central Standard Time),674385.3000000119,CFD-BF-035-007-HC.jpg,1500,dash,O,m,660,3,,40521.30000001192,633864.0,7250,ATS,B,17
12,test,2,C,haborder.png,1,m,Wed Dec 03 2025 16:15:32 GMT-0600 (Central Standard Time),676455.400000006,CFD-WM-011-006-HC.jpg,1500,solid,O,m,554,11,,42591.40000000596,633864.0,7250,ATS,B,18
13,test,2,C,haborder.png,1,z,Wed Dec 03 2025 16:15:32 GMT-0600 (Central Standard Time),679166.0,CFD-BF-050-012-A.jpg,1900,solid,O,z,786,8,,45302.0,633864.0,7250,ATS,B,19
14,test,2,C,haborder.png,1,z,Wed Dec 03 2025 16:15:32 GMT-0600 (Central Standard Time),681516.3000000119,CFD-BF-051-043-A.jpg,1400,solid,O,z,925,7,,47652.30000001192,633864.0,7250,ATS,B,20
14,test,2,C,mfborder.png,0,m,Wed Dec 03 2025 16:15:32 GMT-0600 (Central Standard Time),683665.3000000119,CFD-WM-009-009-A.jpg,1200,dash,O,z,925,6,,49801.30000001192,633864.0,7250,ATS,B,21
15,test,2,C,haborder.png,1,z,Wed Dec 03 2025 16:15:32 GMT-0600 (Central Standard Time),686131.3000000119,CFD-WF-026-008-A.jpg,1700,solid,O,z,734,9,,52267.30000001192,633864.0,7250,ATS,B,22
15,test,2,C,mfborder.png,0,m,Wed Dec 03 2025 16:15:32 GMT-0600 (Central Standard Time),688963.3000000119,CFD-BM-037-041-A.jpg,2000,dash,O,z,800,5,,55099.30000001192,633864.0,7250,ATS,B,23
15,test,2,C,mfborder.png,0,m,Wed Dec 03 2025 16:15:32 GMT-0600 (Central Standard Time),690996.599999994,CFD-WM-009-009-A.jpg,1200,dash,O,z,815,6,,57132.59999999404,633864.0,7250,ATS,B,24
0,test,3,C,haborder.png,0,z,Wed Dec 03 2025 16:15:32 GMT-0600 (Central Standard Time),699927.5,CFD-BM-037-041-A.jpg,1900,solid,O,None,1515,8,,3433.9000000059605,696493.599999994,7250,ATS,B,1
0,test,3,C,mfborder.png,0,m,Wed Dec 03 2025 16:15:32 GMT-0600 (Central Standard Time),702726.8000000119,CFD-WM-037-060-A.jpg,2000,dash,O,z,780,5,,6233.200000017881,696493.599999994,7250,ATS,B,2
0,test,3,C,mfborder.png,0,m,Wed Dec 03 2025 16:15:32 GMT-0600 (Central Standard Time),705558.599999994,CFD-WM-037-060-A.jpg,2000,dash,O,z,812,5,,9065.0,696493.599999994,7250,ATS,B,3
1,test,3,C,haborder.png,1,m,Wed Dec 03 2025 16:15:32 GMT-0600 (Central Standard Time),708323.7000000179,CFD-WF-027-007-HC.jpg,1500,solid,O,m,1234,11,,11830.100000023842,696493.599999994,7250,ATS,B,4
2,test,3,C,mfborder.png,1,z,Wed Dec 03 2025 16:15:32 GMT-0600 (Central Standard Time),711073.2000000179,CFD-BF-051-043-A.jpg,1600,dash,O,z,1117,2,,14579.600000023842,696493.599999994,7250,ATS,B,5
2,test,3,C,mfborder.png,0,z,Wed Dec 03 2025 16:15:32 GMT-0600 (Central Standard Time),713823.0,CFD-BF-027-013-HC.jpg,1700,dash,O,m,1028,1,,17329.40000000596,696493.599999994,7250,ATS,B,6
3,test,3,C,mfborder.png,1,m,Wed Dec 03 2025 16:15:32 GMT-0600 (Central Standard Time),715738.3000000119,CFD-WM-012-007-HC.jpg,1000,dash,O,m,885,4,,19244.70000001788,696493.599999994,7250,ATS,B,7
4,test,3,C,mfborder.png,1,m,Wed Dec 03 2025 16:15:32 GMT-0600 (Central Standard Time),717721.400000006,CFD-BM-020-024-HC.jpg,1200,dash,O,m,759,6,,21227.80000001192,696493.599999994,7250,ATS,B,8
5,test,3,C,mfborder.png,1,z,Wed Dec 03 2025 16:15:32 GMT-0600 (Central Standard Time),719986.900000006,CFD-WF-026-008-A.jpg,1500,dash,O,z,735,3,,23493.30000001192,696493.599999994,7250,ATS,B,9
6,test,3,C,mfborder.png,1,z,Wed Dec 03 2025 16:15:32 GMT-0600 (Central Standard Time),722553.599999994,CFD-BF-051-043-A.jpg,1600,dash,O,z,934,2,,26060.0,696493.599999994,7250,ATS,B,10
7,test,3,C,haborder.png,1,m,Wed Dec 03 2025 16:15:32 GMT-0600 (Central Standard Time),725017.7000000179,CFD-BF-035-007-HC.jpg,1600,solid,O,m,840,10,,28524.100000023842,696493.599999994,7250,ATS,B,11
8,test,3,C,mfborder.png,1,z,Wed Dec 03 2025 16:15:32 GMT-0600 (Central Standard Time),727516.5,CFD-BF-027-013-HC.jpg,1700,dash,O,z,776,1,,31022.90000000596,696493.599999994,7250,ATS,B,12
9,test,3,C,haborder.png,1,m,Wed Dec 03 2025 16:15:32 GMT-0600 (Central Standard Time),729583.099999994,CFD-WF-011-006-HC.jpg,1000,solid,O,m,1042,12,,33089.5,696493.599999994,7250,ATS,B,13
10,test,3,C,haborder.png,1,m,Wed Dec 03 2025 16:15:32 GMT-0600 (Central Standard Time),731900.7000000179,CFD-WF-027-007-HC.jpg,1500,solid,O,m,791,11,,35407.10000002384,696493.599999994,7250,ATS,B,14
10,test,3,C,haborder.png,0,z,Wed Dec 03 2025 16:15:32 GMT-0600 (Central Standard Time),735132.099999994,CFD-BM-041-048-A.jpg,1700,solid,O,None,1515,9,,38638.5,696493.599999994,7250,ATS,B,15
11,test,3,C,haborder.png,1,z,Wed Dec 03 2025 16:15:32 GMT-0600 (Central Standard Time),737981.0,CFD-WM-009-009-A.jpg,1400,solid,O,z,1432,7,,41487.40000000596,696493.599999994,7250,ATS,B,16
12,test,3,C,haborder.png,1,z,Wed Dec 03 2025 16:15:32 GMT-0600 (Central Standard Time),741096.5,CFD-BM-037-041-A.jpg,1900,solid,O,z,1167,8,,44602.90000000596,696493.599999994,7250,ATS,B,17
13,test,3,C,haborder.png,1,z,Wed Dec 03 2025 16:15:32 GMT-0600 (Central Standard Time),743612.900000006,CFD-BM-041-048-A.jpg,1700,solid,O,z,790,9,,47119.30000001192,696493.599999994,7250,ATS,B,18
14,test,3,C,mfborder.png,1,m,Wed Dec 03 2025 16:15:32 GMT-0600 (Central Standard Time),745628.599999994,CFD-WM-012-007-HC.jpg,1000,dash,O,m,984,4,,49135.0,696493.599999994,7250,ATS,B,19
15,test,3,C,haborder.png,1,m,Wed Dec 03 2025 16:15:32 GMT-0600 (Central Standard Time),747578.599999994,CFD-WF-011-006-HC.jpg,1000,solid,O,m,920,12,,51085.0,696493.599999994,7250,ATS,B,20
16,test,3,C,haborder.png,1,m,Wed Dec 03 2025 16:15:32 GMT-0600 (Central Standard Time),749893.599999994,CFD-BF-035-007-HC.jpg,1600,solid,O,m,686,10,,53400.0,696493.599999994,7250,ATS,B,21
16,test,3,C,mfborder.png,0,m,Wed Dec 03 2025 16:15:32 GMT-0600 (Central Standard Time),751927.5,CFD-BM-020-024-HC.jpg,1200,dash,O,z,816,6,,55433.90000000596,696493.599999994,7250,ATS,B,22
17,test,3,C,mfborder.png,1,z,Wed Dec 03 2025 16:15:32 GMT-0600 (Central Standard Time),754260.099999994,CFD-WF-026-008-A.jpg,1500,dash,O,z,807,3,,57766.5,696493.599999994,7250,ATS,B,23
17,test,3,C,haborder.png,0,z,Wed Dec 03 2025 16:15:32 GMT-0600 (Central Standard Time),756492.599999994,CFD-WM-009-009-A.jpg,1400,solid,O,m,799,7,,59999.0,696493.599999994,7250,ATS,B,24
1,test,4,C,haborder.png,1,z,Wed Dec 03 2025 16:15:32 GMT-0600 (Central Standard Time),760956.900000006,CFD-WF-026-008-A.jpg,1700,solid,O,z,965,9,,2680.699999988079,758276.2000000179,7250,ATS,B,1
2,test,4,C,haborder.png,1,m,Wed Dec 03 2025 16:15:32 GMT-0600 (Central Standard Time),762623.7000000179,CFD-WM-011-006-HC.jpg,1000,solid,O,m,628,12,,4347.5,758276.2000000179,7250,ATS,B,2
3,test,4,C,mfborder.png,1,m,Wed Dec 03 2025 16:15:32 GMT-0600 (Central Standard Time),764339.8000000119,CFD-BM-015-017-HC.jpg,1000,dash,O,m,685,4,,6063.5999999940395,758276.2000000179,7250,ATS,B,3
4,test,4,C,haborder.png,1,m,Wed Dec 03 2025 16:15:32 GMT-0600 (Central Standard Time),766389.8000000119,CFD-WM-011-006-HC.jpg,1500,solid,O,m,533,11,,8113.5999999940395,758276.2000000179,7250,ATS,B,4
4,test,4,C,haborder.png,0,z,Wed Dec 03 2025 16:15:32 GMT-0600 (Central Standard Time),769322.400000006,CFD-BF-051-043-A.jpg,1400,solid,O,None,1517,7,,11046.199999988079,758276.2000000179,7250,ATS,B,5
5,test,4,C,mfborder.png,1,z,Wed Dec 03 2025 16:15:32 GMT-0600 (Central Standard Time),771621.0,CFD-BF-035-007-HC.jpg,1500,dash,O,z,783,3,,13344.799999982119,758276.2000000179,7250,ATS,B,6
5,test,4,C,mfborder.png,0,z,Wed Dec 03 2025 16:15:32 GMT-0600 (Central Standard Time),774005.8000000119,CFD-BF-035-007-HC.jpg,1500,dash,O,m,858,3,,15729.59999999404,758276.2000000179,7250,ATS,B,7
5,test,4,C,mfborder.png,0,m,Wed Dec 03 2025 16:15:32 GMT-0600 (Central Standard Time),776335.0,CFD-WM-009-009-A.jpg,1200,dash,O,z,1102,6,,18058.79999998212,758276.2000000179,7250,ATS,B,8
6,test,4,C,haborder.png,1,z,Wed Dec 03 2025 16:15:32 GMT-0600 (Central Standard Time),779419.3000000119,CFD-BF-050-012-A.jpg,1900,solid,O,z,1147,8,,21143.09999999404,758276.2000000179,7250,ATS,B,9
6,test,4,C,mfborder.png,0,m,Wed Dec 03 2025 16:15:32 GMT-0600 (Central Standard Time),781667.900000006,CFD-WM-009-009-A.jpg,1200,dash,O,z,1017,6,,23391.69999998808,758276.2000000179,7250,ATS,B,10
7,test,4,C,mfborder.png,1,z,Wed Dec 03 2025 16:15:32 GMT-0600 (Central Standard Time),784016.900000006,CFD-WF-013-015-A.jpg,1600,dash,O,z,718,2,,25740.69999998808,758276.2000000179,7250,ATS,B,11
8,test,4,C,haborder.png,1,m,Wed Dec 03 2025 16:15:32 GMT-0600 (Central Standard Time),786251.900000006,CFD-BM-020-024-HC.jpg,1600,solid,O,m,619,10,,27975.69999998808,758276.2000000179,7250,ATS,B,12
8,test,4,C,haborder.png,0,z,Wed Dec 03 2025 16:15:32 GMT-0600 (Central Standard Time),788766.400000006,CFD-WF-026-008-A.jpg,1700,solid,O,m,797,9,,30490.19999998808,758276.2000000179,7250,ATS,B,13
9,test,4,C,haborder.png,1,m,Wed Dec 03 2025 16:15:32 GMT-0600 (Central Standard Time),790731.8000000119,CFD-WM-011-006-HC.jpg,1000,solid,O,m,941,12,,32455.59999999404,758276.2000000179,7250,ATS,B,14
9,test,4,C,mfborder.png,0,m,Wed Dec 03 2025 16:15:32 GMT-0600 (Central Standard Time),792681.8000000119,CFD-BM-015-017-HC.jpg,1000,dash,O,z,927,4,,34405.59999999404,758276.2000000179,7250,ATS,B,15
9,test,4,C,haborder.png,0,z,Wed Dec 03 2025 16:15:32 GMT-0600 (Central Standard Time),794997.5,CFD-BF-051-043-A.jpg,1400,solid,O,m,888,7,,36721.29999998212,758276.2000000179,7250,ATS,B,16
10,test,4,C,haborder.png,1,z,Wed Dec 03 2025 16:15:32 GMT-0600 (Central Standard Time),797896.8000000119,CFD-BF-050-012-A.jpg,1900,solid,O,z,968,8,,39620.59999999404,758276.2000000179,7250,ATS,B,17
11,test,4,C,haborder.png,1,m,Wed Dec 03 2025 16:15:32 GMT-0600 (Central Standard Time),800277.599999994,CFD-WM-011-006-HC.jpg,1500,solid,O,m,852,11,,42001.39999997616,758276.2000000179,7250,ATS,B,18
12,test,4,C,mfborder.png,1,z,Wed Dec 03 2025 16:15:32 GMT-0600 (Central Standard Time),802794.599999994,CFD-WF-013-015-A.jpg,1600,dash,O,z,893,2,,44518.39999997616,758276.2000000179,7250,ATS,B,19
12,test,4,C,mfborder.png,0,m,Wed Dec 03 2025 16:15:32 GMT-0600 (Central Standard Time),805609.599999994,CFD-BM-037-041-A.jpg,2000,dash,O,z,792,5,,47333.39999997616,758276.2000000179,7250,ATS,B,20
13,test,4,C,haborder.png,1,m,Wed Dec 03 2025 16:15:32 GMT-0600 (Central Standard Time),807892.5,CFD-BM-020-024-HC.jpg,1600,solid,O,m,665,10,,49616.29999998212,758276.2000000179,7250,ATS,B,21
13,test,4,C,mfborder.png,0,m,Wed Dec 03 2025 16:15:32 GMT-0600 (Central Standard Time),810741.5,CFD-BM-037-041-A.jpg,2000,dash,O,z,822,5,,52465.29999998212,758276.2000000179,7250,ATS,B,22
13,test,4,C,mfborder.png,0,z,Wed Dec 03 2025 16:15:32 GMT-0600 (Central Standard Time),813924.599999994,CFD-WF-011-006-HC.jpg,1700,dash,O,m,1449,1,,55648.39999997616,758276.2000000179,7250,ATS,B,23
13,test,4,C,mfborder.png,0,z,Wed Dec 03 2025 16:15:32 GMT-0600 (Central Standard Time),816523.2000000179,CFD-WF-011-006-HC.jpg,1700,dash,O,m,875,1,,58247.0,758276.2000000179,7250,ATS,B,24
