acc_sum,block,block_c,change,condition,correct,correct_response,datetime,endtime,face,project,response,response_time,row_sel,session_number,start_end,starttime,subject_id,task,task_vers,trial
0,prac,1,,1-Back,,,Wed Aug 20 2025 11:07:41 GMT-0400 (Eastern Daylight Time),,124_o_f_d_a.png,I,space,16794,1,3,,,9009,VNB,A,0
1,prac,1,0.0,1-Back,1.0,m,Wed Aug 20 2025 11:07:41 GMT-0400 (Eastern Daylight Time),5105195.800000191,071_y_f_n_a.png,I,m,1367,2,3,2204.9000000953674,5102990.900000095,9009,VNB,A,1
2,prac,1,0.0,1-Back,1.0,m,Wed Aug 20 2025 11:07:41 GMT-0400 (Eastern Daylight Time),5106912.400000095,165_m_m_h_a.png,I,m,790,3,3,1701.4000000953674,5105211.0,9009,VNB,A,2
3,prac,1,0.0,1-Back,1.0,m,Wed Aug 20 2025 11:07:41 GMT-0400 (Eastern Daylight Time),5108562.5,109_y_m_d_a.png,I,m,743,4,3,1632.0,5106930.5,9009,VNB,A,3
4,prac,1,0.0,1-Back,1.0,m,Wed Aug 20 2025 11:07:41 GMT-0400 (Eastern Daylight Time),5110229.0,124_o_f_n_a.png,I,m,690,5,3,1649.7999997138977,5108579.200000286,9009,VNB,A,4
5,prac,1,1.0,1-Back,1.0,z,Wed Aug 20 2025 11:07:41 GMT-0400 (Eastern Daylight Time),5111829.0,109_y_m_n_a.png,I,z,687,6,3,1584.1999998092651,5110244.800000191,9009,VNB,A,5
6,prac,1,0.0,1-Back,1.0,m,Wed Aug 20 2025 11:07:41 GMT-0400 (Eastern Daylight Time),5113529.0,039_o_m_h_a.png,I,m,792,7,3,1684.5,5111844.5,9009,VNB,A,6
6,prac,1,0.0,1-Back,0.0,m,Wed Aug 20 2025 11:07:41 GMT-0400 (Eastern Daylight Time),5115362.300000191,139_m_f_d_a.png,I,z,952,8,3,1816.4000000953674,5113545.900000095,9009,VNB,A,7
7,prac,1,1.0,1-Back,1.0,z,Wed Aug 20 2025 11:07:41 GMT-0400 (Eastern Daylight Time),5117745.700000286,071_y_f_d_a.png,I,z,1544,9,3,2367.800000190735,5115377.900000095,9009,VNB,A,8
8,prac,1,0.0,1-Back,1.0,m,Wed Aug 20 2025 11:07:41 GMT-0400 (Eastern Daylight Time),5119279.0,165_m_m_n_a.png,I,m,696,10,3,1517.8999996185303,5117761.1000003815,9009,VNB,A,9
9,prac,1,0.0,1-Back,1.0,m,Wed Aug 20 2025 11:07:41 GMT-0400 (Eastern Daylight Time),5120879.0,124_o_f_h_a.png,I,m,735,11,3,1585.0999999046326,5119293.900000095,9009,VNB,A,10
10,prac,1,0.0,1-Back,1.0,m,Wed Aug 20 2025 11:07:41 GMT-0400 (Eastern Daylight Time),5122312.400000095,109_y_m_d_a.png,I,m,643,12,3,1416.9000000953674,5120895.5,9009,VNB,A,11
0,test,1,0.0,1-Back,,,Wed Aug 20 2025 11:07:41 GMT-0400 (Eastern Daylight Time),5122312.400000095,071_y_f_d_a.png,I,space,12479,1,3,1416.9000000953674,5120895.5,9009,VNB,A,0
1,test,1,0.0,1-Back,1.0,m,Wed Aug 20 2025 11:07:41 GMT-0400 (Eastern Daylight Time),5141895.6000003815,139_m_f_n_a.png,I,m,627,2,3,1637.0,5140258.6000003815,9009,VNB,A,1
2,test,1,0.0,1-Back,1.0,m,Wed Aug 20 2025 11:07:41 GMT-0400 (Eastern Daylight Time),5143695.400000095,039_o_m_h_a.png,I,m,770,3,3,1786.0999999046326,5141909.300000191,9009,VNB,A,2
3,test,1,1.0,1-Back,1.0,z,Wed Aug 20 2025 11:07:41 GMT-0400 (Eastern Daylight Time),5145362.0,165_m_m_h_a.png,I,z,633,4,3,1652.0,5143710.0,9009,VNB,A,3
4,test,1,0.0,1-Back,1.0,m,Wed Aug 20 2025 11:07:41 GMT-0400 (Eastern Daylight Time),5146912.200000286,124_o_f_n_a.png,I,m,519,5,3,1535.0,5145377.200000286,9009,VNB,A,4
5,test,1,0.0,1-Back,1.0,m,Wed Aug 20 2025 11:07:41 GMT-0400 (Eastern Daylight Time),5148762.200000286,109_y_m_d_a.png,I,m,825,6,3,1836.0,5146926.200000286,9009,VNB,A,5
6,test,1,1.0,1-Back,1.0,z,Wed Aug 20 2025 11:07:41 GMT-0400 (Eastern Daylight Time),5150762.1000003815,139_m_f_d_a.png,I,z,974,7,3,1984.9000000953674,5148777.200000286,9009,VNB,A,6
7,test,1,0.0,1-Back,1.0,m,Wed Aug 20 2025 11:07:41 GMT-0400 (Eastern Daylight Time),5152345.6000003815,071_y_f_h_a.png,I,m,559,8,3,1569.3000001907349,5150776.300000191,9009,VNB,A,7
8,test,1,0.0,1-Back,1.0,m,Wed Aug 20 2025 11:07:41 GMT-0400 (Eastern Daylight Time),5154178.800000191,039_o_m_n_a.png,I,m,782,9,3,1817.1999998092651,5152361.6000003815,9009,VNB,A,8
9,test,1,0.0,1-Back,1.0,m,Wed Aug 20 2025 11:07:41 GMT-0400 (Eastern Daylight Time),5156395.5,109_y_m_h_a.png,I,m,1190,10,3,2203.3999996185303,5154192.1000003815,9009,VNB,A,9
10,test,1,0.0,1-Back,1.0,m,Wed Aug 20 2025 11:07:41 GMT-0400 (Eastern Daylight Time),5158445.5,039_o_m_d_a.png,I,m,1021,11,3,2034.8999996185303,5156410.6000003815,9009,VNB,A,10
11,test,1,1.0,1-Back,1.0,z,Wed Aug 20 2025 11:07:41 GMT-0400 (Eastern Daylight Time),5160178.700000286,124_o_f_d_a.png,I,z,684,12,3,1718.7000002861023,5158460.0,9009,VNB,A,11
12,test,1,0.0,1-Back,1.0,m,Wed Aug 20 2025 11:07:41 GMT-0400 (Eastern Daylight Time),5161862.1000003815,165_m_m_n_a.png,I,m,662,13,3,1668.3000001907349,5160193.800000191,9009,VNB,A,12
13,test,1,1.0,1-Back,1.0,z,Wed Aug 20 2025 11:07:41 GMT-0400 (Eastern Daylight Time),5163762.200000286,071_y_f_n_a.png,I,z,866,14,3,1884.8000001907349,5161877.400000095,9009,VNB,A,13
14,test,1,0.0,1-Back,1.0,m,Wed Aug 20 2025 11:07:41 GMT-0400 (Eastern Daylight Time),5165362.0,139_m_f_h_a.png,I,m,566,15,3,1585.8999996185303,5163776.1000003815,9009,VNB,A,14
15,test,1,0.0,1-Back,1.0,m,Wed Aug 20 2025 11:07:41 GMT-0400 (Eastern Daylight Time),5167162.300000191,165_m_m_d_a.png,I,m,775,16,3,1786.4000000953674,5165375.900000095,9009,VNB,A,15
16,test,1,0.0,1-Back,1.0,m,Wed Aug 20 2025 11:07:41 GMT-0400 (Eastern Daylight Time),5168978.800000191,109_y_m_n_a.png,I,m,798,17,3,1803.3000001907349,5167175.5,9009,VNB,A,16
17,test,1,0.0,1-Back,1.0,m,Wed Aug 20 2025 11:07:41 GMT-0400 (Eastern Daylight Time),5170628.400000095,124_o_f_h_a.png,I,m,630,18,3,1637.0999999046326,5168991.300000191,9009,VNB,A,17
0,test,2,0.0,1-Back,,,Wed Aug 20 2025 11:07:41 GMT-0400 (Eastern Daylight Time),5170628.400000095,109_y_m_n_a.png,I,space,1548,1,3,1637.0999999046326,5168991.300000191,9009,VNB,A,0
1,test,2,0.0,1-Back,1.0,m,Wed Aug 20 2025 11:07:41 GMT-0400 (Eastern Daylight Time),5176196.200000286,071_y_f_h_a.png,I,m,982,2,3,1987.0999999046326,5174209.1000003815,9009,VNB,A,1
2,test,2,1.0,1-Back,1.0,m,Wed Aug 20 2025 11:07:41 GMT-0400 (Eastern Daylight Time),5177928.900000095,039_o_m_n_a.png,I,m,709,3,3,1719.5,5176209.400000095,9009,VNB,A,2
3,test,2,0.0,1-Back,1.0,m,Wed Aug 20 2025 11:07:41 GMT-0400 (Eastern Daylight Time),5180062.200000286,139_m_f_d_a.png,I,m,1087,4,3,2116.2000002861023,5177946.0,9009,VNB,A,3
4,test,2,0.0,1-Back,1.0,z,Wed Aug 20 2025 11:07:41 GMT-0400 (Eastern Daylight Time),5181828.5,165_m_m_d_a.png,I,z,730,5,3,1748.7999997138977,5180079.700000286,9009,VNB,A,4
5,test,2,0.0,1-Back,1.0,m,Wed Aug 20 2025 11:07:41 GMT-0400 (Eastern Daylight Time),5183545.400000095,109_y_m_h_a.png,I,m,692,6,3,1703.5,5181841.900000095,9009,VNB,A,5
6,test,2,1.0,1-Back,1.0,z,Wed Aug 20 2025 11:07:41 GMT-0400 (Eastern Daylight Time),5185128.700000286,124_o_f_h_a.png,I,z,559,7,3,1569.0,5183559.700000286,9009,VNB,A,6
7,test,2,0.0,1-Back,1.0,m,Wed Aug 20 2025 11:07:41 GMT-0400 (Eastern Daylight Time),5186762.200000286,139_m_f_n_a.png,I,m,608,8,3,1620.0,5185142.200000286,9009,VNB,A,7
8,test,2,0.0,1-Back,1.0,m,Wed Aug 20 2025 11:07:41 GMT-0400 (Eastern Daylight Time),5188596.300000191,071_y_f_d_a.png,I,m,799,9,3,1817.3000001907349,5186779.0,9009,VNB,A,8
9,test,2,0.0,1-Back,1.0,m,Wed Aug 20 2025 11:07:41 GMT-0400 (Eastern Daylight Time),5190411.700000286,165_m_m_n_a.png,I,m,789,10,3,1801.0999999046326,5188610.6000003815,9009,VNB,A,9
10,test,2,1.0,1-Back,1.0,m,Wed Aug 20 2025 11:07:41 GMT-0400 (Eastern Daylight Time),5192045.5,139_m_f_h_a.png,I,m,606,11,3,1623.5999999046326,5190421.900000095,9009,VNB,A,10
11,test,2,0.0,1-Back,1.0,z,Wed Aug 20 2025 11:07:41 GMT-0400 (Eastern Daylight Time),5193878.6000003815,039_o_m_h_a.png,I,z,811,12,3,1818.5,5192060.1000003815,9009,VNB,A,11
12,test,2,0.0,1-Back,1.0,m,Wed Aug 20 2025 11:07:41 GMT-0400 (Eastern Daylight Time),5195595.400000095,109_y_m_d_a.png,I,m,690,13,3,1702.6999998092651,5193892.700000286,9009,VNB,A,12
13,test,2,0.0,1-Back,1.0,m,Wed Aug 20 2025 11:07:41 GMT-0400 (Eastern Daylight Time),5197462.0,124_o_f_n_a.png,I,m,845,14,3,1852.3999996185303,5195609.6000003815,9009,VNB,A,13
14,test,2,0.0,1-Back,1.0,z,Wed Aug 20 2025 11:07:41 GMT-0400 (Eastern Daylight Time),5199495.5,071_y_f_n_a.png,I,z,1010,15,3,2019.0999999046326,5197476.400000095,9009,VNB,A,14
15,test,2,1.0,1-Back,1.0,m,Wed Aug 20 2025 11:07:41 GMT-0400 (Eastern Daylight Time),5201528.900000095,165_m_m_h_a.png,I,m,1009,16,3,2019.0999999046326,5199509.800000191,9009,VNB,A,15
16,test,2,0.0,1-Back,1.0,m,Wed Aug 20 2025 11:07:41 GMT-0400 (Eastern Daylight Time),5203145.5,124_o_f_d_a.png,I,m,593,17,3,1603.0999999046326,5201542.400000095,9009,VNB,A,16
17,test,2,1.0,1-Back,1.0,z,Wed Aug 20 2025 11:07:41 GMT-0400 (Eastern Daylight Time),5204828.900000095,039_o_m_d_a.png,I,z,655,18,3,1670.7999997138977,5203158.1000003815,9009,VNB,A,17
0,test,3,1.0,1-Back,,,Wed Aug 20 2025 11:07:41 GMT-0400 (Eastern Daylight Time),5204828.900000095,124_o_f_h_a.png,I,space,1907,1,3,1670.7999997138977,5203158.1000003815,9009,VNB,A,0
1,test,3,0.0,1-Back,1.0,m,Wed Aug 20 2025 11:07:41 GMT-0400 (Eastern Daylight Time),5210428.400000095,139_m_f_d_a.png,I,m,572,2,3,1585.5,5208842.900000095,9009,VNB,A,1
2,test,3,1.0,1-Back,1.0,m,Wed Aug 20 2025 11:07:41 GMT-0400 (Eastern Daylight Time),5212212.0,165_m_m_n_a.png,I,m,764,3,3,1772.6999998092651,5210439.300000191,9009,VNB,A,2
3,test,3,0.0,1-Back,1.0,z,Wed Aug 20 2025 11:07:41 GMT-0400 (Eastern Daylight Time),5213862.1000003815,124_o_f_n_a.png,I,z,630,4,3,1636.4000000953674,5212225.700000286,9009,VNB,A,3
4,test,3,1.0,1-Back,1.0,m,Wed Aug 20 2025 11:07:41 GMT-0400 (Eastern Daylight Time),5215645.6000003815,039_o_m_d_a.png,I,m,754,5,3,1769.4000000953674,5213876.200000286,9009,VNB,A,4
5,test,3,0.0,1-Back,1.0,m,Wed Aug 20 2025 11:07:41 GMT-0400 (Eastern Daylight Time),5217578.800000191,071_y_f_h_a.png,I,m,907,6,3,1918.3000001907349,5215660.5,9009,VNB,A,5
6,test,3,0.0,1-Back,1.0,z,Wed Aug 20 2025 11:07:41 GMT-0400 (Eastern Daylight Time),5219361.900000095,109_y_m_h_a.png,I,z,716,7,3,1768.1999998092651,5217593.700000286,9009,VNB,A,6
7,test,3,0.0,1-Back,1.0,m,Wed Aug 20 2025 11:07:41 GMT-0400 (Eastern Daylight Time),5220878.800000191,139_m_f_n_a.png,I,m,470,8,3,1499.6999998092651,5219379.1000003815,9009,VNB,A,7
8,test,3,0.0,1-Back,1.0,m,Wed Aug 20 2025 11:07:41 GMT-0400 (Eastern Daylight Time),5222628.6000003815,071_y_f_d_a.png,I,m,730,9,3,1736.5,5220892.1000003815,9009,VNB,A,8
9,test,3,1.0,1-Back,1.0,m,Wed Aug 20 2025 11:07:41 GMT-0400 (Eastern Daylight Time),5224445.200000286,039_o_m_n_a.png,I,m,771,10,3,1802.5999999046326,5222642.6000003815,9009,VNB,A,9
10,test,3,0.0,1-Back,1.0,m,Wed Aug 20 2025 11:07:41 GMT-0400 (Eastern Daylight Time),5226078.900000095,165_m_m_h_a.png,I,m,570,11,3,1619.5,5224459.400000095,9009,VNB,A,10
11,test,3,0.0,1-Back,1.0,z,Wed Aug 20 2025 11:07:41 GMT-0400 (Eastern Daylight Time),5227728.900000095,139_m_f_h_a.png,I,z,618,12,3,1635.6999998092651,5226093.200000286,9009,VNB,A,11
12,test,3,1.0,1-Back,1.0,m,Wed Aug 20 2025 11:07:41 GMT-0400 (Eastern Daylight Time),5229195.6000003815,124_o_f_d_a.png,I,m,423,13,3,1452.3000001907349,5227743.300000191,9009,VNB,A,12
13,test,3,0.0,1-Back,1.0,z,Wed Aug 20 2025 11:07:41 GMT-0400 (Eastern Daylight Time),5231395.1000003815,165_m_m_d_a.png,I,z,1164,14,3,2181.4000000953674,5229213.700000286,9009,VNB,A,13
14,test,3,0.0,1-Back,1.0,m,Wed Aug 20 2025 11:07:41 GMT-0400 (Eastern Daylight Time),5232978.900000095,109_y_m_n_a.png,I,m,532,15,3,1567.0999999046326,5231411.800000191,9009,VNB,A,14
15,test,3,1.0,1-Back,1.0,m,Wed Aug 20 2025 11:07:41 GMT-0400 (Eastern Daylight Time),5234878.900000095,039_o_m_h_a.png,I,m,871,16,3,1885.6999998092651,5232993.200000286,9009,VNB,A,15
16,test,3,0.0,1-Back,1.0,m,Wed Aug 20 2025 11:07:41 GMT-0400 (Eastern Daylight Time),5236512.1000003815,109_y_m_d_a.png,I,m,602,17,3,1619.8000001907349,5234892.300000191,9009,VNB,A,16
17,test,3,1.0,1-Back,1.0,m,Wed Aug 20 2025 11:07:41 GMT-0400 (Eastern Daylight Time),5238478.900000095,071_y_f_n_a.png,I,m,936,18,3,1952.7999997138977,5236526.1000003815,9009,VNB,A,17
0,test,4,1.0,1-Back,,,Wed Aug 20 2025 11:07:41 GMT-0400 (Eastern Daylight Time),5238478.900000095,165_m_m_d_a.png,I,space,1874,1,3,1952.7999997138977,5236526.1000003815,9009,VNB,A,0
1,test,4,0.0,1-Back,1.0,z,Wed Aug 20 2025 11:07:41 GMT-0400 (Eastern Daylight Time),5244428.800000191,039_o_m_d_a.png,I,z,1022,2,3,2036.1999998092651,5242392.6000003815,9009,VNB,A,1
2,test,4,0.0,1-Back,1.0,m,Wed Aug 20 2025 11:07:41 GMT-0400 (Eastern Daylight Time),5246128.200000286,109_y_m_h_a.png,I,m,667,3,3,1684.2000002861023,5244444.0,9009,VNB,A,2
3,test,4,0.0,1-Back,1.0,m,Wed Aug 20 2025 11:07:41 GMT-0400 (Eastern Daylight Time),5247795.200000286,139_m_f_n_a.png,I,m,648,4,3,1654.5,5246140.700000286,9009,VNB,A,3
4,test,4,1.0,1-Back,1.0,m,Wed Aug 20 2025 11:07:41 GMT-0400 (Eastern Daylight Time),5249595.6000003815,124_o_f_h_a.png,I,m,773,5,3,1787.1000003814697,5247808.5,9009,VNB,A,4
5,test,4,0.0,1-Back,1.0,m,Wed Aug 20 2025 11:07:41 GMT-0400 (Eastern Daylight Time),5251212.200000286,165_m_m_n_a.png,I,m,589,6,3,1602.7000002861023,5249609.5,9009,VNB,A,5
6,test,4,0.0,1-Back,1.0,m,Wed Aug 20 2025 11:07:41 GMT-0400 (Eastern Daylight Time),5252945.6000003815,109_y_m_d_a.png,I,m,700,7,3,1718.9000000953674,5251226.700000286,9009,VNB,A,6
7,test,4,1.0,1-Back,1.0,z,Wed Aug 20 2025 11:07:41 GMT-0400 (Eastern Daylight Time),5254729.0,071_y_f_d_a.png,I,z,742,8,3,1768.5999999046326,5252960.400000095,9009,VNB,A,7
8,test,4,0.0,1-Back,1.0,m,Wed Aug 20 2025 11:07:41 GMT-0400 (Eastern Daylight Time),5256478.900000095,139_m_f_h_a.png,I,m,720,9,3,1736.0999999046326,5254742.800000191,9009,VNB,A,8
9,test,4,0.0,1-Back,1.0,z,Wed Aug 20 2025 11:07:41 GMT-0400 (Eastern Daylight Time),5258262.200000286,039_o_m_h_a.png,I,z,745,10,3,1769.0,5256493.200000286,9009,VNB,A,9
10,test,4,1.0,1-Back,1.0,m,Wed Aug 20 2025 11:07:41 GMT-0400 (Eastern Daylight Time),5259995.6000003815,124_o_f_n_a.png,I,m,707,11,3,1719.2000002861023,5258276.400000095,9009,VNB,A,10
11,test,4,0.0,1-Back,1.0,m,Wed Aug 20 2025 11:07:41 GMT-0400 (Eastern Daylight Time),5261695.6000003815,139_m_f_d_a.png,I,m,669,12,3,1686.2000002861023,5260009.400000095,9009,VNB,A,11
12,test,4,0.0,1-Back,1.0,m,Wed Aug 20 2025 11:07:41 GMT-0400 (Eastern Daylight Time),5263312.200000286,071_y_f_n_a.png,I,m,585,13,3,1603.5,5261708.700000286,9009,VNB,A,12
13,test,4,0.0,1-Back,1.0,m,Wed Aug 20 2025 11:07:41 GMT-0400 (Eastern Daylight Time),5265478.800000191,124_o_f_d_a.png,I,m,1144,14,3,2151.9000000953674,5263326.900000095,9009,VNB,A,13
13,test,4,0.0,1-Back,0.0,m,Wed Aug 20 2025 11:07:41 GMT-0400 (Eastern Daylight Time),5267278.900000095,071_y_f_h_a.png,I,z,771,15,3,1786.5,5265492.400000095,9009,VNB,A,14
14,test,4,1.0,1-Back,1.0,z,Wed Aug 20 2025 11:07:41 GMT-0400 (Eastern Daylight Time),5269278.800000191,165_m_m_h_a.png,I,z,970,16,3,1986.0999999046326,5267292.700000286,9009,VNB,A,15
15,test,4,0.0,1-Back,1.0,m,Wed Aug 20 2025 11:07:41 GMT-0400 (Eastern Daylight Time),5270862.300000191,039_o_m_n_a.png,I,m,554,17,3,1570.0999999046326,5269292.200000286,9009,VNB,A,16
16,test,4,1.0,1-Back,1.0,z,Wed Aug 20 2025 11:07:41 GMT-0400 (Eastern Daylight Time),5272879.0,109_y_m_n_a.png,I,z,970,18,3,1998.3999996185303,5270880.6000003815,9009,VNB,A,17
0,test,5,1.0,1-Back,,,Wed Aug 20 2025 11:07:41 GMT-0400 (Eastern Daylight Time),5272879.0,039_o_m_n_a.png,I,space,3186,1,3,1998.3999996185303,5270880.6000003815,9009,VNB,A,0
1,test,5,1.0,1-Back,1.0,m,Wed Aug 20 2025 11:07:41 GMT-0400 (Eastern Daylight Time),5279779.200000286,124_o_f_h_a.png,I,m,666,2,3,1668.8000001907349,5278110.400000095,9009,VNB,A,1
2,test,5,0.0,1-Back,1.0,m,Wed Aug 20 2025 11:07:41 GMT-0400 (Eastern Daylight Time),5281528.900000095,109_y_m_d_a.png,I,m,726,3,3,1735.9000000953674,5279793.0,9009,VNB,A,2
3,test,5,0.0,1-Back,1.0,z,Wed Aug 20 2025 11:07:41 GMT-0400 (Eastern Daylight Time),5283128.900000095,039_o_m_d_a.png,I,z,576,4,3,1585.4000000953674,5281543.5,9009,VNB,A,3
4,test,5,0.0,1-Back,1.0,m,Wed Aug 20 2025 11:07:41 GMT-0400 (Eastern Daylight Time),5284662.200000286,139_m_f_h_a.png,I,m,512,5,3,1518.0999999046326,5283144.1000003815,9009,VNB,A,4
5,test,5,0.0,1-Back,1.0,m,Wed Aug 20 2025 11:07:41 GMT-0400 (Eastern Daylight Time),5286295.6000003815,071_y_f_n_a.png,I,m,610,6,3,1619.6000003814697,5284676.0,9009,VNB,A,5
6,test,5,1.0,1-Back,1.0,z,Wed Aug 20 2025 11:07:41 GMT-0400 (Eastern Daylight Time),5288012.300000191,124_o_f_n_a.png,I,z,689,7,3,1703.8000001907349,5286308.5,9009,VNB,A,6
7,test,5,0.0,1-Back,1.0,m,Wed Aug 20 2025 11:07:41 GMT-0400 (Eastern Daylight Time),5289779.0,139_m_f_d_a.png,I,m,749,8,3,1750.8999996185303,5288028.1000003815,9009,VNB,A,7
8,test,5,0.0,1-Back,1.0,m,Wed Aug 20 2025 11:07:41 GMT-0400 (Eastern Daylight Time),5291512.300000191,109_y_m_h_a.png,I,m,711,9,3,1719.9000000953674,5289792.400000095,9009,VNB,A,8
9,test,5,0.0,1-Back,1.0,m,Wed Aug 20 2025 11:07:41 GMT-0400 (Eastern Daylight Time),5293145.6000003815,071_y_f_d_a.png,I,m,609,10,3,1619.5,5291526.1000003815,9009,VNB,A,9
10,test,5,0.0,1-Back,1.0,m,Wed Aug 20 2025 11:07:41 GMT-0400 (Eastern Daylight Time),5294895.6000003815,165_m_m_n_a.png,I,m,719,11,3,1736.4000000953674,5293159.200000286,9009,VNB,A,10
11,test,5,1.0,1-Back,1.0,z,Wed Aug 20 2025 11:07:41 GMT-0400 (Eastern Daylight Time),5296645.6000003815,139_m_f_n_a.png,I,z,729,12,3,1735.8000001907349,5294909.800000191,9009,VNB,A,11
12,test,5,0.0,1-Back,1.0,m,Wed Aug 20 2025 11:07:41 GMT-0400 (Eastern Daylight Time),5298129.0,039_o_m_h_a.png,I,m,451,13,3,1470.5,5296658.5,9009,VNB,A,12
13,test,5,0.0,1-Back,1.0,z,Wed Aug 20 2025 11:07:41 GMT-0400 (Eastern Daylight Time),5299962.200000286,165_m_m_h_a.png,I,z,808,14,3,1819.4000000953674,5298142.800000191,9009,VNB,A,13
14,test,5,1.0,1-Back,1.0,m,Wed Aug 20 2025 11:07:41 GMT-0400 (Eastern Daylight Time),5301678.900000095,124_o_f_d_a.png,I,m,687,15,3,1702.1999998092651,5299976.700000286,9009,VNB,A,14
15,test,5,0.0,1-Back,1.0,m,Wed Aug 20 2025 11:07:41 GMT-0400 (Eastern Daylight Time),5303362.200000286,109_y_m_n_a.png,I,m,650,16,3,1668.4000000953674,5301693.800000191,9009,VNB,A,15
16,test,5,0.0,1-Back,1.0,m,Wed Aug 20 2025 11:07:41 GMT-0400 (Eastern Daylight Time),5305228.900000095,071_y_f_h_a.png,I,m,838,17,3,1853.0999999046326,5303375.800000191,9009,VNB,A,16
17,test,5,0.0,1-Back,1.0,m,Wed Aug 20 2025 11:07:41 GMT-0400 (Eastern Daylight Time),5306895.6000003815,165_m_m_d_a.png,I,m,636,18,3,1652.7000002861023,5305242.900000095,9009,VNB,A,17
0,prac,1,0.0,2-Back,,,Wed Aug 20 2025 11:07:41 GMT-0400 (Eastern Daylight Time),5306895.6000003815,139_m_f_n_a.png,I,space,12998,1,3,1652.7000002861023,5305242.900000095,9009,VNB,A,0
0,prac,1,0.0,2-Back,,,Wed Aug 20 2025 11:07:41 GMT-0400 (Eastern Daylight Time),5306895.6000003815,124_o_f_h_a.png,I,space,12998,2,3,1652.7000002861023,5305242.900000095,9009,VNB,A,0
1,prac,1,0.0,2-Back,1.0,m,Wed Aug 20 2025 11:07:41 GMT-0400 (Eastern Daylight Time),5417196.1000003815,039_o_m_d_a.png,I,m,1195,3,3,2017.6000003814697,5415178.5,9009,VNB,A,1
2,prac,1,1.0,2-Back,1.0,z,Wed Aug 20 2025 11:07:41 GMT-0400 (Eastern Daylight Time),5419045.900000095,165_m_m_h_a.png,I,z,1015,4,3,1834.0,5417211.900000095,9009,VNB,A,2
3,prac,1,0.0,2-Back,1.0,m,Wed Aug 20 2025 11:07:41 GMT-0400 (Eastern Daylight Time),5421395.800000191,071_y_f_n_a.png,I,m,1519,5,3,2333.4000000953674,5419062.400000095,9009,VNB,A,3
4,prac,1,1.0,2-Back,1.0,z,Wed Aug 20 2025 11:07:41 GMT-0400 (Eastern Daylight Time),5423245.800000191,039_o_m_h_a.png,I,z,983,6,3,1834.4000000953674,5421411.400000095,9009,VNB,A,4
4,prac,1,1.0,2-Back,0.0,z,Wed Aug 20 2025 11:07:41 GMT-0400 (Eastern Daylight Time),5425012.400000095,109_y_m_n_a.png,I,m,931,7,3,1751.2999997138977,5423261.1000003815,9009,VNB,A,5
5,prac,1,0.0,2-Back,1.0,m,Wed Aug 20 2025 11:07:41 GMT-0400 (Eastern Daylight Time),5427079.200000286,139_m_f_d_a.png,I,m,1234,8,3,2050.9000000953674,5425028.300000191,9009,VNB,A,6
5,prac,1,0.0,2-Back,0.0,m,Wed Aug 20 2025 11:07:41 GMT-0400 (Eastern Daylight Time),5429245.800000191,124_o_f_d_a.png,I,z,1285,9,3,2151.4000000953674,5427094.400000095,9009,VNB,A,7
6,prac,1,0.0,2-Back,1.0,m,Wed Aug 20 2025 11:07:41 GMT-0400 (Eastern Daylight Time),5431545.800000191,165_m_m_h_a.png,I,m,1508,10,3,2283.199999809265,5429262.6000003815,9009,VNB,A,8
6,prac,1,1.0,2-Back,0.0,z,Wed Aug 20 2025 11:07:41 GMT-0400 (Eastern Daylight Time),5433612.400000095,071_y_f_d_a.png,I,m,1230,11,3,2050.7999997138977,5431561.6000003815,9009,VNB,A,9
7,prac,1,0.0,2-Back,1.0,m,Wed Aug 20 2025 11:07:41 GMT-0400 (Eastern Daylight Time),5435812.5,039_o_m_n_a.png,I,m,1363,12,3,2184.0,5433628.5,9009,VNB,A,10
0,test,1,0.0,2-Back,,,Wed Aug 20 2025 11:07:41 GMT-0400 (Eastern Daylight Time),5435812.5,109_y_m_h_a.png,I,space,10351,1,3,2184.0,5433628.5,9009,VNB,A,0
0,test,1,0.0,2-Back,,,Wed Aug 20 2025 11:07:41 GMT-0400 (Eastern Daylight Time),5435812.5,124_o_f_n_a.png,I,space,10351,2,3,2184.0,5433628.5,9009,VNB,A,0
1,test,1,0.0,2-Back,1.0,z,Wed Aug 20 2025 11:07:41 GMT-0400 (Eastern Daylight Time),5492046.0,039_o_m_h_a.png,I,z,639,3,3,1651.8999996185303,5490394.1000003815,9009,VNB,A,1
2,test,1,0.0,2-Back,1.0,m,Wed Aug 20 2025 11:07:41 GMT-0400 (Eastern Daylight Time),5494312.400000095,139_m_f_d_a.png,I,m,1244,4,3,2251.699999809265,5492060.700000286,9009,VNB,A,2
2,test,1,1.0,2-Back,0.0,m,Wed Aug 20 2025 11:07:41 GMT-0400 (Eastern Daylight Time),5496545.700000286,109_y_m_n_a.png,I,z,1201,5,3,2218.0999999046326,5494327.6000003815,9009,VNB,A,3
3,test,1,0.0,2-Back,1.0,z,Wed Aug 20 2025 11:07:41 GMT-0400 (Eastern Daylight Time),5498745.700000286,071_y_f_d_a.png,I,z,1159,6,3,2183.800000190735,5496561.900000095,9009,VNB,A,4
4,test,1,0.0,2-Back,1.0,m,Wed Aug 20 2025 11:07:41 GMT-0400 (Eastern Daylight Time),5501062.300000191,165_m_m_h_a.png,I,m,1279,7,3,2300.5,5498761.800000191,9009,VNB,A,5
5,test,1,1.0,2-Back,1.0,m,Wed Aug 20 2025 11:07:41 GMT-0400 (Eastern Daylight Time),5502912.300000191,071_y_f_n_a.png,I,m,802,8,3,1834.8000001907349,5501077.5,9009,VNB,A,6
6,test,1,0.0,2-Back,1.0,z,Wed Aug 20 2025 11:07:41 GMT-0400 (Eastern Daylight Time),5504695.700000286,124_o_f_h_a.png,I,z,760,9,3,1768.7000002861023,5502927.0,9009,VNB,A,7
7,test,1,0.0,2-Back,1.0,m,Wed Aug 20 2025 11:07:41 GMT-0400 (Eastern Daylight Time),5506579.400000095,039_o_m_d_a.png,I,m,866,10,3,1869.0,5504710.400000095,9009,VNB,A,8
8,test,1,1.0,2-Back,1.0,m,Wed Aug 20 2025 11:07:41 GMT-0400 (Eastern Daylight Time),5508495.800000191,165_m_m_d_a.png,I,m,886,11,3,1902.5,5506593.300000191,9009,VNB,A,9
8,test,1,0.0,2-Back,0.0,m,Wed Aug 20 2025 11:07:41 GMT-0400 (Eastern Daylight Time),5510479.200000286,139_m_f_n_a.png,I,z,954,12,3,1968.4000000953674,5508510.800000191,9009,VNB,A,10
9,test,1,0.0,2-Back,1.0,m,Wed Aug 20 2025 11:07:41 GMT-0400 (Eastern Daylight Time),5512579.1000003815,071_y_f_h_a.png,I,m,1066,13,3,2084.4000000953674,5510494.700000286,9009,VNB,A,11
9,test,1,0.0,2-Back,0.0,z,Wed Aug 20 2025 11:07:41 GMT-0400 (Eastern Daylight Time),5515012.1000003815,165_m_m_n_a.png,I,m,1398,14,3,2418.800000190735,5512593.300000191,9009,VNB,A,12
9,test,1,0.0,2-Back,0.0,m,Wed Aug 20 2025 11:07:41 GMT-0400 (Eastern Daylight Time),5517262.400000095,109_y_m_d_a.png,I,z,1195,15,3,2236.0999999046326,5515026.300000191,9009,VNB,A,13
10,test,1,1.0,2-Back,1.0,m,Wed Aug 20 2025 11:07:41 GMT-0400 (Eastern Daylight Time),5519512.1000003815,139_m_f_h_a.png,I,m,1226,16,3,2235.7000002861023,5517276.400000095,9009,VNB,A,14
11,test,1,0.0,2-Back,1.0,z,Wed Aug 20 2025 11:07:41 GMT-0400 (Eastern Daylight Time),5521428.800000191,124_o_f_d_a.png,I,z,880,17,3,1899.5999999046326,5519529.200000286,9009,VNB,A,15
12,test,1,0.0,2-Back,1.0,m,Wed Aug 20 2025 11:07:41 GMT-0400 (Eastern Daylight Time),5523378.800000191,039_o_m_n_a.png,I,m,917,18,3,1935.4000000953674,5521443.400000095,9009,VNB,A,16
0,test,2,0.0,2-Back,,,Wed Aug 20 2025 11:07:41 GMT-0400 (Eastern Daylight Time),5523378.800000191,165_m_m_h_a.png,I,space,1703,1,3,1935.4000000953674,5521443.400000095,9009,VNB,A,0
0,test,2,0.0,2-Back,,,Wed Aug 20 2025 11:07:41 GMT-0400 (Eastern Daylight Time),5523378.800000191,071_y_f_n_a.png,I,space,1703,2,3,1935.4000000953674,5521443.400000095,9009,VNB,A,0
1,test,2,1.0,2-Back,1.0,z,Wed Aug 20 2025 11:07:41 GMT-0400 (Eastern Daylight Time),5532445.6000003815,124_o_f_h_a.png,I,z,1172,3,3,2185.7000002861023,5530259.900000095,9009,VNB,A,1
2,test,2,0.0,2-Back,1.0,m,Wed Aug 20 2025 11:07:41 GMT-0400 (Eastern Daylight Time),5535112.5,039_o_m_d_a.png,I,m,1644,4,3,2651.699999809265,5532460.800000191,9009,VNB,A,2
3,test,2,0.0,2-Back,1.0,m,Wed Aug 20 2025 11:07:41 GMT-0400 (Eastern Daylight Time),5537546.5,139_m_f_d_a.png,I,m,1408,5,3,2419.0,5535127.5,9009,VNB,A,3
4,test,2,0.0,2-Back,1.0,m,Wed Aug 20 2025 11:07:41 GMT-0400 (Eastern Daylight Time),5539495.700000286,109_y_m_h_a.png,I,m,928,6,3,1938.2000002861023,5537557.5,9009,VNB,A,4
5,test,2,0.0,2-Back,1.0,m,Wed Aug 20 2025 11:07:41 GMT-0400 (Eastern Daylight Time),5541362.5,124_o_f_n_a.png,I,m,817,7,3,1850.6999998092651,5539511.800000191,9009,VNB,A,5
6,test,2,1.0,2-Back,1.0,z,Wed Aug 20 2025 11:07:41 GMT-0400 (Eastern Daylight Time),5543045.6000003815,039_o_m_h_a.png,I,z,647,8,3,1666.4000000953674,5541379.200000286,9009,VNB,A,6
7,test,2,0.0,2-Back,1.0,m,Wed Aug 20 2025 11:07:41 GMT-0400 (Eastern Daylight Time),5544929.1000003815,071_y_f_d_a.png,I,m,851,9,3,1869.2000002861023,5543059.900000095,9009,VNB,A,7
8,test,2,0.0,2-Back,1.0,m,Wed Aug 20 2025 11:07:41 GMT-0400 (Eastern Daylight Time),5546895.700000286,109_y_m_d_a.png,I,m,937,10,3,1951.5,5544944.200000286,9009,VNB,A,8
9,test,2,0.0,2-Back,1.0,m,Wed Aug 20 2025 11:07:41 GMT-0400 (Eastern Daylight Time),5548645.800000191,165_m_m_n_a.png,I,m,730,11,3,1735.5999999046326,5546910.200000286,9009,VNB,A,9
10,test,2,0.0,2-Back,1.0,m,Wed Aug 20 2025 11:07:41 GMT-0400 (Eastern Daylight Time),5550429.1000003815,139_m_f_h_a.png,I,m,740,12,3,1765.0,5548664.1000003815,9009,VNB,A,10
10,test,2,1.0,2-Back,0.0,z,Wed Aug 20 2025 11:07:41 GMT-0400 (Eastern Daylight Time),5553112.400000095,039_o_m_n_a.png,I,m,1660,13,3,2669.199999809265,5550443.200000286,9009,VNB,A,11
11,test,2,0.0,2-Back,1.0,m,Wed Aug 20 2025 11:07:41 GMT-0400 (Eastern Daylight Time),5554929.1000003815,124_o_f_d_a.png,I,m,784,14,3,1802.6000003814697,5553126.5,9009,VNB,A,12
12,test,2,0.0,2-Back,1.0,m,Wed Aug 20 2025 11:07:41 GMT-0400 (Eastern Daylight Time),5557112.5,071_y_f_h_a.png,I,m,1143,15,3,2169.5999999046326,5554942.900000095,9009,VNB,A,13
12,test,2,0.0,2-Back,0.0,z,Wed Aug 20 2025 11:07:41 GMT-0400 (Eastern Daylight Time),5559378.900000095,165_m_m_d_a.png,I,m,1233,16,3,2252.699999809265,5557126.200000286,9009,VNB,A,14
13,test,2,0.0,2-Back,1.0,m,Wed Aug 20 2025 11:07:41 GMT-0400 (Eastern Daylight Time),5561145.700000286,109_y_m_n_a.png,I,m,743,17,3,1752.5999999046326,5559393.1000003815,9009,VNB,A,15
14,test,2,1.0,2-Back,1.0,m,Wed Aug 20 2025 11:07:41 GMT-0400 (Eastern Daylight Time),5562845.5,139_m_f_n_a.png,I,m,671,18,3,1684.5999999046326,5561160.900000095,9009,VNB,A,16
0,test,3,1.0,2-Back,,,Wed Aug 20 2025 11:07:41 GMT-0400 (Eastern Daylight Time),5562845.5,039_o_m_n_a.png,I,space,1757,1,3,1684.5999999046326,5561160.900000095,9009,VNB,A,0
0,test,3,1.0,2-Back,,,Wed Aug 20 2025 11:07:41 GMT-0400 (Eastern Daylight Time),5562845.5,124_o_f_d_a.png,I,space,1757,2,3,1684.5999999046326,5561160.900000095,9009,VNB,A,0
1,test,3,0.0,2-Back,1.0,m,Wed Aug 20 2025 11:07:41 GMT-0400 (Eastern Daylight Time),5571595.700000286,071_y_f_h_a.png,I,m,907,3,3,1918.8000001907349,5569676.900000095,9009,VNB,A,1
1,test,3,0.0,2-Back,0.0,z,Wed Aug 20 2025 11:07:41 GMT-0400 (Eastern Daylight Time),5574145.800000191,139_m_f_d_a.png,I,m,1517,4,3,2536.0,5571609.800000191,9009,VNB,A,2
2,test,3,1.0,2-Back,1.0,m,Wed Aug 20 2025 11:07:41 GMT-0400 (Eastern Daylight Time),5575779.0,109_y_m_n_a.png,I,m,600,5,3,1619.2999997138977,5574159.700000286,9009,VNB,A,3
3,test,3,0.0,2-Back,1.0,m,Wed Aug 20 2025 11:07:41 GMT-0400 (Eastern Daylight Time),5578012.1000003815,039_o_m_h_a.png,I,m,1206,6,3,2219.300000190735,5575792.800000191,9009,VNB,A,4
3,test,3,0.0,2-Back,0.0,z,Wed Aug 20 2025 11:07:41 GMT-0400 (Eastern Daylight Time),5580079.200000286,071_y_f_n_a.png,I,m,1020,7,3,2054.5,5578024.700000286,9009,VNB,A,5
4,test,3,1.0,2-Back,1.0,m,Wed Aug 20 2025 11:07:41 GMT-0400 (Eastern Daylight Time),5581812.200000286,165_m_m_d_a.png,I,m,715,8,3,1719.3000001907349,5580092.900000095,9009,VNB,A,6
5,test,3,0.0,2-Back,1.0,m,Wed Aug 20 2025 11:07:41 GMT-0400 (Eastern Daylight Time),5583795.400000095,109_y_m_d_a.png,I,m,965,9,3,1968.9000000953674,5581826.5,9009,VNB,A,7
6,test,3,0.0,2-Back,1.0,m,Wed Aug 20 2025 11:07:41 GMT-0400 (Eastern Daylight Time),5585996.0,124_o_f_h_a.png,I,m,1157,10,3,2186.2999997138977,5583809.700000286,9009,VNB,A,8
7,test,3,1.0,2-Back,1.0,m,Wed Aug 20 2025 11:07:41 GMT-0400 (Eastern Daylight Time),5587828.900000095,139_m_f_n_a.png,I,m,814,11,3,1818.6999998092651,5586010.200000286,9009,VNB,A,9
7,test,3,1.0,2-Back,0.0,z,Wed Aug 20 2025 11:07:41 GMT-0400 (Eastern Daylight Time),5590112.200000286,165_m_m_h_a.png,I,m,1235,12,3,2266.5,5587845.700000286,9009,VNB,A,10
8,test,3,0.0,2-Back,1.0,m,Wed Aug 20 2025 11:07:41 GMT-0400 (Eastern Daylight Time),5592262.300000191,071_y_f_d_a.png,I,m,1129,13,3,2135.5,5590126.800000191,9009,VNB,A,11
9,test,3,0.0,2-Back,1.0,m,Wed Aug 20 2025 11:07:41 GMT-0400 (Eastern Daylight Time),5593879.1000003815,124_o_f_n_a.png,I,m,595,14,3,1601.3000001907349,5592277.800000191,9009,VNB,A,12
9,test,3,0.0,2-Back,0.0,z,Wed Aug 20 2025 11:07:41 GMT-0400 (Eastern Daylight Time),5595795.5,039_o_m_d_a.png,I,m,882,15,3,1902.2999997138977,5593893.200000286,9009,VNB,A,13
10,test,3,1.0,2-Back,1.0,m,Wed Aug 20 2025 11:07:41 GMT-0400 (Eastern Daylight Time),5598429.1000003815,139_m_f_h_a.png,I,m,1606,16,3,2620.5,5595808.6000003815,9009,VNB,A,14
10,test,3,0.0,2-Back,0.0,m,Wed Aug 20 2025 11:07:41 GMT-0400 (Eastern Daylight Time),5600178.400000095,165_m_m_n_a.png,I,z,732,17,3,1734.5,5598443.900000095,9009,VNB,A,15
11,test,3,0.0,2-Back,1.0,z,Wed Aug 20 2025 11:07:41 GMT-0400 (Eastern Daylight Time),5602112.400000095,109_y_m_h_a.png,I,z,903,18,3,1921.0,5600191.400000095,9009,VNB,A,16
0,test,4,0.0,2-Back,,,Wed Aug 20 2025 11:07:41 GMT-0400 (Eastern Daylight Time),5602112.400000095,139_m_f_n_a.png,I,space,1993,1,3,1921.0,5600191.400000095,9009,VNB,A,0
0,test,4,0.0,2-Back,,,Wed Aug 20 2025 11:07:41 GMT-0400 (Eastern Daylight Time),5602112.400000095,039_o_m_n_a.png,I,space,1993,2,3,1921.0,5600191.400000095,9009,VNB,A,0
1,test,4,1.0,2-Back,1.0,m,Wed Aug 20 2025 11:07:41 GMT-0400 (Eastern Daylight Time),5611362.1000003815,109_y_m_h_a.png,I,m,1100,3,3,2133.9000000953674,5609228.200000286,9009,VNB,A,1
2,test,4,1.0,2-Back,1.0,m,Wed Aug 20 2025 11:07:41 GMT-0400 (Eastern Daylight Time),5613378.700000286,124_o_f_d_a.png,I,m,983,4,3,2004.5999999046326,5611374.1000003815,9009,VNB,A,2
3,test,4,0.0,2-Back,1.0,z,Wed Aug 20 2025 11:07:41 GMT-0400 (Eastern Daylight Time),5615162.5,039_o_m_h_a.png,I,z,759,5,3,1771.8999996185303,5613390.6000003815,9009,VNB,A,3
4,test,4,0.0,2-Back,1.0,m,Wed Aug 20 2025 11:07:41 GMT-0400 (Eastern Daylight Time),5617245.800000191,165_m_m_n_a.png,I,m,1038,6,3,2068.0,5615177.800000191,9009,VNB,A,4
5,test,4,0.0,2-Back,1.0,m,Wed Aug 20 2025 11:07:41 GMT-0400 (Eastern Daylight Time),5619062.300000191,139_m_f_d_a.png,I,m,779,7,3,1797.1999998092651,5617265.1000003815,9009,VNB,A,5
6,test,4,0.0,2-Back,1.0,z,Wed Aug 20 2025 11:07:41 GMT-0400 (Eastern Daylight Time),5620995.5,071_y_f_n_a.png,I,z,915,8,3,1919.1999998092651,5619076.300000191,9009,VNB,A,6
7,test,4,1.0,2-Back,1.0,m,Wed Aug 20 2025 11:07:41 GMT-0400 (Eastern Daylight Time),5623045.700000286,124_o_f_h_a.png,I,m,1030,9,3,2036.9000000953674,5621008.800000191,9009,VNB,A,7
8,test,4,0.0,2-Back,1.0,m,Wed Aug 20 2025 11:07:41 GMT-0400 (Eastern Daylight Time),5624912.5,165_m_m_h_a.png,I,m,819,10,3,1851.1999998092651,5623061.300000191,9009,VNB,A,8
9,test,4,0.0,2-Back,1.0,m,Wed Aug 20 2025 11:07:41 GMT-0400 (Eastern Daylight Time),5626712.400000095,071_y_f_d_a.png,I,m,777,11,3,1786.1999998092651,5624926.200000286,9009,VNB,A,9
10,test,4,0.0,2-Back,1.0,m,Wed Aug 20 2025 11:07:41 GMT-0400 (Eastern Daylight Time),5628695.800000191,109_y_m_n_a.png,I,m,961,12,3,1969.0999999046326,5626726.700000286,9009,VNB,A,10
11,test,4,0.0,2-Back,1.0,z,Wed Aug 20 2025 11:07:41 GMT-0400 (Eastern Daylight Time),5630612.300000191,039_o_m_d_a.png,I,z,898,13,3,1901.9000000953674,5628710.400000095,9009,VNB,A,11
12,test,4,1.0,2-Back,1.0,m,Wed Aug 20 2025 11:07:41 GMT-0400 (Eastern Daylight Time),5632829.200000286,139_m_f_h_a.png,I,m,1189,14,3,2201.5,5630627.700000286,9009,VNB,A,12
13,test,4,1.0,2-Back,1.0,m,Wed Aug 20 2025 11:07:41 GMT-0400 (Eastern Daylight Time),5634745.700000286,071_y_f_h_a.png,I,m,893,15,3,1901.2000002861023,5632844.5,9009,VNB,A,13
14,test,4,0.0,2-Back,1.0,m,Wed Aug 20 2025 11:07:41 GMT-0400 (Eastern Daylight Time),5636595.400000095,124_o_f_n_a.png,I,m,815,16,3,1834.1999998092651,5634761.200000286,9009,VNB,A,14
15,test,4,0.0,2-Back,1.0,m,Wed Aug 20 2025 11:07:41 GMT-0400 (Eastern Daylight Time),5638345.800000191,109_y_m_d_a.png,I,m,726,17,3,1737.1999998092651,5636608.6000003815,9009,VNB,A,15
16,test,4,1.0,2-Back,1.0,m,Wed Aug 20 2025 11:07:41 GMT-0400 (Eastern Daylight Time),5640229.0,165_m_m_d_a.png,I,m,864,18,3,1868.7999997138977,5638360.200000286,9009,VNB,A,16
0,test,5,1.0,2-Back,,,Wed Aug 20 2025 11:07:41 GMT-0400 (Eastern Daylight Time),5640229.0,071_y_f_d_a.png,I,space,2341,1,3,1868.7999997138977,5638360.200000286,9009,VNB,A,0
0,test,5,1.0,2-Back,,,Wed Aug 20 2025 11:07:41 GMT-0400 (Eastern Daylight Time),5640229.0,124_o_f_h_a.png,I,space,2341,2,3,1868.7999997138977,5638360.200000286,9009,VNB,A,0
1,test,5,1.0,2-Back,1.0,z,Wed Aug 20 2025 11:07:41 GMT-0400 (Eastern Daylight Time),5650129.1000003815,039_o_m_d_a.png,I,z,1353,3,3,2370.7000002861023,5647758.400000095,9009,VNB,A,1
2,test,5,1.0,2-Back,1.0,m,Wed Aug 20 2025 11:07:41 GMT-0400 (Eastern Daylight Time),5652212.300000191,139_m_f_n_a.png,I,m,1065,4,3,2068.300000190735,5650144.0,9009,VNB,A,2
3,test,5,0.0,2-Back,1.0,m,Wed Aug 20 2025 11:07:41 GMT-0400 (Eastern Daylight Time),5654012.700000286,165_m_m_h_a.png,I,m,757,5,3,1784.7000002861023,5652228.0,9009,VNB,A,3
4,test,5,0.0,2-Back,1.0,z,Wed Aug 20 2025 11:07:41 GMT-0400 (Eastern Daylight Time),5656079.1000003815,071_y_f_n_a.png,I,z,1037,6,3,2051.2000002861023,5654027.900000095,9009,VNB,A,4
5,test,5,0.0,2-Back,1.0,m,Wed Aug 20 2025 11:07:41 GMT-0400 (Eastern Daylight Time),5657945.800000191,124_o_f_d_a.png,I,m,843,7,3,1851.5,5656094.300000191,9009,VNB,A,5
6,test,5,0.0,2-Back,1.0,m,Wed Aug 20 2025 11:07:41 GMT-0400 (Eastern Daylight Time),5659828.900000095,039_o_m_h_a.png,I,m,863,8,3,1869.5,5657959.400000095,9009,VNB,A,6
7,test,5,1.0,2-Back,1.0,z,Wed Aug 20 2025 11:07:41 GMT-0400 (Eastern Daylight Time),5661795.800000191,139_m_f_d_a.png,I,z,949,9,3,1953.8000001907349,5659842.0,9009,VNB,A,7
8,test,5,0.0,2-Back,1.0,m,Wed Aug 20 2025 11:07:41 GMT-0400 (Eastern Daylight Time),5663662.5,109_y_m_n_a.png,I,m,838,10,3,1852.0,5661810.5,9009,VNB,A,8
9,test,5,0.0,2-Back,1.0,m,Wed Aug 20 2025 11:07:41 GMT-0400 (Eastern Daylight Time),5665929.800000191,165_m_m_n_a.png,I,m,1243,11,3,2252.5999999046326,5663677.200000286,9009,VNB,A,9
10,test,5,0.0,2-Back,1.0,m,Wed Aug 20 2025 11:07:41 GMT-0400 (Eastern Daylight Time),5667795.800000191,071_y_f_h_a.png,I,m,834,12,3,1854.6999998092651,5665941.1000003815,9009,VNB,A,10
11,test,5,0.0,2-Back,1.0,m,Wed Aug 20 2025 11:07:41 GMT-0400 (Eastern Daylight Time),5669762.5,109_y_m_d_a.png,I,m,934,13,3,1952.5999999046326,5667809.900000095,9009,VNB,A,11
12,test,5,1.0,2-Back,1.0,z,Wed Aug 20 2025 11:07:41 GMT-0400 (Eastern Daylight Time),5671379.200000286,139_m_f_h_a.png,I,z,599,14,3,1601.8000001907349,5669777.400000095,9009,VNB,A,12
13,test,5,0.0,2-Back,1.0,m,Wed Aug 20 2025 11:07:41 GMT-0400 (Eastern Daylight Time),5673395.700000286,039_o_m_n_a.png,I,m,999,15,3,2002.8000001907349,5671392.900000095,9009,VNB,A,13
14,test,5,0.0,2-Back,1.0,m,Wed Aug 20 2025 11:07:41 GMT-0400 (Eastern Daylight Time),5675462.5,165_m_m_d_a.png,I,m,1046,16,3,2052.5,5673410.0,9009,VNB,A,14
15,test,5,0.0,2-Back,1.0,z,Wed Aug 20 2025 11:07:41 GMT-0400 (Eastern Daylight Time),5677395.5,124_o_f_n_a.png,I,z,915,17,3,1918.5999999046326,5675476.900000095,9009,VNB,A,15
16,test,5,1.0,2-Back,1.0,m,Wed Aug 20 2025 11:07:41 GMT-0400 (Eastern Daylight Time),5679428.900000095,109_y_m_h_a.png,I,m,1014,18,3,2018.7999997138977,5677410.1000003815,9009,VNB,A,16
