block_c,block_dur,condition,countdown,datetime,endtime,list,multichar_response,project,response,response_time,session_number,start_end,starttime,subject_id,task,task_vers,trial
,,,,Thu Aug 28 2025 10:34:49 GMT-0500 (Central Daylight Time),,,,O,space,793,1,,,7206,WL,B,
prac,,0,,Thu Aug 28 2025 10:34:49 GMT-0500 (Central Daylight Time),,NA,b,O,b,1239,1,,,7206,WL,B,1.0
prac,,0,,Thu Aug 28 2025 10:34:49 GMT-0500 (Central Daylight Time),,NA,bo,O,o,276,1,,,7206,WL,B,1.0
prac,,0,,Thu Aug 28 2025 10:34:49 GMT-0500 (Central Daylight Time),,NA,boo,O,o,162,1,,,7206,WL,B,1.0
prac,,0,,Thu Aug 28 2025 10:34:49 GMT-0500 (Central Daylight Time),,NA,boos,O,s,80,1,,,7206,WL,B,1.0
prac,,0,,Thu Aug 28 2025 10:34:49 GMT-0500 (Central Daylight Time),,NA,boost,O,t,197,1,,,7206,WL,B,1.0
prac,,0,,Thu Aug 28 2025 10:34:49 GMT-0500 (Central Daylight Time),,NA,boostenter,O,enter,2029,1,,,7206,WL,B,1.0
1,2.116000175476074,learn,57883.999824523926,Thu Aug 28 2025 10:34:49 GMT-0500 (Central Daylight Time),176980.5,A,f,O,f,2095,1,2115.899999856949,174864.60000014305,7206,WL,B,1.0
1,2.2150001525878906,learn,57784.99984741211,Thu Aug 28 2025 10:34:49 GMT-0500 (Central Daylight Time),177079.20000004768,A,fa,O,a,83,1,2214.5999999046326,174864.60000014305,7206,WL,B,1.0
1,2.5989999771118164,learn,57401.00002288818,Thu Aug 28 2025 10:34:49 GMT-0500 (Central Daylight Time),177463.60000014305,A,fac,O,c,367,1,2599.0,174864.60000014305,7206,WL,B,1.0
1,2.8990001678466797,learn,57100.99983215332,Thu Aug 28 2025 10:34:49 GMT-0500 (Central Daylight Time),177763.70000004768,A,face,O,e,282,1,2899.0999999046326,174864.60000014305,7206,WL,B,1.0
1,3.815000057220459,learn,56184.99994277954,Thu Aug 28 2025 10:34:49 GMT-0500 (Central Daylight Time),178680.10000014305,A,faceenter,O,enter,893,1,3815.5,174864.60000014305,7206,WL,B,1.0
1,5.197000026702881,learn,54802.99997329712,Thu Aug 28 2025 10:34:49 GMT-0500 (Central Daylight Time),180062.40000009537,A,s,O,s,1369,1,1381.9000000953674,178680.5,7206,WL,B,2.0
1,5.330000162124634,learn,54669.999837875366,Thu Aug 28 2025 10:34:49 GMT-0500 (Central Daylight Time),180194.90000009537,A,sk,O,k,124,1,1514.4000000953674,178680.5,7206,WL,B,2.0
1,5.564000129699707,learn,54435.99987030029,Thu Aug 28 2025 10:34:49 GMT-0500 (Central Daylight Time),180429.40000009537,A,ski,O,i,222,1,1748.9000000953674,178680.5,7206,WL,B,2.0
1,5.865000009536743,learn,54134.99999046326,Thu Aug 28 2025 10:34:49 GMT-0500 (Central Daylight Time),180730.20000004768,A,skin,O,n,284,1,2049.7000000476837,178680.5,7206,WL,B,2.0
1,6.263000011444092,learn,53736.99998855591,Thu Aug 28 2025 10:34:49 GMT-0500 (Central Daylight Time),181128.10000014305,A,skinenter,O,enter,383,1,2447.600000143051,178680.5,7206,WL,B,2.0
1,6.813000202178955,learn,53186.999797821045,Thu Aug 28 2025 10:34:49 GMT-0500 (Central Daylight Time),181678.60000014305,A,a,O,a,536,1,550.1000001430511,181128.5,7206,WL,B,3.0
1,6.980000019073486,learn,53019.999980926514,Thu Aug 28 2025 10:34:49 GMT-0500 (Central Daylight Time),181844.90000009537,A,ar,O,r,154,1,716.4000000953674,181128.5,7206,WL,B,3.0
1,7.213000059127808,learn,52786.99994087219,Thu Aug 28 2025 10:34:49 GMT-0500 (Central Daylight Time),182078.10000014305,A,arm,O,m,211,1,949.6000001430511,181128.5,7206,WL,B,3.0
1,7.446000099182129,learn,52553.99990081787,Thu Aug 28 2025 10:34:49 GMT-0500 (Central Daylight Time),182311.5,A,armenter,O,enter,219,1,1183.0,181128.5,7206,WL,B,3.0
1,7.980000019073486,learn,52019.999980926514,Thu Aug 28 2025 10:34:49 GMT-0500 (Central Daylight Time),182845.20000004768,A,d,O,d,524,1,533.3999998569489,182311.80000019073,7206,WL,B,4.0
1,8.146000146865845,learn,51853.999853134155,Thu Aug 28 2025 10:34:49 GMT-0500 (Central Daylight Time),183011.20000004768,A,do,O,o,155,1,699.3999998569489,182311.80000019073,7206,WL,B,4.0
1,8.32800006866455,learn,51671.99993133545,Thu Aug 28 2025 10:34:49 GMT-0500 (Central Daylight Time),183193.5,A,doo,O,o,172,1,881.6999998092651,182311.80000019073,7206,WL,B,4.0
1,8.480000019073486,learn,51519.999980926514,Thu Aug 28 2025 10:34:49 GMT-0500 (Central Daylight Time),183344.90000009537,A,door,O,r,129,1,1033.0999999046326,182311.80000019073,7206,WL,B,4.0
1,8.647000074386597,learn,51352.9999256134,Thu Aug 28 2025 10:34:49 GMT-0500 (Central Daylight Time),183512.30000019073,A,doorenter,O,enter,160,1,1200.5,182311.80000019073,7206,WL,B,4.0
1,9.212000131607056,learn,50787.999868392944,Thu Aug 28 2025 10:34:49 GMT-0500 (Central Daylight Time),184076.60000014305,A,s,O,s,545,1,563.9000000953674,183512.70000004768,7206,WL,B,5.0
1,9.397000074386597,learn,50602.9999256134,Thu Aug 28 2025 10:34:49 GMT-0500 (Central Daylight Time),184262.20000004768,A,st,O,t,166,1,749.5,183512.70000004768,7206,WL,B,5.0
1,9.646000146865845,learn,50353.999853134155,Thu Aug 28 2025 10:34:49 GMT-0500 (Central Daylight Time),184511.20000004768,A,str,O,r,224,1,998.5,183512.70000004768,7206,WL,B,5.0
1,9.779000043869019,learn,50220.99995613098,Thu Aug 28 2025 10:34:49 GMT-0500 (Central Daylight Time),184644.30000019073,A,stre,O,e,112,1,1131.6000001430511,183512.70000004768,7206,WL,B,5.0
1,9.963000059127808,learn,50036.99994087219,Thu Aug 28 2025 10:34:49 GMT-0500 (Central Daylight Time),184828.20000004768,A,stree,O,e,176,1,1315.5,183512.70000004768,7206,WL,B,5.0
1,10.213000059127808,learn,49786.99994087219,Thu Aug 28 2025 10:34:49 GMT-0500 (Central Daylight Time),185078.10000014305,A,street,O,t,230,1,1565.4000000953674,183512.70000004768,7206,WL,B,5.0
1,10.379000186920166,learn,49620.999813079834,Thu Aug 28 2025 10:34:49 GMT-0500 (Central Daylight Time),185244.40000009537,A,streetenter,O,enter,155,1,1731.7000000476837,183512.70000004768,7206,WL,B,5.0
1,10.812000036239624,learn,49187.999963760376,Thu Aug 28 2025 10:34:49 GMT-0500 (Central Daylight Time),185677.10000014305,A,s,O,s,423,1,432.40000009536743,185244.70000004768,7206,WL,B,6.0
1,11.09500002861023,learn,48904.99997138977,Thu Aug 28 2025 10:34:49 GMT-0500 (Central Daylight Time),185960.5,A,st,O,t,262,1,715.7999999523163,185244.70000004768,7206,WL,B,6.0
1,11.27999997138977,learn,48720.00002861023,Thu Aug 28 2025 10:34:49 GMT-0500 (Central Daylight Time),186145.20000004768,A,sta,O,a,170,1,900.5,185244.70000004768,7206,WL,B,6.0
1,11.412000179290771,learn,48587.99982070923,Thu Aug 28 2025 10:34:49 GMT-0500 (Central Daylight Time),186277.0,A,star,O,r,119,1,1032.2999999523163,185244.70000004768,7206,WL,B,6.0
1,11.828999996185303,learn,48171.0000038147,Thu Aug 28 2025 10:34:49 GMT-0500 (Central Daylight Time),186694.0,A,starenter,O,enter,403,1,1449.2999999523163,185244.70000004768,7206,WL,B,6.0
1,12.312000036239624,learn,47687.999963760376,Thu Aug 28 2025 10:34:49 GMT-0500 (Central Daylight Time),187177.30000019073,A,f,O,f,461,1,483.0,186694.30000019073,7206,WL,B,7.0
1,12.446000099182129,learn,47553.99990081787,Thu Aug 28 2025 10:34:49 GMT-0500 (Central Daylight Time),187311.0,A,fi,O,i,119,1,616.6999998092651,186694.30000019073,7206,WL,B,7.0
1,12.562000036239624,learn,47437.999963760376,Thu Aug 28 2025 10:34:49 GMT-0500 (Central Daylight Time),187427.30000019073,A,fir,O,r,97,1,733.0,186694.30000019073,7206,WL,B,7.0
1,12.644999980926514,learn,47355.000019073486,Thu Aug 28 2025 10:34:49 GMT-0500 (Central Daylight Time),187509.70000004768,A,fire,O,e,68,1,815.3999998569489,186694.30000019073,7206,WL,B,7.0
1,12.844000101089478,learn,47155.99989891052,Thu Aug 28 2025 10:34:49 GMT-0500 (Central Daylight Time),187708.80000019073,A,fireenter,O,enter,189,1,1014.5,186694.30000019073,7206,WL,B,7.0
1,13.226999998092651,learn,46773.00000190735,Thu Aug 28 2025 10:34:49 GMT-0500 (Central Daylight Time),188092.5,A,c,O,c,364,1,383.5,187709.0,7206,WL,B,8.0
1,13.34500002861023,learn,46654.99997138977,Thu Aug 28 2025 10:34:49 GMT-0500 (Central Daylight Time),188209.80000019073,A,ci,O,i,109,1,500.80000019073486,187709.0,7206,WL,B,8.0
1,13.528000116348267,learn,46471.99988365173,Thu Aug 28 2025 10:34:49 GMT-0500 (Central Daylight Time),188392.80000019073,A,cit,O,t,166,1,683.8000001907349,187709.0,7206,WL,B,8.0
1,14.2260000705719,learn,45773.9999294281,Thu Aug 28 2025 10:34:49 GMT-0500 (Central Daylight Time),189090.90000009537,A,city,O,y,678,1,1381.9000000953674,187709.0,7206,WL,B,8.0
1,14.610000133514404,learn,45389.999866485596,Thu Aug 28 2025 10:34:49 GMT-0500 (Central Daylight Time),189474.80000019073,A,cityenter,O,enter,368,1,1765.8000001907349,187709.0,7206,WL,B,8.0
1,15.028000116348267,learn,44971.99988365173,Thu Aug 28 2025 10:34:49 GMT-0500 (Central Daylight Time),189892.70000004768,A,w,O,w,399,1,417.59999990463257,189475.10000014305,7206,WL,B,9.0
1,15.127000093460083,learn,44872.99990653992,Thu Aug 28 2025 10:34:49 GMT-0500 (Central Daylight Time),189992.5,A,wi,O,i,86,1,517.3999998569489,189475.10000014305,7206,WL,B,9.0
1,15.410000085830688,learn,44589.99991416931,Thu Aug 28 2025 10:34:49 GMT-0500 (Central Daylight Time),190275.20000004768,A,wid,O,d,272,1,800.0999999046326,189475.10000014305,7206,WL,B,9.0
1,15.92799997329712,learn,44072.00002670288,Thu Aug 28 2025 10:34:49 GMT-0500 (Central Daylight Time),190793.40000009537,A,wi,O,backspace,497,1,1318.2999999523163,189475.10000014305,7206,WL,B,9.0
1,16.777000188827515,learn,43222.999811172485,Thu Aug 28 2025 10:34:49 GMT-0500 (Central Daylight Time),191642.60000014305,A,win,O,n,827,1,2167.5,189475.10000014305,7206,WL,B,9.0
1,17.17799997329712,learn,42822.00002670288,Thu Aug 28 2025 10:34:49 GMT-0500 (Central Daylight Time),192043.40000009537,A,wind,O,d,382,1,2568.2999999523163,189475.10000014305,7206,WL,B,9.0
1,17.242000102996826,learn,42757.999897003174,Thu Aug 28 2025 10:34:49 GMT-0500 (Central Daylight Time),192107.20000004768,A,windo,O,o,55,1,2632.0999999046326,189475.10000014305,7206,WL,B,9.0
1,17.443000078201294,learn,42556.999921798706,Thu Aug 28 2025 10:34:49 GMT-0500 (Central Daylight Time),192308.40000009537,A,window,O,w,184,1,2833.2999999523163,189475.10000014305,7206,WL,B,9.0
1,18.093000173568726,learn,41906.999826431274,Thu Aug 28 2025 10:34:49 GMT-0500 (Central Daylight Time),192957.90000009537,A,windowenter,O,enter,629,1,3482.7999999523163,189475.10000014305,7206,WL,B,9.0
1,20.3270001411438,learn,39672.9998588562,Thu Aug 28 2025 10:34:49 GMT-0500 (Central Daylight Time),195192.60000014305,A,p,O,p,2222,1,2234.4000000953674,192958.20000004768,7206,WL,B,10.0
1,20.526000022888184,learn,39473.99997711182,Thu Aug 28 2025 10:34:49 GMT-0500 (Central Daylight Time),195391.60000014305,A,pu,O,u,177,1,2433.4000000953674,192958.20000004768,7206,WL,B,10.0
1,20.759000062942505,learn,39240.999937057495,Thu Aug 28 2025 10:34:49 GMT-0500 (Central Daylight Time),195624.40000009537,A,pup,O,p,210,1,2666.2000000476837,192958.20000004768,7206,WL,B,10.0
1,20.99400019645691,learn,39005.99980354309,Thu Aug 28 2025 10:34:49 GMT-0500 (Central Daylight Time),195859.20000004768,A,pupi,O,i,218,1,2901.0,192958.20000004768,7206,WL,B,10.0
1,21.20900011062622,learn,38790.99988937378,Thu Aug 28 2025 10:34:49 GMT-0500 (Central Daylight Time),196073.90000009537,A,pupil,O,l,194,1,3115.7000000476837,192958.20000004768,7206,WL,B,10.0
1,21.509000062942505,learn,38490.999937057495,Thu Aug 28 2025 10:34:49 GMT-0500 (Central Daylight Time),196374.0,A,pupilenter,O,enter,281,1,3415.7999999523163,192958.20000004768,7206,WL,B,10.0
1,22.87600016593933,learn,37123.99983406067,Thu Aug 28 2025 10:34:49 GMT-0500 (Central Daylight Time),197740.80000019073,A,w,O,w,1348,1,1366.5,196374.30000019073,7206,WL,B,11.0
1,22.957000017166138,learn,37042.99998283386,Thu Aug 28 2025 10:34:49 GMT-0500 (Central Daylight Time),197822.30000019073,A,wi,O,i,61,1,1448.0,196374.30000019073,7206,WL,B,11.0
1,23.10800004005432,learn,36891.99995994568,Thu Aug 28 2025 10:34:49 GMT-0500 (Central Daylight Time),197972.80000019073,A,wif,O,f,137,1,1598.5,196374.30000019073,7206,WL,B,11.0
1,23.29100012779236,learn,36708.99987220764,Thu Aug 28 2025 10:34:49 GMT-0500 (Central Daylight Time),198156.0,A,wife,O,e,171,1,1781.6999998092651,196374.30000019073,7206,WL,B,11.0
1,23.442000150680542,learn,36557.99984931946,Thu Aug 28 2025 10:34:49 GMT-0500 (Central Daylight Time),198306.80000019073,A,wifeenter,O,enter,135,1,1932.5,196374.30000019073,7206,WL,B,11.0
1,32.97200012207031,learn,27027.999877929688,Thu Aug 28 2025 10:34:49 GMT-0500 (Central Daylight Time),207836.90000009537,A,g,O,g,9511,1,9529.799999952316,198307.10000014305,7206,WL,B,12.0
1,33.2720000743866,learn,26727.999925613403,Thu Aug 28 2025 10:34:49 GMT-0500 (Central Daylight Time),208137.60000014305,A,gr,O,r,290,1,9830.5,198307.10000014305,7206,WL,B,12.0
1,33.48699998855591,learn,26513.00001144409,Thu Aug 28 2025 10:34:49 GMT-0500 (Central Daylight Time),208352.40000009537,A,gra,O,a,200,1,10045.299999952316,198307.10000014305,7206,WL,B,12.0
1,33.855000019073486,learn,26144.999980926514,Thu Aug 28 2025 10:34:49 GMT-0500 (Central Daylight Time),208720.0,A,gras,O,s,356,1,10412.899999856949,198307.10000014305,7206,WL,B,12.0
1,34.00600004196167,learn,25993.99995803833,Thu Aug 28 2025 10:34:49 GMT-0500 (Central Daylight Time),208871.30000019073,A,grass,O,s,145,1,10564.200000047684,198307.10000014305,7206,WL,B,12.0
1,34.68900012969971,learn,25310.999870300293,Thu Aug 28 2025 10:34:49 GMT-0500 (Central Daylight Time),209553.70000004768,A,grassenter,O,enter,677,1,11246.599999904633,198307.10000014305,7206,WL,B,12.0
1,41.90300011634827,learn,18096.999883651733,Thu Aug 28 2025 10:34:49 GMT-0500 (Central Daylight Time),216768.30000019073,A,enter,O,enter,7200,1,7214.300000190735,209554.0,7206,WL,B,13.0
1,55.4300000667572,learn,4569.999933242798,Thu Aug 28 2025 10:34:49 GMT-0500 (Central Daylight Time),230294.70000004768,A,enter,O,enter,13513,1,13526.099999904633,216768.60000014305,7206,WL,B,14.0
1,60.01200008392334,learn,-12.000083923339844,Thu Aug 28 2025 10:34:49 GMT-0500 (Central Daylight Time),234877.40000009537,A,None,O,None,4577,1,4582.400000095367,230295.0,7206,WL,B,15.0
2,2.2330000400543213,learn,57766.99995994568,Thu Aug 28 2025 10:34:49 GMT-0500 (Central Daylight Time),311554.5,A,s,O,s,2209,1,2232.699999809265,309321.80000019073,7206,WL,B,1.0
2,2.315000057220459,learn,57684.99994277954,Thu Aug 28 2025 10:34:49 GMT-0500 (Central Daylight Time),311636.10000014305,A,sk,O,k,68,1,2314.2999999523163,309321.80000019073,7206,WL,B,1.0
2,2.5830001831054688,learn,57416.99981689453,Thu Aug 28 2025 10:34:49 GMT-0500 (Central Daylight Time),311904.30000019073,A,ski,O,i,246,1,2582.5,309321.80000019073,7206,WL,B,1.0
2,2.7820000648498535,learn,57217.99993515015,Thu Aug 28 2025 10:34:49 GMT-0500 (Central Daylight Time),312102.90000009537,A,skin,O,n,186,1,2781.0999999046326,309321.80000019073,7206,WL,B,1.0
2,3.017000198364258,learn,56982.99980163574,Thu Aug 28 2025 10:34:49 GMT-0500 (Central Daylight Time),312338.10000014305,A,skinenter,O,enter,231,1,3016.2999999523163,309321.80000019073,7206,WL,B,1.0
2,3.367000102996826,learn,56632.999897003174,Thu Aug 28 2025 10:34:49 GMT-0500 (Central Daylight Time),312687.80000019073,A,a,O,a,343,1,349.40000009536743,312338.40000009537,7206,WL,B,2.0
2,3.499000072479248,learn,56500.99992752075,Thu Aug 28 2025 10:34:49 GMT-0500 (Central Daylight Time),312819.90000009537,A,ar,O,r,117,1,481.5,312338.40000009537,7206,WL,B,2.0
2,3.7150001525878906,learn,56284.99984741211,Thu Aug 28 2025 10:34:49 GMT-0500 (Central Daylight Time),313036.2000000477,A,arm,O,m,208,1,697.7999999523163,312338.40000009537,7206,WL,B,2.0
2,3.999000072479248,learn,56000.99992752075,Thu Aug 28 2025 10:34:49 GMT-0500 (Central Daylight Time),313319.80000019073,A,armenter,O,enter,270,1,981.4000000953674,312338.40000009537,7206,WL,B,2.0
2,4.814000129699707,learn,55185.99987030029,Thu Aug 28 2025 10:34:49 GMT-0500 (Central Daylight Time),314135.30000019073,A,f,O,f,795,1,815.2000000476837,313320.10000014305,7206,WL,B,3.0
2,4.948000192642212,learn,55051.99980735779,Thu Aug 28 2025 10:34:49 GMT-0500 (Central Daylight Time),314269.2000000477,A,fi,O,i,124,1,949.0999999046326,313320.10000014305,7206,WL,B,3.0
2,5.065999984741211,learn,54934.00001525879,Thu Aug 28 2025 10:34:49 GMT-0500 (Central Daylight Time),314387.10000014305,A,fir,O,r,102,1,1067.0,313320.10000014305,7206,WL,B,3.0
2,5.199000120162964,learn,54800.999879837036,Thu Aug 28 2025 10:34:49 GMT-0500 (Central Daylight Time),314520.0,A,fire,O,e,112,1,1199.8999998569489,313320.10000014305,7206,WL,B,3.0
2,5.382000207901001,learn,54617.999792099,Thu Aug 28 2025 10:34:49 GMT-0500 (Central Daylight Time),314703.2000000477,A,fireenter,O,enter,162,1,1383.0999999046326,313320.10000014305,7206,WL,B,3.0
2,5.79800009727478,learn,54201.99990272522,Thu Aug 28 2025 10:34:49 GMT-0500 (Central Daylight Time),315118.80000019073,A,c,O,c,395,1,415.40000009536743,314703.40000009537,7206,WL,B,4.0
2,5.916000127792358,learn,54083.99987220764,Thu Aug 28 2025 10:34:49 GMT-0500 (Central Daylight Time),315236.90000009537,A,ci,O,i,98,1,533.5,314703.40000009537,7206,WL,B,4.0
2,6.049000024795532,learn,53950.99997520447,Thu Aug 28 2025 10:34:49 GMT-0500 (Central Daylight Time),315369.7000000477,A,cit,O,t,117,1,666.2999999523163,314703.40000009537,7206,WL,B,4.0
2,6.199000120162964,learn,53800.999879837036,Thu Aug 28 2025 10:34:49 GMT-0500 (Central Daylight Time),315520.30000019073,A,city,O,y,128,1,816.9000000953674,314703.40000009537,7206,WL,B,4.0
2,6.449000120162964,learn,53550.999879837036,Thu Aug 28 2025 10:34:49 GMT-0500 (Central Daylight Time),315770.30000019073,A,cityenter,O,enter,228,1,1066.9000000953674,314703.40000009537,7206,WL,B,4.0
2,6.799000024795532,learn,53200.99997520447,Thu Aug 28 2025 10:34:49 GMT-0500 (Central Daylight Time),316119.90000009537,A,s,O,s,336,1,349.09999990463257,315770.80000019073,7206,WL,B,5.0
2,6.965000152587891,learn,53034.99984741211,Thu Aug 28 2025 10:34:49 GMT-0500 (Central Daylight Time),316285.80000019073,A,st,O,t,147,1,515.0,315770.80000019073,7206,WL,B,5.0
2,7.164000034332275,learn,52835.999965667725,Thu Aug 28 2025 10:34:49 GMT-0500 (Central Daylight Time),316485.60000014305,A,sta,O,a,188,1,714.7999999523163,315770.80000019073,7206,WL,B,5.0
2,7.281000137329102,learn,52718.9998626709,Thu Aug 28 2025 10:34:49 GMT-0500 (Central Daylight Time),316602.30000019073,A,star,O,r,100,1,831.5,315770.80000019073,7206,WL,B,5.0
2,7.71399998664856,learn,52286.00001335144,Thu Aug 28 2025 10:34:49 GMT-0500 (Central Daylight Time),317035.30000019073,A,starenter,O,enter,414,1,1264.5,315770.80000019073,7206,WL,B,5.0
2,8.031000137329102,learn,51968.9998626709,Thu Aug 28 2025 10:34:49 GMT-0500 (Central Daylight Time),317352.40000009537,A,s,O,s,297,1,316.7999999523163,317035.60000014305,7206,WL,B,6.0
2,8.19700002670288,learn,51802.99997329712,Thu Aug 28 2025 10:34:49 GMT-0500 (Central Daylight Time),317518.60000014305,A,st,O,t,155,1,483.0,317035.60000014305,7206,WL,B,6.0
2,8.46399998664856,learn,51536.00001335144,Thu Aug 28 2025 10:34:49 GMT-0500 (Central Daylight Time),317785.40000009537,A,str,O,r,252,1,749.7999999523163,317035.60000014305,7206,WL,B,6.0
2,8.564000129699707,learn,51435.99987030029,Thu Aug 28 2025 10:34:49 GMT-0500 (Central Daylight Time),317885.2000000477,A,stre,O,e,80,1,849.5999999046326,317035.60000014305,7206,WL,B,6.0
2,8.797000169754028,learn,51202.99983024597,Thu Aug 28 2025 10:34:49 GMT-0500 (Central Daylight Time),318118.5,A,stree,O,e,219,1,1082.8999998569489,317035.60000014305,7206,WL,B,6.0
2,8.981000185012817,learn,51018.99981498718,Thu Aug 28 2025 10:34:49 GMT-0500 (Central Daylight Time),318302.0,A,street,O,t,170,1,1266.3999998569489,317035.60000014305,7206,WL,B,6.0
2,9.147000074386597,learn,50852.9999256134,Thu Aug 28 2025 10:34:49 GMT-0500 (Central Daylight Time),318468.30000019073,A,streetenter,O,enter,155,1,1432.7000000476837,317035.60000014305,7206,WL,B,6.0
2,9.379000186920166,learn,50620.999813079834,Thu Aug 28 2025 10:34:49 GMT-0500 (Central Daylight Time),318700.30000019073,A,g,O,g,213,1,231.80000019073486,318468.5,7206,WL,B,7.0
2,9.632000207901001,learn,50367.999792099,Thu Aug 28 2025 10:34:49 GMT-0500 (Central Daylight Time),318953.30000019073,A,gr,O,r,230,1,484.80000019073486,318468.5,7206,WL,B,7.0
2,9.746000051498413,learn,50253.99994850159,Thu Aug 28 2025 10:34:49 GMT-0500 (Central Daylight Time),319067.0,A,gra,O,a,103,1,598.5,318468.5,7206,WL,B,7.0
2,10.047000169754028,learn,49952.99983024597,Thu Aug 28 2025 10:34:49 GMT-0500 (Central Daylight Time),319368.30000019073,A,gras,O,s,286,1,899.8000001907349,318468.5,7206,WL,B,7.0
2,10.21399998664856,learn,49786.00001335144,Thu Aug 28 2025 10:34:49 GMT-0500 (Central Daylight Time),319535.5,A,grass,O,s,147,1,1067.0,318468.5,7206,WL,B,7.0
2,10.397000074386597,learn,49602.9999256134,Thu Aug 28 2025 10:34:49 GMT-0500 (Central Daylight Time),319717.80000019073,A,grassenter,O,enter,162,1,1249.3000001907349,318468.5,7206,WL,B,7.0
2,10.69700002670288,learn,49302.99997329712,Thu Aug 28 2025 10:34:49 GMT-0500 (Central Daylight Time),320018.30000019073,A,d,O,d,280,1,300.2000000476837,319718.10000014305,7206,WL,B,8.0
2,10.84500002861023,learn,49154.99997138977,Thu Aug 28 2025 10:34:49 GMT-0500 (Central Daylight Time),320166.60000014305,A,do,O,o,135,1,448.5,319718.10000014305,7206,WL,B,8.0
2,11.04800009727478,learn,48951.99990272522,Thu Aug 28 2025 10:34:49 GMT-0500 (Central Daylight Time),320368.80000019073,A,doo,O,o,188,1,650.7000000476837,319718.10000014305,7206,WL,B,8.0
2,11.130000114440918,learn,48869.99988555908,Thu Aug 28 2025 10:34:49 GMT-0500 (Central Daylight Time),320450.90000009537,A,door,O,r,65,1,732.7999999523163,319718.10000014305,7206,WL,B,8.0
2,11.912000179290771,learn,48087.99982070923,Thu Aug 28 2025 10:34:49 GMT-0500 (Central Daylight Time),321232.80000019073,A,doorenter,O,enter,765,1,1514.7000000476837,319718.10000014305,7206,WL,B,8.0
2,12.34500002861023,learn,47654.99997138977,Thu Aug 28 2025 10:34:49 GMT-0500 (Central Daylight Time),321666.60000014305,A,w,O,w,425,1,433.5,321233.10000014305,7206,WL,B,9.0
2,12.462000131607056,learn,47537.999868392944,Thu Aug 28 2025 10:34:49 GMT-0500 (Central Daylight Time),321783.5,A,wi,O,i,103,1,550.3999998569489,321233.10000014305,7206,WL,B,9.0
2,14.045000076293945,learn,45954.999923706055,Thu Aug 28 2025 10:34:49 GMT-0500 (Central Daylight Time),323366.10000014305,A,win,O,n,1561,1,2133.0,321233.10000014305,7206,WL,B,9.0
2,14.361999988555908,learn,45638.00001144409,Thu Aug 28 2025 10:34:49 GMT-0500 (Central Daylight Time),323683.10000014305,A,wind,O,d,301,1,2450.0,321233.10000014305,7206,WL,B,9.0
2,14.479000091552734,learn,45520.999908447266,Thu Aug 28 2025 10:34:49 GMT-0500 (Central Daylight Time),323800.40000009537,A,windo,O,o,102,1,2567.2999999523163,321233.10000014305,7206,WL,B,9.0
2,14.644999980926514,learn,45355.000019073486,Thu Aug 28 2025 10:34:49 GMT-0500 (Central Daylight Time),323966.40000009537,A,window,O,w,153,1,2733.2999999523163,321233.10000014305,7206,WL,B,9.0
2,15.529000043869019,learn,44470.99995613098,Thu Aug 28 2025 10:34:49 GMT-0500 (Central Daylight Time),324850.0,A,windowenter,O,enter,877,1,3616.899999856949,321233.10000014305,7206,WL,B,9.0
2,15.961000204086304,learn,44038.999795913696,Thu Aug 28 2025 10:34:49 GMT-0500 (Central Daylight Time),325282.5,A,a,O,a,417,1,432.2999999523163,324850.2000000477,7206,WL,B,10.0
2,16.042999982833862,learn,43957.00001716614,Thu Aug 28 2025 10:34:49 GMT-0500 (Central Daylight Time),325364.5,A,ar,O,r,71,1,514.2999999523163,324850.2000000477,7206,WL,B,10.0
2,16.17799997329712,learn,43822.00002670288,Thu Aug 28 2025 10:34:49 GMT-0500 (Central Daylight Time),325499.40000009537,A,arm,O,m,130,1,649.2000000476837,324850.2000000477,7206,WL,B,10.0
2,16.444000005722046,learn,43555.999994277954,Thu Aug 28 2025 10:34:49 GMT-0500 (Central Daylight Time),325764.90000009537,A,armenter,O,enter,255,1,914.7000000476837,324850.2000000477,7206,WL,B,10.0
2,18.194000005722046,learn,41805.999994277954,Thu Aug 28 2025 10:34:49 GMT-0500 (Central Daylight Time),327515.40000009537,A,s,O,s,1733,1,1750.2000000476837,325765.2000000477,7206,WL,B,11.0
2,18.39400005340576,learn,41605.99994659424,Thu Aug 28 2025 10:34:49 GMT-0500 (Central Daylight Time),327715.40000009537,A,st,O,t,190,1,1950.2000000476837,325765.2000000477,7206,WL,B,11.0
2,18.64400005340576,learn,41355.99994659424,Thu Aug 28 2025 10:34:49 GMT-0500 (Central Daylight Time),327965.40000009537,A,sta,O,a,230,1,2200.2000000476837,325765.2000000477,7206,WL,B,11.0
2,18.710000038146973,learn,41289.99996185303,Thu Aug 28 2025 10:34:49 GMT-0500 (Central Daylight Time),328031.2000000477,A,star,O,r,59,1,2266.0,325765.2000000477,7206,WL,B,11.0
2,18.979000091552734,learn,41020.999908447266,Thu Aug 28 2025 10:34:49 GMT-0500 (Central Daylight Time),328299.80000019073,A,starenter,O,enter,245,1,2534.600000143051,325765.2000000477,7206,WL,B,11.0
2,20.294000148773193,learn,39705.99985122681,Thu Aug 28 2025 10:34:49 GMT-0500 (Central Daylight Time),329615.5,A,d,O,d,1295,1,1315.3999998569489,328300.10000014305,7206,WL,B,12.0
2,20.561000108718872,learn,39438.99989128113,Thu Aug 28 2025 10:34:49 GMT-0500 (Central Daylight Time),329882.0,A,dc,O,c,250,1,1581.8999998569489,328300.10000014305,7206,WL,B,12.0
2,21.142000198364258,learn,38857.99980163574,Thu Aug 28 2025 10:34:49 GMT-0500 (Central Daylight Time),330463.2000000477,A,d,O,backspace,576,1,2163.0999999046326,328300.10000014305,7206,WL,B,12.0
2,21.3270001411438,learn,38672.9998588562,Thu Aug 28 2025 10:34:49 GMT-0500 (Central Daylight Time),330648.40000009537,A,,O,backspace,166,1,2348.2999999523163,328300.10000014305,7206,WL,B,12.0
2,21.41000008583069,learn,38589.99991416931,Thu Aug 28 2025 10:34:49 GMT-0500 (Central Daylight Time),330730.80000019073,A,c,O,c,64,1,2430.7000000476837,328300.10000014305,7206,WL,B,12.0
2,21.610000133514404,learn,38389.999866485596,Thu Aug 28 2025 10:34:49 GMT-0500 (Central Daylight Time),330931.30000019073,A,ca,O,a,194,1,2631.2000000476837,328300.10000014305,7206,WL,B,12.0
2,21.825999975204468,learn,38174.00002479553,Thu Aug 28 2025 10:34:49 GMT-0500 (Central Daylight Time),331146.80000019073,A,cab,O,b,205,1,2846.7000000476837,328300.10000014305,7206,WL,B,12.0
2,21.993000030517578,learn,38006.99996948242,Thu Aug 28 2025 10:34:49 GMT-0500 (Central Daylight Time),331314.40000009537,A,cabi,O,i,162,1,3014.2999999523163,328300.10000014305,7206,WL,B,12.0
2,22.211000204086304,learn,37788.999795913696,Thu Aug 28 2025 10:34:49 GMT-0500 (Central Daylight Time),331532.0,A,cabin,O,n,208,1,3231.899999856949,328300.10000014305,7206,WL,B,12.0
2,22.427000045776367,learn,37572.99995422363,Thu Aug 28 2025 10:34:49 GMT-0500 (Central Daylight Time),331748.10000014305,A,cabinenter,O,enter,207,1,3448.0,328300.10000014305,7206,WL,B,12.0
2,23.09500002861023,learn,36904.99997138977,Thu Aug 28 2025 10:34:49 GMT-0500 (Central Daylight Time),332416.10000014305,A,l,O,l,654,1,667.7000000476837,331748.40000009537,7206,WL,B,13.0
2,23.16000008583069,learn,36839.99991416931,Thu Aug 28 2025 10:34:49 GMT-0500 (Central Daylight Time),332480.80000019073,A,la,O,a,61,1,732.4000000953674,331748.40000009537,7206,WL,B,13.0
2,23.377000093460083,learn,36622.99990653992,Thu Aug 28 2025 10:34:49 GMT-0500 (Central Daylight Time),332697.80000019073,A,lak,O,k,192,1,949.4000000953674,331748.40000009537,7206,WL,B,13.0
2,23.475000143051147,learn,36524.99985694885,Thu Aug 28 2025 10:34:49 GMT-0500 (Central Daylight Time),332796.2000000477,A,lake,O,e,86,1,1047.7999999523163,331748.40000009537,7206,WL,B,13.0
2,23.692000150680542,learn,36307.99984931946,Thu Aug 28 2025 10:34:49 GMT-0500 (Central Daylight Time),333013.10000014305,A,lakeenter,O,enter,208,1,1264.7000000476837,331748.40000009537,7206,WL,B,13.0
2,25.142000198364258,learn,34857.99980163574,Thu Aug 28 2025 10:34:49 GMT-0500 (Central Daylight Time),334463.2000000477,A,f,O,f,1439,1,1449.7999999523163,333013.40000009537,7206,WL,B,14.0
2,25.257000207901,learn,34742.999792099,Thu Aug 28 2025 10:34:49 GMT-0500 (Central Daylight Time),334578.60000014305,A,fi,O,i,107,1,1565.2000000476837,333013.40000009537,7206,WL,B,14.0
2,25.409000158309937,learn,34590.99984169006,Thu Aug 28 2025 10:34:49 GMT-0500 (Central Daylight Time),334730.10000014305,A,fir,O,r,132,1,1716.7000000476837,333013.40000009537,7206,WL,B,14.0
2,25.508000135421753,learn,34491.99986457825,Thu Aug 28 2025 10:34:49 GMT-0500 (Central Daylight Time),334829.30000019073,A,fire,O,e,77,1,1815.9000000953674,333013.40000009537,7206,WL,B,14.0
2,25.69099998474121,learn,34309.00001525879,Thu Aug 28 2025 10:34:49 GMT-0500 (Central Daylight Time),335012.30000019073,A,fireenter,O,enter,171,1,1998.9000000953674,333013.40000009537,7206,WL,B,14.0
2,27.891000032424927,learn,32108.999967575073,Thu Aug 28 2025 10:34:49 GMT-0500 (Central Daylight Time),337212.5,A,w,O,w,2180,1,2200.0,335012.5,7206,WL,B,15.0
2,27.990000009536743,learn,32009.999990463257,Thu Aug 28 2025 10:34:49 GMT-0500 (Central Daylight Time),337311.5,A,wi,O,i,77,1,2299.0,335012.5,7206,WL,B,15.0
2,28.157999992370605,learn,31842.000007629395,Thu Aug 28 2025 10:34:49 GMT-0500 (Central Daylight Time),337478.90000009537,A,wif,O,f,147,1,2466.4000000953674,335012.5,7206,WL,B,15.0
2,28.323000192642212,learn,31676.999807357788,Thu Aug 28 2025 10:34:49 GMT-0500 (Central Daylight Time),337644.30000019073,A,wife,O,e,143,1,2631.800000190735,335012.5,7206,WL,B,15.0
2,28.706000089645386,learn,31293.999910354614,Thu Aug 28 2025 10:34:49 GMT-0500 (Central Daylight Time),338026.90000009537,A,wifeenter,O,enter,367,1,3014.4000000953674,335012.5,7206,WL,B,15.0
3,0.8499999046325684,learn,59150.00009536743,Thu Aug 28 2025 10:34:49 GMT-0500 (Central Daylight Time),408172.60000014305,A,p,O,p,837,1,848.7999999523163,407323.80000019073,7206,WL,B,1.0
3,1.066999912261963,learn,58933.00008773804,Thu Aug 28 2025 10:34:49 GMT-0500 (Central Daylight Time),408390.40000009537,A,pi,O,i,199,1,1066.5999999046326,407323.80000019073,7206,WL,B,1.0
3,1.2669999599456787,learn,58733.00004005432,Thu Aug 28 2025 10:34:49 GMT-0500 (Central Daylight Time),408590.40000009537,A,pip,O,p,187,1,1266.5999999046326,407323.80000019073,7206,WL,B,1.0
3,1.4659998416900635,learn,58534.00015830994,Thu Aug 28 2025 10:34:49 GMT-0500 (Central Daylight Time),408789.40000009537,A,pipe,O,e,187,1,1465.5999999046326,407323.80000019073,7206,WL,B,1.0
3,1.684999942779541,learn,58315.00005722046,Thu Aug 28 2025 10:34:49 GMT-0500 (Central Daylight Time),409007.7000000477,A,pipeenter,O,enter,211,1,1683.8999998569489,407323.80000019073,7206,WL,B,1.0
3,2.0999999046325684,learn,57900.00009536743,Thu Aug 28 2025 10:34:49 GMT-0500 (Central Daylight Time),409422.7000000477,A,f,O,f,395,1,414.7999999523163,409007.90000009537,7206,WL,B,2.0
3,2.2159998416900635,learn,57784.00015830994,Thu Aug 28 2025 10:34:49 GMT-0500 (Central Daylight Time),409539.30000019073,A,fi,O,i,96,1,531.4000000953674,409007.90000009537,7206,WL,B,2.0
3,2.3499999046325684,learn,57650.00009536743,Thu Aug 28 2025 10:34:49 GMT-0500 (Central Daylight Time),409673.10000014305,A,fir,O,r,127,1,665.2000000476837,409007.90000009537,7206,WL,B,2.0
3,2.4489998817443848,learn,57551.000118255615,Thu Aug 28 2025 10:34:49 GMT-0500 (Central Daylight Time),409772.10000014305,A,fire,O,e,88,1,764.2000000476837,409007.90000009537,7206,WL,B,2.0
3,2.6649999618530273,learn,57335.00003814697,Thu Aug 28 2025 10:34:49 GMT-0500 (Central Daylight Time),409988.5,A,fireenter,O,enter,206,1,980.5999999046326,409007.90000009537,7206,WL,B,2.0
3,3.0809998512268066,learn,56919.00014877319,Thu Aug 28 2025 10:34:49 GMT-0500 (Central Daylight Time),410403.7000000477,A,c,O,c,404,1,414.7999999523163,409988.90000009537,7206,WL,B,3.0
3,3.197000026702881,learn,56802.99997329712,Thu Aug 28 2025 10:34:49 GMT-0500 (Central Daylight Time),410520.10000014305,A,cl,O,l,103,1,531.2000000476837,409988.90000009537,7206,WL,B,3.0
3,3.3989999294281006,learn,56601.0000705719,Thu Aug 28 2025 10:34:49 GMT-0500 (Central Daylight Time),410721.90000009537,A,clo,O,o,188,1,733.0,409988.90000009537,7206,WL,B,3.0
3,3.547999858856201,learn,56452.0001411438,Thu Aug 28 2025 10:34:49 GMT-0500 (Central Daylight Time),410871.2000000477,A,cloc,O,c,142,1,882.2999999523163,409988.90000009537,7206,WL,B,3.0
3,3.681999921798706,learn,56318.000078201294,Thu Aug 28 2025 10:34:49 GMT-0500 (Central Daylight Time),411004.80000019073,A,clock,O,k,123,1,1015.9000000953674,409988.90000009537,7206,WL,B,3.0
3,3.9010000228881836,learn,56098.99997711182,Thu Aug 28 2025 10:34:49 GMT-0500 (Central Daylight Time),411223.7000000477,A,clockenter,O,enter,212,1,1234.7999999523163,409988.90000009537,7206,WL,B,3.0
3,4.2149999141693115,learn,55785.00008583069,Thu Aug 28 2025 10:34:49 GMT-0500 (Central Daylight Time),411537.90000009537,A,s,O,s,293,1,313.90000009536743,411224.0,7206,WL,B,4.0
3,4.381999969482422,learn,55618.00003051758,Thu Aug 28 2025 10:34:49 GMT-0500 (Central Daylight Time),411705.10000014305,A,st,O,t,152,1,481.10000014305115,411224.0,7206,WL,B,4.0
3,4.615999937057495,learn,55384.000062942505,Thu Aug 28 2025 10:34:49 GMT-0500 (Central Daylight Time),411938.7000000477,A,str,O,r,217,1,714.7000000476837,411224.0,7206,WL,B,4.0
3,4.681999921798706,learn,55318.000078201294,Thu Aug 28 2025 10:34:49 GMT-0500 (Central Daylight Time),412005.10000014305,A,stre,O,e,44,1,781.1000001430511,411224.0,7206,WL,B,4.0
3,4.882999897003174,learn,55117.000102996826,Thu Aug 28 2025 10:34:49 GMT-0500 (Central Daylight Time),412206.10000014305,A,stree,O,e,189,1,982.1000001430511,411224.0,7206,WL,B,4.0
3,5.031999826431274,learn,54968.000173568726,Thu Aug 28 2025 10:34:49 GMT-0500 (Central Daylight Time),412355.10000014305,A,street,O,t,143,1,1131.1000001430511,411224.0,7206,WL,B,4.0
3,5.197999954223633,learn,54802.00004577637,Thu Aug 28 2025 10:34:49 GMT-0500 (Central Daylight Time),412521.10000014305,A,streetenter,O,enter,150,1,1297.1000001430511,411224.0,7206,WL,B,4.0
3,5.4659998416900635,learn,54534.00015830994,Thu Aug 28 2025 10:34:49 GMT-0500 (Central Daylight Time),412789.0,A,g,O,g,257,1,267.59999990463257,412521.40000009537,7206,WL,B,5.0
3,5.832000017166138,learn,54167.99998283386,Thu Aug 28 2025 10:34:49 GMT-0500 (Central Daylight Time),413155.30000019073,A,ga,O,a,351,1,633.9000000953674,412521.40000009537,7206,WL,B,5.0
3,6.297999858856201,learn,53702.0001411438,Thu Aug 28 2025 10:34:49 GMT-0500 (Central Daylight Time),413621.30000019073,A,g,O,backspace,444,1,1099.9000000953674,412521.40000009537,7206,WL,B,5.0
3,6.447999954223633,learn,53552.00004577637,Thu Aug 28 2025 10:34:49 GMT-0500 (Central Daylight Time),413771.5,A,gr,O,r,133,1,1250.0999999046326,412521.40000009537,7206,WL,B,5.0
3,6.698999881744385,learn,53301.000118255615,Thu Aug 28 2025 10:34:49 GMT-0500 (Central Daylight Time),414021.90000009537,A,gra,O,a,229,1,1500.5,412521.40000009537,7206,WL,B,5.0
3,6.931999921798706,learn,53068.000078201294,Thu Aug 28 2025 10:34:49 GMT-0500 (Central Daylight Time),414255.0,A,gras,O,s,212,1,1733.5999999046326,412521.40000009537,7206,WL,B,5.0
3,7.132999897003174,learn,52867.000102996826,Thu Aug 28 2025 10:34:49 GMT-0500 (Central Daylight Time),414456.10000014305,A,grass,O,s,187,1,1934.7000000476837,412521.40000009537,7206,WL,B,5.0
3,8.596999883651733,learn,51403.00011634827,Thu Aug 28 2025 10:34:49 GMT-0500 (Central Daylight Time),415920.0,A,grassenter,O,enter,1452,1,3398.5999999046326,412521.40000009537,7206,WL,B,5.0
3,9.19700002670288,learn,50802.99997329712,Thu Aug 28 2025 10:34:49 GMT-0500 (Central Daylight Time),416519.90000009537,A,d,O,d,589,1,599.5999999046326,415920.30000019073,7206,WL,B,6.0
3,9.330999851226807,learn,50669.00014877319,Thu Aug 28 2025 10:34:49 GMT-0500 (Central Daylight Time),416653.7000000477,A,do,O,o,115,1,733.3999998569489,415920.30000019073,7206,WL,B,6.0
3,9.54699993133545,learn,50453.00006866455,Thu Aug 28 2025 10:34:49 GMT-0500 (Central Daylight Time),416870.40000009537,A,doo,O,o,203,1,950.0999999046326,415920.30000019073,7206,WL,B,6.0
3,9.645999908447266,learn,50354.000091552734,Thu Aug 28 2025 10:34:49 GMT-0500 (Central Daylight Time),416969.0,A,door,O,r,91,1,1048.6999998092651,415920.30000019073,7206,WL,B,6.0
3,9.813999891281128,learn,50186.00010871887,Thu Aug 28 2025 10:34:49 GMT-0500 (Central Daylight Time),417136.80000019073,A,doorenter,O,enter,164,1,1216.5,415920.30000019073,7206,WL,B,6.0
3,10.13100004196167,learn,49868.99995803833,Thu Aug 28 2025 10:34:49 GMT-0500 (Central Daylight Time),417454.2000000477,A,w,O,w,307,1,317.09999990463257,417137.10000014305,7206,WL,B,7.0
3,10.246999979019165,learn,49753.000020980835,Thu Aug 28 2025 10:34:49 GMT-0500 (Central Daylight Time),417569.90000009537,A,wi,O,i,110,1,432.7999999523163,417137.10000014305,7206,WL,B,7.0
3,10.579999923706055,learn,49420.000076293945,Thu Aug 28 2025 10:34:49 GMT-0500 (Central Daylight Time),417904.0,A,wid,O,d,311,1,766.8999998569489,417137.10000014305,7206,WL,B,7.0
3,10.980000019073486,learn,49019.999980926514,Thu Aug 28 2025 10:34:49 GMT-0500 (Central Daylight Time),418303.80000019073,A,wi,O,backspace,386,1,1166.7000000476837,417137.10000014305,7206,WL,B,7.0
3,11.312999963760376,learn,48687.000036239624,Thu Aug 28 2025 10:34:49 GMT-0500 (Central Daylight Time),418637.0,A,win,O,n,314,1,1499.8999998569489,417137.10000014305,7206,WL,B,7.0
3,12.129999876022339,learn,47870.00012397766,Thu Aug 28 2025 10:34:49 GMT-0500 (Central Daylight Time),419453.60000014305,A,wind,O,d,806,1,2316.5,417137.10000014305,7206,WL,B,7.0
3,12.26199984550476,learn,47738.00015449524,Thu Aug 28 2025 10:34:49 GMT-0500 (Central Daylight Time),419586.5,A,windo,O,o,111,1,2449.399999856949,417137.10000014305,7206,WL,B,7.0
3,12.412999868392944,learn,47587.000131607056,Thu Aug 28 2025 10:34:49 GMT-0500 (Central Daylight Time),419736.90000009537,A,window,O,w,143,1,2599.7999999523163,417137.10000014305,7206,WL,B,7.0
3,12.595999956130981,learn,47404.00004386902,Thu Aug 28 2025 10:34:49 GMT-0500 (Central Daylight Time),419919.80000019073,A,windowenter,O,enter,167,1,2782.7000000476837,417137.10000014305,7206,WL,B,7.0
3,13.144999980926514,learn,46855.000019073486,Thu Aug 28 2025 10:34:49 GMT-0500 (Central Daylight Time),420468.7000000477,A,c,O,c,540,1,548.7000000476837,419920.0,7206,WL,B,8.0
3,13.24399995803833,learn,46756.00004196167,Thu Aug 28 2025 10:34:49 GMT-0500 (Central Daylight Time),420568.2000000477,A,ci,O,i,84,1,648.2000000476837,419920.0,7206,WL,B,8.0
3,13.444000005722046,learn,46555.999994277954,Thu Aug 28 2025 10:34:49 GMT-0500 (Central Daylight Time),420768.60000014305,A,cit,O,t,187,1,848.6000001430511,419920.0,7206,WL,B,8.0
3,14.210999965667725,learn,45789.000034332275,Thu Aug 28 2025 10:34:49 GMT-0500 (Central Daylight Time),421535.40000009537,A,city,O,y,752,1,1615.4000000953674,419920.0,7206,WL,B,8.0
3,14.593999862670898,learn,45406.0001373291,Thu Aug 28 2025 10:34:49 GMT-0500 (Central Daylight Time),421918.0,A,cityenter,O,enter,363,1,1998.0,419920.0,7206,WL,B,8.0
3,14.861999988555908,learn,45138.00001144409,Thu Aug 28 2025 10:34:49 GMT-0500 (Central Daylight Time),422186.0,A,s,O,s,252,1,267.59999990463257,421918.40000009537,7206,WL,B,9.0
3,15.044999837875366,learn,44955.000162124634,Thu Aug 28 2025 10:34:49 GMT-0500 (Central Daylight Time),422368.90000009537,A,st,O,t,167,1,450.5,421918.40000009537,7206,WL,B,9.0
3,15.260999917984009,learn,44739.00008201599,Thu Aug 28 2025 10:34:49 GMT-0500 (Central Daylight Time),422585.2000000477,A,sta,O,a,201,1,666.7999999523163,421918.40000009537,7206,WL,B,9.0
3,15.378000020980835,learn,44621.999979019165,Thu Aug 28 2025 10:34:49 GMT-0500 (Central Daylight Time),422702.10000014305,A,star,O,r,96,1,783.7000000476837,421918.40000009537,7206,WL,B,9.0
3,15.741999864578247,learn,44258.00013542175,Thu Aug 28 2025 10:34:49 GMT-0500 (Central Daylight Time),423066.30000019073,A,starenter,O,enter,354,1,1147.9000000953674,421918.40000009537,7206,WL,B,9.0
3,17.110999822616577,learn,42889.00017738342,Thu Aug 28 2025 10:34:49 GMT-0500 (Central Daylight Time),424435.10000014305,A,k,O,k,1360,1,1368.6000001430511,423066.5,7206,WL,B,10.0
3,17.493000030517578,learn,42506.99996948242,Thu Aug 28 2025 10:34:49 GMT-0500 (Central Daylight Time),424817.5,A,,O,backspace,368,1,1751.0,423066.5,7206,WL,B,10.0
3,17.626999855041504,learn,42373.000144958496,Thu Aug 28 2025 10:34:49 GMT-0500 (Central Daylight Time),424950.7000000477,A,s,O,s,112,1,1884.2000000476837,423066.5,7206,WL,B,10.0
3,17.80900001525879,learn,42190.99998474121,Thu Aug 28 2025 10:34:49 GMT-0500 (Central Daylight Time),425133.5,A,sk,O,k,160,1,2067.0,423066.5,7206,WL,B,10.0
3,18.043999910354614,learn,41956.000089645386,Thu Aug 28 2025 10:34:49 GMT-0500 (Central Daylight Time),425367.80000019073,A,ski,O,i,212,1,2301.300000190735,423066.5,7206,WL,B,10.0
3,18.210999965667725,learn,41789.000034332275,Thu Aug 28 2025 10:34:49 GMT-0500 (Central Daylight Time),425534.80000019073,A,skin,O,n,143,1,2468.300000190735,423066.5,7206,WL,B,10.0
3,18.425999879837036,learn,41574.000120162964,Thu Aug 28 2025 10:34:49 GMT-0500 (Central Daylight Time),425749.7000000477,A,skinenter,O,enter,195,1,2683.2000000476837,423066.5,7206,WL,B,10.0
3,18.692999839782715,learn,41307.000160217285,Thu Aug 28 2025 10:34:49 GMT-0500 (Central Daylight Time),426017.40000009537,A,a,O,a,253,1,267.40000009536743,425750.0,7206,WL,B,11.0
3,18.824999809265137,learn,41175.00019073486,Thu Aug 28 2025 10:34:49 GMT-0500 (Central Daylight Time),426149.40000009537,A,ar,O,r,112,1,399.40000009536743,425750.0,7206,WL,B,11.0
3,18.993000030517578,learn,41006.99996948242,Thu Aug 28 2025 10:34:49 GMT-0500 (Central Daylight Time),426317.2000000477,A,arm,O,m,155,1,567.2000000476837,425750.0,7206,WL,B,11.0
3,19.20899987220764,learn,40791.00012779236,Thu Aug 28 2025 10:34:49 GMT-0500 (Central Daylight Time),426533.10000014305,A,armenter,O,enter,203,1,783.1000001430511,425750.0,7206,WL,B,11.0
3,19.526000022888184,learn,40473.99997711182,Thu Aug 28 2025 10:34:49 GMT-0500 (Central Daylight Time),426849.7000000477,A,p,O,p,310,1,316.5,426533.2000000477,7206,WL,B,12.0
3,19.743000030517578,learn,40256.99996948242,Thu Aug 28 2025 10:34:49 GMT-0500 (Central Daylight Time),427067.10000014305,A,pu,O,u,201,1,533.9000000953674,426533.2000000477,7206,WL,B,12.0
3,19.942999839782715,learn,40057.000160217285,Thu Aug 28 2025 10:34:49 GMT-0500 (Central Daylight Time),427266.80000019073,A,pup,O,p,183,1,733.6000001430511,426533.2000000477,7206,WL,B,12.0
3,20.157999992370605,learn,39842.000007629395,Thu Aug 28 2025 10:34:49 GMT-0500 (Central Daylight Time),427482.40000009537,A,pupi,O,i,207,1,949.2000000476837,426533.2000000477,7206,WL,B,12.0
3,20.358999967575073,learn,39641.00003242493,Thu Aug 28 2025 10:34:49 GMT-0500 (Central Daylight Time),427683.2000000477,A,pupil,O,l,185,1,1150.0,426533.2000000477,7206,WL,B,12.0
3,20.575999975204468,learn,39424.00002479553,Thu Aug 28 2025 10:34:49 GMT-0500 (Central Daylight Time),427899.7000000477,A,pupilenter,O,enter,206,1,1366.5,426533.2000000477,7206,WL,B,12.0
3,21.05999994277954,learn,38940.00005722046,Thu Aug 28 2025 10:34:49 GMT-0500 (Central Daylight Time),428383.7000000477,A,d,O,d,464,1,483.7000000476837,427900.0,7206,WL,B,13.0
3,21.174999952316284,learn,38825.000047683716,Thu Aug 28 2025 10:34:49 GMT-0500 (Central Daylight Time),428499.2000000477,A,do,O,o,106,1,599.2000000476837,427900.0,7206,WL,B,13.0
3,21.376999855041504,learn,38623.000144958496,Thu Aug 28 2025 10:34:49 GMT-0500 (Central Daylight Time),428701.0,A,doo,O,o,190,1,801.0,427900.0,7206,WL,B,13.0
3,21.45899987220764,learn,38541.00012779236,Thu Aug 28 2025 10:34:49 GMT-0500 (Central Daylight Time),428783.0,A,door,O,r,63,1,883.0,427900.0,7206,WL,B,13.0
3,21.625,learn,38375.0,Thu Aug 28 2025 10:34:49 GMT-0500 (Central Daylight Time),428949.30000019073,A,doorenter,O,enter,153,1,1049.3000001907349,427900.0,7206,WL,B,13.0
3,21.85800004005432,learn,38141.99995994568,Thu Aug 28 2025 10:34:49 GMT-0500 (Central Daylight Time),429182.5,A,w,O,w,212,1,232.89999985694885,428949.60000014305,7206,WL,B,14.0
3,21.95899987220764,learn,38041.00012779236,Thu Aug 28 2025 10:34:49 GMT-0500 (Central Daylight Time),429282.7000000477,A,wi,O,i,82,1,333.09999990463257,428949.60000014305,7206,WL,B,14.0
3,22.14199995994568,learn,37858.00004005432,Thu Aug 28 2025 10:34:49 GMT-0500 (Central Daylight Time),429465.60000014305,A,win,O,n,167,1,516.0,428949.60000014305,7206,WL,B,14.0
3,22.258999824523926,learn,37741.000175476074,Thu Aug 28 2025 10:34:49 GMT-0500 (Central Daylight Time),429582.80000019073,A,wind,O,d,96,1,633.2000000476837,428949.60000014305,7206,WL,B,14.0
3,23.024999856948853,learn,36975.00014305115,Thu Aug 28 2025 10:34:49 GMT-0500 (Central Daylight Time),430349.30000019073,A,windo,O,o,753,1,1399.7000000476837,428949.60000014305,7206,WL,B,14.0
3,23.139999866485596,learn,36860.000133514404,Thu Aug 28 2025 10:34:49 GMT-0500 (Central Daylight Time),430464.60000014305,A,window,O,w,107,1,1515.0,428949.60000014305,7206,WL,B,14.0
3,23.323999881744385,learn,36676.000118255615,Thu Aug 28 2025 10:34:49 GMT-0500 (Central Daylight Time),430648.5,A,windowenter,O,enter,178,1,1698.8999998569489,428949.60000014305,7206,WL,B,14.0
3,28.406999826431274,learn,31593.000173568726,Thu Aug 28 2025 10:34:49 GMT-0500 (Central Daylight Time),435731.0,A,f,O,f,5066,1,5082.199999809265,430648.80000019073,7206,WL,B,15.0
3,28.621999979019165,learn,31378.000020980835,Thu Aug 28 2025 10:34:49 GMT-0500 (Central Daylight Time),435946.2000000477,A,fi,O,i,198,1,5297.399999856949,430648.80000019073,7206,WL,B,15.0
3,29.42199993133545,learn,30578.00006866455,Thu Aug 28 2025 10:34:49 GMT-0500 (Central Daylight Time),436746.60000014305,A,fir,O,r,785,1,6097.799999952316,430648.80000019073,7206,WL,B,15.0
3,29.688999891281128,learn,30311.000108718872,Thu Aug 28 2025 10:34:49 GMT-0500 (Central Daylight Time),437013.5,A,fire,O,e,255,1,6364.699999809265,430648.80000019073,7206,WL,B,15.0
3,30.139999866485596,learn,29860.000133514404,Thu Aug 28 2025 10:34:49 GMT-0500 (Central Daylight Time),437464.5,A,fireenter,O,enter,436,1,6815.699999809265,430648.80000019073,7206,WL,B,15.0
4,0.6010000705718994,learn,59398.9999294281,Thu Aug 28 2025 10:34:49 GMT-0500 (Central Daylight Time),508774.5,A,s,O,s,580,1,600.6999998092651,508173.80000019073,7206,WL,B,1.0
4,0.8350000381469727,learn,59164.99996185303,Thu Aug 28 2025 10:34:49 GMT-0500 (Central Daylight Time),509008.0,A,st,O,t,211,1,834.1999998092651,508173.80000019073,7206,WL,B,1.0
4,1.1010000705718994,learn,58898.9999294281,Thu Aug 28 2025 10:34:49 GMT-0500 (Central Daylight Time),509274.60000014305,A,str,O,r,248,1,1100.7999999523163,508173.80000019073,7206,WL,B,1.0
4,1.2350001335144043,learn,58764.999866485596,Thu Aug 28 2025 10:34:49 GMT-0500 (Central Daylight Time),509408.0,A,stre,O,e,111,1,1234.1999998092651,508173.80000019073,7206,WL,B,1.0
4,1.433000087738037,learn,58566.99991226196,Thu Aug 28 2025 10:34:49 GMT-0500 (Central Daylight Time),509606.10000014305,A,stree,O,e,177,1,1432.2999999523163,508173.80000019073,7206,WL,B,1.0
4,1.5840001106262207,learn,58415.99988937378,Thu Aug 28 2025 10:34:49 GMT-0500 (Central Daylight Time),509756.90000009537,A,street,O,t,141,1,1583.0999999046326,508173.80000019073,7206,WL,B,1.0
4,1.7850000858306885,learn,58214.99991416931,Thu Aug 28 2025 10:34:49 GMT-0500 (Central Daylight Time),509957.60000014305,A,streetenter,O,enter,189,1,1783.7999999523163,508173.80000019073,7206,WL,B,1.0
4,2.1500000953674316,learn,57849.99990463257,Thu Aug 28 2025 10:34:49 GMT-0500 (Central Daylight Time),510323.2000000477,A,g,O,g,348,1,365.2000000476837,509958.0,7206,WL,B,2.0
4,2.383000135421753,learn,57616.99986457825,Thu Aug 28 2025 10:34:49 GMT-0500 (Central Daylight Time),510555.80000019073,A,gr,O,r,222,1,597.8000001907349,509958.0,7206,WL,B,2.0
4,2.5180001258850098,learn,57481.99987411499,Thu Aug 28 2025 10:34:49 GMT-0500 (Central Daylight Time),510691.0,A,gra,O,a,131,1,733.0,509958.0,7206,WL,B,2.0
4,2.8340001106262207,learn,57165.99988937378,Thu Aug 28 2025 10:34:49 GMT-0500 (Central Daylight Time),511007.5,A,gras,O,s,302,1,1049.5,509958.0,7206,WL,B,2.0
4,3.017000198364258,learn,56982.99980163574,Thu Aug 28 2025 10:34:49 GMT-0500 (Central Daylight Time),511190.30000019073,A,grass,O,s,172,1,1232.3000001907349,509958.0,7206,WL,B,2.0
4,3.2330000400543213,learn,56766.99995994568,Thu Aug 28 2025 10:34:49 GMT-0500 (Central Daylight Time),511405.90000009537,A,grassenter,O,enter,203,1,1447.9000000953674,509958.0,7206,WL,B,2.0
4,3.5330002307891846,learn,56466.999769210815,Thu Aug 28 2025 10:34:49 GMT-0500 (Central Daylight Time),511706.30000019073,A,d,O,d,285,1,300.10000014305115,511406.2000000477,7206,WL,B,3.0
4,3.7170000076293945,learn,56282.999992370605,Thu Aug 28 2025 10:34:49 GMT-0500 (Central Daylight Time),511890.30000019073,A,do,O,o,162,1,484.10000014305115,511406.2000000477,7206,WL,B,3.0
4,3.952000141143799,learn,56047.9998588562,Thu Aug 28 2025 10:34:49 GMT-0500 (Central Daylight Time),512124.80000019073,A,dor,O,r,211,1,718.6000001430511,511406.2000000477,7206,WL,B,3.0
4,4.482000112533569,learn,55517.99988746643,Thu Aug 28 2025 10:34:49 GMT-0500 (Central Daylight Time),512655.2000000477,A,doro,O,o,515,1,1249.0,511406.2000000477,7206,WL,B,3.0
4,4.766000032424927,learn,55233.99996757507,Thu Aug 28 2025 10:34:49 GMT-0500 (Central Daylight Time),512939.5,A,dor,O,backspace,269,1,1533.2999999523163,511406.2000000477,7206,WL,B,3.0
4,4.966000080108643,learn,55033.99991989136,Thu Aug 28 2025 10:34:49 GMT-0500 (Central Daylight Time),513139.0,A,do,O,backspace,181,1,1732.7999999523163,511406.2000000477,7206,WL,B,3.0
4,5.184000015258789,learn,54815.99998474121,Thu Aug 28 2025 10:34:49 GMT-0500 (Central Daylight Time),513356.7000000477,A,doo,O,o,208,1,1950.5,511406.2000000477,7206,WL,B,3.0
4,5.366000175476074,learn,54633.999824523926,Thu Aug 28 2025 10:34:49 GMT-0500 (Central Daylight Time),513539.40000009537,A,door,O,r,178,1,2133.2000000476837,511406.2000000477,7206,WL,B,3.0
4,5.516000032424927,learn,54483.99996757507,Thu Aug 28 2025 10:34:49 GMT-0500 (Central Daylight Time),513688.7000000477,A,doorenter,O,enter,141,1,2282.5,511406.2000000477,7206,WL,B,3.0
4,5.8500001430511475,learn,54149.99985694885,Thu Aug 28 2025 10:34:49 GMT-0500 (Central Daylight Time),514022.60000014305,A,a,O,a,323,1,333.60000014305115,513689.0,7206,WL,B,4.0
4,5.950000047683716,learn,54049.999952316284,Thu Aug 28 2025 10:34:49 GMT-0500 (Central Daylight Time),514123.7000000477,A,ar,O,r,81,1,434.7000000476837,513689.0,7206,WL,B,4.0
4,6.101000070571899,learn,53898.9999294281,Thu Aug 28 2025 10:34:49 GMT-0500 (Central Daylight Time),514274.30000019073,A,arm,O,m,134,1,585.3000001907349,513689.0,7206,WL,B,4.0
4,6.365000009536743,learn,53634.99999046326,Thu Aug 28 2025 10:34:49 GMT-0500 (Central Daylight Time),514538.2000000477,A,armenter,O,enter,258,1,849.2000000476837,513689.0,7206,WL,B,4.0
4,7.64900016784668,learn,52350.99983215332,Thu Aug 28 2025 10:34:49 GMT-0500 (Central Daylight Time),515822.10000014305,A,w,O,w,1272,1,1283.7000000476837,514538.40000009537,7206,WL,B,5.0
4,7.748000144958496,learn,52251.999855041504,Thu Aug 28 2025 10:34:49 GMT-0500 (Central Daylight Time),515921.60000014305,A,wi,O,i,81,1,1383.2000000476837,514538.40000009537,7206,WL,B,5.0
4,7.9150002002716064,learn,52084.99979972839,Thu Aug 28 2025 10:34:49 GMT-0500 (Central Daylight Time),516087.90000009537,A,win,O,n,161,1,1549.5,514538.40000009537,7206,WL,B,5.0
4,8.065000057220459,learn,51934.99994277954,Thu Aug 28 2025 10:34:49 GMT-0500 (Central Daylight Time),516238.2000000477,A,wind,O,d,138,1,1699.7999999523163,514538.40000009537,7206,WL,B,5.0
4,8.198000192642212,learn,51801.99980735779,Thu Aug 28 2025 10:34:49 GMT-0500 (Central Daylight Time),516371.5,A,windo,O,o,121,1,1833.0999999046326,514538.40000009537,7206,WL,B,5.0
4,8.332000017166138,learn,51667.99998283386,Thu Aug 28 2025 10:34:49 GMT-0500 (Central Daylight Time),516505.40000009537,A,window,O,w,127,1,1967.0,514538.40000009537,7206,WL,B,5.0
4,8.564000129699707,learn,51435.99987030029,Thu Aug 28 2025 10:34:49 GMT-0500 (Central Daylight Time),516736.90000009537,A,windowenter,O,enter,224,1,2198.5,514538.40000009537,7206,WL,B,5.0
4,8.831000089645386,learn,51168.999910354614,Thu Aug 28 2025 10:34:49 GMT-0500 (Central Daylight Time),517004.10000014305,A,w,O,w,258,1,266.90000009536743,516737.2000000477,7206,WL,B,6.0
4,8.98200011253357,learn,51017.99988746643,Thu Aug 28 2025 10:34:49 GMT-0500 (Central Daylight Time),517155.30000019073,A,wi,O,i,135,1,418.10000014305115,516737.2000000477,7206,WL,B,6.0
4,9.116000175476074,learn,50883.999824523926,Thu Aug 28 2025 10:34:49 GMT-0500 (Central Daylight Time),517289.30000019073,A,wif,O,f,128,1,552.1000001430511,516737.2000000477,7206,WL,B,6.0
4,9.332000017166138,learn,50667.99998283386,Thu Aug 28 2025 10:34:49 GMT-0500 (Central Daylight Time),517504.60000014305,A,wife,O,e,199,1,767.4000000953674,516737.2000000477,7206,WL,B,6.0
4,9.464000225067139,learn,50535.99977493286,Thu Aug 28 2025 10:34:49 GMT-0500 (Central Daylight Time),517637.0,A,wifeenter,O,enter,112,1,899.7999999523163,516737.2000000477,7206,WL,B,6.0
4,10.014000177383423,learn,49985.99982261658,Thu Aug 28 2025 10:34:49 GMT-0500 (Central Daylight Time),518187.2000000477,A,s,O,s,541,1,549.7999999523163,517637.40000009537,7206,WL,B,7.0
4,10.666000127792358,learn,49333.99987220764,Thu Aug 28 2025 10:34:49 GMT-0500 (Central Daylight Time),518839.5,A,,O,backspace,647,1,1202.0999999046326,517637.40000009537,7206,WL,B,7.0
4,11.299000024795532,learn,48700.99997520447,Thu Aug 28 2025 10:34:49 GMT-0500 (Central Daylight Time),519472.5,A,c,O,c,627,1,1835.0999999046326,517637.40000009537,7206,WL,B,7.0
4,12.097000122070312,learn,47902.99987792969,Thu Aug 28 2025 10:34:49 GMT-0500 (Central Daylight Time),520270.5,A,ci,O,i,784,1,2633.0999999046326,517637.40000009537,7206,WL,B,7.0
4,12.231000185012817,learn,47768.99981498718,Thu Aug 28 2025 10:34:49 GMT-0500 (Central Daylight Time),520404.60000014305,A,cit,O,t,128,1,2767.2000000476837,517637.40000009537,7206,WL,B,7.0
4,12.797000169754028,learn,47202.99983024597,Thu Aug 28 2025 10:34:49 GMT-0500 (Central Daylight Time),520969.90000009537,A,city,O,y,549,1,3332.5,517637.40000009537,7206,WL,B,7.0
4,13.046000003814697,learn,46953.9999961853,Thu Aug 28 2025 10:34:49 GMT-0500 (Central Daylight Time),521219.30000019073,A,cityenter,O,enter,239,1,3581.9000000953674,517637.40000009537,7206,WL,B,7.0
4,13.297000169754028,learn,46702.99983024597,Thu Aug 28 2025 10:34:49 GMT-0500 (Central Daylight Time),521470.30000019073,A,s,O,s,231,1,250.70000004768372,521219.60000014305,7206,WL,B,8.0
4,13.464000225067139,learn,46535.99977493286,Thu Aug 28 2025 10:34:49 GMT-0500 (Central Daylight Time),521637.2000000477,A,st,O,t,145,1,417.59999990463257,521219.60000014305,7206,WL,B,8.0
4,13.680000066757202,learn,46319.9999332428,Thu Aug 28 2025 10:34:49 GMT-0500 (Central Daylight Time),521853.10000014305,A,sta,O,a,205,1,633.5,521219.60000014305,7206,WL,B,8.0
4,13.763000011444092,learn,46236.99998855591,Thu Aug 28 2025 10:34:49 GMT-0500 (Central Daylight Time),521936.10000014305,A,star,O,r,66,1,716.5,521219.60000014305,7206,WL,B,8.0
4,14.114000082015991,learn,45885.99991798401,Thu Aug 28 2025 10:34:49 GMT-0500 (Central Daylight Time),522286.80000019073,A,starenter,O,enter,337,1,1067.2000000476837,521219.60000014305,7206,WL,B,8.0
4,14.728000164031982,learn,45271.99983596802,Thu Aug 28 2025 10:34:49 GMT-0500 (Central Daylight Time),522901.60000014305,A,c,O,c,602,1,614.5,522287.10000014305,7206,WL,B,9.0
4,14.962000131607056,learn,45037.999868392944,Thu Aug 28 2025 10:34:49 GMT-0500 (Central Daylight Time),523134.80000019073,A,ca,O,a,211,1,847.7000000476837,522287.10000014305,7206,WL,B,9.0
4,15.147000074386597,learn,44852.9999256134,Thu Aug 28 2025 10:34:49 GMT-0500 (Central Daylight Time),523319.80000019073,A,cab,O,b,173,1,1032.7000000476837,522287.10000014305,7206,WL,B,9.0
4,15.296000003814697,learn,44703.9999961853,Thu Aug 28 2025 10:34:49 GMT-0500 (Central Daylight Time),523469.10000014305,A,cabi,O,i,128,1,1182.0,522287.10000014305,7206,WL,B,9.0
4,15.463000059127808,learn,44536.99994087219,Thu Aug 28 2025 10:34:49 GMT-0500 (Central Daylight Time),523636.0,A,cabin,O,n,157,1,1348.8999998569489,522287.10000014305,7206,WL,B,9.0
4,15.646000146865845,learn,44353.999853134155,Thu Aug 28 2025 10:34:49 GMT-0500 (Central Daylight Time),523818.7000000477,A,cabinenter,O,enter,165,1,1531.5999999046326,522287.10000014305,7206,WL,B,9.0
4,15.913000106811523,learn,44086.99989318848,Thu Aug 28 2025 10:34:49 GMT-0500 (Central Daylight Time),524085.90000009537,A,l,O,l,258,1,267.09999990463257,523818.80000019073,7206,WL,B,10.0
4,15.980000019073486,learn,44019.999980926514,Thu Aug 28 2025 10:34:49 GMT-0500 (Central Daylight Time),524152.80000019073,A,la,O,a,61,1,334.0,523818.80000019073,7206,WL,B,10.0
4,16.213000059127808,learn,43786.99994087219,Thu Aug 28 2025 10:34:49 GMT-0500 (Central Daylight Time),524385.8000001907,A,lak,O,k,217,1,567.0,523818.80000019073,7206,WL,B,10.0
4,16.330000162124634,learn,43669.999837875366,Thu Aug 28 2025 10:34:49 GMT-0500 (Central Daylight Time),524503.2000000477,A,lake,O,e,105,1,684.3999998569489,523818.80000019073,7206,WL,B,10.0
4,16.479000091552734,learn,43520.999908447266,Thu Aug 28 2025 10:34:49 GMT-0500 (Central Daylight Time),524652.5,A,lakeenter,O,enter,129,1,833.6999998092651,523818.80000019073,7206,WL,B,10.0
4,16.932000160217285,learn,43067.999839782715,Thu Aug 28 2025 10:34:49 GMT-0500 (Central Daylight Time),525104.9000000954,A,s,O,s,447,1,452.09999990463257,524652.8000001907,7206,WL,B,11.0
4,17.046000003814697,learn,42953.9999961853,Thu Aug 28 2025 10:34:49 GMT-0500 (Central Daylight Time),525219.5,A,sk,O,k,108,1,566.6999998092651,524652.8000001907,7206,WL,B,11.0
4,17.213000059127808,learn,42786.99994087219,Thu Aug 28 2025 10:34:49 GMT-0500 (Central Daylight Time),525386.100000143,A,ski,O,i,160,1,733.2999999523163,524652.8000001907,7206,WL,B,11.0
4,17.379000186920166,learn,42620.999813079834,Thu Aug 28 2025 10:34:49 GMT-0500 (Central Daylight Time),525552.4000000954,A,skin,O,n,159,1,899.5999999046326,524652.8000001907,7206,WL,B,11.0
4,17.66200017929077,learn,42337.99982070923,Thu Aug 28 2025 10:34:49 GMT-0500 (Central Daylight Time),525834.8000001907,A,skinenter,O,enter,265,1,1182.0,524652.8000001907,7206,WL,B,11.0
4,18.062000036239624,learn,41937.999963760376,Thu Aug 28 2025 10:34:49 GMT-0500 (Central Daylight Time),526234.9000000954,A,f,O,f,392,1,399.7999999523163,525835.100000143,7206,WL,B,12.0
4,18.195000171661377,learn,41804.99982833862,Thu Aug 28 2025 10:34:49 GMT-0500 (Central Daylight Time),526368.4000000954,A,fi,O,i,118,1,533.2999999523163,525835.100000143,7206,WL,B,12.0
4,18.313000202178955,learn,41686.999797821045,Thu Aug 28 2025 10:34:49 GMT-0500 (Central Daylight Time),526486.3000001907,A,fir,O,r,95,1,651.2000000476837,525835.100000143,7206,WL,B,12.0
4,18.4280002117157,learn,41571.9997882843,Thu Aug 28 2025 10:34:49 GMT-0500 (Central Daylight Time),526601.4000000954,A,fire,O,e,99,1,766.2999999523163,525835.100000143,7206,WL,B,12.0
4,18.578999996185303,learn,41421.0000038147,Thu Aug 28 2025 10:34:49 GMT-0500 (Central Daylight Time),526752.3000001907,A,fireenter,O,enter,128,1,917.2000000476837,525835.100000143,7206,WL,B,12.0
4,18.9280002117157,learn,41071.9997882843,Thu Aug 28 2025 10:34:49 GMT-0500 (Central Daylight Time),527101.2000000477,A,p,O,p,330,1,348.59999990463257,526752.600000143,7206,WL,B,13.0
4,19.145000219345093,learn,40854.99978065491,Thu Aug 28 2025 10:34:49 GMT-0500 (Central Daylight Time),527318.2000000477,A,pi,O,i,206,1,565.5999999046326,526752.600000143,7206,WL,B,13.0
4,19.312000036239624,learn,40687.999963760376,Thu Aug 28 2025 10:34:49 GMT-0500 (Central Daylight Time),527485.600000143,A,pip,O,p,148,1,733.0,526752.600000143,7206,WL,B,13.0
4,19.66100001335144,learn,40338.99998664856,Thu Aug 28 2025 10:34:49 GMT-0500 (Central Daylight Time),527834.100000143,A,pipe,O,e,330,1,1081.5,526752.600000143,7206,WL,B,13.0
4,19.82800006866455,learn,40171.99993133545,Thu Aug 28 2025 10:34:49 GMT-0500 (Central Daylight Time),528001.600000143,A,pipeenter,O,enter,152,1,1249.0,526752.600000143,7206,WL,B,13.0
4,20.479000091552734,learn,39520.999908447266,Thu Aug 28 2025 10:34:49 GMT-0500 (Central Daylight Time),528652.100000143,A,c,O,c,629,1,650.2999999523163,528001.8000001907,7206,WL,B,14.0
4,20.545000076293945,learn,39454.999923706055,Thu Aug 28 2025 10:34:49 GMT-0500 (Central Daylight Time),528718.4000000954,A,cl,O,l,60,1,716.5999999046326,528001.8000001907,7206,WL,B,14.0
4,20.74400019645691,learn,39255.99980354309,Thu Aug 28 2025 10:34:49 GMT-0500 (Central Daylight Time),528916.7000000477,A,clo,O,o,190,1,914.8999998569489,528001.8000001907,7206,WL,B,14.0
4,20.84500002861023,learn,39154.99997138977,Thu Aug 28 2025 10:34:49 GMT-0500 (Central Daylight Time),529018.5,A,cloc,O,c,86,1,1016.6999998092651,528001.8000001907,7206,WL,B,14.0
4,20.9760000705719,learn,39023.9999294281,Thu Aug 28 2025 10:34:49 GMT-0500 (Central Daylight Time),529148.7000000477,A,clock,O,k,109,1,1146.8999998569489,528001.8000001907,7206,WL,B,14.0
4,21.211000204086304,learn,38788.999795913696,Thu Aug 28 2025 10:34:49 GMT-0500 (Central Daylight Time),529383.9000000954,A,clockenter,O,enter,231,1,1382.0999999046326,528001.8000001907,7206,WL,B,14.0
4,23.978000164031982,learn,36021.99983596802,Thu Aug 28 2025 10:34:49 GMT-0500 (Central Daylight Time),532151.100000143,A,p,O,p,2748,1,2766.9000000953674,529384.2000000477,7206,WL,B,15.0
4,24.16100001335144,learn,35838.99998664856,Thu Aug 28 2025 10:34:49 GMT-0500 (Central Daylight Time),532333.9000000954,A,pu,O,u,163,1,2949.7000000476837,529384.2000000477,7206,WL,B,15.0
4,24.344000101089478,learn,35655.99989891052,Thu Aug 28 2025 10:34:49 GMT-0500 (Central Daylight Time),532517.4000000954,A,pup,O,p,172,1,3133.2000000476837,529384.2000000477,7206,WL,B,15.0
4,24.54300022125244,learn,35456.99977874756,Thu Aug 28 2025 10:34:49 GMT-0500 (Central Daylight Time),532716.0,A,pupi,O,i,180,1,3331.7999999523163,529384.2000000477,7206,WL,B,15.0
4,24.7260000705719,learn,35273.9999294281,Thu Aug 28 2025 10:34:49 GMT-0500 (Central Daylight Time),532899.4000000954,A,pupil,O,l,164,1,3515.2000000476837,529384.2000000477,7206,WL,B,15.0
4,24.97699999809265,learn,35023.00000190735,Thu Aug 28 2025 10:34:49 GMT-0500 (Central Daylight Time),533149.8000001907,A,pupilenter,O,enter,229,1,3765.600000143051,529384.2000000477,7206,WL,B,15.0
5,1.0989999771118164,learn,60000.0,Thu Aug 28 2025 10:34:49 GMT-0500 (Central Daylight Time),601544.600000143,A,p,O,p,1085,1,1099.7999999523163,600444.8000001907,7206,WL,B,1.0
5,1.315999984741211,learn,60000.0,Thu Aug 28 2025 10:34:49 GMT-0500 (Central Daylight Time),601760.7000000477,A,pi,O,i,194,1,1315.8999998569489,600444.8000001907,7206,WL,B,1.0
5,1.5179998874664307,learn,60000.0,Thu Aug 28 2025 10:34:49 GMT-0500 (Central Daylight Time),601963.100000143,A,pip,O,p,186,1,1518.2999999523163,600444.8000001907,7206,WL,B,1.0
5,1.7329998016357422,learn,60000.0,Thu Aug 28 2025 10:34:49 GMT-0500 (Central Daylight Time),602178.600000143,A,pipe,O,e,207,1,1733.7999999523163,600444.8000001907,7206,WL,B,1.0
5,1.932999849319458,learn,60000.0,Thu Aug 28 2025 10:34:49 GMT-0500 (Central Daylight Time),602377.7000000477,A,pipeenter,O,enter,176,1,1932.8999998569489,600444.8000001907,7206,WL,B,1.0
5,2.2819998264312744,learn,60000.0,Thu Aug 28 2025 10:34:49 GMT-0500 (Central Daylight Time),602727.0,A,s,O,s,336,1,349.09999990463257,602377.9000000954,7206,WL,B,2.0
5,2.447999954223633,learn,60000.0,Thu Aug 28 2025 10:34:49 GMT-0500 (Central Daylight Time),602893.100000143,A,sk,O,k,152,1,515.2000000476837,602377.9000000954,7206,WL,B,2.0
5,2.630999803543091,learn,60000.0,Thu Aug 28 2025 10:34:49 GMT-0500 (Central Daylight Time),603076.4000000954,A,ski,O,i,171,1,698.5,602377.9000000954,7206,WL,B,2.0
5,2.8489999771118164,learn,60000.0,Thu Aug 28 2025 10:34:49 GMT-0500 (Central Daylight Time),603294.5,A,skin,O,n,195,1,916.5999999046326,602377.9000000954,7206,WL,B,2.0
5,3.0329999923706055,learn,60000.0,Thu Aug 28 2025 10:34:49 GMT-0500 (Central Daylight Time),603477.7000000477,A,skinenter,O,enter,171,1,1099.7999999523163,602377.9000000954,7206,WL,B,2.0
5,3.2309999465942383,learn,60000.0,Thu Aug 28 2025 10:34:49 GMT-0500 (Central Daylight Time),603676.600000143,A,f,O,f,181,1,198.70000004768372,603477.9000000954,7206,WL,B,3.0
5,3.3479998111724854,learn,60000.0,Thu Aug 28 2025 10:34:49 GMT-0500 (Central Daylight Time),603792.7000000477,A,fi,O,i,107,1,314.7999999523163,603477.9000000954,7206,WL,B,3.0
5,3.4649999141693115,learn,60000.0,Thu Aug 28 2025 10:34:49 GMT-0500 (Central Daylight Time),603909.7000000477,A,fir,O,r,96,1,431.7999999523163,603477.9000000954,7206,WL,B,3.0
5,3.5809998512268066,learn,60000.0,Thu Aug 28 2025 10:34:49 GMT-0500 (Central Daylight Time),604026.2000000477,A,fire,O,e,98,1,548.2999999523163,603477.9000000954,7206,WL,B,3.0
5,3.8319997787475586,learn,60000.0,Thu Aug 28 2025 10:34:49 GMT-0500 (Central Daylight Time),604277.4000000954,A,fireenter,O,enter,229,1,799.5,603477.9000000954,7206,WL,B,3.0
5,4.247999906539917,learn,60000.0,Thu Aug 28 2025 10:34:49 GMT-0500 (Central Daylight Time),604693.5,A,c,O,c,405,1,415.7999999523163,604277.7000000477,7206,WL,B,4.0
5,4.347999811172485,learn,60000.0,Thu Aug 28 2025 10:34:49 GMT-0500 (Central Daylight Time),604793.4000000954,A,cl,O,l,81,1,515.7000000476837,604277.7000000477,7206,WL,B,4.0
5,4.548999786376953,learn,60000.0,Thu Aug 28 2025 10:34:49 GMT-0500 (Central Daylight Time),604994.100000143,A,clo,O,o,183,1,716.4000000953674,604277.7000000477,7206,WL,B,4.0
5,4.7159998416900635,learn,60000.0,Thu Aug 28 2025 10:34:49 GMT-0500 (Central Daylight Time),605163.600000143,A,cloc,O,c,143,1,885.9000000953674,604277.7000000477,7206,WL,B,4.0
5,4.797999858856201,learn,60000.0,Thu Aug 28 2025 10:34:49 GMT-0500 (Central Daylight Time),605242.9000000954,A,clock,O,k,70,1,965.2000000476837,604277.7000000477,7206,WL,B,4.0
5,5.06499981880188,learn,60000.0,Thu Aug 28 2025 10:34:49 GMT-0500 (Central Daylight Time),605509.9000000954,A,clockenter,O,enter,255,1,1232.2000000476837,604277.7000000477,7206,WL,B,4.0
5,5.414999961853027,learn,60000.0,Thu Aug 28 2025 10:34:49 GMT-0500 (Central Daylight Time),605860.3000001907,A,d,O,d,332,1,350.10000014305115,605510.2000000477,7206,WL,B,5.0
5,5.547999858856201,learn,60000.0,Thu Aug 28 2025 10:34:49 GMT-0500 (Central Daylight Time),605993.0,A,do,O,o,112,1,482.7999999523163,605510.2000000477,7206,WL,B,5.0
5,5.73199987411499,learn,60000.0,Thu Aug 28 2025 10:34:49 GMT-0500 (Central Daylight Time),606176.9000000954,A,doo,O,o,160,1,666.7000000476837,605510.2000000477,7206,WL,B,5.0
5,5.7799999713897705,learn,60000.0,Thu Aug 28 2025 10:34:49 GMT-0500 (Central Daylight Time),606224.600000143,A,door,O,r,30,1,714.4000000953674,605510.2000000477,7206,WL,B,5.0
5,5.98199987411499,learn,60000.0,Thu Aug 28 2025 10:34:49 GMT-0500 (Central Daylight Time),606426.600000143,A,doorenter,O,enter,197,1,916.4000000953674,605510.2000000477,7206,WL,B,5.0
5,6.230999946594238,learn,60000.0,Thu Aug 28 2025 10:34:49 GMT-0500 (Central Daylight Time),606675.8000001907,A,s,O,s,240,1,248.90000009536743,606426.9000000954,7206,WL,B,6.0
5,6.381999969482422,learn,60000.0,Thu Aug 28 2025 10:34:49 GMT-0500 (Central Daylight Time),606826.8000001907,A,st,O,t,137,1,399.90000009536743,606426.9000000954,7206,WL,B,6.0
5,6.597999811172485,learn,60000.0,Thu Aug 28 2025 10:34:49 GMT-0500 (Central Daylight Time),607043.100000143,A,str,O,r,200,1,616.2000000476837,606426.9000000954,7206,WL,B,6.0
5,6.697999954223633,learn,60000.0,Thu Aug 28 2025 10:34:49 GMT-0500 (Central Daylight Time),607143.3000001907,A,stre,O,e,87,1,716.4000000953674,606426.9000000954,7206,WL,B,6.0
5,7.180999994277954,learn,60000.0,Thu Aug 28 2025 10:34:49 GMT-0500 (Central Daylight Time),607626.100000143,A,stree,O,e,476,1,1199.2000000476837,606426.9000000954,7206,WL,B,6.0
5,7.396999835968018,learn,60000.0,Thu Aug 28 2025 10:34:49 GMT-0500 (Central Daylight Time),607842.4000000954,A,street,O,t,197,1,1415.5,606426.9000000954,7206,WL,B,6.0
5,7.563999891281128,learn,60000.0,Thu Aug 28 2025 10:34:49 GMT-0500 (Central Daylight Time),608008.7000000477,A,streetenter,O,enter,160,1,1581.7999999523163,606426.9000000954,7206,WL,B,6.0
5,8.013999938964844,learn,60000.0,Thu Aug 28 2025 10:34:49 GMT-0500 (Central Daylight Time),608458.9000000954,A,g,O,g,434,1,449.90000009536743,608009.0,7206,WL,B,7.0
5,8.246999979019165,learn,60000.0,Thu Aug 28 2025 10:34:49 GMT-0500 (Central Daylight Time),608692.0,A,gr,O,r,224,1,683.0,608009.0,7206,WL,B,7.0
5,8.379999876022339,learn,60000.0,Thu Aug 28 2025 10:34:49 GMT-0500 (Central Daylight Time),608825.5,A,gra,O,a,125,1,816.5,608009.0,7206,WL,B,7.0
5,8.980999946594238,learn,60000.0,Thu Aug 28 2025 10:34:49 GMT-0500 (Central Daylight Time),609426.0,A,gras,O,s,585,1,1417.0,608009.0,7206,WL,B,7.0
5,9.181999921798706,learn,60000.0,Thu Aug 28 2025 10:34:49 GMT-0500 (Central Daylight Time),609626.7000000477,A,grass,O,s,178,1,1617.7000000476837,608009.0,7206,WL,B,7.0
5,9.345999956130981,learn,60000.0,Thu Aug 28 2025 10:34:49 GMT-0500 (Central Daylight Time),609790.600000143,A,grassenter,O,enter,144,1,1781.6000001430511,608009.0,7206,WL,B,7.0
5,9.579999923706055,learn,60000.0,Thu Aug 28 2025 10:34:49 GMT-0500 (Central Daylight Time),610025.600000143,A,w,O,w,221,1,234.79999995231628,609790.8000001907,7206,WL,B,8.0
5,9.729999780654907,learn,60000.0,Thu Aug 28 2025 10:34:49 GMT-0500 (Central Daylight Time),610175.100000143,A,wi,O,i,127,1,384.2999999523163,609790.8000001907,7206,WL,B,8.0
5,9.912999868392944,learn,60000.0,Thu Aug 28 2025 10:34:49 GMT-0500 (Central Daylight Time),610358.5,A,win,O,n,169,1,567.6999998092651,609790.8000001907,7206,WL,B,8.0
5,10.02999997138977,learn,60000.0,Thu Aug 28 2025 10:34:49 GMT-0500 (Central Daylight Time),610474.7000000477,A,wind,O,d,108,1,683.8999998569489,609790.8000001907,7206,WL,B,8.0
5,10.13099980354309,learn,60000.0,Thu Aug 28 2025 10:34:49 GMT-0500 (Central Daylight Time),610576.0,A,windo,O,o,93,1,785.1999998092651,609790.8000001907,7206,WL,B,8.0
5,10.245999813079834,learn,60000.0,Thu Aug 28 2025 10:34:49 GMT-0500 (Central Daylight Time),610690.8000001907,A,window,O,w,103,1,900.0,609790.8000001907,7206,WL,B,8.0
5,10.428999900817871,learn,60000.0,Thu Aug 28 2025 10:34:49 GMT-0500 (Central Daylight Time),610874.0,A,windowenter,O,enter,165,1,1083.1999998092651,609790.8000001907,7206,WL,B,8.0
5,10.861999988555908,learn,60000.0,Thu Aug 28 2025 10:34:49 GMT-0500 (Central Daylight Time),611307.100000143,A,w,O,w,415,1,432.90000009536743,610874.2000000477,7206,WL,B,9.0
5,10.96399998664856,learn,60000.0,Thu Aug 28 2025 10:34:49 GMT-0500 (Central Daylight Time),611408.600000143,A,wi,O,i,79,1,534.4000000953674,610874.2000000477,7206,WL,B,9.0
5,11.129999876022339,learn,60000.0,Thu Aug 28 2025 10:34:49 GMT-0500 (Central Daylight Time),611574.9000000954,A,wif,O,f,154,1,700.7000000476837,610874.2000000477,7206,WL,B,9.0
5,11.346999883651733,learn,60000.0,Thu Aug 28 2025 10:34:49 GMT-0500 (Central Daylight Time),611792.600000143,A,wife,O,e,196,1,918.4000000953674,610874.2000000477,7206,WL,B,9.0
5,11.496999979019165,learn,60000.0,Thu Aug 28 2025 10:34:49 GMT-0500 (Central Daylight Time),611941.600000143,A,wifeenter,O,enter,138,1,1067.4000000953674,610874.2000000477,7206,WL,B,9.0
5,11.877999782562256,learn,60000.0,Thu Aug 28 2025 10:34:49 GMT-0500 (Central Daylight Time),612323.100000143,A,p,O,p,364,1,381.2999999523163,611941.8000001907,7206,WL,B,10.0
5,12.078999996185303,learn,60000.0,Thu Aug 28 2025 10:34:49 GMT-0500 (Central Daylight Time),612524.100000143,A,pu,O,u,193,1,582.2999999523163,611941.8000001907,7206,WL,B,10.0
5,12.26199984550476,learn,60000.0,Thu Aug 28 2025 10:34:49 GMT-0500 (Central Daylight Time),612707.2000000477,A,pup,O,p,166,1,765.3999998569489,611941.8000001907,7206,WL,B,10.0
5,12.461999893188477,learn,60000.0,Thu Aug 28 2025 10:34:49 GMT-0500 (Central Daylight Time),612907.5,A,pupi,O,i,181,1,965.6999998092651,611941.8000001907,7206,WL,B,10.0
5,12.645999908447266,learn,60000.0,Thu Aug 28 2025 10:34:49 GMT-0500 (Central Daylight Time),613091.2000000477,A,pupil,O,l,166,1,1149.3999998569489,611941.8000001907,7206,WL,B,10.0
5,12.879999876022339,learn,60000.0,Thu Aug 28 2025 10:34:49 GMT-0500 (Central Daylight Time),613324.600000143,A,pupilenter,O,enter,220,1,1382.7999999523163,611941.8000001907,7206,WL,B,10.0
5,13.27999997138977,learn,60000.0,Thu Aug 28 2025 10:34:49 GMT-0500 (Central Daylight Time),613724.8000001907,A,c,O,c,391,1,400.0,613324.8000001907,7206,WL,B,11.0
5,13.412999868392944,learn,60000.0,Thu Aug 28 2025 10:34:49 GMT-0500 (Central Daylight Time),613858.0,A,ci,O,i,113,1,533.1999998092651,613324.8000001907,7206,WL,B,11.0
5,13.562999963760376,learn,60000.0,Thu Aug 28 2025 10:34:49 GMT-0500 (Central Daylight Time),614007.8000001907,A,cit,O,t,135,1,683.0,613324.8000001907,7206,WL,B,11.0
5,13.662999868392944,learn,60000.0,Thu Aug 28 2025 10:34:49 GMT-0500 (Central Daylight Time),614108.0,A,city,O,y,86,1,783.1999998092651,613324.8000001907,7206,WL,B,11.0
5,13.894999980926514,learn,60000.0,Thu Aug 28 2025 10:34:49 GMT-0500 (Central Daylight Time),614340.100000143,A,cityenter,O,enter,222,1,1015.2999999523163,613324.8000001907,7206,WL,B,11.0
5,14.194999933242798,learn,60000.0,Thu Aug 28 2025 10:34:49 GMT-0500 (Central Daylight Time),614639.9000000954,A,l,O,l,288,1,299.59999990463257,614340.3000001907,7206,WL,B,12.0
5,14.311999797821045,learn,60000.0,Thu Aug 28 2025 10:34:49 GMT-0500 (Central Daylight Time),614757.100000143,A,la,O,a,97,1,416.7999999523163,614340.3000001907,7206,WL,B,12.0
5,14.477999925613403,learn,60000.0,Thu Aug 28 2025 10:34:49 GMT-0500 (Central Daylight Time),614923.3000001907,A,lak,O,k,157,1,583.0,614340.3000001907,7206,WL,B,12.0
5,14.595999956130981,learn,60000.0,Thu Aug 28 2025 10:34:49 GMT-0500 (Central Daylight Time),615040.600000143,A,lake,O,e,102,1,700.2999999523163,614340.3000001907,7206,WL,B,12.0
5,14.810999870300293,learn,60000.0,Thu Aug 28 2025 10:34:49 GMT-0500 (Central Daylight Time),615255.600000143,A,lakeenter,O,enter,194,1,915.2999999523163,614340.3000001907,7206,WL,B,12.0
5,15.144999980926514,learn,60000.0,Thu Aug 28 2025 10:34:49 GMT-0500 (Central Daylight Time),615589.600000143,A,c,O,c,324,1,333.7999999523163,615255.8000001907,7206,WL,B,13.0
5,15.59499979019165,learn,60000.0,Thu Aug 28 2025 10:34:49 GMT-0500 (Central Daylight Time),616039.8000001907,A,ca,O,a,436,1,784.0,615255.8000001907,7206,WL,B,13.0
5,15.827999830245972,learn,60000.0,Thu Aug 28 2025 10:34:49 GMT-0500 (Central Daylight Time),616273.2000000477,A,cab,O,b,214,1,1017.3999998569489,615255.8000001907,7206,WL,B,13.0
5,15.91100001335144,learn,60000.0,Thu Aug 28 2025 10:34:49 GMT-0500 (Central Daylight Time),616356.0,A,cabi,O,i,61,1,1100.1999998092651,615255.8000001907,7206,WL,B,13.0
5,16.060999870300293,learn,60000.0,Thu Aug 28 2025 10:34:49 GMT-0500 (Central Daylight Time),616506.5,A,cabin,O,n,132,1,1250.6999998092651,615255.8000001907,7206,WL,B,13.0
5,16.26099991798401,learn,60000.0,Thu Aug 28 2025 10:34:49 GMT-0500 (Central Daylight Time),616706.0,A,cabinenter,O,enter,189,1,1450.1999998092651,615255.8000001907,7206,WL,B,13.0
5,16.710999965667725,learn,60000.0,Thu Aug 28 2025 10:34:49 GMT-0500 (Central Daylight Time),617155.9000000954,A,a,O,a,432,1,449.59999990463257,616706.3000001907,7206,WL,B,14.0
5,16.860999822616577,learn,60000.0,Thu Aug 28 2025 10:34:49 GMT-0500 (Central Daylight Time),617306.100000143,A,ar,O,r,133,1,599.7999999523163,616706.3000001907,7206,WL,B,14.0
5,17.01099991798401,learn,60000.0,Thu Aug 28 2025 10:34:49 GMT-0500 (Central Daylight Time),617455.7000000477,A,arm,O,m,129,1,749.3999998569489,616706.3000001907,7206,WL,B,14.0
5,17.194000005722046,learn,60000.0,Thu Aug 28 2025 10:34:49 GMT-0500 (Central Daylight Time),617638.8000001907,A,armenter,O,enter,158,1,932.5,616706.3000001907,7206,WL,B,14.0
5,17.393999814987183,learn,60000.0,Thu Aug 28 2025 10:34:49 GMT-0500 (Central Daylight Time),617839.0,A,s,O,s,189,1,200.0,617639.0,7206,WL,B,15.0
5,17.527999877929688,learn,60000.0,Thu Aug 28 2025 10:34:49 GMT-0500 (Central Daylight Time),617972.9000000954,A,sk,O,k,114,1,333.90000009536743,617639.0,7206,WL,B,15.0
5,17.709999799728394,learn,60000.0,Thu Aug 28 2025 10:34:49 GMT-0500 (Central Daylight Time),618155.2000000477,A,ski,O,i,164,1,516.2000000476837,617639.0,7206,WL,B,15.0
5,17.861999988555908,learn,60000.0,Thu Aug 28 2025 10:34:49 GMT-0500 (Central Daylight Time),618306.8000001907,A,skin,O,n,145,1,667.8000001907349,617639.0,7206,WL,B,15.0
5,18.126999855041504,learn,60000.0,Thu Aug 28 2025 10:34:49 GMT-0500 (Central Daylight Time),618572.0,A,skinenter,O,enter,252,1,933.0,617639.0,7206,WL,B,15.0
6,0.749000072479248,distr,59250.99992752075,Thu Aug 28 2025 10:34:49 GMT-0500 (Central Daylight Time),705694.2000000477,B,a,O,a,731,1,748.8999998569489,704945.3000001907,7206,WL,B,1.0
6,0.9160001277923584,distr,59083.99987220764,Thu Aug 28 2025 10:34:49 GMT-0500 (Central Daylight Time),705860.5,B,ar,O,r,145,1,915.1999998092651,704945.3000001907,7206,WL,B,1.0
6,1.1540000438690186,distr,58845.99995613098,Thu Aug 28 2025 10:34:49 GMT-0500 (Central Daylight Time),706098.8000001907,B,arm,O,m,219,1,1153.5,704945.3000001907,7206,WL,B,1.0
6,1.815999984741211,distr,58184.00001525879,Thu Aug 28 2025 10:34:49 GMT-0500 (Central Daylight Time),706761.4000000954,B,army,O,y,640,1,1816.0999999046326,704945.3000001907,7206,WL,B,1.0
6,2.199000120162964,distr,57800.999879837036,Thu Aug 28 2025 10:34:49 GMT-0500 (Central Daylight Time),707143.9000000954,B,armyenter,O,enter,361,1,2198.5999999046326,704945.3000001907,7206,WL,B,1.0
6,2.5989999771118164,distr,57401.00002288818,Thu Aug 28 2025 10:34:49 GMT-0500 (Central Daylight Time),707543.5,B,b,O,b,379,1,399.39999985694885,707144.100000143,7206,WL,B,2.0
6,2.748000144958496,distr,57251.999855041504,Thu Aug 28 2025 10:34:49 GMT-0500 (Central Daylight Time),707693.5,B,ba,O,a,134,1,549.3999998569489,707144.100000143,7206,WL,B,2.0
6,2.8990001678466797,distr,57100.99983215332,Thu Aug 28 2025 10:34:49 GMT-0500 (Central Daylight Time),707844.100000143,B,bab,O,b,137,1,700.0,707144.100000143,7206,WL,B,2.0
6,4.115000009536743,distr,55884.99999046326,Thu Aug 28 2025 10:34:49 GMT-0500 (Central Daylight Time),709060.2000000477,B,baby,O,y,1204,1,1916.0999999046326,707144.100000143,7206,WL,B,2.0
6,4.365000009536743,distr,55634.99999046326,Thu Aug 28 2025 10:34:49 GMT-0500 (Central Daylight Time),709309.9000000954,B,babyenter,O,enter,235,1,2165.7999999523163,707144.100000143,7206,WL,B,2.0
6,4.998000144958496,distr,55001.999855041504,Thu Aug 28 2025 10:34:49 GMT-0500 (Central Daylight Time),709943.100000143,B,p,O,p,619,1,633.0,709310.100000143,7206,WL,B,3.0
6,5.230999946594238,distr,54769.00005340576,Thu Aug 28 2025 10:34:49 GMT-0500 (Central Daylight Time),710175.7000000477,B,pa,O,a,213,1,865.5999999046326,709310.100000143,7206,WL,B,3.0
6,5.38100004196167,distr,54618.99995803833,Thu Aug 28 2025 10:34:49 GMT-0500 (Central Daylight Time),710326.2000000477,B,pal,O,l,136,1,1016.0999999046326,709310.100000143,7206,WL,B,3.0
6,5.547000169754028,distr,54452.99983024597,Thu Aug 28 2025 10:34:49 GMT-0500 (Central Daylight Time),710491.9000000954,B,pala,O,a,152,1,1181.7999999523163,709310.100000143,7206,WL,B,3.0
6,5.730000019073486,distr,54269.999980926514,Thu Aug 28 2025 10:34:49 GMT-0500 (Central Daylight Time),710675.5,B,palac,O,c,175,1,1365.3999998569489,709310.100000143,7206,WL,B,3.0
6,5.947000026702881,distr,54052.99997329712,Thu Aug 28 2025 10:34:49 GMT-0500 (Central Daylight Time),710892.0,B,palace,O,e,204,1,1581.8999998569489,709310.100000143,7206,WL,B,3.0
6,6.047000169754028,distr,53952.99983024597,Thu Aug 28 2025 10:34:49 GMT-0500 (Central Daylight Time),710991.5,B,palaceenter,O,enter,84,1,1681.3999998569489,709310.100000143,7206,WL,B,3.0
6,6.330000162124634,distr,53669.999837875366,Thu Aug 28 2025 10:34:49 GMT-0500 (Central Daylight Time),711275.3000001907,B,l,O,l,275,1,283.5,710991.8000001907,7206,WL,B,4.0
6,6.5299999713897705,distr,53470.00002861023,Thu Aug 28 2025 10:34:49 GMT-0500 (Central Daylight Time),711475.4000000954,B,li,O,i,188,1,483.59999990463257,710991.8000001907,7206,WL,B,4.0
6,6.664000034332275,distr,53335.999965667725,Thu Aug 28 2025 10:34:49 GMT-0500 (Central Daylight Time),711608.9000000954,B,lip,O,p,117,1,617.0999999046326,710991.8000001907,7206,WL,B,4.0
6,6.930000066757202,distr,53069.9999332428,Thu Aug 28 2025 10:34:49 GMT-0500 (Central Daylight Time),711875.4000000954,B,lipenter,O,enter,245,1,883.5999999046326,710991.8000001907,7206,WL,B,4.0
6,7.263000011444092,distr,52736.99998855591,Thu Aug 28 2025 10:34:49 GMT-0500 (Central Daylight Time),712208.4000000954,B,c,O,c,327,1,332.7000000476837,711875.7000000477,7206,WL,B,5.0
6,7.380000114440918,distr,52619.99988555908,Thu Aug 28 2025 10:34:49 GMT-0500 (Central Daylight Time),712325.100000143,B,co,O,o,104,1,449.40000009536743,711875.7000000477,7206,WL,B,5.0
6,7.462000131607056,distr,52537.999868392944,Thu Aug 28 2025 10:34:49 GMT-0500 (Central Daylight Time),712407.0,B,coi,O,i,76,1,531.2999999523163,711875.7000000477,7206,WL,B,5.0
6,7.695000171661377,distr,52304.99982833862,Thu Aug 28 2025 10:34:49 GMT-0500 (Central Daylight Time),712640.3000001907,B,coin,O,n,228,1,764.6000001430511,711875.7000000477,7206,WL,B,5.0
6,8.02999997138977,distr,51970.00002861023,Thu Aug 28 2025 10:34:49 GMT-0500 (Central Daylight Time),712975.100000143,B,coinenter,O,enter,317,1,1099.4000000953674,711875.7000000477,7206,WL,B,5.0
6,11.59500002861023,distr,48404.99997138977,Thu Aug 28 2025 10:34:49 GMT-0500 (Central Daylight Time),716540.0,B,c,O,c,3556,1,3564.699999809265,712975.3000001907,7206,WL,B,6.0
6,11.828999996185303,distr,48171.0000038147,Thu Aug 28 2025 10:34:49 GMT-0500 (Central Daylight Time),716773.5,B,ce,O,e,212,1,3798.199999809265,712975.3000001907,7206,WL,B,6.0
6,11.945000171661377,distr,48054.99982833862,Thu Aug 28 2025 10:34:49 GMT-0500 (Central Daylight Time),716890.2000000477,B,cel,O,l,98,1,3914.899999856949,712975.3000001907,7206,WL,B,6.0
6,12.111999988555908,distr,47888.00001144409,Thu Aug 28 2025 10:34:49 GMT-0500 (Central Daylight Time),717056.8000001907,B,cell,O,l,148,1,4081.5,712975.3000001907,7206,WL,B,6.0
6,12.312000036239624,distr,47687.999963760376,Thu Aug 28 2025 10:34:49 GMT-0500 (Central Daylight Time),717257.100000143,B,cellenter,O,enter,191,1,4281.799999952316,712975.3000001907,7206,WL,B,6.0
6,23.308000087738037,distr,36691.99991226196,Thu Aug 28 2025 10:34:49 GMT-0500 (Central Daylight Time),728253.7000000477,B,d,O,d,10986,1,10996.299999952316,717257.4000000954,7206,WL,B,7.0
6,23.390000104904175,distr,36609.999895095825,Thu Aug 28 2025 10:34:49 GMT-0500 (Central Daylight Time),728336.3000001907,B,do,O,o,61,1,11078.900000095367,717257.4000000954,7206,WL,B,7.0
6,23.456000089645386,distr,36543.999910354614,Thu Aug 28 2025 10:34:49 GMT-0500 (Central Daylight Time),728401.9000000954,B,doi,O,i,55,1,11144.5,717257.4000000954,7206,WL,B,7.0
6,23.725000143051147,distr,36274.99985694885,Thu Aug 28 2025 10:34:49 GMT-0500 (Central Daylight Time),728671.2000000477,B,doin,O,n,250,1,11413.799999952316,717257.4000000954,7206,WL,B,7.0
6,24.141000032424927,distr,35858.99996757507,Thu Aug 28 2025 10:34:49 GMT-0500 (Central Daylight Time),729086.9000000954,B,doi,O,backspace,394,1,11829.5,717257.4000000954,7206,WL,B,7.0
6,24.324000120162964,distr,35675.999879837036,Thu Aug 28 2025 10:34:49 GMT-0500 (Central Daylight Time),729269.8000001907,B,do,O,backspace,161,1,12012.400000095367,717257.4000000954,7206,WL,B,7.0
6,24.491000175476074,distr,35508.999824523926,Thu Aug 28 2025 10:34:49 GMT-0500 (Central Daylight Time),729437.2000000477,B,d,O,backspace,157,1,12179.799999952316,717257.4000000954,7206,WL,B,7.0
6,24.758000135421753,distr,35241.99986457825,Thu Aug 28 2025 10:34:49 GMT-0500 (Central Daylight Time),729703.8000001907,B,dc,O,c,249,1,12446.400000095367,717257.4000000954,7206,WL,B,7.0
6,25.256999969482422,distr,34743.00003051758,Thu Aug 28 2025 10:34:49 GMT-0500 (Central Daylight Time),730203.2000000477,B,d,O,backspace,483,1,12945.799999952316,717257.4000000954,7206,WL,B,7.0
6,25.44000005722046,distr,34559.99994277954,Thu Aug 28 2025 10:34:49 GMT-0500 (Central Daylight Time),730386.3000001907,B,,O,backspace,175,1,13128.900000095367,717257.4000000954,7206,WL,B,7.0
6,25.591000080108643,distr,34408.99991989136,Thu Aug 28 2025 10:34:49 GMT-0500 (Central Daylight Time),730536.7000000477,B,c,O,c,135,1,13279.299999952316,717257.4000000954,7206,WL,B,7.0
6,26.307000160217285,distr,33692.999839782715,Thu Aug 28 2025 10:34:49 GMT-0500 (Central Daylight Time),731252.9000000954,B,co,O,o,703,1,13995.5,717257.4000000954,7206,WL,B,7.0
6,26.374000072479248,distr,33625.99992752075,Thu Aug 28 2025 10:34:49 GMT-0500 (Central Daylight Time),731320.2000000477,B,coi,O,i,46,1,14062.799999952316,717257.4000000954,7206,WL,B,7.0
6,26.60800004005432,distr,33391.99995994568,Thu Aug 28 2025 10:34:49 GMT-0500 (Central Daylight Time),731553.7000000477,B,coin,O,n,212,1,14296.299999952316,717257.4000000954,7206,WL,B,7.0
6,27.27400016784668,distr,32725.99983215332,Thu Aug 28 2025 10:34:49 GMT-0500 (Central Daylight Time),732219.8000001907,B,coinenter,O,enter,657,1,14962.400000095367,717257.4000000954,7206,WL,B,7.0
6,37.253000020980835,distr,22746.999979019165,Thu Aug 28 2025 10:34:49 GMT-0500 (Central Daylight Time),742199.2000000477,B,enter,O,enter,9961,1,9979.099999904633,732220.100000143,7206,WL,B,8.0
6,38.15400004386902,distr,21845.99995613098,Thu Aug 28 2025 10:34:49 GMT-0500 (Central Daylight Time),743099.8000001907,B,enter,O,enter,892,1,900.3000001907349,742199.5,7206,WL,B,9.0
6,38.47099995613098,distr,21529.00004386902,Thu Aug 28 2025 10:34:49 GMT-0500 (Central Daylight Time),743416.7000000477,B,enter,O,enter,303,1,316.59999990463257,743100.100000143,7206,WL,B,10.0
6,38.819000005722046,distr,21180.999994277954,Thu Aug 28 2025 10:34:49 GMT-0500 (Central Daylight Time),743765.5,B,enter,O,enter,337,1,348.5,743417.0,7206,WL,B,11.0
6,41.1010000705719,distr,18898.9999294281,Thu Aug 28 2025 10:34:49 GMT-0500 (Central Daylight Time),746047.100000143,B,enter,O,enter,2270,1,2281.4000000953674,743765.7000000477,7206,WL,B,12.0
6,41.75200009346008,distr,18247.999906539917,Thu Aug 28 2025 10:34:49 GMT-0500 (Central Daylight Time),746697.600000143,B,enter,O,enter,644,1,650.2000000476837,746047.4000000954,7206,WL,B,13.0
6,42.13499999046326,distr,17865.000009536743,Thu Aug 28 2025 10:34:49 GMT-0500 (Central Daylight Time),747080.600000143,B,enter,O,enter,377,1,382.7000000476837,746697.9000000954,7206,WL,B,14.0
6,42.55200004577637,distr,17447.999954223633,Thu Aug 28 2025 10:34:49 GMT-0500 (Central Daylight Time),747498.100000143,B,enter,O,enter,401,1,417.2000000476837,747080.9000000954,7206,WL,B,15.0
7,2.433000087738037,immed,57566.99991226196,Thu Aug 28 2025 10:34:49 GMT-0500 (Central Daylight Time),777388.4000000954,A,f,O,f,2422,1,2432.0,774956.4000000954,7206,WL,B,1.0
7,2.615000009536743,immed,57384.99999046326,Thu Aug 28 2025 10:34:49 GMT-0500 (Central Daylight Time),777571.4000000954,A,fi,O,i,165,1,2615.0,774956.4000000954,7206,WL,B,1.0
7,2.7810001373291016,immed,57218.9998626709,Thu Aug 28 2025 10:34:49 GMT-0500 (Central Daylight Time),777738.100000143,A,fir,O,r,148,1,2781.7000000476837,774956.4000000954,7206,WL,B,1.0
7,2.8980000019073486,immed,57101.99999809265,Thu Aug 28 2025 10:34:49 GMT-0500 (Central Daylight Time),777855.2000000477,A,fire,O,e,95,1,2898.7999999523163,774956.4000000954,7206,WL,B,1.0
7,3.064000129699707,immed,56935.99987030029,Thu Aug 28 2025 10:34:49 GMT-0500 (Central Daylight Time),778021.4000000954,A,fireenter,O,enter,146,1,3065.0,774956.4000000954,7206,WL,B,1.0
7,3.682000160217285,immed,56317.999839782715,Thu Aug 28 2025 10:34:49 GMT-0500 (Central Daylight Time),778638.600000143,A,d,O,d,612,1,617.1000001430511,778021.5,7206,WL,B,2.0
7,3.8310000896453857,immed,56168.999910354614,Thu Aug 28 2025 10:34:49 GMT-0500 (Central Daylight Time),778787.600000143,A,do,O,o,133,1,766.1000001430511,778021.5,7206,WL,B,2.0
7,3.998000144958496,immed,56001.999855041504,Thu Aug 28 2025 10:34:49 GMT-0500 (Central Daylight Time),778955.2000000477,A,doo,O,o,150,1,933.7000000476837,778021.5,7206,WL,B,2.0
7,4.115000009536743,immed,55884.99999046326,Thu Aug 28 2025 10:34:49 GMT-0500 (Central Daylight Time),779071.7000000477,A,door,O,r,102,1,1050.2000000476837,778021.5,7206,WL,B,2.0
7,4.2829999923706055,immed,55717.000007629395,Thu Aug 28 2025 10:34:49 GMT-0500 (Central Daylight Time),779239.9000000954,A,doorenter,O,enter,162,1,1218.4000000953674,778021.5,7206,WL,B,2.0
7,4.531000137329102,immed,55468.9998626709,Thu Aug 28 2025 10:34:49 GMT-0500 (Central Daylight Time),779488.100000143,A,s,O,s,243,1,247.90000009536743,779240.2000000477,7206,WL,B,3.0
7,4.749000072479248,immed,55250.99992752075,Thu Aug 28 2025 10:34:49 GMT-0500 (Central Daylight Time),779705.7000000477,A,st,O,t,210,1,465.5,779240.2000000477,7206,WL,B,3.0
7,4.947999954223633,immed,55052.00004577637,Thu Aug 28 2025 10:34:49 GMT-0500 (Central Daylight Time),779904.5,A,str,O,r,184,1,664.2999999523163,779240.2000000477,7206,WL,B,3.0
7,5.064000129699707,immed,54935.99987030029,Thu Aug 28 2025 10:34:49 GMT-0500 (Central Daylight Time),780021.0,A,stre,O,e,96,1,780.7999999523163,779240.2000000477,7206,WL,B,3.0
7,5.264000177383423,immed,54735.99982261658,Thu Aug 28 2025 10:34:49 GMT-0500 (Central Daylight Time),780221.100000143,A,stree,O,e,188,1,980.9000000953674,779240.2000000477,7206,WL,B,3.0
7,5.38100004196167,immed,54618.99995803833,Thu Aug 28 2025 10:34:49 GMT-0500 (Central Daylight Time),780337.7000000477,A,street,O,t,101,1,1097.5,779240.2000000477,7206,WL,B,3.0
7,5.531000137329102,immed,54468.9998626709,Thu Aug 28 2025 10:34:49 GMT-0500 (Central Daylight Time),780488.3000001907,A,streetenter,O,enter,145,1,1248.1000001430511,779240.2000000477,7206,WL,B,3.0
7,6.446000099182129,immed,53553.99990081787,Thu Aug 28 2025 10:34:49 GMT-0500 (Central Daylight Time),781402.7000000477,A,g,O,g,905,1,914.2000000476837,780488.5,7206,WL,B,4.0
7,6.731000185012817,immed,53268.99981498718,Thu Aug 28 2025 10:34:49 GMT-0500 (Central Daylight Time),781688.2000000477,A,gr,O,r,266,1,1199.7000000476837,780488.5,7206,WL,B,4.0
7,6.930999994277954,immed,53069.000005722046,Thu Aug 28 2025 10:34:49 GMT-0500 (Central Daylight Time),781887.600000143,A,gra,O,a,184,1,1399.1000001430511,780488.5,7206,WL,B,4.0
7,7.213000059127808,immed,52786.99994087219,Thu Aug 28 2025 10:34:49 GMT-0500 (Central Daylight Time),782169.7000000477,A,gras,O,s,267,1,1681.2000000476837,780488.5,7206,WL,B,4.0
7,7.4120001792907715,immed,52587.99982070923,Thu Aug 28 2025 10:34:49 GMT-0500 (Central Daylight Time),782369.2000000477,A,grass,O,s,184,1,1880.7000000476837,780488.5,7206,WL,B,4.0
7,7.562999963760376,immed,52437.000036239624,Thu Aug 28 2025 10:34:49 GMT-0500 (Central Daylight Time),782520.2000000477,A,grassenter,O,enter,137,1,2031.7000000476837,780488.5,7206,WL,B,4.0
7,7.797000169754028,immed,52202.99983024597,Thu Aug 28 2025 10:34:49 GMT-0500 (Central Daylight Time),782754.0,A,w,O,w,219,1,233.5,782520.5,7206,WL,B,5.0
7,7.947000026702881,immed,52052.99997329712,Thu Aug 28 2025 10:34:49 GMT-0500 (Central Daylight Time),782903.9000000954,A,wi,O,i,134,1,383.40000009536743,782520.5,7206,WL,B,5.0
7,8.164000034332275,immed,51835.999965667725,Thu Aug 28 2025 10:34:49 GMT-0500 (Central Daylight Time),783120.7000000477,A,win,O,n,210,1,600.2000000476837,782520.5,7206,WL,B,5.0
7,8.263000011444092,immed,51736.99998855591,Thu Aug 28 2025 10:34:49 GMT-0500 (Central Daylight Time),783219.600000143,A,wind,O,d,89,1,699.1000001430511,782520.5,7206,WL,B,5.0
7,8.42900013923645,immed,51570.99986076355,Thu Aug 28 2025 10:34:49 GMT-0500 (Central Daylight Time),783386.2000000477,A,windo,O,o,149,1,865.7000000476837,782520.5,7206,WL,B,5.0
7,8.52999997138977,immed,51470.00002861023,Thu Aug 28 2025 10:34:49 GMT-0500 (Central Daylight Time),783486.5,A,window,O,w,80,1,966.0,782520.5,7206,WL,B,5.0
7,8.712000131607056,immed,51287.999868392944,Thu Aug 28 2025 10:34:49 GMT-0500 (Central Daylight Time),783668.600000143,A,windowenter,O,enter,170,1,1148.1000001430511,782520.5,7206,WL,B,5.0
7,8.96399998664856,immed,51036.00001335144,Thu Aug 28 2025 10:34:49 GMT-0500 (Central Daylight Time),783920.9000000954,A,w,O,w,247,1,252.20000004768372,783668.7000000477,7206,WL,B,6.0
7,9.095999956130981,immed,50904.00004386902,Thu Aug 28 2025 10:34:49 GMT-0500 (Central Daylight Time),784052.9000000954,A,wi,O,i,114,1,384.2000000476837,783668.7000000477,7206,WL,B,6.0
7,9.26200008392334,immed,50737.99991607666,Thu Aug 28 2025 10:34:49 GMT-0500 (Central Daylight Time),784219.3000001907,A,wif,O,f,148,1,550.6000001430511,783668.7000000477,7206,WL,B,6.0
7,9.413000106811523,immed,50586.99989318848,Thu Aug 28 2025 10:34:49 GMT-0500 (Central Daylight Time),784370.100000143,A,wife,O,e,136,1,701.4000000953674,783668.7000000477,7206,WL,B,6.0
7,9.564000129699707,immed,50435.99987030029,Thu Aug 28 2025 10:34:49 GMT-0500 (Central Daylight Time),784520.9000000954,A,wifeenter,O,enter,145,1,852.2000000476837,783668.7000000477,7206,WL,B,6.0
7,10.212000131607056,immed,49787.999868392944,Thu Aug 28 2025 10:34:49 GMT-0500 (Central Daylight Time),785169.0,A,s,O,s,634,1,647.7999999523163,784521.2000000477,7206,WL,B,7.0
7,10.397000074386597,immed,49602.9999256134,Thu Aug 28 2025 10:34:49 GMT-0500 (Central Daylight Time),785353.5,A,st,O,t,177,1,832.2999999523163,784521.2000000477,7206,WL,B,7.0
7,10.629000186920166,immed,49370.999813079834,Thu Aug 28 2025 10:34:49 GMT-0500 (Central Daylight Time),785585.8000001907,A,sta,O,a,215,1,1064.6000001430511,784521.2000000477,7206,WL,B,7.0
7,10.695000171661377,immed,49304.99982833862,Thu Aug 28 2025 10:34:49 GMT-0500 (Central Daylight Time),785652.100000143,A,star,O,r,49,1,1130.9000000953674,784521.2000000477,7206,WL,B,7.0
7,10.861999988555908,immed,49138.00001144409,Thu Aug 28 2025 10:34:49 GMT-0500 (Central Daylight Time),785818.600000143,A,starenter,O,enter,150,1,1297.4000000953674,784521.2000000477,7206,WL,B,7.0
7,11.144000053405762,immed,48855.99994659424,Thu Aug 28 2025 10:34:49 GMT-0500 (Central Daylight Time),786100.8000001907,A,c,O,c,264,1,282.10000014305115,785818.7000000477,7206,WL,B,8.0
7,11.32800006866455,immed,48671.99993133545,Thu Aug 28 2025 10:34:49 GMT-0500 (Central Daylight Time),786285.0,A,ci,O,i,174,1,466.2999999523163,785818.7000000477,7206,WL,B,8.0
7,11.460999965667725,immed,48539.000034332275,Thu Aug 28 2025 10:34:49 GMT-0500 (Central Daylight Time),786418.100000143,A,cit,O,t,115,1,599.4000000953674,785818.7000000477,7206,WL,B,8.0
7,11.59500002861023,immed,48404.99997138977,Thu Aug 28 2025 10:34:49 GMT-0500 (Central Daylight Time),786552.4000000954,A,city,O,y,120,1,733.7000000476837,785818.7000000477,7206,WL,B,8.0
7,11.828999996185303,immed,48171.0000038147,Thu Aug 28 2025 10:34:49 GMT-0500 (Central Daylight Time),786785.600000143,A,cityenter,O,enter,226,1,966.9000000953674,785818.7000000477,7206,WL,B,8.0
7,12.212000131607056,immed,47787.999868392944,Thu Aug 28 2025 10:34:49 GMT-0500 (Central Daylight Time),787169.100000143,A,c,O,c,370,1,383.2999999523163,786785.8000001907,7206,WL,B,9.0
7,12.462000131607056,immed,47537.999868392944,Thu Aug 28 2025 10:34:49 GMT-0500 (Central Daylight Time),787418.8000001907,A,ca,O,a,232,1,633.0,786785.8000001907,7206,WL,B,9.0
7,12.644000053405762,immed,47355.99994659424,Thu Aug 28 2025 10:34:49 GMT-0500 (Central Daylight Time),787601.4000000954,A,cab,O,b,175,1,815.5999999046326,786785.8000001907,7206,WL,B,9.0
7,12.795000076293945,immed,47204.999923706055,Thu Aug 28 2025 10:34:49 GMT-0500 (Central Daylight Time),787752.3000001907,A,cabi,O,i,127,1,966.5,786785.8000001907,7206,WL,B,9.0
7,12.945000171661377,immed,47054.99982833862,Thu Aug 28 2025 10:34:49 GMT-0500 (Central Daylight Time),787901.5,A,cabin,O,n,138,1,1115.6999998092651,786785.8000001907,7206,WL,B,9.0
7,13.127000093460083,immed,46872.99990653992,Thu Aug 28 2025 10:34:49 GMT-0500 (Central Daylight Time),788083.5,A,cabinenter,O,enter,163,1,1297.6999998092651,786785.8000001907,7206,WL,B,9.0
7,13.394999980926514,immed,46605.000019073486,Thu Aug 28 2025 10:34:49 GMT-0500 (Central Daylight Time),788352.0,A,l,O,l,265,1,268.2999999523163,788083.7000000477,7206,WL,B,10.0
7,13.511000156402588,immed,46488.99984359741,Thu Aug 28 2025 10:34:49 GMT-0500 (Central Daylight Time),788468.3000001907,A,la,O,a,105,1,384.60000014305115,788083.7000000477,7206,WL,B,10.0
7,13.694000005722046,immed,46305.999994277954,Thu Aug 28 2025 10:34:49 GMT-0500 (Central Daylight Time),788651.0,A,lak,O,k,161,1,567.2999999523163,788083.7000000477,7206,WL,B,10.0
7,13.812000036239624,immed,46187.999963760376,Thu Aug 28 2025 10:34:49 GMT-0500 (Central Daylight Time),788768.7000000477,A,lake,O,e,98,1,685.0,788083.7000000477,7206,WL,B,10.0
7,13.979000091552734,immed,46020.999908447266,Thu Aug 28 2025 10:34:49 GMT-0500 (Central Daylight Time),788935.5,A,lakeenter,O,enter,145,1,851.7999999523163,788083.7000000477,7206,WL,B,10.0
7,14.49399995803833,immed,45506.00004196167,Thu Aug 28 2025 10:34:49 GMT-0500 (Central Daylight Time),789451.2000000477,A,a,O,a,508,1,515.5,788935.7000000477,7206,WL,B,11.0
7,14.628000020980835,immed,45371.999979019165,Thu Aug 28 2025 10:34:49 GMT-0500 (Central Daylight Time),789584.600000143,A,ar,O,r,118,1,648.9000000953674,788935.7000000477,7206,WL,B,11.0
7,14.861000061035156,immed,45138.999938964844,Thu Aug 28 2025 10:34:49 GMT-0500 (Central Daylight Time),789817.8000001907,A,arm,O,m,218,1,882.1000001430511,788935.7000000477,7206,WL,B,11.0
7,15.045000076293945,immed,44954.999923706055,Thu Aug 28 2025 10:34:49 GMT-0500 (Central Daylight Time),790001.7000000477,A,armenter,O,enter,163,1,1066.0,788935.7000000477,7206,WL,B,11.0
7,15.261000156402588,immed,44738.99984359741,Thu Aug 28 2025 10:34:49 GMT-0500 (Central Daylight Time),790217.600000143,A,s,O,s,201,1,215.60000014305115,790002.0,7206,WL,B,12.0
7,15.377000093460083,immed,44622.99990653992,Thu Aug 28 2025 10:34:49 GMT-0500 (Central Daylight Time),790334.3000001907,A,sk,O,k,102,1,332.30000019073486,790002.0,7206,WL,B,12.0
7,15.594000101089478,immed,44405.99989891052,Thu Aug 28 2025 10:34:49 GMT-0500 (Central Daylight Time),790551.3000001907,A,ski,O,i,211,1,549.3000001907349,790002.0,7206,WL,B,12.0
7,15.74399995803833,immed,44256.00004196167,Thu Aug 28 2025 10:34:49 GMT-0500 (Central Daylight Time),790700.7000000477,A,skin,O,n,141,1,698.7000000476837,790002.0,7206,WL,B,12.0
7,15.944000005722046,immed,44055.999994277954,Thu Aug 28 2025 10:34:49 GMT-0500 (Central Daylight Time),790900.8000001907,A,skinenter,O,enter,188,1,898.8000001907349,790002.0,7206,WL,B,12.0
7,16.294000148773193,immed,43705.99985122681,Thu Aug 28 2025 10:34:49 GMT-0500 (Central Daylight Time),791250.9000000954,A,p,O,p,334,1,349.7999999523163,790901.100000143,7206,WL,B,13.0
7,16.509999990463257,immed,43490.00000953674,Thu Aug 28 2025 10:34:49 GMT-0500 (Central Daylight Time),791466.8000001907,A,pu,O,u,208,1,565.7000000476837,790901.100000143,7206,WL,B,13.0
7,16.710000038146973,immed,43289.99996185303,Thu Aug 28 2025 10:34:49 GMT-0500 (Central Daylight Time),791666.5,A,pup,O,p,183,1,765.3999998569489,790901.100000143,7206,WL,B,13.0
7,17.127000093460083,immed,42872.99990653992,Thu Aug 28 2025 10:34:49 GMT-0500 (Central Daylight Time),792083.8000001907,A,pupl,O,l,400,1,1182.7000000476837,790901.100000143,7206,WL,B,13.0
7,17.561000108718872,immed,42438.99989128113,Thu Aug 28 2025 10:34:49 GMT-0500 (Central Daylight Time),792517.600000143,A,pup,O,backspace,414,1,1616.5,790901.100000143,7206,WL,B,13.0
7,17.89400005340576,immed,42105.99994659424,Thu Aug 28 2025 10:34:49 GMT-0500 (Central Daylight Time),792851.100000143,A,pupi,O,i,329,1,1950.0,790901.100000143,7206,WL,B,13.0
7,18.12600016593933,immed,41873.99983406067,Thu Aug 28 2025 10:34:49 GMT-0500 (Central Daylight Time),793083.3000001907,A,pupil,O,l,223,1,2182.2000000476837,790901.100000143,7206,WL,B,13.0
7,18.342000007629395,immed,41657.999992370605,Thu Aug 28 2025 10:34:49 GMT-0500 (Central Daylight Time),793298.9000000954,A,pupilenter,O,enter,207,1,2397.7999999523163,790901.100000143,7206,WL,B,13.0
7,18.55900001525879,immed,41440.99998474121,Thu Aug 28 2025 10:34:49 GMT-0500 (Central Daylight Time),793515.7000000477,A,w,O,w,200,1,216.59999990463257,793299.100000143,7206,WL,B,14.0
7,18.676000118255615,immed,41323.999881744385,Thu Aug 28 2025 10:34:49 GMT-0500 (Central Daylight Time),793633.0,A,wi,O,i,111,1,333.89999985694885,793299.100000143,7206,WL,B,14.0
7,18.8270001411438,immed,41172.9998588562,Thu Aug 28 2025 10:34:49 GMT-0500 (Central Daylight Time),793783.4000000954,A,wif,O,f,136,1,484.2999999523163,793299.100000143,7206,WL,B,14.0
