block_c,block_dur,condition,countdown,datetime,endtime,list,multichar_response,project,response,response_time,session_number,start_end,starttime,subject_id,task,task_vers,trial
,,,,Mon Jan 12 2026 15:27:18 GMT-0600 (Central Standard Time),,,,O,space,487,1,,,7741,WL,B,
prac,,0,,Mon Jan 12 2026 15:27:18 GMT-0600 (Central Standard Time),,NA,b,O,b,2269,1,,,7741,WL,B,1.0
prac,,0,,Mon Jan 12 2026 15:27:18 GMT-0600 (Central Standard Time),,NA,bo,O,o,177,1,,,7741,WL,B,1.0
prac,,0,,Mon Jan 12 2026 15:27:18 GMT-0600 (Central Standard Time),,NA,boo,O,o,120,1,,,7741,WL,B,1.0
prac,,0,,Mon Jan 12 2026 15:27:18 GMT-0600 (Central Standard Time),,NA,boos,O,s,931,1,,,7741,WL,B,1.0
prac,,0,,Mon Jan 12 2026 15:27:18 GMT-0600 (Central Standard Time),,NA,boost,O,t,389,1,,,7741,WL,B,1.0
prac,,0,,Mon Jan 12 2026 15:27:18 GMT-0600 (Central Standard Time),,NA,boostenter,O,enter,3827,1,,,7741,WL,B,1.0
1,1.432999849319458,learn,58567.00015068054,Mon Jan 12 2026 15:27:18 GMT-0600 (Central Standard Time),115607.5,A,s,O,s,1422,1,1432.7000000476837,114174.79999995232,7741,WL,B,1.0
1,1.7170000076293945,learn,58282.999992370605,Mon Jan 12 2026 15:27:18 GMT-0600 (Central Standard Time),115891.20000004768,A,st,O,t,262,1,1716.4000000953674,114174.79999995232,7741,WL,B,1.0
1,1.9670000076293945,learn,58032.999992370605,Mon Jan 12 2026 15:27:18 GMT-0600 (Central Standard Time),116140.90000009537,A,str,O,r,240,1,1966.1000001430511,114174.79999995232,7741,WL,B,1.0
1,2.317999839782715,learn,57682.000160217285,Mon Jan 12 2026 15:27:18 GMT-0600 (Central Standard Time),116492.10000014305,A,stre,O,e,336,1,2317.300000190735,114174.79999995232,7741,WL,B,1.0
1,2.4830000400543213,learn,57516.99995994568,Mon Jan 12 2026 15:27:18 GMT-0600 (Central Standard Time),116657.90000009537,A,stree,O,e,154,1,2483.100000143051,114174.79999995232,7741,WL,B,1.0
1,2.932999849319458,learn,57067.00015068054,Mon Jan 12 2026 15:27:18 GMT-0600 (Central Standard Time),117107.29999995232,A,street,O,t,443,1,2932.5,114174.79999995232,7741,WL,B,1.0
1,6.267999887466431,learn,53732.00011253357,Mon Jan 12 2026 15:27:18 GMT-0600 (Central Standard Time),120442.70000004768,A,streetenter,O,enter,3332,1,6267.900000095367,114174.79999995232,7741,WL,B,1.0
1,6.9649999141693115,learn,53035.00008583069,Mon Jan 12 2026 15:27:18 GMT-0600 (Central Standard Time),121139.79999995232,A,d,O,d,683,1,696.7999999523163,120443.0,7741,WL,B,2.0
1,7.165999889373779,learn,52834.00011062622,Mon Jan 12 2026 15:27:18 GMT-0600 (Central Standard Time),121339.90000009537,A,do,O,o,186,1,896.9000000953674,120443.0,7741,WL,B,2.0
1,7.315999984741211,learn,52684.00001525879,Mon Jan 12 2026 15:27:18 GMT-0600 (Central Standard Time),121489.90000009537,A,doo,O,o,138,1,1046.9000000953674,120443.0,7741,WL,B,2.0
1,7.799999952316284,learn,52200.000047683716,Mon Jan 12 2026 15:27:18 GMT-0600 (Central Standard Time),121974.90000009537,A,door,O,r,476,1,1531.9000000953674,120443.0,7741,WL,B,2.0
1,8.414000034332275,learn,51585.999965667725,Mon Jan 12 2026 15:27:18 GMT-0600 (Central Standard Time),122588.70000004768,A,doorenter,O,enter,597,1,2145.7000000476837,120443.0,7741,WL,B,2.0
1,9.532000064849854,learn,50467.99993515015,Mon Jan 12 2026 15:27:18 GMT-0600 (Central Standard Time),123706.10000014305,A,g,O,g,1097,1,1117.2000000476837,122588.90000009537,7741,WL,B,3.0
1,9.747999906539917,learn,50252.00009346008,Mon Jan 12 2026 15:27:18 GMT-0600 (Central Standard Time),123922.70000004768,A,gr,O,r,201,1,1333.7999999523163,122588.90000009537,7741,WL,B,3.0
1,10.483000040054321,learn,49516.99995994568,Mon Jan 12 2026 15:27:18 GMT-0600 (Central Standard Time),124657.0,A,gra,O,a,715,1,2068.0999999046326,122588.90000009537,7741,WL,B,3.0
1,10.796000003814697,learn,49203.9999961853,Mon Jan 12 2026 15:27:18 GMT-0600 (Central Standard Time),124970.90000009537,A,gras,O,s,301,1,2382.0,122588.90000009537,7741,WL,B,3.0
1,10.998999834060669,learn,49001.00016593933,Mon Jan 12 2026 15:27:18 GMT-0600 (Central Standard Time),125172.90000009537,A,grass,O,s,187,1,2584.0,122588.90000009537,7741,WL,B,3.0
1,11.763000011444092,learn,48236.99998855591,Mon Jan 12 2026 15:27:18 GMT-0600 (Central Standard Time),125937.79999995232,A,grassenter,O,enter,744,1,3348.899999856949,122588.90000009537,7741,WL,B,3.0
1,12.263999938964844,learn,47736.000061035156,Mon Jan 12 2026 15:27:18 GMT-0600 (Central Standard Time),126438.90000009537,A,w,O,w,491,1,500.7999999523163,125938.10000014305,7741,WL,B,4.0
1,12.398000001907349,learn,47601.99999809265,Mon Jan 12 2026 15:27:18 GMT-0600 (Central Standard Time),126572.5,A,wi,O,i,127,1,634.3999998569489,125938.10000014305,7741,WL,B,4.0
1,12.61299991607666,learn,47387.00008392334,Mon Jan 12 2026 15:27:18 GMT-0600 (Central Standard Time),126787.20000004768,A,win,O,n,208,1,849.0999999046326,125938.10000014305,7741,WL,B,4.0
1,13.030999898910522,learn,46969.00010108948,Mon Jan 12 2026 15:27:18 GMT-0600 (Central Standard Time),127205.40000009537,A,wind,O,d,402,1,1267.2999999523163,125938.10000014305,7741,WL,B,4.0
1,13.11299991607666,learn,46887.00008392334,Mon Jan 12 2026 15:27:18 GMT-0600 (Central Standard Time),127287.20000004768,A,windo,O,o,72,1,1349.0999999046326,125938.10000014305,7741,WL,B,4.0
1,13.513000011444092,learn,46486.99998855591,Mon Jan 12 2026 15:27:18 GMT-0600 (Central Standard Time),127687.29999995232,A,window,O,w,383,1,1749.1999998092651,125938.10000014305,7741,WL,B,4.0
1,13.978999853134155,learn,46021.000146865845,Mon Jan 12 2026 15:27:18 GMT-0600 (Central Standard Time),128153.60000014305,A,windowenter,O,enter,447,1,2215.5,125938.10000014305,7741,WL,B,4.0
1,15.213000059127808,learn,44786.99994087219,Mon Jan 12 2026 15:27:18 GMT-0600 (Central Standard Time),129387.0,A,w,O,w,1227,1,1233.2000000476837,128153.79999995232,7741,WL,B,5.0
1,15.294999837875366,learn,44705.000162124634,Mon Jan 12 2026 15:27:18 GMT-0600 (Central Standard Time),129468.90000009537,A,wi,O,i,73,1,1315.1000001430511,128153.79999995232,7741,WL,B,5.0
1,15.546000003814697,learn,44453.9999961853,Mon Jan 12 2026 15:27:18 GMT-0600 (Central Standard Time),129720.79999995232,A,wif,O,f,234,1,1567.0,128153.79999995232,7741,WL,B,5.0
1,15.861999988555908,learn,44138.00001144409,Mon Jan 12 2026 15:27:18 GMT-0600 (Central Standard Time),130036.70000004768,A,wife,O,e,301,1,1882.9000000953674,128153.79999995232,7741,WL,B,5.0
1,16.213000059127808,learn,43786.99994087219,Mon Jan 12 2026 15:27:18 GMT-0600 (Central Standard Time),130387.20000004768,A,wifeenter,O,enter,338,1,2233.4000000953674,128153.79999995232,7741,WL,B,5.0
1,23.628000020980835,learn,36371.999979019165,Mon Jan 12 2026 15:27:18 GMT-0600 (Central Standard Time),137801.90000009537,A,c,O,c,7402,1,7414.400000095367,130387.5,7741,WL,B,6.0
1,23.89299988746643,learn,36107.00011253357,Mon Jan 12 2026 15:27:18 GMT-0600 (Central Standard Time),138067.40000009537,A,ca,O,a,252,1,7679.900000095367,130387.5,7741,WL,B,6.0
1,24.22699999809265,learn,35773.00000190735,Mon Jan 12 2026 15:27:18 GMT-0600 (Central Standard Time),138401.10000014305,A,cab,O,b,322,1,8013.600000143051,130387.5,7741,WL,B,6.0
1,24.29200005531311,learn,35707.99994468689,Mon Jan 12 2026 15:27:18 GMT-0600 (Central Standard Time),138466.70000004768,A,cabi,O,i,60,1,8079.200000047684,130387.5,7741,WL,B,6.0
1,24.526000022888184,learn,35473.99997711182,Mon Jan 12 2026 15:27:18 GMT-0600 (Central Standard Time),138700.5,A,cabin,O,n,219,1,8313.0,130387.5,7741,WL,B,6.0
1,24.924999952316284,learn,35075.000047683716,Mon Jan 12 2026 15:27:18 GMT-0600 (Central Standard Time),139099.79999995232,A,cabinenter,O,enter,394,1,8712.299999952316,130387.5,7741,WL,B,6.0
1,25.55900001525879,learn,34440.99998474121,Mon Jan 12 2026 15:27:18 GMT-0600 (Central Standard Time),139733.60000014305,A,l,O,l,627,1,633.6000001430511,139100.0,7741,WL,B,7.0
1,25.80900001525879,learn,34190.99998474121,Mon Jan 12 2026 15:27:18 GMT-0600 (Central Standard Time),139983.70000004768,A,la,O,a,240,1,883.7000000476837,139100.0,7741,WL,B,7.0
1,26.05999994277954,learn,33940.00005722046,Mon Jan 12 2026 15:27:18 GMT-0600 (Central Standard Time),140234.10000014305,A,lak,O,k,231,1,1134.1000001430511,139100.0,7741,WL,B,7.0
1,26.358999967575073,learn,33641.00003242493,Mon Jan 12 2026 15:27:18 GMT-0600 (Central Standard Time),140533.20000004768,A,lake,O,e,293,1,1433.2000000476837,139100.0,7741,WL,B,7.0
1,26.608999967575073,learn,33391.00003242493,Mon Jan 12 2026 15:27:18 GMT-0600 (Central Standard Time),140783.70000004768,A,lakeenter,O,enter,242,1,1683.7000000476837,139100.0,7741,WL,B,7.0
1,27.108999967575073,learn,32891.00003242493,Mon Jan 12 2026 15:27:18 GMT-0600 (Central Standard Time),141283.90000009537,A,p,O,p,477,1,499.90000009536743,140784.0,7741,WL,B,8.0
1,27.358999967575073,learn,32641.000032424927,Mon Jan 12 2026 15:27:18 GMT-0600 (Central Standard Time),141533.0,A,pi,O,i,235,1,749.0,140784.0,7741,WL,B,8.0
1,27.575999975204468,learn,32424.000024795532,Mon Jan 12 2026 15:27:18 GMT-0600 (Central Standard Time),141750.60000014305,A,pip,O,p,210,1,966.6000001430511,140784.0,7741,WL,B,8.0
1,28.007999897003174,learn,31992.000102996826,Mon Jan 12 2026 15:27:18 GMT-0600 (Central Standard Time),142182.20000004768,A,pipe,O,e,416,1,1398.2000000476837,140784.0,7741,WL,B,8.0
1,28.509000062942505,learn,31490.999937057495,Mon Jan 12 2026 15:27:18 GMT-0600 (Central Standard Time),142683.10000014305,A,pipeenter,O,enter,479,1,1899.1000001430511,140784.0,7741,WL,B,8.0
1,29.542999982833862,learn,30457.000017166138,Mon Jan 12 2026 15:27:18 GMT-0600 (Central Standard Time),143717.0,A,l,O,l,1019,1,1033.7000000476837,142683.29999995232,7741,WL,B,9.0
1,29.807999849319458,learn,30192.000150680542,Mon Jan 12 2026 15:27:18 GMT-0600 (Central Standard Time),143982.70000004768,A,la,O,a,256,1,1299.4000000953674,142683.29999995232,7741,WL,B,9.0
1,29.95799994468689,learn,30042.00005531311,Mon Jan 12 2026 15:27:18 GMT-0600 (Central Standard Time),144132.40000009537,A,lak,O,k,134,1,1449.1000001430511,142683.29999995232,7741,WL,B,9.0
1,30.35699987411499,learn,29643.00012588501,Mon Jan 12 2026 15:27:18 GMT-0600 (Central Standard Time),144531.79999995232,A,lake,O,e,386,1,1848.5,142683.29999995232,7741,WL,B,9.0
1,31.241999864578247,learn,28758.000135421753,Mon Jan 12 2026 15:27:18 GMT-0600 (Central Standard Time),145416.20000004768,A,lakeenter,O,enter,867,1,2732.9000000953674,142683.29999995232,7741,WL,B,9.0
1,34.507999897003174,learn,25492.000102996826,Mon Jan 12 2026 15:27:18 GMT-0600 (Central Standard Time),148682.60000014305,A,c,O,c,3245,1,3266.2000000476837,145416.40000009537,7741,WL,B,10.0
1,34.60599994659424,learn,25394.00005340576,Mon Jan 12 2026 15:27:18 GMT-0600 (Central Standard Time),148780.40000009537,A,ci,O,i,82,1,3364.0,145416.40000009537,7741,WL,B,10.0
1,35.05799984931946,learn,24942.000150680542,Mon Jan 12 2026 15:27:18 GMT-0600 (Central Standard Time),149232.5,A,cit,O,t,442,1,3816.0999999046326,145416.40000009537,7741,WL,B,10.0
1,35.12299990653992,learn,24877.000093460083,Mon Jan 12 2026 15:27:18 GMT-0600 (Central Standard Time),149296.90000009537,A,city,O,y,45,1,3880.5,145416.40000009537,7741,WL,B,10.0
1,35.79099988937378,learn,24209.00011062622,Mon Jan 12 2026 15:27:18 GMT-0600 (Central Standard Time),149965.10000014305,A,cityenter,O,enter,661,1,4548.700000047684,145416.40000009537,7741,WL,B,10.0
1,36.37299990653992,learn,23627.000093460083,Mon Jan 12 2026 15:27:18 GMT-0600 (Central Standard Time),150547.20000004768,A,p,O,p,571,1,581.9000000953674,149965.29999995232,7741,WL,B,11.0
1,36.63800001144409,learn,23361.99998855591,Mon Jan 12 2026 15:27:18 GMT-0600 (Central Standard Time),150812.90000009537,A,pu,O,u,251,1,847.6000001430511,149965.29999995232,7741,WL,B,11.0
1,37.039000034332275,learn,22960.999965667725,Mon Jan 12 2026 15:27:18 GMT-0600 (Central Standard Time),151213.10000014305,A,pup,O,p,386,1,1247.8000001907349,149965.29999995232,7741,WL,B,11.0
1,37.30999994277954,learn,22690.00005722046,Mon Jan 12 2026 15:27:18 GMT-0600 (Central Standard Time),151484.40000009537,A,pupi,O,i,259,1,1519.1000001430511,149965.29999995232,7741,WL,B,11.0
1,37.625,learn,22375.0,Mon Jan 12 2026 15:27:18 GMT-0600 (Central Standard Time),151799.20000004768,A,pupil,O,l,309,1,1833.9000000953674,149965.29999995232,7741,WL,B,11.0
1,38.187999963760376,learn,21812.000036239624,Mon Jan 12 2026 15:27:18 GMT-0600 (Central Standard Time),152362.79999995232,A,pupilenter,O,enter,549,1,2397.5,149965.29999995232,7741,WL,B,11.0
1,48.168999910354614,learn,11831.000089645386,Mon Jan 12 2026 15:27:18 GMT-0600 (Central Standard Time),162343.10000014305,A,a,O,a,9971,1,9980.0,152363.10000014305,7741,WL,B,12.0
1,48.668999910354614,learn,11331.000089645386,Mon Jan 12 2026 15:27:18 GMT-0600 (Central Standard Time),162843.5,A,ar,O,r,484,1,10480.399999856949,152363.10000014305,7741,WL,B,12.0
1,49.01799988746643,learn,10982.00011253357,Mon Jan 12 2026 15:27:18 GMT-0600 (Central Standard Time),163192.20000004768,A,arm,O,m,335,1,10829.099999904633,152363.10000014305,7741,WL,B,12.0
1,49.78499984741211,learn,10215.00015258789,Mon Jan 12 2026 15:27:18 GMT-0600 (Central Standard Time),163959.70000004768,A,armenter,O,enter,756,1,11596.599999904633,152363.10000014305,7741,WL,B,12.0
1,60.020999908447266,learn,-20.999908447265625,Mon Jan 12 2026 15:27:18 GMT-0600 (Central Standard Time),174195.79999995232,A,None,O,None,10231,1,10235.899999856949,163959.90000009537,7741,WL,B,13.0
2,1.2000000476837158,learn,58799.999952316284,Mon Jan 12 2026 15:27:18 GMT-0600 (Central Standard Time),246449.90000009537,A,s,O,s,1189,1,1200.2000000476837,245249.70000004768,7741,WL,B,1.0
2,1.567000150680542,learn,58432.99984931946,Mon Jan 12 2026 15:27:18 GMT-0600 (Central Standard Time),246816.29999995232,A,st,O,t,346,1,1566.5999999046326,245249.70000004768,7741,WL,B,1.0
2,1.7840001583099365,learn,58215.99984169006,Mon Jan 12 2026 15:27:18 GMT-0600 (Central Standard Time),247033.10000014305,A,str,O,r,205,1,1783.4000000953674,245249.70000004768,7741,WL,B,1.0
2,2.134000062942505,learn,57865.999937057495,Mon Jan 12 2026 15:27:18 GMT-0600 (Central Standard Time),247383.10000014305,A,stre,O,e,332,1,2133.4000000953674,245249.70000004768,7741,WL,B,1.0
2,2.3010001182556152,learn,57698.999881744385,Mon Jan 12 2026 15:27:18 GMT-0600 (Central Standard Time),247550.90000009537,A,stree,O,e,159,1,2301.2000000476837,245249.70000004768,7741,WL,B,1.0
2,2.752000093460083,learn,57247.99990653992,Mon Jan 12 2026 15:27:18 GMT-0600 (Central Standard Time),248001.60000014305,A,street,O,t,432,1,2751.9000000953674,245249.70000004768,7741,WL,B,1.0
2,3.2660000324249268,learn,56733.99996757507,Mon Jan 12 2026 15:27:18 GMT-0600 (Central Standard Time),248515.20000004768,A,streetenter,O,enter,509,1,3265.5,245249.70000004768,7741,WL,B,1.0
2,4.164999961853027,learn,55835.00003814697,Mon Jan 12 2026 15:27:18 GMT-0600 (Central Standard Time),249415.0,A,g,O,g,882,1,899.3999998569489,248515.60000014305,7741,WL,B,2.0
2,4.365000009536743,learn,55634.99999046326,Mon Jan 12 2026 15:27:18 GMT-0600 (Central Standard Time),249614.70000004768,A,gr,O,r,182,1,1099.0999999046326,248515.60000014305,7741,WL,B,2.0
2,4.615000009536743,learn,55384.99999046326,Mon Jan 12 2026 15:27:18 GMT-0600 (Central Standard Time),249864.5,A,gra,O,a,240,1,1348.8999998569489,248515.60000014305,7741,WL,B,2.0
2,4.966000080108643,learn,55033.99991989136,Mon Jan 12 2026 15:27:18 GMT-0600 (Central Standard Time),250215.20000004768,A,gras,O,s,334,1,1699.5999999046326,248515.60000014305,7741,WL,B,2.0
2,5.14900016784668,learn,54850.99983215332,Mon Jan 12 2026 15:27:18 GMT-0600 (Central Standard Time),250398.20000004768,A,grass,O,s,164,1,1882.5999999046326,248515.60000014305,7741,WL,B,2.0
2,5.5320000648498535,learn,54467.99993515015,Mon Jan 12 2026 15:27:18 GMT-0600 (Central Standard Time),250781.0,A,grassenter,O,enter,367,1,2265.399999856949,248515.60000014305,7741,WL,B,2.0
2,6.480999946594238,learn,53519.00005340576,Mon Jan 12 2026 15:27:18 GMT-0600 (Central Standard Time),251730.60000014305,A,a,O,a,937,1,949.3000001907349,250781.29999995232,7741,WL,B,3.0
2,6.7820000648498535,learn,53217.99993515015,Mon Jan 12 2026 15:27:18 GMT-0600 (Central Standard Time),252031.40000009537,A,ar,O,r,283,1,1250.1000001430511,250781.29999995232,7741,WL,B,3.0
2,7.881999969482422,learn,52118.00003051758,Mon Jan 12 2026 15:27:18 GMT-0600 (Central Standard Time),253131.5,A,arm,O,m,1087,1,2350.2000000476837,250781.29999995232,7741,WL,B,3.0
2,8.347000122070312,learn,51652.99987792969,Mon Jan 12 2026 15:27:18 GMT-0600 (Central Standard Time),253596.60000014305,A,armenter,O,enter,451,1,2815.300000190735,250781.29999995232,7741,WL,B,3.0
2,8.980999946594238,learn,51019.00005340576,Mon Jan 12 2026 15:27:18 GMT-0600 (Central Standard Time),254230.60000014305,A,l,O,l,617,1,633.8000001907349,253596.79999995232,7741,WL,B,4.0
2,9.230999946594238,learn,50769.00005340576,Mon Jan 12 2026 15:27:18 GMT-0600 (Central Standard Time),254480.90000009537,A,la,O,a,231,1,884.1000001430511,253596.79999995232,7741,WL,B,4.0
2,9.331000089645386,learn,50668.999910354614,Mon Jan 12 2026 15:27:18 GMT-0600 (Central Standard Time),254580.20000004768,A,lak,O,k,90,1,983.4000000953674,253596.79999995232,7741,WL,B,4.0
2,9.730999946594238,learn,50269.00005340576,Mon Jan 12 2026 15:27:18 GMT-0600 (Central Standard Time),254980.10000014305,A,lake,O,e,385,1,1383.3000001907349,253596.79999995232,7741,WL,B,4.0
2,9.96399998664856,learn,50036.00001335144,Mon Jan 12 2026 15:27:18 GMT-0600 (Central Standard Time),255213.40000009537,A,lakeenter,O,enter,217,1,1616.6000001430511,253596.79999995232,7741,WL,B,4.0
2,10.265000104904175,learn,49734.999895095825,Mon Jan 12 2026 15:27:18 GMT-0600 (Central Standard Time),255514.29999995232,A,c,O,c,289,1,300.59999990463257,255213.70000004768,7741,WL,B,5.0
2,10.48200011253357,learn,49517.99988746643,Mon Jan 12 2026 15:27:18 GMT-0600 (Central Standard Time),255731.40000009537,A,ca,O,a,213,1,517.7000000476837,255213.70000004768,7741,WL,B,5.0
2,10.930999994277954,learn,49069.000005722046,Mon Jan 12 2026 15:27:18 GMT-0600 (Central Standard Time),256180.70000004768,A,cab,O,b,446,1,967.0,255213.70000004768,7741,WL,B,5.0
2,11.163000106811523,learn,48836.99989318848,Mon Jan 12 2026 15:27:18 GMT-0600 (Central Standard Time),256412.70000004768,A,cabi,O,i,209,1,1199.0,255213.70000004768,7741,WL,B,5.0
2,11.480999946594238,learn,48519.00005340576,Mon Jan 12 2026 15:27:18 GMT-0600 (Central Standard Time),256730.60000014305,A,cabin,O,n,309,1,1516.9000000953674,255213.70000004768,7741,WL,B,5.0
2,11.845999956130981,learn,48154.00004386902,Mon Jan 12 2026 15:27:18 GMT-0600 (Central Standard Time),257095.70000004768,A,cabinenter,O,enter,354,1,1882.0,255213.70000004768,7741,WL,B,5.0
2,12.314000129699707,learn,47685.99987030029,Mon Jan 12 2026 15:27:18 GMT-0600 (Central Standard Time),257563.10000014305,A,p,O,p,455,1,467.10000014305115,257096.0,7741,WL,B,6.0
2,12.830000162124634,learn,47169.999837875366,Mon Jan 12 2026 15:27:18 GMT-0600 (Central Standard Time),258079.40000009537,A,pu,O,u,499,1,983.4000000953674,257096.0,7741,WL,B,6.0
2,13.29800009727478,learn,46701.99990272522,Mon Jan 12 2026 15:27:18 GMT-0600 (Central Standard Time),258547.29999995232,A,pup,O,p,455,1,1451.2999999523163,257096.0,7741,WL,B,6.0
2,13.646000146865845,learn,46353.999853134155,Mon Jan 12 2026 15:27:18 GMT-0600 (Central Standard Time),258895.20000004768,A,pupi,O,i,330,1,1799.2000000476837,257096.0,7741,WL,B,6.0
2,14.13100004196167,learn,45868.99995803833,Mon Jan 12 2026 15:27:18 GMT-0600 (Central Standard Time),259380.60000014305,A,pupil,O,l,477,1,2284.600000143051,257096.0,7741,WL,B,6.0
2,14.42900013923645,learn,45570.99986076355,Mon Jan 12 2026 15:27:18 GMT-0600 (Central Standard Time),259678.20000004768,A,pupilenter,O,enter,288,1,2582.2000000476837,257096.0,7741,WL,B,6.0
2,14.795000076293945,learn,45204.999923706055,Mon Jan 12 2026 15:27:18 GMT-0600 (Central Standard Time),260044.70000004768,A,s,O,s,361,1,366.2000000476837,259678.5,7741,WL,B,7.0
2,15.130000114440918,learn,44869.99988555908,Mon Jan 12 2026 15:27:18 GMT-0600 (Central Standard Time),260379.0,A,st,O,t,320,1,700.5,259678.5,7741,WL,B,7.0
2,15.378999948501587,learn,44621.00005149841,Mon Jan 12 2026 15:27:18 GMT-0600 (Central Standard Time),260628.40000009537,A,sta,O,a,234,1,949.9000000953674,259678.5,7741,WL,B,7.0
2,15.901999950408936,learn,44098.000049591064,Mon Jan 12 2026 15:27:18 GMT-0600 (Central Standard Time),261151.10000014305,A,star,O,r,514,1,1472.6000001430511,259678.5,7741,WL,B,7.0
2,16.59599995613098,learn,43404.00004386902,Mon Jan 12 2026 15:27:18 GMT-0600 (Central Standard Time),261845.20000004768,A,starenter,O,enter,687,1,2166.7000000476837,259678.5,7741,WL,B,7.0
2,17.17900013923645,learn,42820.99986076355,Mon Jan 12 2026 15:27:18 GMT-0600 (Central Standard Time),262428.7999999523,A,c,O,c,569,1,583.2999999523163,261845.5,7741,WL,B,8.0
2,17.261000156402588,learn,42738.99984359741,Mon Jan 12 2026 15:27:18 GMT-0600 (Central Standard Time),262510.90000009537,A,ci,O,i,65,1,665.4000000953674,261845.5,7741,WL,B,8.0
2,17.66100001335144,learn,42338.99998664856,Mon Jan 12 2026 15:27:18 GMT-0600 (Central Standard Time),262910.60000014305,A,cit,O,t,391,1,1065.1000001430511,261845.5,7741,WL,B,8.0
2,17.729000091552734,learn,42270.999908447266,Mon Jan 12 2026 15:27:18 GMT-0600 (Central Standard Time),262978.60000014305,A,city,O,y,63,1,1133.1000001430511,261845.5,7741,WL,B,8.0
2,18.479000091552734,learn,41520.999908447266,Mon Jan 12 2026 15:27:18 GMT-0600 (Central Standard Time),263728.2999999523,A,cityenter,O,enter,730,1,1882.7999999523163,261845.5,7741,WL,B,8.0
2,24.55900001525879,learn,35440.99998474121,Mon Jan 12 2026 15:27:18 GMT-0600 (Central Standard Time),269808.90000009537,A,w,O,w,6070,1,6080.299999952316,263728.60000014305,7741,WL,B,9.0
2,24.7260000705719,learn,35273.9999294281,Mon Jan 12 2026 15:27:18 GMT-0600 (Central Standard Time),269976.0,A,wi,O,i,157,1,6247.399999856949,263728.60000014305,7741,WL,B,9.0
2,25.06000018119812,learn,34939.99981880188,Mon Jan 12 2026 15:27:18 GMT-0600 (Central Standard Time),270309.10000014305,A,wif,O,f,316,1,6580.5,263728.60000014305,7741,WL,B,9.0
2,25.361999988555908,learn,34638.00001144409,Mon Jan 12 2026 15:27:18 GMT-0600 (Central Standard Time),270611.40000009537,A,wife,O,e,297,1,6882.799999952316,263728.60000014305,7741,WL,B,9.0
2,25.993000030517578,learn,34006.99996948242,Mon Jan 12 2026 15:27:18 GMT-0600 (Central Standard Time),271242.2000000477,A,wifeenter,O,enter,609,1,7513.599999904633,263728.60000014305,7741,WL,B,9.0
2,34.74300003051758,learn,25256.999969482422,Mon Jan 12 2026 15:27:18 GMT-0600 (Central Standard Time),279992.10000014305,A,d,O,d,8744,1,8749.700000047684,271242.40000009537,7741,WL,B,10.0
2,35.039000034332275,learn,24960.999965667725,Mon Jan 12 2026 15:27:18 GMT-0600 (Central Standard Time),280288.60000014305,A,do,O,o,287,1,9046.200000047684,271242.40000009537,7741,WL,B,10.0
2,35.205000162124634,learn,24794.999837875366,Mon Jan 12 2026 15:27:18 GMT-0600 (Central Standard Time),280455.0,A,doo,O,o,148,1,9212.599999904633,271242.40000009537,7741,WL,B,10.0
2,35.555999994277954,learn,24444.000005722046,Mon Jan 12 2026 15:27:18 GMT-0600 (Central Standard Time),280805.10000014305,A,door,O,r,343,1,9562.700000047684,271242.40000009537,7741,WL,B,10.0
2,36.0550000667572,learn,23944.999933242798,Mon Jan 12 2026 15:27:18 GMT-0600 (Central Standard Time),281304.60000014305,A,doorenter,O,enter,477,1,10062.200000047684,271242.40000009537,7741,WL,B,10.0
2,36.82299995422363,learn,23177.000045776367,Mon Jan 12 2026 15:27:18 GMT-0600 (Central Standard Time),282072.40000009537,A,w,O,w,757,1,767.5,281304.90000009537,7741,WL,B,11.0
2,36.92300009727478,learn,23076.99990272522,Mon Jan 12 2026 15:27:18 GMT-0600 (Central Standard Time),282172.2999999523,A,wi,O,i,93,1,867.3999998569489,281304.90000009537,7741,WL,B,11.0
2,37.1560001373291,learn,22843.9998626709,Mon Jan 12 2026 15:27:18 GMT-0600 (Central Standard Time),282405.2000000477,A,win,O,n,216,1,1100.2999999523163,281304.90000009537,7741,WL,B,11.0
2,37.37100005149841,learn,22628.999948501587,Mon Jan 12 2026 15:27:18 GMT-0600 (Central Standard Time),282620.90000009537,A,wind,O,d,209,1,1316.0,281304.90000009537,7741,WL,B,11.0
2,37.437999963760376,learn,22562.000036239624,Mon Jan 12 2026 15:27:18 GMT-0600 (Central Standard Time),282687.2999999523,A,windo,O,o,55,1,1382.3999998569489,281304.90000009537,7741,WL,B,11.0
2,37.75600004196167,learn,22243.99995803833,Mon Jan 12 2026 15:27:18 GMT-0600 (Central Standard Time),283005.7000000477,A,window,O,w,310,1,1700.7999999523163,281304.90000009537,7741,WL,B,11.0
2,38.03800010681152,learn,21961.999893188477,Mon Jan 12 2026 15:27:18 GMT-0600 (Central Standard Time),283287.7000000477,A,windowenter,O,enter,269,1,1982.7999999523163,281304.90000009537,7741,WL,B,11.0
2,60.015000104904175,learn,-15.000104904174805,Mon Jan 12 2026 15:27:18 GMT-0600 (Central Standard Time),305265.40000009537,A,None,O,None,21973,1,21977.5,283287.90000009537,7741,WL,B,12.0
3,1.0989999771118164,learn,58901.00002288818,Mon Jan 12 2026 15:27:18 GMT-0600 (Central Standard Time),376674.7000000477,A,s,O,s,1094,1,1098.4000000953674,375576.2999999523,7741,WL,B,1.0
3,1.5190000534057617,learn,58480.99994659424,Mon Jan 12 2026 15:27:18 GMT-0600 (Central Standard Time),377094.7999999523,A,st,O,t,404,1,1518.5,375576.2999999523,7741,WL,B,1.0
3,1.7820000648498535,learn,58217.99993515015,Mon Jan 12 2026 15:27:18 GMT-0600 (Central Standard Time),377357.90000009537,A,str,O,r,255,1,1781.6000001430511,375576.2999999523,7741,WL,B,1.0
3,2.0840001106262207,learn,57915.99988937378,Mon Jan 12 2026 15:27:18 GMT-0600 (Central Standard Time),377659.7000000477,A,stre,O,e,298,1,2083.4000000953674,375576.2999999523,7741,WL,B,1.0
3,2.265000104904175,learn,57734.999895095825,Mon Jan 12 2026 15:27:18 GMT-0600 (Central Standard Time),377840.2999999523,A,stree,O,e,160,1,2264.0,375576.2999999523,7741,WL,B,1.0
3,2.7330000400543213,learn,57266.99995994568,Mon Jan 12 2026 15:27:18 GMT-0600 (Central Standard Time),378308.10000014305,A,street,O,t,464,1,2731.800000190735,375576.2999999523,7741,WL,B,1.0
3,3.3310000896453857,learn,56668.999910354614,Mon Jan 12 2026 15:27:18 GMT-0600 (Central Standard Time),378906.90000009537,A,streetenter,O,enter,587,1,3330.600000143051,375576.2999999523,7741,WL,B,1.0
3,3.8499999046325684,learn,56150.00009536743,Mon Jan 12 2026 15:27:18 GMT-0600 (Central Standard Time),379425.2000000477,A,g,O,g,508,1,518.0999999046326,378907.10000014305,7741,WL,B,2.0
3,4.08299994468689,learn,55917.00005531311,Mon Jan 12 2026 15:27:18 GMT-0600 (Central Standard Time),379658.2999999523,A,gr,O,r,212,1,751.1999998092651,378907.10000014305,7741,WL,B,2.0
3,4.33299994468689,learn,55667.00005531311,Mon Jan 12 2026 15:27:18 GMT-0600 (Central Standard Time),379908.2000000477,A,gra,O,a,246,1,1001.0999999046326,378907.10000014305,7741,WL,B,2.0
3,4.732000112533569,learn,55267.99988746643,Mon Jan 12 2026 15:27:18 GMT-0600 (Central Standard Time),380307.2999999523,A,gras,O,s,385,1,1400.1999998092651,378907.10000014305,7741,WL,B,2.0
3,4.916000127792358,learn,55083.99987220764,Mon Jan 12 2026 15:27:18 GMT-0600 (Central Standard Time),380491.7000000477,A,grass,O,s,179,1,1584.5999999046326,378907.10000014305,7741,WL,B,2.0
3,5.315000057220459,learn,54684.99994277954,Mon Jan 12 2026 15:27:18 GMT-0600 (Central Standard Time),380890.60000014305,A,grassenter,O,enter,385,1,1983.5,378907.10000014305,7741,WL,B,2.0
3,5.700000047683716,learn,54299.999952316284,Mon Jan 12 2026 15:27:18 GMT-0600 (Central Standard Time),381275.7999999523,A,d,O,d,372,1,385.0,380890.7999999523,7741,WL,B,3.0
3,5.931999921798706,learn,54068.000078201294,Mon Jan 12 2026 15:27:18 GMT-0600 (Central Standard Time),381507.7000000477,A,do,O,o,226,1,616.9000000953674,380890.7999999523,7741,WL,B,3.0
3,6.098999977111816,learn,53901.00002288818,Mon Jan 12 2026 15:27:18 GMT-0600 (Central Standard Time),381674.7000000477,A,doo,O,o,153,1,783.9000000953674,380890.7999999523,7741,WL,B,3.0
3,6.46399998664856,learn,53536.00001335144,Mon Jan 12 2026 15:27:18 GMT-0600 (Central Standard Time),382039.7000000477,A,door,O,r,353,1,1148.9000000953674,380890.7999999523,7741,WL,B,3.0
3,6.749000072479248,learn,53250.99992752075,Mon Jan 12 2026 15:27:18 GMT-0600 (Central Standard Time),382324.10000014305,A,doorenter,O,enter,279,1,1433.3000001907349,380890.7999999523,7741,WL,B,3.0
3,7.115000009536743,learn,52884.99999046326,Mon Jan 12 2026 15:27:18 GMT-0600 (Central Standard Time),382690.2999999523,A,a,O,a,355,1,365.89999985694885,382324.40000009537,7741,WL,B,4.0
3,7.61299991607666,learn,52387.00008392334,Mon Jan 12 2026 15:27:18 GMT-0600 (Central Standard Time),383188.60000014305,A,ar,O,r,492,1,864.2000000476837,382324.40000009537,7741,WL,B,4.0
3,8.164000034332275,learn,51835.999965667725,Mon Jan 12 2026 15:27:18 GMT-0600 (Central Standard Time),383739.60000014305,A,arm,O,m,538,1,1415.2000000476837,382324.40000009537,7741,WL,B,4.0
3,9.897000074386597,learn,50102.9999256134,Mon Jan 12 2026 15:27:18 GMT-0600 (Central Standard Time),385472.40000009537,A,armw,O,w,1722,1,3148.0,382324.40000009537,7741,WL,B,4.0
3,9.996999979019165,learn,50003.000020980835,Mon Jan 12 2026 15:27:18 GMT-0600 (Central Standard Time),385572.40000009537,A,armwi,O,i,86,1,3248.0,382324.40000009537,7741,WL,B,4.0
3,10.246000051498413,learn,49753.99994850159,Mon Jan 12 2026 15:27:18 GMT-0600 (Central Standard Time),385822.0,A,armwin,O,n,233,1,3497.5999999046326,382324.40000009537,7741,WL,B,4.0
3,10.497999906539917,learn,49502.00009346008,Mon Jan 12 2026 15:27:18 GMT-0600 (Central Standard Time),386074.0,A,armwind,O,d,232,1,3749.5999999046326,382324.40000009537,7741,WL,B,4.0
3,10.595999956130981,learn,49404.00004386902,Mon Jan 12 2026 15:27:18 GMT-0600 (Central Standard Time),386172.0,A,armwindo,O,o,84,1,3847.5999999046326,382324.40000009537,7741,WL,B,4.0
3,10.996999979019165,learn,49003.000020980835,Mon Jan 12 2026 15:27:18 GMT-0600 (Central Standard Time),386572.2000000477,A,armwindow,O,w,384,1,4247.799999952316,382324.40000009537,7741,WL,B,4.0
3,11.446000099182129,learn,48553.99990081787,Mon Jan 12 2026 15:27:18 GMT-0600 (Central Standard Time),387021.2000000477,A,armwindowenter,O,enter,433,1,4696.799999952316,382324.40000009537,7741,WL,B,4.0
3,12.246000051498413,learn,47753.99994850159,Mon Jan 12 2026 15:27:18 GMT-0600 (Central Standard Time),387821.5,A,s,O,s,793,1,800.0,387021.5,7741,WL,B,5.0
3,12.496000051498413,learn,47503.99994850159,Mon Jan 12 2026 15:27:18 GMT-0600 (Central Standard Time),388071.40000009537,A,st,O,t,239,1,1049.9000000953674,387021.5,7741,WL,B,5.0
3,12.729000091552734,learn,47270.999908447266,Mon Jan 12 2026 15:27:18 GMT-0600 (Central Standard Time),388304.90000009537,A,sta,O,a,223,1,1283.4000000953674,387021.5,7741,WL,B,5.0
3,13.345999956130981,learn,46654.00004386902,Mon Jan 12 2026 15:27:18 GMT-0600 (Central Standard Time),388921.90000009537,A,star,O,r,603,1,1900.4000000953674,387021.5,7741,WL,B,5.0
3,14.01200008392334,learn,45987.99991607666,Mon Jan 12 2026 15:27:18 GMT-0600 (Central Standard Time),389587.60000014305,A,starenter,O,enter,650,1,2566.100000143051,387021.5,7741,WL,B,5.0
3,15.809999942779541,learn,44190.00005722046,Mon Jan 12 2026 15:27:18 GMT-0600 (Central Standard Time),391386.0,A,c,O,c,1779,1,1798.2000000476837,389587.7999999523,7741,WL,B,6.0
3,15.877000093460083,learn,44122.99990653992,Mon Jan 12 2026 15:27:18 GMT-0600 (Central Standard Time),391452.2999999523,A,ci,O,i,61,1,1864.5,389587.7999999523,7741,WL,B,6.0
3,16.34500002861023,learn,43654.99997138977,Mon Jan 12 2026 15:27:18 GMT-0600 (Central Standard Time),391920.10000014305,A,cit,O,t,456,1,2332.300000190735,389587.7999999523,7741,WL,B,6.0
3,16.41100001335144,learn,43588.99998664856,Mon Jan 12 2026 15:27:18 GMT-0600 (Central Standard Time),391986.7999999523,A,city,O,y,63,1,2399.0,389587.7999999523,7741,WL,B,6.0
3,17.128000020980835,learn,42871.999979019165,Mon Jan 12 2026 15:27:18 GMT-0600 (Central Standard Time),392703.2999999523,A,cityenter,O,enter,704,1,3115.5,389587.7999999523,7741,WL,B,6.0
3,17.82800006866455,learn,42171.99993133545,Mon Jan 12 2026 15:27:18 GMT-0600 (Central Standard Time),393403.10000014305,A,w,O,w,687,1,699.6000001430511,392703.5,7741,WL,B,7.0
3,17.944999933242798,learn,42055.0000667572,Mon Jan 12 2026 15:27:18 GMT-0600 (Central Standard Time),393521.10000014305,A,wi,O,i,106,1,817.6000001430511,392703.5,7741,WL,B,7.0
3,18.311000108718872,learn,41688.99989128113,Mon Jan 12 2026 15:27:18 GMT-0600 (Central Standard Time),393886.7000000477,A,wif,O,f,357,1,1183.2000000476837,392703.5,7741,WL,B,7.0
3,18.647000074386597,learn,41352.9999256134,Mon Jan 12 2026 15:27:18 GMT-0600 (Central Standard Time),394222.5,A,wife,O,e,319,1,1519.0,392703.5,7741,WL,B,7.0
3,19.111000061035156,learn,40888.999938964844,Mon Jan 12 2026 15:27:18 GMT-0600 (Central Standard Time),394686.90000009537,A,wifeenter,O,enter,453,1,1983.4000000953674,392703.5,7741,WL,B,7.0
3,19.49500012397766,learn,40504.99987602234,Mon Jan 12 2026 15:27:18 GMT-0600 (Central Standard Time),395070.2999999523,A,w,O,w,375,1,383.09999990463257,394687.2000000477,7741,WL,B,8.0
3,19.610000133514404,learn,40389.999866485596,Mon Jan 12 2026 15:27:18 GMT-0600 (Central Standard Time),395185.60000014305,A,wi,O,i,94,1,498.40000009536743,394687.2000000477,7741,WL,B,8.0
3,19.831000089645386,learn,40168.999910354614,Mon Jan 12 2026 15:27:18 GMT-0600 (Central Standard Time),395406.60000014305,A,win,O,n,202,1,719.4000000953674,394687.2000000477,7741,WL,B,8.0
3,20.29699993133545,learn,39703.00006866455,Mon Jan 12 2026 15:27:18 GMT-0600 (Central Standard Time),395872.7999999523,A,wind,O,d,454,1,1185.5999999046326,394687.2000000477,7741,WL,B,8.0
3,20.45900011062622,learn,39540.99988937378,Mon Jan 12 2026 15:27:18 GMT-0600 (Central Standard Time),396035.10000014305,A,windo,O,o,149,1,1347.9000000953674,394687.2000000477,7741,WL,B,8.0
3,22.194999933242798,learn,37805.0000667572,Mon Jan 12 2026 15:27:18 GMT-0600 (Central Standard Time),397770.40000009537,A,window,O,w,1713,1,3083.2000000476837,394687.2000000477,7741,WL,B,8.0
3,23.009000062942505,learn,36990.999937057495,Mon Jan 12 2026 15:27:18 GMT-0600 (Central Standard Time),398584.90000009537,A,windowenter,O,enter,794,1,3897.7000000476837,394687.2000000477,7741,WL,B,8.0
3,25.360000133514404,learn,34639.999866485596,Mon Jan 12 2026 15:27:18 GMT-0600 (Central Standard Time),400935.60000014305,A,c,O,c,2339,1,2350.4000000953674,398585.2000000477,7741,WL,B,9.0
3,25.591000080108643,learn,34408.99991989136,Mon Jan 12 2026 15:27:18 GMT-0600 (Central Standard Time),401166.40000009537,A,ca,O,a,215,1,2581.2000000476837,398585.2000000477,7741,WL,B,9.0
3,26.008000135421753,learn,33991.99986457825,Mon Jan 12 2026 15:27:18 GMT-0600 (Central Standard Time),401583.2999999523,A,cab,O,b,408,1,2998.0999999046326,398585.2000000477,7741,WL,B,9.0
3,26.157999992370605,learn,33842.000007629395,Mon Jan 12 2026 15:27:18 GMT-0600 (Central Standard Time),401733.60000014305,A,cabi,O,i,137,1,3148.4000000953674,398585.2000000477,7741,WL,B,9.0
3,26.391000032424927,learn,33608.99996757507,Mon Jan 12 2026 15:27:18 GMT-0600 (Central Standard Time),401966.7000000477,A,cabin,O,n,212,1,3381.5,398585.2000000477,7741,WL,B,9.0
3,26.72499990463257,learn,33275.00009536743,Mon Jan 12 2026 15:27:18 GMT-0600 (Central Standard Time),402300.40000009537,A,cabinenter,O,enter,316,1,3715.2000000476837,398585.2000000477,7741,WL,B,9.0
3,27.27900004386902,learn,32720.99995613098,Mon Jan 12 2026 15:27:18 GMT-0600 (Central Standard Time),402854.10000014305,A,p,O,p,536,1,553.4000000953674,402300.7000000477,7741,WL,B,10.0
3,27.54100012779236,learn,32458.99987220764,Mon Jan 12 2026 15:27:18 GMT-0600 (Central Standard Time),403116.2999999523,A,pu,O,u,251,1,815.5999999046326,402300.7000000477,7741,WL,B,10.0
3,27.891000032424927,learn,32108.999967575073,Mon Jan 12 2026 15:27:18 GMT-0600 (Central Standard Time),403466.40000009537,A,pup,O,p,330,1,1165.7000000476837,402300.7000000477,7741,WL,B,10.0
3,28.22699999809265,learn,31773.00000190735,Mon Jan 12 2026 15:27:18 GMT-0600 (Central Standard Time),403802.2000000477,A,pupi,O,i,312,1,1501.5,402300.7000000477,7741,WL,B,10.0
3,28.539999961853027,learn,31460.000038146973,Mon Jan 12 2026 15:27:18 GMT-0600 (Central Standard Time),404116.10000014305,A,pupil,O,l,297,1,1815.4000000953674,402300.7000000477,7741,WL,B,10.0
3,28.990999937057495,learn,31009.000062942505,Mon Jan 12 2026 15:27:18 GMT-0600 (Central Standard Time),404566.40000009537,A,pupilenter,O,enter,431,1,2265.7000000476837,402300.7000000477,7741,WL,B,10.0
3,29.457000017166138,learn,30542.999982833862,Mon Jan 12 2026 15:27:18 GMT-0600 (Central Standard Time),405032.40000009537,A,l,O,l,455,1,465.7000000476837,404566.7000000477,7741,WL,B,11.0
3,29.95900011062622,learn,30040.99988937378,Mon Jan 12 2026 15:27:18 GMT-0600 (Central Standard Time),405534.40000009537,A,la,O,a,483,1,967.7000000476837,404566.7000000477,7741,WL,B,11.0
3,30.19099998474121,learn,29809.00001525879,Mon Jan 12 2026 15:27:18 GMT-0600 (Central Standard Time),405766.40000009537,A,lak,O,k,212,1,1199.7000000476837,404566.7000000477,7741,WL,B,11.0
3,30.622999906539917,learn,29377.000093460083,Mon Jan 12 2026 15:27:18 GMT-0600 (Central Standard Time),406198.60000014305,A,lake,O,e,421,1,1631.9000000953674,404566.7000000477,7741,WL,B,11.0
3,30.94099998474121,learn,29059.00001525879,Mon Jan 12 2026 15:27:18 GMT-0600 (Central Standard Time),406516.60000014305,A,lakeenter,O,enter,305,1,1949.9000000953674,404566.7000000477,7741,WL,B,11.0
3,31.95799994468689,learn,28042.00005531311,Mon Jan 12 2026 15:27:18 GMT-0600 (Central Standard Time),407533.90000009537,A,p,O,p,1009,1,1017.0,406516.90000009537,7741,WL,B,12.0
3,32.206000089645386,learn,27793.999910354614,Mon Jan 12 2026 15:27:18 GMT-0600 (Central Standard Time),407782.0,A,pi,O,i,236,1,1265.0999999046326,406516.90000009537,7741,WL,B,12.0
3,32.473000049591064,learn,27526.999950408936,Mon Jan 12 2026 15:27:18 GMT-0600 (Central Standard Time),408048.90000009537,A,pip,O,p,251,1,1532.0,406516.90000009537,7741,WL,B,12.0
3,32.956000089645386,learn,27043.999910354614,Mon Jan 12 2026 15:27:18 GMT-0600 (Central Standard Time),408531.2000000477,A,pipe,O,e,466,1,2014.2999999523163,406516.90000009537,7741,WL,B,12.0
3,33.305999994277954,learn,26694.000005722046,Mon Jan 12 2026 15:27:18 GMT-0600 (Central Standard Time),408881.7999999523,A,pipeenter,O,enter,335,1,2364.899999856949,406516.90000009537,7741,WL,B,12.0
3,35.9210000038147,learn,24078.999996185303,Mon Jan 12 2026 15:27:18 GMT-0600 (Central Standard Time),411496.7999999523,A,f,O,f,2603,1,2614.699999809265,408882.10000014305,7741,WL,B,13.0
3,35.98699998855591,learn,24013.00001144409,Mon Jan 12 2026 15:27:18 GMT-0600 (Central Standard Time),411563.2999999523,A,fi,O,i,56,1,2681.199999809265,408882.10000014305,7741,WL,B,13.0
3,36.28800010681152,learn,23711.999893188477,Mon Jan 12 2026 15:27:18 GMT-0600 (Central Standard Time),411863.7000000477,A,fir,O,r,280,1,2981.5999999046326,408882.10000014305,7741,WL,B,13.0
3,36.62100005149841,learn,23378.999948501587,Mon Jan 12 2026 15:27:18 GMT-0600 (Central Standard Time),412196.60000014305,A,fire,O,e,324,1,3314.5,408882.10000014305,7741,WL,B,13.0
3,37.15400004386902,learn,22845.99995613098,Mon Jan 12 2026 15:27:18 GMT-0600 (Central Standard Time),412730.2000000477,A,fireenter,O,enter,519,1,3848.0999999046326,408882.10000014305,7741,WL,B,13.0
3,37.78699994087219,learn,22213.000059127808,Mon Jan 12 2026 15:27:18 GMT-0600 (Central Standard Time),413362.7000000477,A,a,O,a,627,1,632.2999999523163,412730.40000009537,7741,WL,B,14.0
3,38.520999908447266,learn,21479.000091552734,Mon Jan 12 2026 15:27:18 GMT-0600 (Central Standard Time),414096.90000009537,A,,O,backspace,722,1,1366.5,412730.40000009537,7741,WL,B,14.0
3,42.085999965667725,learn,17914.000034332275,Mon Jan 12 2026 15:27:18 GMT-0600 (Central Standard Time),417661.7999999523,A,c,O,c,3555,1,4931.399999856949,412730.40000009537,7741,WL,B,14.0
3,42.21900010108948,learn,17780.999898910522,Mon Jan 12 2026 15:27:18 GMT-0600 (Central Standard Time),417795.10000014305,A,ci,O,i,115,1,5064.700000047684,412730.40000009537,7741,WL,B,14.0
3,42.835999965667725,learn,17164.000034332275,Mon Jan 12 2026 15:27:18 GMT-0600 (Central Standard Time),418412.5,A,cit,O,t,600,1,5682.099999904633,412730.40000009537,7741,WL,B,14.0
3,42.901000022888184,learn,17098.999977111816,Mon Jan 12 2026 15:27:18 GMT-0600 (Central Standard Time),418477.2999999523,A,city,O,y,54,1,5746.899999856949,412730.40000009537,7741,WL,B,14.0
3,43.486000061035156,learn,16513.999938964844,Mon Jan 12 2026 15:27:18 GMT-0600 (Central Standard Time),419061.7999999523,A,cityenter,O,enter,567,1,6331.399999856949,412730.40000009537,7741,WL,B,14.0
3,47.85199999809265,learn,12148.000001907349,Mon Jan 12 2026 15:27:18 GMT-0600 (Central Standard Time),423427.7999999523,A,s,O,s,4352,1,4365.799999952316,419062.0,7741,WL,B,15.0
3,48.00099992752075,learn,11999.000072479248,Mon Jan 12 2026 15:27:18 GMT-0600 (Central Standard Time),423576.90000009537,A,sk,O,k,131,1,4514.900000095367,419062.0,7741,WL,B,15.0
3,48.23399996757507,learn,11766.000032424927,Mon Jan 12 2026 15:27:18 GMT-0600 (Central Standard Time),423810.40000009537,A,ski,O,i,219,1,4748.400000095367,419062.0,7741,WL,B,15.0
3,48.467000007629395,learn,11532.999992370605,Mon Jan 12 2026 15:27:18 GMT-0600 (Central Standard Time),424042.90000009537,A,skin,O,n,220,1,4980.900000095367,419062.0,7741,WL,B,15.0
3,49.25,learn,10750.0,Mon Jan 12 2026 15:27:18 GMT-0600 (Central Standard Time),424826.5,A,skinenter,O,enter,777,1,5764.5,419062.0,7741,WL,B,15.0
4,0.7179999351501465,learn,59282.00006484985,Mon Jan 12 2026 15:27:18 GMT-0600 (Central Standard Time),498404.7000000477,A,s,O,s,713,1,717.7000000476837,497687.0,7741,WL,B,1.0
4,1.2009999752044678,learn,58799.00002479553,Mon Jan 12 2026 15:27:18 GMT-0600 (Central Standard Time),498887.7000000477,A,st,O,t,465,1,1200.7000000476837,497687.0,7741,WL,B,1.0
4,1.5,learn,58500.0,Mon Jan 12 2026 15:27:18 GMT-0600 (Central Standard Time),499186.2999999523,A,str,O,r,293,1,1499.2999999523163,497687.0,7741,WL,B,1.0
4,1.815999984741211,learn,58184.00001525879,Mon Jan 12 2026 15:27:18 GMT-0600 (Central Standard Time),499502.7999999523,A,stre,O,e,306,1,1815.7999999523163,497687.0,7741,WL,B,1.0
4,1.9819998741149902,learn,58018.00012588501,Mon Jan 12 2026 15:27:18 GMT-0600 (Central Standard Time),499669.0,A,stree,O,e,163,1,1982.0,497687.0,7741,WL,B,1.0
4,2.4659998416900635,learn,57534.00015830994,Mon Jan 12 2026 15:27:18 GMT-0600 (Central Standard Time),500152.40000009537,A,street,O,t,466,1,2465.4000000953674,497687.0,7741,WL,B,1.0
4,2.798999786376953,learn,57201.00021362305,Mon Jan 12 2026 15:27:18 GMT-0600 (Central Standard Time),500485.7000000477,A,streetenter,O,enter,320,1,2798.7000000476837,497687.0,7741,WL,B,1.0
4,3.116999864578247,learn,56883.00013542175,Mon Jan 12 2026 15:27:18 GMT-0600 (Central Standard Time),500803.60000014305,A,g,O,g,296,1,317.7000000476837,500485.90000009537,7741,WL,B,2.0
4,3.365999937057495,learn,56634.000062942505,Mon Jan 12 2026 15:27:18 GMT-0600 (Central Standard Time),501052.10000014305,A,gr,O,r,233,1,566.2000000476837,500485.90000009537,7741,WL,B,2.0
4,3.6489999294281006,learn,56351.0000705719,Mon Jan 12 2026 15:27:18 GMT-0600 (Central Standard Time),501335.60000014305,A,gra,O,a,272,1,849.7000000476837,500485.90000009537,7741,WL,B,2.0
4,4.031999826431274,learn,55968.000173568726,Mon Jan 12 2026 15:27:18 GMT-0600 (Central Standard Time),501718.7999999523,A,gras,O,s,368,1,1232.8999998569489,500485.90000009537,7741,WL,B,2.0
4,4.198999881744385,learn,55801.000118255615,Mon Jan 12 2026 15:27:18 GMT-0600 (Central Standard Time),501885.10000014305,A,grass,O,s,152,1,1399.2000000476837,500485.90000009537,7741,WL,B,2.0
4,4.447999954223633,learn,55552.00004577637,Mon Jan 12 2026 15:27:18 GMT-0600 (Central Standard Time),502134.5,A,grassenter,O,enter,231,1,1648.5999999046326,500485.90000009537,7741,WL,B,2.0
4,4.831999778747559,learn,55168.00022125244,Mon Jan 12 2026 15:27:18 GMT-0600 (Central Standard Time),502518.40000009537,A,d,O,d,368,1,383.60000014305115,502134.7999999523,7741,WL,B,3.0
4,5.047999858856201,learn,54952.0001411438,Mon Jan 12 2026 15:27:18 GMT-0600 (Central Standard Time),502734.0,A,do,O,o,197,1,599.2000000476837,502134.7999999523,7741,WL,B,3.0
4,5.2159998416900635,learn,54784.00015830994,Mon Jan 12 2026 15:27:18 GMT-0600 (Central Standard Time),502902.5,A,doo,O,o,151,1,767.7000000476837,502134.7999999523,7741,WL,B,3.0
4,5.614999771118164,learn,54385.000228881836,Mon Jan 12 2026 15:27:18 GMT-0600 (Central Standard Time),503301.40000009537,A,door,O,r,381,1,1166.6000001430511,502134.7999999523,7741,WL,B,3.0
4,5.931999921798706,learn,54068.000078201294,Mon Jan 12 2026 15:27:18 GMT-0600 (Central Standard Time),503618.10000014305,A,doorenter,O,enter,295,1,1483.3000001907349,502134.7999999523,7741,WL,B,3.0
4,6.329999923706055,learn,53670.000076293945,Mon Jan 12 2026 15:27:18 GMT-0600 (Central Standard Time),504016.90000009537,A,a,O,a,387,1,398.60000014305115,503618.2999999523,7741,WL,B,4.0
4,6.98199987411499,learn,53018.00012588501,Mon Jan 12 2026 15:27:18 GMT-0600 (Central Standard Time),504668.5,A,ar,O,r,645,1,1050.2000000476837,503618.2999999523,7741,WL,B,4.0
4,7.448999881744385,learn,52551.000118255615,Mon Jan 12 2026 15:27:18 GMT-0600 (Central Standard Time),505135.10000014305,A,arm,O,m,451,1,1516.8000001907349,503618.2999999523,7741,WL,B,4.0
4,8.164999961853027,learn,51835.00003814697,Mon Jan 12 2026 15:27:18 GMT-0600 (Central Standard Time),505851.2000000477,A,armenter,O,enter,702,1,2232.9000000953674,503618.2999999523,7741,WL,B,4.0
4,9.514999866485596,learn,50485.000133514404,Mon Jan 12 2026 15:27:18 GMT-0600 (Central Standard Time),507201.7999999523,A,l,O,l,1339,1,1350.2999999523163,505851.5,7741,WL,B,5.0
4,10.079999923706055,learn,49920.000076293945,Mon Jan 12 2026 15:27:18 GMT-0600 (Central Standard Time),507766.5,A,la,O,a,558,1,1915.0,505851.5,7741,WL,B,5.0
4,10.230999946594238,learn,49769.00005340576,Mon Jan 12 2026 15:27:18 GMT-0600 (Central Standard Time),507917.10000014305,A,lak,O,k,134,1,2065.600000143051,505851.5,7741,WL,B,5.0
4,10.578999996185303,learn,49421.0000038147,Mon Jan 12 2026 15:27:18 GMT-0600 (Central Standard Time),508265.7000000477,A,lake,O,e,335,1,2414.2000000476837,505851.5,7741,WL,B,5.0
4,10.729999780654907,learn,49270.00021934509,Mon Jan 12 2026 15:27:18 GMT-0600 (Central Standard Time),508416.2999999523,A,lakeenter,O,enter,141,1,2564.7999999523163,505851.5,7741,WL,B,5.0
4,11.129999876022339,learn,48870.00012397766,Mon Jan 12 2026 15:27:18 GMT-0600 (Central Standard Time),508816.90000009537,A,w,O,w,381,1,400.2999999523163,508416.60000014305,7741,WL,B,6.0
4,11.52899980545044,learn,48471.00019454956,Mon Jan 12 2026 15:27:18 GMT-0600 (Central Standard Time),509215.7999999523,A,wi,O,i,382,1,799.1999998092651,508416.60000014305,7741,WL,B,6.0
4,11.763999938964844,learn,48236.000061035156,Mon Jan 12 2026 15:27:18 GMT-0600 (Central Standard Time),509450.2999999523,A,win,O,n,215,1,1033.6999998092651,508416.60000014305,7741,WL,B,6.0
4,12.02999997138977,learn,47970.00002861023,Mon Jan 12 2026 15:27:18 GMT-0600 (Central Standard Time),509716.10000014305,A,wind,O,d,252,1,1299.5,508416.60000014305,7741,WL,B,6.0
4,12.11299991607666,learn,47887.00008392334,Mon Jan 12 2026 15:27:18 GMT-0600 (Central Standard Time),509799.7999999523,A,windo,O,o,76,1,1383.1999998092651,508416.60000014305,7741,WL,B,6.0
4,12.579999923706055,learn,47420.000076293945,Mon Jan 12 2026 15:27:18 GMT-0600 (Central Standard Time),510266.7999999523,A,window,O,w,452,1,1850.1999998092651,508416.60000014305,7741,WL,B,6.0
4,13.1489999294281,learn,46851.0000705719,Mon Jan 12 2026 15:27:18 GMT-0600 (Central Standard Time),510835.10000014305,A,windowenter,O,enter,565,1,2418.5,508416.60000014305,7741,WL,B,6.0
4,13.595999956130981,learn,46404.00004386902,Mon Jan 12 2026 15:27:18 GMT-0600 (Central Standard Time),511282.60000014305,A,f,O,f,436,1,447.2000000476837,510835.40000009537,7741,WL,B,7.0
4,13.693999767303467,learn,46306.00023269653,Mon Jan 12 2026 15:27:18 GMT-0600 (Central Standard Time),511380.60000014305,A,fi,O,i,90,1,545.2000000476837,510835.40000009537,7741,WL,B,7.0
4,13.961999893188477,learn,46038.00010681152,Mon Jan 12 2026 15:27:18 GMT-0600 (Central Standard Time),511648.5,A,fir,O,r,251,1,813.0999999046326,510835.40000009537,7741,WL,B,7.0
4,14.394999980926514,learn,45605.000019073486,Mon Jan 12 2026 15:27:18 GMT-0600 (Central Standard Time),512082.10000014305,A,fire,O,e,419,1,1246.7000000476837,510835.40000009537,7741,WL,B,7.0
4,14.828999996185303,learn,45171.0000038147,Mon Jan 12 2026 15:27:18 GMT-0600 (Central Standard Time),512515.7000000477,A,fireenter,O,enter,424,1,1680.2999999523163,510835.40000009537,7741,WL,B,7.0
4,16.32799983024597,learn,43672.00016975403,Mon Jan 12 2026 15:27:18 GMT-0600 (Central Standard Time),514014.7000000477,A,s,O,s,1481,1,1498.7999999523163,512515.90000009537,7741,WL,B,8.0
4,16.494999885559082,learn,43505.00011444092,Mon Jan 12 2026 15:27:18 GMT-0600 (Central Standard Time),514181.5,A,sk,O,k,149,1,1665.5999999046326,512515.90000009537,7741,WL,B,8.0
4,16.744999885559082,learn,43255.00011444092,Mon Jan 12 2026 15:27:18 GMT-0600 (Central Standard Time),514431.90000009537,A,ski,O,i,232,1,1916.0,512515.90000009537,7741,WL,B,8.0
4,17.014999866485596,learn,42985.000133514404,Mon Jan 12 2026 15:27:18 GMT-0600 (Central Standard Time),514701.60000014305,A,skin,O,n,244,1,2185.7000000476837,512515.90000009537,7741,WL,B,8.0
4,17.644999980926514,learn,42355.000019073486,Mon Jan 12 2026 15:27:18 GMT-0600 (Central Standard Time),515331.10000014305,A,skinenter,O,enter,615,1,2815.2000000476837,512515.90000009537,7741,WL,B,8.0
4,18.79699993133545,learn,41203.00006866455,Mon Jan 12 2026 15:27:18 GMT-0600 (Central Standard Time),516483.90000009537,A,s,O,s,1138,1,1152.6000001430511,515331.2999999523,7741,WL,B,9.0
4,19.07699990272522,learn,40923.00009727478,Mon Jan 12 2026 15:27:18 GMT-0600 (Central Standard Time),516763.5,A,st,O,t,263,1,1432.2000000476837,515331.2999999523,7741,WL,B,9.0
4,19.30999994277954,learn,40690.00005722046,Mon Jan 12 2026 15:27:18 GMT-0600 (Central Standard Time),516996.90000009537,A,sta,O,a,217,1,1665.6000001430511,515331.2999999523,7741,WL,B,9.0
4,19.693999767303467,learn,40306.00023269653,Mon Jan 12 2026 15:27:18 GMT-0600 (Central Standard Time),517380.2999999523,A,star,O,r,373,1,2049.0,515331.2999999523,7741,WL,B,9.0
4,20.244999885559082,learn,39755.00011444092,Mon Jan 12 2026 15:27:18 GMT-0600 (Central Standard Time),517931.10000014305,A,starenter,O,enter,527,1,2599.800000190735,515331.2999999523,7741,WL,B,9.0
4,20.710999965667725,learn,39289.000034332275,Mon Jan 12 2026 15:27:18 GMT-0600 (Central Standard Time),518397.60000014305,A,c,O,c,450,1,466.2000000476837,517931.40000009537,7741,WL,B,10.0
4,20.792999982833862,learn,39207.00001716614,Mon Jan 12 2026 15:27:18 GMT-0600 (Central Standard Time),518479.60000014305,A,ci,O,i,70,1,548.2000000476837,517931.40000009537,7741,WL,B,10.0
4,21.22699999809265,learn,38773.00000190735,Mon Jan 12 2026 15:27:18 GMT-0600 (Central Standard Time),518913.40000009537,A,cit,O,t,414,1,982.0,517931.40000009537,7741,WL,B,10.0
4,21.258999824523926,learn,38741.000175476074,Mon Jan 12 2026 15:27:18 GMT-0600 (Central Standard Time),518945.90000009537,A,city,O,y,16,1,1014.5,517931.40000009537,7741,WL,B,10.0
4,21.72599983215332,learn,38274.00016784668,Mon Jan 12 2026 15:27:18 GMT-0600 (Central Standard Time),519412.40000009537,A,cityenter,O,enter,461,1,1481.0,517931.40000009537,7741,WL,B,10.0
4,22.175999879837036,learn,37824.000120162964,Mon Jan 12 2026 15:27:18 GMT-0600 (Central Standard Time),519862.60000014305,A,p,O,p,433,1,450.0,519412.60000014305,7741,WL,B,11.0
4,22.40999984741211,learn,37590.00015258789,Mon Jan 12 2026 15:27:18 GMT-0600 (Central Standard Time),520096.40000009537,A,pu,O,u,220,1,683.7999999523163,519412.60000014305,7741,WL,B,11.0
4,23.125999927520752,learn,36874.00007247925,Mon Jan 12 2026 15:27:18 GMT-0600 (Central Standard Time),520812.5,A,pup,O,p,707,1,1399.8999998569489,519412.60000014305,7741,WL,B,11.0
4,23.375999927520752,learn,36624.00007247925,Mon Jan 12 2026 15:27:18 GMT-0600 (Central Standard Time),521062.5,A,pupi,O,i,238,1,1649.8999998569489,519412.60000014305,7741,WL,B,11.0
4,23.65999984741211,learn,36340.00015258789,Mon Jan 12 2026 15:27:18 GMT-0600 (Central Standard Time),521346.60000014305,A,pupil,O,l,279,1,1934.0,519412.60000014305,7741,WL,B,11.0
4,25.792999982833862,learn,34207.00001716614,Mon Jan 12 2026 15:27:18 GMT-0600 (Central Standard Time),523479.5,A,pupilenter,O,enter,2115,1,4066.899999856949,519412.60000014305,7741,WL,B,11.0
4,26.257999897003174,learn,33742.000102996826,Mon Jan 12 2026 15:27:18 GMT-0600 (Central Standard Time),523944.40000009537,A,c,O,c,454,1,464.60000014305115,523479.7999999523,7741,WL,B,12.0
4,26.491999864578247,learn,33508.00013542175,Mon Jan 12 2026 15:27:18 GMT-0600 (Central Standard Time),524178.40000009537,A,ca,O,a,219,1,698.6000001430511,523479.7999999523,7741,WL,B,12.0
4,27.024999856948853,learn,32975.00014305115,Mon Jan 12 2026 15:27:18 GMT-0600 (Central Standard Time),524711.4000000954,A,cab,O,b,513,1,1231.6000001430511,523479.7999999523,7741,WL,B,12.0
4,27.143999814987183,learn,32856.00018501282,Mon Jan 12 2026 15:27:18 GMT-0600 (Central Standard Time),524830.600000143,A,cabi,O,i,109,1,1350.8000001907349,523479.7999999523,7741,WL,B,12.0
4,27.47499990463257,learn,32525.00009536743,Mon Jan 12 2026 15:27:18 GMT-0600 (Central Standard Time),525161.0,A,cabin,O,n,309,1,1681.2000000476837,523479.7999999523,7741,WL,B,12.0
4,28.19099998474121,learn,31809.00001525879,Mon Jan 12 2026 15:27:18 GMT-0600 (Central Standard Time),525877.7999999523,A,cabinenter,O,enter,706,1,2398.0,523479.7999999523,7741,WL,B,12.0
4,28.806999921798706,learn,31193.000078201294,Mon Jan 12 2026 15:27:18 GMT-0600 (Central Standard Time),526494.0,A,f,O,f,607,1,616.0,525878.0,7741,WL,B,13.0
4,28.85699987411499,learn,31143.00012588501,Mon Jan 12 2026 15:27:18 GMT-0600 (Central Standard Time),526543.5,A,fi,O,i,39,1,665.5,525878.0,7741,WL,B,13.0
4,29.20699977874756,learn,30793.00022125244,Mon Jan 12 2026 15:27:18 GMT-0600 (Central Standard Time),526893.5,A,fir,O,r,333,1,1015.5,525878.0,7741,WL,B,13.0
4,29.70799994468689,learn,30292.00005531311,Mon Jan 12 2026 15:27:18 GMT-0600 (Central Standard Time),527394.100000143,A,fire,O,e,477,1,1516.1000001430511,525878.0,7741,WL,B,13.0
4,30.506999969482422,learn,29493.000030517578,Mon Jan 12 2026 15:27:18 GMT-0600 (Central Standard Time),528193.600000143,A,fireenter,O,enter,777,1,2315.600000143051,525878.0,7741,WL,B,13.0
4,44.70099997520447,learn,15299.000024795532,Mon Jan 12 2026 15:27:18 GMT-0600 (Central Standard Time),542388.0,A,s,O,s,14180,1,14194.200000047684,528193.7999999523,7741,WL,B,14.0
4,44.96999979019165,learn,15030.00020980835,Mon Jan 12 2026 15:27:18 GMT-0600 (Central Standard Time),542656.5,A,st,O,t,248,1,14462.700000047684,528193.7999999523,7741,WL,B,14.0
4,45.21799993515015,learn,14782.000064849854,Mon Jan 12 2026 15:27:18 GMT-0600 (Central Standard Time),542905.2000000477,A,sta,O,a,234,1,14711.400000095367,528193.7999999523,7741,WL,B,14.0
4,45.71799993515015,learn,14282.000064849854,Mon Jan 12 2026 15:27:18 GMT-0600 (Central Standard Time),543404.7999999523,A,star,O,r,492,1,15211.0,528193.7999999523,7741,WL,B,14.0
4,46.78499984741211,learn,13215.00015258789,Mon Jan 12 2026 15:27:18 GMT-0600 (Central Standard Time),544471.600000143,A,starenter,O,enter,1050,1,16277.800000190735,528193.7999999523,7741,WL,B,14.0
4,60.013999938964844,learn,-13.99993896484375,Mon Jan 12 2026 15:27:18 GMT-0600 (Central Standard Time),557700.7999999523,A,None,O,None,13224,1,13228.899999856949,544471.9000000954,7741,WL,B,15.0
5,0.7650001049041748,learn,60000.0,Mon Jan 12 2026 15:27:18 GMT-0600 (Central Standard Time),633660.9000000954,A,s,O,s,749,1,764.6000001430511,632896.2999999523,7741,WL,B,1.0
5,1.814000129699707,learn,60000.0,Mon Jan 12 2026 15:27:18 GMT-0600 (Central Standard Time),634710.7000000477,A,st,O,t,1038,1,1814.4000000953674,632896.2999999523,7741,WL,B,1.0
5,2.062000036239624,learn,60000.0,Mon Jan 12 2026 15:27:18 GMT-0600 (Central Standard Time),634958.600000143,A,str,O,r,238,1,2062.300000190735,632896.2999999523,7741,WL,B,1.0
5,2.3470001220703125,learn,60000.0,Mon Jan 12 2026 15:27:18 GMT-0600 (Central Standard Time),635243.5,A,stre,O,e,278,1,2347.2000000476837,632896.2999999523,7741,WL,B,1.0
5,2.515000104904175,learn,60000.0,Mon Jan 12 2026 15:27:18 GMT-0600 (Central Standard Time),635411.5,A,stree,O,e,160,1,2515.2000000476837,632896.2999999523,7741,WL,B,1.0
5,2.947000026702881,learn,60000.0,Mon Jan 12 2026 15:27:18 GMT-0600 (Central Standard Time),635843.100000143,A,street,O,t,422,1,2946.800000190735,632896.2999999523,7741,WL,B,1.0
5,3.3299999237060547,learn,60000.0,Mon Jan 12 2026 15:27:18 GMT-0600 (Central Standard Time),636226.100000143,A,streetenter,O,enter,371,1,3329.800000190735,632896.2999999523,7741,WL,B,1.0
5,3.763000011444092,learn,60000.0,Mon Jan 12 2026 15:27:18 GMT-0600 (Central Standard Time),636658.9000000954,A,g,O,g,419,1,432.60000014305115,636226.2999999523,7741,WL,B,2.0
5,3.996999979019165,learn,60000.0,Mon Jan 12 2026 15:27:18 GMT-0600 (Central Standard Time),636893.2000000477,A,gr,O,r,227,1,666.9000000953674,636226.2999999523,7741,WL,B,2.0
5,4.328999996185303,learn,60000.0,Mon Jan 12 2026 15:27:18 GMT-0600 (Central Standard Time),637225.100000143,A,gra,O,a,311,1,998.8000001907349,636226.2999999523,7741,WL,B,2.0
5,4.661999940872192,learn,60000.0,Mon Jan 12 2026 15:27:18 GMT-0600 (Central Standard Time),637558.2000000477,A,gras,O,s,324,1,1331.9000000953674,636226.2999999523,7741,WL,B,2.0
5,4.8450000286102295,learn,60000.0,Mon Jan 12 2026 15:27:18 GMT-0600 (Central Standard Time),637741.4000000954,A,grass,O,s,168,1,1515.1000001430511,636226.2999999523,7741,WL,B,2.0
5,5.411999940872192,learn,60000.0,Mon Jan 12 2026 15:27:18 GMT-0600 (Central Standard Time),638308.2000000477,A,grassenter,O,enter,554,1,2081.9000000953674,636226.2999999523,7741,WL,B,2.0
5,5.778000116348267,learn,60000.0,Mon Jan 12 2026 15:27:18 GMT-0600 (Central Standard Time),638674.600000143,A,d,O,d,353,1,366.30000019073486,638308.2999999523,7741,WL,B,3.0
5,5.961999893188477,learn,60000.0,Mon Jan 12 2026 15:27:18 GMT-0600 (Central Standard Time),638858.0,A,do,O,o,170,1,549.7000000476837,638308.2999999523,7741,WL,B,3.0
5,6.128000020980835,learn,60000.0,Mon Jan 12 2026 15:27:18 GMT-0600 (Central Standard Time),639024.4000000954,A,doo,O,o,143,1,716.1000001430511,638308.2999999523,7741,WL,B,3.0
5,6.513000011444092,learn,60000.0,Mon Jan 12 2026 15:27:18 GMT-0600 (Central Standard Time),639409.0,A,door,O,r,373,1,1100.7000000476837,638308.2999999523,7741,WL,B,3.0
5,6.963000059127808,learn,60000.0,Mon Jan 12 2026 15:27:18 GMT-0600 (Central Standard Time),639859.7999999523,A,doorenter,O,enter,445,1,1551.5,638308.2999999523,7741,WL,B,3.0
5,7.312000036239624,learn,60000.0,Mon Jan 12 2026 15:27:18 GMT-0600 (Central Standard Time),640207.9000000954,A,a,O,a,329,1,347.90000009536743,639860.0,7741,WL,B,4.0
5,7.778000116348267,learn,60000.0,Mon Jan 12 2026 15:27:18 GMT-0600 (Central Standard Time),640674.600000143,A,ar,O,r,446,1,814.6000001430511,639860.0,7741,WL,B,4.0
5,8.092999935150146,learn,60000.0,Mon Jan 12 2026 15:27:18 GMT-0600 (Central Standard Time),640989.7000000477,A,arm,O,m,305,1,1129.7000000476837,639860.0,7741,WL,B,4.0
5,8.52999997138977,learn,60000.0,Mon Jan 12 2026 15:27:18 GMT-0600 (Central Standard Time),641426.2999999523,A,armenter,O,enter,433,1,1566.2999999523163,639860.0,7741,WL,B,4.0
5,9.061000108718872,learn,60000.0,Mon Jan 12 2026 15:27:18 GMT-0600 (Central Standard Time),641957.4000000954,A,w,O,w,524,1,530.7999999523163,641426.600000143,7741,WL,B,5.0
5,9.194000005722046,learn,60000.0,Mon Jan 12 2026 15:27:18 GMT-0600 (Central Standard Time),642090.7999999523,A,wi,O,i,127,1,664.1999998092651,641426.600000143,7741,WL,B,5.0
5,9.411999940872192,learn,60000.0,Mon Jan 12 2026 15:27:18 GMT-0600 (Central Standard Time),642308.100000143,A,win,O,n,200,1,881.5,641426.600000143,7741,WL,B,5.0
5,9.697999954223633,learn,60000.0,Mon Jan 12 2026 15:27:18 GMT-0600 (Central Standard Time),642593.9000000954,A,wind,O,d,265,1,1167.2999999523163,641426.600000143,7741,WL,B,5.0
5,9.759999990463257,learn,60000.0,Mon Jan 12 2026 15:27:18 GMT-0600 (Central Standard Time),642656.5,A,windo,O,o,52,1,1229.8999998569489,641426.600000143,7741,WL,B,5.0
5,10.079999923706055,learn,60000.0,Mon Jan 12 2026 15:27:18 GMT-0600 (Central Standard Time),642976.4000000954,A,window,O,w,307,1,1549.7999999523163,641426.600000143,7741,WL,B,5.0
5,10.309999942779541,learn,60000.0,Mon Jan 12 2026 15:27:18 GMT-0600 (Central Standard Time),643206.2999999523,A,windowenter,O,enter,220,1,1779.6999998092651,641426.600000143,7741,WL,B,5.0
5,10.696000099182129,learn,60000.0,Mon Jan 12 2026 15:27:18 GMT-0600 (Central Standard Time),643592.2000000477,A,w,O,w,377,1,385.5,643206.7000000477,7741,WL,B,6.0
5,10.861000061035156,learn,60000.0,Mon Jan 12 2026 15:27:18 GMT-0600 (Central Standard Time),643757.5,A,wi,O,i,147,1,550.7999999523163,643206.7000000477,7741,WL,B,6.0
5,11.144999980926514,learn,60000.0,Mon Jan 12 2026 15:27:18 GMT-0600 (Central Standard Time),644041.100000143,A,wif,O,f,271,1,834.4000000953674,643206.7000000477,7741,WL,B,6.0
5,11.476999998092651,learn,60000.0,Mon Jan 12 2026 15:27:18 GMT-0600 (Central Standard Time),644373.2999999523,A,wife,O,e,324,1,1166.5999999046326,643206.7000000477,7741,WL,B,6.0
5,11.809000015258789,learn,60000.0,Mon Jan 12 2026 15:27:18 GMT-0600 (Central Standard Time),644705.4000000954,A,wifeenter,O,enter,312,1,1498.7000000476837,643206.7000000477,7741,WL,B,6.0
5,12.109999895095825,learn,60000.0,Mon Jan 12 2026 15:27:18 GMT-0600 (Central Standard Time),645006.7000000477,A,s,O,s,284,1,301.0,644705.7000000477,7741,WL,B,7.0
5,12.375999927520752,learn,60000.0,Mon Jan 12 2026 15:27:18 GMT-0600 (Central Standard Time),645272.600000143,A,st,O,t,246,1,566.9000000953674,644705.7000000477,7741,WL,B,7.0
5,12.61299991607666,learn,60000.0,Mon Jan 12 2026 15:27:18 GMT-0600 (Central Standard Time),645509.4000000954,A,sta,O,a,210,1,803.7000000476837,644705.7000000477,7741,WL,B,7.0
5,13.026000022888184,learn,60000.0,Mon Jan 12 2026 15:27:18 GMT-0600 (Central Standard Time),645922.7000000477,A,star,O,r,390,1,1217.0,644705.7000000477,7741,WL,B,7.0
5,13.625999927520752,learn,60000.0,Mon Jan 12 2026 15:27:18 GMT-0600 (Central Standard Time),646522.600000143,A,starenter,O,enter,578,1,1816.9000000953674,644705.7000000477,7741,WL,B,7.0
5,14.059999942779541,learn,60000.0,Mon Jan 12 2026 15:27:18 GMT-0600 (Central Standard Time),646956.100000143,A,c,O,c,420,1,433.30000019073486,646522.7999999523,7741,WL,B,8.0
5,14.176000118255615,learn,60000.0,Mon Jan 12 2026 15:27:18 GMT-0600 (Central Standard Time),647072.600000143,A,ci,O,i,98,1,549.8000001907349,646522.7999999523,7741,WL,B,8.0
5,14.546000003814697,learn,60000.0,Mon Jan 12 2026 15:27:18 GMT-0600 (Central Standard Time),647442.4000000954,A,cit,O,t,356,1,919.6000001430511,646522.7999999523,7741,WL,B,8.0
5,14.592000007629395,learn,60000.0,Mon Jan 12 2026 15:27:18 GMT-0600 (Central Standard Time),647488.7000000477,A,city,O,y,25,1,965.9000000953674,646522.7999999523,7741,WL,B,8.0
5,15.007999897003174,learn,60000.0,Mon Jan 12 2026 15:27:18 GMT-0600 (Central Standard Time),647904.4000000954,A,cityenter,O,enter,399,1,1381.6000001430511,646522.7999999523,7741,WL,B,8.0
5,15.426000118255615,learn,60000.0,Mon Jan 12 2026 15:27:18 GMT-0600 (Central Standard Time),648322.2000000477,A,p,O,p,405,1,417.5,647904.7000000477,7741,WL,B,9.0
5,15.657999992370605,learn,60000.0,Mon Jan 12 2026 15:27:18 GMT-0600 (Central Standard Time),648554.5,A,pu,O,u,226,1,649.7999999523163,647904.7000000477,7741,WL,B,9.0
5,15.924999952316284,learn,60000.0,Mon Jan 12 2026 15:27:18 GMT-0600 (Central Standard Time),648821.5,A,pup,O,p,259,1,916.7999999523163,647904.7000000477,7741,WL,B,9.0
5,16.20799994468689,learn,60000.0,Mon Jan 12 2026 15:27:18 GMT-0600 (Central Standard Time),649104.5,A,pupi,O,i,261,1,1199.7999999523163,647904.7000000477,7741,WL,B,9.0
5,16.441999912261963,learn,60000.0,Mon Jan 12 2026 15:27:18 GMT-0600 (Central Standard Time),649338.600000143,A,pupil,O,l,213,1,1433.9000000953674,647904.7000000477,7741,WL,B,9.0
5,16.825000047683716,learn,60000.0,Mon Jan 12 2026 15:27:18 GMT-0600 (Central Standard Time),649721.0,A,pupilenter,O,enter,362,1,1816.2999999523163,647904.7000000477,7741,WL,B,9.0
5,17.14199995994568,learn,60000.0,Mon Jan 12 2026 15:27:18 GMT-0600 (Central Standard Time),650038.600000143,A,c,O,c,310,1,317.40000009536743,649721.2000000477,7741,WL,B,10.0
5,17.375,learn,60000.0,Mon Jan 12 2026 15:27:18 GMT-0600 (Central Standard Time),650271.0,A,ca,O,a,213,1,549.7999999523163,649721.2000000477,7741,WL,B,10.0
5,17.792999982833862,learn,60000.0,Mon Jan 12 2026 15:27:18 GMT-0600 (Central Standard Time),650689.4000000954,A,cab,O,b,405,1,968.2000000476837,649721.2000000477,7741,WL,B,10.0
5,18.324000120162964,learn,60000.0,Mon Jan 12 2026 15:27:18 GMT-0600 (Central Standard Time),651220.5,A,cabi,O,i,513,1,1499.2999999523163,649721.2000000477,7741,WL,B,10.0
5,18.556999921798706,learn,60000.0,Mon Jan 12 2026 15:27:18 GMT-0600 (Central Standard Time),651453.7999999523,A,cabin,O,n,223,1,1732.5999999046326,649721.2000000477,7741,WL,B,10.0
5,18.990000009536743,learn,60000.0,Mon Jan 12 2026 15:27:18 GMT-0600 (Central Standard Time),651887.0,A,cabinenter,O,enter,424,1,2165.7999999523163,649721.2000000477,7741,WL,B,10.0
5,19.506999969482422,learn,60000.0,Mon Jan 12 2026 15:27:18 GMT-0600 (Central Standard Time),652403.7999999523,A,s,O,s,511,1,516.6999998092651,651887.100000143,7741,WL,B,11.0
5,19.58999991416931,learn,60000.0,Mon Jan 12 2026 15:27:18 GMT-0600 (Central Standard Time),652487.0,A,sk,O,k,71,1,599.8999998569489,651887.100000143,7741,WL,B,11.0
5,19.83999991416931,learn,60000.0,Mon Jan 12 2026 15:27:18 GMT-0600 (Central Standard Time),652737.100000143,A,ski,O,i,230,1,850.0,651887.100000143,7741,WL,B,11.0
5,20.056999921798706,learn,60000.0,Mon Jan 12 2026 15:27:18 GMT-0600 (Central Standard Time),652954.0,A,skin,O,n,204,1,1066.8999998569489,651887.100000143,7741,WL,B,11.0
5,20.42300009727478,learn,60000.0,Mon Jan 12 2026 15:27:18 GMT-0600 (Central Standard Time),653319.7999999523,A,skinenter,O,enter,355,1,1432.6999998092651,651887.100000143,7741,WL,B,11.0
5,21.006999969482422,learn,60000.0,Mon Jan 12 2026 15:27:18 GMT-0600 (Central Standard Time),653903.5,A,f,O,f,566,1,583.3999998569489,653320.100000143,7741,WL,B,12.0
5,21.138999938964844,learn,60000.0,Mon Jan 12 2026 15:27:18 GMT-0600 (Central Standard Time),654035.7999999523,A,fi,O,i,117,1,715.6999998092651,653320.100000143,7741,WL,B,12.0
5,21.457000017166138,learn,60000.0,Mon Jan 12 2026 15:27:18 GMT-0600 (Central Standard Time),654354.100000143,A,fir,O,r,296,1,1034.0,653320.100000143,7741,WL,B,12.0
5,21.905999898910522,learn,60000.0,Mon Jan 12 2026 15:27:18 GMT-0600 (Central Standard Time),654802.600000143,A,fire,O,e,435,1,1482.5,653320.100000143,7741,WL,B,12.0
5,22.29200005531311,learn,60000.0,Mon Jan 12 2026 15:27:18 GMT-0600 (Central Standard Time),655188.2999999523,A,fireenter,O,enter,373,1,1868.1999998092651,653320.100000143,7741,WL,B,12.0
5,22.687999963760376,learn,60000.0,Mon Jan 12 2026 15:27:18 GMT-0600 (Central Standard Time),655585.100000143,A,c,O,c,384,1,396.5,655188.600000143,7741,WL,B,13.0
5,22.85599994659424,learn,60000.0,Mon Jan 12 2026 15:27:18 GMT-0600 (Central Standard Time),655752.5,A,cl,O,l,158,1,563.8999998569489,655188.600000143,7741,WL,B,13.0
5,23.141000032424927,learn,60000.0,Mon Jan 12 2026 15:27:18 GMT-0600 (Central Standard Time),656037.600000143,A,clo,O,o,277,1,849.0,655188.600000143,7741,WL,B,13.0
5,23.52500009536743,learn,60000.0,Mon Jan 12 2026 15:27:18 GMT-0600 (Central Standard Time),656421.7999999523,A,cloc,O,c,367,1,1233.1999998092651,655188.600000143,7741,WL,B,13.0
5,23.65499997138977,learn,60000.0,Mon Jan 12 2026 15:27:18 GMT-0600 (Central Standard Time),656552.100000143,A,clock,O,k,119,1,1363.5,655188.600000143,7741,WL,B,13.0
5,24.189000129699707,learn,60000.0,Mon Jan 12 2026 15:27:18 GMT-0600 (Central Standard Time),657085.9000000954,A,clockenter,O,enter,526,1,1897.2999999523163,655188.600000143,7741,WL,B,13.0
5,26.23799991607666,learn,60000.0,Mon Jan 12 2026 15:27:18 GMT-0600 (Central Standard Time),659135.0,A,c,O,c,2030,1,2048.7999999523163,657086.2000000477,7741,WL,B,14.0
5,26.286999940872192,learn,60000.0,Mon Jan 12 2026 15:27:18 GMT-0600 (Central Standard Time),659184.0,A,ci,O,i,35,1,2097.7999999523163,657086.2000000477,7741,WL,B,14.0
5,26.855000019073486,learn,60000.0,Mon Jan 12 2026 15:27:18 GMT-0600 (Central Standard Time),659751.2000000477,A,cit,O,t,559,1,2665.0,657086.2000000477,7741,WL,B,14.0
5,26.90499997138977,learn,60000.0,Mon Jan 12 2026 15:27:18 GMT-0600 (Central Standard Time),659801.5,A,city,O,y,44,1,2715.2999999523163,657086.2000000477,7741,WL,B,14.0
5,27.505000114440918,learn,60000.0,Mon Jan 12 2026 15:27:18 GMT-0600 (Central Standard Time),660401.9000000954,A,cityenter,O,enter,589,1,3315.7000000476837,657086.2000000477,7741,WL,B,14.0
5,29.519999980926514,learn,60000.0,Mon Jan 12 2026 15:27:18 GMT-0600 (Central Standard Time),662417.2000000477,A,l,O,l,2004,1,2015.0999999046326,660402.100000143,7741,WL,B,15.0
5,29.805000066757202,learn,60000.0,Mon Jan 12 2026 15:27:18 GMT-0600 (Central Standard Time),662701.7999999523,A,la,O,a,262,1,2299.699999809265,660402.100000143,7741,WL,B,15.0
5,29.97000002861023,learn,60000.0,Mon Jan 12 2026 15:27:18 GMT-0600 (Central Standard Time),662867.100000143,A,lak,O,k,144,1,2465.0,660402.100000143,7741,WL,B,15.0
5,30.30399990081787,learn,60000.0,Mon Jan 12 2026 15:27:18 GMT-0600 (Central Standard Time),663200.5,A,lake,O,e,320,1,2798.399999856949,660402.100000143,7741,WL,B,15.0
5,30.604000091552734,learn,60000.0,Mon Jan 12 2026 15:27:18 GMT-0600 (Central Standard Time),663500.7000000477,A,lakeenter,O,enter,284,1,3098.5999999046326,660402.100000143,7741,WL,B,15.0
6,1.383000135421753,distr,58616.99986457825,Mon Jan 12 2026 15:27:18 GMT-0600 (Central Standard Time),738842.7000000477,B,b,O,b,1368,1,1382.2999999523163,737460.4000000954,7741,WL,B,1.0
6,1.8489999771118164,distr,58151.00002288818,Mon Jan 12 2026 15:27:18 GMT-0600 (Central Standard Time),739308.9000000954,B,ba,O,a,453,1,1848.5,737460.4000000954,7741,WL,B,1.0
6,2.3989999294281006,distr,57601.0000705719,Mon Jan 12 2026 15:27:18 GMT-0600 (Central Standard Time),739858.9000000954,B,bab,O,b,547,1,2398.5,737460.4000000954,7741,WL,B,1.0
6,2.7829999923706055,distr,57217.000007629395,Mon Jan 12 2026 15:27:18 GMT-0600 (Central Standard Time),740243.5,B,baby,O,y,379,1,2783.0999999046326,737460.4000000954,7741,WL,B,1.0
6,3.318000078201294,distr,56681.999921798706,Mon Jan 12 2026 15:27:18 GMT-0600 (Central Standard Time),740778.100000143,B,babyenter,O,enter,514,1,3317.7000000476837,737460.4000000954,7741,WL,B,1.0
6,3.881999969482422,distr,56118.00003051758,Mon Jan 12 2026 15:27:18 GMT-0600 (Central Standard Time),741342.0,B,o,O,o,556,1,563.5999999046326,740778.4000000954,7741,WL,B,2.0
6,4.016999959945679,distr,55983.00004005432,Mon Jan 12 2026 15:27:18 GMT-0600 (Central Standard Time),741476.7999999523,B,oc,O,c,130,1,698.3999998569489,740778.4000000954,7741,WL,B,2.0
6,4.416000127792358,distr,55583.99987220764,Mon Jan 12 2026 15:27:18 GMT-0600 (Central Standard Time),741876.4000000954,B,oce,O,e,383,1,1098.0,740778.4000000954,7741,WL,B,2.0
6,4.749000072479248,distr,55250.99992752075,Mon Jan 12 2026 15:27:18 GMT-0600 (Central Standard Time),742209.0,B,ocea,O,a,312,1,1430.5999999046326,740778.4000000954,7741,WL,B,2.0
6,4.815999984741211,distr,55184.00001525879,Mon Jan 12 2026 15:27:18 GMT-0600 (Central Standard Time),742276.0,B,ocean,O,n,63,1,1497.5999999046326,740778.4000000954,7741,WL,B,2.0
6,5.200000047683716,distr,54799.999952316284,Mon Jan 12 2026 15:27:18 GMT-0600 (Central Standard Time),742659.7999999523,B,oceanenter,O,enter,377,1,1881.3999998569489,740778.4000000954,7741,WL,B,2.0
6,5.631999969482422,distr,54368.00003051758,Mon Jan 12 2026 15:27:18 GMT-0600 (Central Standard Time),743092.0,B,p,O,p,414,1,431.89999985694885,742660.100000143,7741,WL,B,3.0
6,5.949000120162964,distr,54050.999879837036,Mon Jan 12 2026 15:27:18 GMT-0600 (Central Standard Time),743408.9000000954,B,pa,O,a,305,1,748.7999999523163,742660.100000143,7741,WL,B,3.0
6,6.065000057220459,distr,53934.99994277954,Mon Jan 12 2026 15:27:18 GMT-0600 (Central Standard Time),743524.7999999523,B,pal,O,l,96,1,864.6999998092651,742660.100000143,7741,WL,B,3.0
6,6.2820000648498535,distr,53717.99993515015,Mon Jan 12 2026 15:27:18 GMT-0600 (Central Standard Time),743741.7999999523,B,pala,O,a,199,1,1081.6999998092651,742660.100000143,7741,WL,B,3.0
6,6.7829999923706055,distr,53217.000007629395,Mon Jan 12 2026 15:27:18 GMT-0600 (Central Standard Time),744242.9000000954,B,palac,O,c,487,1,1582.7999999523163,742660.100000143,7741,WL,B,3.0
6,7.38100004196167,distr,52618.99995803833,Mon Jan 12 2026 15:27:18 GMT-0600 (Central Standard Time),744841.0,B,palace,O,e,586,1,2180.899999856949,742660.100000143,7741,WL,B,3.0
6,7.815000057220459,distr,52184.99994277954,Mon Jan 12 2026 15:27:18 GMT-0600 (Central Standard Time),745275.2999999523,B,palaceenter,O,enter,415,1,2615.199999809265,742660.100000143,7741,WL,B,3.0
6,8.249000072479248,distr,51750.99992752075,Mon Jan 12 2026 15:27:18 GMT-0600 (Central Standard Time),745708.7000000477,B,r,O,r,428,1,433.09999990463257,745275.600000143,7741,WL,B,4.0
6,8.381999969482422,distr,51618.00003051758,Mon Jan 12 2026 15:27:18 GMT-0600 (Central Standard Time),745842.2000000477,B,ro,O,o,120,1,566.5999999046326,745275.600000143,7741,WL,B,4.0
6,8.832000017166138,distr,51167.99998283386,Mon Jan 12 2026 15:27:18 GMT-0600 (Central Standard Time),746291.7000000477,B,roc,O,c,445,1,1016.0999999046326,745275.600000143,7741,WL,B,4.0
6,8.88100004196167,distr,51118.99995803833,Mon Jan 12 2026 15:27:18 GMT-0600 (Central Standard Time),746340.9000000954,B,rock,O,k,40,1,1065.2999999523163,745275.600000143,7741,WL,B,4.0
6,9.430000066757202,distr,50569.9999332428,Mon Jan 12 2026 15:27:18 GMT-0600 (Central Standard Time),746890.5,B,rockenter,O,enter,539,1,1614.8999998569489,745275.600000143,7741,WL,B,4.0
6,9.815999984741211,distr,50184.00001525879,Mon Jan 12 2026 15:27:18 GMT-0600 (Central Standard Time),747276.100000143,B,f,O,f,374,1,385.30000019073486,746890.7999999523,7741,WL,B,5.0
6,10.46500015258789,distr,49534.99984741211,Mon Jan 12 2026 15:27:18 GMT-0600 (Central Standard Time),747924.7000000477,B,fr,O,r,627,1,1033.9000000953674,746890.7999999523,7741,WL,B,5.0
6,10.69700002670288,distr,49302.99997329712,Mon Jan 12 2026 15:27:18 GMT-0600 (Central Standard Time),748157.0,B,fri,O,i,215,1,1266.2000000476837,746890.7999999523,7741,WL,B,5.0
6,11.63100004196167,distr,48368.99995803833,Mon Jan 12 2026 15:27:18 GMT-0600 (Central Standard Time),749090.7999999523,B,frie,O,e,929,1,2200.0,746890.7999999523,7741,WL,B,5.0
6,11.77999997138977,distr,48220.00002861023,Mon Jan 12 2026 15:27:18 GMT-0600 (Central Standard Time),749239.7999999523,B,frien,O,n,138,1,2349.0,746890.7999999523,7741,WL,B,5.0
6,12.13100004196167,distr,47868.99995803833,Mon Jan 12 2026 15:27:18 GMT-0600 (Central Standard Time),749590.600000143,B,friend,O,d,334,1,2699.800000190735,746890.7999999523,7741,WL,B,5.0
6,12.611999988555908,distr,47388.00001144409,Mon Jan 12 2026 15:27:18 GMT-0600 (Central Standard Time),750072.600000143,B,friendenter,O,enter,462,1,3181.800000190735,746890.7999999523,7741,WL,B,5.0
6,15.049999952316284,distr,44950.000047683716,Mon Jan 12 2026 15:27:18 GMT-0600 (Central Standard Time),752510.100000143,B,r,O,r,2415,1,2437.4000000953674,750072.7000000477,7741,WL,B,6.0
6,15.146000146865845,distr,44853.999853134155,Mon Jan 12 2026 15:27:18 GMT-0600 (Central Standard Time),752606.2000000477,B,ro,O,o,86,1,2533.5,750072.7000000477,7741,WL,B,6.0
6,15.598999977111816,distr,44401.00002288818,Mon Jan 12 2026 15:27:18 GMT-0600 (Central Standard Time),753059.0,B,roc,O,c,430,1,2986.2999999523163,750072.7000000477,7741,WL,B,6.0
6,15.67799997329712,distr,44322.00002670288,Mon Jan 12 2026 15:27:18 GMT-0600 (Central Standard Time),753137.7000000477,B,rock,O,k,56,1,3065.0,750072.7000000477,7741,WL,B,6.0
6,16.07800006866455,distr,43921.99993133545,Mon Jan 12 2026 15:27:18 GMT-0600 (Central Standard Time),753538.600000143,B,rockenter,O,enter,380,1,3465.9000000953674,750072.7000000477,7741,WL,B,6.0
6,19.460999965667725,distr,40539.000034332275,Mon Jan 12 2026 15:27:18 GMT-0600 (Central Standard Time),756921.5,B,v,O,v,3362,1,3382.5999999046326,753538.9000000954,7741,WL,B,7.0
6,19.575999975204468,distr,40424.00002479553,Mon Jan 12 2026 15:27:18 GMT-0600 (Central Standard Time),757036.4000000954,B,vi,O,i,99,1,3497.5,753538.9000000954,7741,WL,B,7.0
6,19.792999982833862,distr,40207.00001716614,Mon Jan 12 2026 15:27:18 GMT-0600 (Central Standard Time),757253.2999999523,B,vil,O,l,199,1,3714.399999856949,753538.9000000954,7741,WL,B,7.0
6,19.960000038146973,distr,40039.99996185303,Mon Jan 12 2026 15:27:18 GMT-0600 (Central Standard Time),757420.5,B,vill,O,l,161,1,3881.5999999046326,753538.9000000954,7741,WL,B,7.0
6,20.194000005722046,distr,39805.999994277954,Mon Jan 12 2026 15:27:18 GMT-0600 (Central Standard Time),757654.2000000477,B,villa,O,a,223,1,4115.299999952316,753538.9000000954,7741,WL,B,7.0
6,20.427000045776367,distr,39572.99995422363,Mon Jan 12 2026 15:27:18 GMT-0600 (Central Standard Time),757886.7000000477,B,villag,O,g,221,1,4347.799999952316,753538.9000000954,7741,WL,B,7.0
6,20.778000116348267,distr,39221.99988365173,Mon Jan 12 2026 15:27:18 GMT-0600 (Central Standard Time),758237.7000000477,B,village,O,e,338,1,4698.799999952316,753538.9000000954,7741,WL,B,7.0
6,21.22699999809265,distr,38773.00000190735,Mon Jan 12 2026 15:27:18 GMT-0600 (Central Standard Time),758686.9000000954,B,villageenter,O,enter,439,1,5148.0,753538.9000000954,7741,WL,B,7.0
6,21.66000008583069,distr,38339.99991416931,Mon Jan 12 2026 15:27:18 GMT-0600 (Central Standard Time),759119.7000000477,B,c,O,c,422,1,432.5,758687.2000000477,7741,WL,B,8.0
6,22.075999975204468,distr,37924.00002479553,Mon Jan 12 2026 15:27:18 GMT-0600 (Central Standard Time),759536.2000000477,B,ce,O,e,402,1,849.0,758687.2000000477,7741,WL,B,8.0
6,22.176000118255615,distr,37823.999881744385,Mon Jan 12 2026 15:27:18 GMT-0600 (Central Standard Time),759635.7999999523,B,cel,O,l,92,1,948.5999999046326,758687.2000000477,7741,WL,B,8.0
6,22.378000020980835,distr,37621.999979019165,Mon Jan 12 2026 15:27:18 GMT-0600 (Central Standard Time),759837.7999999523,B,cell,O,l,186,1,1150.5999999046326,758687.2000000477,7741,WL,B,8.0
6,23.276000022888184,distr,36723.99997711182,Mon Jan 12 2026 15:27:18 GMT-0600 (Central Standard Time),760736.100000143,B,cellenter,O,enter,886,1,2048.9000000953674,758687.2000000477,7741,WL,B,8.0
6,60.015000104904175,distr,-15.000104904174805,Mon Jan 12 2026 15:27:18 GMT-0600 (Central Standard Time),797474.9000000954,B,None,O,None,36734,1,36738.5,760736.4000000954,7741,WL,B,9.0
7,0.6329998970031738,immed,59367.000102996826,Mon Jan 12 2026 15:27:18 GMT-0600 (Central Standard Time),810187.9000000954,A,s,O,s,627,1,633.7000000476837,809554.2000000477,7741,WL,B,1.0
7,0.9159998893737793,immed,59084.00011062622,Mon Jan 12 2026 15:27:18 GMT-0600 (Central Standard Time),810470.2000000477,A,st,O,t,265,1,916.0,809554.2000000477,7741,WL,B,1.0
7,1.182999849319458,immed,58817.00015068054,Mon Jan 12 2026 15:27:18 GMT-0600 (Central Standard Time),810737.4000000954,A,str,O,r,256,1,1183.2000000476837,809554.2000000477,7741,WL,B,1.0
7,1.4819998741149902,immed,58518.00012588501,Mon Jan 12 2026 15:27:18 GMT-0600 (Central Standard Time),811036.7999999523,A,stre,O,e,292,1,1482.5999999046326,809554.2000000477,7741,WL,B,1.0
7,1.6489999294281006,immed,58351.0000705719,Mon Jan 12 2026 15:27:18 GMT-0600 (Central Standard Time),811203.100000143,A,stree,O,e,152,1,1648.9000000953674,809554.2000000477,7741,WL,B,1.0
7,2.0820000171661377,immed,57917.99998283386,Mon Jan 12 2026 15:27:18 GMT-0600 (Central Standard Time),811636.7000000477,A,street,O,t,425,1,2082.5,809554.2000000477,7741,WL,B,1.0
7,2.447999954223633,immed,57552.00004577637,Mon Jan 12 2026 15:27:18 GMT-0600 (Central Standard Time),812002.4000000954,A,streetenter,O,enter,354,1,2448.2000000476837,809554.2000000477,7741,WL,B,1.0
7,2.7319998741149902,immed,57268.00012588501,Mon Jan 12 2026 15:27:18 GMT-0600 (Central Standard Time),812286.2999999523,A,g,O,g,278,1,283.69999980926514,812002.600000143,7741,WL,B,2.0
7,2.997999906539917,immed,57002.00009346008,Mon Jan 12 2026 15:27:18 GMT-0600 (Central Standard Time),812552.0,A,gr,O,r,255,1,549.3999998569489,812002.600000143,7741,WL,B,2.0
7,3.3999998569488525,immed,56600.00014305115,Mon Jan 12 2026 15:27:18 GMT-0600 (Central Standard Time),812954.0,A,gra,O,a,381,1,951.3999998569489,812002.600000143,7741,WL,B,2.0
7,3.8989999294281006,immed,56101.0000705719,Mon Jan 12 2026 15:27:18 GMT-0600 (Central Standard Time),813453.100000143,A,gras,O,s,486,1,1450.5,812002.600000143,7741,WL,B,2.0
7,4.0980000495910645,immed,55901.999950408936,Mon Jan 12 2026 15:27:18 GMT-0600 (Central Standard Time),813652.4000000954,A,grass,O,s,186,1,1649.7999999523163,812002.600000143,7741,WL,B,2.0
7,4.830999851226807,immed,55169.00014877319,Mon Jan 12 2026 15:27:18 GMT-0600 (Central Standard Time),814385.7000000477,A,grassenter,O,enter,712,1,2383.0999999046326,812002.600000143,7741,WL,B,2.0
7,9.428999900817871,immed,50571.00009918213,Mon Jan 12 2026 15:27:18 GMT-0600 (Central Standard Time),818983.5,A,d,O,d,4580,1,4597.5,814386.0,7741,WL,B,3.0
7,9.71399998664856,immed,50286.00001335144,Mon Jan 12 2026 15:27:18 GMT-0600 (Central Standard Time),819268.600000143,A,do,O,o,270,1,4882.600000143051,814386.0,7741,WL,B,3.0
7,9.878999948501587,immed,50121.00005149841,Mon Jan 12 2026 15:27:18 GMT-0600 (Central Standard Time),819433.9000000954,A,doo,O,o,153,1,5047.900000095367,814386.0,7741,WL,B,3.0
7,10.230000019073486,immed,49769.999980926514,Mon Jan 12 2026 15:27:18 GMT-0600 (Central Standard Time),819784.0,A,door,O,r,339,1,5398.0,814386.0,7741,WL,B,3.0
7,10.496000051498413,immed,49503.99994850159,Mon Jan 12 2026 15:27:18 GMT-0600 (Central Standard Time),820050.7000000477,A,doorenter,O,enter,255,1,5664.700000047684,814386.0,7741,WL,B,3.0
7,10.879999876022339,immed,49120.00012397766,Mon Jan 12 2026 15:27:18 GMT-0600 (Central Standard Time),820434.7000000477,A,w,O,w,363,1,383.7000000476837,820051.0,7741,WL,B,4.0
7,11.046000003814697,immed,48953.9999961853,Mon Jan 12 2026 15:27:18 GMT-0600 (Central Standard Time),820600.0,A,wi,O,i,156,1,549.0,820051.0,7741,WL,B,4.0
7,11.26199984550476,immed,48738.00015449524,Mon Jan 12 2026 15:27:18 GMT-0600 (Central Standard Time),820816.5,A,win,O,n,206,1,765.5,820051.0,7741,WL,B,4.0
7,11.480000019073486,immed,48519.999980926514,Mon Jan 12 2026 15:27:18 GMT-0600 (Central Standard Time),821034.100000143,A,wind,O,d,214,1,983.1000001430511,820051.0,7741,WL,B,4.0
7,11.52999997138977,immed,48470.00002861023,Mon Jan 12 2026 15:27:18 GMT-0600 (Central Standard Time),821084.2999999523,A,windo,O,o,45,1,1033.2999999523163,820051.0,7741,WL,B,4.0
7,11.82699990272522,immed,48173.00009727478,Mon Jan 12 2026 15:27:18 GMT-0600 (Central Standard Time),821381.9000000954,A,window,O,w,281,1,1330.9000000953674,820051.0,7741,WL,B,4.0
7,12.095999956130981,immed,47904.00004386902,Mon Jan 12 2026 15:27:18 GMT-0600 (Central Standard Time),821650.5,A,windowenter,O,enter,265,1,1599.5,820051.0,7741,WL,B,4.0
7,12.494999885559082,immed,47505.00011444092,Mon Jan 12 2026 15:27:18 GMT-0600 (Central Standard Time),822049.100000143,A,w,O,w,378,1,398.2000000476837,821650.9000000954,7741,WL,B,5.0
7,12.67799997329712,immed,47322.00002670288,Mon Jan 12 2026 15:27:18 GMT-0600 (Central Standard Time),822232.4000000954,A,wi,O,i,161,1,581.5,821650.9000000954,7741,WL,B,5.0
7,12.978999853134155,immed,47021.000146865845,Mon Jan 12 2026 15:27:18 GMT-0600 (Central Standard Time),822533.100000143,A,wif,O,f,283,1,882.2000000476837,821650.9000000954,7741,WL,B,5.0
7,13.42799997329712,immed,46572.00002670288,Mon Jan 12 2026 15:27:18 GMT-0600 (Central Standard Time),822982.9000000954,A,wife,O,e,441,1,1332.0,821650.9000000954,7741,WL,B,5.0
7,13.861999988555908,immed,46138.00001144409,Mon Jan 12 2026 15:27:18 GMT-0600 (Central Standard Time),823416.4000000954,A,wifeenter,O,enter,422,1,1765.5,821650.9000000954,7741,WL,B,5.0
7,16.944000005722046,immed,43055.999994277954,Mon Jan 12 2026 15:27:18 GMT-0600 (Central Standard Time),826498.100000143,A,l,O,l,3062,1,3081.5,823416.600000143,7741,WL,B,6.0
7,17.24399995803833,immed,42756.00004196167,Mon Jan 12 2026 15:27:18 GMT-0600 (Central Standard Time),826798.100000143,A,la,O,a,291,1,3381.5,823416.600000143,7741,WL,B,6.0
7,17.342999935150146,immed,42657.00006484985,Mon Jan 12 2026 15:27:18 GMT-0600 (Central Standard Time),826897.2999999523,A,lak,O,k,96,1,3480.699999809265,823416.600000143,7741,WL,B,6.0
7,17.64299988746643,immed,42357.00011253357,Mon Jan 12 2026 15:27:18 GMT-0600 (Central Standard Time),827197.7000000477,A,lake,O,e,284,1,3781.0999999046326,823416.600000143,7741,WL,B,6.0
7,17.89199995994568,immed,42108.00004005432,Mon Jan 12 2026 15:27:18 GMT-0600 (Central Standard Time),827446.4000000954,A,lakeenter,O,enter,241,1,4029.7999999523163,823416.600000143,7741,WL,B,6.0
7,18.22699999809265,immed,41773.00000190735,Mon Jan 12 2026 15:27:18 GMT-0600 (Central Standard Time),827781.0,A,c,O,c,319,1,334.39999985694885,827446.600000143,7741,WL,B,7.0
7,18.477999925613403,immed,41522.0000743866,Mon Jan 12 2026 15:27:18 GMT-0600 (Central Standard Time),828032.2000000477,A,ca,O,a,229,1,585.5999999046326,827446.600000143,7741,WL,B,7.0
7,18.942999839782715,immed,41057.000160217285,Mon Jan 12 2026 15:27:18 GMT-0600 (Central Standard Time),828497.5,A,cab,O,b,461,1,1050.8999998569489,827446.600000143,7741,WL,B,7.0
7,19.108999967575073,immed,40891.00003242493,Mon Jan 12 2026 15:27:18 GMT-0600 (Central Standard Time),828663.5,A,cabi,O,i,148,1,1216.8999998569489,827446.600000143,7741,WL,B,7.0
7,19.3439998626709,immed,40656.0001373291,Mon Jan 12 2026 15:27:18 GMT-0600 (Central Standard Time),828898.2000000477,A,cabin,O,n,223,1,1451.5999999046326,827446.600000143,7741,WL,B,7.0
7,19.72699999809265,immed,40273.00000190735,Mon Jan 12 2026 15:27:18 GMT-0600 (Central Standard Time),829281.2000000477,A,cabinenter,O,enter,365,1,1834.5999999046326,827446.600000143,7741,WL,B,7.0
7,20.16100001335144,immed,39838.99998664856,Mon Jan 12 2026 15:27:18 GMT-0600 (Central Standard Time),829715.0,A,p,O,p,412,1,433.5,829281.5,7741,WL,B,8.0
7,20.408999919891357,immed,39591.00008010864,Mon Jan 12 2026 15:27:18 GMT-0600 (Central Standard Time),829963.7000000477,A,pu,O,u,244,1,682.2000000476837,829281.5,7741,WL,B,8.0
7,20.927000045776367,immed,39072.99995422363,Mon Jan 12 2026 15:27:18 GMT-0600 (Central Standard Time),830481.0,A,pup,O,p,498,1,1199.5,829281.5,7741,WL,B,8.0
7,21.174999952316284,immed,38825.000047683716,Mon Jan 12 2026 15:27:18 GMT-0600 (Central Standard Time),830729.4000000954,A,pupi,O,i,241,1,1447.9000000953674,829281.5,7741,WL,B,8.0
7,21.491999864578247,immed,38508.00013542175,Mon Jan 12 2026 15:27:18 GMT-0600 (Central Standard Time),831046.7999999523,A,pupil,O,l,300,1,1765.2999999523163,829281.5,7741,WL,B,8.0
7,23.325000047683716,immed,36674.999952316284,Mon Jan 12 2026 15:27:18 GMT-0600 (Central Standard Time),832879.4000000954,A,pupilenter,O,enter,1815,1,3597.9000000953674,829281.5,7741,WL,B,8.0
7,25.723000049591064,immed,34276.999950408936,Mon Jan 12 2026 15:27:18 GMT-0600 (Central Standard Time),835277.600000143,A,p,O,p,2390,1,2398.0,832879.600000143,7741,WL,B,9.0
7,25.973999977111816,immed,34026.00002288818,Mon Jan 12 2026 15:27:18 GMT-0600 (Central Standard Time),835528.9000000954,A,pi,O,i,240,1,2649.2999999523163,832879.600000143,7741,WL,B,9.0
7,26.207000017166138,immed,33792.99998283386,Mon Jan 12 2026 15:27:18 GMT-0600 (Central Standard Time),835761.5,A,pip,O,p,213,1,2881.899999856949,832879.600000143,7741,WL,B,9.0
7,26.622999906539917,immed,33377.00009346008,Mon Jan 12 2026 15:27:18 GMT-0600 (Central Standard Time),836177.7000000477,A,pipe,O,e,413,1,3298.0999999046326,832879.600000143,7741,WL,B,9.0
7,26.9229998588562,immed,33077.0001411438,Mon Jan 12 2026 15:27:18 GMT-0600 (Central Standard Time),836478.0,A,pipeenter,O,enter,292,1,3598.399999856949,832879.600000143,7741,WL,B,9.0
7,27.438999891281128,immed,32561.000108718872,Mon Jan 12 2026 15:27:18 GMT-0600 (Central Standard Time),836994.0,A,c,O,c,513,1,515.7000000476837,836478.2999999523,7741,WL,B,10.0
7,27.573999881744385,immed,32426.000118255615,Mon Jan 12 2026 15:27:18 GMT-0600 (Central Standard Time),837128.4000000954,A,ci,O,i,115,1,650.1000001430511,836478.2999999523,7741,WL,B,10.0
7,28.271999835968018,immed,31728.000164031982,Mon Jan 12 2026 15:27:18 GMT-0600 (Central Standard Time),837826.7000000477,A,cit,O,t,685,1,1348.4000000953674,836478.2999999523,7741,WL,B,10.0
7,28.33999991416931,immed,31660.00008583069,Mon Jan 12 2026 15:27:18 GMT-0600 (Central Standard Time),837894.7000000477,A,city,O,y,59,1,1416.4000000953674,836478.2999999523,7741,WL,B,10.0
7,28.888999938964844,immed,31111.000061035156,Mon Jan 12 2026 15:27:18 GMT-0600 (Central Standard Time),838443.7999999523,A,cityenter,O,enter,536,1,1965.5,836478.2999999523,7741,WL,B,10.0
7,34.55299997329712,immed,25447.00002670288,Mon Jan 12 2026 15:27:18 GMT-0600 (Central Standard Time),844108.2000000477,A,f,O,f,5659,1,5664.200000047684,838444.0,7741,WL,B,11.0
7,34.65400004386902,immed,25345.99995613098,Mon Jan 12 2026 15:27:18 GMT-0600 (Central Standard Time),844208.4000000954,A,fi,O,i,82,1,5764.400000095367,838444.0,7741,WL,B,11.0
7,34.90400004386902,immed,25095.99995613098,Mon Jan 12 2026 15:27:18 GMT-0600 (Central Standard Time),844458.4000000954,A,fir,O,r,235,1,6014.400000095367,838444.0,7741,WL,B,11.0
7,35.269999980926514,immed,24730.000019073486,Mon Jan 12 2026 15:27:18 GMT-0600 (Central Standard Time),844825.2000000477,A,fire,O,e,356,1,6381.200000047684,838444.0,7741,WL,B,11.0
7,35.4539999961853,immed,24546.000003814697,Mon Jan 12 2026 15:27:18 GMT-0600 (Central Standard Time),845008.7999999523,A,fireenter,O,enter,165,1,6564.799999952316,838444.0,7741,WL,B,11.0
7,35.87100005149841,immed,24128.999948501587,Mon Jan 12 2026 15:27:18 GMT-0600 (Central Standard Time),845425.9000000954,A,a,O,a,414,1,416.90000009536743,845009.0,7741,WL,B,12.0
7,36.319000005722046,immed,23680.999994277954,Mon Jan 12 2026 15:27:18 GMT-0600 (Central Standard Time),845874.2000000477,A,ar,O,r,436,1,865.2000000476837,845009.0,7741,WL,B,12.0
7,36.753000020980835,immed,23246.999979019165,Mon Jan 12 2026 15:27:18 GMT-0600 (Central Standard Time),846308.100000143,A,arm,O,m,420,1,1299.1000001430511,845009.0,7741,WL,B,12.0
7,37.40400004386902,immed,22595.99995613098,Mon Jan 12 2026 15:27:18 GMT-0600 (Central Standard Time),846959.100000143,A,armenter,O,enter,641,1,1950.1000001430511,845009.0,7741,WL,B,12.0
7,38.335999965667725,immed,21664.000034332275,Mon Jan 12 2026 15:27:18 GMT-0600 (Central Standard Time),847890.600000143,A,c,O,c,918,1,931.3000001907349,846959.2999999523,7741,WL,B,13.0
7,38.38499999046326,immed,21615.000009536743,Mon Jan 12 2026 15:27:18 GMT-0600 (Central Standard Time),847940.0,A,cl,O,l,43,1,980.7000000476837,846959.2999999523,7741,WL,B,13.0
7,38.65499997138977,immed,21345.00002861023,Mon Jan 12 2026 15:27:18 GMT-0600 (Central Standard Time),848209.9000000954,A,clo,O,o,258,1,1250.6000001430511,846959.2999999523,7741,WL,B,13.0
7,38.918999910354614,immed,21081.000089645386,Mon Jan 12 2026 15:27:18 GMT-0600 (Central Standard Time),848473.600000143,A,cloc,O,c,260,1,1514.3000001907349,846959.2999999523,7741,WL,B,13.0
7,39.03600001335144,immed,20963.99998664856,Mon Jan 12 2026 15:27:18 GMT-0600 (Central Standard Time),848590.7000000477,A,clock,O,k,100,1,1631.4000000953674,846959.2999999523,7741,WL,B,13.0
7,40.20199990272522,immed,19798.00009727478,Mon Jan 12 2026 15:27:18 GMT-0600 (Central Standard Time),849756.600000143,A,clockenter,O,enter,1152,1,2797.300000190735,846959.2999999523,7741,WL,B,13.0
7,48.848999977111816,immed,11151.000022888184,Mon Jan 12 2026 15:27:18 GMT-0600 (Central Standard Time),858403.2999999523,A,w,O,w,8633,1,8646.5,849756.7999999523,7741,WL,B,14.0
7,49.03399991989136,immed,10966.000080108643,Mon Jan 12 2026 15:27:18 GMT-0600 (Central Standard Time),858588.2000000477,A,wi,O,i,170,1,8831.400000095367,849756.7999999523,7741,WL,B,14.0
7,49.299999952316284,immed,10700.000047683716,Mon Jan 12 2026 15:27:18 GMT-0600 (Central Standard Time),858855.0,A,win,O,n,251,1,9098.200000047684,849756.7999999523,7741,WL,B,14.0
7,49.800999879837036,immed,10199.000120162964,Mon Jan 12 2026 15:27:18 GMT-0600 (Central Standard Time),859355.4000000954,A,wind,O,d,495,1,9598.600000143051,849756.7999999523,7741,WL,B,14.0
7,50.01699995994568,immed,9983.000040054321,Mon Jan 12 2026 15:27:18 GMT-0600 (Central Standard Time),859571.7000000477,A,windo,O,o,202,1,9814.900000095367,849756.7999999523,7741,WL,B,14.0
7,50.448999881744385,immed,9551.000118255615,Mon Jan 12 2026 15:27:18 GMT-0600 (Central Standard Time),860003.600000143,A,window,O,w,418,1,10246.800000190735,849756.7999999523,7741,WL,B,14.0
7,51.200000047683716,immed,8799.999952316284,Mon Jan 12 2026 15:27:18 GMT-0600 (Central Standard Time),860754.5,A,windowenter,O,enter,731,1,10997.700000047684,849756.7999999523,7741,WL,B,14.0
7,56.38100004196167,immed,3618.99995803833,Mon Jan 12 2026 15:27:18 GMT-0600 (Central Standard Time),865935.4000000954,A,w,O,w,5171,1,5180.700000047684,860754.7000000477,7741,WL,B,15.0
7,56.48099994659424,immed,3519.0000534057617,Mon Jan 12 2026 15:27:18 GMT-0600 (Central Standard Time),866036.0,A,wi,O,i,95,1,5281.299999952316,860754.7000000477,7741,WL,B,15.0
7,57.013999938964844,immed,2986.0000610351562,Mon Jan 12 2026 15:27:18 GMT-0600 (Central Standard Time),866568.7000000477,A,wif,O,f,511,1,5814.0,860754.7000000477,7741,WL,B,15.0
7,57.46399998664856,immed,2536.0000133514404,Mon Jan 12 2026 15:27:18 GMT-0600 (Central Standard Time),867019.0,A,wife,O,e,447,1,6264.299999952316,860754.7000000477,7741,WL,B,15.0
7,58.2960000038147,immed,1703.9999961853027,Mon Jan 12 2026 15:27:18 GMT-0600 (Central Standard Time),867851.0,A,wifeenter,O,enter,826,1,7096.299999952316,860754.7000000477,7741,WL,B,15.0
