block_c,block_dur,condition,countdown,datetime,endtime,list,multichar_response,project,response,response_time,session_number,start_end,starttime,subject_id,task,task_vers,trial
,,,,Mon Jan 05 2026 10:46:59 GMT-0600 (Central Standard Time),,,,I,space,573,1,,,8085,WL,A,
prac,,0,,Mon Jan 05 2026 10:46:59 GMT-0600 (Central Standard Time),,NA,b,I,b,8454,1,,,8085,WL,A,1.0
prac,,0,,Mon Jan 05 2026 10:46:59 GMT-0600 (Central Standard Time),,NA,bo,I,o,258,1,,,8085,WL,A,1.0
prac,,0,,Mon Jan 05 2026 10:46:59 GMT-0600 (Central Standard Time),,NA,boo,I,o,191,1,,,8085,WL,A,1.0
prac,,0,,Mon Jan 05 2026 10:46:59 GMT-0600 (Central Standard Time),,NA,boos,I,s,303,1,,,8085,WL,A,1.0
prac,,0,,Mon Jan 05 2026 10:46:59 GMT-0600 (Central Standard Time),,NA,boost,I,t,298,1,,,8085,WL,A,1.0
prac,,0,,Mon Jan 05 2026 10:46:59 GMT-0600 (Central Standard Time),,NA,boostenter,I,enter,429,1,,,8085,WL,A,1.0
1,0.6160001754760742,learn,59383.999824523926,Mon Jan 05 2026 10:46:59 GMT-0600 (Central Standard Time),154132.40000009537,A,l,I,l,608,1,616.3000000715256,153516.10000002384,8085,WL,A,1.0
1,0.9830000400543213,learn,59016.99995994568,Mon Jan 05 2026 10:46:59 GMT-0600 (Central Standard Time),154498.60000002384,A,lo,I,o,357,1,982.5,153516.10000002384,8085,WL,A,1.0
1,1.3610000610351562,learn,58638.999938964844,Mon Jan 05 2026 10:46:59 GMT-0600 (Central Standard Time),154876.60000002384,A,log,I,g,372,1,1360.5,153516.10000002384,8085,WL,A,1.0
1,2.0820000171661377,learn,57917.99998283386,Mon Jan 05 2026 10:46:59 GMT-0600 (Central Standard Time),155598.5,A,logenter,I,enter,702,1,2082.399999976158,153516.10000002384,8085,WL,A,1.0
1,2.765000104904175,learn,57234.999895095825,Mon Jan 05 2026 10:46:59 GMT-0600 (Central Standard Time),156281.40000009537,A,b,I,b,667,1,682.5,155598.90000009537,8085,WL,A,2.0
1,2.8990001678466797,learn,57100.99983215332,Mon Jan 05 2026 10:46:59 GMT-0600 (Central Standard Time),156414.90000009537,A,bo,I,o,114,1,816.0,155598.90000009537,8085,WL,A,2.0
1,3.065000057220459,learn,56934.99994277954,Mon Jan 05 2026 10:46:59 GMT-0600 (Central Standard Time),156581.40000009537,A,boo,I,o,148,1,982.5,155598.90000009537,8085,WL,A,2.0
1,3.2320001125335693,learn,56767.99988746643,Mon Jan 05 2026 10:46:59 GMT-0600 (Central Standard Time),156747.70000004768,A,book,I,k,149,1,1148.7999999523163,155598.90000009537,8085,WL,A,2.0
1,3.4820001125335693,learn,56517.99988746643,Mon Jan 05 2026 10:46:59 GMT-0600 (Central Standard Time),156997.80000007153,A,bookenter,I,enter,231,1,1398.8999999761581,155598.90000009537,8085,WL,A,2.0
1,3.9150002002716064,learn,56084.99979972839,Mon Jan 05 2026 10:46:59 GMT-0600 (Central Standard Time),157431.0,A,f,I,f,421,1,432.7999999523163,156998.20000004768,8085,WL,A,3.0
1,4.0320000648498535,learn,55967.99993515015,Mon Jan 05 2026 10:46:59 GMT-0600 (Central Standard Time),157547.90000009537,A,fl,I,l,101,1,549.7000000476837,156998.20000004768,8085,WL,A,3.0
1,4.248000144958496,learn,55751.999855041504,Mon Jan 05 2026 10:46:59 GMT-0600 (Central Standard Time),157764.40000009537,A,flo,I,o,199,1,766.2000000476837,156998.20000004768,8085,WL,A,3.0
1,4.38100004196167,learn,55618.99995803833,Mon Jan 05 2026 10:46:59 GMT-0600 (Central Standard Time),157897.20000004768,A,flow,I,w,128,1,899.0,156998.20000004768,8085,WL,A,3.0
1,4.515000104904175,learn,55484.999895095825,Mon Jan 05 2026 10:46:59 GMT-0600 (Central Standard Time),158030.90000009537,A,flowe,I,e,123,1,1032.7000000476837,156998.20000004768,8085,WL,A,3.0
1,4.815000057220459,learn,55184.99994277954,Mon Jan 05 2026 10:46:59 GMT-0600 (Central Standard Time),158330.60000002384,A,flower,I,r,293,1,1332.3999999761581,156998.20000004768,8085,WL,A,3.0
1,5.232000112533569,learn,54767.99988746643,Mon Jan 05 2026 10:46:59 GMT-0600 (Central Standard Time),158747.60000002384,A,flowerenter,I,enter,401,1,1749.3999999761581,156998.20000004768,8085,WL,A,3.0
1,5.764000177383423,learn,54235.99982261658,Mon Jan 05 2026 10:46:59 GMT-0600 (Central Standard Time),159280.40000009537,A,m,I,m,521,1,532.5,158747.90000009537,8085,WL,A,4.0
1,5.898000001907349,learn,54101.99999809265,Mon Jan 05 2026 10:46:59 GMT-0600 (Central Standard Time),159413.80000007153,A,me,I,e,116,1,665.8999999761581,158747.90000009537,8085,WL,A,4.0
1,6.04800009727478,learn,53951.99990272522,Mon Jan 05 2026 10:46:59 GMT-0600 (Central Standard Time),159563.70000004768,A,mea,I,a,133,1,815.7999999523163,158747.90000009537,8085,WL,A,4.0
1,6.248000144958496,learn,53751.999855041504,Mon Jan 05 2026 10:46:59 GMT-0600 (Central Standard Time),159763.5,A,mead,I,d,185,1,1015.5999999046326,158747.90000009537,8085,WL,A,4.0
1,6.46399998664856,learn,53536.00001335144,Mon Jan 05 2026 10:46:59 GMT-0600 (Central Standard Time),159980.30000007153,A,meado,I,o,200,1,1232.3999999761581,158747.90000009537,8085,WL,A,4.0
1,6.831000089645386,learn,53168.999910354614,Mon Jan 05 2026 10:46:59 GMT-0600 (Central Standard Time),160346.90000009537,A,meadow,I,w,360,1,1599.0,158747.90000009537,8085,WL,A,4.0
1,7.114000082015991,learn,52885.99991798401,Mon Jan 05 2026 10:46:59 GMT-0600 (Central Standard Time),160630.0,A,meadowenter,I,enter,273,1,1882.0999999046326,158747.90000009537,8085,WL,A,4.0
1,8.547000169754028,learn,51452.99983024597,Mon Jan 05 2026 10:46:59 GMT-0600 (Central Standard Time),162063.0,A,t,I,t,1413,1,1432.5999999046326,160630.40000009537,8085,WL,A,5.0
1,8.78000020980835,learn,51219.99979019165,Mon Jan 05 2026 10:46:59 GMT-0600 (Central Standard Time),162296.30000007153,A,tr,I,r,212,1,1665.8999999761581,160630.40000009537,8085,WL,A,5.0
1,8.913000106811523,learn,51086.99989318848,Mon Jan 05 2026 10:46:59 GMT-0600 (Central Standard Time),162429.30000007153,A,tra,I,a,123,1,1798.8999999761581,160630.40000009537,8085,WL,A,5.0
1,9.03000020980835,learn,50969.99979019165,Mon Jan 05 2026 10:46:59 GMT-0600 (Central Standard Time),162546.10000002384,A,trai,I,i,102,1,1915.6999999284744,160630.40000009537,8085,WL,A,5.0
1,9.264000177383423,learn,50735.99982261658,Mon Jan 05 2026 10:46:59 GMT-0600 (Central Standard Time),162779.5,A,train,I,n,218,1,2149.0999999046326,160630.40000009537,8085,WL,A,5.0
1,9.647000074386597,learn,50352.9999256134,Mon Jan 05 2026 10:46:59 GMT-0600 (Central Standard Time),163162.5,A,trainenter,I,enter,368,1,2532.0999999046326,160630.40000009537,8085,WL,A,5.0
1,11.629000186920166,learn,48370.999813079834,Mon Jan 05 2026 10:46:59 GMT-0600 (Central Standard Time),165145.30000007153,A,g,I,g,1962,1,1982.3999999761581,163162.90000009537,8085,WL,A,6.0
1,11.746000051498413,learn,48253.99994850159,Mon Jan 05 2026 10:46:59 GMT-0600 (Central Standard Time),165262.0,A,go,I,o,106,1,2099.0999999046326,163162.90000009537,8085,WL,A,6.0
1,11.962000131607056,learn,48037.999868392944,Mon Jan 05 2026 10:46:59 GMT-0600 (Central Standard Time),165478.40000009537,A,gol,I,l,205,1,2315.5,163162.90000009537,8085,WL,A,6.0
1,12.09600019454956,learn,47903.99980545044,Mon Jan 05 2026 10:46:59 GMT-0600 (Central Standard Time),165611.70000004768,A,gold,I,d,125,1,2448.7999999523163,163162.90000009537,8085,WL,A,6.0
1,12.479000091552734,learn,47520.999908447266,Mon Jan 05 2026 10:46:59 GMT-0600 (Central Standard Time),165995.20000004768,A,goldenter,I,enter,377,1,2832.2999999523163,163162.90000009537,8085,WL,A,6.0
1,14.228000164031982,learn,45771.99983596802,Mon Jan 05 2026 10:46:59 GMT-0600 (Central Standard Time),167744.30000007153,A,b,I,b,1735,1,1748.7000000476837,165995.60000002384,8085,WL,A,7.0
1,14.412000179290771,learn,45587.99982070923,Mon Jan 05 2026 10:46:59 GMT-0600 (Central Standard Time),167927.60000002384,A,bo,I,o,163,1,1932.0,165995.60000002384,8085,WL,A,7.0
1,14.578999996185303,learn,45421.0000038147,Mon Jan 05 2026 10:46:59 GMT-0600 (Central Standard Time),168094.60000002384,A,boo,I,o,156,1,2099.0,165995.60000002384,8085,WL,A,7.0
1,14.745000123977661,learn,45254.99987602234,Mon Jan 05 2026 10:46:59 GMT-0600 (Central Standard Time),168261.20000004768,A,book,I,k,150,1,2265.600000023842,165995.60000002384,8085,WL,A,7.0
1,15.111999988555908,learn,44888.00001144409,Mon Jan 05 2026 10:46:59 GMT-0600 (Central Standard Time),168627.60000002384,A,bookenter,I,enter,358,1,2632.0,165995.60000002384,8085,WL,A,7.0
1,30.872000217437744,learn,29127.999782562256,Mon Jan 05 2026 10:46:59 GMT-0600 (Central Standard Time),184389.5,A,enter,I,enter,15743,1,15761.5,168628.0,8085,WL,A,8.0
1,32.00500011444092,learn,27994.999885559082,Mon Jan 05 2026 10:46:59 GMT-0600 (Central Standard Time),185522.10000002384,A,enter,I,enter,1117,1,1132.2999999523163,184389.80000007153,8085,WL,A,9.0
1,32.63800001144409,learn,27361.99998855591,Mon Jan 05 2026 10:46:59 GMT-0600 (Central Standard Time),186155.20000004768,A,enter,I,enter,625,1,632.6000000238419,185522.60000002384,8085,WL,A,10.0
1,33.271000146865845,learn,26728.999853134155,Mon Jan 05 2026 10:46:59 GMT-0600 (Central Standard Time),186788.5,A,enter,I,enter,616,1,632.8999999761581,186155.60000002384,8085,WL,A,11.0
1,33.8050000667572,learn,26194.999933242798,Mon Jan 05 2026 10:46:59 GMT-0600 (Central Standard Time),187321.80000007153,A,enter,I,enter,519,1,532.8000000715256,186789.0,8085,WL,A,12.0
1,34.33800005912781,learn,25661.999940872192,Mon Jan 05 2026 10:46:59 GMT-0600 (Central Standard Time),187855.10000002384,A,enter,I,enter,523,1,532.8999999761581,187322.20000004768,8085,WL,A,13.0
1,34.88800001144409,learn,25111.99998855591,Mon Jan 05 2026 10:46:59 GMT-0600 (Central Standard Time),188404.70000004768,A,enter,I,enter,533,1,549.2000000476837,187855.5,8085,WL,A,14.0
1,35.521000146865845,learn,24478.999853134155,Mon Jan 05 2026 10:46:59 GMT-0600 (Central Standard Time),189037.80000007153,A,enter,I,enter,615,1,632.8000000715256,188405.0,8085,WL,A,15.0
2,0.5,learn,59500.0,Mon Jan 05 2026 10:46:59 GMT-0600 (Central Standard Time),258382.70000004768,A,l,I,l,490,1,500.10000002384186,257882.60000002384,8085,WL,A,1.0
2,0.7839999198913574,learn,59216.00008010864,Mon Jan 05 2026 10:46:59 GMT-0600 (Central Standard Time),258665.90000009537,A,lo,I,o,268,1,783.3000000715256,257882.60000002384,8085,WL,A,1.0
2,0.9830000400543213,learn,59016.99995994568,Mon Jan 05 2026 10:46:59 GMT-0600 (Central Standard Time),258865.70000004768,A,log,I,g,195,1,983.1000000238419,257882.60000002384,8085,WL,A,1.0
2,1.2339999675750732,learn,58766.00003242493,Mon Jan 05 2026 10:46:59 GMT-0600 (Central Standard Time),259116.0,A,logenter,I,enter,235,1,1233.3999999761581,257882.60000002384,8085,WL,A,1.0
2,1.5829999446868896,learn,58417.00005531311,Mon Jan 05 2026 10:46:59 GMT-0600 (Central Standard Time),259465.40000009537,A,k,I,k,344,1,349.0,259116.40000009537,8085,WL,A,2.0
2,1.7999999523162842,learn,58200.000047683716,Mon Jan 05 2026 10:46:59 GMT-0600 (Central Standard Time),259682.70000004768,A,ke,I,e,203,1,566.2999999523163,259116.40000009537,8085,WL,A,2.0
2,2.0,learn,58000.0,Mon Jan 05 2026 10:46:59 GMT-0600 (Central Standard Time),259881.90000009537,A,key,I,y,185,1,765.5,259116.40000009537,8085,WL,A,2.0
2,2.299999952316284,learn,57700.000047683716,Mon Jan 05 2026 10:46:59 GMT-0600 (Central Standard Time),260182.20000004768,A,keyenter,I,enter,290,1,1065.7999999523163,259116.40000009537,8085,WL,A,2.0
2,2.633000135421753,learn,57366.99986457825,Mon Jan 05 2026 10:46:59 GMT-0600 (Central Standard Time),260515.5,A,r,I,r,317,1,333.0,260182.5,8085,WL,A,3.0
2,2.867000102996826,learn,57132.999897003174,Mon Jan 05 2026 10:46:59 GMT-0600 (Central Standard Time),260748.80000007153,A,ra,I,a,224,1,566.3000000715256,260182.5,8085,WL,A,3.0
2,3.049999952316284,learn,56950.000047683716,Mon Jan 05 2026 10:46:59 GMT-0600 (Central Standard Time),260932.0,A,rat,I,t,176,1,749.5,260182.5,8085,WL,A,3.0
2,3.2660000324249268,learn,56733.99996757507,Mon Jan 05 2026 10:46:59 GMT-0600 (Central Standard Time),261148.70000004768,A,ratt,I,t,208,1,966.2000000476837,260182.5,8085,WL,A,3.0
2,3.4160001277923584,learn,56583.99987220764,Mon Jan 05 2026 10:46:59 GMT-0600 (Central Standard Time),261298.60000002384,A,rattl,I,l,143,1,1116.1000000238419,260182.5,8085,WL,A,3.0
2,3.615999937057495,learn,56384.000062942505,Mon Jan 05 2026 10:46:59 GMT-0600 (Central Standard Time),261498.40000009537,A,rattle,I,e,186,1,1315.9000000953674,260182.5,8085,WL,A,3.0
2,3.865999937057495,learn,56134.000062942505,Mon Jan 05 2026 10:46:59 GMT-0600 (Central Standard Time),261748.30000007153,A,rattleenter,I,enter,234,1,1565.8000000715256,260182.5,8085,WL,A,3.0
2,4.233000040054321,learn,55766.99995994568,Mon Jan 05 2026 10:46:59 GMT-0600 (Central Standard Time),262115.10000002384,A,f,I,f,360,1,366.39999997615814,261748.70000004768,8085,WL,A,4.0
2,4.33299994468689,learn,55667.00005531311,Mon Jan 05 2026 10:46:59 GMT-0600 (Central Standard Time),262215.0,A,fi,I,i,89,1,466.2999999523163,261748.70000004768,8085,WL,A,4.0
2,4.5329999923706055,learn,55467.000007629395,Mon Jan 05 2026 10:46:59 GMT-0600 (Central Standard Time),262415.10000002384,A,fin,I,n,189,1,666.3999999761581,261748.70000004768,8085,WL,A,4.0
2,4.648999929428101,learn,55351.0000705719,Mon Jan 05 2026 10:46:59 GMT-0600 (Central Standard Time),262531.5,A,fing,I,g,101,1,782.7999999523163,261748.70000004768,8085,WL,A,4.0
2,4.883000135421753,learn,55116.99986457825,Mon Jan 05 2026 10:46:59 GMT-0600 (Central Standard Time),262764.8000000715,A,finge,I,e,225,1,1016.1000000238419,261748.70000004768,8085,WL,A,4.0
2,4.999000072479248,learn,55000.99992752075,Mon Jan 05 2026 10:46:59 GMT-0600 (Central Standard Time),262881.2000000477,A,finger,I,r,103,1,1132.5,261748.70000004768,8085,WL,A,4.0
2,5.482000112533569,learn,54517.99988746643,Mon Jan 05 2026 10:46:59 GMT-0600 (Central Standard Time),263364.60000002384,A,fingerenter,I,enter,474,1,1615.8999999761581,261748.70000004768,8085,WL,A,4.0
2,5.881999969482422,learn,54118.00003051758,Mon Jan 05 2026 10:46:59 GMT-0600 (Central Standard Time),263764.40000009537,A,b,I,b,392,1,399.40000009536743,263365.0,8085,WL,A,5.0
2,6.049000024795532,learn,53950.99997520447,Mon Jan 05 2026 10:46:59 GMT-0600 (Central Standard Time),263930.90000009537,A,bo,I,o,152,1,565.9000000953674,263365.0,8085,WL,A,5.0
2,6.232000112533569,learn,53767.99988746643,Mon Jan 05 2026 10:46:59 GMT-0600 (Central Standard Time),264114.5,A,boo,I,o,169,1,749.5,263365.0,8085,WL,A,5.0
2,6.431999921798706,learn,53568.000078201294,Mon Jan 05 2026 10:46:59 GMT-0600 (Central Standard Time),264314.2000000477,A,book,I,k,186,1,949.2000000476837,263365.0,8085,WL,A,5.0
2,7.164999961853027,learn,52835.00003814697,Mon Jan 05 2026 10:46:59 GMT-0600 (Central Standard Time),265047.40000009537,A,bookenter,I,enter,713,1,1682.4000000953674,263365.0,8085,WL,A,5.0
2,10.21399998664856,learn,49786.00001335144,Mon Jan 05 2026 10:46:59 GMT-0600 (Central Standard Time),268096.5,A,r,I,r,3028,1,3048.6999999284744,265047.8000000715,8085,WL,A,6.0
2,10.38100004196167,learn,49618.99995803833,Mon Jan 05 2026 10:46:59 GMT-0600 (Central Standard Time),268262.8000000715,A,ru,I,u,155,1,3215.0,265047.8000000715,8085,WL,A,6.0
2,10.530999898910522,learn,49469.00010108948,Mon Jan 05 2026 10:46:59 GMT-0600 (Central Standard Time),268412.90000009537,A,rug,I,g,134,1,3365.100000023842,265047.8000000715,8085,WL,A,6.0
2,11.030999898910522,learn,48969.00010108948,Mon Jan 05 2026 10:46:59 GMT-0600 (Central Standard Time),268913.0,A,rugenter,I,enter,487,1,3865.1999999284744,265047.8000000715,8085,WL,A,6.0
2,11.564000129699707,learn,48435.99987030029,Mon Jan 05 2026 10:46:59 GMT-0600 (Central Standard Time),269446.0,A,m,I,m,515,1,532.6999999284744,268913.3000000715,8085,WL,A,7.0
2,11.647000074386597,learn,48352.9999256134,Mon Jan 05 2026 10:46:59 GMT-0600 (Central Standard Time),269529.0,A,me,I,e,78,1,615.6999999284744,268913.3000000715,8085,WL,A,7.0
2,11.831000089645386,learn,48168.999910354614,Mon Jan 05 2026 10:46:59 GMT-0600 (Central Standard Time),269712.8000000715,A,mea,I,a,164,1,799.5,268913.3000000715,8085,WL,A,7.0
2,12.02999997138977,learn,47970.00002861023,Mon Jan 05 2026 10:46:59 GMT-0600 (Central Standard Time),269912.5,A,mead,I,d,179,1,999.1999999284744,268913.3000000715,8085,WL,A,7.0
2,12.263000011444092,learn,47736.99998855591,Mon Jan 05 2026 10:46:59 GMT-0600 (Central Standard Time),270145.40000009537,A,meado,I,o,228,1,1232.1000000238419,268913.3000000715,8085,WL,A,7.0
2,12.44700002670288,learn,47552.99997329712,Mon Jan 05 2026 10:46:59 GMT-0600 (Central Standard Time),270329.0,A,meadow,I,w,163,1,1415.6999999284744,268913.3000000715,8085,WL,A,7.0
2,12.645999908447266,learn,47354.000091552734,Mon Jan 05 2026 10:46:59 GMT-0600 (Central Standard Time),270528.60000002384,A,meadowenter,I,enter,188,1,1615.2999999523163,268913.3000000715,8085,WL,A,7.0
2,13.19700002670288,learn,46802.99997329712,Mon Jan 05 2026 10:46:59 GMT-0600 (Central Standard Time),271078.8000000715,A,t,I,t,532,1,550.0,270528.8000000715,8085,WL,A,8.0
2,13.44700002670288,learn,46552.99997329712,Mon Jan 05 2026 10:46:59 GMT-0600 (Central Standard Time),271328.8000000715,A,tr,I,r,229,1,800.0,270528.8000000715,8085,WL,A,8.0
2,13.562999963760376,learn,46437.000036239624,Mon Jan 05 2026 10:46:59 GMT-0600 (Central Standard Time),271445.0,A,tra,I,a,108,1,916.1999999284744,270528.8000000715,8085,WL,A,8.0
2,13.730000019073486,learn,46269.999980926514,Mon Jan 05 2026 10:46:59 GMT-0600 (Central Standard Time),271612.0,A,trai,I,i,152,1,1083.1999999284744,270528.8000000715,8085,WL,A,8.0
2,13.930000066757202,learn,46069.9999332428,Mon Jan 05 2026 10:46:59 GMT-0600 (Central Standard Time),271811.7000000477,A,train,I,n,191,1,1282.8999999761581,270528.8000000715,8085,WL,A,8.0
2,14.246000051498413,learn,45753.99994850159,Mon Jan 05 2026 10:46:59 GMT-0600 (Central Standard Time),272128.7000000477,A,trainenter,I,enter,296,1,1599.8999999761581,270528.8000000715,8085,WL,A,8.0
2,14.924000024795532,learn,45075.99997520447,Mon Jan 05 2026 10:46:59 GMT-0600 (Central Standard Time),272805.90000009537,A,o,I,o,673,1,676.9000000953674,272129.0,8085,WL,A,9.0
2,15.078999996185303,learn,44921.0000038147,Mon Jan 05 2026 10:46:59 GMT-0600 (Central Standard Time),272961.10000002384,A,ol,I,l,147,1,832.1000000238419,272129.0,8085,WL,A,9.0
2,15.229000091552734,learn,44770.999908447266,Mon Jan 05 2026 10:46:59 GMT-0600 (Central Standard Time),273111.40000009537,A,old,I,d,137,1,982.4000000953674,272129.0,8085,WL,A,9.0
2,15.812000036239624,learn,44187.999963760376,Mon Jan 05 2026 10:46:59 GMT-0600 (Central Standard Time),273694.7000000477,A,ol,I,backspace,573,1,1565.7000000476837,272129.0,8085,WL,A,9.0
2,16.09500002861023,learn,43904.99997138977,Mon Jan 05 2026 10:46:59 GMT-0600 (Central Standard Time),273977.7000000477,A,o,I,backspace,278,1,1848.7000000476837,272129.0,8085,WL,A,9.0
2,16.312000036239624,learn,43687.999963760376,Mon Jan 05 2026 10:46:59 GMT-0600 (Central Standard Time),274194.7000000477,A,,I,backspace,203,1,2065.7000000476837,272129.0,8085,WL,A,9.0
2,16.878999948501587,learn,43121.00005149841,Mon Jan 05 2026 10:46:59 GMT-0600 (Central Standard Time),274760.90000009537,A,g,I,g,561,1,2631.9000000953674,272129.0,8085,WL,A,9.0
2,16.99500012397766,learn,43004.99987602234,Mon Jan 05 2026 10:46:59 GMT-0600 (Central Standard Time),274877.40000009537,A,go,I,o,108,1,2748.4000000953674,272129.0,8085,WL,A,9.0
2,17.229000091552734,learn,42770.999908447266,Mon Jan 05 2026 10:46:59 GMT-0600 (Central Standard Time),275110.8000000715,A,gol,I,l,223,1,2981.8000000715256,272129.0,8085,WL,A,9.0
2,17.378999948501587,learn,42621.00005149841,Mon Jan 05 2026 10:46:59 GMT-0600 (Central Standard Time),275260.8000000715,A,gold,I,d,134,1,3131.8000000715256,272129.0,8085,WL,A,9.0
2,18.24500012397766,learn,41754.99987602234,Mon Jan 05 2026 10:46:59 GMT-0600 (Central Standard Time),276127.10000002384,A,goldenter,I,enter,848,1,3998.100000023842,272129.0,8085,WL,A,9.0
2,22.30999994277954,learn,37690.00005722046,Mon Jan 05 2026 10:46:59 GMT-0600 (Central Standard Time),280192.60000002384,A,a,I,a,4060,1,4065.100000023842,276127.5,8085,WL,A,10.0
2,22.444000005722046,learn,37555.999994277954,Mon Jan 05 2026 10:46:59 GMT-0600 (Central Standard Time),280326.10000002384,A,ap,I,p,115,1,4198.600000023842,276127.5,8085,WL,A,10.0
2,22.627000093460083,learn,37372.99990653992,Mon Jan 05 2026 10:46:59 GMT-0600 (Central Standard Time),280509.0,A,app,I,p,175,1,4381.5,276127.5,8085,WL,A,10.0
2,22.844000101089478,learn,37155.99989891052,Mon Jan 05 2026 10:46:59 GMT-0600 (Central Standard Time),280725.90000009537,A,appl,I,l,207,1,4598.400000095367,276127.5,8085,WL,A,10.0
2,22.944000005722046,learn,37055.999994277954,Mon Jan 05 2026 10:46:59 GMT-0600 (Central Standard Time),280825.7000000477,A,apple,I,e,86,1,4698.200000047684,276127.5,8085,WL,A,10.0
2,23.377000093460083,learn,36622.99990653992,Mon Jan 05 2026 10:46:59 GMT-0600 (Central Standard Time),281258.90000009537,A,appleenter,I,enter,419,1,5131.400000095367,276127.5,8085,WL,A,10.0
2,23.842999935150146,learn,36157.00006484985,Mon Jan 05 2026 10:46:59 GMT-0600 (Central Standard Time),281725.2000000477,A,s,I,s,450,1,466.10000002384186,281259.10000002384,8085,WL,A,11.0
2,24.092999935150146,learn,35907.00006484985,Mon Jan 05 2026 10:46:59 GMT-0600 (Central Standard Time),281975.7000000477,A,sa,I,a,239,1,716.6000000238419,281259.10000002384,8085,WL,A,11.0
2,24.276000022888184,learn,35723.99997711182,Mon Jan 05 2026 10:46:59 GMT-0600 (Central Standard Time),282158.5,A,sal,I,l,165,1,899.3999999761581,281259.10000002384,8085,WL,A,11.0
2,24.64300012588501,learn,35356.99987411499,Mon Jan 05 2026 10:46:59 GMT-0600 (Central Standard Time),282525.0,A,salt,I,t,358,1,1265.8999999761581,281259.10000002384,8085,WL,A,11.0
2,25.276000022888184,learn,34723.99997711182,Mon Jan 05 2026 10:46:59 GMT-0600 (Central Standard Time),283158.0,A,saltenter,I,enter,623,1,1898.8999999761581,281259.10000002384,8085,WL,A,11.0
2,27.842000007629395,learn,32157.999992370605,Mon Jan 05 2026 10:46:59 GMT-0600 (Central Standard Time),285724.2000000477,A,enter,I,enter,2559,1,2566.0,283158.2000000477,8085,WL,A,12.0
2,28.325000047683716,learn,31674.999952316284,Mon Jan 05 2026 10:46:59 GMT-0600 (Central Standard Time),286207.40000009537,A,enter,I,enter,463,1,482.8000000715256,285724.60000002384,8085,WL,A,13.0
2,28.79200005531311,learn,31207.99994468689,Mon Jan 05 2026 10:46:59 GMT-0600 (Central Standard Time),286673.90000009537,A,enter,I,enter,453,1,466.2000000476837,286207.7000000477,8085,WL,A,14.0
2,29.674999952316284,learn,30325.000047683716,Mon Jan 05 2026 10:46:59 GMT-0600 (Central Standard Time),287557.0,A,enter,I,enter,867,1,882.6999999284744,286674.3000000715,8085,WL,A,15.0
3,0.5669999122619629,learn,59433.00008773804,Mon Jan 05 2026 10:46:59 GMT-0600 (Central Standard Time),356485.40000009537,A,k,I,k,550,1,566.4000000953674,355919.0,8085,WL,A,1.0
3,0.6830000877380371,learn,59316.99991226196,Mon Jan 05 2026 10:46:59 GMT-0600 (Central Standard Time),356601.90000009537,A,ke,I,e,110,1,682.9000000953674,355919.0,8085,WL,A,1.0
3,0.9000000953674316,learn,59099.99990463257,Mon Jan 05 2026 10:46:59 GMT-0600 (Central Standard Time),356818.5,A,key,I,y,210,1,899.5,355919.0,8085,WL,A,1.0
3,1.1659998893737793,learn,58834.00011062622,Mon Jan 05 2026 10:46:59 GMT-0600 (Central Standard Time),357085.0,A,keyenter,I,enter,250,1,1166.0,355919.0,8085,WL,A,1.0
3,1.5,learn,58500.0,Mon Jan 05 2026 10:46:59 GMT-0600 (Central Standard Time),357418.5,A,b,I,b,320,1,333.1999999284744,357085.3000000715,8085,WL,A,2.0
3,1.6659998893737793,learn,58334.00011062622,Mon Jan 05 2026 10:46:59 GMT-0600 (Central Standard Time),357584.90000009537,A,bu,I,u,146,1,499.60000002384186,357085.3000000715,8085,WL,A,2.0
3,1.8819999694824219,learn,58118.00003051758,Mon Jan 05 2026 10:46:59 GMT-0600 (Central Standard Time),357801.60000002384,A,but,I,t,196,1,716.2999999523163,357085.3000000715,8085,WL,A,2.0
3,2.0829999446868896,learn,57917.00005531311,Mon Jan 05 2026 10:46:59 GMT-0600 (Central Standard Time),358001.7000000477,A,butt,I,t,187,1,916.3999999761581,357085.3000000715,8085,WL,A,2.0
3,2.1500000953674316,learn,57849.99990463257,Mon Jan 05 2026 10:46:59 GMT-0600 (Central Standard Time),358069.3000000715,A,butto,I,o,51,1,984.0,357085.3000000715,8085,WL,A,2.0
3,2.3489999771118164,learn,57651.00002288818,Mon Jan 05 2026 10:46:59 GMT-0600 (Central Standard Time),358268.0,A,button,I,n,191,1,1182.6999999284744,357085.3000000715,8085,WL,A,2.0
3,2.5820000171661377,learn,57417.99998283386,Mon Jan 05 2026 10:46:59 GMT-0600 (Central Standard Time),358501.40000009537,A,buttonenter,I,enter,225,1,1416.1000000238419,357085.3000000715,8085,WL,A,2.0
3,2.865000009536743,learn,57134.99999046326,Mon Jan 05 2026 10:46:59 GMT-0600 (Central Standard Time),358784.7000000477,A,t,I,t,263,1,283.0,358501.7000000477,8085,WL,A,3.0
3,3.4149999618530273,learn,56585.00003814697,Mon Jan 05 2026 10:46:59 GMT-0600 (Central Standard Time),359334.3000000715,A,,I,backspace,539,1,832.6000000238419,358501.7000000477,8085,WL,A,3.0
3,3.5980000495910645,learn,56401.999950408936,Mon Jan 05 2026 10:46:59 GMT-0600 (Central Standard Time),359517.7000000477,A,r,I,r,167,1,1016.0,358501.7000000477,8085,WL,A,3.0
3,3.7820000648498535,learn,56217.99993515015,Mon Jan 05 2026 10:46:59 GMT-0600 (Central Standard Time),359700.90000009537,A,ra,I,a,175,1,1199.2000000476837,358501.7000000477,8085,WL,A,3.0
3,4.082000017166138,learn,55917.99998283386,Mon Jan 05 2026 10:46:59 GMT-0600 (Central Standard Time),360000.90000009537,A,rat,I,t,287,1,1499.2000000476837,358501.7000000477,8085,WL,A,3.0
3,4.2809998989105225,learn,55719.00010108948,Mon Jan 05 2026 10:46:59 GMT-0600 (Central Standard Time),360200.7000000477,A,ratt,I,t,180,1,1699.0,358501.7000000477,8085,WL,A,3.0
3,4.381999969482422,learn,55618.00003051758,Mon Jan 05 2026 10:46:59 GMT-0600 (Central Standard Time),360300.7000000477,A,rattl,I,l,92,1,1799.0,358501.7000000477,8085,WL,A,3.0
3,4.5309998989105225,learn,55469.00010108948,Mon Jan 05 2026 10:46:59 GMT-0600 (Central Standard Time),360450.7000000477,A,rattle,I,e,143,1,1949.0,358501.7000000477,8085,WL,A,3.0
3,5.0320000648498535,learn,54967.99993515015,Mon Jan 05 2026 10:46:59 GMT-0600 (Central Standard Time),360950.90000009537,A,rattleenter,I,enter,481,1,2449.2000000476837,358501.7000000477,8085,WL,A,3.0
3,6.114000082015991,learn,53885.99991798401,Mon Jan 05 2026 10:46:59 GMT-0600 (Central Standard Time),362033.60000002384,A,t,I,t,1062,1,1082.3999999761581,360951.2000000477,8085,WL,A,4.0
3,6.414000034332275,learn,53585.999965667725,Mon Jan 05 2026 10:46:59 GMT-0600 (Central Standard Time),362333.60000002384,A,tr,I,r,283,1,1382.3999999761581,360951.2000000477,8085,WL,A,4.0
3,6.563999891281128,learn,53436.00010871887,Mon Jan 05 2026 10:46:59 GMT-0600 (Central Standard Time),362483.3000000715,A,tra,I,a,143,1,1532.1000000238419,360951.2000000477,8085,WL,A,4.0
3,6.730000019073486,learn,53269.999980926514,Mon Jan 05 2026 10:46:59 GMT-0600 (Central Standard Time),362649.8000000715,A,trai,I,i,161,1,1698.6000000238419,360951.2000000477,8085,WL,A,4.0
3,6.865000009536743,learn,53134.99999046326,Mon Jan 05 2026 10:46:59 GMT-0600 (Central Standard Time),362784.5,A,train,I,n,130,1,1833.2999999523163,360951.2000000477,8085,WL,A,4.0
3,7.164000034332275,learn,52835.999965667725,Mon Jan 05 2026 10:46:59 GMT-0600 (Central Standard Time),363083.2000000477,A,trainenter,I,enter,284,1,2132.0,360951.2000000477,8085,WL,A,4.0
3,7.5309998989105225,learn,52469.00010108948,Mon Jan 05 2026 10:46:59 GMT-0600 (Central Standard Time),363449.90000009537,A,r,I,r,360,1,366.3000000715256,363083.60000002384,8085,WL,A,5.0
3,7.697000026702881,learn,52302.99997329712,Mon Jan 05 2026 10:46:59 GMT-0600 (Central Standard Time),363616.60000002384,A,ru,I,u,155,1,533.0,363083.60000002384,8085,WL,A,5.0
3,7.880000114440918,learn,52119.99988555908,Mon Jan 05 2026 10:46:59 GMT-0600 (Central Standard Time),363799.60000002384,A,rug,I,g,172,1,716.0,363083.60000002384,8085,WL,A,5.0
3,8.329999923706055,learn,51670.000076293945,Mon Jan 05 2026 10:46:59 GMT-0600 (Central Standard Time),364249.3000000715,A,rugenter,I,enter,445,1,1165.7000000476837,363083.60000002384,8085,WL,A,5.0
3,8.71399998664856,learn,51286.00001335144,Mon Jan 05 2026 10:46:59 GMT-0600 (Central Standard Time),364633.0,A,m,I,m,363,1,383.39999997615814,364249.60000002384,8085,WL,A,6.0
3,8.813999891281128,learn,51186.00010871887,Mon Jan 05 2026 10:46:59 GMT-0600 (Central Standard Time),364732.8000000715,A,me,I,e,92,1,483.2000000476837,364249.60000002384,8085,WL,A,6.0
3,9.013000011444092,learn,50986.99998855591,Mon Jan 05 2026 10:46:59 GMT-0600 (Central Standard Time),364932.60000002384,A,mea,I,a,192,1,683.0,364249.60000002384,8085,WL,A,6.0
3,9.19700002670288,learn,50802.99997329712,Mon Jan 05 2026 10:46:59 GMT-0600 (Central Standard Time),365116.0,A,mead,I,d,175,1,866.3999999761581,364249.60000002384,8085,WL,A,6.0
3,9.36299991607666,learn,50637.00008392334,Mon Jan 05 2026 10:46:59 GMT-0600 (Central Standard Time),365282.60000002384,A,meado,I,o,152,1,1033.0,364249.60000002384,8085,WL,A,6.0
3,9.763000011444092,learn,50236.99998855591,Mon Jan 05 2026 10:46:59 GMT-0600 (Central Standard Time),365682.10000002384,A,meadow,I,w,394,1,1432.5,364249.60000002384,8085,WL,A,6.0
3,10.213000059127808,learn,49786.99994087219,Mon Jan 05 2026 10:46:59 GMT-0600 (Central Standard Time),366132.3000000715,A,meadowenter,I,enter,443,1,1882.7000000476837,364249.60000002384,8085,WL,A,6.0
3,10.546000003814697,learn,49453.9999961853,Mon Jan 05 2026 10:46:59 GMT-0600 (Central Standard Time),366465.5,A,f,I,f,312,1,332.7999999523163,366132.7000000477,8085,WL,A,7.0
3,10.729000091552734,learn,49270.999908447266,Mon Jan 05 2026 10:46:59 GMT-0600 (Central Standard Time),366648.60000002384,A,fl,I,l,171,1,515.8999999761581,366132.7000000477,8085,WL,A,7.0
3,11.240000009536743,learn,48759.99999046326,Mon Jan 05 2026 10:46:59 GMT-0600 (Central Standard Time),367158.90000009537,A,flo,I,o,359,1,1026.2000000476837,366132.7000000477,8085,WL,A,7.0
3,11.246000051498413,learn,48753.99994850159,Mon Jan 05 2026 10:46:59 GMT-0600 (Central Standard Time),367164.90000009537,A,flow,I,w,0,1,1032.2000000476837,366132.7000000477,8085,WL,A,7.0
3,11.395999908447266,learn,48604.000091552734,Mon Jan 05 2026 10:46:59 GMT-0600 (Central Standard Time),367315.0,A,flowe,I,e,131,1,1182.2999999523163,366132.7000000477,8085,WL,A,7.0
3,11.529000043869019,learn,48470.99995613098,Mon Jan 05 2026 10:46:59 GMT-0600 (Central Standard Time),367448.5,A,flower,I,r,129,1,1315.7999999523163,366132.7000000477,8085,WL,A,7.0
3,12.312000036239624,learn,47687.999963760376,Mon Jan 05 2026 10:46:59 GMT-0600 (Central Standard Time),368231.5,A,flowerenter,I,enter,763,1,2098.7999999523163,366132.7000000477,8085,WL,A,7.0
3,12.661999940872192,learn,47338.00005912781,Mon Jan 05 2026 10:46:59 GMT-0600 (Central Standard Time),368581.5,A,b,I,b,333,1,349.6999999284744,368231.8000000715,8085,WL,A,8.0
3,12.796000003814697,learn,47203.9999961853,Mon Jan 05 2026 10:46:59 GMT-0600 (Central Standard Time),368714.7000000477,A,bo,I,o,119,1,482.89999997615814,368231.8000000715,8085,WL,A,8.0
3,12.977999925613403,learn,47022.0000743866,Mon Jan 05 2026 10:46:59 GMT-0600 (Central Standard Time),368897.8000000715,A,boo,I,o,177,1,666.0,368231.8000000715,8085,WL,A,8.0
3,13.178999900817871,learn,46821.00009918213,Mon Jan 05 2026 10:46:59 GMT-0600 (Central Standard Time),369097.7000000477,A,book,I,k,195,1,865.8999999761581,368231.8000000715,8085,WL,A,8.0
3,13.611999988555908,learn,46388.00001144409,Mon Jan 05 2026 10:46:59 GMT-0600 (Central Standard Time),369531.2000000477,A,bookenter,I,enter,419,1,1299.3999999761581,368231.8000000715,8085,WL,A,8.0
3,14.444999933242798,learn,45555.0000667572,Mon Jan 05 2026 10:46:59 GMT-0600 (Central Standard Time),370364.40000009537,A,a,I,a,826,1,832.9000000953674,369531.5,8085,WL,A,9.0
3,14.51200008392334,learn,45487.99991607666,Mon Jan 05 2026 10:46:59 GMT-0600 (Central Standard Time),370430.90000009537,A,ap,I,p,48,1,899.4000000953674,369531.5,8085,WL,A,9.0
3,14.713000059127808,learn,45286.99994087219,Mon Jan 05 2026 10:46:59 GMT-0600 (Central Standard Time),370632.0,A,app,I,p,190,1,1100.5,369531.5,8085,WL,A,9.0
3,14.944999933242798,learn,45055.0000667572,Mon Jan 05 2026 10:46:59 GMT-0600 (Central Standard Time),370864.0,A,appl,I,l,220,1,1332.5,369531.5,8085,WL,A,9.0
3,14.994999885559082,learn,45005.00011444092,Mon Jan 05 2026 10:46:59 GMT-0600 (Central Standard Time),370914.10000002384,A,apple,I,e,36,1,1382.6000000238419,369531.5,8085,WL,A,9.0
3,15.644999980926514,learn,44355.000019073486,Mon Jan 05 2026 10:46:59 GMT-0600 (Central Standard Time),371563.90000009537,A,appleenter,I,enter,642,1,2032.4000000953674,369531.5,8085,WL,A,9.0
3,16.045000076293945,learn,43954.999923706055,Mon Jan 05 2026 10:46:59 GMT-0600 (Central Standard Time),371963.8000000715,A,s,I,s,393,1,399.5,371564.3000000715,8085,WL,A,10.0
3,16.194000005722046,learn,43805.999994277954,Mon Jan 05 2026 10:46:59 GMT-0600 (Central Standard Time),372113.60000002384,A,sa,I,a,137,1,549.2999999523163,371564.3000000715,8085,WL,A,10.0
3,16.344000101089478,learn,43655.99989891052,Mon Jan 05 2026 10:46:59 GMT-0600 (Central Standard Time),372263.7000000477,A,sal,I,l,130,1,699.3999999761581,371564.3000000715,8085,WL,A,10.0
3,16.57800006866455,learn,43421.99993133545,Mon Jan 05 2026 10:46:59 GMT-0600 (Central Standard Time),372496.90000009537,A,salt,I,t,229,1,932.6000000238419,371564.3000000715,8085,WL,A,10.0
3,16.960999965667725,learn,43039.000034332275,Mon Jan 05 2026 10:46:59 GMT-0600 (Central Standard Time),372880.3000000715,A,saltenter,I,enter,363,1,1316.0,371564.3000000715,8085,WL,A,10.0
3,17.361000061035156,learn,42638.999938964844,Mon Jan 05 2026 10:46:59 GMT-0600 (Central Standard Time),373280.10000002384,A,f,I,f,380,1,399.5,372880.60000002384,8085,WL,A,11.0
3,17.444000005722046,learn,42555.999994277954,Mon Jan 05 2026 10:46:59 GMT-0600 (Central Standard Time),373363.40000009537,A,fi,I,i,76,1,482.8000000715256,372880.60000002384,8085,WL,A,11.0
3,17.64400005340576,learn,42355.99994659424,Mon Jan 05 2026 10:46:59 GMT-0600 (Central Standard Time),373563.40000009537,A,fin,I,n,193,1,682.8000000715256,372880.60000002384,8085,WL,A,11.0
3,17.811000108718872,learn,42188.99989128113,Mon Jan 05 2026 10:46:59 GMT-0600 (Central Standard Time),373730.2000000477,A,fing,I,g,153,1,849.6000000238419,372880.60000002384,8085,WL,A,11.0
3,18.026999950408936,learn,41973.000049591064,Mon Jan 05 2026 10:46:59 GMT-0600 (Central Standard Time),373946.5,A,finge,I,e,202,1,1065.8999999761581,372880.60000002384,8085,WL,A,11.0
3,18.07699990272522,learn,41923.00009727478,Mon Jan 05 2026 10:46:59 GMT-0600 (Central Standard Time),373996.5,A,finger,I,r,42,1,1115.8999999761581,372880.60000002384,8085,WL,A,11.0
3,18.344000101089478,learn,41655.99989891052,Mon Jan 05 2026 10:46:59 GMT-0600 (Central Standard Time),374263.0,A,fingerenter,I,enter,247,1,1382.3999999761581,372880.60000002384,8085,WL,A,11.0
3,19.127000093460083,learn,40872.99990653992,Mon Jan 05 2026 10:46:59 GMT-0600 (Central Standard Time),375046.3000000715,A,h,I,h,764,1,783.0,374263.3000000715,8085,WL,A,12.0
3,20.042999982833862,learn,39957.00001716614,Mon Jan 05 2026 10:46:59 GMT-0600 (Central Standard Time),375962.60000002384,A,ha,I,a,910,1,1699.2999999523163,374263.3000000715,8085,WL,A,12.0
3,20.210999965667725,learn,39789.000034332275,Mon Jan 05 2026 10:46:59 GMT-0600 (Central Standard Time),376130.10000002384,A,har,I,r,146,1,1866.7999999523163,374263.3000000715,8085,WL,A,12.0
3,20.609999895095825,learn,39390.000104904175,Mon Jan 05 2026 10:46:59 GMT-0600 (Central Standard Time),376529.2000000477,A,harp,I,p,378,1,2265.899999976158,374263.3000000715,8085,WL,A,12.0
3,20.960000038146973,learn,39039.99996185303,Mon Jan 05 2026 10:46:59 GMT-0600 (Central Standard Time),376878.8000000715,A,harpenter,I,enter,338,1,2615.5,374263.3000000715,8085,WL,A,12.0
3,21.575999975204468,learn,38424.00002479553,Mon Jan 05 2026 10:46:59 GMT-0600 (Central Standard Time),377495.2000000477,A,g,I,g,597,1,616.0,376879.2000000477,8085,WL,A,13.0
3,21.693000078201294,learn,38306.999921798706,Mon Jan 05 2026 10:46:59 GMT-0600 (Central Standard Time),377611.8000000715,A,go,I,o,101,1,732.6000000238419,376879.2000000477,8085,WL,A,13.0
3,21.908999919891357,learn,38091.00008010864,Mon Jan 05 2026 10:46:59 GMT-0600 (Central Standard Time),377828.5,A,gol,I,l,208,1,949.2999999523163,376879.2000000477,8085,WL,A,13.0
3,22.042999982833862,learn,37957.00001716614,Mon Jan 05 2026 10:46:59 GMT-0600 (Central Standard Time),377961.8000000715,A,gold,I,d,119,1,1082.6000000238419,376879.2000000477,8085,WL,A,13.0
3,22.608999967575073,learn,37391.00003242493,Mon Jan 05 2026 10:46:59 GMT-0600 (Central Standard Time),378528.2000000477,A,goldenter,I,enter,554,1,1649.0,376879.2000000477,8085,WL,A,13.0
3,24.009000062942505,learn,35990.999937057495,Mon Jan 05 2026 10:46:59 GMT-0600 (Central Standard Time),379928.2000000477,A,enter,I,enter,1388,1,1399.7999999523163,378528.40000009537,8085,WL,A,14.0
3,24.45799994468689,learn,35542.00005531311,Mon Jan 05 2026 10:46:59 GMT-0600 (Central Standard Time),380377.5,A,enter,I,enter,444,1,448.89999997615814,379928.60000002384,8085,WL,A,15.0
4,0.39999985694885254,learn,59600.00014305115,Mon Jan 05 2026 10:46:59 GMT-0600 (Central Standard Time),448472.90000009537,A,r,I,r,395,1,399.60000002384186,448073.3000000715,8085,WL,A,1.0
4,0.6169998645782471,learn,59383.00013542175,Mon Jan 05 2026 10:46:59 GMT-0600 (Central Standard Time),448689.7000000477,A,ra,I,a,195,1,616.3999999761581,448073.3000000715,8085,WL,A,1.0
4,0.8339998722076416,learn,59166.00012779236,Mon Jan 05 2026 10:46:59 GMT-0600 (Central Standard Time),448906.40000009537,A,rat,I,t,202,1,833.1000000238419,448073.3000000715,8085,WL,A,1.0
4,1.066999912261963,learn,58933.00008773804,Mon Jan 05 2026 10:46:59 GMT-0600 (Central Standard Time),449139.40000009537,A,ratt,I,t,217,1,1066.1000000238419,448073.3000000715,8085,WL,A,1.0
4,1.25,learn,58750.0,Mon Jan 05 2026 10:46:59 GMT-0600 (Central Standard Time),449322.8000000715,A,rattl,I,l,169,1,1249.5,448073.3000000715,8085,WL,A,1.0
4,1.43399977684021,learn,58566.00022315979,Mon Jan 05 2026 10:46:59 GMT-0600 (Central Standard Time),449506.3000000715,A,rattle,I,e,169,1,1433.0,448073.3000000715,8085,WL,A,1.0
4,1.9499998092651367,learn,58050.00019073486,Mon Jan 05 2026 10:46:59 GMT-0600 (Central Standard Time),450022.40000009537,A,rattleenter,I,enter,497,1,1949.1000000238419,448073.3000000715,8085,WL,A,1.0
4,2.6659998893737793,learn,57334.00011062622,Mon Jan 05 2026 10:46:59 GMT-0600 (Central Standard Time),450738.8000000715,A,g,I,g,709,1,716.1000000238419,450022.7000000477,8085,WL,A,2.0
4,2.799999952316284,learn,57200.000047683716,Mon Jan 05 2026 10:46:59 GMT-0600 (Central Standard Time),450872.3000000715,A,go,I,o,129,1,849.6000000238419,450022.7000000477,8085,WL,A,2.0
4,3.065999984741211,learn,56934.00001525879,Mon Jan 05 2026 10:46:59 GMT-0600 (Central Standard Time),451139.10000002384,A,gol,I,l,252,1,1116.3999999761581,450022.7000000477,8085,WL,A,2.0
4,3.2159998416900635,learn,56784.00015830994,Mon Jan 05 2026 10:46:59 GMT-0600 (Central Standard Time),451289.10000002384,A,gold,I,d,137,1,1266.3999999761581,450022.7000000477,8085,WL,A,2.0
4,3.548999786376953,learn,56451.00021362305,Mon Jan 05 2026 10:46:59 GMT-0600 (Central Standard Time),451622.2000000477,A,goldenter,I,enter,323,1,1599.5,450022.7000000477,8085,WL,A,2.0
4,4.31499981880188,learn,55685.00018119812,Mon Jan 05 2026 10:46:59 GMT-0600 (Central Standard Time),452388.10000002384,A,h,I,h,749,1,765.6999999284744,451622.40000009537,8085,WL,A,3.0
4,4.615999937057495,learn,55384.000062942505,Mon Jan 05 2026 10:46:59 GMT-0600 (Central Standard Time),452688.3000000715,A,ha,I,a,295,1,1065.8999999761581,451622.40000009537,8085,WL,A,3.0
4,4.781999826431274,learn,55218.000173568726,Mon Jan 05 2026 10:46:59 GMT-0600 (Central Standard Time),452855.2000000477,A,har,I,r,157,1,1232.7999999523163,451622.40000009537,8085,WL,A,3.0
4,4.998999834060669,learn,55001.00016593933,Mon Jan 05 2026 10:46:59 GMT-0600 (Central Standard Time),453071.7000000477,A,harp,I,p,205,1,1449.2999999523163,451622.40000009537,8085,WL,A,3.0
4,5.631999969482422,learn,54368.00003051758,Mon Jan 05 2026 10:46:59 GMT-0600 (Central Standard Time),453704.5,A,harpenter,I,enter,612,1,2082.0999999046326,451622.40000009537,8085,WL,A,3.0
4,6.2149999141693115,learn,53785.00008583069,Mon Jan 05 2026 10:46:59 GMT-0600 (Central Standard Time),454288.0,A,f,I,f,563,1,583.1999999284744,453704.8000000715,8085,WL,A,4.0
4,6.298999786376953,learn,53701.00021362305,Mon Jan 05 2026 10:46:59 GMT-0600 (Central Standard Time),454371.2000000477,A,fi,I,i,68,1,666.3999999761581,453704.8000000715,8085,WL,A,4.0
4,6.48199987411499,learn,53518.00012588501,Mon Jan 05 2026 10:46:59 GMT-0600 (Central Standard Time),454554.5,A,fin,I,n,169,1,849.6999999284744,453704.8000000715,8085,WL,A,4.0
4,6.56499981880188,learn,53435.00018119812,Mon Jan 05 2026 10:46:59 GMT-0600 (Central Standard Time),454637.90000009537,A,fing,I,g,74,1,933.1000000238419,453704.8000000715,8085,WL,A,4.0
4,6.831999778747559,learn,53168.00022125244,Mon Jan 05 2026 10:46:59 GMT-0600 (Central Standard Time),454904.40000009537,A,finge,I,e,254,1,1199.6000000238419,453704.8000000715,8085,WL,A,4.0
4,6.931999921798706,learn,53068.000078201294,Mon Jan 05 2026 10:46:59 GMT-0600 (Central Standard Time),455004.3000000715,A,finger,I,r,84,1,1299.5,453704.8000000715,8085,WL,A,4.0
4,7.447999954223633,learn,52552.00004577637,Mon Jan 05 2026 10:46:59 GMT-0600 (Central Standard Time),455521.10000002384,A,fingerenter,I,enter,504,1,1816.2999999523163,453704.8000000715,8085,WL,A,4.0
4,7.730999946594238,learn,52269.00005340576,Mon Jan 05 2026 10:46:59 GMT-0600 (Central Standard Time),455804.0,A,a,I,a,267,1,282.59999990463257,455521.40000009537,8085,WL,A,5.0
4,7.914999961853027,learn,52085.00003814697,Mon Jan 05 2026 10:46:59 GMT-0600 (Central Standard Time),455987.5,A,ap,I,p,176,1,466.09999990463257,455521.40000009537,8085,WL,A,5.0
4,8.148000001907349,learn,51851.99999809265,Mon Jan 05 2026 10:46:59 GMT-0600 (Central Standard Time),456220.8000000715,A,app,I,p,217,1,699.3999999761581,455521.40000009537,8085,WL,A,5.0
4,8.398000001907349,learn,51601.99999809265,Mon Jan 05 2026 10:46:59 GMT-0600 (Central Standard Time),456470.5,A,appl,I,l,231,1,949.0999999046326,455521.40000009537,8085,WL,A,5.0
4,8.530999898910522,learn,51469.00010108948,Mon Jan 05 2026 10:46:59 GMT-0600 (Central Standard Time),456604.2000000477,A,apple,I,e,117,1,1082.7999999523163,455521.40000009537,8085,WL,A,5.0
4,8.96399998664856,learn,51036.00001335144,Mon Jan 05 2026 10:46:59 GMT-0600 (Central Standard Time),457037.0,A,appleenter,I,enter,417,1,1515.5999999046326,455521.40000009537,8085,WL,A,5.0
4,9.398000001907349,learn,50601.99999809265,Mon Jan 05 2026 10:46:59 GMT-0600 (Central Standard Time),457470.40000009537,A,s,I,s,414,1,433.10000002384186,457037.3000000715,8085,WL,A,6.0
4,9.597999811172485,learn,50402.000188827515,Mon Jan 05 2026 10:46:59 GMT-0600 (Central Standard Time),457670.40000009537,A,sa,I,a,181,1,633.1000000238419,457037.3000000715,8085,WL,A,6.0
4,9.71399998664856,learn,50286.00001335144,Mon Jan 05 2026 10:46:59 GMT-0600 (Central Standard Time),457786.90000009537,A,sal,I,l,110,1,749.6000000238419,457037.3000000715,8085,WL,A,6.0
4,9.896999835968018,learn,50103.00016403198,Mon Jan 05 2026 10:46:59 GMT-0600 (Central Standard Time),457969.8000000715,A,salt,I,t,178,1,932.5,457037.3000000715,8085,WL,A,6.0
4,10.263999938964844,learn,49736.000061035156,Mon Jan 05 2026 10:46:59 GMT-0600 (Central Standard Time),458336.7000000477,A,saltenter,I,enter,347,1,1299.3999999761581,457037.3000000715,8085,WL,A,6.0
4,11.496999979019165,learn,48503.000020980835,Mon Jan 05 2026 10:46:59 GMT-0600 (Central Standard Time),459569.7000000477,A,t,I,t,1219,1,1232.7000000476837,458337.0,8085,WL,A,7.0
4,11.729999780654907,learn,48270.00021934509,Mon Jan 05 2026 10:46:59 GMT-0600 (Central Standard Time),459802.90000009537,A,tr,I,r,218,1,1465.9000000953674,458337.0,8085,WL,A,7.0
4,11.846999883651733,learn,48153.00011634827,Mon Jan 05 2026 10:46:59 GMT-0600 (Central Standard Time),459919.3000000715,A,tra,I,a,97,1,1582.3000000715256,458337.0,8085,WL,A,7.0
4,11.946999788284302,learn,48053.0002117157,Mon Jan 05 2026 10:46:59 GMT-0600 (Central Standard Time),460019.60000002384,A,trai,I,i,84,1,1682.6000000238419,458337.0,8085,WL,A,7.0
4,12.11299991607666,learn,47887.00008392334,Mon Jan 05 2026 10:46:59 GMT-0600 (Central Standard Time),460186.2000000477,A,train,I,n,160,1,1849.2000000476837,458337.0,8085,WL,A,7.0
4,12.379999876022339,learn,47620.00012397766,Mon Jan 05 2026 10:46:59 GMT-0600 (Central Standard Time),460452.7000000477,A,trainenter,I,enter,257,1,2115.7000000476837,458337.0,8085,WL,A,7.0
4,12.646999835968018,learn,47353.00016403198,Mon Jan 05 2026 10:46:59 GMT-0600 (Central Standard Time),460719.5,A,f,I,f,247,1,266.59999990463257,460452.90000009537,8085,WL,A,8.0
4,12.762999773025513,learn,47237.00022697449,Mon Jan 05 2026 10:46:59 GMT-0600 (Central Standard Time),460835.90000009537,A,fl,I,l,108,1,383.0,460452.90000009537,8085,WL,A,8.0
4,12.979999780654907,learn,47020.00021934509,Mon Jan 05 2026 10:46:59 GMT-0600 (Central Standard Time),461052.40000009537,A,flo,I,o,209,1,599.5,460452.90000009537,8085,WL,A,8.0
4,13.096999883651733,learn,46903.00011634827,Mon Jan 05 2026 10:46:59 GMT-0600 (Central Standard Time),461169.3000000715,A,flow,I,w,104,1,716.3999999761581,460452.90000009537,8085,WL,A,8.0
4,13.407999992370605,learn,46592.000007629395,Mon Jan 05 2026 10:46:59 GMT-0600 (Central Standard Time),461480.5,A,flowr,I,r,160,1,1027.5999999046326,460452.90000009537,8085,WL,A,8.0
4,13.77999997138977,learn,46220.00002861023,Mon Jan 05 2026 10:46:59 GMT-0600 (Central Standard Time),461852.3000000715,A,flowrenter,I,enter,356,1,1399.3999999761581,460452.90000009537,8085,WL,A,8.0
4,15.911999940872192,learn,44088.00005912781,Mon Jan 05 2026 10:46:59 GMT-0600 (Central Standard Time),463984.90000009537,A,m,I,m,2128,1,2132.2000000476837,461852.7000000477,8085,WL,A,9.0
4,15.995999813079834,learn,44004.000186920166,Mon Jan 05 2026 10:46:59 GMT-0600 (Central Standard Time),464068.5,A,me,I,e,68,1,2215.7999999523163,461852.7000000477,8085,WL,A,9.0
4,16.161999940872192,learn,43838.00005912781,Mon Jan 05 2026 10:46:59 GMT-0600 (Central Standard Time),464234.90000009537,A,mea,I,a,159,1,2382.2000000476837,461852.7000000477,8085,WL,A,9.0
4,16.378999948501587,learn,43621.00005149841,Mon Jan 05 2026 10:46:59 GMT-0600 (Central Standard Time),464451.40000009537,A,mead,I,d,209,1,2598.7000000476837,461852.7000000477,8085,WL,A,9.0
4,16.544999837875366,learn,43455.000162124634,Mon Jan 05 2026 10:46:59 GMT-0600 (Central Standard Time),464618.0,A,meado,I,o,146,1,2765.2999999523163,461852.7000000477,8085,WL,A,9.0
4,16.711999893188477,learn,43288.00010681152,Mon Jan 05 2026 10:46:59 GMT-0600 (Central Standard Time),464784.7000000477,A,meadow,I,w,162,1,2932.0,461852.7000000477,8085,WL,A,9.0
4,17.42799997329712,learn,42572.00002670288,Mon Jan 05 2026 10:46:59 GMT-0600 (Central Standard Time),465500.90000009537,A,meadowenter,I,enter,700,1,3648.2000000476837,461852.7000000477,8085,WL,A,9.0
4,20.777999877929688,learn,39222.00012207031,Mon Jan 05 2026 10:46:59 GMT-0600 (Central Standard Time),468850.40000009537,A,b,I,b,3344,1,3349.100000023842,465501.3000000715,8085,WL,A,10.0
4,21.026999950408936,learn,38973.000049591064,Mon Jan 05 2026 10:46:59 GMT-0600 (Central Standard Time),469100.0,A,bo,I,o,242,1,3598.6999999284744,465501.3000000715,8085,WL,A,10.0
4,21.22699999809265,learn,38773.00000190735,Mon Jan 05 2026 10:46:59 GMT-0600 (Central Standard Time),469299.8000000715,A,boo,I,o,193,1,3798.5,465501.3000000715,8085,WL,A,10.0
4,21.426999807357788,learn,38573.00019264221,Mon Jan 05 2026 10:46:59 GMT-0600 (Central Standard Time),469499.8000000715,A,book,I,k,193,1,3998.5,465501.3000000715,8085,WL,A,10.0
4,22.676999807357788,learn,37323.00019264221,Mon Jan 05 2026 10:46:59 GMT-0600 (Central Standard Time),470749.7000000477,A,bookenter,I,enter,1232,1,5248.399999976158,465501.3000000715,8085,WL,A,10.0
4,36.23899984359741,learn,23761.000156402588,Mon Jan 05 2026 10:46:59 GMT-0600 (Central Standard Time),484311.7000000477,A,a,I,a,13550,1,13561.700000047684,470750.0,8085,WL,A,11.0
4,38.50499987602234,learn,21495.00012397766,Mon Jan 05 2026 10:46:59 GMT-0600 (Central Standard Time),486577.90000009537,A,ap,I,p,2251,1,15827.900000095367,470750.0,8085,WL,A,11.0
4,39.97099995613098,learn,20029.00004386902,Mon Jan 05 2026 10:46:59 GMT-0600 (Central Standard Time),488044.2000000477,A,app,I,p,1458,1,17294.200000047684,470750.0,8085,WL,A,11.0
4,40.33699989318848,learn,19663.000106811523,Mon Jan 05 2026 10:46:59 GMT-0600 (Central Standard Time),488410.5,A,appl,I,l,359,1,17660.5,470750.0,8085,WL,A,11.0
4,40.50399994850159,learn,19496.000051498413,Mon Jan 05 2026 10:46:59 GMT-0600 (Central Standard Time),488577.0,A,apple,I,e,161,1,17827.0,470750.0,8085,WL,A,11.0
4,41.33699989318848,learn,18663.000106811523,Mon Jan 05 2026 10:46:59 GMT-0600 (Central Standard Time),489409.90000009537,A,appleenter,I,enter,828,1,18659.900000095367,470750.0,8085,WL,A,11.0
4,41.63699984550476,learn,18363.00015449524,Mon Jan 05 2026 10:46:59 GMT-0600 (Central Standard Time),489710.0,A,s,I,s,283,1,299.7999999523163,489410.2000000477,8085,WL,A,12.0
4,41.80399990081787,learn,18196.00009918213,Mon Jan 05 2026 10:46:59 GMT-0600 (Central Standard Time),489877.0,A,sa,I,a,158,1,466.7999999523163,489410.2000000477,8085,WL,A,12.0
4,41.919999837875366,learn,18080.000162124634,Mon Jan 05 2026 10:46:59 GMT-0600 (Central Standard Time),489993.2000000477,A,sal,I,l,111,1,583.0,489410.2000000477,8085,WL,A,12.0
4,42.23699998855591,learn,17763.00001144409,Mon Jan 05 2026 10:46:59 GMT-0600 (Central Standard Time),490310.40000009537,A,salt,I,t,307,1,900.2000000476837,489410.2000000477,8085,WL,A,12.0
4,42.70299983024597,learn,17297.00016975403,Mon Jan 05 2026 10:46:59 GMT-0600 (Central Standard Time),490776.60000002384,A,saltenter,I,enter,444,1,1366.3999999761581,489410.2000000477,8085,WL,A,12.0
4,43.63599991798401,learn,16364.000082015991,Mon Jan 05 2026 10:46:59 GMT-0600 (Central Standard Time),491709.60000002384,A,enter,I,enter,924,1,932.6999999284744,490776.90000009537,8085,WL,A,13.0
4,44.11899995803833,learn,15881.00004196167,Mon Jan 05 2026 10:46:59 GMT-0600 (Central Standard Time),492192.7000000477,A,enter,I,enter,478,1,482.7000000476837,491710.0,8085,WL,A,14.0
4,44.668999910354614,learn,15331.000089645386,Mon Jan 05 2026 10:46:59 GMT-0600 (Central Standard Time),492742.7000000477,A,enter,I,enter,532,1,549.7000000476837,492193.0,8085,WL,A,15.0
5,0.567000150680542,learn,60000.0,Mon Jan 05 2026 10:46:59 GMT-0600 (Central Standard Time),559221.8000000715,A,c,I,c,557,1,566.3999999761581,558655.4000000954,8085,WL,A,1.0
5,0.7000000476837158,learn,60000.0,Mon Jan 05 2026 10:46:59 GMT-0600 (Central Standard Time),559355.0,A,ch,I,h,124,1,699.5999999046326,558655.4000000954,8085,WL,A,1.0
5,0.9000000953674316,learn,60000.0,Mon Jan 05 2026 10:46:59 GMT-0600 (Central Standard Time),559554.9000000954,A,chi,I,i,186,1,899.5,558655.4000000954,8085,WL,A,1.0
5,1.1510000228881836,learn,60000.0,Mon Jan 05 2026 10:46:59 GMT-0600 (Central Standard Time),559805.2000000477,A,chim,I,m,233,1,1149.7999999523163,558655.4000000954,8085,WL,A,1.0
5,1.8670001029968262,learn,60000.0,Mon Jan 05 2026 10:46:59 GMT-0600 (Central Standard Time),560521.2000000477,A,chimn,I,n,711,1,1865.7999999523163,558655.4000000954,8085,WL,A,1.0
5,2.049999952316284,learn,60000.0,Mon Jan 05 2026 10:46:59 GMT-0600 (Central Standard Time),560704.4000000954,A,chimne,I,e,179,1,2049.0,558655.4000000954,8085,WL,A,1.0
5,2.25,learn,60000.0,Mon Jan 05 2026 10:46:59 GMT-0600 (Central Standard Time),560904.5,A,chimney,I,y,179,1,2249.0999999046326,558655.4000000954,8085,WL,A,1.0
5,2.75,learn,60000.0,Mon Jan 05 2026 10:46:59 GMT-0600 (Central Standard Time),561404.4000000954,A,chimneyenter,I,enter,491,1,2749.0,558655.4000000954,8085,WL,A,1.0
5,3.0829999446868896,learn,60000.0,Mon Jan 05 2026 10:46:59 GMT-0600 (Central Standard Time),561737.3000000715,A,l,I,l,327,1,332.39999997615814,561404.9000000954,8085,WL,A,2.0
5,3.315999984741211,learn,60000.0,Mon Jan 05 2026 10:46:59 GMT-0600 (Central Standard Time),561971.0,A,lo,I,o,218,1,566.0999999046326,561404.9000000954,8085,WL,A,2.0
5,3.4820001125335693,learn,60000.0,Mon Jan 05 2026 10:46:59 GMT-0600 (Central Standard Time),562137.1000000238,A,log,I,g,161,1,732.1999999284744,561404.9000000954,8085,WL,A,2.0
5,3.8329999446868896,learn,60000.0,Mon Jan 05 2026 10:46:59 GMT-0600 (Central Standard Time),562487.6000000238,A,logenter,I,enter,340,1,1082.6999999284744,561404.9000000954,8085,WL,A,2.0
5,4.598999977111816,learn,60000.0,Mon Jan 05 2026 10:46:59 GMT-0600 (Central Standard Time),563253.7000000477,A,b,I,b,757,1,765.7000000476837,562488.0,8085,WL,A,3.0
5,4.799000024795532,learn,60000.0,Mon Jan 05 2026 10:46:59 GMT-0600 (Central Standard Time),563453.9000000954,A,bu,I,u,191,1,965.9000000953674,562488.0,8085,WL,A,3.0
5,4.982000112533569,learn,60000.0,Mon Jan 05 2026 10:46:59 GMT-0600 (Central Standard Time),563637.1000000238,A,but,I,t,174,1,1149.1000000238419,562488.0,8085,WL,A,3.0
5,5.166000127792358,learn,60000.0,Mon Jan 05 2026 10:46:59 GMT-0600 (Central Standard Time),563820.3000000715,A,butt,I,t,175,1,1332.3000000715256,562488.0,8085,WL,A,3.0
5,5.2820000648498535,learn,60000.0,Mon Jan 05 2026 10:46:59 GMT-0600 (Central Standard Time),563937.0,A,butto,I,o,96,1,1449.0,562488.0,8085,WL,A,3.0
5,5.465000152587891,learn,60000.0,Mon Jan 05 2026 10:46:59 GMT-0600 (Central Standard Time),564120.2000000477,A,button,I,n,172,1,1632.2000000476837,562488.0,8085,WL,A,3.0
5,5.7820000648498535,learn,60000.0,Mon Jan 05 2026 10:46:59 GMT-0600 (Central Standard Time),564436.3000000715,A,buttonenter,I,enter,299,1,1948.3000000715256,562488.0,8085,WL,A,3.0
5,6.498000144958496,learn,60000.0,Mon Jan 05 2026 10:46:59 GMT-0600 (Central Standard Time),565152.9000000954,A,k,I,k,711,1,716.4000000953674,564436.5,8085,WL,A,4.0
5,6.680999994277954,learn,60000.0,Mon Jan 05 2026 10:46:59 GMT-0600 (Central Standard Time),565336.1000000238,A,ke,I,e,162,1,899.6000000238419,564436.5,8085,WL,A,4.0
5,6.898000001907349,learn,60000.0,Mon Jan 05 2026 10:46:59 GMT-0600 (Central Standard Time),565552.7000000477,A,key,I,y,203,1,1116.2000000476837,564436.5,8085,WL,A,4.0
5,7.482000112533569,learn,60000.0,Mon Jan 05 2026 10:46:59 GMT-0600 (Central Standard Time),566136.3000000715,A,keyenter,I,enter,563,1,1699.8000000715256,564436.5,8085,WL,A,4.0
5,7.914000034332275,learn,60000.0,Mon Jan 05 2026 10:46:59 GMT-0600 (Central Standard Time),566569.2000000477,A,r,I,r,428,1,432.60000002384186,566136.6000000238,8085,WL,A,5.0
5,8.148000001907349,learn,60000.0,Mon Jan 05 2026 10:46:59 GMT-0600 (Central Standard Time),566802.6000000238,A,ra,I,a,219,1,666.0,566136.6000000238,8085,WL,A,5.0
5,8.331000089645386,learn,60000.0,Mon Jan 05 2026 10:46:59 GMT-0600 (Central Standard Time),566985.6000000238,A,rat,I,t,177,1,849.0,566136.6000000238,8085,WL,A,5.0
5,8.581000089645386,learn,60000.0,Mon Jan 05 2026 10:46:59 GMT-0600 (Central Standard Time),567235.9000000954,A,ratt,I,t,235,1,1099.3000000715256,566136.6000000238,8085,WL,A,5.0
5,8.71399998664856,learn,60000.0,Mon Jan 05 2026 10:46:59 GMT-0600 (Central Standard Time),567368.9000000954,A,rattl,I,l,128,1,1232.3000000715256,566136.6000000238,8085,WL,A,5.0
5,8.898000001907349,learn,60000.0,Mon Jan 05 2026 10:46:59 GMT-0600 (Central Standard Time),567552.3000000715,A,rattle,I,e,163,1,1415.7000000476837,566136.6000000238,8085,WL,A,5.0
5,9.230999946594238,learn,60000.0,Mon Jan 05 2026 10:46:59 GMT-0600 (Central Standard Time),567885.6000000238,A,rattleenter,I,enter,315,1,1749.0,566136.6000000238,8085,WL,A,5.0
5,9.730999946594238,learn,60000.0,Mon Jan 05 2026 10:46:59 GMT-0600 (Central Standard Time),568385.2000000477,A,g,I,g,494,1,499.2999999523163,567885.9000000954,8085,WL,A,6.0
5,9.864000082015991,learn,60000.0,Mon Jan 05 2026 10:46:59 GMT-0600 (Central Standard Time),568519.0,A,go,I,o,123,1,633.0999999046326,567885.9000000954,8085,WL,A,6.0
5,10.114000082015991,learn,60000.0,Mon Jan 05 2026 10:46:59 GMT-0600 (Central Standard Time),568768.9000000954,A,gol,I,l,230,1,883.0,567885.9000000954,8085,WL,A,6.0
5,10.21399998664856,learn,60000.0,Mon Jan 05 2026 10:46:59 GMT-0600 (Central Standard Time),568868.3000000715,A,gold,I,d,91,1,982.3999999761581,567885.9000000954,8085,WL,A,6.0
5,10.597000122070312,learn,60000.0,Mon Jan 05 2026 10:46:59 GMT-0600 (Central Standard Time),569251.9000000954,A,goldenter,I,enter,375,1,1366.0,567885.9000000954,8085,WL,A,6.0
5,10.996999979019165,learn,60000.0,Mon Jan 05 2026 10:46:59 GMT-0600 (Central Standard Time),569651.9000000954,A,h,I,h,393,1,399.7000000476837,569252.2000000477,8085,WL,A,7.0
5,11.180000066757202,learn,60000.0,Mon Jan 05 2026 10:46:59 GMT-0600 (Central Standard Time),569835.2000000477,A,ha,I,a,176,1,583.0,569252.2000000477,8085,WL,A,7.0
5,11.329999923706055,learn,60000.0,Mon Jan 05 2026 10:46:59 GMT-0600 (Central Standard Time),569985.1000000238,A,har,I,r,145,1,732.8999999761581,569252.2000000477,8085,WL,A,7.0
5,11.579999923706055,learn,60000.0,Mon Jan 05 2026 10:46:59 GMT-0600 (Central Standard Time),570235.0,A,harp,I,p,234,1,982.7999999523163,569252.2000000477,8085,WL,A,7.0
5,11.94700002670288,learn,60000.0,Mon Jan 05 2026 10:46:59 GMT-0600 (Central Standard Time),570601.9000000954,A,harpenter,I,enter,353,1,1349.7000000476837,569252.2000000477,8085,WL,A,7.0
5,12.663000106811523,learn,60000.0,Mon Jan 05 2026 10:46:59 GMT-0600 (Central Standard Time),571317.9000000954,A,f,I,f,699,1,715.7000000476837,570602.2000000477,8085,WL,A,8.0
5,12.746000051498413,learn,60000.0,Mon Jan 05 2026 10:46:59 GMT-0600 (Central Standard Time),571401.1000000238,A,fi,I,i,70,1,798.8999999761581,570602.2000000477,8085,WL,A,8.0
5,12.946000099182129,learn,60000.0,Mon Jan 05 2026 10:46:59 GMT-0600 (Central Standard Time),571601.0,A,fin,I,n,179,1,998.7999999523163,570602.2000000477,8085,WL,A,8.0
5,13.562999963760376,learn,60000.0,Mon Jan 05 2026 10:46:59 GMT-0600 (Central Standard Time),572217.4000000954,A,fing,I,g,610,1,1615.2000000476837,570602.2000000477,8085,WL,A,8.0
5,13.828999996185303,learn,60000.0,Mon Jan 05 2026 10:46:59 GMT-0600 (Central Standard Time),572483.9000000954,A,finge,I,e,258,1,1881.7000000476837,570602.2000000477,8085,WL,A,8.0
5,13.946000099182129,learn,60000.0,Mon Jan 05 2026 10:46:59 GMT-0600 (Central Standard Time),572600.4000000954,A,finger,I,r,111,1,1998.2000000476837,570602.2000000477,8085,WL,A,8.0
5,14.496000051498413,learn,60000.0,Mon Jan 05 2026 10:46:59 GMT-0600 (Central Standard Time),573150.7000000477,A,fingerenter,I,enter,532,1,2548.5,570602.2000000477,8085,WL,A,8.0
5,14.92900013923645,learn,60000.0,Mon Jan 05 2026 10:46:59 GMT-0600 (Central Standard Time),573583.6000000238,A,s,I,s,413,1,432.5,573151.1000000238,8085,WL,A,9.0
5,15.128999948501587,learn,60000.0,Mon Jan 05 2026 10:46:59 GMT-0600 (Central Standard Time),573784.0,A,sa,I,a,188,1,632.8999999761581,573151.1000000238,8085,WL,A,9.0
5,15.246000051498413,learn,60000.0,Mon Jan 05 2026 10:46:59 GMT-0600 (Central Standard Time),573900.4000000954,A,sal,I,l,107,1,749.3000000715256,573151.1000000238,8085,WL,A,9.0
5,15.51200008392334,learn,60000.0,Mon Jan 05 2026 10:46:59 GMT-0600 (Central Standard Time),574167.1000000238,A,salt,I,t,256,1,1016.0,573151.1000000238,8085,WL,A,9.0
5,15.911999940872192,learn,60000.0,Mon Jan 05 2026 10:46:59 GMT-0600 (Central Standard Time),574567.2000000477,A,saltenter,I,enter,389,1,1416.1000000238419,573151.1000000238,8085,WL,A,9.0
5,16.378999948501587,learn,60000.0,Mon Jan 05 2026 10:46:59 GMT-0600 (Central Standard Time),575033.4000000954,A,a,I,a,461,1,465.8000000715256,574567.6000000238,8085,WL,A,10.0
5,16.67799997329712,learn,60000.0,Mon Jan 05 2026 10:46:59 GMT-0600 (Central Standard Time),575333.2000000477,A,ap,I,p,290,1,765.6000000238419,574567.6000000238,8085,WL,A,10.0
5,16.944999933242798,learn,60000.0,Mon Jan 05 2026 10:46:59 GMT-0600 (Central Standard Time),575599.7000000477,A,app,I,p,247,1,1032.1000000238419,574567.6000000238,8085,WL,A,10.0
5,17.161999940872192,learn,60000.0,Mon Jan 05 2026 10:46:59 GMT-0600 (Central Standard Time),575816.7000000477,A,appl,I,l,196,1,1249.1000000238419,574567.6000000238,8085,WL,A,10.0
5,17.26200008392334,learn,60000.0,Mon Jan 05 2026 10:46:59 GMT-0600 (Central Standard Time),575916.5,A,apple,I,e,92,1,1348.8999999761581,574567.6000000238,8085,WL,A,10.0
5,18.361999988555908,learn,60000.0,Mon Jan 05 2026 10:46:59 GMT-0600 (Central Standard Time),577016.7000000477,A,appleenter,I,enter,1079,1,2449.100000023842,574567.6000000238,8085,WL,A,10.0
5,20.722000122070312,learn,60000.0,Mon Jan 05 2026 10:46:59 GMT-0600 (Central Standard Time),579376.8000000715,A,r,I,r,2348,1,2359.8000000715256,577017.0,8085,WL,A,11.0
5,21.026999950408936,learn,60000.0,Mon Jan 05 2026 10:46:59 GMT-0600 (Central Standard Time),579681.8000000715,A,ru,I,u,296,1,2664.8000000715256,577017.0,8085,WL,A,11.0
5,21.427000045776367,learn,60000.0,Mon Jan 05 2026 10:46:59 GMT-0600 (Central Standard Time),580081.6000000238,A,rug,I,g,395,1,3064.600000023842,577017.0,8085,WL,A,11.0
5,22.24399995803833,learn,60000.0,Mon Jan 05 2026 10:46:59 GMT-0600 (Central Standard Time),580899.1000000238,A,rugenter,I,enter,811,1,3882.100000023842,577017.0,8085,WL,A,11.0
5,22.592999935150146,learn,60000.0,Mon Jan 05 2026 10:46:59 GMT-0600 (Central Standard Time),581248.0,A,m,I,m,329,1,348.6999999284744,580899.3000000715,8085,WL,A,12.0
5,22.710000038146973,learn,60000.0,Mon Jan 05 2026 10:46:59 GMT-0600 (Central Standard Time),581364.9000000954,A,me,I,e,109,1,465.60000002384186,580899.3000000715,8085,WL,A,12.0
5,22.91000008583069,learn,60000.0,Mon Jan 05 2026 10:46:59 GMT-0600 (Central Standard Time),581564.5,A,mea,I,a,182,1,665.1999999284744,580899.3000000715,8085,WL,A,12.0
5,23.110000133514404,learn,60000.0,Mon Jan 05 2026 10:46:59 GMT-0600 (Central Standard Time),581764.5,A,mead,I,d,184,1,865.1999999284744,580899.3000000715,8085,WL,A,12.0
5,23.259999990463257,learn,60000.0,Mon Jan 05 2026 10:46:59 GMT-0600 (Central Standard Time),581914.5,A,meado,I,o,143,1,1015.1999999284744,580899.3000000715,8085,WL,A,12.0
5,23.47699999809265,learn,60000.0,Mon Jan 05 2026 10:46:59 GMT-0600 (Central Standard Time),582131.3000000715,A,meadow,I,w,209,1,1232.0,580899.3000000715,8085,WL,A,12.0
5,23.743000030517578,learn,60000.0,Mon Jan 05 2026 10:46:59 GMT-0600 (Central Standard Time),582397.7000000477,A,meadowenter,I,enter,248,1,1498.3999999761581,580899.3000000715,8085,WL,A,12.0
5,24.193000078201294,learn,60000.0,Mon Jan 05 2026 10:46:59 GMT-0600 (Central Standard Time),582847.5,A,f,I,f,439,1,449.39999997615814,582398.1000000238,8085,WL,A,13.0
5,24.30999994277954,learn,60000.0,Mon Jan 05 2026 10:46:59 GMT-0600 (Central Standard Time),582964.3000000715,A,fl,I,l,100,1,566.2000000476837,582398.1000000238,8085,WL,A,13.0
5,24.509999990463257,learn,60000.0,Mon Jan 05 2026 10:46:59 GMT-0600 (Central Standard Time),583164.4000000954,A,flo,I,o,184,1,766.3000000715256,582398.1000000238,8085,WL,A,13.0
5,24.66000008583069,learn,60000.0,Mon Jan 05 2026 10:46:59 GMT-0600 (Central Standard Time),583314.5,A,flow,I,w,136,1,916.3999999761581,582398.1000000238,8085,WL,A,13.0
5,24.776000022888184,learn,60000.0,Mon Jan 05 2026 10:46:59 GMT-0600 (Central Standard Time),583430.7000000477,A,flowe,I,e,106,1,1032.6000000238419,582398.1000000238,8085,WL,A,13.0
5,24.926000118255615,learn,60000.0,Mon Jan 05 2026 10:46:59 GMT-0600 (Central Standard Time),583580.7000000477,A,flower,I,r,140,1,1182.6000000238419,582398.1000000238,8085,WL,A,13.0
5,25.358999967575073,learn,60000.0,Mon Jan 05 2026 10:46:59 GMT-0600 (Central Standard Time),584014.0,A,flowerenter,I,enter,423,1,1615.8999999761581,582398.1000000238,8085,WL,A,13.0
5,25.7260000705719,learn,60000.0,Mon Jan 05 2026 10:46:59 GMT-0600 (Central Standard Time),584380.4000000954,A,t,I,t,359,1,366.0,584014.4000000954,8085,WL,A,14.0
5,25.9760000705719,learn,60000.0,Mon Jan 05 2026 10:46:59 GMT-0600 (Central Standard Time),584630.7000000477,A,tr,I,r,232,1,616.2999999523163,584014.4000000954,8085,WL,A,14.0
5,26.108999967575073,learn,60000.0,Mon Jan 05 2026 10:46:59 GMT-0600 (Central Standard Time),584763.7000000477,A,tra,I,a,125,1,749.2999999523163,584014.4000000954,8085,WL,A,14.0
5,26.242000102996826,learn,60000.0,Mon Jan 05 2026 10:46:59 GMT-0600 (Central Standard Time),584896.8000000715,A,trai,I,i,128,1,882.3999999761581,584014.4000000954,8085,WL,A,14.0
5,26.492000102996826,learn,60000.0,Mon Jan 05 2026 10:46:59 GMT-0600 (Central Standard Time),585146.8000000715,A,train,I,n,236,1,1132.3999999761581,584014.4000000954,8085,WL,A,14.0
5,26.992000102996826,learn,60000.0,Mon Jan 05 2026 10:46:59 GMT-0600 (Central Standard Time),585646.8000000715,A,trainenter,I,enter,482,1,1632.3999999761581,584014.4000000954,8085,WL,A,14.0
5,27.29200005531311,learn,60000.0,Mon Jan 05 2026 10:46:59 GMT-0600 (Central Standard Time),585946.9000000954,A,b,I,b,294,1,299.8000000715256,585647.1000000238,8085,WL,A,15.0
5,27.509000062942505,learn,60000.0,Mon Jan 05 2026 10:46:59 GMT-0600 (Central Standard Time),586163.3000000715,A,bo,I,o,209,1,516.2000000476837,585647.1000000238,8085,WL,A,15.0
5,27.692000150680542,learn,60000.0,Mon Jan 05 2026 10:46:59 GMT-0600 (Central Standard Time),586346.4000000954,A,boo,I,o,176,1,699.3000000715256,585647.1000000238,8085,WL,A,15.0
5,27.89199995994568,learn,60000.0,Mon Jan 05 2026 10:46:59 GMT-0600 (Central Standard Time),586546.4000000954,A,book,I,k,194,1,899.3000000715256,585647.1000000238,8085,WL,A,15.0
5,28.35800004005432,learn,60000.0,Mon Jan 05 2026 10:46:59 GMT-0600 (Central Standard Time),587012.9000000954,A,bookenter,I,enter,449,1,1365.8000000715256,585647.1000000238,8085,WL,A,15.0
6,0.7660000324249268,distr,59233.99996757507,Mon Jan 05 2026 10:46:59 GMT-0600 (Central Standard Time),655891.4000000954,B,c,I,c,752,1,766.7000000476837,655124.7000000477,8085,WL,A,1.0
6,0.9500000476837158,distr,59049.999952316284,Mon Jan 05 2026 10:46:59 GMT-0600 (Central Standard Time),656074.9000000954,B,ch,I,h,168,1,950.2000000476837,655124.7000000477,8085,WL,A,1.0
6,1.1159999370574951,distr,58884.000062942505,Mon Jan 05 2026 10:46:59 GMT-0600 (Central Standard Time),656241.1000000238,B,cha,I,a,161,1,1116.3999999761581,655124.7000000477,8085,WL,A,1.0
6,1.316999912261963,distr,58683.00008773804,Mon Jan 05 2026 10:46:59 GMT-0600 (Central Standard Time),656441.5,B,chai,I,i,187,1,1316.7999999523163,655124.7000000477,8085,WL,A,1.0
6,1.5160000324249268,distr,58483.99996757507,Mon Jan 05 2026 10:46:59 GMT-0600 (Central Standard Time),656641.5,B,chair,I,r,179,1,1516.7999999523163,655124.7000000477,8085,WL,A,1.0
6,2.115999937057495,distr,57884.000062942505,Mon Jan 05 2026 10:46:59 GMT-0600 (Central Standard Time),657241.0,B,chairenter,I,enter,587,1,2116.2999999523163,655124.7000000477,8085,WL,A,1.0
6,2.4159998893737793,distr,57584.00011062622,Mon Jan 05 2026 10:46:59 GMT-0600 (Central Standard Time),657540.9000000954,B,j,I,j,291,1,299.5,657241.4000000954,8085,WL,A,2.0
6,2.6489999294281006,distr,57351.0000705719,Mon Jan 05 2026 10:46:59 GMT-0600 (Central Standard Time),657774.2000000477,B,ju,I,u,223,1,532.7999999523163,657241.4000000954,8085,WL,A,2.0
6,2.815000057220459,distr,57184.99994277954,Mon Jan 05 2026 10:46:59 GMT-0600 (Central Standard Time),657940.6000000238,B,jud,I,d,150,1,699.1999999284744,657241.4000000954,8085,WL,A,2.0
6,3.115999937057495,distr,56884.000062942505,Mon Jan 05 2026 10:46:59 GMT-0600 (Central Standard Time),658240.8000000715,B,judg,I,g,279,1,999.3999999761581,657241.4000000954,8085,WL,A,2.0
6,3.449000120162964,distr,56550.999879837036,Mon Jan 05 2026 10:46:59 GMT-0600 (Central Standard Time),658573.9000000954,B,judge,I,e,323,1,1332.5,657241.4000000954,8085,WL,A,2.0
6,3.8320000171661377,distr,56167.99998283386,Mon Jan 05 2026 10:46:59 GMT-0600 (Central Standard Time),658957.1000000238,B,judgeenter,I,enter,366,1,1715.6999999284744,657241.4000000954,8085,WL,A,2.0
6,4.131999969482422,distr,55868.00003051758,Mon Jan 05 2026 10:46:59 GMT-0600 (Central Standard Time),659256.9000000954,B,d,I,d,295,1,299.5,658957.4000000954,8085,WL,A,3.0
6,4.549000024795532,distr,55450.99997520447,Mon Jan 05 2026 10:46:59 GMT-0600 (Central Standard Time),659674.7000000477,B,da,I,a,411,1,717.2999999523163,658957.4000000954,8085,WL,A,3.0
6,4.865000009536743,distr,55134.99999046326,Mon Jan 05 2026 10:46:59 GMT-0600 (Central Standard Time),659990.4000000954,B,daw,I,w,297,1,1033.0,658957.4000000954,8085,WL,A,3.0
6,5.065000057220459,distr,54934.99994277954,Mon Jan 05 2026 10:46:59 GMT-0600 (Central Standard Time),660190.2000000477,B,dawn,I,n,182,1,1232.7999999523163,658957.4000000954,8085,WL,A,3.0
6,5.365000009536743,distr,54634.99999046326,Mon Jan 05 2026 10:46:59 GMT-0600 (Central Standard Time),660490.0,B,dawnenter,I,enter,293,1,1532.5999999046326,658957.4000000954,8085,WL,A,3.0
6,5.8480000495910645,distr,54151.999950408936,Mon Jan 05 2026 10:46:59 GMT-0600 (Central Standard Time),660972.8000000715,B,b,I,b,474,1,482.7000000476837,660490.1000000238,8085,WL,A,4.0
6,6.063999891281128,distr,53936.00010871887,Mon Jan 05 2026 10:46:59 GMT-0600 (Central Standard Time),661189.6000000238,B,bo,I,o,206,1,699.5,660490.1000000238,8085,WL,A,4.0
6,6.614000082015991,distr,53385.99991798401,Mon Jan 05 2026 10:46:59 GMT-0600 (Central Standard Time),661739.6000000238,B,bow,I,w,534,1,1249.5,660490.1000000238,8085,WL,A,4.0
6,6.831000089645386,distr,53168.999910354614,Mon Jan 05 2026 10:46:59 GMT-0600 (Central Standard Time),661956.3000000715,B,bowl,I,l,208,1,1466.2000000476837,660490.1000000238,8085,WL,A,4.0
6,7.364000082015991,distr,52635.99991798401,Mon Jan 05 2026 10:46:59 GMT-0600 (Central Standard Time),662489.4000000954,B,bowlenter,I,enter,519,1,1999.3000000715256,660490.1000000238,8085,WL,A,4.0
6,20.177000045776367,distr,39822.99995422363,Mon Jan 05 2026 10:46:59 GMT-0600 (Central Standard Time),675302.1000000238,B,i,I,i,12802,1,12812.399999976158,662489.7000000477,8085,WL,A,5.0
6,20.41000008583069,distr,39589.99991416931,Mon Jan 05 2026 10:46:59 GMT-0600 (Central Standard Time),675535.1000000238,B,in,I,n,213,1,13045.399999976158,662489.7000000477,8085,WL,A,5.0
6,20.57699990272522,distr,39423.00009727478,Mon Jan 05 2026 10:46:59 GMT-0600 (Central Standard Time),675701.7000000477,B,ins,I,s,149,1,13212.0,662489.7000000477,8085,WL,A,5.0
6,20.710000038146973,distr,39289.99996185303,Mon Jan 05 2026 10:46:59 GMT-0600 (Central Standard Time),675835.1000000238,B,inse,I,e,118,1,13345.399999976158,662489.7000000477,8085,WL,A,5.0
6,21.259999990463257,distr,38740.00000953674,Mon Jan 05 2026 10:46:59 GMT-0600 (Central Standard Time),676384.9000000954,B,insec,I,c,538,1,13895.200000047684,662489.7000000477,8085,WL,A,5.0
6,21.592999935150146,distr,38407.00006484985,Mon Jan 05 2026 10:46:59 GMT-0600 (Central Standard Time),676718.1000000238,B,insect,I,t,324,1,14228.399999976158,662489.7000000477,8085,WL,A,5.0
6,22.026000022888184,distr,37973.99997711182,Mon Jan 05 2026 10:46:59 GMT-0600 (Central Standard Time),677151.5,B,insectenter,I,enter,414,1,14661.799999952316,662489.7000000477,8085,WL,A,5.0
6,23.759000062942505,distr,36240.999937057495,Mon Jan 05 2026 10:46:59 GMT-0600 (Central Standard Time),678884.4000000954,B,g,I,g,1724,1,1732.5,677151.9000000954,8085,WL,A,6.0
6,24.009000062942505,distr,35990.999937057495,Mon Jan 05 2026 10:46:59 GMT-0600 (Central Standard Time),679134.4000000954,B,gr,I,r,231,1,1982.5,677151.9000000954,8085,WL,A,6.0
6,24.158999919891357,distr,35841.00008010864,Mon Jan 05 2026 10:46:59 GMT-0600 (Central Standard Time),679284.1000000238,B,gra,I,a,141,1,2132.1999999284744,677151.9000000954,8085,WL,A,6.0
6,24.358999967575073,distr,35641.00003242493,Mon Jan 05 2026 10:46:59 GMT-0600 (Central Standard Time),679484.2000000477,B,gran,I,n,192,1,2332.2999999523163,677151.9000000954,8085,WL,A,6.0
6,24.608999967575073,distr,35391.00003242493,Mon Jan 05 2026 10:46:59 GMT-0600 (Central Standard Time),679733.9000000954,B,grant,I,t,241,1,2582.0,677151.9000000954,8085,WL,A,6.0
6,25.79200005531311,distr,34207.99994468689,Mon Jan 05 2026 10:46:59 GMT-0600 (Central Standard Time),680916.8000000715,B,grantenter,I,enter,1166,1,3764.899999976158,677151.9000000954,8085,WL,A,6.0
6,27.54099988937378,distr,32459.00011062622,Mon Jan 05 2026 10:46:59 GMT-0600 (Central Standard Time),682666.6000000238,B,enter,I,enter,1736,1,1749.5,680917.1000000238,8085,WL,A,7.0
6,28.157999992370605,distr,31842.000007629395,Mon Jan 05 2026 10:46:59 GMT-0600 (Central Standard Time),683282.9000000954,B,enter,I,enter,602,1,615.9000000953674,682667.0,8085,WL,A,8.0
6,28.723999977111816,distr,31276.000022888184,Mon Jan 05 2026 10:46:59 GMT-0600 (Central Standard Time),683848.9000000954,B,enter,I,enter,561,1,565.6000000238419,683283.3000000715,8085,WL,A,9.0
6,29.256999969482422,distr,30743.000030517578,Mon Jan 05 2026 10:46:59 GMT-0600 (Central Standard Time),684382.4000000954,B,enter,I,enter,516,1,533.1000000238419,683849.3000000715,8085,WL,A,10.0
6,29.756999969482422,distr,30243.000030517578,Mon Jan 05 2026 10:46:59 GMT-0600 (Central Standard Time),684882.4000000954,B,enter,I,enter,485,1,499.60000002384186,684382.8000000715,8085,WL,A,11.0
6,30.674000024795532,distr,29325.999975204468,Mon Jan 05 2026 10:46:59 GMT-0600 (Central Standard Time),685799.0,B,enter,I,enter,905,1,916.2999999523163,684882.7000000477,8085,WL,A,12.0
6,31.256999969482422,distr,28743.000030517578,Mon Jan 05 2026 10:46:59 GMT-0600 (Central Standard Time),686381.7000000477,B,enter,I,enter,574,1,582.3999999761581,685799.3000000715,8085,WL,A,13.0
6,31.924000024795532,distr,28075.999975204468,Mon Jan 05 2026 10:46:59 GMT-0600 (Central Standard Time),687048.7000000477,B,enter,I,enter,662,1,666.7000000476837,686382.0,8085,WL,A,14.0
6,32.58999991416931,distr,27410.00008583069,Mon Jan 05 2026 10:46:59 GMT-0600 (Central Standard Time),687714.6000000238,B,enter,I,enter,659,1,665.6000000238419,687049.0,8085,WL,A,15.0
7,2.5320000648498535,immed,57467.99993515015,Mon Jan 05 2026 10:46:59 GMT-0600 (Central Standard Time),721270.9000000954,A,t,I,t,2514,1,2532.4000000953674,718738.5,8085,WL,A,1.0
7,3.4660000801086426,immed,56533.99991989136,Mon Jan 05 2026 10:46:59 GMT-0600 (Central Standard Time),722203.9000000954,A,tr,I,r,918,1,3465.4000000953674,718738.5,8085,WL,A,1.0
7,3.6650002002716064,immed,56334.99979972839,Mon Jan 05 2026 10:46:59 GMT-0600 (Central Standard Time),722403.7000000477,A,tra,I,a,192,1,3665.2000000476837,718738.5,8085,WL,A,1.0
7,3.8320000171661377,immed,56167.99998283386,Mon Jan 05 2026 10:46:59 GMT-0600 (Central Standard Time),722570.4000000954,A,trai,I,i,152,1,3831.9000000953674,718738.5,8085,WL,A,1.0
7,4.098999977111816,immed,55901.00002288818,Mon Jan 05 2026 10:46:59 GMT-0600 (Central Standard Time),722837.0,A,train,I,n,258,1,4098.5,718738.5,8085,WL,A,1.0
7,4.815000057220459,immed,55184.99994277954,Mon Jan 05 2026 10:46:59 GMT-0600 (Central Standard Time),723553.3000000715,A,trainenter,I,enter,704,1,4814.800000071526,718738.5,8085,WL,A,1.0
7,6.065000057220459,immed,53934.99994277954,Mon Jan 05 2026 10:46:59 GMT-0600 (Central Standard Time),724803.0,A,b,I,b,1234,1,1249.3999999761581,723553.6000000238,8085,WL,A,2.0
7,6.199000120162964,immed,53800.999879837036,Mon Jan 05 2026 10:46:59 GMT-0600 (Central Standard Time),724937.8000000715,A,bo,I,o,121,1,1384.2000000476837,723553.6000000238,8085,WL,A,2.0
7,6.38100004196167,immed,53618.99995803833,Mon Jan 05 2026 10:46:59 GMT-0600 (Central Standard Time),725119.7000000477,A,boo,I,o,171,1,1566.1000000238419,723553.6000000238,8085,WL,A,2.0
7,6.54800009727478,immed,53451.99990272522,Mon Jan 05 2026 10:46:59 GMT-0600 (Central Standard Time),725286.3000000715,A,book,I,k,157,1,1732.7000000476837,723553.6000000238,8085,WL,A,2.0
7,6.864000082015991,immed,53135.99991798401,Mon Jan 05 2026 10:46:59 GMT-0600 (Central Standard Time),725602.7000000477,A,bookenter,I,enter,301,1,2049.100000023842,723553.6000000238,8085,WL,A,2.0
7,7.148000001907349,immed,52851.99999809265,Mon Jan 05 2026 10:46:59 GMT-0600 (Central Standard Time),725886.3000000715,A,f,I,f,273,1,283.2000000476837,725603.1000000238,8085,WL,A,3.0
7,7.248000144958496,immed,52751.999855041504,Mon Jan 05 2026 10:46:59 GMT-0600 (Central Standard Time),725986.1000000238,A,fl,I,l,85,1,383.0,725603.1000000238,8085,WL,A,3.0
7,7.448000192642212,immed,52551.99980735779,Mon Jan 05 2026 10:46:59 GMT-0600 (Central Standard Time),726186.3000000715,A,flo,I,o,186,1,583.2000000476837,725603.1000000238,8085,WL,A,3.0
7,7.531000137329102,immed,52468.9998626709,Mon Jan 05 2026 10:46:59 GMT-0600 (Central Standard Time),726269.4000000954,A,flow,I,w,74,1,666.3000000715256,725603.1000000238,8085,WL,A,3.0
7,7.648000001907349,immed,52351.99999809265,Mon Jan 05 2026 10:46:59 GMT-0600 (Central Standard Time),726386.1000000238,A,flowe,I,e,103,1,783.0,725603.1000000238,8085,WL,A,3.0
7,7.764000177383423,immed,52235.99982261658,Mon Jan 05 2026 10:46:59 GMT-0600 (Central Standard Time),726502.7000000477,A,flower,I,r,97,1,899.6000000238419,725603.1000000238,8085,WL,A,3.0
7,8.13100004196167,immed,51868.99995803833,Mon Jan 05 2026 10:46:59 GMT-0600 (Central Standard Time),726869.2000000477,A,flowerenter,I,enter,356,1,1266.1000000238419,725603.1000000238,8085,WL,A,3.0
7,8.598000049591064,immed,51401.999950408936,Mon Jan 05 2026 10:46:59 GMT-0600 (Central Standard Time),727335.9000000954,A,m,I,m,446,1,466.40000009536743,726869.5,8085,WL,A,4.0
7,8.680999994277954,immed,51319.000005722046,Mon Jan 05 2026 10:46:59 GMT-0600 (Central Standard Time),727419.0,A,me,I,e,76,1,549.5,726869.5,8085,WL,A,4.0
7,8.864000082015991,immed,51135.99991798401,Mon Jan 05 2026 10:46:59 GMT-0600 (Central Standard Time),727601.9000000954,A,mea,I,a,178,1,732.4000000953674,726869.5,8085,WL,A,4.0
7,9.031000137329102,immed,50968.9998626709,Mon Jan 05 2026 10:46:59 GMT-0600 (Central Standard Time),727769.0,A,mead,I,d,154,1,899.5,726869.5,8085,WL,A,4.0
7,9.21399998664856,immed,50786.00001335144,Mon Jan 05 2026 10:46:59 GMT-0600 (Central Standard Time),727952.2000000477,A,meado,I,o,163,1,1082.7000000476837,726869.5,8085,WL,A,4.0
7,9.430000066757202,immed,50569.9999332428,Mon Jan 05 2026 10:46:59 GMT-0600 (Central Standard Time),728168.8000000715,A,meadow,I,w,204,1,1299.3000000715256,726869.5,8085,WL,A,4.0
7,10.248000144958496,immed,49751.999855041504,Mon Jan 05 2026 10:46:59 GMT-0600 (Central Standard Time),728986.1000000238,A,meadowenter,I,enter,796,1,2116.600000023842,726869.5,8085,WL,A,4.0
7,13.879000186920166,immed,46120.999813079834,Mon Jan 05 2026 10:46:59 GMT-0600 (Central Standard Time),732617.0,A,c,I,c,3626,1,3630.6999999284744,728986.3000000715,8085,WL,A,5.0
7,13.995000123977661,immed,46004.99987602234,Mon Jan 05 2026 10:46:59 GMT-0600 (Central Standard Time),732733.8000000715,A,ch,I,h,107,1,3747.5,728986.3000000715,8085,WL,A,5.0
7,14.129000186920166,immed,45870.999813079834,Mon Jan 05 2026 10:46:59 GMT-0600 (Central Standard Time),732867.3000000715,A,chi,I,i,126,1,3881.0,728986.3000000715,8085,WL,A,5.0
7,14.328999996185303,immed,45671.0000038147,Mon Jan 05 2026 10:46:59 GMT-0600 (Central Standard Time),733067.0,A,chim,I,m,185,1,4080.6999999284744,728986.3000000715,8085,WL,A,5.0
7,14.779000043869019,immed,45220.99995613098,Mon Jan 05 2026 10:46:59 GMT-0600 (Central Standard Time),733516.9000000954,A,chimn,I,n,442,1,4530.600000023842,728986.3000000715,8085,WL,A,5.0
7,14.962000131607056,immed,45037.999868392944,Mon Jan 05 2026 10:46:59 GMT-0600 (Central Standard Time),733700.4000000954,A,chimne,I,e,176,1,4714.100000023842,728986.3000000715,8085,WL,A,5.0
7,15.078999996185303,immed,44921.0000038147,Mon Jan 05 2026 10:46:59 GMT-0600 (Central Standard Time),733817.1000000238,A,chimney,I,y,104,1,4830.799999952316,728986.3000000715,8085,WL,A,5.0
7,15.745000123977661,immed,44254.99987602234,Mon Jan 05 2026 10:46:59 GMT-0600 (Central Standard Time),734483.3000000715,A,chimneyenter,I,enter,652,1,5497.0,728986.3000000715,8085,WL,A,5.0
7,16.045000076293945,immed,43954.999923706055,Mon Jan 05 2026 10:46:59 GMT-0600 (Central Standard Time),734783.2000000477,A,l,I,l,289,1,299.60000002384186,734483.6000000238,8085,WL,A,6.0
7,16.228000164031982,immed,43771.99983596802,Mon Jan 05 2026 10:46:59 GMT-0600 (Central Standard Time),734966.5,A,lo,I,o,173,1,482.89999997615814,734483.6000000238,8085,WL,A,6.0
7,16.378000020980835,immed,43621.999979019165,Mon Jan 05 2026 10:46:59 GMT-0600 (Central Standard Time),735116.6000000238,A,log,I,g,133,1,633.0,734483.6000000238,8085,WL,A,6.0
7,16.945000171661377,immed,43054.99982833862,Mon Jan 05 2026 10:46:59 GMT-0600 (Central Standard Time),735683.1000000238,A,logenter,I,enter,551,1,1199.5,734483.6000000238,8085,WL,A,6.0
7,18.044000148773193,immed,41955.99985122681,Mon Jan 05 2026 10:46:59 GMT-0600 (Central Standard Time),736782.6000000238,A,a,I,a,1089,1,1099.1999999284744,735683.4000000954,8085,WL,A,7.0
7,18.16100001335144,immed,41838.99998664856,Mon Jan 05 2026 10:46:59 GMT-0600 (Central Standard Time),736899.3000000715,A,ap,I,p,102,1,1215.8999999761581,735683.4000000954,8085,WL,A,7.0
7,18.344000101089478,immed,41655.99989891052,Mon Jan 05 2026 10:46:59 GMT-0600 (Central Standard Time),737082.6000000238,A,app,I,p,169,1,1399.1999999284744,735683.4000000954,8085,WL,A,7.0
7,18.5770001411438,immed,41422.9998588562,Mon Jan 05 2026 10:46:59 GMT-0600 (Central Standard Time),737315.9000000954,A,appl,I,l,217,1,1632.5,735683.4000000954,8085,WL,A,7.0
7,18.64400005340576,immed,41355.99994659424,Mon Jan 05 2026 10:46:59 GMT-0600 (Central Standard Time),737382.8000000715,A,apple,I,e,48,1,1699.3999999761581,735683.4000000954,8085,WL,A,7.0
7,19.3270001411438,immed,40672.9998588562,Mon Jan 05 2026 10:46:59 GMT-0600 (Central Standard Time),738065.3000000715,A,appleenter,I,enter,678,1,2381.899999976158,735683.4000000954,8085,WL,A,7.0
7,19.677000045776367,immed,40322.99995422363,Mon Jan 05 2026 10:46:59 GMT-0600 (Central Standard Time),738415.5,A,s,I,s,338,1,349.89999997615814,738065.6000000238,8085,WL,A,8.0
7,19.844000101089478,immed,40155.99989891052,Mon Jan 05 2026 10:46:59 GMT-0600 (Central Standard Time),738582.3000000715,A,sa,I,a,149,1,516.7000000476837,738065.6000000238,8085,WL,A,8.0
7,19.943000078201294,immed,40056.999921798706,Mon Jan 05 2026 10:46:59 GMT-0600 (Central Standard Time),738681.8000000715,A,sal,I,l,94,1,616.2000000476837,738065.6000000238,8085,WL,A,8.0
7,20.22699999809265,immed,39773.00000190735,Mon Jan 05 2026 10:46:59 GMT-0600 (Central Standard Time),738965.4000000954,A,salt,I,t,267,1,899.8000000715256,738065.6000000238,8085,WL,A,8.0
7,20.743000030517578,immed,39256.99996948242,Mon Jan 05 2026 10:46:59 GMT-0600 (Central Standard Time),739481.6000000238,A,saltenter,I,enter,511,1,1416.0,738065.6000000238,8085,WL,A,8.0
7,21.177000045776367,immed,38822.99995422363,Mon Jan 05 2026 10:46:59 GMT-0600 (Central Standard Time),739915.0,A,r,I,r,427,1,433.1999999284744,739481.8000000715,8085,WL,A,9.0
7,21.360000133514404,immed,38639.999866485596,Mon Jan 05 2026 10:46:59 GMT-0600 (Central Standard Time),740098.5,A,ra,I,a,169,1,616.6999999284744,739481.8000000715,8085,WL,A,9.0
7,21.47699999809265,immed,38523.00000190735,Mon Jan 05 2026 10:46:59 GMT-0600 (Central Standard Time),740215.0,A,rat,I,t,105,1,733.1999999284744,739481.8000000715,8085,WL,A,9.0
7,21.693000078201294,immed,38306.999921798706,Mon Jan 05 2026 10:46:59 GMT-0600 (Central Standard Time),740431.5,A,ratt,I,t,197,1,949.6999999284744,739481.8000000715,8085,WL,A,9.0
7,21.860000133514404,immed,38139.999866485596,Mon Jan 05 2026 10:46:59 GMT-0600 (Central Standard Time),740598.3000000715,A,rattl,I,l,148,1,1116.5,739481.8000000715,8085,WL,A,9.0
7,21.993000030517578,immed,38006.99996948242,Mon Jan 05 2026 10:46:59 GMT-0600 (Central Standard Time),740731.5,A,rattle,I,e,126,1,1249.6999999284744,739481.8000000715,8085,WL,A,9.0
7,22.343000173568726,immed,37656.999826431274,Mon Jan 05 2026 10:46:59 GMT-0600 (Central Standard Time),741081.2000000477,A,rattleenter,I,enter,344,1,1599.3999999761581,739481.8000000715,8085,WL,A,9.0
7,58.165000200271606,immed,1834.9997997283936,Mon Jan 05 2026 10:46:59 GMT-0600 (Central Standard Time),776903.5,A,b,I,b,35802,1,35822.0,741081.5,8085,WL,A,10.0
7,58.39800000190735,immed,1601.9999980926514,Mon Jan 05 2026 10:46:59 GMT-0600 (Central Standard Time),777136.7000000477,A,bu,I,u,221,1,36055.200000047684,741081.5,8085,WL,A,10.0
7,58.61500000953674,immed,1384.9999904632568,Mon Jan 05 2026 10:46:59 GMT-0600 (Central Standard Time),777353.2000000477,A,but,I,t,203,1,36271.700000047684,741081.5,8085,WL,A,10.0
7,58.81500005722046,immed,1184.999942779541,Mon Jan 05 2026 10:46:59 GMT-0600 (Central Standard Time),777553.1000000238,A,butt,I,t,195,1,36471.60000002384,741081.5,8085,WL,A,10.0
7,58.86500000953674,immed,1134.9999904632568,Mon Jan 05 2026 10:46:59 GMT-0600 (Central Standard Time),777603.2000000477,A,butto,I,o,36,1,36521.700000047684,741081.5,8085,WL,A,10.0
7,59.06400012969971,immed,935.999870300293,Mon Jan 05 2026 10:46:59 GMT-0600 (Central Standard Time),777803.1000000238,A,button,I,n,184,1,36721.60000002384,741081.5,8085,WL,A,10.0
7,59.31500005722046,immed,684.999942779541,Mon Jan 05 2026 10:46:59 GMT-0600 (Central Standard Time),778053.1000000238,A,buttonenter,I,enter,240,1,36971.60000002384,741081.5,8085,WL,A,10.0
7,59.69800019264221,immed,301.9998073577881,Mon Jan 05 2026 10:46:59 GMT-0600 (Central Standard Time),778436.4000000954,A,k,I,k,375,1,382.90000009536743,778053.5,8085,WL,A,11.0
7,59.848000049591064,immed,151.99995040893555,Mon Jan 05 2026 10:46:59 GMT-0600 (Central Standard Time),778586.1000000238,A,ke,I,e,144,1,532.6000000238419,778053.5,8085,WL,A,11.0
7,60.015000104904175,immed,-15.000104904174805,Mon Jan 05 2026 10:46:59 GMT-0600 (Central Standard Time),778753.3000000715,A,keNone,I,None,162,1,699.8000000715256,778053.5,8085,WL,A,11.0
