block_c,block_dur,condition,countdown,datetime,endtime,list,multichar_response,project,response,response_time,session_number,start_end,starttime,subject_id,task,task_vers,trial
,,,,Thu May 14 2026 10:02:32 GMT-0500 (Central Daylight Time),,,,I,space,369,2,,,8085,WL,C,
prac,,0,,Thu May 14 2026 10:02:32 GMT-0500 (Central Daylight Time),,NA,b,I,b,7552,2,,,8085,WL,C,1.0
prac,,0,,Thu May 14 2026 10:02:32 GMT-0500 (Central Daylight Time),,NA,bo,I,o,377,2,,,8085,WL,C,1.0
prac,,0,,Thu May 14 2026 10:02:32 GMT-0500 (Central Daylight Time),,NA,boo,I,o,274,2,,,8085,WL,C,1.0
prac,,0,,Thu May 14 2026 10:02:32 GMT-0500 (Central Daylight Time),,NA,boos,I,s,292,2,,,8085,WL,C,1.0
prac,,0,,Thu May 14 2026 10:02:32 GMT-0500 (Central Daylight Time),,NA,boost,I,t,142,2,,,8085,WL,C,1.0
prac,,0,,Thu May 14 2026 10:02:32 GMT-0500 (Central Daylight Time),,NA,boostenter,I,enter,1297,2,,,8085,WL,C,1.0
1,1.5,learn,58500.0,Thu May 14 2026 10:02:32 GMT-0500 (Central Daylight Time),143526.5,A,b,I,b,1489,2,1499.4000000059605,142027.09999999404,8085,WL,C,1.0
1,1.6999998092651367,learn,58300.00019073486,Thu May 14 2026 10:02:32 GMT-0500 (Central Daylight Time),143726.40000000596,A,bp,I,p,188,2,1699.300000011921,142027.09999999404,8085,WL,C,1.0
1,1.8999998569488525,learn,58100.00014305115,Thu May 14 2026 10:02:32 GMT-0500 (Central Daylight Time),143926.40000000596,A,bpf,I,f,190,2,1899.300000011921,142027.09999999404,8085,WL,C,1.0
1,2.0829999446868896,learn,57917.00005531311,Thu May 14 2026 10:02:32 GMT-0500 (Central Daylight Time),144109.40000000596,A,bpfu,I,u,174,2,2082.300000011921,142027.09999999404,8085,WL,C,1.0
1,3.931999921798706,learn,56068.000078201294,Thu May 14 2026 10:02:32 GMT-0500 (Central Daylight Time),145958.90000000596,A,bpf,I,backspace,1831,2,3931.800000011921,142027.09999999404,8085,WL,C,1.0
1,4.131999969482422,learn,55868.00003051758,Thu May 14 2026 10:02:32 GMT-0500 (Central Daylight Time),146158.90000000596,A,bp,I,backspace,182,2,4131.800000011921,142027.09999999404,8085,WL,C,1.0
1,4.315999984741211,learn,55684.00001525879,Thu May 14 2026 10:02:32 GMT-0500 (Central Daylight Time),146342.09999999404,A,b,I,backspace,173,2,4315.0,142027.09999999404,8085,WL,C,1.0
1,5.164999961853027,learn,54835.00003814697,Thu May 14 2026 10:02:32 GMT-0500 (Central Daylight Time),147191.90000000596,A,bo,I,o,830,2,5164.800000011921,142027.09999999404,8085,WL,C,1.0
1,6.2149999141693115,learn,53785.00008583069,Thu May 14 2026 10:02:32 GMT-0500 (Central Daylight Time),148241.5,A,bod,I,d,1043,2,6214.4000000059605,142027.09999999404,8085,WL,C,1.0
1,6.631999969482422,learn,53368.00003051758,Thu May 14 2026 10:02:32 GMT-0500 (Central Daylight Time),148658.19999998808,A,body,I,y,403,2,6631.0999999940395,142027.09999999404,8085,WL,C,1.0
1,8.080999851226807,learn,51919.00014877319,Thu May 14 2026 10:02:32 GMT-0500 (Central Daylight Time),150107.40000000596,A,bodyenter,I,enter,1433,2,8080.300000011921,142027.09999999404,8085,WL,C,1.0
1,9.04699993133545,learn,50953.00006866455,Thu May 14 2026 10:02:32 GMT-0500 (Central Daylight Time),151073.80000001192,A,q,I,q,960,2,965.9000000059605,150107.90000000596,8085,WL,C,2.0
1,9.196999788284302,learn,50803.0002117157,Thu May 14 2026 10:02:32 GMT-0500 (Central Daylight Time),151224.0,A,qu,I,u,130,2,1116.0999999940395,150107.90000000596,8085,WL,C,2.0
1,9.330999851226807,learn,50669.00014877319,Thu May 14 2026 10:02:32 GMT-0500 (Central Daylight Time),151357.30000001192,A,que,I,e,116,2,1249.4000000059605,150107.90000000596,8085,WL,C,2.0
1,9.530999898910522,learn,50469.00010108948,Thu May 14 2026 10:02:32 GMT-0500 (Central Daylight Time),151557.30000001192,A,quee,I,e,184,2,1449.4000000059605,150107.90000000596,8085,WL,C,2.0
1,9.663999795913696,learn,50336.000204086304,Thu May 14 2026 10:02:32 GMT-0500 (Central Daylight Time),151690.19999998808,A,queen,I,n,127,2,1582.2999999821186,150107.90000000596,8085,WL,C,2.0
1,9.946999788284302,learn,50053.0002117157,Thu May 14 2026 10:02:32 GMT-0500 (Central Daylight Time),151973.5,A,queenenter,I,enter,266,2,1865.5999999940395,150107.90000000596,8085,WL,C,2.0
1,10.363999843597412,learn,49636.00015640259,Thu May 14 2026 10:02:32 GMT-0500 (Central Daylight Time),152390.0,A,t,I,t,400,2,416.09999999403954,151973.90000000596,8085,WL,C,3.0
1,10.447999954223633,learn,49552.00004577637,Thu May 14 2026 10:02:32 GMT-0500 (Central Daylight Time),152475.0,A,to,I,o,71,2,501.09999999403954,151973.90000000596,8085,WL,C,3.0
1,10.63099980354309,learn,49369.00019645691,Thu May 14 2026 10:02:32 GMT-0500 (Central Daylight Time),152657.09999999404,A,tow,I,w,161,2,683.1999999880791,151973.90000000596,8085,WL,C,3.0
1,10.712999820709229,learn,49287.00017929077,Thu May 14 2026 10:02:32 GMT-0500 (Central Daylight Time),152739.90000000596,A,towe,I,e,76,2,766.0,151973.90000000596,8085,WL,C,3.0
1,11.062999963760376,learn,48937.000036239624,Thu May 14 2026 10:02:32 GMT-0500 (Central Daylight Time),153089.80000001192,A,tower,I,r,329,2,1115.9000000059605,151973.90000000596,8085,WL,C,3.0
1,11.379999876022339,learn,48620.00012397766,Thu May 14 2026 10:02:32 GMT-0500 (Central Daylight Time),153406.40000000596,A,towerenter,I,enter,299,2,1432.5,151973.90000000596,8085,WL,C,3.0
1,11.696999788284302,learn,48303.0002117157,Thu May 14 2026 10:02:32 GMT-0500 (Central Daylight Time),153723.09999999404,A,w,I,w,309,2,316.09999999403954,153407.0,8085,WL,C,4.0
1,11.86299991607666,learn,48137.00008392334,Thu May 14 2026 10:02:32 GMT-0500 (Central Daylight Time),153889.69999998808,A,wh,I,h,146,2,482.69999998807907,153407.0,8085,WL,C,4.0
1,11.980999946594238,learn,48019.00005340576,Thu May 14 2026 10:02:32 GMT-0500 (Central Daylight Time),154007.5,A,whe,I,e,99,2,600.5,153407.0,8085,WL,C,4.0
1,12.11299991607666,learn,47887.00008392334,Thu May 14 2026 10:02:32 GMT-0500 (Central Daylight Time),154139.59999999404,A,whea,I,a,124,2,732.5999999940395,153407.0,8085,WL,C,4.0
1,12.395999908447266,learn,47604.000091552734,Thu May 14 2026 10:02:32 GMT-0500 (Central Daylight Time),154422.90000000596,A,wheat,I,t,273,2,1015.9000000059605,153407.0,8085,WL,C,4.0
1,12.679999828338623,learn,47320.00017166138,Thu May 14 2026 10:02:32 GMT-0500 (Central Daylight Time),154706.09999999404,A,wheatenter,I,enter,278,2,1299.0999999940395,153407.0,8085,WL,C,4.0
1,13.062999963760376,learn,46937.000036239624,Thu May 14 2026 10:02:32 GMT-0500 (Central Daylight Time),155089.40000000596,A,c,I,c,370,2,383.0,154706.40000000596,8085,WL,C,5.0
1,13.178999900817871,learn,46821.00009918213,Thu May 14 2026 10:02:32 GMT-0500 (Central Daylight Time),155205.80000001192,A,co,I,o,107,2,499.40000000596046,154706.40000000596,8085,WL,C,5.0
1,13.36299991607666,learn,46637.00008392334,Thu May 14 2026 10:02:32 GMT-0500 (Central Daylight Time),155389.40000000596,A,cor,I,r,175,2,683.0,154706.40000000596,8085,WL,C,5.0
1,13.562999963760376,learn,46437.000036239624,Thu May 14 2026 10:02:32 GMT-0500 (Central Daylight Time),155589.40000000596,A,corn,I,n,184,2,883.0,154706.40000000596,8085,WL,C,5.0
1,13.812999963760376,learn,46187.000036239624,Thu May 14 2026 10:02:32 GMT-0500 (Central Daylight Time),155839.19999998808,A,cornenter,I,enter,232,2,1132.7999999821186,154706.40000000596,8085,WL,C,5.0
1,14.245999813079834,learn,45754.000186920166,Thu May 14 2026 10:02:32 GMT-0500 (Central Daylight Time),156272.30000001192,A,b,I,b,421,2,432.7000000178814,155839.59999999404,8085,WL,C,6.0
1,14.378999948501587,learn,45621.00005149841,Thu May 14 2026 10:02:32 GMT-0500 (Central Daylight Time),156405.5,A,bo,I,o,124,2,565.9000000059605,155839.59999999404,8085,WL,C,6.0
1,14.628999948501587,learn,45371.00005149841,Thu May 14 2026 10:02:32 GMT-0500 (Central Daylight Time),156655.40000000596,A,boy,I,y,240,2,815.8000000119209,155839.59999999404,8085,WL,C,6.0
1,14.911999940872192,learn,45088.00005912781,Thu May 14 2026 10:02:32 GMT-0500 (Central Daylight Time),156938.59999999404,A,boyenter,I,enter,277,2,1099.0,155839.59999999404,8085,WL,C,6.0
1,15.178999900817871,learn,44821.00009918213,Thu May 14 2026 10:02:32 GMT-0500 (Central Daylight Time),157205.40000000596,A,d,I,d,259,2,266.5,156938.90000000596,8085,WL,C,7.0
1,15.361999988555908,learn,44638.00001144409,Thu May 14 2026 10:02:32 GMT-0500 (Central Daylight Time),157388.69999998808,A,do,I,o,176,2,449.7999999821186,156938.90000000596,8085,WL,C,7.0
1,15.59499979019165,learn,44405.00020980835,Thu May 14 2026 10:02:32 GMT-0500 (Central Daylight Time),157621.90000000596,A,doc,I,c,216,2,683.0,156938.90000000596,8085,WL,C,7.0
1,16.01199984550476,learn,43988.00015449524,Thu May 14 2026 10:02:32 GMT-0500 (Central Daylight Time),158038.5,A,doct,I,t,406,2,1099.5999999940395,156938.90000000596,8085,WL,C,7.0
1,16.161999940872192,learn,43838.00005912781,Thu May 14 2026 10:02:32 GMT-0500 (Central Daylight Time),158188.40000000596,A,docto,I,o,142,2,1249.5,156938.90000000596,8085,WL,C,7.0
1,16.378999948501587,learn,43621.00005149841,Thu May 14 2026 10:02:32 GMT-0500 (Central Daylight Time),158405.09999999404,A,doctor,I,r,208,2,1466.199999988079,156938.90000000596,8085,WL,C,7.0
1,16.694999933242798,learn,43305.0000667572,Thu May 14 2026 10:02:32 GMT-0500 (Central Daylight Time),158721.5,A,doctorenter,I,enter,311,2,1782.5999999940395,156938.90000000596,8085,WL,C,7.0
1,17.91099977493286,learn,42089.00022506714,Thu May 14 2026 10:02:32 GMT-0500 (Central Daylight Time),159937.80000001192,A,s,I,s,1204,2,1216.1000000238419,158721.69999998808,8085,WL,C,8.0
1,18.027999877929688,learn,41972.00012207031,Thu May 14 2026 10:02:32 GMT-0500 (Central Daylight Time),160054.5,A,sh,I,h,107,2,1332.800000011921,158721.69999998808,8085,WL,C,8.0
1,18.17799997329712,learn,41822.00002670288,Thu May 14 2026 10:02:32 GMT-0500 (Central Daylight Time),160204.40000000596,A,sho,I,o,142,2,1482.7000000178814,158721.69999998808,8085,WL,C,8.0
1,18.277999877929688,learn,41722.00012207031,Thu May 14 2026 10:02:32 GMT-0500 (Central Daylight Time),160304.40000000596,A,shor,I,r,89,2,1582.7000000178814,158721.69999998808,8085,WL,C,8.0
1,18.460999965667725,learn,41539.000034332275,Thu May 14 2026 10:02:32 GMT-0500 (Central Daylight Time),160487.59999999404,A,shore,I,e,164,2,1765.9000000059605,158721.69999998808,8085,WL,C,8.0
1,18.776999950408936,learn,41223.000049591064,Thu May 14 2026 10:02:32 GMT-0500 (Central Daylight Time),160804.0,A,shoreenter,I,enter,302,2,2082.300000011921,158721.69999998808,8085,WL,C,8.0
1,24.30899977684021,learn,35691.00022315979,Thu May 14 2026 10:02:32 GMT-0500 (Central Daylight Time),166335.69999998808,A,s,I,s,5521,2,5531.299999982119,160804.40000000596,8085,WL,C,9.0
1,24.508999824523926,learn,35491.000175476074,Thu May 14 2026 10:02:32 GMT-0500 (Central Daylight Time),166535.80000001192,A,su,I,u,180,2,5731.4000000059605,160804.40000000596,8085,WL,C,9.0
1,24.64299988746643,learn,35357.00011253357,Thu May 14 2026 10:02:32 GMT-0500 (Central Daylight Time),166669.19999998808,A,sug,I,g,125,2,5864.799999982119,160804.40000000596,8085,WL,C,9.0
1,24.841999769210815,learn,35158.000230789185,Thu May 14 2026 10:02:32 GMT-0500 (Central Daylight Time),166869.0,A,suga,I,a,191,2,6064.5999999940395,160804.40000000596,8085,WL,C,9.0
1,24.992999792099,learn,35007.000207901,Thu May 14 2026 10:02:32 GMT-0500 (Central Daylight Time),167019.09999999404,A,sugar,I,r,137,2,6214.699999988079,160804.40000000596,8085,WL,C,9.0
1,25.325999975204468,learn,34674.00002479553,Thu May 14 2026 10:02:32 GMT-0500 (Central Daylight Time),167352.19999998808,A,sugarenter,I,enter,313,2,6547.799999982119,160804.40000000596,8085,WL,C,9.0
1,26.824999809265137,learn,33175.00019073486,Thu May 14 2026 10:02:32 GMT-0500 (Central Daylight Time),168851.69999998808,A,c,I,c,1493,2,1498.8999999761581,167352.80000001192,8085,WL,C,10.0
1,26.991999864578247,learn,33008.00013542175,Thu May 14 2026 10:02:32 GMT-0500 (Central Daylight Time),169018.19999998808,A,ca,I,a,153,2,1665.3999999761581,167352.80000001192,8085,WL,C,10.0
1,27.14199995994568,learn,32858.00004005432,Thu May 14 2026 10:02:32 GMT-0500 (Central Daylight Time),169168.40000000596,A,cam,I,m,130,2,1815.5999999940395,167352.80000001192,8085,WL,C,10.0
1,27.324999809265137,learn,32675.000190734863,Thu May 14 2026 10:02:32 GMT-0500 (Central Daylight Time),169351.5,A,camp,I,p,173,2,1998.699999988079,167352.80000001192,8085,WL,C,10.0
1,27.691999912261963,learn,32308.000087738037,Thu May 14 2026 10:02:32 GMT-0500 (Central Daylight Time),169718.09999999404,A,campenter,I,enter,357,2,2365.2999999821186,167352.80000001192,8085,WL,C,10.0
1,34.472999811172485,learn,25527.000188827515,Thu May 14 2026 10:02:32 GMT-0500 (Central Daylight Time),176499.09999999404,A,n,I,n,6766,2,6780.5999999940395,169718.5,8085,WL,C,11.0
1,34.638999938964844,learn,25361.000061035156,Thu May 14 2026 10:02:32 GMT-0500 (Central Daylight Time),176666.0,A,na,I,a,146,2,6947.5,169718.5,8085,WL,C,11.0
1,34.805999994277954,learn,25194.000005722046,Thu May 14 2026 10:02:32 GMT-0500 (Central Daylight Time),176832.90000000596,A,nai,I,i,146,2,7114.4000000059605,169718.5,8085,WL,C,11.0
1,35.02300000190735,learn,24976.99999809265,Thu May 14 2026 10:02:32 GMT-0500 (Central Daylight Time),177049.30000001192,A,nail,I,l,196,2,7330.800000011921,169718.5,8085,WL,C,11.0
1,35.27300000190735,learn,24726.99999809265,Thu May 14 2026 10:02:32 GMT-0500 (Central Daylight Time),177299.90000000596,A,nailenter,I,enter,244,2,7581.4000000059605,169718.5,8085,WL,C,11.0
1,39.75399994850159,learn,20246.000051498413,Thu May 14 2026 10:02:32 GMT-0500 (Central Daylight Time),181781.0,A,enter,I,enter,4474,2,4480.699999988079,177300.30000001192,8085,WL,C,12.0
1,40.33799982070923,learn,19662.00017929077,Thu May 14 2026 10:02:32 GMT-0500 (Central Daylight Time),182364.19999998808,A,enter,I,enter,575,2,582.6999999880791,181781.5,8085,WL,C,13.0
1,40.83699989318848,learn,19163.000106811523,Thu May 14 2026 10:02:32 GMT-0500 (Central Daylight Time),182864.0,A,enter,I,enter,481,2,499.40000000596046,182364.59999999404,8085,WL,C,14.0
1,41.30399990081787,learn,18696.00009918213,Thu May 14 2026 10:02:32 GMT-0500 (Central Daylight Time),183330.30000001192,A,enter,I,enter,461,2,465.90000000596046,182864.40000000596,8085,WL,C,15.0
2,0.3659999370574951,learn,59634.000062942505,Thu May 14 2026 10:02:32 GMT-0500 (Central Daylight Time),253458.69999998808,A,c,I,c,345,2,365.59999999403954,253093.09999999404,8085,WL,C,1.0
2,0.5989999771118164,learn,59401.00002288818,Thu May 14 2026 10:02:32 GMT-0500 (Central Daylight Time),253691.80000001192,A,ca,I,a,218,2,598.7000000178814,253093.09999999404,8085,WL,C,1.0
2,0.8659999370574951,learn,59134.000062942505,Thu May 14 2026 10:02:32 GMT-0500 (Central Daylight Time),253958.59999999404,A,cat,I,t,250,2,865.5,253093.09999999404,8085,WL,C,1.0
2,1.1159999370574951,learn,58884.000062942505,Thu May 14 2026 10:02:32 GMT-0500 (Central Daylight Time),254208.5,A,catt,I,t,238,2,1115.4000000059605,253093.09999999404,8085,WL,C,1.0
2,1.248999834060669,learn,58751.00016593933,Thu May 14 2026 10:02:32 GMT-0500 (Central Daylight Time),254341.5,A,cattl,I,l,124,2,1248.4000000059605,253093.09999999404,8085,WL,C,1.0
2,1.4159998893737793,learn,58584.00011062622,Thu May 14 2026 10:02:32 GMT-0500 (Central Daylight Time),254508.19999998808,A,cattle,I,e,152,2,1415.0999999940395,253093.09999999404,8085,WL,C,1.0
2,2.0989999771118164,learn,57901.00002288818,Thu May 14 2026 10:02:32 GMT-0500 (Central Daylight Time),255191.09999999404,A,cattleenter,I,enter,665,2,2098.0,253093.09999999404,8085,WL,C,1.0
2,2.431999921798706,learn,57568.000078201294,Thu May 14 2026 10:02:32 GMT-0500 (Central Daylight Time),255524.59999999404,A,s,I,s,318,2,333.09999999403954,255191.5,8085,WL,C,2.0
2,2.56499981880188,learn,57435.00018119812,Thu May 14 2026 10:02:32 GMT-0500 (Central Daylight Time),255657.90000000596,A,sh,I,h,121,2,466.40000000596046,255191.5,8085,WL,C,2.0
2,2.7319998741149902,learn,57268.00012588501,Thu May 14 2026 10:02:32 GMT-0500 (Central Daylight Time),255824.5,A,sho,I,o,147,2,633.0,255191.5,8085,WL,C,2.0
2,2.865000009536743,learn,57134.99999046326,Thu May 14 2026 10:02:32 GMT-0500 (Central Daylight Time),255957.80000001192,A,shor,I,r,115,2,766.3000000119209,255191.5,8085,WL,C,2.0
2,2.9649999141693115,learn,57035.00008583069,Thu May 14 2026 10:02:32 GMT-0500 (Central Daylight Time),256057.90000000596,A,shore,I,e,88,2,866.4000000059605,255191.5,8085,WL,C,2.0
2,3.3320000171661377,learn,56667.99998283386,Thu May 14 2026 10:02:32 GMT-0500 (Central Daylight Time),256424.5,A,shoreenter,I,enter,355,2,1233.0,255191.5,8085,WL,C,2.0
2,3.797999858856201,learn,56202.0001411438,Thu May 14 2026 10:02:32 GMT-0500 (Central Daylight Time),256890.5,A,b,I,b,460,2,465.69999998807907,256424.80000001192,8085,WL,C,3.0
2,3.947999954223633,learn,56052.00004577637,Thu May 14 2026 10:02:32 GMT-0500 (Central Daylight Time),257040.69999998808,A,bo,I,o,139,2,615.8999999761581,256424.80000001192,8085,WL,C,3.0
2,4.148000001907349,learn,55851.99999809265,Thu May 14 2026 10:02:32 GMT-0500 (Central Daylight Time),257240.69999998808,A,bod,I,d,188,2,815.8999999761581,256424.80000001192,8085,WL,C,3.0
2,4.380999803543091,learn,55619.00019645691,Thu May 14 2026 10:02:32 GMT-0500 (Central Daylight Time),257473.80000001192,A,body,I,y,210,2,1049.0,256424.80000001192,8085,WL,C,3.0
2,4.730999946594238,learn,55269.00005340576,Thu May 14 2026 10:02:32 GMT-0500 (Central Daylight Time),257823.80000001192,A,bodyenter,I,enter,331,2,1399.0,256424.80000001192,8085,WL,C,3.0
2,5.580999851226807,learn,54419.00014877319,Thu May 14 2026 10:02:32 GMT-0500 (Central Daylight Time),258673.69999998808,A,h,I,h,844,2,849.5,257824.19999998808,8085,WL,C,4.0
2,5.748999834060669,learn,54251.00016593933,Thu May 14 2026 10:02:32 GMT-0500 (Central Daylight Time),258841.30000001192,A,ho,I,o,156,2,1017.1000000238419,257824.19999998808,8085,WL,C,4.0
2,5.947999954223633,learn,54052.00004577637,Thu May 14 2026 10:02:32 GMT-0500 (Central Daylight Time),259040.30000001192,A,hom,I,m,187,2,1216.1000000238419,257824.19999998808,8085,WL,C,4.0
2,6.097999811172485,learn,53902.000188827515,Thu May 14 2026 10:02:32 GMT-0500 (Central Daylight Time),259190.19999998808,A,home,I,e,141,2,1366.0,257824.19999998808,8085,WL,C,4.0
2,6.346999883651733,learn,53653.00011634827,Thu May 14 2026 10:02:32 GMT-0500 (Central Daylight Time),259439.5,A,homeenter,I,enter,230,2,1615.300000011921,257824.19999998808,8085,WL,C,4.0
2,6.996999979019165,learn,53003.000020980835,Thu May 14 2026 10:02:32 GMT-0500 (Central Daylight Time),260089.69999998808,A,c,I,c,638,2,650.0,259439.69999998808,8085,WL,C,5.0
2,7.179999828338623,learn,52820.00017166138,Thu May 14 2026 10:02:32 GMT-0500 (Central Daylight Time),260273.0,A,ca,I,a,172,2,833.3000000119209,259439.69999998808,8085,WL,C,5.0
2,7.329999923706055,learn,52670.000076293945,Thu May 14 2026 10:02:32 GMT-0500 (Central Daylight Time),260423.0,A,cam,I,m,140,2,983.3000000119209,259439.69999998808,8085,WL,C,5.0
2,7.513999938964844,learn,52486.000061035156,Thu May 14 2026 10:02:32 GMT-0500 (Central Daylight Time),260606.40000000596,A,camp,I,p,175,2,1166.7000000178814,259439.69999998808,8085,WL,C,5.0
2,7.846999883651733,learn,52153.00011634827,Thu May 14 2026 10:02:32 GMT-0500 (Central Daylight Time),260939.5,A,campenter,I,enter,327,2,1499.800000011921,259439.69999998808,8085,WL,C,5.0
2,9.462999820709229,learn,50537.00017929077,Thu May 14 2026 10:02:32 GMT-0500 (Central Daylight Time),262555.90000000596,A,q,I,q,1601,2,1616.2000000178814,260939.69999998808,8085,WL,C,6.0
2,9.579999923706055,learn,50420.000076293945,Thu May 14 2026 10:02:32 GMT-0500 (Central Daylight Time),262672.40000000596,A,qu,I,u,96,2,1732.7000000178814,260939.69999998808,8085,WL,C,6.0
2,9.712999820709229,learn,50287.00017929077,Thu May 14 2026 10:02:32 GMT-0500 (Central Daylight Time),262805.40000000596,A,que,I,e,125,2,1865.7000000178814,260939.69999998808,8085,WL,C,6.0
2,9.929999828338623,learn,50070.00017166138,Thu May 14 2026 10:02:32 GMT-0500 (Central Daylight Time),263022.3000000119,A,quee,I,e,208,2,2082.600000023842,260939.69999998808,8085,WL,C,6.0
2,10.02999997138977,learn,49970.00002861023,Thu May 14 2026 10:02:32 GMT-0500 (Central Daylight Time),263122.1999999881,A,queen,I,n,95,2,2182.5,260939.69999998808,8085,WL,C,6.0
2,10.345999956130981,learn,49654.00004386902,Thu May 14 2026 10:02:32 GMT-0500 (Central Daylight Time),263438.5,A,queenenter,I,enter,306,2,2498.800000011921,260939.69999998808,8085,WL,C,6.0
2,11.095999956130981,learn,48904.00004386902,Thu May 14 2026 10:02:32 GMT-0500 (Central Daylight Time),264188.40000000596,A,b,I,b,734,2,749.5,263438.90000000596,8085,WL,C,7.0
2,11.212999820709229,learn,48787.00017929077,Thu May 14 2026 10:02:32 GMT-0500 (Central Daylight Time),264305.09999999404,A,bo,I,o,105,2,866.1999999880791,263438.90000000596,8085,WL,C,7.0
2,11.49399995803833,learn,48506.00004196167,Thu May 14 2026 10:02:32 GMT-0500 (Central Daylight Time),264586.40000000596,A,boy,I,y,276,2,1147.5,263438.90000000596,8085,WL,C,7.0
2,11.711999893188477,learn,48288.00010681152,Thu May 14 2026 10:02:32 GMT-0500 (Central Daylight Time),264804.59999999404,A,boyenter,I,enter,210,2,1365.699999988079,263438.90000000596,8085,WL,C,7.0
2,12.128999948501587,learn,47871.00005149841,Thu May 14 2026 10:02:32 GMT-0500 (Central Daylight Time),265221.40000000596,A,d,I,d,401,2,416.5,264804.90000000596,8085,WL,C,8.0
2,12.245999813079834,learn,47754.000186920166,Thu May 14 2026 10:02:32 GMT-0500 (Central Daylight Time),265338.09999999404,A,do,I,o,104,2,533.1999999880791,264804.90000000596,8085,WL,C,8.0
2,12.461999893188477,learn,47538.00010681152,Thu May 14 2026 10:02:32 GMT-0500 (Central Daylight Time),265554.5,A,doc,I,c,202,2,749.5999999940395,264804.90000000596,8085,WL,C,8.0
2,12.744999885559082,learn,47255.00011444092,Thu May 14 2026 10:02:32 GMT-0500 (Central Daylight Time),265838.0,A,doct,I,t,266,2,1033.0999999940395,264804.90000000596,8085,WL,C,8.0
2,12.878999948501587,learn,47121.00005149841,Thu May 14 2026 10:02:32 GMT-0500 (Central Daylight Time),265971.3000000119,A,docto,I,o,126,2,1166.4000000059605,264804.90000000596,8085,WL,C,8.0
2,13.27899980545044,learn,46721.00019454956,Thu May 14 2026 10:02:32 GMT-0500 (Central Daylight Time),266371.3000000119,A,doctor,I,r,386,2,1566.4000000059605,264804.90000000596,8085,WL,C,8.0
2,13.527999877929688,learn,46472.00012207031,Thu May 14 2026 10:02:32 GMT-0500 (Central Daylight Time),266621.09999999404,A,doctorenter,I,enter,241,2,1816.199999988079,264804.90000000596,8085,WL,C,8.0
2,13.894999980926514,learn,46105.000019073486,Thu May 14 2026 10:02:32 GMT-0500 (Central Daylight Time),266987.59999999404,A,n,I,n,351,2,366.19999998807907,266621.40000000596,8085,WL,C,9.0
2,14.09499979019165,learn,45905.00020980835,Thu May 14 2026 10:02:32 GMT-0500 (Central Daylight Time),267187.6999999881,A,na,I,a,186,2,566.2999999821186,266621.40000000596,8085,WL,C,9.0
2,14.527999877929688,learn,45472.00012207031,Thu May 14 2026 10:02:32 GMT-0500 (Central Daylight Time),267620.8000000119,A,nai,I,i,418,2,999.4000000059605,266621.40000000596,8085,WL,C,9.0
2,14.77899980545044,learn,45221.00019454956,Thu May 14 2026 10:02:32 GMT-0500 (Central Daylight Time),267871.8000000119,A,nail,I,l,239,2,1250.4000000059605,266621.40000000596,8085,WL,C,9.0
2,15.061999797821045,learn,44938.000202178955,Thu May 14 2026 10:02:32 GMT-0500 (Central Daylight Time),268154.90000000596,A,nailenter,I,enter,277,2,1533.5,266621.40000000596,8085,WL,C,9.0
2,15.777999877929688,learn,44222.00012207031,Thu May 14 2026 10:02:32 GMT-0500 (Central Daylight Time),268870.3000000119,A,t,I,t,707,2,715.1000000238419,268155.1999999881,8085,WL,C,10.0
2,15.92799997329712,learn,44072.00002670288,Thu May 14 2026 10:02:32 GMT-0500 (Central Daylight Time),269020.40000000596,A,to,I,o,143,2,865.2000000178814,268155.1999999881,8085,WL,C,10.0
2,16.078999996185303,learn,43921.0000038147,Thu May 14 2026 10:02:32 GMT-0500 (Central Daylight Time),269171.40000000596,A,tow,I,w,144,2,1016.2000000178814,268155.1999999881,8085,WL,C,10.0
2,16.194000005722046,learn,43805.999994277954,Thu May 14 2026 10:02:32 GMT-0500 (Central Daylight Time),269286.8000000119,A,towe,I,e,106,2,1131.6000000238419,268155.1999999881,8085,WL,C,10.0
2,16.360999822616577,learn,43639.00017738342,Thu May 14 2026 10:02:32 GMT-0500 (Central Daylight Time),269453.40000000596,A,tower,I,r,151,2,1298.2000000178814,268155.1999999881,8085,WL,C,10.0
2,16.676999807357788,learn,43323.00019264221,Thu May 14 2026 10:02:32 GMT-0500 (Central Daylight Time),269770.0,A,towerenter,I,enter,304,2,1614.800000011921,268155.1999999881,8085,WL,C,10.0
2,16.960999965667725,learn,43039.000034332275,Thu May 14 2026 10:02:32 GMT-0500 (Central Daylight Time),270053.40000000596,A,w,I,w,267,2,283.0,269770.40000000596,8085,WL,C,11.0
2,17.0939998626709,learn,42906.0001373291,Thu May 14 2026 10:02:32 GMT-0500 (Central Daylight Time),270186.5,A,wh,I,h,120,2,416.09999999403954,269770.40000000596,8085,WL,C,11.0
2,17.210999965667725,learn,42789.000034332275,Thu May 14 2026 10:02:32 GMT-0500 (Central Daylight Time),270303.1999999881,A,whe,I,e,99,2,532.7999999821186,269770.40000000596,8085,WL,C,11.0
2,17.3439998626709,learn,42656.0001373291,Thu May 14 2026 10:02:32 GMT-0500 (Central Daylight Time),270436.3000000119,A,whea,I,a,118,2,665.9000000059605,269770.40000000596,8085,WL,C,11.0
2,17.560999870300293,learn,42439.00012969971,Thu May 14 2026 10:02:32 GMT-0500 (Central Daylight Time),270653.3000000119,A,wheat,I,t,201,2,882.9000000059605,269770.40000000596,8085,WL,C,11.0
2,18.17799997329712,learn,41822.00002670288,Thu May 14 2026 10:02:32 GMT-0500 (Central Daylight Time),271270.8000000119,A,wheatenter,I,enter,607,2,1500.4000000059605,269770.40000000596,8085,WL,C,11.0
2,18.543999910354614,learn,41456.000089645386,Thu May 14 2026 10:02:32 GMT-0500 (Central Daylight Time),271636.1999999881,A,c,I,c,350,2,365.09999999403954,271271.09999999404,8085,WL,C,12.0
2,18.692999839782715,learn,41307.000160217285,Thu May 14 2026 10:02:32 GMT-0500 (Central Daylight Time),271786.0,A,co,I,o,136,2,514.9000000059605,271271.09999999404,8085,WL,C,12.0
2,18.875999927520752,learn,41124.00007247925,Thu May 14 2026 10:02:32 GMT-0500 (Central Daylight Time),271968.90000000596,A,cor,I,r,170,2,697.8000000119209,271271.09999999404,8085,WL,C,12.0
2,19.092999935150146,learn,40907.00006484985,Thu May 14 2026 10:02:32 GMT-0500 (Central Daylight Time),272186.0,A,corn,I,n,197,2,914.9000000059605,271271.09999999404,8085,WL,C,12.0
2,19.609999895095825,learn,40390.000104904175,Thu May 14 2026 10:02:32 GMT-0500 (Central Daylight Time),272702.40000000596,A,cornenter,I,enter,506,2,1431.300000011921,271271.09999999404,8085,WL,C,12.0
2,23.741999864578247,learn,36258.00013542175,Thu May 14 2026 10:02:32 GMT-0500 (Central Daylight Time),276834.6999999881,A,f,I,f,4112,2,4131.899999976158,272702.8000000119,8085,WL,C,13.0
2,23.89199995994568,learn,36108.00004005432,Thu May 14 2026 10:02:32 GMT-0500 (Central Daylight Time),276984.40000000596,A,fl,I,l,139,2,4281.5999999940395,272702.8000000119,8085,WL,C,13.0
2,24.04199981689453,learn,35958.00018310547,Thu May 14 2026 10:02:32 GMT-0500 (Central Daylight Time),277134.5,A,fla,I,a,140,2,4431.699999988079,272702.8000000119,8085,WL,C,13.0
2,24.257999897003174,learn,35742.000102996826,Thu May 14 2026 10:02:32 GMT-0500 (Central Daylight Time),277351.09999999404,A,flag,I,g,207,2,4648.299999982119,272702.8000000119,8085,WL,C,13.0
2,24.524999856948853,learn,35475.00014305115,Thu May 14 2026 10:02:32 GMT-0500 (Central Daylight Time),277617.6999999881,A,flagenter,I,enter,253,2,4914.899999976158,272702.8000000119,8085,WL,C,13.0
2,55.16499996185303,learn,4835.000038146973,Thu May 14 2026 10:02:32 GMT-0500 (Central Daylight Time),308258.0,A,b,I,b,30636,2,30639.90000000596,277618.09999999404,8085,WL,C,14.0
2,55.96499991416931,learn,4035.0000858306885,Thu May 14 2026 10:02:32 GMT-0500 (Central Daylight Time),309057.59999999404,A,bo,I,o,786,2,31439.5,277618.09999999404,8085,WL,C,14.0
2,56.14800000190735,learn,3851.9999980926514,Thu May 14 2026 10:02:32 GMT-0500 (Central Daylight Time),309241.09999999404,A,bod,I,d,172,2,31623.0,277618.09999999404,8085,WL,C,14.0
2,56.41499996185303,learn,3585.0000381469727,Thu May 14 2026 10:02:32 GMT-0500 (Central Daylight Time),309507.6999999881,A,body,I,y,251,2,31889.59999999404,277618.09999999404,8085,WL,C,14.0
2,56.7979998588562,learn,3202.000141143799,Thu May 14 2026 10:02:32 GMT-0500 (Central Daylight Time),309890.59999999404,A,bodyenter,I,enter,378,2,32272.5,277618.09999999404,8085,WL,C,14.0
2,58.80900001525879,learn,1190.999984741211,Thu May 14 2026 10:02:32 GMT-0500 (Central Daylight Time),311901.5,A,c,I,c,2006,2,2010.5999999940395,309890.90000000596,8085,WL,C,15.0
2,58.89800000190735,learn,1101.9999980926514,Thu May 14 2026 10:02:32 GMT-0500 (Central Daylight Time),311991.09999999404,A,ca,I,a,77,2,2100.199999988079,309890.90000000596,8085,WL,C,15.0
2,59.163999795913696,learn,836.0002040863037,Thu May 14 2026 10:02:32 GMT-0500 (Central Daylight Time),312256.90000000596,A,cam,I,m,243,2,2366.0,309890.90000000596,8085,WL,C,15.0
2,59.348999977111816,learn,651.0000228881836,Thu May 14 2026 10:02:32 GMT-0500 (Central Daylight Time),312441.59999999404,A,camp,I,p,180,2,2550.699999988079,309890.90000000596,8085,WL,C,15.0
2,59.66499996185303,learn,335.00003814697266,Thu May 14 2026 10:02:32 GMT-0500 (Central Daylight Time),312757.3000000119,A,campenter,I,enter,299,2,2866.4000000059605,309890.90000000596,8085,WL,C,15.0
3,0.6500000953674316,learn,59349.99990463257,Thu May 14 2026 10:02:32 GMT-0500 (Central Daylight Time),384350.90000000596,A,c,I,c,632,2,649.5999999940395,383701.3000000119,8085,WL,C,1.0
3,0.8670001029968262,learn,59132.999897003174,Thu May 14 2026 10:02:32 GMT-0500 (Central Daylight Time),384567.40000000596,A,ca,I,a,198,2,866.0999999940395,383701.3000000119,8085,WL,C,1.0
3,1.1000001430511475,learn,58899.99985694885,Thu May 14 2026 10:02:32 GMT-0500 (Central Daylight Time),384801.1999999881,A,cat,I,t,229,2,1099.8999999761581,383701.3000000119,8085,WL,C,1.0
3,1.3330001831054688,learn,58666.99981689453,Thu May 14 2026 10:02:32 GMT-0500 (Central Daylight Time),385034.09999999404,A,catt,I,t,228,2,1332.7999999821186,383701.3000000119,8085,WL,C,1.0
3,1.5830001831054688,learn,58416.99981689453,Thu May 14 2026 10:02:32 GMT-0500 (Central Daylight Time),385284.09999999404,A,cattl,I,l,235,2,1582.7999999821186,383701.3000000119,8085,WL,C,1.0
3,1.7330000400543213,learn,58266.99995994568,Thu May 14 2026 10:02:32 GMT-0500 (Central Daylight Time),385434.0,A,cattle,I,e,137,2,1732.699999988079,383701.3000000119,8085,WL,C,1.0
3,2.632000207901001,learn,57367.999792099,Thu May 14 2026 10:02:32 GMT-0500 (Central Daylight Time),386333.3000000119,A,cattleenter,I,enter,890,2,2632.0,383701.3000000119,8085,WL,C,1.0
3,3.065999984741211,learn,56934.00001525879,Thu May 14 2026 10:02:32 GMT-0500 (Central Daylight Time),386767.0,A,c,I,c,415,2,433.30000001192093,386333.6999999881,8085,WL,C,2.0
3,3.7320001125335693,learn,56267.99988746643,Thu May 14 2026 10:02:32 GMT-0500 (Central Daylight Time),387433.40000000596,A,,I,backspace,646,2,1099.7000000178814,386333.6999999881,8085,WL,C,2.0
3,4.015000104904175,learn,55984.999895095825,Thu May 14 2026 10:02:32 GMT-0500 (Central Daylight Time),387716.40000000596,A,s,I,s,268,2,1382.7000000178814,386333.6999999881,8085,WL,C,2.0
3,5.0980000495910645,learn,54901.999950408936,Thu May 14 2026 10:02:32 GMT-0500 (Central Daylight Time),388799.3000000119,A,sh,I,h,1064,2,2465.600000023842,386333.6999999881,8085,WL,C,2.0
3,5.315000057220459,learn,54684.99994277954,Thu May 14 2026 10:02:32 GMT-0500 (Central Daylight Time),389016.0,A,sho,I,o,197,2,2682.300000011921,386333.6999999881,8085,WL,C,2.0
3,5.498000144958496,learn,54501.999855041504,Thu May 14 2026 10:02:32 GMT-0500 (Central Daylight Time),389199.1999999881,A,shor,I,r,165,2,2865.5,386333.6999999881,8085,WL,C,2.0
3,5.565000057220459,learn,54434.99994277954,Thu May 14 2026 10:02:32 GMT-0500 (Central Daylight Time),389266.0,A,shore,I,e,45,2,2932.300000011921,386333.6999999881,8085,WL,C,2.0
3,6.215000152587891,learn,53784.99984741211,Thu May 14 2026 10:02:32 GMT-0500 (Central Daylight Time),389915.90000000596,A,shoreenter,I,enter,636,2,3582.2000000178814,386333.6999999881,8085,WL,C,2.0
3,7.114000082015991,learn,52885.99991798401,Thu May 14 2026 10:02:32 GMT-0500 (Central Daylight Time),390815.40000000596,A,b,I,b,881,2,899.3000000119209,389916.09999999404,8085,WL,C,3.0
3,7.231000185012817,learn,52768.99981498718,Thu May 14 2026 10:02:32 GMT-0500 (Central Daylight Time),390932.1999999881,A,bo,I,o,101,2,1016.0999999940395,389916.09999999404,8085,WL,C,3.0
3,7.430999994277954,learn,52569.000005722046,Thu May 14 2026 10:02:32 GMT-0500 (Central Daylight Time),391132.09999999404,A,bod,I,d,184,2,1216.0,389916.09999999404,8085,WL,C,3.0
3,7.564000129699707,learn,52435.99987030029,Thu May 14 2026 10:02:32 GMT-0500 (Central Daylight Time),391265.3000000119,A,body,I,y,128,2,1349.2000000178814,389916.09999999404,8085,WL,C,3.0
3,8.097000122070312,learn,51902.99987792969,Thu May 14 2026 10:02:32 GMT-0500 (Central Daylight Time),391798.1999999881,A,bodyenter,I,enter,524,2,1882.0999999940395,389916.09999999404,8085,WL,C,3.0
3,8.814000129699707,learn,51185.99987030029,Thu May 14 2026 10:02:32 GMT-0500 (Central Daylight Time),392515.0,A,n,I,n,703,2,716.5,391798.5,8085,WL,C,4.0
3,9.014000177383423,learn,50985.99982261658,Thu May 14 2026 10:02:32 GMT-0500 (Central Daylight Time),392714.59999999404,A,na,I,a,185,2,916.0999999940395,391798.5,8085,WL,C,4.0
3,9.180000066757202,learn,50819.9999332428,Thu May 14 2026 10:02:32 GMT-0500 (Central Daylight Time),392881.1999999881,A,nai,I,i,155,2,1082.699999988079,391798.5,8085,WL,C,4.0
3,9.397000074386597,learn,50602.9999256134,Thu May 14 2026 10:02:32 GMT-0500 (Central Daylight Time),393098.09999999404,A,nail,I,l,213,2,1299.5999999940395,391798.5,8085,WL,C,4.0
3,9.731000185012817,learn,50268.99981498718,Thu May 14 2026 10:02:32 GMT-0500 (Central Daylight Time),393431.5,A,nailenter,I,enter,323,2,1633.0,391798.5,8085,WL,C,4.0
3,11.930000066757202,learn,48069.9999332428,Thu May 14 2026 10:02:32 GMT-0500 (Central Daylight Time),395630.59999999404,A,w,I,w,2190,2,2198.699999988079,393431.90000000596,8085,WL,C,5.0
3,12.163000106811523,learn,47836.99989318848,Thu May 14 2026 10:02:32 GMT-0500 (Central Daylight Time),395863.8000000119,A,wh,I,h,222,2,2431.9000000059605,393431.90000000596,8085,WL,C,5.0
3,12.246000051498413,learn,47753.99994850159,Thu May 14 2026 10:02:32 GMT-0500 (Central Daylight Time),395947.0,A,whe,I,e,69,2,2515.0999999940395,393431.90000000596,8085,WL,C,5.0
3,12.36300015449524,learn,47636.99984550476,Thu May 14 2026 10:02:32 GMT-0500 (Central Daylight Time),396063.6999999881,A,whea,I,a,106,2,2631.7999999821186,393431.90000000596,8085,WL,C,5.0
3,12.646000146865845,learn,47353.999853134155,Thu May 14 2026 10:02:32 GMT-0500 (Central Daylight Time),396346.90000000596,A,wheat,I,t,269,2,2915.0,393431.90000000596,8085,WL,C,5.0
3,12.946000099182129,learn,47053.99990081787,Thu May 14 2026 10:02:32 GMT-0500 (Central Daylight Time),396647.09999999404,A,wheatenter,I,enter,290,2,3215.199999988079,393431.90000000596,8085,WL,C,5.0
3,13.379000186920166,learn,46620.999813079834,Thu May 14 2026 10:02:32 GMT-0500 (Central Daylight Time),397080.09999999404,A,c,I,c,422,2,432.69999998807907,396647.40000000596,8085,WL,C,6.0
3,13.496999979019165,learn,46503.000020980835,Thu May 14 2026 10:02:32 GMT-0500 (Central Daylight Time),397198.0,A,co,I,o,101,2,550.5999999940395,396647.40000000596,8085,WL,C,6.0
3,13.646000146865845,learn,46353.999853134155,Thu May 14 2026 10:02:32 GMT-0500 (Central Daylight Time),397346.59999999404,A,cor,I,r,142,2,699.1999999880791,396647.40000000596,8085,WL,C,6.0
3,13.828999996185303,learn,46171.0000038147,Thu May 14 2026 10:02:32 GMT-0500 (Central Daylight Time),397530.1999999881,A,corn,I,n,170,2,882.7999999821186,396647.40000000596,8085,WL,C,6.0
3,14.029000043869019,learn,45970.99995613098,Thu May 14 2026 10:02:32 GMT-0500 (Central Daylight Time),397730.0,A,cornenter,I,enter,187,2,1082.5999999940395,396647.40000000596,8085,WL,C,6.0
3,14.712000131607056,learn,45287.999868392944,Thu May 14 2026 10:02:32 GMT-0500 (Central Daylight Time),398413.1999999881,A,t,I,t,674,2,682.7999999821186,397730.40000000596,8085,WL,C,7.0
3,14.828999996185303,learn,45171.0000038147,Thu May 14 2026 10:02:32 GMT-0500 (Central Daylight Time),398529.6999999881,A,to,I,o,96,2,799.2999999821186,397730.40000000596,8085,WL,C,7.0
3,14.995000123977661,learn,45004.99987602234,Thu May 14 2026 10:02:32 GMT-0500 (Central Daylight Time),398696.1999999881,A,tow,I,w,147,2,965.7999999821186,397730.40000000596,8085,WL,C,7.0
3,15.09500002861023,learn,44904.99997138977,Thu May 14 2026 10:02:32 GMT-0500 (Central Daylight Time),398796.3000000119,A,towe,I,e,83,2,1065.9000000059605,397730.40000000596,8085,WL,C,7.0
3,15.245000123977661,learn,44754.99987602234,Thu May 14 2026 10:02:32 GMT-0500 (Central Daylight Time),398946.1999999881,A,tower,I,r,136,2,1215.7999999821186,397730.40000000596,8085,WL,C,7.0
3,15.51200008392334,learn,44487.99991607666,Thu May 14 2026 10:02:32 GMT-0500 (Central Daylight Time),399212.8000000119,A,towerenter,I,enter,251,2,1482.4000000059605,397730.40000000596,8085,WL,C,7.0
3,16.563000202178955,learn,43436.999797821045,Thu May 14 2026 10:02:32 GMT-0500 (Central Daylight Time),400263.6999999881,A,h,I,h,1032,2,1050.5,399213.1999999881,8085,WL,C,8.0
3,16.712000131607056,learn,43287.999868392944,Thu May 14 2026 10:02:32 GMT-0500 (Central Daylight Time),400412.59999999404,A,ho,I,o,132,2,1199.4000000059605,399213.1999999881,8085,WL,C,8.0
3,16.978000164031982,learn,43021.99983596802,Thu May 14 2026 10:02:32 GMT-0500 (Central Daylight Time),400679.09999999404,A,hom,I,m,248,2,1465.9000000059605,399213.1999999881,8085,WL,C,8.0
3,17.211000204086304,learn,42788.999795913696,Thu May 14 2026 10:02:32 GMT-0500 (Central Daylight Time),400912.40000000596,A,home,I,e,222,2,1699.2000000178814,399213.1999999881,8085,WL,C,8.0
3,17.594000101089478,learn,42405.99989891052,Thu May 14 2026 10:02:32 GMT-0500 (Central Daylight Time),401295.5,A,homeenter,I,enter,372,2,2082.300000011921,399213.1999999881,8085,WL,C,8.0
3,18.061000108718872,learn,41938.99989128113,Thu May 14 2026 10:02:32 GMT-0500 (Central Daylight Time),401762.09999999404,A,c,I,c,446,2,466.2999999821186,401295.8000000119,8085,WL,C,9.0
3,18.261000156402588,learn,41738.99984359741,Thu May 14 2026 10:02:32 GMT-0500 (Central Daylight Time),401962.1999999881,A,ca,I,a,186,2,666.3999999761581,401295.8000000119,8085,WL,C,9.0
3,18.611000061035156,learn,41388.999938964844,Thu May 14 2026 10:02:32 GMT-0500 (Central Daylight Time),402312.0,A,cam,I,m,338,2,1016.1999999880791,401295.8000000119,8085,WL,C,9.0
3,18.89400005340576,learn,41105.99994659424,Thu May 14 2026 10:02:32 GMT-0500 (Central Daylight Time),402595.09999999404,A,camp,I,p,269,2,1299.2999999821186,401295.8000000119,8085,WL,C,9.0
3,19.344000101089478,learn,40655.99989891052,Thu May 14 2026 10:02:32 GMT-0500 (Central Daylight Time),403045.0,A,campenter,I,enter,442,2,1749.199999988079,401295.8000000119,8085,WL,C,9.0
3,20.360000133514404,learn,39639.999866485596,Thu May 14 2026 10:02:32 GMT-0500 (Central Daylight Time),404061.09999999404,A,q,I,q,1009,2,1015.7999999821186,403045.3000000119,8085,WL,C,10.0
3,20.509999990463257,learn,39490.00000953674,Thu May 14 2026 10:02:32 GMT-0500 (Central Daylight Time),404211.3000000119,A,qu,I,u,136,2,1166.0,403045.3000000119,8085,WL,C,10.0
3,20.64400005340576,learn,39355.99994659424,Thu May 14 2026 10:02:32 GMT-0500 (Central Daylight Time),404344.8000000119,A,que,I,e,122,2,1299.5,403045.3000000119,8085,WL,C,10.0
3,20.860000133514404,learn,39139.999866485596,Thu May 14 2026 10:02:32 GMT-0500 (Central Daylight Time),404561.1999999881,A,quee,I,e,205,2,1515.8999999761581,403045.3000000119,8085,WL,C,10.0
3,20.927000045776367,learn,39072.99995422363,Thu May 14 2026 10:02:32 GMT-0500 (Central Daylight Time),404627.59999999404,A,queen,I,n,60,2,1582.2999999821186,403045.3000000119,8085,WL,C,10.0
3,21.210000038146973,learn,38789.99996185303,Thu May 14 2026 10:02:32 GMT-0500 (Central Daylight Time),404911.0,A,queenenter,I,enter,274,2,1865.699999988079,403045.3000000119,8085,WL,C,10.0
3,22.472000122070312,learn,37527.99987792969,Thu May 14 2026 10:02:32 GMT-0500 (Central Daylight Time),406173.40000000596,A,o,I,o,1243,2,1262.0999999940395,404911.3000000119,8085,WL,C,11.0
3,22.676000118255615,learn,37323.999881744385,Thu May 14 2026 10:02:32 GMT-0500 (Central Daylight Time),406377.09999999404,A,oy,I,y,180,2,1465.7999999821186,404911.3000000119,8085,WL,C,11.0
3,23.926000118255615,learn,36073.999881744385,Thu May 14 2026 10:02:32 GMT-0500 (Central Daylight Time),407626.6999999881,A,o,I,backspace,1244,2,2715.399999976158,404911.3000000119,8085,WL,C,11.0
3,24.193000078201294,learn,35806.999921798706,Thu May 14 2026 10:02:32 GMT-0500 (Central Daylight Time),407893.59999999404,A,,I,backspace,259,2,2982.2999999821186,404911.3000000119,8085,WL,C,11.0
3,24.992000102996826,learn,35007.999897003174,Thu May 14 2026 10:02:32 GMT-0500 (Central Daylight Time),408692.90000000596,A,b,I,b,792,2,3781.5999999940395,404911.3000000119,8085,WL,C,11.0
3,25.157999992370605,learn,34842.000007629395,Thu May 14 2026 10:02:32 GMT-0500 (Central Daylight Time),408859.40000000596,A,bo,I,o,159,2,3948.0999999940395,404911.3000000119,8085,WL,C,11.0
3,25.409000158309937,learn,34590.99984169006,Thu May 14 2026 10:02:32 GMT-0500 (Central Daylight Time),409109.5,A,boy,I,y,233,2,4198.199999988079,404911.3000000119,8085,WL,C,11.0
3,25.659000158309937,learn,34340.99984169006,Thu May 14 2026 10:02:32 GMT-0500 (Central Daylight Time),409359.8000000119,A,boyenter,I,enter,240,2,4448.5,404911.3000000119,8085,WL,C,11.0
3,25.99400019645691,learn,34005.99980354309,Thu May 14 2026 10:02:32 GMT-0500 (Central Daylight Time),409694.5,A,d,I,d,317,2,334.19999998807907,409360.3000000119,8085,WL,C,12.0
3,26.125,learn,33875.0,Thu May 14 2026 10:02:32 GMT-0500 (Central Daylight Time),409826.3000000119,A,do,I,o,119,2,466.0,409360.3000000119,8085,WL,C,12.0
3,26.29200005531311,learn,33707.99994468689,Thu May 14 2026 10:02:32 GMT-0500 (Central Daylight Time),409992.5,A,doc,I,c,146,2,632.1999999880791,409360.3000000119,8085,WL,C,12.0
3,26.741000175476074,learn,33258.999824523926,Thu May 14 2026 10:02:32 GMT-0500 (Central Daylight Time),410442.3000000119,A,doco,I,o,444,2,1082.0,409360.3000000119,8085,WL,C,12.0
3,26.79200005531311,learn,33207.99994468689,Thu May 14 2026 10:02:32 GMT-0500 (Central Daylight Time),410492.6999999881,A,docot,I,t,35,2,1132.3999999761581,409360.3000000119,8085,WL,C,12.0
3,27.141000032424927,learn,32858.99996757507,Thu May 14 2026 10:02:32 GMT-0500 (Central Daylight Time),410842.40000000596,A,docotr,I,r,336,2,1482.0999999940395,409360.3000000119,8085,WL,C,12.0
3,28.10800004005432,learn,31891.99995994568,Thu May 14 2026 10:02:32 GMT-0500 (Central Daylight Time),411808.90000000596,A,docot,I,backspace,946,2,2448.5999999940395,409360.3000000119,8085,WL,C,12.0
3,28.391000032424927,learn,31608.999967575073,Thu May 14 2026 10:02:32 GMT-0500 (Central Daylight Time),412092.09999999404,A,doco,I,backspace,269,2,2731.7999999821186,409360.3000000119,8085,WL,C,12.0
3,28.591000080108643,learn,31408.999919891357,Thu May 14 2026 10:02:32 GMT-0500 (Central Daylight Time),412291.90000000596,A,doc,I,backspace,193,2,2931.5999999940395,409360.3000000119,8085,WL,C,12.0
3,29.324000120162964,learn,30675.999879837036,Thu May 14 2026 10:02:32 GMT-0500 (Central Daylight Time),413025.09999999404,A,doct,I,t,722,2,3664.7999999821186,409360.3000000119,8085,WL,C,12.0
3,29.44099998474121,learn,30559.00001525879,Thu May 14 2026 10:02:32 GMT-0500 (Central Daylight Time),413141.8000000119,A,docto,I,o,107,2,3781.5,409360.3000000119,8085,WL,C,12.0
3,29.591000080108643,learn,30408.999919891357,Thu May 14 2026 10:02:32 GMT-0500 (Central Daylight Time),413291.6999999881,A,doctor,I,r,142,2,3931.399999976158,409360.3000000119,8085,WL,C,12.0
3,29.807000160217285,learn,30192.999839782715,Thu May 14 2026 10:02:32 GMT-0500 (Central Daylight Time),413508.3000000119,A,doctorenter,I,enter,202,2,4148.0,409360.3000000119,8085,WL,C,12.0
3,32.97200012207031,learn,27027.999877929688,Thu May 14 2026 10:02:32 GMT-0500 (Central Daylight Time),416673.90000000596,A,l,I,l,3145,2,3165.2000000178814,413508.6999999881,8085,WL,C,13.0
3,33.105000019073486,learn,26894.999980926514,Thu May 14 2026 10:02:32 GMT-0500 (Central Daylight Time),416807.59999999404,A,le,I,e,114,2,3298.9000000059605,413508.6999999881,8085,WL,C,13.0
3,33.2720000743866,learn,26727.999925613403,Thu May 14 2026 10:02:32 GMT-0500 (Central Daylight Time),416974.0,A,let,I,t,157,2,3465.300000011921,413508.6999999881,8085,WL,C,13.0
3,33.58800005912781,learn,26411.999940872192,Thu May 14 2026 10:02:32 GMT-0500 (Central Daylight Time),417290.40000000596,A,lett,I,t,303,2,3781.7000000178814,413508.6999999881,8085,WL,C,13.0
3,33.7720000743866,learn,26227.999925613403,Thu May 14 2026 10:02:32 GMT-0500 (Central Daylight Time),417473.8000000119,A,lette,I,e,178,2,3965.100000023842,413508.6999999881,8085,WL,C,13.0
3,33.871999979019165,learn,26128.000020980835,Thu May 14 2026 10:02:32 GMT-0500 (Central Daylight Time),417573.90000000596,A,letter,I,r,84,2,4065.2000000178814,413508.6999999881,8085,WL,C,13.0
3,34.00500011444092,learn,25994.999885559082,Thu May 14 2026 10:02:32 GMT-0500 (Central Daylight Time),417706.8000000119,A,letterenter,I,enter,128,2,4198.100000023842,413508.6999999881,8085,WL,C,13.0
3,35.38800001144409,learn,24611.99998855591,Thu May 14 2026 10:02:32 GMT-0500 (Central Daylight Time),419090.0,A,f,I,f,1363,2,1382.9000000059605,417707.09999999404,8085,WL,C,14.0
3,35.57100009918213,learn,24428.99990081787,Thu May 14 2026 10:02:32 GMT-0500 (Central Daylight Time),419273.5,A,fl,I,l,163,2,1566.4000000059605,417707.09999999404,8085,WL,C,14.0
3,35.688000202178955,learn,24311.999797821045,Thu May 14 2026 10:02:32 GMT-0500 (Central Daylight Time),419389.90000000596,A,fla,I,a,108,2,1682.800000011921,417707.09999999404,8085,WL,C,14.0
3,35.9210000038147,learn,24078.999996185303,Thu May 14 2026 10:02:32 GMT-0500 (Central Daylight Time),419623.09999999404,A,flag,I,g,222,2,1916.0,417707.09999999404,8085,WL,C,14.0
3,36.17200016975403,learn,23827.99983024597,Thu May 14 2026 10:02:32 GMT-0500 (Central Daylight Time),419874.3000000119,A,flagenter,I,enter,229,2,2167.2000000178814,417707.09999999404,8085,WL,C,14.0
3,60.01400017738342,learn,-14.000177383422852,Thu May 14 2026 10:02:32 GMT-0500 (Central Daylight Time),443715.6999999881,A,None,I,None,23837,2,23841.19999998808,419874.5,8085,WL,C,15.0
4,0.46700000762939453,learn,59532.999992370605,Thu May 14 2026 10:02:32 GMT-0500 (Central Daylight Time),511978.6999999881,A,c,I,c,454,2,467.5,511511.1999999881,8085,WL,C,1.0
4,0.7000000476837158,learn,59299.999952316284,Thu May 14 2026 10:02:32 GMT-0500 (Central Daylight Time),512210.6999999881,A,ca,I,a,217,2,699.5,511511.1999999881,8085,WL,C,1.0
4,0.9660000801086426,learn,59033.99991989136,Thu May 14 2026 10:02:32 GMT-0500 (Central Daylight Time),512477.3000000119,A,cat,I,t,251,2,966.1000000238419,511511.1999999881,8085,WL,C,1.0
4,1.1660001277923584,learn,58833.99987220764,Thu May 14 2026 10:02:32 GMT-0500 (Central Daylight Time),512677.09999999404,A,catt,I,t,192,2,1165.9000000059605,511511.1999999881,8085,WL,C,1.0
4,1.315999984741211,learn,58684.00001525879,Thu May 14 2026 10:02:32 GMT-0500 (Central Daylight Time),512827.3000000119,A,cattl,I,l,144,2,1316.1000000238419,511511.1999999881,8085,WL,C,1.0
4,1.4490001201629639,learn,58550.999879837036,Thu May 14 2026 10:02:32 GMT-0500 (Central Daylight Time),512960.40000000596,A,cattle,I,e,121,2,1449.2000000178814,511511.1999999881,8085,WL,C,1.0
4,1.9160001277923584,learn,58083.99987220764,Thu May 14 2026 10:02:32 GMT-0500 (Central Daylight Time),513427.09999999404,A,cattleenter,I,enter,460,2,1915.9000000059605,511511.1999999881,8085,WL,C,1.0
4,2.4660000801086426,learn,57533.99991989136,Thu May 14 2026 10:02:32 GMT-0500 (Central Daylight Time),513976.90000000596,A,s,I,s,538,2,549.5,513427.40000000596,8085,WL,C,2.0
4,2.631999969482422,learn,57368.00003051758,Thu May 14 2026 10:02:32 GMT-0500 (Central Daylight Time),514143.59999999404,A,sh,I,h,157,2,716.1999999880791,513427.40000000596,8085,WL,C,2.0
4,2.7820000648498535,learn,57217.99993515015,Thu May 14 2026 10:02:32 GMT-0500 (Central Daylight Time),514293.40000000596,A,sho,I,o,141,2,866.0,513427.40000000596,8085,WL,C,2.0
4,2.931999921798706,learn,57068.000078201294,Thu May 14 2026 10:02:32 GMT-0500 (Central Daylight Time),514443.59999999404,A,shor,I,r,136,2,1016.1999999880791,513427.40000000596,8085,WL,C,2.0
4,3.0320000648498535,learn,56967.99993515015,Thu May 14 2026 10:02:32 GMT-0500 (Central Daylight Time),514543.59999999404,A,shore,I,e,81,2,1116.199999988079,513427.40000000596,8085,WL,C,2.0
4,3.4160001277923584,learn,56583.99987220764,Thu May 14 2026 10:02:32 GMT-0500 (Central Daylight Time),514926.6999999881,A,shoreenter,I,enter,373,2,1499.2999999821186,513427.40000000596,8085,WL,C,2.0
4,4.299999952316284,learn,55700.000047683716,Thu May 14 2026 10:02:32 GMT-0500 (Central Daylight Time),515810.8000000119,A,w,I,w,871,2,883.7000000178814,514927.09999999404,8085,WL,C,3.0
4,4.398000001907349,learn,55601.99999809265,Thu May 14 2026 10:02:32 GMT-0500 (Central Daylight Time),515909.59999999404,A,wh,I,h,82,2,982.5,514927.09999999404,8085,WL,C,3.0
4,4.54800009727478,learn,55451.99990272522,Thu May 14 2026 10:02:32 GMT-0500 (Central Daylight Time),516059.5,A,wha,I,a,143,2,1132.4000000059605,514927.09999999404,8085,WL,C,3.0
4,5.04800009727478,learn,54951.99990272522,Thu May 14 2026 10:02:32 GMT-0500 (Central Daylight Time),516559.40000000596,A,wh,I,backspace,489,2,1632.300000011921,514927.09999999404,8085,WL,C,3.0
4,5.180999994277954,learn,54819.000005722046,Thu May 14 2026 10:02:32 GMT-0500 (Central Daylight Time),516692.6999999881,A,whe,I,e,125,2,1765.5999999940395,514927.09999999404,8085,WL,C,3.0
4,5.3480000495910645,learn,54651.999950408936,Thu May 14 2026 10:02:32 GMT-0500 (Central Daylight Time),516859.1999999881,A,whea,I,a,161,2,1932.0999999940395,514927.09999999404,8085,WL,C,3.0
4,5.480999946594238,learn,54519.00005340576,Thu May 14 2026 10:02:32 GMT-0500 (Central Daylight Time),516992.40000000596,A,wheat,I,t,113,2,2065.300000011921,514927.09999999404,8085,WL,C,3.0
4,5.79800009727478,learn,54201.99990272522,Thu May 14 2026 10:02:32 GMT-0500 (Central Daylight Time),517309.1999999881,A,wheatenter,I,enter,301,2,2382.0999999940395,514927.09999999404,8085,WL,C,3.0
4,6.13100004196167,learn,53868.99995803833,Thu May 14 2026 10:02:32 GMT-0500 (Central Daylight Time),517642.5,A,c,I,c,319,2,332.90000000596046,517309.59999999404,8085,WL,C,4.0
4,6.2809998989105225,learn,53719.00010108948,Thu May 14 2026 10:02:32 GMT-0500 (Central Daylight Time),517792.3000000119,A,co,I,o,130,2,482.7000000178814,517309.59999999404,8085,WL,C,4.0
4,6.480999946594238,learn,53519.00005340576,Thu May 14 2026 10:02:32 GMT-0500 (Central Daylight Time),517992.09999999404,A,cor,I,r,189,2,682.5,517309.59999999404,8085,WL,C,4.0
4,6.664000034332275,learn,53335.999965667725,Thu May 14 2026 10:02:32 GMT-0500 (Central Daylight Time),518175.59999999404,A,corn,I,n,174,2,866.0,517309.59999999404,8085,WL,C,4.0
4,6.930999994277954,learn,53069.000005722046,Thu May 14 2026 10:02:32 GMT-0500 (Central Daylight Time),518442.09999999404,A,cornenter,I,enter,245,2,1132.5,517309.59999999404,8085,WL,C,4.0
4,7.2809998989105225,learn,52719.00010108948,Thu May 14 2026 10:02:32 GMT-0500 (Central Daylight Time),518792.0,A,t,I,t,339,2,349.59999999403954,518442.40000000596,8085,WL,C,5.0
4,7.38100004196167,learn,52618.99995803833,Thu May 14 2026 10:02:32 GMT-0500 (Central Daylight Time),518892.09999999404,A,to,I,o,86,2,449.69999998807907,518442.40000000596,8085,WL,C,5.0
4,7.546999931335449,learn,52453.00006866455,Thu May 14 2026 10:02:32 GMT-0500 (Central Daylight Time),519058.5,A,tow,I,w,161,2,616.0999999940395,518442.40000000596,8085,WL,C,5.0
4,7.63100004196167,learn,52368.99995803833,Thu May 14 2026 10:02:32 GMT-0500 (Central Daylight Time),519141.8000000119,A,towe,I,e,74,2,699.4000000059605,518442.40000000596,8085,WL,C,5.0
4,7.763999938964844,learn,52236.000061035156,Thu May 14 2026 10:02:32 GMT-0500 (Central Daylight Time),519275.3000000119,A,tower,I,r,119,2,832.9000000059605,518442.40000000596,8085,WL,C,5.0
4,8.04699993133545,learn,51953.00006866455,Thu May 14 2026 10:02:32 GMT-0500 (Central Daylight Time),519558.3000000119,A,towerenter,I,enter,274,2,1115.9000000059605,518442.40000000596,8085,WL,C,5.0
4,8.563999891281128,learn,51436.00010871887,Thu May 14 2026 10:02:32 GMT-0500 (Central Daylight Time),520074.90000000596,A,q,I,q,510,2,516.2000000178814,519558.6999999881,8085,WL,C,6.0
4,8.763000011444092,learn,51236.99998855591,Thu May 14 2026 10:02:32 GMT-0500 (Central Daylight Time),520274.59999999404,A,qu,I,u,194,2,715.9000000059605,519558.6999999881,8085,WL,C,6.0
4,8.880000114440918,learn,51119.99988555908,Thu May 14 2026 10:02:32 GMT-0500 (Central Daylight Time),520391.59999999404,A,que,I,e,98,2,832.9000000059605,519558.6999999881,8085,WL,C,6.0
4,9.079999923706055,learn,50920.000076293945,Thu May 14 2026 10:02:32 GMT-0500 (Central Daylight Time),520591.40000000596,A,quee,I,e,182,2,1032.7000000178814,519558.6999999881,8085,WL,C,6.0
4,9.21399998664856,learn,50786.00001335144,Thu May 14 2026 10:02:32 GMT-0500 (Central Daylight Time),520724.8000000119,A,queen,I,n,125,2,1166.1000000238419,519558.6999999881,8085,WL,C,6.0
4,9.597000122070312,learn,50402.99987792969,Thu May 14 2026 10:02:32 GMT-0500 (Central Daylight Time),521108.0,A,queenenter,I,enter,369,2,1549.300000011921,519558.6999999881,8085,WL,C,6.0
4,10.04699993133545,learn,49953.00006866455,Thu May 14 2026 10:02:32 GMT-0500 (Central Daylight Time),521557.6999999881,A,b,I,b,434,2,449.2999999821186,521108.40000000596,8085,WL,C,7.0
4,10.180000066757202,learn,49819.9999332428,Thu May 14 2026 10:02:32 GMT-0500 (Central Daylight Time),521691.0,A,bo,I,o,120,2,582.5999999940395,521108.40000000596,8085,WL,C,7.0
4,10.380000114440918,learn,49619.99988555908,Thu May 14 2026 10:02:32 GMT-0500 (Central Daylight Time),521890.8000000119,A,boy,I,y,195,2,782.4000000059605,521108.40000000596,8085,WL,C,7.0
4,10.713000059127808,learn,49286.99994087219,Thu May 14 2026 10:02:32 GMT-0500 (Central Daylight Time),522224.09999999404,A,boyenter,I,enter,323,2,1115.699999988079,521108.40000000596,8085,WL,C,7.0
4,11.246000051498413,learn,48753.99994850159,Thu May 14 2026 10:02:32 GMT-0500 (Central Daylight Time),522757.5,A,d,I,d,524,2,533.0999999940395,522224.40000000596,8085,WL,C,8.0
4,11.364000082015991,learn,48635.99991798401,Thu May 14 2026 10:02:32 GMT-0500 (Central Daylight Time),522874.8000000119,A,do,I,o,96,2,650.4000000059605,522224.40000000596,8085,WL,C,8.0
4,11.52999997138977,learn,48470.00002861023,Thu May 14 2026 10:02:32 GMT-0500 (Central Daylight Time),523040.8000000119,A,doc,I,c,146,2,816.4000000059605,522224.40000000596,8085,WL,C,8.0
4,11.845999956130981,learn,48154.00004386902,Thu May 14 2026 10:02:32 GMT-0500 (Central Daylight Time),523357.40000000596,A,doct,I,t,308,2,1133.0,522224.40000000596,8085,WL,C,8.0
4,12.11299991607666,learn,47887.00008392334,Thu May 14 2026 10:02:32 GMT-0500 (Central Daylight Time),523623.8000000119,A,docto,I,o,247,2,1399.4000000059605,522224.40000000596,8085,WL,C,8.0
4,12.598999977111816,learn,47401.00002288818,Thu May 14 2026 10:02:32 GMT-0500 (Central Daylight Time),524109.90000000596,A,doctoenter,I,enter,477,2,1885.5,522224.40000000596,8085,WL,C,8.0
4,15.278000116348267,learn,44721.99988365173,Thu May 14 2026 10:02:32 GMT-0500 (Central Daylight Time),526789.5,A,h,I,h,2671,2,2679.4000000059605,524110.09999999404,8085,WL,C,9.0
4,15.42799997329712,learn,44572.00002670288,Thu May 14 2026 10:02:32 GMT-0500 (Central Daylight Time),526939.5,A,ho,I,o,136,2,2829.4000000059605,524110.09999999404,8085,WL,C,9.0
4,15.644999980926514,learn,44355.000019073486,Thu May 14 2026 10:02:32 GMT-0500 (Central Daylight Time),527156.3000000119,A,hom,I,m,202,2,3046.2000000178814,524110.09999999404,8085,WL,C,9.0
4,15.795000076293945,learn,44204.999923706055,Thu May 14 2026 10:02:32 GMT-0500 (Central Daylight Time),527305.8000000119,A,home,I,e,145,2,3195.7000000178814,524110.09999999404,8085,WL,C,9.0
4,16.92799997329712,learn,43072.00002670288,Thu May 14 2026 10:02:32 GMT-0500 (Central Daylight Time),528438.900000006,A,homeenter,I,enter,1124,2,4328.800000011921,524110.09999999404,8085,WL,C,9.0
4,18.14400005340576,learn,41855.99994659424,Thu May 14 2026 10:02:32 GMT-0500 (Central Daylight Time),529655.3000000119,A,c,I,c,1207,2,1216.0,528439.3000000119,8085,WL,C,10.0
4,18.278000116348267,learn,41721.99988365173,Thu May 14 2026 10:02:32 GMT-0500 (Central Daylight Time),529788.8000000119,A,ca,I,a,117,2,1349.5,528439.3000000119,8085,WL,C,10.0
4,18.377000093460083,learn,41622.99990653992,Thu May 14 2026 10:02:32 GMT-0500 (Central Daylight Time),529888.599999994,A,cam,I,m,88,2,1449.2999999821186,528439.3000000119,8085,WL,C,10.0
4,18.561000108718872,learn,41438.99989128113,Thu May 14 2026 10:02:32 GMT-0500 (Central Daylight Time),530071.900000006,A,camp,I,p,173,2,1632.5999999940395,528439.3000000119,8085,WL,C,10.0
4,18.927000045776367,learn,41072.99995422363,Thu May 14 2026 10:02:32 GMT-0500 (Central Daylight Time),530438.6999999881,A,campenter,I,enter,350,2,1999.3999999761581,528439.3000000119,8085,WL,C,10.0
4,19.526999950408936,learn,40473.000049591064,Thu May 14 2026 10:02:32 GMT-0500 (Central Daylight Time),531038.3000000119,A,n,I,n,583,2,599.3000000119209,530439.0,8085,WL,C,11.0
4,19.677000045776367,learn,40322.99995422363,Thu May 14 2026 10:02:32 GMT-0500 (Central Daylight Time),531188.3000000119,A,na,I,a,135,2,749.3000000119209,530439.0,8085,WL,C,11.0
4,19.844000101089478,learn,40155.99989891052,Thu May 14 2026 10:02:32 GMT-0500 (Central Daylight Time),531354.8000000119,A,nai,I,i,153,2,915.8000000119209,530439.0,8085,WL,C,11.0
4,20.07699990272522,learn,39923.00009727478,Thu May 14 2026 10:02:32 GMT-0500 (Central Daylight Time),531588.0,A,nail,I,l,218,2,1149.0,530439.0,8085,WL,C,11.0
4,20.427000045776367,learn,39572.99995422363,Thu May 14 2026 10:02:32 GMT-0500 (Central Daylight Time),531938.0,A,nailenter,I,enter,338,2,1499.0,530439.0,8085,WL,C,11.0
4,20.710000038146973,learn,39289.99996185303,Thu May 14 2026 10:02:32 GMT-0500 (Central Daylight Time),532221.099999994,A,s,I,s,275,2,282.7999999821186,531938.3000000119,8085,WL,C,12.0
4,20.844000101089478,learn,39155.99989891052,Thu May 14 2026 10:02:32 GMT-0500 (Central Daylight Time),532355.6999999881,A,su,I,u,119,2,417.39999997615814,531938.3000000119,8085,WL,C,12.0
4,21.07699990272522,learn,38923.00009727478,Thu May 14 2026 10:02:32 GMT-0500 (Central Daylight Time),532587.8000000119,A,sug,I,g,226,2,649.5,531938.3000000119,8085,WL,C,12.0
4,21.243000030517578,learn,38756.99996948242,Thu May 14 2026 10:02:32 GMT-0500 (Central Daylight Time),532754.3000000119,A,suga,I,a,153,2,816.0,531938.3000000119,8085,WL,C,12.0
4,21.39300012588501,learn,38606.99987411499,Thu May 14 2026 10:02:32 GMT-0500 (Central Daylight Time),532904.400000006,A,sugar,I,r,138,2,966.0999999940395,531938.3000000119,8085,WL,C,12.0
4,21.792999982833862,learn,38207.00001716614,Thu May 14 2026 10:02:32 GMT-0500 (Central Daylight Time),533304.0,A,sugarenter,I,enter,389,2,1365.699999988079,531938.3000000119,8085,WL,C,12.0
4,22.592999935150146,learn,37407.00006484985,Thu May 14 2026 10:02:32 GMT-0500 (Central Daylight Time),534103.8000000119,A,f,I,f,789,2,799.5,533304.3000000119,8085,WL,C,13.0
4,22.776000022888184,learn,37223.99997711182,Thu May 14 2026 10:02:32 GMT-0500 (Central Daylight Time),534287.099999994,A,fl,I,l,173,2,982.7999999821186,533304.3000000119,8085,WL,C,13.0
4,22.993000030517578,learn,37006.99996948242,Thu May 14 2026 10:02:32 GMT-0500 (Central Daylight Time),534503.900000006,A,fla,I,a,198,2,1199.5999999940395,533304.3000000119,8085,WL,C,13.0
4,23.408999919891357,learn,36591.00008010864,Thu May 14 2026 10:02:32 GMT-0500 (Central Daylight Time),534920.1999999881,A,flag,I,g,397,2,1615.8999999761581,533304.3000000119,8085,WL,C,13.0
4,23.7260000705719,learn,36273.9999294281,Thu May 14 2026 10:02:32 GMT-0500 (Central Daylight Time),535236.8000000119,A,flagenter,I,enter,300,2,1932.5,533304.3000000119,8085,WL,C,13.0
4,24.158999919891357,learn,35841.00008010864,Thu May 14 2026 10:02:32 GMT-0500 (Central Daylight Time),535669.900000006,A,l,I,l,424,2,432.7000000178814,535237.1999999881,8085,WL,C,14.0
4,24.30900001525879,learn,35690.99998474121,Thu May 14 2026 10:02:32 GMT-0500 (Central Daylight Time),535820.1999999881,A,le,I,e,136,2,583.0,535237.1999999881,8085,WL,C,14.0
4,24.45900011062622,learn,35540.99988937378,Thu May 14 2026 10:02:32 GMT-0500 (Central Daylight Time),535969.8000000119,A,let,I,t,144,2,732.6000000238419,535237.1999999881,8085,WL,C,14.0
4,24.691999912261963,learn,35308.00008773804,Thu May 14 2026 10:02:32 GMT-0500 (Central Daylight Time),536203.0,A,lett,I,t,228,2,965.8000000119209,535237.1999999881,8085,WL,C,14.0
4,24.941999912261963,learn,35058.00008773804,Thu May 14 2026 10:02:32 GMT-0500 (Central Daylight Time),536454.1999999881,A,lette,I,e,234,2,1217.0,535237.1999999881,8085,WL,C,14.0
4,25.056999921798706,learn,34943.000078201294,Thu May 14 2026 10:02:32 GMT-0500 (Central Daylight Time),536569.5,A,letter,I,r,110,2,1332.300000011921,535237.1999999881,8085,WL,C,14.0
4,25.324000120162964,learn,34675.999879837036,Thu May 14 2026 10:02:32 GMT-0500 (Central Daylight Time),536836.599999994,A,letterenter,I,enter,252,2,1599.4000000059605,535237.1999999881,8085,WL,C,14.0
4,33.28800010681152,learn,26711.999893188477,Thu May 14 2026 10:02:32 GMT-0500 (Central Daylight Time),544800.5,A,b,I,b,7953,2,7963.5,536837.0,8085,WL,C,15.0
4,33.53800010681152,learn,26461.999893188477,Thu May 14 2026 10:02:32 GMT-0500 (Central Daylight Time),545050.6999999881,A,bo,I,o,237,2,8213.699999988079,536837.0,8085,WL,C,15.0
4,33.67199993133545,learn,26328.00006866455,Thu May 14 2026 10:02:32 GMT-0500 (Central Daylight Time),545184.099999994,A,bod,I,d,122,2,8347.09999999404,536837.0,8085,WL,C,15.0
4,33.9210000038147,learn,26078.999996185303,Thu May 14 2026 10:02:32 GMT-0500 (Central Daylight Time),545433.8000000119,A,body,I,y,237,2,8596.800000011921,536837.0,8085,WL,C,15.0
4,34.270999908447266,learn,25729.000091552734,Thu May 14 2026 10:02:32 GMT-0500 (Central Daylight Time),545783.8000000119,A,bodyenter,I,enter,340,2,8946.800000011921,536837.0,8085,WL,C,15.0
5,0.749000072479248,learn,60000.0,Thu May 14 2026 10:02:32 GMT-0500 (Central Daylight Time),611079.900000006,A,c,I,c,731,2,749.3000000119209,610330.599999994,8085,WL,C,1.0
5,1.0160000324249268,learn,60000.0,Thu May 14 2026 10:02:32 GMT-0500 (Central Daylight Time),611346.1999999881,A,ca,I,a,260,2,1015.5999999940395,610330.599999994,8085,WL,C,1.0
5,1.3330001831054688,learn,60000.0,Thu May 14 2026 10:02:32 GMT-0500 (Central Daylight Time),611663.0,A,cat,I,t,299,2,1332.4000000059605,610330.599999994,8085,WL,C,1.0
5,1.565999984741211,learn,60000.0,Thu May 14 2026 10:02:32 GMT-0500 (Central Daylight Time),611896.099999994,A,catt,I,t,214,2,1565.5,610330.599999994,8085,WL,C,1.0
5,1.7160000801086426,learn,60000.0,Thu May 14 2026 10:02:32 GMT-0500 (Central Daylight Time),612046.0,A,cattl,I,l,142,2,1715.4000000059605,610330.599999994,8085,WL,C,1.0
5,1.8660001754760742,learn,60000.0,Thu May 14 2026 10:02:32 GMT-0500 (Central Daylight Time),612196.1999999881,A,cattle,I,e,144,2,1865.5999999940395,610330.599999994,8085,WL,C,1.0
5,2.5490000247955322,learn,60000.0,Thu May 14 2026 10:02:32 GMT-0500 (Central Daylight Time),612879.1999999881,A,cattleenter,I,enter,673,2,2548.5999999940395,610330.599999994,8085,WL,C,1.0
5,3.115000009536743,learn,60000.0,Thu May 14 2026 10:02:32 GMT-0500 (Central Daylight Time),613445.599999994,A,s,I,s,557,2,566.0999999940395,612879.5,8085,WL,C,2.0
5,3.2150001525878906,learn,60000.0,Thu May 14 2026 10:02:32 GMT-0500 (Central Daylight Time),613545.6999999881,A,sh,I,h,94,2,666.1999999880791,612879.5,8085,WL,C,2.0
5,3.382000207901001,learn,60000.0,Thu May 14 2026 10:02:32 GMT-0500 (Central Daylight Time),613712.3000000119,A,sho,I,o,147,2,832.8000000119209,612879.5,8085,WL,C,2.0
5,3.499000072479248,learn,60000.0,Thu May 14 2026 10:02:32 GMT-0500 (Central Daylight Time),613829.099999994,A,shor,I,r,100,2,949.5999999940395,612879.5,8085,WL,C,2.0
5,3.5480000972747803,learn,60000.0,Thu May 14 2026 10:02:32 GMT-0500 (Central Daylight Time),613878.900000006,A,shore,I,e,32,2,999.4000000059605,612879.5,8085,WL,C,2.0
5,3.9150002002716064,learn,60000.0,Thu May 14 2026 10:02:32 GMT-0500 (Central Daylight Time),614245.5,A,shoreenter,I,enter,350,2,1366.0,612879.5,8085,WL,C,2.0
5,4.63100004196167,learn,60000.0,Thu May 14 2026 10:02:32 GMT-0500 (Central Daylight Time),614961.900000006,A,b,I,b,696,2,715.9000000059605,614246.0,8085,WL,C,3.0
5,4.731000185012817,learn,60000.0,Thu May 14 2026 10:02:32 GMT-0500 (Central Daylight Time),615061.8000000119,A,bo,I,o,92,2,815.8000000119209,614246.0,8085,WL,C,3.0
5,4.998000144958496,learn,60000.0,Thu May 14 2026 10:02:32 GMT-0500 (Central Daylight Time),615328.8000000119,A,bod,I,d,256,2,1082.800000011921,614246.0,8085,WL,C,3.0
5,5.231000185012817,learn,60000.0,Thu May 14 2026 10:02:32 GMT-0500 (Central Daylight Time),615561.8000000119,A,body,I,y,220,2,1315.800000011921,614246.0,8085,WL,C,3.0
5,5.614000082015991,learn,60000.0,Thu May 14 2026 10:02:32 GMT-0500 (Central Daylight Time),615944.6999999881,A,bodyenter,I,enter,371,2,1698.699999988079,614246.0,8085,WL,C,3.0
5,7.0970001220703125,learn,60000.0,Thu May 14 2026 10:02:32 GMT-0500 (Central Daylight Time),617427.6999999881,A,w,I,w,1476,2,1482.5999999940395,615945.099999994,8085,WL,C,4.0
5,7.231000185012817,learn,60000.0,Thu May 14 2026 10:02:32 GMT-0500 (Central Daylight Time),617561.099999994,A,wh,I,h,121,2,1616.0,615945.099999994,8085,WL,C,4.0
5,7.5970001220703125,learn,60000.0,Thu May 14 2026 10:02:32 GMT-0500 (Central Daylight Time),617927.5,A,whe,I,e,356,2,1982.4000000059605,615945.099999994,8085,WL,C,4.0
5,7.9090001583099365,learn,60000.0,Thu May 14 2026 10:02:32 GMT-0500 (Central Daylight Time),618239.3000000119,A,whea,I,a,160,2,2294.2000000178814,615945.099999994,8085,WL,C,4.0
5,7.9150002002716064,learn,60000.0,Thu May 14 2026 10:02:32 GMT-0500 (Central Daylight Time),618245.900000006,A,wheat,I,t,1,2,2300.800000011921,615945.099999994,8085,WL,C,4.0
5,8.246999979019165,learn,60000.0,Thu May 14 2026 10:02:32 GMT-0500 (Central Daylight Time),618577.599999994,A,wheatenter,I,enter,324,2,2632.5,615945.099999994,8085,WL,C,4.0
5,8.563000202178955,learn,60000.0,Thu May 14 2026 10:02:32 GMT-0500 (Central Daylight Time),618893.900000006,A,c,I,c,300,2,316.0,618577.900000006,8085,WL,C,5.0
5,8.69700002670288,learn,60000.0,Thu May 14 2026 10:02:32 GMT-0500 (Central Daylight Time),619027.3000000119,A,co,I,o,128,2,449.40000000596046,618577.900000006,8085,WL,C,5.0
5,8.880000114440918,learn,60000.0,Thu May 14 2026 10:02:32 GMT-0500 (Central Daylight Time),619210.5,A,cor,I,r,170,2,632.5999999940395,618577.900000006,8085,WL,C,5.0
5,9.047000169754028,learn,60000.0,Thu May 14 2026 10:02:32 GMT-0500 (Central Daylight Time),619377.3000000119,A,corn,I,n,146,2,799.4000000059605,618577.900000006,8085,WL,C,5.0
5,9.446000099182129,learn,60000.0,Thu May 14 2026 10:02:32 GMT-0500 (Central Daylight Time),619776.599999994,A,cornenter,I,enter,379,2,1198.699999988079,618577.900000006,8085,WL,C,5.0
5,9.779000043869019,learn,60000.0,Thu May 14 2026 10:02:32 GMT-0500 (Central Daylight Time),620109.8000000119,A,t,I,t,316,2,332.90000000596046,619776.900000006,8085,WL,C,6.0
5,9.930000066757202,learn,60000.0,Thu May 14 2026 10:02:32 GMT-0500 (Central Daylight Time),620260.0,A,to,I,o,144,2,483.09999999403954,619776.900000006,8085,WL,C,6.0
5,10.09600019454956,learn,60000.0,Thu May 14 2026 10:02:32 GMT-0500 (Central Daylight Time),620426.8000000119,A,tow,I,w,153,2,649.9000000059605,619776.900000006,8085,WL,C,6.0
5,10.213000059127808,learn,60000.0,Thu May 14 2026 10:02:32 GMT-0500 (Central Daylight Time),620543.900000006,A,towe,I,e,98,2,767.0,619776.900000006,8085,WL,C,6.0
5,10.34600019454956,learn,60000.0,Thu May 14 2026 10:02:32 GMT-0500 (Central Daylight Time),620676.8000000119,A,tower,I,r,117,2,899.9000000059605,619776.900000006,8085,WL,C,6.0
5,10.746000051498413,learn,60000.0,Thu May 14 2026 10:02:32 GMT-0500 (Central Daylight Time),621076.599999994,A,towerenter,I,enter,392,2,1299.699999988079,619776.900000006,8085,WL,C,6.0
5,11.146000146865845,learn,60000.0,Thu May 14 2026 10:02:32 GMT-0500 (Central Daylight Time),621476.400000006,A,q,I,q,391,2,399.5,621076.900000006,8085,WL,C,7.0
5,11.328999996185303,learn,60000.0,Thu May 14 2026 10:02:32 GMT-0500 (Central Daylight Time),621659.900000006,A,qu,I,u,168,2,583.0,621076.900000006,8085,WL,C,7.0
5,11.44700002670288,learn,60000.0,Thu May 14 2026 10:02:32 GMT-0500 (Central Daylight Time),621776.900000006,A,que,I,e,106,2,700.0,621076.900000006,8085,WL,C,7.0
5,11.662000179290771,learn,60000.0,Thu May 14 2026 10:02:32 GMT-0500 (Central Daylight Time),621992.900000006,A,quee,I,e,196,2,916.0,621076.900000006,8085,WL,C,7.0
5,11.746000051498413,learn,60000.0,Thu May 14 2026 10:02:32 GMT-0500 (Central Daylight Time),622076.5,A,queen,I,n,77,2,999.5999999940395,621076.900000006,8085,WL,C,7.0
5,12.063000202178955,learn,60000.0,Thu May 14 2026 10:02:32 GMT-0500 (Central Daylight Time),622393.099999994,A,queenenter,I,enter,296,2,1316.199999988079,621076.900000006,8085,WL,C,7.0
5,12.495000123977661,learn,60000.0,Thu May 14 2026 10:02:32 GMT-0500 (Central Daylight Time),622825.8000000119,A,b,I,b,421,2,432.40000000596046,622393.400000006,8085,WL,C,8.0
5,12.611999988555908,learn,60000.0,Thu May 14 2026 10:02:32 GMT-0500 (Central Daylight Time),622942.6999999881,A,bo,I,o,100,2,549.2999999821186,622393.400000006,8085,WL,C,8.0
5,12.828999996185303,learn,60000.0,Thu May 14 2026 10:02:32 GMT-0500 (Central Daylight Time),623159.1999999881,A,boy,I,y,198,2,765.7999999821186,622393.400000006,8085,WL,C,8.0
5,13.17900013923645,learn,60000.0,Thu May 14 2026 10:02:32 GMT-0500 (Central Daylight Time),623509.8000000119,A,boyenter,I,enter,342,2,1116.4000000059605,622393.400000006,8085,WL,C,8.0
5,13.662000179290771,learn,60000.0,Thu May 14 2026 10:02:32 GMT-0500 (Central Daylight Time),623992.5,A,d,I,d,471,2,482.5,623510.0,8085,WL,C,9.0
5,13.896000146865845,learn,60000.0,Thu May 14 2026 10:02:32 GMT-0500 (Central Daylight Time),624226.0,A,do,I,o,213,2,716.0,623510.0,8085,WL,C,9.0
5,14.111999988555908,learn,60000.0,Thu May 14 2026 10:02:32 GMT-0500 (Central Daylight Time),624442.099999994,A,doc,I,c,212,2,932.0999999940395,623510.0,8085,WL,C,9.0
5,14.479000091552734,learn,60000.0,Thu May 14 2026 10:02:32 GMT-0500 (Central Daylight Time),624808.900000006,A,doct,I,t,356,2,1298.9000000059605,623510.0,8085,WL,C,9.0
5,14.611999988555908,learn,60000.0,Thu May 14 2026 10:02:32 GMT-0500 (Central Daylight Time),624942.099999994,A,docto,I,o,116,2,1432.0999999940395,623510.0,8085,WL,C,9.0
5,14.811000108718872,learn,60000.0,Thu May 14 2026 10:02:32 GMT-0500 (Central Daylight Time),625141.8000000119,A,doctor,I,r,191,2,1631.800000011921,623510.0,8085,WL,C,9.0
5,15.495000123977661,learn,60000.0,Thu May 14 2026 10:02:32 GMT-0500 (Central Daylight Time),625825.3000000119,A,doctorenter,I,enter,663,2,2315.300000011921,623510.0,8085,WL,C,9.0
5,16.64400005340576,learn,60000.0,Thu May 14 2026 10:02:32 GMT-0500 (Central Daylight Time),626974.6999999881,A,c,I,c,1139,2,1149.0999999940395,625825.599999994,8085,WL,C,10.0
5,16.778000116348267,learn,60000.0,Thu May 14 2026 10:02:32 GMT-0500 (Central Daylight Time),627108.1999999881,A,ca,I,a,127,2,1282.5999999940395,625825.599999994,8085,WL,C,10.0
5,16.91100001335144,learn,60000.0,Thu May 14 2026 10:02:32 GMT-0500 (Central Daylight Time),627241.1999999881,A,cam,I,m,112,2,1415.5999999940395,625825.599999994,8085,WL,C,10.0
5,17.028000116348267,learn,60000.0,Thu May 14 2026 10:02:32 GMT-0500 (Central Daylight Time),627358.0,A,camp,I,p,108,2,1532.4000000059605,625825.599999994,8085,WL,C,10.0
5,17.41100001335144,learn,60000.0,Thu May 14 2026 10:02:32 GMT-0500 (Central Daylight Time),627741.099999994,A,campenter,I,enter,375,2,1915.5,625825.599999994,8085,WL,C,10.0
5,18.211000204086304,learn,60000.0,Thu May 14 2026 10:02:32 GMT-0500 (Central Daylight Time),628541.0,A,h,I,h,785,2,799.6999999880791,627741.3000000119,8085,WL,C,11.0
5,18.3270001411438,learn,60000.0,Thu May 14 2026 10:02:32 GMT-0500 (Central Daylight Time),628657.599999994,A,ho,I,o,103,2,916.2999999821186,627741.3000000119,8085,WL,C,11.0
5,18.49400019645691,learn,60000.0,Thu May 14 2026 10:02:32 GMT-0500 (Central Daylight Time),628824.3000000119,A,hom,I,m,155,2,1083.0,627741.3000000119,8085,WL,C,11.0
5,18.64400005340576,learn,60000.0,Thu May 14 2026 10:02:32 GMT-0500 (Central Daylight Time),628974.3000000119,A,home,I,e,133,2,1233.0,627741.3000000119,8085,WL,C,11.0
5,21.14300012588501,learn,60000.0,Thu May 14 2026 10:02:32 GMT-0500 (Central Daylight Time),631473.1999999881,A,homeenter,I,enter,2487,2,3731.899999976158,627741.3000000119,8085,WL,C,11.0
5,21.493000030517578,learn,60000.0,Thu May 14 2026 10:02:32 GMT-0500 (Central Daylight Time),631823.400000006,A,f,I,f,340,2,349.80000001192093,631473.599999994,8085,WL,C,12.0
5,21.62600016593933,learn,60000.0,Thu May 14 2026 10:02:32 GMT-0500 (Central Daylight Time),631956.400000006,A,fl,I,l,126,2,482.80000001192093,631473.599999994,8085,WL,C,12.0
5,21.826000213623047,learn,60000.0,Thu May 14 2026 10:02:32 GMT-0500 (Central Daylight Time),632156.599999994,A,fla,I,a,184,2,683.0,631473.599999994,8085,WL,C,12.0
5,21.993000030517578,learn,60000.0,Thu May 14 2026 10:02:32 GMT-0500 (Central Daylight Time),632323.1999999881,A,flag,I,g,160,2,849.5999999940395,631473.599999994,8085,WL,C,12.0
5,22.45900011062622,learn,60000.0,Thu May 14 2026 10:02:32 GMT-0500 (Central Daylight Time),632789.6999999881,A,flagenter,I,enter,450,2,1316.0999999940395,631473.599999994,8085,WL,C,12.0
5,22.743000030517578,learn,60000.0,Thu May 14 2026 10:02:32 GMT-0500 (Central Daylight Time),633073.0,A,l,I,l,271,2,283.0,632790.0,8085,WL,C,13.0
5,22.826000213623047,learn,60000.0,Thu May 14 2026 10:02:32 GMT-0500 (Central Daylight Time),633156.400000006,A,le,I,e,75,2,366.40000000596046,632790.0,8085,WL,C,13.0
5,22.9760000705719,learn,60000.0,Thu May 14 2026 10:02:32 GMT-0500 (Central Daylight Time),633306.400000006,A,let,I,t,136,2,516.4000000059605,632790.0,8085,WL,C,13.0
5,23.176000118255615,learn,60000.0,Thu May 14 2026 10:02:32 GMT-0500 (Central Daylight Time),633506.3000000119,A,lett,I,t,187,2,716.3000000119209,632790.0,8085,WL,C,13.0
5,23.375,learn,60000.0,Thu May 14 2026 10:02:32 GMT-0500 (Central Daylight Time),633705.8000000119,A,lette,I,e,194,2,915.8000000119209,632790.0,8085,WL,C,13.0
5,23.4760000705719,learn,60000.0,Thu May 14 2026 10:02:32 GMT-0500 (Central Daylight Time),633806.099999994,A,letter,I,r,83,2,1016.0999999940395,632790.0,8085,WL,C,13.0
5,23.80900001525879,learn,60000.0,Thu May 14 2026 10:02:32 GMT-0500 (Central Daylight Time),634139.3000000119,A,letterenter,I,enter,318,2,1349.300000011921,632790.0,8085,WL,C,13.0
5,24.592000007629395,learn,60000.0,Thu May 14 2026 10:02:32 GMT-0500 (Central Daylight Time),634922.1999999881,A,s,I,s,777,2,782.5999999940395,634139.599999994,8085,WL,C,14.0
5,24.759000062942505,learn,60000.0,Thu May 14 2026 10:02:32 GMT-0500 (Central Daylight Time),635089.0,A,su,I,u,147,2,949.4000000059605,634139.599999994,8085,WL,C,14.0
5,24.842000007629395,learn,60000.0,Thu May 14 2026 10:02:32 GMT-0500 (Central Daylight Time),635172.3000000119,A,sug,I,g,76,2,1032.7000000178814,634139.599999994,8085,WL,C,14.0
5,25.125,learn,60000.0,Thu May 14 2026 10:02:32 GMT-0500 (Central Daylight Time),635455.6999999881,A,suga,I,a,273,2,1316.0999999940395,634139.599999994,8085,WL,C,14.0
5,25.359000205993652,learn,60000.0,Thu May 14 2026 10:02:32 GMT-0500 (Central Daylight Time),635688.900000006,A,sugar,I,r,222,2,1549.300000011921,634139.599999994,8085,WL,C,14.0
5,26.442000150680542,learn,60000.0,Thu May 14 2026 10:02:32 GMT-0500 (Central Daylight Time),636772.0,A,sugarenter,I,enter,1069,2,2632.4000000059605,634139.599999994,8085,WL,C,14.0
5,27.04100012779236,learn,60000.0,Thu May 14 2026 10:02:32 GMT-0500 (Central Daylight Time),637371.5,A,n,I,n,593,2,599.1999999880791,636772.3000000119,8085,WL,C,15.0
5,27.29100012779236,learn,60000.0,Thu May 14 2026 10:02:32 GMT-0500 (Central Daylight Time),637621.5,A,na,I,a,234,2,849.1999999880791,636772.3000000119,8085,WL,C,15.0
5,27.474000215530396,learn,60000.0,Thu May 14 2026 10:02:32 GMT-0500 (Central Daylight Time),637804.6999999881,A,nai,I,i,175,2,1032.3999999761581,636772.3000000119,8085,WL,C,15.0
5,27.69099998474121,learn,60000.0,Thu May 14 2026 10:02:32 GMT-0500 (Central Daylight Time),638021.3000000119,A,nail,I,l,208,2,1249.0,636772.3000000119,8085,WL,C,15.0
5,28.092000007629395,learn,60000.0,Thu May 14 2026 10:02:32 GMT-0500 (Central Daylight Time),638422.1999999881,A,nailenter,I,enter,392,2,1649.8999999761581,636772.3000000119,8085,WL,C,15.0
6,0.7660000324249268,distr,59233.99996757507,Thu May 14 2026 10:02:32 GMT-0500 (Central Daylight Time),704833.8000000119,B,d,I,d,762,2,766.5,704067.3000000119,8085,WL,C,1.0
6,1.1159999370574951,distr,58884.000062942505,Thu May 14 2026 10:02:32 GMT-0500 (Central Daylight Time),705183.5,B,do,I,o,330,2,1116.199999988079,704067.3000000119,8085,WL,C,1.0
6,1.4160001277923584,distr,58583.99987220764,Thu May 14 2026 10:02:32 GMT-0500 (Central Daylight Time),705483.900000006,B,dol,I,l,286,2,1416.5999999940395,704067.3000000119,8085,WL,C,1.0
6,1.6159999370574951,distr,58384.000062942505,Thu May 14 2026 10:02:32 GMT-0500 (Central Daylight Time),705683.599999994,B,doll,I,l,192,2,1616.2999999821186,704067.3000000119,8085,WL,C,1.0
6,1.7160000801086426,distr,58283.99991989136,Thu May 14 2026 10:02:32 GMT-0500 (Central Daylight Time),705783.6999999881,B,dolla,I,a,89,2,1716.3999999761581,704067.3000000119,8085,WL,C,1.0
6,1.9160001277923584,distr,58083.99987220764,Thu May 14 2026 10:02:32 GMT-0500 (Central Daylight Time),705983.400000006,B,dollar,I,r,190,2,1916.0999999940395,704067.3000000119,8085,WL,C,1.0
6,2.3489999771118164,distr,57651.00002288818,Thu May 14 2026 10:02:32 GMT-0500 (Central Daylight Time),706416.6999999881,B,dollarenter,I,enter,413,2,2349.399999976158,704067.3000000119,8085,WL,C,1.0
6,2.6489999294281006,distr,57351.0000705719,Thu May 14 2026 10:02:32 GMT-0500 (Central Daylight Time),706716.599999994,B,m,I,m,285,2,299.5,706417.099999994,8085,WL,C,2.0
6,2.8489999771118164,distr,57151.00002288818,Thu May 14 2026 10:02:32 GMT-0500 (Central Daylight Time),706916.5,B,mo,I,o,184,2,499.40000000596046,706417.099999994,8085,WL,C,2.0
6,3.0320000648498535,distr,56967.99993515015,Thu May 14 2026 10:02:32 GMT-0500 (Central Daylight Time),707099.5,B,mon,I,n,176,2,682.4000000059605,706417.099999994,8085,WL,C,2.0
6,3.365999937057495,distr,56634.000062942505,Thu May 14 2026 10:02:32 GMT-0500 (Central Daylight Time),707433.1999999881,B,mone,I,e,313,2,1016.0999999940395,706417.099999994,8085,WL,C,2.0
6,3.565999984741211,distr,56434.00001525879,Thu May 14 2026 10:02:32 GMT-0500 (Central Daylight Time),707633.099999994,B,money,I,y,180,2,1216.0,706417.099999994,8085,WL,C,2.0
6,3.881999969482422,distr,56118.00003051758,Thu May 14 2026 10:02:32 GMT-0500 (Central Daylight Time),707949.400000006,B,moneyenter,I,enter,300,2,1532.300000011921,706417.099999994,8085,WL,C,2.0
6,4.449000120162964,distr,55550.999879837036,Thu May 14 2026 10:02:32 GMT-0500 (Central Daylight Time),708515.900000006,B,h,I,h,560,2,566.2000000178814,707949.6999999881,8085,WL,C,3.0
6,4.615000009536743,distr,55384.99999046326,Thu May 14 2026 10:02:32 GMT-0500 (Central Daylight Time),708682.5,B,ho,I,o,145,2,732.8000000119209,707949.6999999881,8085,WL,C,3.0
6,4.732000112533569,distr,55267.99988746643,Thu May 14 2026 10:02:32 GMT-0500 (Central Daylight Time),708799.1999999881,B,hot,I,t,107,2,849.5,707949.6999999881,8085,WL,C,3.0
6,5.0320000648498535,distr,54967.99993515015,Thu May 14 2026 10:02:32 GMT-0500 (Central Daylight Time),709099.099999994,B,hote,I,e,286,2,1149.4000000059605,707949.6999999881,8085,WL,C,3.0
6,5.232000112533569,distr,54767.99988746643,Thu May 14 2026 10:02:32 GMT-0500 (Central Daylight Time),709298.900000006,B,hotel,I,l,186,2,1349.2000000178814,707949.6999999881,8085,WL,C,3.0
6,5.5980000495910645,distr,54401.999950408936,Thu May 14 2026 10:02:32 GMT-0500 (Central Daylight Time),709665.5,B,hotelenter,I,enter,355,2,1715.800000011921,707949.6999999881,8085,WL,C,3.0
6,6.281000137329102,distr,53718.9998626709,Thu May 14 2026 10:02:32 GMT-0500 (Central Daylight Time),710348.400000006,B,s,I,s,667,2,682.5,709665.900000006,8085,WL,C,4.0
6,6.414999961853027,distr,53585.00003814697,Thu May 14 2026 10:02:32 GMT-0500 (Central Daylight Time),710482.0,B,sk,I,k,120,2,816.0999999940395,709665.900000006,8085,WL,C,4.0
6,6.715000152587891,distr,53284.99984741211,Thu May 14 2026 10:02:32 GMT-0500 (Central Daylight Time),710781.8000000119,B,sky,I,y,291,2,1115.9000000059605,709665.900000006,8085,WL,C,4.0
6,7.148000001907349,distr,52851.99999809265,Thu May 14 2026 10:02:32 GMT-0500 (Central Daylight Time),711215.3000000119,B,skyenter,I,enter,424,2,1549.4000000059605,709665.900000006,8085,WL,C,4.0
6,9.496999979019165,distr,50503.000020980835,Thu May 14 2026 10:02:32 GMT-0500 (Central Daylight Time),713564.3000000119,B,v,I,v,2342,2,2348.7000000178814,711215.599999994,8085,WL,C,5.0
6,9.630000114440918,distr,50369.99988555908,Thu May 14 2026 10:02:32 GMT-0500 (Central Daylight Time),713697.5,B,va,I,a,121,2,2481.9000000059605,711215.599999994,8085,WL,C,5.0
6,9.746999979019165,distr,50253.000020980835,Thu May 14 2026 10:02:32 GMT-0500 (Central Daylight Time),713814.400000006,B,val,I,l,108,2,2598.800000011921,711215.599999994,8085,WL,C,5.0
6,9.930000066757202,distr,50069.9999332428,Thu May 14 2026 10:02:32 GMT-0500 (Central Daylight Time),713997.599999994,B,vall,I,l,175,2,2782.0,711215.599999994,8085,WL,C,5.0
6,10.062999963760376,distr,49937.000036239624,Thu May 14 2026 10:02:32 GMT-0500 (Central Daylight Time),714130.6999999881,B,valle,I,e,127,2,2915.0999999940395,711215.599999994,8085,WL,C,5.0
6,10.312999963760376,distr,49687.000036239624,Thu May 14 2026 10:02:32 GMT-0500 (Central Daylight Time),714380.599999994,B,valley,I,y,242,2,3165.0,711215.599999994,8085,WL,C,5.0
6,10.664000034332275,distr,49335.999965667725,Thu May 14 2026 10:02:32 GMT-0500 (Central Daylight Time),714731.5,B,valleyenter,I,enter,336,2,3515.9000000059605,711215.599999994,8085,WL,C,5.0
6,11.513000011444092,distr,48486.99998855591,Thu May 14 2026 10:02:32 GMT-0500 (Central Daylight Time),715580.5,B,f,I,f,842,2,848.6999999880791,714731.8000000119,8085,WL,C,6.0
6,11.713000059127808,distr,48286.99994087219,Thu May 14 2026 10:02:32 GMT-0500 (Central Daylight Time),715780.400000006,B,fo,I,o,193,2,1048.5999999940395,714731.8000000119,8085,WL,C,6.0
6,11.86300015449524,distr,48136.99984550476,Thu May 14 2026 10:02:32 GMT-0500 (Central Daylight Time),715930.1999999881,B,for,I,r,144,2,1198.3999999761581,714731.8000000119,8085,WL,C,6.0
6,12.013000011444092,distr,47986.99998855591,Thu May 14 2026 10:02:32 GMT-0500 (Central Daylight Time),716080.3000000119,B,fore,I,e,138,2,1348.5,714731.8000000119,8085,WL,C,6.0
6,12.345999956130981,distr,47654.00004386902,Thu May 14 2026 10:02:32 GMT-0500 (Central Daylight Time),716413.599999994,B,fores,I,s,316,2,1681.7999999821186,714731.8000000119,8085,WL,C,6.0
6,12.479000091552734,distr,47520.999908447266,Thu May 14 2026 10:02:32 GMT-0500 (Central Daylight Time),716546.8000000119,B,forest,I,t,119,2,1815.0,714731.8000000119,8085,WL,C,6.0
6,12.828999996185303,distr,47171.0000038147,Thu May 14 2026 10:02:32 GMT-0500 (Central Daylight Time),716896.5,B,forestenter,I,enter,329,2,2164.699999988079,714731.8000000119,8085,WL,C,6.0
6,13.477999925613403,distr,46522.0000743866,Thu May 14 2026 10:02:32 GMT-0500 (Central Daylight Time),717546.1999999881,B,m,I,m,644,2,649.3999999761581,716896.8000000119,8085,WL,C,7.0
6,13.644999980926514,distr,46355.000019073486,Thu May 14 2026 10:02:32 GMT-0500 (Central Daylight Time),717713.099999994,B,mo,I,o,154,2,816.2999999821186,716896.8000000119,8085,WL,C,7.0
6,13.745000123977661,distr,46254.99987602234,Thu May 14 2026 10:02:32 GMT-0500 (Central Daylight Time),717813.099999994,B,mot,I,t,92,2,916.2999999821186,716896.8000000119,8085,WL,C,7.0
6,13.878000020980835,distr,46121.999979019165,Thu May 14 2026 10:02:32 GMT-0500 (Central Daylight Time),717946.099999994,B,moth,I,h,113,2,1049.2999999821186,716896.8000000119,8085,WL,C,7.0
6,14.01200008392334,distr,45987.99991607666,Thu May 14 2026 10:02:32 GMT-0500 (Central Daylight Time),718079.6999999881,B,mothe,I,e,115,2,1182.8999999761581,716896.8000000119,8085,WL,C,7.0
6,14.078999996185303,distr,45921.0000038147,Thu May 14 2026 10:02:32 GMT-0500 (Central Daylight Time),718146.5,B,mother,I,r,53,2,1249.699999988079,716896.8000000119,8085,WL,C,7.0
6,14.32800006866455,distr,45671.99993133545,Thu May 14 2026 10:02:32 GMT-0500 (Central Daylight Time),718396.1999999881,B,motherenter,I,enter,235,2,1499.3999999761581,716896.8000000119,8085,WL,C,7.0
6,16.66100001335144,distr,43338.99998664856,Thu May 14 2026 10:02:32 GMT-0500 (Central Daylight Time),720728.8000000119,B,b,I,b,2321,2,2332.300000011921,718396.5,8085,WL,C,8.0
6,16.84500002861023,distr,43154.99997138977,Thu May 14 2026 10:02:32 GMT-0500 (Central Daylight Time),720913.3000000119,B,bu,I,u,164,2,2516.800000011921,718396.5,8085,WL,C,8.0
6,17.01099991798401,distr,42989.00008201599,Thu May 14 2026 10:02:32 GMT-0500 (Central Daylight Time),721078.6999999881,B,but,I,t,147,2,2682.199999988079,718396.5,8085,WL,C,8.0
6,17.24399995803833,distr,42756.00004196167,Thu May 14 2026 10:02:32 GMT-0500 (Central Daylight Time),721311.900000006,B,butt,I,t,215,2,2915.4000000059605,718396.5,8085,WL,C,8.0
6,17.444000005722046,distr,42555.999994277954,Thu May 14 2026 10:02:32 GMT-0500 (Central Daylight Time),721512.099999994,B,butte,I,e,181,2,3115.5999999940395,718396.5,8085,WL,C,8.0
6,17.509999990463257,distr,42490.00000953674,Thu May 14 2026 10:02:32 GMT-0500 (Central Daylight Time),721578.1999999881,B,butter,I,r,53,2,3181.699999988079,718396.5,8085,WL,C,8.0
6,17.694000005722046,distr,42305.999994277954,Thu May 14 2026 10:02:32 GMT-0500 (Central Daylight Time),721761.900000006,B,butterenter,I,enter,163,2,3365.4000000059605,718396.5,8085,WL,C,8.0
6,19.47699999809265,distr,40523.00000190735,Thu May 14 2026 10:02:32 GMT-0500 (Central Daylight Time),723544.8000000119,B,h,I,h,1772,2,1782.6000000238419,721762.1999999881,8085,WL,C,9.0
6,19.64300012588501,distr,40356.99987411499,Thu May 14 2026 10:02:32 GMT-0500 (Central Daylight Time),723711.3000000119,B,ha,I,a,157,2,1949.1000000238419,721762.1999999881,8085,WL,C,9.0
6,19.776999950408936,distr,40223.000049591064,Thu May 14 2026 10:02:32 GMT-0500 (Central Daylight Time),723844.599999994,B,hal,I,l,126,2,2082.4000000059605,721762.1999999881,8085,WL,C,9.0
6,19.944000005722046,distr,40055.999994277954,Thu May 14 2026 10:02:32 GMT-0500 (Central Daylight Time),724012.099999994,B,hall,I,l,161,2,2249.9000000059605,721762.1999999881,8085,WL,C,9.0
6,20.30999994277954,distr,39690.00005722046,Thu May 14 2026 10:02:32 GMT-0500 (Central Daylight Time),724377.5,B,hallenter,I,enter,353,2,2615.300000011921,721762.1999999881,8085,WL,C,9.0
6,28.756999969482422,distr,31243.000030517578,Thu May 14 2026 10:02:32 GMT-0500 (Central Daylight Time),732825.0,B,enter,I,enter,8427,2,8447.199999988079,724377.8000000119,8085,WL,C,10.0
6,29.207000017166138,distr,30792.999982833862,Thu May 14 2026 10:02:32 GMT-0500 (Central Daylight Time),733274.599999994,B,enter,I,enter,444,2,449.09999999403954,732825.5,8085,WL,C,11.0
6,29.674000024795532,distr,30325.999975204468,Thu May 14 2026 10:02:32 GMT-0500 (Central Daylight Time),733741.400000006,B,enter,I,enter,451,2,466.5,733274.900000006,8085,WL,C,12.0
6,30.19000005722046,distr,29809.99994277954,Thu May 14 2026 10:02:32 GMT-0500 (Central Daylight Time),734258.0,B,enter,I,enter,495,2,516.3000000119209,733741.6999999881,8085,WL,C,13.0
6,30.640000104904175,distr,29359.999895095825,Thu May 14 2026 10:02:32 GMT-0500 (Central Daylight Time),734707.8000000119,B,enter,I,enter,444,2,449.5,734258.3000000119,8085,WL,C,14.0
6,31.240000009536743,distr,28759.999990463257,Thu May 14 2026 10:02:32 GMT-0500 (Central Daylight Time),735307.5,B,enter,I,enter,594,2,599.3000000119209,734708.1999999881,8085,WL,C,15.0
7,0.8159999847412109,immed,59184.00001525879,Thu May 14 2026 10:02:32 GMT-0500 (Central Daylight Time),752002.3000000119,A,c,I,c,804,2,816.2000000178814,751186.099999994,8085,WL,C,1.0
7,1.065999984741211,immed,58934.00001525879,Thu May 14 2026 10:02:32 GMT-0500 (Central Daylight Time),752252.3000000119,A,ca,I,a,235,2,1066.2000000178814,751186.099999994,8085,WL,C,1.0
7,1.3659999370574951,immed,58634.000062942505,Thu May 14 2026 10:02:32 GMT-0500 (Central Daylight Time),752552.099999994,A,cat,I,t,282,2,1366.0,751186.099999994,8085,WL,C,1.0
7,1.5829999446868896,immed,58417.00005531311,Thu May 14 2026 10:02:32 GMT-0500 (Central Daylight Time),752768.900000006,A,catt,I,t,196,2,1582.800000011921,751186.099999994,8085,WL,C,1.0
7,1.7829999923706055,immed,58217.000007629395,Thu May 14 2026 10:02:32 GMT-0500 (Central Daylight Time),752968.8000000119,A,cattl,I,l,180,2,1782.7000000178814,751186.099999994,8085,WL,C,1.0
7,1.9830000400543213,immed,58016.99995994568,Thu May 14 2026 10:02:32 GMT-0500 (Central Daylight Time),753168.599999994,A,cattle,I,e,179,2,1982.5,751186.099999994,8085,WL,C,1.0
7,2.2829999923706055,immed,57717.000007629395,Thu May 14 2026 10:02:32 GMT-0500 (Central Daylight Time),753468.599999994,A,cattleenter,I,enter,292,2,2282.5,751186.099999994,8085,WL,C,1.0
7,2.5989999771118164,immed,57401.00002288818,Thu May 14 2026 10:02:32 GMT-0500 (Central Daylight Time),753785.099999994,A,s,I,s,296,2,316.09999999403954,753469.0,8085,WL,C,2.0
7,3.431999921798706,immed,56568.000078201294,Thu May 14 2026 10:02:32 GMT-0500 (Central Daylight Time),754617.900000006,A,sh,I,h,827,2,1148.9000000059605,753469.0,8085,WL,C,2.0
7,3.6489999294281006,immed,56351.0000705719,Thu May 14 2026 10:02:32 GMT-0500 (Central Daylight Time),754834.6999999881,A,sho,I,o,211,2,1365.699999988079,753469.0,8085,WL,C,2.0
7,3.8489999771118164,immed,56151.00002288818,Thu May 14 2026 10:02:32 GMT-0500 (Central Daylight Time),755034.8000000119,A,shor,I,r,186,2,1565.800000011921,753469.0,8085,WL,C,2.0
7,3.949000120162964,immed,56050.999879837036,Thu May 14 2026 10:02:32 GMT-0500 (Central Daylight Time),755134.5,A,shore,I,e,90,2,1665.5,753469.0,8085,WL,C,2.0
7,5.148000001907349,immed,54851.99999809265,Thu May 14 2026 10:02:32 GMT-0500 (Central Daylight Time),756334.099999994,A,shoreenter,I,enter,1183,2,2865.0999999940395,753469.0,8085,WL,C,2.0
7,5.931999921798706,immed,54068.000078201294,Thu May 14 2026 10:02:32 GMT-0500 (Central Daylight Time),757117.400000006,A,b,I,b,768,2,783.0,756334.400000006,8085,WL,C,3.0
7,6.065000057220459,immed,53934.99994277954,Thu May 14 2026 10:02:32 GMT-0500 (Central Daylight Time),757250.8000000119,A,bo,I,o,119,2,916.4000000059605,756334.400000006,8085,WL,C,3.0
7,6.233000040054321,immed,53766.99995994568,Thu May 14 2026 10:02:32 GMT-0500 (Central Daylight Time),757418.400000006,A,bod,I,d,154,2,1084.0,756334.400000006,8085,WL,C,3.0
7,6.414999961853027,immed,53585.00003814697,Thu May 14 2026 10:02:32 GMT-0500 (Central Daylight Time),757600.599999994,A,body,I,y,162,2,1266.199999988079,756334.400000006,8085,WL,C,3.0
7,6.747999906539917,immed,53252.00009346008,Thu May 14 2026 10:02:32 GMT-0500 (Central Daylight Time),757934.0,A,bodyenter,I,enter,325,2,1599.5999999940395,756334.400000006,8085,WL,C,3.0
7,7.5309998989105225,immed,52469.00010108948,Thu May 14 2026 10:02:32 GMT-0500 (Central Daylight Time),758716.900000006,A,w,I,w,766,2,782.5999999940395,757934.3000000119,8085,WL,C,4.0
7,7.63100004196167,immed,52368.99995803833,Thu May 14 2026 10:02:32 GMT-0500 (Central Daylight Time),758816.8000000119,A,wh,I,h,79,2,882.5,757934.3000000119,8085,WL,C,4.0
7,7.697999954223633,immed,52302.00004577637,Thu May 14 2026 10:02:32 GMT-0500 (Central Daylight Time),758883.5,A,whe,I,e,61,2,949.1999999880791,757934.3000000119,8085,WL,C,4.0
7,7.813999891281128,immed,52186.00010871887,Thu May 14 2026 10:02:32 GMT-0500 (Central Daylight Time),759000.099999994,A,whea,I,a,106,2,1065.7999999821186,757934.3000000119,8085,WL,C,4.0
7,7.980999946594238,immed,52019.00005340576,Thu May 14 2026 10:02:32 GMT-0500 (Central Daylight Time),759166.599999994,A,wheat,I,t,148,2,1232.2999999821186,757934.3000000119,8085,WL,C,4.0
7,8.32699990272522,immed,51673.00009727478,Thu May 14 2026 10:02:32 GMT-0500 (Central Daylight Time),759512.400000006,A,wheatenter,I,enter,341,2,1578.0999999940395,757934.3000000119,8085,WL,C,4.0
7,8.473999977111816,immed,51526.00002288818,Thu May 14 2026 10:02:32 GMT-0500 (Central Daylight Time),759659.8000000119,A,c,I,c,143,2,147.10000002384186,759512.6999999881,8085,WL,C,5.0
7,8.69700002670288,immed,51302.99997329712,Thu May 14 2026 10:02:32 GMT-0500 (Central Daylight Time),759883.400000006,A,co,I,o,210,2,370.7000000178814,759512.6999999881,8085,WL,C,5.0
7,8.94700002670288,immed,51052.99997329712,Thu May 14 2026 10:02:32 GMT-0500 (Central Daylight Time),760133.0,A,cor,I,r,234,2,620.3000000119209,759512.6999999881,8085,WL,C,5.0
7,9.114000082015991,immed,50885.99991798401,Thu May 14 2026 10:02:32 GMT-0500 (Central Daylight Time),760299.400000006,A,corn,I,n,161,2,786.7000000178814,759512.6999999881,8085,WL,C,5.0
7,9.414000034332275,immed,50585.999965667725,Thu May 14 2026 10:02:32 GMT-0500 (Central Daylight Time),760599.599999994,A,cornenter,I,enter,290,2,1086.9000000059605,759512.6999999881,8085,WL,C,5.0
7,10.263000011444092,immed,49736.99998855591,Thu May 14 2026 10:02:32 GMT-0500 (Central Daylight Time),761449.1999999881,A,t,I,t,829,2,849.2999999821186,760599.900000006,8085,WL,C,6.0
7,10.380000114440918,immed,49619.99988555908,Thu May 14 2026 10:02:32 GMT-0500 (Central Daylight Time),761565.900000006,A,to,I,o,99,2,966.0,760599.900000006,8085,WL,C,6.0
7,10.513000011444092,immed,49486.99998855591,Thu May 14 2026 10:02:32 GMT-0500 (Central Daylight Time),761699.1999999881,A,tow,I,w,128,2,1099.2999999821186,760599.900000006,8085,WL,C,6.0
7,10.597000122070312,immed,49402.99987792969,Thu May 14 2026 10:02:32 GMT-0500 (Central Daylight Time),761782.5,A,towe,I,e,75,2,1182.5999999940395,760599.900000006,8085,WL,C,6.0
7,10.713000059127808,immed,49286.99994087219,Thu May 14 2026 10:02:32 GMT-0500 (Central Daylight Time),761899.099999994,A,tower,I,r,111,2,1299.199999988079,760599.900000006,8085,WL,C,6.0
7,11.095999956130981,immed,48904.00004386902,Thu May 14 2026 10:02:32 GMT-0500 (Central Daylight Time),762282.1999999881,A,towerenter,I,enter,363,2,1682.2999999821186,760599.900000006,8085,WL,C,6.0
7,11.963000059127808,immed,48036.99994087219,Thu May 14 2026 10:02:32 GMT-0500 (Central Daylight Time),763148.900000006,A,q,I,q,859,2,866.4000000059605,762282.5,8085,WL,C,7.0
7,12.11299991607666,immed,47887.00008392334,Thu May 14 2026 10:02:32 GMT-0500 (Central Daylight Time),763298.599999994,A,qu,I,u,145,2,1016.0999999940395,762282.5,8085,WL,C,7.0
7,12.27999997138977,immed,47720.00002861023,Thu May 14 2026 10:02:32 GMT-0500 (Central Daylight Time),763466.0,A,que,I,e,163,2,1183.5,762282.5,8085,WL,C,7.0
7,12.479000091552734,immed,47520.999908447266,Thu May 14 2026 10:02:32 GMT-0500 (Central Daylight Time),763665.1999999881,A,quee,I,e,188,2,1382.699999988079,762282.5,8085,WL,C,7.0
7,12.630000114440918,immed,47369.99988555908,Thu May 14 2026 10:02:32 GMT-0500 (Central Daylight Time),763815.599999994,A,queen,I,n,139,2,1533.0999999940395,762282.5,8085,WL,C,7.0
7,13.213000059127808,immed,46786.99994087219,Thu May 14 2026 10:02:32 GMT-0500 (Central Daylight Time),764398.400000006,A,queenenter,I,enter,574,2,2115.9000000059605,762282.5,8085,WL,C,7.0
7,14.111999988555908,immed,45888.00001144409,Thu May 14 2026 10:02:32 GMT-0500 (Central Daylight Time),765298.099999994,A,b,I,b,879,2,899.4000000059605,764398.6999999881,8085,WL,C,8.0
7,14.26200008392334,immed,45737.99991607666,Thu May 14 2026 10:02:32 GMT-0500 (Central Daylight Time),765448.1999999881,A,bo,I,o,130,2,1049.5,764398.6999999881,8085,WL,C,8.0
7,14.479000091552734,immed,45520.999908447266,Thu May 14 2026 10:02:32 GMT-0500 (Central Daylight Time),765664.599999994,A,boy,I,y,205,2,1265.9000000059605,764398.6999999881,8085,WL,C,8.0
7,14.796000003814697,immed,45203.9999961853,Thu May 14 2026 10:02:32 GMT-0500 (Central Daylight Time),765981.400000006,A,boyenter,I,enter,309,2,1582.7000000178814,764398.6999999881,8085,WL,C,8.0
7,16.611999988555908,immed,43388.00001144409,Thu May 14 2026 10:02:32 GMT-0500 (Central Daylight Time),767797.400000006,A,h,I,h,1800,2,1815.7000000178814,765981.6999999881,8085,WL,C,9.0
7,16.778000116348267,immed,43221.99988365173,Thu May 14 2026 10:02:32 GMT-0500 (Central Daylight Time),767964.1999999881,A,ho,I,o,160,2,1982.5,765981.6999999881,8085,WL,C,9.0
7,16.99500012397766,immed,43004.99987602234,Thu May 14 2026 10:02:32 GMT-0500 (Central Daylight Time),768180.6999999881,A,hom,I,m,210,2,2199.0,765981.6999999881,8085,WL,C,9.0
7,17.128000020980835,immed,42871.999979019165,Thu May 14 2026 10:02:32 GMT-0500 (Central Daylight Time),768313.8000000119,A,home,I,e,121,2,2332.100000023842,765981.6999999881,8085,WL,C,9.0
7,17.378000020980835,immed,42621.999979019165,Thu May 14 2026 10:02:32 GMT-0500 (Central Daylight Time),768563.900000006,A,homeenter,I,enter,243,2,2582.2000000178814,765981.6999999881,8085,WL,C,9.0
7,17.878000020980835,immed,42121.999979019165,Thu May 14 2026 10:02:32 GMT-0500 (Central Daylight Time),769063.6999999881,A,d,I,d,481,2,499.5,768564.1999999881,8085,WL,C,10.0
7,18.028000116348267,immed,41971.99988365173,Thu May 14 2026 10:02:32 GMT-0500 (Central Daylight Time),769213.599999994,A,do,I,o,142,2,649.4000000059605,768564.1999999881,8085,WL,C,10.0
7,18.16100001335144,immed,41838.99998664856,Thu May 14 2026 10:02:32 GMT-0500 (Central Daylight Time),769346.599999994,A,doc,I,c,128,2,782.4000000059605,768564.1999999881,8085,WL,C,10.0
7,18.41100001335144,immed,41588.99998664856,Thu May 14 2026 10:02:32 GMT-0500 (Central Daylight Time),769596.8000000119,A,doct,I,t,242,2,1032.6000000238419,768564.1999999881,8085,WL,C,10.0
7,18.543999910354614,immed,41456.000089645386,Thu May 14 2026 10:02:32 GMT-0500 (Central Daylight Time),769730.099999994,A,docto,I,o,121,2,1165.9000000059605,768564.1999999881,8085,WL,C,10.0
7,18.727999925613403,immed,41272.0000743866,Thu May 14 2026 10:02:32 GMT-0500 (Central Daylight Time),769913.400000006,A,doctor,I,r,171,2,1349.2000000178814,768564.1999999881,8085,WL,C,10.0
7,19.07699990272522,immed,40923.00009727478,Thu May 14 2026 10:02:32 GMT-0500 (Central Daylight Time),770263.3000000119,A,doctorenter,I,enter,332,2,1699.1000000238419,768564.1999999881,8085,WL,C,10.0
7,19.64400005340576,immed,40355.99994659424,Thu May 14 2026 10:02:32 GMT-0500 (Central Daylight Time),770829.8000000119,A,n,I,n,559,2,566.2000000178814,770263.599999994,8085,WL,C,11.0
7,19.776999950408936,immed,40223.000049591064,Thu May 14 2026 10:02:32 GMT-0500 (Central Daylight Time),770963.0,A,na,I,a,126,2,699.4000000059605,770263.599999994,8085,WL,C,11.0
7,19.91000008583069,immed,40089.99991416931,Thu May 14 2026 10:02:32 GMT-0500 (Central Daylight Time),771096.099999994,A,nai,I,i,123,2,832.5,770263.599999994,8085,WL,C,11.0
7,20.127000093460083,immed,39872.99990653992,Thu May 14 2026 10:02:32 GMT-0500 (Central Daylight Time),771312.8000000119,A,nail,I,l,197,2,1049.2000000178814,770263.599999994,8085,WL,C,11.0
7,20.444000005722046,immed,39555.999994277954,Thu May 14 2026 10:02:32 GMT-0500 (Central Daylight Time),771629.400000006,A,nailenter,I,enter,308,2,1365.800000011921,770263.599999994,8085,WL,C,11.0
7,20.91000008583069,immed,39089.99991416931,Thu May 14 2026 10:02:32 GMT-0500 (Central Daylight Time),772096.1999999881,A,s,I,s,447,2,466.5,771629.6999999881,8085,WL,C,12.0
7,20.993000030517578,immed,39006.99996948242,Thu May 14 2026 10:02:32 GMT-0500 (Central Daylight Time),772179.0,A,su,I,u,78,2,549.3000000119209,771629.6999999881,8085,WL,C,12.0
7,21.210000038146973,immed,38789.99996185303,Thu May 14 2026 10:02:32 GMT-0500 (Central Daylight Time),772395.8000000119,A,sug,I,g,202,2,766.1000000238419,771629.6999999881,8085,WL,C,12.0
