block_c,block_dur,condition,countdown,datetime,endtime,list,multichar_response,project,response,response_time,session_number,start_end,starttime,subject_id,task,task_vers,trial
,,,,Fri May 08 2026 15:55:02 GMT-0500 (Central Daylight Time),,,,O,space,785,1,,,7797,WL,A,
prac,,0,,Fri May 08 2026 15:55:02 GMT-0500 (Central Daylight Time),,NA,b,O,b,1825,1,,,7797,WL,A,1.0
prac,,0,,Fri May 08 2026 15:55:02 GMT-0500 (Central Daylight Time),,NA,bo,O,o,340,1,,,7797,WL,A,1.0
prac,,0,,Fri May 08 2026 15:55:02 GMT-0500 (Central Daylight Time),,NA,boo,O,o,146,1,,,7797,WL,A,1.0
prac,,0,,Fri May 08 2026 15:55:02 GMT-0500 (Central Daylight Time),,NA,boos,O,s,463,1,,,7797,WL,A,1.0
prac,,0,,Fri May 08 2026 15:55:02 GMT-0500 (Central Daylight Time),,NA,boost,O,t,412,1,,,7797,WL,A,1.0
prac,,0,,Fri May 08 2026 15:55:02 GMT-0500 (Central Daylight Time),,NA,boostenter,O,enter,1876,1,,,7797,WL,A,1.0
1,3.7669999599456787,learn,56233.00004005432,Fri May 08 2026 15:55:02 GMT-0500 (Central Daylight Time),150895.30000001192,A,f,O,f,3755,1,3765.9000000059605,147129.40000000596,7797,WL,A,1.0
1,4.199999809265137,learn,55800.00019073486,Fri May 08 2026 15:55:02 GMT-0500 (Central Daylight Time),151328.5,A,fl,O,l,413,1,4199.0999999940395,147129.40000000596,7797,WL,A,1.0
1,4.46399998664856,learn,55536.00001335144,Fri May 08 2026 15:55:02 GMT-0500 (Central Daylight Time),151593.10000002384,A,flo,O,o,243,1,4463.700000017881,147129.40000000596,7797,WL,A,1.0
1,4.7829999923706055,learn,55217.000007629395,Fri May 08 2026 15:55:02 GMT-0500 (Central Daylight Time),151911.80000001192,A,flow,O,w,296,1,4782.4000000059605,147129.40000000596,7797,WL,A,1.0
1,5.148999929428101,learn,54851.0000705719,Fri May 08 2026 15:55:02 GMT-0500 (Central Daylight Time),152278.10000002384,A,flowe,O,e,345,1,5148.700000017881,147129.40000000596,7797,WL,A,1.0
1,5.330999851226807,learn,54669.00014877319,Fri May 08 2026 15:55:02 GMT-0500 (Central Daylight Time),152460.10000002384,A,flower,O,r,172,1,5330.700000017881,147129.40000000596,7797,WL,A,1.0
1,8.396999835968018,learn,51603.00016403198,Fri May 08 2026 15:55:02 GMT-0500 (Central Daylight Time),155525.80000001192,A,flowerenter,O,enter,3055,1,8396.40000000596,147129.40000000596,7797,WL,A,1.0
1,11.263999938964844,learn,48736.000061035156,Fri May 08 2026 15:55:02 GMT-0500 (Central Daylight Time),158392.5,A,m,O,m,2854,1,2866.2999999821186,155526.20000001788,7797,WL,A,2.0
1,11.596999883651733,learn,48403.00011634827,Fri May 08 2026 15:55:02 GMT-0500 (Central Daylight Time),158725.60000002384,A,me,O,e,314,1,3199.4000000059605,155526.20000001788,7797,WL,A,2.0
1,11.896999835968018,learn,48103.00016403198,Fri May 08 2026 15:55:02 GMT-0500 (Central Daylight Time),159026.10000002384,A,mea,O,a,286,1,3499.9000000059605,155526.20000001788,7797,WL,A,2.0
1,12.280999898910522,learn,47719.00010108948,Fri May 08 2026 15:55:02 GMT-0500 (Central Daylight Time),159409.30000001192,A,mead,O,d,362,1,3883.0999999940395,155526.20000001788,7797,WL,A,2.0
1,12.645999908447266,learn,47354.000091552734,Fri May 08 2026 15:55:02 GMT-0500 (Central Daylight Time),159774.60000002384,A,meado,O,o,344,1,4248.4000000059605,155526.20000001788,7797,WL,A,2.0
1,12.812999963760376,learn,47187.000036239624,Fri May 08 2026 15:55:02 GMT-0500 (Central Daylight Time),159941.60000002384,A,meadow,O,w,149,1,4415.4000000059605,155526.20000001788,7797,WL,A,2.0
1,13.363999843597412,learn,46636.00015640259,Fri May 08 2026 15:55:02 GMT-0500 (Central Daylight Time),160493.0,A,meadowenter,O,enter,544,1,4966.799999982119,155526.20000001788,7797,WL,A,2.0
1,14.095999956130981,learn,45904.00004386902,Fri May 08 2026 15:55:02 GMT-0500 (Central Daylight Time),161225.0,A,t,O,t,712,1,731.6999999880791,160493.30000001192,7797,WL,A,3.0
1,14.329999923706055,learn,45670.000076293945,Fri May 08 2026 15:55:02 GMT-0500 (Central Daylight Time),161458.70000001788,A,tr,O,r,217,1,965.4000000059605,160493.30000001192,7797,WL,A,3.0
1,14.54699993133545,learn,45453.00006866455,Fri May 08 2026 15:55:02 GMT-0500 (Central Daylight Time),161675.40000000596,A,tra,O,a,194,1,1182.0999999940395,160493.30000001192,7797,WL,A,3.0
1,14.811999797821045,learn,45188.000202178955,Fri May 08 2026 15:55:02 GMT-0500 (Central Daylight Time),161941.10000002384,A,tran,O,n,248,1,1447.800000011921,160493.30000001192,7797,WL,A,3.0
1,17.245999813079834,learn,42754.000186920166,Fri May 08 2026 15:55:02 GMT-0500 (Central Daylight Time),164374.70000001788,A,tra,O,backspace,2413,1,3881.4000000059605,160493.30000001192,7797,WL,A,3.0
1,18.312999963760376,learn,41687.000036239624,Fri May 08 2026 15:55:02 GMT-0500 (Central Daylight Time),165442.0,A,trai,O,i,1044,1,4948.699999988079,160493.30000001192,7797,WL,A,3.0
1,18.560999870300293,learn,41439.00012969971,Fri May 08 2026 15:55:02 GMT-0500 (Central Daylight Time),165690.0,A,train,O,n,233,1,5196.699999988079,160493.30000001192,7797,WL,A,3.0
1,20.26099991798401,learn,39739.00008201599,Fri May 08 2026 15:55:02 GMT-0500 (Central Daylight Time),167390.40000000596,A,trainenter,O,enter,1681,1,6897.0999999940395,160493.30000001192,7797,WL,A,3.0
1,21.30899977684021,learn,38691.00022315979,Fri May 08 2026 15:55:02 GMT-0500 (Central Daylight Time),168438.40000000596,A,r,O,r,1028,1,1047.5999999940395,167390.80000001192,7797,WL,A,4.0
1,21.492999792099,learn,38507.000207901,Fri May 08 2026 15:55:02 GMT-0500 (Central Daylight Time),168622.0,A,ru,O,u,164,1,1231.199999988079,167390.80000001192,7797,WL,A,4.0
1,21.72599983215332,learn,38274.00016784668,Fri May 08 2026 15:55:02 GMT-0500 (Central Daylight Time),168855.10000002384,A,rug,O,g,220,1,1464.300000011921,167390.80000001192,7797,WL,A,4.0
1,22.777999877929688,learn,37222.00012207031,Fri May 08 2026 15:55:02 GMT-0500 (Central Daylight Time),169907.5,A,rugenter,O,enter,1045,1,2516.699999988079,167390.80000001192,7797,WL,A,4.0
1,23.240999937057495,learn,36759.000062942505,Fri May 08 2026 15:55:02 GMT-0500 (Central Daylight Time),170370.70000001788,A,c,O,c,455,1,462.90000000596046,169907.80000001192,7797,WL,A,5.0
1,23.442999839782715,learn,36557.000160217285,Fri May 08 2026 15:55:02 GMT-0500 (Central Daylight Time),170572.30000001192,A,ch,O,h,193,1,664.5,169907.80000001192,7797,WL,A,5.0
1,23.80999994277954,learn,36190.00005722046,Fri May 08 2026 15:55:02 GMT-0500 (Central Daylight Time),170939.5,A,chi,O,i,345,1,1031.699999988079,169907.80000001192,7797,WL,A,5.0
1,24.557999849319458,learn,35442.00015068054,Fri May 08 2026 15:55:02 GMT-0500 (Central Daylight Time),171687.90000000596,A,chim,O,m,734,1,1780.0999999940395,169907.80000001192,7797,WL,A,5.0
1,24.72599983215332,learn,35274.00016784668,Fri May 08 2026 15:55:02 GMT-0500 (Central Daylight Time),171855.80000001192,A,chimm,O,m,155,1,1948.0,169907.80000001192,7797,WL,A,5.0
1,25.524999856948853,learn,34475.00014305115,Fri May 08 2026 15:55:02 GMT-0500 (Central Daylight Time),172654.70000001788,A,chimme,O,e,785,1,2746.9000000059605,169907.80000001192,7797,WL,A,5.0
1,27.992999792099,learn,32007.000207901,Fri May 08 2026 15:55:02 GMT-0500 (Central Daylight Time),175121.90000000596,A,chimm,O,backspace,2463,1,5214.0999999940395,169907.80000001192,7797,WL,A,5.0
1,28.441999912261963,learn,31558.000087738037,Fri May 08 2026 15:55:02 GMT-0500 (Central Daylight Time),175571.20000001788,A,chimmn,O,n,434,1,5663.4000000059605,169907.80000001192,7797,WL,A,5.0
1,28.70799994468689,learn,31292.00005531311,Fri May 08 2026 15:55:02 GMT-0500 (Central Daylight Time),175837.10000002384,A,chimmne,O,e,248,1,5929.300000011921,169907.80000001192,7797,WL,A,5.0
1,28.907999992370605,learn,31092.000007629395,Fri May 08 2026 15:55:02 GMT-0500 (Central Daylight Time),176037.20000001788,A,chimmney,O,y,182,1,6129.4000000059605,169907.80000001192,7797,WL,A,5.0
1,30.156999826431274,learn,29843.000173568726,Fri May 08 2026 15:55:02 GMT-0500 (Central Daylight Time),177286.10000002384,A,chimmneyenter,O,enter,1238,1,7378.300000011921,169907.80000001192,7797,WL,A,5.0
1,35.370999813079834,learn,24629.000186920166,Fri May 08 2026 15:55:02 GMT-0500 (Central Daylight Time),182500.60000002384,A,r,O,r,5196,1,5214.200000017881,177286.40000000596,7797,WL,A,6.0
1,35.58799982070923,learn,24412.00017929077,Fri May 08 2026 15:55:02 GMT-0500 (Central Daylight Time),182717.70000001788,A,ru,O,u,200,1,5431.300000011921,177286.40000000596,7797,WL,A,6.0
1,35.78999996185303,learn,24210.000038146973,Fri May 08 2026 15:55:02 GMT-0500 (Central Daylight Time),182919.5,A,rug,O,g,187,1,5633.0999999940395,177286.40000000596,7797,WL,A,6.0
1,36.57099986076355,learn,23429.00013923645,Fri May 08 2026 15:55:02 GMT-0500 (Central Daylight Time),183700.10000002384,A,rugenter,O,enter,764,1,6413.700000017881,177286.40000000596,7797,WL,A,6.0
1,60.014999866485596,learn,-14.999866485595703,Fri May 08 2026 15:55:02 GMT-0500 (Central Daylight Time),207144.20000001788,A,None,O,None,23440,1,23443.90000000596,183700.30000001192,7797,WL,A,7.0
2,0.9169998168945312,learn,59083.00018310547,Fri May 08 2026 15:55:02 GMT-0500 (Central Daylight Time),275172.3000000119,A,g,O,g,897,1,916.5,274255.8000000119,7797,WL,A,1.0
2,1.3329999446868896,learn,58667.00005531311,Fri May 08 2026 15:55:02 GMT-0500 (Central Daylight Time),275588.2000000179,A,go,O,o,397,1,1332.4000000059605,274255.8000000119,7797,WL,A,1.0
2,1.5839998722076416,learn,58416.00012779236,Fri May 08 2026 15:55:02 GMT-0500 (Central Daylight Time),275839.2000000179,A,gol,O,l,241,1,1583.4000000059605,274255.8000000119,7797,WL,A,1.0
2,1.8499999046325684,learn,58150.00009536743,Fri May 08 2026 15:55:02 GMT-0500 (Central Daylight Time),276105.3000000119,A,gold,O,d,247,1,1849.5,274255.8000000119,7797,WL,A,1.0
2,3.615999937057495,learn,56384.000062942505,Fri May 08 2026 15:55:02 GMT-0500 (Central Daylight Time),277870.8000000119,A,goldenter,O,enter,1745,1,3615.0,274255.8000000119,7797,WL,A,1.0
2,4.5329999923706055,learn,55467.000007629395,Fri May 08 2026 15:55:02 GMT-0500 (Central Daylight Time),278787.8000000119,A,f,O,f,909,1,916.8000000119209,277871.0,7797,WL,A,2.0
2,4.748999834060669,learn,55251.00016593933,Fri May 08 2026 15:55:02 GMT-0500 (Central Daylight Time),279004.3000000119,A,fl,O,l,196,1,1133.300000011921,277871.0,7797,WL,A,2.0
2,4.980999946594238,learn,55019.00005340576,Fri May 08 2026 15:55:02 GMT-0500 (Central Daylight Time),279236.5,A,flo,O,o,214,1,1365.5,277871.0,7797,WL,A,2.0
2,5.163999795913696,learn,54836.000204086304,Fri May 08 2026 15:55:02 GMT-0500 (Central Daylight Time),279419.2000000179,A,flow,O,w,173,1,1548.2000000178814,277871.0,7797,WL,A,2.0
2,5.398000001907349,learn,54601.99999809265,Fri May 08 2026 15:55:02 GMT-0500 (Central Daylight Time),279653.40000000596,A,flowe,O,e,219,1,1782.4000000059605,277871.0,7797,WL,A,2.0
2,5.56499981880188,learn,54435.00018119812,Fri May 08 2026 15:55:02 GMT-0500 (Central Daylight Time),279820.10000002384,A,flower,O,r,152,1,1949.1000000238419,277871.0,7797,WL,A,2.0
2,6.080999851226807,learn,53919.00014877319,Fri May 08 2026 15:55:02 GMT-0500 (Central Daylight Time),280335.7000000179,A,flowerenter,O,enter,502,1,2464.7000000178814,277871.0,7797,WL,A,2.0
2,7.679999828338623,learn,52320.00017166138,Fri May 08 2026 15:55:02 GMT-0500 (Central Daylight Time),281934.8000000119,A,m,O,m,1586,1,1598.800000011921,280336.0,7797,WL,A,3.0
2,7.996999979019165,learn,52003.000020980835,Fri May 08 2026 15:55:02 GMT-0500 (Central Daylight Time),282252.40000000596,A,me,O,e,302,1,1916.4000000059605,280336.0,7797,WL,A,3.0
2,8.230999946594238,learn,51769.00005340576,Fri May 08 2026 15:55:02 GMT-0500 (Central Daylight Time),282486.60000002384,A,mea,O,a,215,1,2150.600000023842,280336.0,7797,WL,A,3.0
2,8.513999938964844,learn,51486.000061035156,Fri May 08 2026 15:55:02 GMT-0500 (Central Daylight Time),282769.60000002384,A,mead,O,d,261,1,2433.600000023842,280336.0,7797,WL,A,3.0
2,8.71399998664856,learn,51286.00001335144,Fri May 08 2026 15:55:02 GMT-0500 (Central Daylight Time),282969.3000000119,A,meado,O,o,186,1,2633.300000011921,280336.0,7797,WL,A,3.0
2,8.829999923706055,learn,51170.000076293945,Fri May 08 2026 15:55:02 GMT-0500 (Central Daylight Time),283085.40000000596,A,meadow,O,w,108,1,2749.4000000059605,280336.0,7797,WL,A,3.0
2,9.246999979019165,learn,50753.000020980835,Fri May 08 2026 15:55:02 GMT-0500 (Central Daylight Time),283501.90000000596,A,meadowenter,O,enter,408,1,3165.9000000059605,280336.0,7797,WL,A,3.0
2,9.912999868392944,learn,50087.000131607056,Fri May 08 2026 15:55:02 GMT-0500 (Central Daylight Time),284167.90000000596,A,r,O,r,653,1,665.6999999880791,283502.2000000179,7797,WL,A,4.0
2,10.079999923706055,learn,49920.000076293945,Fri May 08 2026 15:55:02 GMT-0500 (Central Daylight Time),284335.7000000179,A,ru,O,u,155,1,833.5,283502.2000000179,7797,WL,A,4.0
2,10.329999923706055,learn,49670.000076293945,Fri May 08 2026 15:55:02 GMT-0500 (Central Daylight Time),284585.40000000596,A,rug,O,g,234,1,1083.199999988079,283502.2000000179,7797,WL,A,4.0
2,10.69599986076355,learn,49304.00013923645,Fri May 08 2026 15:55:02 GMT-0500 (Central Daylight Time),284951.60000002384,A,rugenter,O,enter,355,1,1449.4000000059605,283502.2000000179,7797,WL,A,4.0
2,11.164999961853027,learn,48835.00003814697,Fri May 08 2026 15:55:02 GMT-0500 (Central Daylight Time),285420.3000000119,A,l,O,l,448,1,468.40000000596046,284951.90000000596,7797,WL,A,5.0
2,11.379999876022339,learn,48620.00012397766,Fri May 08 2026 15:55:02 GMT-0500 (Central Daylight Time),285635.3000000119,A,lo,O,o,201,1,683.4000000059605,284951.90000000596,7797,WL,A,5.0
2,11.629999876022339,learn,48370.00012397766,Fri May 08 2026 15:55:02 GMT-0500 (Central Daylight Time),285885.7000000179,A,log,O,g,240,1,933.8000000119209,284951.90000000596,7797,WL,A,5.0
2,11.898000001907349,learn,48101.99999809265,Fri May 08 2026 15:55:02 GMT-0500 (Central Daylight Time),286152.8000000119,A,logenter,O,enter,255,1,1200.9000000059605,284951.90000000596,7797,WL,A,5.0
2,12.311999797821045,learn,47688.000202178955,Fri May 08 2026 15:55:02 GMT-0500 (Central Daylight Time),286568.2000000179,A,c,O,c,404,1,415.2000000178814,286153.0,7797,WL,A,6.0
2,12.627999782562256,learn,47372.000217437744,Fri May 08 2026 15:55:02 GMT-0500 (Central Daylight Time),286883.90000000596,A,ch,O,h,307,1,730.9000000059605,286153.0,7797,WL,A,6.0
2,12.977999925613403,learn,47022.0000743866,Fri May 08 2026 15:55:02 GMT-0500 (Central Daylight Time),287233.7000000179,A,chi,O,i,335,1,1080.7000000178814,286153.0,7797,WL,A,6.0
2,13.42799997329712,learn,46572.00002670288,Fri May 08 2026 15:55:02 GMT-0500 (Central Daylight Time),287684.2000000179,A,chim,O,m,434,1,1531.2000000178814,286153.0,7797,WL,A,6.0
2,13.595999956130981,learn,46404.00004386902,Fri May 08 2026 15:55:02 GMT-0500 (Central Daylight Time),287851.8000000119,A,chimm,O,m,151,1,1698.800000011921,286153.0,7797,WL,A,6.0
2,13.934999942779541,learn,46065.00005722046,Fri May 08 2026 15:55:02 GMT-0500 (Central Daylight Time),288190.8000000119,A,chimmn,O,n,309,1,2037.800000011921,286153.0,7797,WL,A,6.0
2,14.13099980354309,learn,45869.00019645691,Fri May 08 2026 15:55:02 GMT-0500 (Central Daylight Time),288386.7000000179,A,chimmne,O,e,174,1,2233.7000000178814,286153.0,7797,WL,A,6.0
2,14.360999822616577,learn,45639.00017738342,Fri May 08 2026 15:55:02 GMT-0500 (Central Daylight Time),288617.0,A,chimmney,O,y,215,1,2464.0,286153.0,7797,WL,A,6.0
2,15.210999965667725,learn,44789.000034332275,Fri May 08 2026 15:55:02 GMT-0500 (Central Daylight Time),289466.5,A,chimmneyenter,O,enter,836,1,3313.5,286153.0,7797,WL,A,6.0
2,16.210999965667725,learn,43789.000034332275,Fri May 08 2026 15:55:02 GMT-0500 (Central Daylight Time),290466.90000000596,A,r,O,r,997,1,1000.0999999940395,289466.8000000119,7797,WL,A,7.0
2,16.460999965667725,learn,43539.000034332275,Fri May 08 2026 15:55:02 GMT-0500 (Central Daylight Time),290717.10000002384,A,ro,O,o,241,1,1250.300000011921,289466.8000000119,7797,WL,A,7.0
2,16.76199984550476,learn,43238.00015449524,Fri May 08 2026 15:55:02 GMT-0500 (Central Daylight Time),291017.90000000596,A,roc,O,c,287,1,1551.0999999940395,289466.8000000119,7797,WL,A,7.0
2,17.14299988746643,learn,42857.00011253357,Fri May 08 2026 15:55:02 GMT-0500 (Central Daylight Time),291398.5,A,rock,O,k,370,1,1931.699999988079,289466.8000000119,7797,WL,A,7.0
2,17.908999919891357,learn,42091.00008010864,Fri May 08 2026 15:55:02 GMT-0500 (Central Daylight Time),292164.60000002384,A,rockenter,O,enter,756,1,2697.800000011921,289466.8000000119,7797,WL,A,7.0
2,24.657999992370605,learn,35342.000007629395,Fri May 08 2026 15:55:02 GMT-0500 (Central Daylight Time),298914.0,A,t,O,t,6730,1,6749.199999988079,292164.8000000119,7797,WL,A,8.0
2,24.9229998588562,learn,35077.0001411438,Fri May 08 2026 15:55:02 GMT-0500 (Central Daylight Time),299179.40000000596,A,tr,O,r,256,1,7014.5999999940395,292164.8000000119,7797,WL,A,8.0
2,25.10599994659424,learn,34894.00005340576,Fri May 08 2026 15:55:02 GMT-0500 (Central Daylight Time),299362.2000000179,A,tra,O,a,170,1,7197.4000000059605,292164.8000000119,7797,WL,A,8.0
2,25.257999897003174,learn,34742.000102996826,Fri May 08 2026 15:55:02 GMT-0500 (Central Daylight Time),299514.0,A,trai,O,i,139,1,7349.199999988079,292164.8000000119,7797,WL,A,8.0
2,25.47599983215332,learn,34524.00016784668,Fri May 08 2026 15:55:02 GMT-0500 (Central Daylight Time),299732.10000002384,A,train,O,n,197,1,7567.300000011921,292164.8000000119,7797,WL,A,8.0
2,26.292999982833862,learn,33707.00001716614,Fri May 08 2026 15:55:02 GMT-0500 (Central Daylight Time),300548.8000000119,A,trainenter,O,enter,800,1,8384.0,292164.8000000119,7797,WL,A,8.0
2,38.00399994850159,learn,21996.000051498413,Fri May 08 2026 15:55:02 GMT-0500 (Central Daylight Time),312260.10000002384,A,r,O,r,11695,1,11711.0,300549.10000002384,7797,WL,A,9.0
2,38.21999979019165,learn,21780.00020980835,Fri May 08 2026 15:55:02 GMT-0500 (Central Daylight Time),312475.7000000179,A,ra,O,a,198,1,11926.59999999404,300549.10000002384,7797,WL,A,9.0
2,38.47099995613098,learn,21529.00004386902,Fri May 08 2026 15:55:02 GMT-0500 (Central Daylight Time),312727.2000000179,A,rat,O,t,231,1,12178.09999999404,300549.10000002384,7797,WL,A,9.0
2,38.63599991798401,learn,21364.00008201599,Fri May 08 2026 15:55:02 GMT-0500 (Central Daylight Time),312892.40000000596,A,ratt,O,t,156,1,12343.299999982119,300549.10000002384,7797,WL,A,9.0
2,38.8529999256134,learn,21147.000074386597,Fri May 08 2026 15:55:02 GMT-0500 (Central Daylight Time),313109.2000000179,A,rattl,O,l,207,1,12560.09999999404,300549.10000002384,7797,WL,A,9.0
2,38.98699998855591,learn,21013.00001144409,Fri May 08 2026 15:55:02 GMT-0500 (Central Daylight Time),313243.10000002384,A,rattle,O,e,115,1,12694.0,300549.10000002384,7797,WL,A,9.0
2,39.53600001335144,learn,20463.99998664856,Fri May 08 2026 15:55:02 GMT-0500 (Central Daylight Time),313791.90000000596,A,rattleenter,O,enter,536,1,13242.799999982119,300549.10000002384,7797,WL,A,9.0
2,53.98099994659424,learn,6019.000053405762,Fri May 08 2026 15:55:02 GMT-0500 (Central Daylight Time),328236.5,A,enter,O,enter,14435,1,14444.299999982119,313792.2000000179,7797,WL,A,10.0
2,60.01300001144409,learn,-13.000011444091797,Fri May 08 2026 15:55:02 GMT-0500 (Central Daylight Time),334268.7000000179,A,None,O,None,6027,1,6032.0,328236.7000000179,7797,WL,A,11.0
3,0.7669999599456787,learn,59233.00004005432,Fri May 08 2026 15:55:02 GMT-0500 (Central Daylight Time),407861.60000002384,A,h,O,h,757,1,766.6000000238419,407095.0,7797,WL,A,1.0
3,0.9170000553131104,learn,59082.99994468689,Fri May 08 2026 15:55:02 GMT-0500 (Central Daylight Time),408011.60000002384,A,ha,O,a,143,1,916.6000000238419,407095.0,7797,WL,A,1.0
3,1.2160000801086426,learn,58783.99991989136,Fri May 08 2026 15:55:02 GMT-0500 (Central Daylight Time),408310.7000000179,A,har,O,r,287,1,1215.7000000178814,407095.0,7797,WL,A,1.0
3,1.6679999828338623,learn,58332.00001716614,Fri May 08 2026 15:55:02 GMT-0500 (Central Daylight Time),408762.2000000179,A,harp,O,p,438,1,1667.2000000178814,407095.0,7797,WL,A,1.0
3,2.200000047683716,learn,57799.999952316284,Fri May 08 2026 15:55:02 GMT-0500 (Central Daylight Time),409293.90000000596,A,harpb,O,b,521,1,2198.9000000059605,407095.0,7797,WL,A,1.0
3,2.433000087738037,learn,57566.99991226196,Fri May 08 2026 15:55:02 GMT-0500 (Central Daylight Time),409527.8000000119,A,harpbu,O,u,215,1,2432.800000011921,407095.0,7797,WL,A,1.0
3,2.7170000076293945,learn,57282.999992370605,Fri May 08 2026 15:55:02 GMT-0500 (Central Daylight Time),409811.5,A,harpbut,O,t,277,1,2716.5,407095.0,7797,WL,A,1.0
3,2.9000000953674316,learn,57099.99990463257,Fri May 08 2026 15:55:02 GMT-0500 (Central Daylight Time),409994.0,A,harpbutt,O,t,177,1,2899.0,407095.0,7797,WL,A,1.0
3,3.049999952316284,learn,56950.000047683716,Fri May 08 2026 15:55:02 GMT-0500 (Central Daylight Time),410144.0,A,harpbutto,O,o,138,1,3049.0,407095.0,7797,WL,A,1.0
3,3.315999984741211,learn,56684.00001525879,Fri May 08 2026 15:55:02 GMT-0500 (Central Daylight Time),410410.40000000596,A,harpbutton,O,n,260,1,3315.4000000059605,407095.0,7797,WL,A,1.0
3,3.75,learn,56250.0,Fri May 08 2026 15:55:02 GMT-0500 (Central Daylight Time),410844.3000000119,A,harpbuttonl,O,l,426,1,3749.300000011921,407095.0,7797,WL,A,1.0
3,3.9830000400543213,learn,56016.99995994568,Fri May 08 2026 15:55:02 GMT-0500 (Central Daylight Time),411077.5,A,harpbuttonlo,O,o,216,1,3982.5,407095.0,7797,WL,A,1.0
3,4.164999961853027,learn,55835.00003814697,Fri May 08 2026 15:55:02 GMT-0500 (Central Daylight Time),411259.5,A,harpbuttonlog,O,g,166,1,4164.5,407095.0,7797,WL,A,1.0
3,4.91700005531311,learn,55082.99994468689,Fri May 08 2026 15:55:02 GMT-0500 (Central Daylight Time),412011.7000000179,A,harpbuttonlogk,O,k,733,1,4916.700000017881,407095.0,7797,WL,A,1.0
3,5.117000102996826,learn,54882.999897003174,Fri May 08 2026 15:55:02 GMT-0500 (Central Daylight Time),412211.0,A,harpbuttonlogke,O,e,183,1,5116.0,407095.0,7797,WL,A,1.0
3,5.5,learn,54500.0,Fri May 08 2026 15:55:02 GMT-0500 (Central Daylight Time),412593.90000000596,A,harpbuttonlogkey,O,y,368,1,5498.9000000059605,407095.0,7797,WL,A,1.0
3,5.983000040054321,learn,54016.99995994568,Fri May 08 2026 15:55:02 GMT-0500 (Central Daylight Time),413077.3000000119,A,harpbuttonlogkeyg,O,g,475,1,5982.300000011921,407095.0,7797,WL,A,1.0
3,6.266999959945679,learn,53733.00004005432,Fri May 08 2026 15:55:02 GMT-0500 (Central Daylight Time),413361.60000002384,A,harpbuttonlogkeygo,O,o,262,1,6266.600000023842,407095.0,7797,WL,A,1.0
3,6.70199990272522,learn,53298.00009727478,Fri May 08 2026 15:55:02 GMT-0500 (Central Daylight Time),413796.0,A,harpbuttonlogkeygol,O,l,429,1,6701.0,407095.0,7797,WL,A,1.0
3,6.898999929428101,learn,53101.0000705719,Fri May 08 2026 15:55:02 GMT-0500 (Central Daylight Time),413993.7000000179,A,harpbuttonlogkeygold,O,d,184,1,6898.700000017881,407095.0,7797,WL,A,1.0
3,7.5320000648498535,learn,52467.99993515015,Fri May 08 2026 15:55:02 GMT-0500 (Central Daylight Time),414626.8000000119,A,harpbuttonlogkeygoldm,O,m,627,1,7531.800000011921,407095.0,7797,WL,A,1.0
3,7.683000087738037,learn,52316.99991226196,Fri May 08 2026 15:55:02 GMT-0500 (Central Daylight Time),414777.60000002384,A,harpbuttonlogkeygoldme,O,e,137,1,7682.600000023842,407095.0,7797,WL,A,1.0
3,7.868000030517578,learn,52131.99996948242,Fri May 08 2026 15:55:02 GMT-0500 (Central Daylight Time),414962.60000002384,A,harpbuttonlogkeygoldmea,O,a,163,1,7867.600000023842,407095.0,7797,WL,A,1.0
3,8.164999961853027,learn,51835.00003814697,Fri May 08 2026 15:55:02 GMT-0500 (Central Daylight Time),415259.7000000179,A,harpbuttonlogkeygoldmead,O,d,288,1,8164.700000017881,407095.0,7797,WL,A,1.0
3,8.332000017166138,learn,51667.99998283386,Fri May 08 2026 15:55:02 GMT-0500 (Central Daylight Time),415426.7000000179,A,harpbuttonlogkeygoldmeado,O,o,152,1,8331.700000017881,407095.0,7797,WL,A,1.0
3,8.483000040054321,learn,51516.99995994568,Fri May 08 2026 15:55:02 GMT-0500 (Central Daylight Time),415577.10000002384,A,harpbuttonlogkeygoldmeadow,O,w,130,1,8482.100000023842,407095.0,7797,WL,A,1.0
3,9.815000057220459,learn,50184.99994277954,Fri May 08 2026 15:55:02 GMT-0500 (Central Daylight Time),416909.5,A,harpbuttonlogkeygoldmeado,O,backspace,1322,1,9814.5,407095.0,7797,WL,A,1.0
3,11.332000017166138,learn,48667.99998283386,Fri May 08 2026 15:55:02 GMT-0500 (Central Daylight Time),418426.8000000119,A,harpbuttonlogkeygoldmead,O,backspace,1501,1,11331.800000011921,407095.0,7797,WL,A,1.0
3,11.595999956130981,learn,48404.00004386902,Fri May 08 2026 15:55:02 GMT-0500 (Central Daylight Time),418690.8000000119,A,harpbuttonlogkeygoldmea,O,backspace,248,1,11595.800000011921,407095.0,7797,WL,A,1.0
3,11.799000024795532,learn,48200.99997520447,Fri May 08 2026 15:55:02 GMT-0500 (Central Daylight Time),418893.8000000119,A,harpbuttonlogkeygoldme,O,backspace,182,1,11798.800000011921,407095.0,7797,WL,A,1.0
3,11.997999906539917,learn,48002.00009346008,Fri May 08 2026 15:55:02 GMT-0500 (Central Daylight Time),419092.5,A,harpbuttonlogkeygoldm,O,backspace,183,1,11997.5,407095.0,7797,WL,A,1.0
3,12.230999946594238,learn,47769.00005340576,Fri May 08 2026 15:55:02 GMT-0500 (Central Daylight Time),419325.40000000596,A,harpbuttonlogkeygold,O,backspace,214,1,12230.40000000596,407095.0,7797,WL,A,1.0
3,13.79699993133545,learn,46203.00006866455,Fri May 08 2026 15:55:02 GMT-0500 (Central Daylight Time),420891.40000000596,A,harpbuttonlogkeygol,O,backspace,1559,1,13796.40000000596,407095.0,7797,WL,A,1.0
3,14.845999956130981,learn,45154.00004386902,Fri May 08 2026 15:55:02 GMT-0500 (Central Daylight Time),421939.8000000119,A,harpbuttonlogkeygo,O,backspace,1030,1,14844.800000011921,407095.0,7797,WL,A,1.0
3,15.065000057220459,learn,44934.99994277954,Fri May 08 2026 15:55:02 GMT-0500 (Central Daylight Time),422159.0,A,harpbuttonlogkeyg,O,backspace,201,1,15064.0,407095.0,7797,WL,A,1.0
3,15.246999979019165,learn,44753.000020980835,Fri May 08 2026 15:55:02 GMT-0500 (Central Daylight Time),422341.8000000119,A,harpbuttonlogkey,O,backspace,172,1,15246.800000011921,407095.0,7797,WL,A,1.0
3,15.44700002670288,learn,44552.99997329712,Fri May 08 2026 15:55:02 GMT-0500 (Central Daylight Time),422541.40000000596,A,harpbuttonlogke,O,backspace,179,1,15446.40000000596,407095.0,7797,WL,A,1.0
3,15.63100004196167,learn,44368.99995803833,Fri May 08 2026 15:55:02 GMT-0500 (Central Daylight Time),422725.0,A,harpbuttonlogk,O,backspace,161,1,15630.0,407095.0,7797,WL,A,1.0
3,15.79699993133545,learn,44203.00006866455,Fri May 08 2026 15:55:02 GMT-0500 (Central Daylight Time),422891.8000000119,A,harpbuttonlog,O,backspace,146,1,15796.800000011921,407095.0,7797,WL,A,1.0
3,15.96399998664856,learn,44036.00001335144,Fri May 08 2026 15:55:02 GMT-0500 (Central Daylight Time),423058.8000000119,A,harpbuttonlo,O,backspace,152,1,15963.800000011921,407095.0,7797,WL,A,1.0
3,16.147000074386597,learn,43852.9999256134,Fri May 08 2026 15:55:02 GMT-0500 (Central Daylight Time),423241.10000002384,A,harpbuttonl,O,backspace,160,1,16146.100000023842,407095.0,7797,WL,A,1.0
3,16.312999963760376,learn,43687.000036239624,Fri May 08 2026 15:55:02 GMT-0500 (Central Daylight Time),423407.60000002384,A,harpbutton,O,backspace,152,1,16312.600000023842,407095.0,7797,WL,A,1.0
3,16.496999979019165,learn,43503.000020980835,Fri May 08 2026 15:55:02 GMT-0500 (Central Daylight Time),423591.10000002384,A,harpbutto,O,backspace,174,1,16496.100000023842,407095.0,7797,WL,A,1.0
3,16.69600009918213,learn,43303.99990081787,Fri May 08 2026 15:55:02 GMT-0500 (Central Daylight Time),423789.90000000596,A,harpbutt,O,backspace,179,1,16694.90000000596,407095.0,7797,WL,A,1.0
3,16.878999948501587,learn,43121.00005149841,Fri May 08 2026 15:55:02 GMT-0500 (Central Daylight Time),423973.60000002384,A,harpbut,O,backspace,175,1,16878.600000023842,407095.0,7797,WL,A,1.0
3,17.063999891281128,learn,42936.00010871887,Fri May 08 2026 15:55:02 GMT-0500 (Central Daylight Time),424158.5,A,harpbu,O,backspace,175,1,17063.5,407095.0,7797,WL,A,1.0
3,17.246000051498413,learn,42753.99994850159,Fri May 08 2026 15:55:02 GMT-0500 (Central Daylight Time),424339.90000000596,A,harpb,O,backspace,172,1,17244.90000000596,407095.0,7797,WL,A,1.0
3,17.430000066757202,learn,42569.9999332428,Fri May 08 2026 15:55:02 GMT-0500 (Central Daylight Time),424524.0,A,harp,O,backspace,179,1,17429.0,407095.0,7797,WL,A,1.0
3,17.645999908447266,learn,42354.000091552734,Fri May 08 2026 15:55:02 GMT-0500 (Central Daylight Time),424740.7000000179,A,har,O,backspace,199,1,17645.70000001788,407095.0,7797,WL,A,1.0
3,18.930000066757202,learn,41069.9999332428,Fri May 08 2026 15:55:02 GMT-0500 (Central Daylight Time),426024.3000000119,A,harp,O,p,1262,1,18929.30000001192,407095.0,7797,WL,A,1.0
3,20.980000019073486,learn,39019.999980926514,Fri May 08 2026 15:55:02 GMT-0500 (Central Daylight Time),428074.0,A,harpenter,O,enter,2027,1,20979.0,407095.0,7797,WL,A,1.0
3,22.111000061035156,learn,37888.999938964844,Fri May 08 2026 15:55:02 GMT-0500 (Central Daylight Time),429205.5,A,b,O,b,1113,1,1131.2999999821186,428074.2000000179,7797,WL,A,2.0
3,22.32699990272522,learn,37673.00009727478,Fri May 08 2026 15:55:02 GMT-0500 (Central Daylight Time),429421.60000002384,A,bu,O,u,205,1,1347.4000000059605,428074.2000000179,7797,WL,A,2.0
3,22.611999988555908,learn,37388.00001144409,Fri May 08 2026 15:55:02 GMT-0500 (Central Daylight Time),429706.0,A,but,O,t,270,1,1631.7999999821186,428074.2000000179,7797,WL,A,2.0
3,22.759999990463257,learn,37240.00000953674,Fri May 08 2026 15:55:02 GMT-0500 (Central Daylight Time),429854.2000000179,A,butt,O,t,136,1,1780.0,428074.2000000179,7797,WL,A,2.0
3,22.977999925613403,learn,37022.0000743866,Fri May 08 2026 15:55:02 GMT-0500 (Central Daylight Time),430072.60000002384,A,butto,O,o,198,1,1998.4000000059605,428074.2000000179,7797,WL,A,2.0
3,23.278000116348267,learn,36721.99988365173,Fri May 08 2026 15:55:02 GMT-0500 (Central Daylight Time),430372.60000002384,A,button,O,n,281,1,2298.4000000059605,428074.2000000179,7797,WL,A,2.0
3,24.744999885559082,learn,35255.00011444092,Fri May 08 2026 15:55:02 GMT-0500 (Central Daylight Time),431839.5,A,buttonenter,O,enter,1444,1,3765.2999999821186,428074.2000000179,7797,WL,A,2.0
3,25.359999895095825,learn,34640.000104904175,Fri May 08 2026 15:55:02 GMT-0500 (Central Daylight Time),432454.10000002384,A,l,O,l,597,1,614.4000000059605,431839.7000000179,7797,WL,A,3.0
3,25.57699990272522,learn,34423.00009727478,Fri May 08 2026 15:55:02 GMT-0500 (Central Daylight Time),432671.60000002384,A,lo,O,o,198,1,831.9000000059605,431839.7000000179,7797,WL,A,3.0
3,25.82699990272522,learn,34173.00009727478,Fri May 08 2026 15:55:02 GMT-0500 (Central Daylight Time),432921.0,A,log,O,g,233,1,1081.2999999821186,431839.7000000179,7797,WL,A,3.0
3,26.278000116348267,learn,33721.99988365173,Fri May 08 2026 15:55:02 GMT-0500 (Central Daylight Time),433371.90000000596,A,logenter,O,enter,431,1,1532.199999988079,431839.7000000179,7797,WL,A,3.0
3,26.926000118255615,learn,33073.999881744385,Fri May 08 2026 15:55:02 GMT-0500 (Central Daylight Time),434020.5,A,k,O,k,632,1,648.2999999821186,433372.2000000179,7797,WL,A,4.0
3,27.127000093460083,learn,32872.99990653992,Fri May 08 2026 15:55:02 GMT-0500 (Central Daylight Time),434221.2000000179,A,ke,O,e,183,1,849.0,433372.2000000179,7797,WL,A,4.0
3,27.444000005722046,learn,32555.999994277954,Fri May 08 2026 15:55:02 GMT-0500 (Central Daylight Time),434538.2000000179,A,key,O,y,295,1,1166.0,433372.2000000179,7797,WL,A,4.0
3,28.358999967575073,learn,31641.000032424927,Fri May 08 2026 15:55:02 GMT-0500 (Central Daylight Time),435453.60000002384,A,keyenter,O,enter,903,1,2081.4000000059605,433372.2000000179,7797,WL,A,4.0
3,29.45799994468689,learn,30542.00005531311,Fri May 08 2026 15:55:02 GMT-0500 (Central Daylight Time),436552.3000000119,A,c,O,c,1094,1,1098.300000011921,435454.0,7797,WL,A,5.0
3,29.691999912261963,learn,30308.000087738037,Fri May 08 2026 15:55:02 GMT-0500 (Central Daylight Time),436786.3000000119,A,ch,O,h,228,1,1332.300000011921,435454.0,7797,WL,A,5.0
3,29.95900011062622,learn,30040.99988937378,Fri May 08 2026 15:55:02 GMT-0500 (Central Daylight Time),437053.60000002384,A,chi,O,i,261,1,1599.6000000238419,435454.0,7797,WL,A,5.0
3,30.35800004005432,learn,29641.99995994568,Fri May 08 2026 15:55:02 GMT-0500 (Central Daylight Time),437452.2000000179,A,chim,O,m,389,1,1998.2000000178814,435454.0,7797,WL,A,5.0
3,30.509999990463257,learn,29490.000009536743,Fri May 08 2026 15:55:02 GMT-0500 (Central Daylight Time),437603.8000000119,A,chimm,O,m,136,1,2149.800000011921,435454.0,7797,WL,A,5.0
3,31.157999992370605,learn,28842.000007629395,Fri May 08 2026 15:55:02 GMT-0500 (Central Daylight Time),438252.7000000179,A,chimmn,O,n,640,1,2798.7000000178814,435454.0,7797,WL,A,5.0
3,31.342999935150146,learn,28657.000064849854,Fri May 08 2026 15:55:02 GMT-0500 (Central Daylight Time),438437.5,A,chimmne,O,e,167,1,2983.5,435454.0,7797,WL,A,5.0
3,31.592000007629395,learn,28407.999992370605,Fri May 08 2026 15:55:02 GMT-0500 (Central Daylight Time),438686.0,A,chimmney,O,y,238,1,3232.0,435454.0,7797,WL,A,5.0
3,32.02500009536743,learn,27974.99990463257,Fri May 08 2026 15:55:02 GMT-0500 (Central Daylight Time),439118.90000000596,A,chimmneyenter,O,enter,413,1,3664.9000000059605,435454.0,7797,WL,A,5.0
3,32.91000008583069,learn,27089.99991416931,Fri May 08 2026 15:55:02 GMT-0500 (Central Daylight Time),440004.10000002384,A,m,O,m,868,1,884.9000000059605,439119.2000000179,7797,WL,A,6.0
3,33.14199995994568,learn,26858.00004005432,Fri May 08 2026 15:55:02 GMT-0500 (Central Daylight Time),440235.90000000596,A,me,O,e,213,1,1116.699999988079,439119.2000000179,7797,WL,A,6.0
3,33.32599997520447,learn,26674.000024795532,Fri May 08 2026 15:55:02 GMT-0500 (Central Daylight Time),440420.8000000119,A,mea,O,a,163,1,1301.5999999940395,439119.2000000179,7797,WL,A,6.0
3,33.59100008010864,learn,26408.999919891357,Fri May 08 2026 15:55:02 GMT-0500 (Central Daylight Time),440685.8000000119,A,mead,O,d,246,1,1566.5999999940395,439119.2000000179,7797,WL,A,6.0
3,33.78999996185303,learn,26210.000038146973,Fri May 08 2026 15:55:02 GMT-0500 (Central Daylight Time),440884.40000000596,A,meado,O,o,181,1,1765.199999988079,439119.2000000179,7797,WL,A,6.0
3,33.89199995994568,learn,26108.00004005432,Fri May 08 2026 15:55:02 GMT-0500 (Central Daylight Time),440985.90000000596,A,meadow,O,w,82,1,1866.699999988079,439119.2000000179,7797,WL,A,6.0
3,34.223000049591064,learn,25776.999950408936,Fri May 08 2026 15:55:02 GMT-0500 (Central Daylight Time),441317.8000000119,A,meadowenter,O,enter,321,1,2198.5999999940395,439119.2000000179,7797,WL,A,6.0
3,34.574000120162964,learn,25425.999879837036,Fri May 08 2026 15:55:02 GMT-0500 (Central Daylight Time),441668.40000000596,A,f,O,f,336,1,350.40000000596046,441318.0,7797,WL,A,7.0
3,34.75699996948242,learn,25243.000030517578,Fri May 08 2026 15:55:02 GMT-0500 (Central Daylight Time),441850.90000000596,A,fl,O,l,174,1,532.9000000059605,441318.0,7797,WL,A,7.0
3,34.956000089645386,learn,25043.999910354614,Fri May 08 2026 15:55:02 GMT-0500 (Central Daylight Time),442050.40000000596,A,flo,O,o,192,1,732.4000000059605,441318.0,7797,WL,A,7.0
3,35.10800004005432,learn,24891.99995994568,Fri May 08 2026 15:55:02 GMT-0500 (Central Daylight Time),442202.2000000179,A,flow,O,w,138,1,884.2000000178814,441318.0,7797,WL,A,7.0
3,35.30800008773804,learn,24691.999912261963,Fri May 08 2026 15:55:02 GMT-0500 (Central Daylight Time),442402.5,A,flowe,O,e,179,1,1084.5,441318.0,7797,WL,A,7.0
3,35.473000049591064,learn,24526.999950408936,Fri May 08 2026 15:55:02 GMT-0500 (Central Daylight Time),442567.60000002384,A,flower,O,r,150,1,1249.6000000238419,441318.0,7797,WL,A,7.0
3,35.85599994659424,learn,24144.00005340576,Fri May 08 2026 15:55:02 GMT-0500 (Central Daylight Time),442950.7000000179,A,flowerenter,O,enter,365,1,1632.7000000178814,441318.0,7797,WL,A,7.0
3,40.90599989891052,learn,19094.000101089478,Fri May 08 2026 15:55:02 GMT-0500 (Central Daylight Time),448000.60000002384,A,f,O,f,5030,1,5049.700000017881,442950.90000000596,7797,WL,A,8.0
3,41.08899998664856,learn,18911.00001335144,Fri May 08 2026 15:55:02 GMT-0500 (Central Daylight Time),448183.7000000179,A,fi,O,i,170,1,5232.800000011921,442950.90000000596,7797,WL,A,8.0
3,41.32100009918213,learn,18678.99990081787,Fri May 08 2026 15:55:02 GMT-0500 (Central Daylight Time),448415.7000000179,A,fin,O,n,210,1,5464.800000011921,442950.90000000596,7797,WL,A,8.0
3,41.58800005912781,learn,18411.999940872192,Fri May 08 2026 15:55:02 GMT-0500 (Central Daylight Time),448682.7000000179,A,fing,O,g,248,1,5731.800000011921,442950.90000000596,7797,WL,A,8.0
3,41.789000034332275,learn,18210.999965667725,Fri May 08 2026 15:55:02 GMT-0500 (Central Daylight Time),448883.2000000179,A,finge,O,e,184,1,5932.300000011921,442950.90000000596,7797,WL,A,8.0
3,41.90599989891052,learn,18094.000101089478,Fri May 08 2026 15:55:02 GMT-0500 (Central Daylight Time),449000.2000000179,A,finger,O,r,105,1,6049.300000011921,442950.90000000596,7797,WL,A,8.0
3,42.789000034332275,learn,17210.999965667725,Fri May 08 2026 15:55:02 GMT-0500 (Central Daylight Time),449883.60000002384,A,fingerenter,O,enter,867,1,6932.700000017881,442950.90000000596,7797,WL,A,8.0
3,44.63700008392334,learn,15362.99991607666,Fri May 08 2026 15:55:02 GMT-0500 (Central Daylight Time),451731.60000002384,A,r,O,r,1840,1,1847.6000000238419,449884.0,7797,WL,A,9.0
3,44.83699989318848,learn,15163.000106811523,Fri May 08 2026 15:55:02 GMT-0500 (Central Daylight Time),451931.8000000119,A,ra,O,a,183,1,2047.800000011921,449884.0,7797,WL,A,9.0
3,45.03699994087219,learn,14963.000059127808,Fri May 08 2026 15:55:02 GMT-0500 (Central Daylight Time),452131.3000000119,A,rat,O,t,184,1,2247.300000011921,449884.0,7797,WL,A,9.0
3,45.18600010871887,learn,14813.999891281128,Fri May 08 2026 15:55:02 GMT-0500 (Central Daylight Time),452280.7000000179,A,ratt,O,t,125,1,2396.7000000178814,449884.0,7797,WL,A,9.0
3,45.38700008392334,learn,14612.99991607666,Fri May 08 2026 15:55:02 GMT-0500 (Central Daylight Time),452481.5,A,rattl,O,l,189,1,2597.5,449884.0,7797,WL,A,9.0
3,45.48799991607666,learn,14512.00008392334,Fri May 08 2026 15:55:02 GMT-0500 (Central Daylight Time),452582.8000000119,A,rattle,O,e,79,1,2698.800000011921,449884.0,7797,WL,A,9.0
3,46.58800005912781,learn,13411.999940872192,Fri May 08 2026 15:55:02 GMT-0500 (Central Daylight Time),453681.90000000596,A,rattleenter,O,enter,1088,1,3797.9000000059605,449884.0,7797,WL,A,9.0
3,48.151999950408936,learn,11848.000049591064,Fri May 08 2026 15:55:02 GMT-0500 (Central Daylight Time),455246.7000000179,A,g,O,g,1554,1,1564.5,453682.2000000179,7797,WL,A,10.0
3,48.28600001335144,learn,11713.99998664856,Fri May 08 2026 15:55:02 GMT-0500 (Central Daylight Time),455380.3000000119,A,go,O,o,126,1,1698.0999999940395,453682.2000000179,7797,WL,A,10.0
3,48.51799988746643,learn,11482.00011253357,Fri May 08 2026 15:55:02 GMT-0500 (Central Daylight Time),455612.40000000596,A,gol,O,l,223,1,1930.199999988079,453682.2000000179,7797,WL,A,10.0
3,48.62299990653992,learn,11377.000093460083,Fri May 08 2026 15:55:02 GMT-0500 (Central Daylight Time),455717.10000002384,A,gold,O,d,87,1,2034.9000000059605,453682.2000000179,7797,WL,A,10.0
3,49.25200009346008,learn,10747.999906539917,Fri May 08 2026 15:55:02 GMT-0500 (Central Daylight Time),456346.2000000179,A,goldenter,O,enter,622,1,2664.0,453682.2000000179,7797,WL,A,10.0
3,51.15300011634827,learn,8846.999883651733,Fri May 08 2026 15:55:02 GMT-0500 (Central Daylight Time),458247.7000000179,A,e,O,e,1890,1,1901.300000011921,456346.40000000596,7797,WL,A,11.0
3,51.319000005722046,learn,8680.999994277954,Fri May 08 2026 15:55:02 GMT-0500 (Central Daylight Time),458413.7000000179,A,el,O,l,155,1,2067.300000011921,456346.40000000596,7797,WL,A,11.0
3,51.47000002861023,learn,8529.99997138977,Fri May 08 2026 15:55:02 GMT-0500 (Central Daylight Time),458563.8000000119,A,ele,O,e,130,1,2217.4000000059605,456346.40000000596,7797,WL,A,11.0
3,52.003000020980835,learn,7996.999979019165,Fri May 08 2026 15:55:02 GMT-0500 (Central Daylight Time),459097.5,A,elev,O,v,511,1,2751.0999999940395,456346.40000000596,7797,WL,A,11.0
3,52.18499994277954,learn,7815.000057220459,Fri May 08 2026 15:55:02 GMT-0500 (Central Daylight Time),459279.2000000179,A,eleve,O,e,169,1,2932.800000011921,456346.40000000596,7797,WL,A,11.0
3,52.40300011634827,learn,7596.999883651733,Fri May 08 2026 15:55:02 GMT-0500 (Central Daylight Time),459497.60000002384,A,eleven,O,n,195,1,3151.2000000178814,456346.40000000596,7797,WL,A,11.0
3,52.66799998283386,learn,7332.000017166138,Fri May 08 2026 15:55:02 GMT-0500 (Central Daylight Time),459762.60000002384,A,elevenenter,O,enter,242,1,3416.2000000178814,456346.40000000596,7797,WL,A,11.0
3,60.01699995994568,learn,-16.99995994567871,Fri May 08 2026 15:55:02 GMT-0500 (Central Daylight Time),467111.5,A,None,O,None,7343,1,7348.5999999940395,459762.90000000596,7797,WL,A,12.0
4,1.0839998722076416,learn,58916.00012779236,Fri May 08 2026 15:55:02 GMT-0500 (Central Daylight Time),544319.6000000238,A,l,O,l,1065,1,1083.800000011921,543235.8000000119,7797,WL,A,1.0
4,1.315999984741211,learn,58684.00001525879,Fri May 08 2026 15:55:02 GMT-0500 (Central Daylight Time),544552.1000000238,A,lo,O,o,211,1,1316.300000011921,543235.8000000119,7797,WL,A,1.0
4,1.4829998016357422,learn,58517.00019836426,Fri May 08 2026 15:55:02 GMT-0500 (Central Daylight Time),544718.6000000238,A,log,O,g,153,1,1482.800000011921,543235.8000000119,7797,WL,A,1.0
4,1.8009998798370361,learn,58199.000120162964,Fri May 08 2026 15:55:02 GMT-0500 (Central Daylight Time),545036.7000000179,A,logenter,O,enter,315,1,1800.9000000059605,543235.8000000119,7797,WL,A,1.0
4,2.4819998741149902,learn,57518.00012588501,Fri May 08 2026 15:55:02 GMT-0500 (Central Daylight Time),545717.7000000179,A,k,O,k,662,1,680.8000000119209,545036.900000006,7797,WL,A,2.0
4,2.631999969482422,learn,57368.00003051758,Fri May 08 2026 15:55:02 GMT-0500 (Central Daylight Time),545868.1000000238,A,ke,O,e,142,1,831.2000000178814,545036.900000006,7797,WL,A,2.0
4,2.9489998817443848,learn,57051.000118255615,Fri May 08 2026 15:55:02 GMT-0500 (Central Daylight Time),546184.8000000119,A,key,O,y,299,1,1147.9000000059605,545036.900000006,7797,WL,A,2.0
4,3.6989998817443848,learn,56301.000118255615,Fri May 08 2026 15:55:02 GMT-0500 (Central Daylight Time),546934.5,A,keyenter,O,enter,742,1,1897.5999999940395,545036.900000006,7797,WL,A,2.0
4,4.230999946594238,learn,55769.00005340576,Fri May 08 2026 15:55:02 GMT-0500 (Central Daylight Time),547467.2000000179,A,a,O,a,525,1,532.4000000059605,546934.8000000119,7797,WL,A,3.0
4,4.547999858856201,learn,55452.0001411438,Fri May 08 2026 15:55:02 GMT-0500 (Central Daylight Time),547783.7000000179,A,ap,O,p,305,1,848.9000000059605,546934.8000000119,7797,WL,A,3.0
4,4.697999954223633,learn,55302.00004577637,Fri May 08 2026 15:55:02 GMT-0500 (Central Daylight Time),547933.3000000119,A,app,O,p,141,1,998.5,546934.8000000119,7797,WL,A,3.0
4,4.932999849319458,learn,55067.00015068054,Fri May 08 2026 15:55:02 GMT-0500 (Central Daylight Time),548168.8000000119,A,appl,O,l,216,1,1234.0,546934.8000000119,7797,WL,A,3.0
4,5.163999795913696,learn,54836.000204086304,Fri May 08 2026 15:55:02 GMT-0500 (Central Daylight Time),548399.8000000119,A,apple,O,e,216,1,1465.0,546934.8000000119,7797,WL,A,3.0
4,5.629999876022339,learn,54370.00012397766,Fri May 08 2026 15:55:02 GMT-0500 (Central Daylight Time),548866.0,A,appleenter,O,enter,452,1,1931.199999988079,546934.8000000119,7797,WL,A,3.0
4,6.115000009536743,learn,53884.99999046326,Fri May 08 2026 15:55:02 GMT-0500 (Central Daylight Time),549350.3000000119,A,r,O,r,475,1,484.09999999403954,548866.2000000179,7797,WL,A,4.0
4,6.31499981880188,learn,53685.00018119812,Fri May 08 2026 15:55:02 GMT-0500 (Central Daylight Time),549551.0,A,ra,O,a,182,1,684.7999999821186,548866.2000000179,7797,WL,A,4.0
4,6.4649999141693115,learn,53535.00008583069,Fri May 08 2026 15:55:02 GMT-0500 (Central Daylight Time),549700.5,A,rat,O,t,141,1,834.2999999821186,548866.2000000179,7797,WL,A,4.0
4,6.613999843597412,learn,53386.00015640259,Fri May 08 2026 15:55:02 GMT-0500 (Central Daylight Time),549850.0,A,ratt,O,t,143,1,983.7999999821186,548866.2000000179,7797,WL,A,4.0
4,6.831999778747559,learn,53168.00022125244,Fri May 08 2026 15:55:02 GMT-0500 (Central Daylight Time),550068.2000000179,A,rattl,O,l,203,1,1202.0,548866.2000000179,7797,WL,A,4.0
4,6.9649999141693115,learn,53035.00008583069,Fri May 08 2026 15:55:02 GMT-0500 (Central Daylight Time),550200.400000006,A,rattle,O,e,114,1,1334.199999988079,548866.2000000179,7797,WL,A,4.0
4,7.2829999923706055,learn,52717.000007629395,Fri May 08 2026 15:55:02 GMT-0500 (Central Daylight Time),550518.5,A,rattleenter,O,enter,307,1,1652.2999999821186,548866.2000000179,7797,WL,A,4.0
4,9.547999858856201,learn,50452.0001411438,Fri May 08 2026 15:55:02 GMT-0500 (Central Daylight Time),552783.8000000119,A,r,O,r,2244,1,2265.0999999940395,550518.7000000179,7797,WL,A,5.0
4,9.847999811172485,learn,50152.000188827515,Fri May 08 2026 15:55:02 GMT-0500 (Central Daylight Time),553083.3000000119,A,ru,O,u,280,1,2564.5999999940395,550518.7000000179,7797,WL,A,5.0
4,10.312999963760376,learn,49687.000036239624,Fri May 08 2026 15:55:02 GMT-0500 (Central Daylight Time),553548.8000000119,A,rug,O,g,447,1,3030.0999999940395,550518.7000000179,7797,WL,A,5.0
4,11.23199987411499,learn,48768.00012588501,Fri May 08 2026 15:55:02 GMT-0500 (Central Daylight Time),554467.8000000119,A,rugenter,O,enter,903,1,3949.0999999940395,550518.7000000179,7797,WL,A,5.0
4,14.09499979019165,learn,45905.00020980835,Fri May 08 2026 15:55:02 GMT-0500 (Central Daylight Time),557331.1000000238,A,m,O,m,2858,1,2863.0,554468.1000000238,7797,WL,A,6.0
4,14.329999923706055,learn,45670.000076293945,Fri May 08 2026 15:55:02 GMT-0500 (Central Daylight Time),557565.3000000119,A,me,O,e,219,1,3097.199999988079,554468.1000000238,7797,WL,A,6.0
4,14.546000003814697,learn,45453.9999961853,Fri May 08 2026 15:55:02 GMT-0500 (Central Daylight Time),557781.8000000119,A,mea,O,a,199,1,3313.699999988079,554468.1000000238,7797,WL,A,6.0
4,14.828999996185303,learn,45171.0000038147,Fri May 08 2026 15:55:02 GMT-0500 (Central Daylight Time),558065.2000000179,A,mead,O,d,270,1,3597.0999999940395,554468.1000000238,7797,WL,A,6.0
4,15.013000011444092,learn,44986.99998855591,Fri May 08 2026 15:55:02 GMT-0500 (Central Daylight Time),558248.3000000119,A,meado,O,o,170,1,3780.199999988079,554468.1000000238,7797,WL,A,6.0
4,15.161999940872192,learn,44838.00005912781,Fri May 08 2026 15:55:02 GMT-0500 (Central Daylight Time),558397.400000006,A,meadow,O,w,138,1,3929.2999999821186,554468.1000000238,7797,WL,A,6.0
4,15.662999868392944,learn,44337.000131607056,Fri May 08 2026 15:55:02 GMT-0500 (Central Daylight Time),558899.1000000238,A,meadowenter,O,enter,485,1,4431.0,554468.1000000238,7797,WL,A,6.0
4,16.361999988555908,learn,43638.00001144409,Fri May 08 2026 15:55:02 GMT-0500 (Central Daylight Time),559597.6000000238,A,f,O,f,680,1,698.3000000119209,558899.3000000119,7797,WL,A,7.0
4,16.578999996185303,learn,43421.0000038147,Fri May 08 2026 15:55:02 GMT-0500 (Central Daylight Time),559814.7000000179,A,fi,O,i,200,1,915.4000000059605,558899.3000000119,7797,WL,A,7.0
4,16.810999870300293,learn,43189.00012969971,Fri May 08 2026 15:55:02 GMT-0500 (Central Daylight Time),560046.7000000179,A,fin,O,n,220,1,1147.4000000059605,558899.3000000119,7797,WL,A,7.0
4,17.21399998664856,learn,42786.00001335144,Fri May 08 2026 15:55:02 GMT-0500 (Central Daylight Time),560449.3000000119,A,fing,O,g,380,1,1550.0,558899.3000000119,7797,WL,A,7.0
4,17.42899990081787,learn,42571.00009918213,Fri May 08 2026 15:55:02 GMT-0500 (Central Daylight Time),560664.900000006,A,finge,O,e,199,1,1765.5999999940395,558899.3000000119,7797,WL,A,7.0
4,17.51199984550476,learn,42488.00015449524,Fri May 08 2026 15:55:02 GMT-0500 (Central Daylight Time),560747.3000000119,A,finger,O,r,77,1,1848.0,558899.3000000119,7797,WL,A,7.0
4,17.8439998626709,learn,42156.0001373291,Fri May 08 2026 15:55:02 GMT-0500 (Central Daylight Time),561079.7000000179,A,fingerenter,O,enter,311,1,2180.4000000059605,558899.3000000119,7797,WL,A,7.0
4,18.51099991798401,learn,41489.00008201599,Fri May 08 2026 15:55:02 GMT-0500 (Central Daylight Time),561746.6000000238,A,h,O,h,646,1,666.6000000238419,561080.0,7797,WL,A,8.0
4,18.709999799728394,learn,41290.00020027161,Fri May 08 2026 15:55:02 GMT-0500 (Central Daylight Time),561945.8000000119,A,ha,O,a,178,1,865.8000000119209,561080.0,7797,WL,A,8.0
4,19.044999837875366,learn,40955.000162124634,Fri May 08 2026 15:55:02 GMT-0500 (Central Daylight Time),562280.900000006,A,har,O,r,316,1,1200.9000000059605,561080.0,7797,WL,A,8.0
4,19.495999813079834,learn,40504.000186920166,Fri May 08 2026 15:55:02 GMT-0500 (Central Daylight Time),562731.900000006,A,harp,O,p,435,1,1651.9000000059605,561080.0,7797,WL,A,8.0
4,20.97699999809265,learn,39023.00000190735,Fri May 08 2026 15:55:02 GMT-0500 (Central Daylight Time),564213.2000000179,A,harpenter,O,enter,1464,1,3133.2000000178814,561080.0,7797,WL,A,8.0
4,22.060999870300293,learn,37939.00012969971,Fri May 08 2026 15:55:02 GMT-0500 (Central Daylight Time),565297.2000000179,A,f,O,f,1063,1,1083.800000011921,564213.400000006,7797,WL,A,9.0
4,22.361999988555908,learn,37638.00001144409,Fri May 08 2026 15:55:02 GMT-0500 (Central Daylight Time),565597.6000000238,A,fl,O,l,279,1,1384.2000000178814,564213.400000006,7797,WL,A,9.0
4,22.560999870300293,learn,37439.00012969971,Fri May 08 2026 15:55:02 GMT-0500 (Central Daylight Time),565796.5,A,flo,O,o,192,1,1583.0999999940395,564213.400000006,7797,WL,A,9.0
4,22.776999950408936,learn,37223.000049591064,Fri May 08 2026 15:55:02 GMT-0500 (Central Daylight Time),566012.3000000119,A,flow,O,w,200,1,1798.9000000059605,564213.400000006,7797,WL,A,9.0
4,23.05900001525879,learn,36940.99998474121,Fri May 08 2026 15:55:02 GMT-0500 (Central Daylight Time),566295.1000000238,A,flowe,O,e,271,1,2081.7000000178814,564213.400000006,7797,WL,A,9.0
4,23.175999879837036,learn,36824.000120162964,Fri May 08 2026 15:55:02 GMT-0500 (Central Daylight Time),566411.5,A,flower,O,r,108,1,2198.0999999940395,564213.400000006,7797,WL,A,9.0
4,23.744999885559082,learn,36255.00011444092,Fri May 08 2026 15:55:02 GMT-0500 (Central Daylight Time),566980.2000000179,A,flowerenter,O,enter,548,1,2766.800000011921,564213.400000006,7797,WL,A,9.0
4,24.292999982833862,learn,35707.00001716614,Fri May 08 2026 15:55:02 GMT-0500 (Central Daylight Time),567529.1000000238,A,t,O,t,529,1,548.6000000238419,566980.5,7797,WL,A,10.0
4,24.492999792099,learn,35507.000207901,Fri May 08 2026 15:55:02 GMT-0500 (Central Daylight Time),567728.2000000179,A,tr,O,r,186,1,747.7000000178814,566980.5,7797,WL,A,10.0
4,24.625,learn,35375.0,Fri May 08 2026 15:55:02 GMT-0500 (Central Daylight Time),567860.900000006,A,tra,O,a,124,1,880.4000000059605,566980.5,7797,WL,A,10.0
4,24.792999982833862,learn,35207.00001716614,Fri May 08 2026 15:55:02 GMT-0500 (Central Daylight Time),568028.7000000179,A,trai,O,i,146,1,1048.2000000178814,566980.5,7797,WL,A,10.0
4,24.95899987220764,learn,35041.00012779236,Fri May 08 2026 15:55:02 GMT-0500 (Central Daylight Time),568194.900000006,A,train,O,n,160,1,1214.4000000059605,566980.5,7797,WL,A,10.0
4,25.944000005722046,learn,34055.999994277954,Fri May 08 2026 15:55:02 GMT-0500 (Central Daylight Time),569179.2000000179,A,trainenter,O,enter,976,1,2198.7000000178814,566980.5,7797,WL,A,10.0
4,26.70899987220764,learn,33291.00012779236,Fri May 08 2026 15:55:02 GMT-0500 (Central Daylight Time),569945.0,A,b,O,b,747,1,765.5999999940395,569179.400000006,7797,WL,A,11.0
4,27.04099988937378,learn,32959.00011062622,Fri May 08 2026 15:55:02 GMT-0500 (Central Daylight Time),570277.1000000238,A,bo,O,o,323,1,1097.7000000178814,569179.400000006,7797,WL,A,11.0
4,27.20699977874756,learn,32793.00022125244,Fri May 08 2026 15:55:02 GMT-0500 (Central Daylight Time),570442.5,A,boo,O,o,152,1,1263.0999999940395,569179.400000006,7797,WL,A,11.0
4,27.442999839782715,learn,32557.000160217285,Fri May 08 2026 15:55:02 GMT-0500 (Central Daylight Time),570678.3000000119,A,book,O,k,219,1,1498.9000000059605,569179.400000006,7797,WL,A,11.0
4,27.79099988937378,learn,32209.00011062622,Fri May 08 2026 15:55:02 GMT-0500 (Central Daylight Time),571026.400000006,A,bookenter,O,enter,330,1,1847.0,569179.400000006,7797,WL,A,11.0
4,32.35699987411499,learn,27643.00012588501,Fri May 08 2026 15:55:02 GMT-0500 (Central Daylight Time),575592.8000000119,A,g,O,g,4555,1,4566.0999999940395,571026.7000000179,7797,WL,A,12.0
4,32.52300000190735,learn,27476.99999809265,Fri May 08 2026 15:55:02 GMT-0500 (Central Daylight Time),575758.900000006,A,go,O,o,147,1,4732.199999988079,571026.7000000179,7797,WL,A,12.0
4,32.74000000953674,learn,27259.999990463257,Fri May 08 2026 15:55:02 GMT-0500 (Central Daylight Time),575976.0,A,gol,O,l,204,1,4949.299999982119,571026.7000000179,7797,WL,A,12.0
4,32.889999866485596,learn,27110.000133514404,Fri May 08 2026 15:55:02 GMT-0500 (Central Daylight Time),576126.0,A,gold,O,d,135,1,5099.299999982119,571026.7000000179,7797,WL,A,12.0
4,33.223999977111816,learn,26776.000022888184,Fri May 08 2026 15:55:02 GMT-0500 (Central Daylight Time),576459.6000000238,A,goldenter,O,enter,323,1,5432.9000000059605,571026.7000000179,7797,WL,A,12.0
4,45.10099983215332,learn,14899.00016784668,Fri May 08 2026 15:55:02 GMT-0500 (Central Daylight Time),588337.900000006,A,b,O,b,11865,1,11878.09999999404,576459.8000000119,7797,WL,A,13.0
4,45.43599987030029,learn,14564.000129699707,Fri May 08 2026 15:55:02 GMT-0500 (Central Daylight Time),588672.3000000119,A,bu,O,u,320,1,12212.5,576459.8000000119,7797,WL,A,13.0
4,45.75099992752075,learn,14249.000072479248,Fri May 08 2026 15:55:02 GMT-0500 (Central Daylight Time),588987.900000006,A,but,O,t,299,1,12528.09999999404,576459.8000000119,7797,WL,A,13.0
4,45.93499994277954,learn,14065.000057220459,Fri May 08 2026 15:55:02 GMT-0500 (Central Daylight Time),589171.5,A,butt,O,t,165,1,12711.699999988079,576459.8000000119,7797,WL,A,13.0
4,46.067999839782715,learn,13932.000160217285,Fri May 08 2026 15:55:02 GMT-0500 (Central Daylight Time),589304.400000006,A,butti,O,i,122,1,12844.59999999404,576459.8000000119,7797,WL,A,13.0
4,46.367999792099,learn,13632.000207901001,Fri May 08 2026 15:55:02 GMT-0500 (Central Daylight Time),589604.400000006,A,buttin,O,n,289,1,13144.59999999404,576459.8000000119,7797,WL,A,13.0
4,47.91699981689453,learn,12083.000183105469,Fri May 08 2026 15:55:02 GMT-0500 (Central Daylight Time),591153.7000000179,A,butti,O,backspace,1529,1,14693.90000000596,576459.8000000119,7797,WL,A,13.0
4,48.383999824523926,learn,11616.000175476074,Fri May 08 2026 15:55:02 GMT-0500 (Central Daylight Time),591620.7000000179,A,butt,O,backspace,446,1,15160.90000000596,576459.8000000119,7797,WL,A,13.0
4,49.08399987220764,learn,10916.000127792358,Fri May 08 2026 15:55:02 GMT-0500 (Central Daylight Time),592320.2000000179,A,butto,O,o,677,1,15860.40000000596,576459.8000000119,7797,WL,A,13.0
4,49.383999824523926,learn,10616.000175476074,Fri May 08 2026 15:55:02 GMT-0500 (Central Daylight Time),592619.900000006,A,button,O,n,279,1,16160.09999999404,576459.8000000119,7797,WL,A,13.0
4,49.948999881744385,learn,10051.000118255615,Fri May 08 2026 15:55:02 GMT-0500 (Central Daylight Time),593185.400000006,A,buttonenter,O,enter,549,1,16725.59999999404,576459.8000000119,7797,WL,A,13.0
4,60.01599979400635,learn,-15.999794006347656,Fri May 08 2026 15:55:02 GMT-0500 (Central Daylight Time),603252.0,A,None,O,None,10062,1,10066.399999976158,593185.6000000238,7797,WL,A,14.0
5,1.065999984741211,learn,60000.0,Fri May 08 2026 15:55:02 GMT-0500 (Central Daylight Time),670213.0,A,k,O,k,1047,1,1065.2999999821186,669147.7000000179,7797,WL,A,1.0
5,1.2320001125335693,learn,60000.0,Fri May 08 2026 15:55:02 GMT-0500 (Central Daylight Time),670378.7000000179,A,ke,O,e,159,1,1231.0,669147.7000000179,7797,WL,A,1.0
5,1.6319999694824219,learn,60000.0,Fri May 08 2026 15:55:02 GMT-0500 (Central Daylight Time),670779.5,A,key,O,y,387,1,1631.7999999821186,669147.7000000179,7797,WL,A,1.0
5,2.4820001125335693,learn,60000.0,Fri May 08 2026 15:55:02 GMT-0500 (Central Daylight Time),671628.5,A,keyenter,O,enter,831,1,2480.7999999821186,669147.7000000179,7797,WL,A,1.0
5,3.182000160217285,learn,60000.0,Fri May 08 2026 15:55:02 GMT-0500 (Central Daylight Time),672329.0,A,g,O,g,680,1,700.1999999880791,671628.8000000119,7797,WL,A,2.0
5,3.2810001373291016,learn,60000.0,Fri May 08 2026 15:55:02 GMT-0500 (Central Daylight Time),672427.8000000119,A,go,O,o,89,1,799.0,671628.8000000119,7797,WL,A,2.0
5,3.513000011444092,learn,60000.0,Fri May 08 2026 15:55:02 GMT-0500 (Central Daylight Time),672660.0,A,gol,O,l,223,1,1031.199999988079,671628.8000000119,7797,WL,A,2.0
5,3.631999969482422,learn,60000.0,Fri May 08 2026 15:55:02 GMT-0500 (Central Daylight Time),672778.5,A,gold,O,d,105,1,1149.699999988079,671628.8000000119,7797,WL,A,2.0
5,3.932000160217285,learn,60000.0,Fri May 08 2026 15:55:02 GMT-0500 (Central Daylight Time),673078.6000000238,A,goldenter,O,enter,279,1,1449.800000011921,671628.8000000119,7797,WL,A,2.0
5,4.38100004196167,learn,60000.0,Fri May 08 2026 15:55:02 GMT-0500 (Central Daylight Time),673528.5,A,r,O,r,428,1,449.59999999403954,673078.900000006,7797,WL,A,3.0
5,4.5980000495910645,learn,60000.0,Fri May 08 2026 15:55:02 GMT-0500 (Central Daylight Time),673744.7000000179,A,ra,O,a,196,1,665.8000000119209,673078.900000006,7797,WL,A,3.0
5,4.697000026702881,learn,60000.0,Fri May 08 2026 15:55:02 GMT-0500 (Central Daylight Time),673843.7000000179,A,rat,O,t,91,1,764.8000000119209,673078.900000006,7797,WL,A,3.0
5,4.8470001220703125,learn,60000.0,Fri May 08 2026 15:55:02 GMT-0500 (Central Daylight Time),673994.3000000119,A,ratt,O,t,134,1,915.4000000059605,673078.900000006,7797,WL,A,3.0
5,5.031000137329102,learn,60000.0,Fri May 08 2026 15:55:02 GMT-0500 (Central Daylight Time),674178.3000000119,A,rattl,O,l,169,1,1099.4000000059605,673078.900000006,7797,WL,A,3.0
5,5.215000152587891,learn,60000.0,Fri May 08 2026 15:55:02 GMT-0500 (Central Daylight Time),674361.900000006,A,rattle,O,e,162,1,1283.0,673078.900000006,7797,WL,A,3.0
5,5.615000009536743,learn,60000.0,Fri May 08 2026 15:55:02 GMT-0500 (Central Daylight Time),674762.0,A,rattleenter,O,enter,387,1,1683.0999999940395,673078.900000006,7797,WL,A,3.0
5,6.049000024795532,learn,60000.0,Fri May 08 2026 15:55:02 GMT-0500 (Central Daylight Time),675195.5,A,f,O,f,419,1,433.19999998807907,674762.3000000119,7797,WL,A,4.0
5,6.296999931335449,learn,60000.0,Fri May 08 2026 15:55:02 GMT-0500 (Central Daylight Time),675444.3000000119,A,fl,O,l,228,1,682.0,674762.3000000119,7797,WL,A,4.0
5,6.496999979019165,learn,60000.0,Fri May 08 2026 15:55:02 GMT-0500 (Central Daylight Time),675644.1000000238,A,flo,O,o,192,1,881.8000000119209,674762.3000000119,7797,WL,A,4.0
5,6.5970001220703125,learn,60000.0,Fri May 08 2026 15:55:02 GMT-0500 (Central Daylight Time),675743.7000000179,A,flow,O,w,88,1,981.4000000059605,674762.3000000119,7797,WL,A,4.0
5,6.7799999713897705,learn,60000.0,Fri May 08 2026 15:55:02 GMT-0500 (Central Daylight Time),675926.7000000179,A,flowe,O,e,170,1,1164.4000000059605,674762.3000000119,7797,WL,A,4.0
5,6.947999954223633,learn,60000.0,Fri May 08 2026 15:55:02 GMT-0500 (Central Daylight Time),676094.7000000179,A,flower,O,r,159,1,1332.4000000059605,674762.3000000119,7797,WL,A,4.0
5,7.147000074386597,learn,60000.0,Fri May 08 2026 15:55:02 GMT-0500 (Central Daylight Time),676294.2000000179,A,flowerenter,O,enter,190,1,1531.9000000059605,674762.3000000119,7797,WL,A,4.0
5,7.880000114440918,learn,60000.0,Fri May 08 2026 15:55:02 GMT-0500 (Central Daylight Time),677026.6000000238,A,m,O,m,727,1,732.2000000178814,676294.400000006,7797,WL,A,5.0
5,8.11300015449524,learn,60000.0,Fri May 08 2026 15:55:02 GMT-0500 (Central Daylight Time),677260.400000006,A,me,O,e,212,1,966.0,676294.400000006,7797,WL,A,5.0
5,8.27999997138977,learn,60000.0,Fri May 08 2026 15:55:02 GMT-0500 (Central Daylight Time),677426.7000000179,A,mea,O,a,147,1,1132.300000011921,676294.400000006,7797,WL,A,5.0
5,8.546000003814697,learn,60000.0,Fri May 08 2026 15:55:02 GMT-0500 (Central Daylight Time),677693.3000000119,A,mead,O,d,257,1,1398.9000000059605,676294.400000006,7797,WL,A,5.0
5,8.71399998664856,learn,60000.0,Fri May 08 2026 15:55:02 GMT-0500 (Central Daylight Time),677861.2000000179,A,meado,O,o,158,1,1566.800000011921,676294.400000006,7797,WL,A,5.0
5,8.847000122070312,learn,60000.0,Fri May 08 2026 15:55:02 GMT-0500 (Central Daylight Time),677994.1000000238,A,meadow,O,w,113,1,1699.7000000178814,676294.400000006,7797,WL,A,5.0
5,9.663000106811523,learn,60000.0,Fri May 08 2026 15:55:02 GMT-0500 (Central Daylight Time),678810.400000006,A,meadowenter,O,enter,798,1,2516.0,676294.400000006,7797,WL,A,5.0
5,10.213000059127808,learn,60000.0,Fri May 08 2026 15:55:02 GMT-0500 (Central Daylight Time),679359.8000000119,A,b,O,b,529,1,549.1999999880791,678810.6000000238,7797,WL,A,6.0
5,10.378999948501587,learn,60000.0,Fri May 08 2026 15:55:02 GMT-0500 (Central Daylight Time),679526.0,A,bo,O,o,147,1,715.3999999761581,678810.6000000238,7797,WL,A,6.0
5,10.546000003814697,learn,60000.0,Fri May 08 2026 15:55:02 GMT-0500 (Central Daylight Time),679693.0,A,boo,O,o,151,1,882.3999999761581,678810.6000000238,7797,WL,A,6.0
5,10.796000003814697,learn,60000.0,Fri May 08 2026 15:55:02 GMT-0500 (Central Daylight Time),679942.8000000119,A,book,O,k,239,1,1132.199999988079,678810.6000000238,7797,WL,A,6.0
5,11.513000011444092,learn,60000.0,Fri May 08 2026 15:55:02 GMT-0500 (Central Daylight Time),680660.5,A,bookenter,O,enter,695,1,1849.8999999761581,678810.6000000238,7797,WL,A,6.0
5,12.745000123977661,learn,60000.0,Fri May 08 2026 15:55:02 GMT-0500 (Central Daylight Time),681892.3000000119,A,t,O,t,1223,1,1231.5,680660.8000000119,7797,WL,A,7.0
5,12.979000091552734,learn,60000.0,Fri May 08 2026 15:55:02 GMT-0500 (Central Daylight Time),682126.0,A,tr,O,r,223,1,1465.199999988079,680660.8000000119,7797,WL,A,7.0
5,13.144999980926514,learn,60000.0,Fri May 08 2026 15:55:02 GMT-0500 (Central Daylight Time),682292.1000000238,A,tra,O,a,161,1,1631.300000011921,680660.8000000119,7797,WL,A,7.0
5,13.278000116348267,learn,60000.0,Fri May 08 2026 15:55:02 GMT-0500 (Central Daylight Time),682425.3000000119,A,trai,O,i,120,1,1764.5,680660.8000000119,7797,WL,A,7.0
5,13.478000164031982,learn,60000.0,Fri May 08 2026 15:55:02 GMT-0500 (Central Daylight Time),682625.2000000179,A,train,O,n,187,1,1964.4000000059605,680660.8000000119,7797,WL,A,7.0
5,14.529000043869019,learn,60000.0,Fri May 08 2026 15:55:02 GMT-0500 (Central Daylight Time),683676.0,A,trainenter,O,enter,1036,1,3015.199999988079,680660.8000000119,7797,WL,A,7.0
5,15.263000011444092,learn,60000.0,Fri May 08 2026 15:55:02 GMT-0500 (Central Daylight Time),684410.2000000179,A,h,O,h,714,1,733.9000000059605,683676.3000000119,7797,WL,A,8.0
5,15.394999980926514,learn,60000.0,Fri May 08 2026 15:55:02 GMT-0500 (Central Daylight Time),684542.1000000238,A,ha,O,a,114,1,865.8000000119209,683676.3000000119,7797,WL,A,8.0
5,15.627000093460083,learn,60000.0,Fri May 08 2026 15:55:02 GMT-0500 (Central Daylight Time),684774.1000000238,A,har,O,r,213,1,1097.800000011921,683676.3000000119,7797,WL,A,8.0
5,16.009999990463257,learn,60000.0,Fri May 08 2026 15:55:02 GMT-0500 (Central Daylight Time),685156.6000000238,A,harp,O,p,375,1,1480.300000011921,683676.3000000119,7797,WL,A,8.0
5,16.361000061035156,learn,60000.0,Fri May 08 2026 15:55:02 GMT-0500 (Central Daylight Time),685507.900000006,A,harpenter,O,enter,337,1,1831.5999999940395,683676.3000000119,7797,WL,A,8.0
5,17.16100001335144,learn,60000.0,Fri May 08 2026 15:55:02 GMT-0500 (Central Daylight Time),686307.900000006,A,l,O,l,795,1,799.7999999821186,685508.1000000238,7797,WL,A,9.0
5,17.377000093460083,learn,60000.0,Fri May 08 2026 15:55:02 GMT-0500 (Central Daylight Time),686523.8000000119,A,lo,O,o,201,1,1015.6999999880791,685508.1000000238,7797,WL,A,9.0
5,17.544000148773193,learn,60000.0,Fri May 08 2026 15:55:02 GMT-0500 (Central Daylight Time),686691.2000000179,A,log,O,g,148,1,1183.0999999940395,685508.1000000238,7797,WL,A,9.0
5,18.161999940872192,learn,60000.0,Fri May 08 2026 15:55:02 GMT-0500 (Central Daylight Time),687309.0,A,logenter,O,enter,608,1,1800.8999999761581,685508.1000000238,7797,WL,A,9.0
5,23.824000120162964,learn,60000.0,Fri May 08 2026 15:55:02 GMT-0500 (Central Daylight Time),692971.5,A,g,O,g,5657,1,5662.199999988079,687309.3000000119,7797,WL,A,10.0
5,23.973999977111816,learn,60000.0,Fri May 08 2026 15:55:02 GMT-0500 (Central Daylight Time),693121.400000006,A,go,O,o,128,1,5812.0999999940395,687309.3000000119,7797,WL,A,10.0
5,24.223999977111816,learn,60000.0,Fri May 08 2026 15:55:02 GMT-0500 (Central Daylight Time),693371.5,A,gol,O,l,227,1,6062.199999988079,687309.3000000119,7797,WL,A,10.0
5,24.324000120162964,learn,60000.0,Fri May 08 2026 15:55:02 GMT-0500 (Central Daylight Time),693471.5,A,gold,O,d,77,1,6162.199999988079,687309.3000000119,7797,WL,A,10.0
5,26.457000017166138,learn,60000.0,Fri May 08 2026 15:55:02 GMT-0500 (Central Daylight Time),695603.900000006,A,goldenter,O,enter,2122,1,8294.59999999404,687309.3000000119,7797,WL,A,10.0
5,27.92300009727478,learn,60000.0,Fri May 08 2026 15:55:02 GMT-0500 (Central Daylight Time),697069.8000000119,A,k,O,k,1456,1,1465.699999988079,695604.1000000238,7797,WL,A,11.0
5,28.039000034332275,learn,60000.0,Fri May 08 2026 15:55:02 GMT-0500 (Central Daylight Time),697186.6000000238,A,ke,O,e,100,1,1582.5,695604.1000000238,7797,WL,A,11.0
5,29.157000064849854,learn,60000.0,Fri May 08 2026 15:55:02 GMT-0500 (Central Daylight Time),698303.7000000179,A,k,O,backspace,1104,1,2699.5999999940395,695604.1000000238,7797,WL,A,11.0
5,29.456000089645386,learn,60000.0,Fri May 08 2026 15:55:02 GMT-0500 (Central Daylight Time),698603.1000000238,A,,O,backspace,291,1,2999.0,695604.1000000238,7797,WL,A,11.0
5,30.456000089645386,learn,60000.0,Fri May 08 2026 15:55:02 GMT-0500 (Central Daylight Time),699602.900000006,A,b,O,b,989,1,3998.7999999821186,695604.1000000238,7797,WL,A,11.0
5,30.6560001373291,learn,60000.0,Fri May 08 2026 15:55:02 GMT-0500 (Central Daylight Time),699803.400000006,A,bu,O,u,191,1,4199.299999982119,695604.1000000238,7797,WL,A,11.0
5,30.955000162124634,learn,60000.0,Fri May 08 2026 15:55:02 GMT-0500 (Central Daylight Time),700102.3000000119,A,but,O,t,278,1,4498.199999988079,695604.1000000238,7797,WL,A,11.0
5,31.088000059127808,learn,60000.0,Fri May 08 2026 15:55:02 GMT-0500 (Central Daylight Time),700235.5,A,butt,O,t,122,1,4631.399999976158,695604.1000000238,7797,WL,A,11.0
5,31.222000122070312,learn,60000.0,Fri May 08 2026 15:55:02 GMT-0500 (Central Daylight Time),700369.1000000238,A,butto,O,o,117,1,4765.0,695604.1000000238,7797,WL,A,11.0
5,31.472000122070312,learn,60000.0,Fri May 08 2026 15:55:02 GMT-0500 (Central Daylight Time),700619.0,A,button,O,n,229,1,5014.899999976158,695604.1000000238,7797,WL,A,11.0
5,32.67199993133545,learn,60000.0,Fri May 08 2026 15:55:02 GMT-0500 (Central Daylight Time),701818.6000000238,A,buttonenter,O,enter,1190,1,6214.5,695604.1000000238,7797,WL,A,11.0
5,38.71900010108948,learn,60000.0,Fri May 08 2026 15:55:02 GMT-0500 (Central Daylight Time),707866.8000000119,A,r,O,r,6042,1,6047.5999999940395,701819.2000000179,7797,WL,A,12.0
5,38.90300011634827,learn,60000.0,Fri May 08 2026 15:55:02 GMT-0500 (Central Daylight Time),708050.8000000119,A,ru,O,u,161,1,6231.5999999940395,701819.2000000179,7797,WL,A,12.0
5,39.236000061035156,learn,60000.0,Fri May 08 2026 15:55:02 GMT-0500 (Central Daylight Time),708383.3000000119,A,rug,O,g,318,1,6564.0999999940395,701819.2000000179,7797,WL,A,12.0
5,39.66799998283386,learn,60000.0,Fri May 08 2026 15:55:02 GMT-0500 (Central Daylight Time),708816.1000000238,A,rugenter,O,enter,410,1,6996.9000000059605,701819.2000000179,7797,WL,A,12.0
5,62.46300005912781,learn,60000.0,Fri May 08 2026 15:55:02 GMT-0500 (Central Daylight Time),731610.6000000238,A,k,O,k,22781,1,22794.20000001788,708816.400000006,7797,WL,A,13.0
6,1.9839999675750732,distr,58016.00003242493,Fri May 08 2026 15:55:02 GMT-0500 (Central Daylight Time),800105.900000006,B,p,O,p,1959,1,1983.7999999821186,798122.1000000238,7797,WL,A,1.0
6,2.183000087738037,distr,57816.99991226196,Fri May 08 2026 15:55:02 GMT-0500 (Central Daylight Time),800304.7000000179,B,pe,O,e,184,1,2182.5999999940395,798122.1000000238,7797,WL,A,1.0
6,2.382999897003174,distr,57617.000102996826,Fri May 08 2026 15:55:02 GMT-0500 (Central Daylight Time),800504.3000000119,B,pea,O,a,187,1,2382.199999988079,798122.1000000238,7797,WL,A,1.0
6,2.7330000400543213,distr,57266.99995994568,Fri May 08 2026 15:55:02 GMT-0500 (Central Daylight Time),800854.7000000179,B,peac,O,c,338,1,2732.5999999940395,798122.1000000238,7797,WL,A,1.0
6,3.0,distr,57000.0,Fri May 08 2026 15:55:02 GMT-0500 (Central Daylight Time),801121.1000000238,B,peach,O,h,247,1,2999.0,798122.1000000238,7797,WL,A,1.0
6,3.7339999675750732,distr,56266.00003242493,Fri May 08 2026 15:55:02 GMT-0500 (Central Daylight Time),801855.1000000238,B,peachenter,O,enter,724,1,3733.0,798122.1000000238,7797,WL,A,1.0
6,4.197999954223633,distr,55802.00004577637,Fri May 08 2026 15:55:02 GMT-0500 (Central Daylight Time),802319.7000000179,B,b,O,b,455,1,464.40000000596046,801855.3000000119,7797,WL,A,2.0
6,4.515000104904175,distr,55484.999895095825,Fri May 08 2026 15:55:02 GMT-0500 (Central Daylight Time),802636.2000000179,B,bo,O,o,309,1,780.9000000059605,801855.3000000119,7797,WL,A,2.0
6,4.834000110626221,distr,55165.99988937378,Fri May 08 2026 15:55:02 GMT-0500 (Central Daylight Time),802955.400000006,B,bot,O,t,298,1,1100.0999999940395,801855.3000000119,7797,WL,A,2.0
6,4.983000040054321,distr,55016.99995994568,Fri May 08 2026 15:55:02 GMT-0500 (Central Daylight Time),803104.8000000119,B,bott,O,t,143,1,1249.5,801855.3000000119,7797,WL,A,2.0
6,5.164999961853027,distr,54835.00003814697,Fri May 08 2026 15:55:02 GMT-0500 (Central Daylight Time),803286.8000000119,B,bottl,O,l,160,1,1431.5,801855.3000000119,7797,WL,A,2.0
6,5.332000017166138,distr,54667.99998283386,Fri May 08 2026 15:55:02 GMT-0500 (Central Daylight Time),803453.5,B,bottle,O,e,143,1,1598.199999988079,801855.3000000119,7797,WL,A,2.0
6,5.614000082015991,distr,54385.99991798401,Fri May 08 2026 15:55:02 GMT-0500 (Central Daylight Time),803735.7000000179,B,bottleenter,O,enter,263,1,1880.4000000059605,801855.3000000119,7797,WL,A,2.0
6,6.148000001907349,distr,53851.99999809265,Fri May 08 2026 15:55:02 GMT-0500 (Central Daylight Time),804269.6000000238,B,c,O,c,516,1,533.7000000178814,803735.900000006,7797,WL,A,3.0
6,6.365999937057495,distr,53634.000062942505,Fri May 08 2026 15:55:02 GMT-0500 (Central Daylight Time),804487.1000000238,B,ch,O,h,198,1,751.2000000178814,803735.900000006,7797,WL,A,3.0
6,6.497999906539917,distr,53502.00009346008,Fri May 08 2026 15:55:02 GMT-0500 (Central Daylight Time),804619.1000000238,B,cha,O,a,117,1,883.2000000178814,803735.900000006,7797,WL,A,3.0
6,6.700000047683716,distr,53299.999952316284,Fri May 08 2026 15:55:02 GMT-0500 (Central Daylight Time),804820.900000006,B,chai,O,i,178,1,1085.0,803735.900000006,7797,WL,A,3.0
6,6.914999961853027,distr,53085.00003814697,Fri May 08 2026 15:55:02 GMT-0500 (Central Daylight Time),805035.900000006,B,chair,O,r,206,1,1300.0,803735.900000006,7797,WL,A,3.0
6,7.516000032424927,distr,52483.99996757507,Fri May 08 2026 15:55:02 GMT-0500 (Central Daylight Time),805637.5,B,chairs,O,s,583,1,1901.5999999940395,803735.900000006,7797,WL,A,3.0
6,7.747999906539917,distr,52252.00009346008,Fri May 08 2026 15:55:02 GMT-0500 (Central Daylight Time),805869.2000000179,B,chairsh,O,h,210,1,2133.300000011921,803735.900000006,7797,WL,A,3.0
6,8.015000104904175,distr,51984.999895095825,Fri May 08 2026 15:55:02 GMT-0500 (Central Daylight Time),806136.7000000179,B,chairshe,O,e,247,1,2400.800000011921,803735.900000006,7797,WL,A,3.0
6,8.164999961853027,distr,51835.00003814697,Fri May 08 2026 15:55:02 GMT-0500 (Central Daylight Time),806286.400000006,B,chairshee,O,e,129,1,2550.5,803735.900000006,7797,WL,A,3.0
6,8.58299994468689,distr,51417.00005531311,Fri May 08 2026 15:55:02 GMT-0500 (Central Daylight Time),806704.1000000238,B,chairsheep,O,p,412,1,2968.2000000178814,803735.900000006,7797,WL,A,3.0
6,10.079999923706055,distr,49920.000076293945,Fri May 08 2026 15:55:02 GMT-0500 (Central Daylight Time),808201.7000000179,B,chairshee,O,backspace,1492,1,4465.800000011921,803735.900000006,7797,WL,A,3.0
6,10.280999898910522,distr,49719.00010108948,Fri May 08 2026 15:55:02 GMT-0500 (Central Daylight Time),808402.0,B,chairshe,O,backspace,181,1,4666.0999999940395,803735.900000006,7797,WL,A,3.0
6,10.480999946594238,distr,49519.00005340576,Fri May 08 2026 15:55:02 GMT-0500 (Central Daylight Time),808602.2000000179,B,chairsh,O,backspace,178,1,4866.300000011921,803735.900000006,7797,WL,A,3.0
6,10.680999994277954,distr,49319.000005722046,Fri May 08 2026 15:55:02 GMT-0500 (Central Daylight Time),808802.2000000179,B,chairs,O,backspace,178,1,5066.300000011921,803735.900000006,7797,WL,A,3.0
6,10.897000074386597,distr,49102.9999256134,Fri May 08 2026 15:55:02 GMT-0500 (Central Daylight Time),809018.2000000179,B,chair,O,backspace,202,1,5282.300000011921,803735.900000006,7797,WL,A,3.0
6,12.128000020980835,distr,47871.999979019165,Fri May 08 2026 15:55:02 GMT-0500 (Central Daylight Time),810249.5,B,chairenter,O,enter,1225,1,6513.5999999940395,803735.900000006,7797,WL,A,3.0
6,12.911999940872192,distr,47088.00005912781,Fri May 08 2026 15:55:02 GMT-0500 (Central Daylight Time),811033.8000000119,B,s,O,s,764,1,784.0,810249.8000000119,7797,WL,A,4.0
6,13.130000114440918,distr,46869.99988555908,Fri May 08 2026 15:55:02 GMT-0500 (Central Daylight Time),811250.900000006,B,sh,O,h,198,1,1001.0999999940395,810249.8000000119,7797,WL,A,4.0
6,13.36299991607666,distr,46637.00008392334,Fri May 08 2026 15:55:02 GMT-0500 (Central Daylight Time),811484.1000000238,B,she,O,e,224,1,1234.300000011921,810249.8000000119,7797,WL,A,4.0
6,13.52999997138977,distr,46470.00002861023,Fri May 08 2026 15:55:02 GMT-0500 (Central Daylight Time),811651.900000006,B,shee,O,e,145,1,1402.0999999940395,810249.8000000119,7797,WL,A,4.0
6,13.828999996185303,distr,46171.0000038147,Fri May 08 2026 15:55:02 GMT-0500 (Central Daylight Time),811950.400000006,B,sheep,O,p,286,1,1700.5999999940395,810249.8000000119,7797,WL,A,4.0
6,15.227999925613403,distr,44772.0000743866,Fri May 08 2026 15:55:02 GMT-0500 (Central Daylight Time),813349.7000000179,B,sheepenter,O,enter,1381,1,3099.9000000059605,810249.8000000119,7797,WL,A,4.0
6,60.015000104904175,distr,-15.000104904174805,Fri May 08 2026 15:55:02 GMT-0500 (Central Daylight Time),858136.7000000179,B,None,O,None,44781,1,44786.80000001192,813349.900000006,7797,WL,A,5.0
7,2.364000082015991,immed,57635.99991798401,Fri May 08 2026 15:55:02 GMT-0500 (Central Daylight Time),885010.400000006,A,l,O,l,2351,1,2364.699999988079,882645.7000000179,7797,WL,A,1.0
7,3.065999984741211,immed,56934.00001525879,Fri May 08 2026 15:55:02 GMT-0500 (Central Daylight Time),885711.900000006,A,,O,backspace,687,1,3066.199999988079,882645.7000000179,7797,WL,A,1.0
7,3.7810001373291016,immed,56218.9998626709,Fri May 08 2026 15:55:02 GMT-0500 (Central Daylight Time),886427.1000000238,A,f,O,f,711,1,3781.4000000059605,882645.7000000179,7797,WL,A,1.0
7,4.013000011444092,immed,55986.99998855591,Fri May 08 2026 15:55:02 GMT-0500 (Central Daylight Time),886660.0,A,fl,O,l,225,1,4014.2999999821186,882645.7000000179,7797,WL,A,1.0
7,4.246999979019165,immed,55753.000020980835,Fri May 08 2026 15:55:02 GMT-0500 (Central Daylight Time),886893.3000000119,A,flo,O,o,223,1,4247.5999999940395,882645.7000000179,7797,WL,A,1.0
7,4.4120001792907715,immed,55587.99982070923,Fri May 08 2026 15:55:02 GMT-0500 (Central Daylight Time),887059.2000000179,A,flow,O,w,146,1,4413.5,882645.7000000179,7797,WL,A,1.0
7,4.614000082015991,immed,55385.99991798401,Fri May 08 2026 15:55:02 GMT-0500 (Central Daylight Time),887260.3000000119,A,flowe,O,e,179,1,4614.5999999940395,882645.7000000179,7797,WL,A,1.0
7,4.7799999713897705,immed,55220.00002861023,Fri May 08 2026 15:55:02 GMT-0500 (Central Daylight Time),887426.7000000179,A,flower,O,r,145,1,4781.0,882645.7000000179,7797,WL,A,1.0
7,5.812000036239624,immed,54187.999963760376,Fri May 08 2026 15:55:02 GMT-0500 (Central Daylight Time),888458.2000000179,A,flowerenter,O,enter,1015,1,5812.5,882645.7000000179,7797,WL,A,1.0
7,6.8450000286102295,immed,53154.99997138977,Fri May 08 2026 15:55:02 GMT-0500 (Central Daylight Time),889491.7000000179,A,m,O,m,1026,1,1033.300000011921,888458.400000006,7797,WL,A,2.0
7,7.0959999561309814,immed,52904.00004386902,Fri May 08 2026 15:55:02 GMT-0500 (Central Daylight Time),889742.5,A,me,O,e,230,1,1284.0999999940395,888458.400000006,7797,WL,A,2.0
7,7.229000091552734,immed,52770.999908447266,Fri May 08 2026 15:55:02 GMT-0500 (Central Daylight Time),889875.900000006,A,mea,O,a,118,1,1417.5,888458.400000006,7797,WL,A,2.0
7,7.54800009727478,immed,52451.99990272522,Fri May 08 2026 15:55:02 GMT-0500 (Central Daylight Time),890194.3000000119,A,mead,O,d,298,1,1735.9000000059605,888458.400000006,7797,WL,A,2.0
7,7.8450000286102295,immed,52154.99997138977,Fri May 08 2026 15:55:02 GMT-0500 (Central Daylight Time),890492.1000000238,A,meado,O,o,276,1,2033.7000000178814,888458.400000006,7797,WL,A,2.0
7,8.02999997138977,immed,51970.00002861023,Fri May 08 2026 15:55:02 GMT-0500 (Central Daylight Time),890676.2000000179,A,meadow,O,w,167,1,2217.800000011921,888458.400000006,7797,WL,A,2.0
7,9.146000146865845,immed,50853.999853134155,Fri May 08 2026 15:55:02 GMT-0500 (Central Daylight Time),891792.8000000119,A,meadowenter,O,enter,1103,1,3334.4000000059605,888458.400000006,7797,WL,A,2.0
7,9.644000053405762,immed,50355.99994659424,Fri May 08 2026 15:55:02 GMT-0500 (Central Daylight Time),892290.900000006,A,b,O,b,490,1,497.69999998807907,891793.2000000179,7797,WL,A,3.0
7,10.61300015449524,immed,49386.99984550476,Fri May 08 2026 15:55:02 GMT-0500 (Central Daylight Time),893259.5,A,bo,O,o,963,1,1466.2999999821186,891793.2000000179,7797,WL,A,3.0
7,11.062000036239624,immed,48937.999963760376,Fri May 08 2026 15:55:02 GMT-0500 (Central Daylight Time),893708.7000000179,A,boo,O,o,441,1,1915.5,891793.2000000179,7797,WL,A,3.0
7,11.42799997329712,immed,48572.00002670288,Fri May 08 2026 15:55:02 GMT-0500 (Central Daylight Time),894075.0,A,book,O,k,360,1,2281.7999999821186,891793.2000000179,7797,WL,A,3.0
7,11.830000162124634,immed,48169.999837875366,Fri May 08 2026 15:55:02 GMT-0500 (Central Daylight Time),894476.400000006,A,bookenter,O,enter,379,1,2683.199999988079,891793.2000000179,7797,WL,A,3.0
7,12.926000118255615,immed,47073.999881744385,Fri May 08 2026 15:55:02 GMT-0500 (Central Daylight Time),895572.900000006,A,l,O,l,1088,1,1096.2999999821186,894476.6000000238,7797,WL,A,4.0
7,13.162000179290771,immed,46837.99982070923,Fri May 08 2026 15:55:02 GMT-0500 (Central Daylight Time),895808.6000000238,A,lo,O,o,217,1,1332.0,894476.6000000238,7797,WL,A,4.0
7,13.327000141143799,immed,46672.9998588562,Fri May 08 2026 15:55:02 GMT-0500 (Central Daylight Time),895974.0,A,log,O,g,154,1,1497.3999999761581,894476.6000000238,7797,WL,A,4.0
7,13.84500002861023,immed,46154.99997138977,Fri May 08 2026 15:55:02 GMT-0500 (Central Daylight Time),896491.2000000179,A,logenter,O,enter,496,1,2014.5999999940395,894476.6000000238,7797,WL,A,4.0
7,17.7260000705719,immed,42273.9999294281,Fri May 08 2026 15:55:02 GMT-0500 (Central Daylight Time),900372.400000006,A,r,O,r,3865,1,3881.0,896491.400000006,7797,WL,A,5.0
7,17.943000078201294,immed,42056.999921798706,Fri May 08 2026 15:55:02 GMT-0500 (Central Daylight Time),900590.0,A,ra,O,a,199,1,4098.5999999940395,896491.400000006,7797,WL,A,5.0
7,18.176000118255615,immed,41823.999881744385,Fri May 08 2026 15:55:02 GMT-0500 (Central Daylight Time),900822.5,A,rat,O,t,224,1,4331.0999999940395,896491.400000006,7797,WL,A,5.0
7,18.344000101089478,immed,41655.99989891052,Fri May 08 2026 15:55:02 GMT-0500 (Central Daylight Time),900990.8000000119,A,ratt,O,t,155,1,4499.4000000059605,896491.400000006,7797,WL,A,5.0
7,18.526000022888184,immed,41473.99997711182,Fri May 08 2026 15:55:02 GMT-0500 (Central Daylight Time),901172.3000000119,A,rattl,O,l,174,1,4680.9000000059605,896491.400000006,7797,WL,A,5.0
7,18.641000032424927,immed,41358.99996757507,Fri May 08 2026 15:55:02 GMT-0500 (Central Daylight Time),901287.900000006,A,rattle,O,e,104,1,4796.5,896491.400000006,7797,WL,A,5.0
7,19.192000150680542,immed,40807.99984931946,Fri May 08 2026 15:55:02 GMT-0500 (Central Daylight Time),901838.7000000179,A,rattleenter,O,enter,540,1,5347.300000011921,896491.400000006,7797,WL,A,5.0
7,20.375,immed,39625.0,Fri May 08 2026 15:55:02 GMT-0500 (Central Daylight Time),903021.400000006,A,g,O,g,1164,1,1182.5,901838.900000006,7797,WL,A,6.0
7,20.52400016784668,immed,39475.99983215332,Fri May 08 2026 15:55:02 GMT-0500 (Central Daylight Time),903170.6000000238,A,go,O,o,133,1,1331.7000000178814,901838.900000006,7797,WL,A,6.0
7,20.758000135421753,immed,39241.99986457825,Fri May 08 2026 15:55:02 GMT-0500 (Central Daylight Time),903405.0,A,gol,O,l,219,1,1566.0999999940395,901838.900000006,7797,WL,A,6.0
7,20.907999992370605,immed,39092.000007629395,Fri May 08 2026 15:55:02 GMT-0500 (Central Daylight Time),903555.0,A,gold,O,d,128,1,1716.0999999940395,901838.900000006,7797,WL,A,6.0
7,21.241000175476074,immed,38758.999824523926,Fri May 08 2026 15:55:02 GMT-0500 (Central Daylight Time),903887.7000000179,A,goldenter,O,enter,320,1,2048.800000011921,901838.900000006,7797,WL,A,6.0
7,25.039999961853027,immed,34960.00003814697,Fri May 08 2026 15:55:02 GMT-0500 (Central Daylight Time),907687.1000000238,A,t,O,t,3780,1,3799.100000023842,903888.0,7797,WL,A,7.0
7,25.256999969482422,immed,34743.00003051758,Fri May 08 2026 15:55:02 GMT-0500 (Central Daylight Time),907903.2000000179,A,tr,O,r,205,1,4015.2000000178814,903888.0,7797,WL,A,7.0
7,25.42300009727478,immed,34576.99990272522,Fri May 08 2026 15:55:02 GMT-0500 (Central Daylight Time),908069.8000000119,A,tra,O,a,158,1,4181.800000011921,903888.0,7797,WL,A,7.0
7,25.555999994277954,immed,34444.000005722046,Fri May 08 2026 15:55:02 GMT-0500 (Central Daylight Time),908202.900000006,A,trai,O,i,124,1,4314.9000000059605,903888.0,7797,WL,A,7.0
7,25.756999969482422,immed,34243.00003051758,Fri May 08 2026 15:55:02 GMT-0500 (Central Daylight Time),908404.0,A,train,O,n,198,1,4516.0,903888.0,7797,WL,A,7.0
7,27.955000162124634,immed,32044.999837875366,Fri May 08 2026 15:55:02 GMT-0500 (Central Daylight Time),910602.1000000238,A,trainenter,O,enter,2184,1,6714.100000023842,903888.0,7797,WL,A,7.0
7,30.388000011444092,immed,29611.99998855591,Fri May 08 2026 15:55:02 GMT-0500 (Central Daylight Time),913034.7000000179,A,b,O,b,2417,1,2432.5,910602.2000000179,7797,WL,A,8.0
7,30.539000034332275,immed,29460.999965667725,Fri May 08 2026 15:55:02 GMT-0500 (Central Daylight Time),913185.6000000238,A,bo,O,o,137,1,2583.4000000059605,910602.2000000179,7797,WL,A,8.0
7,30.72099995613098,immed,29279.00004386902,Fri May 08 2026 15:55:02 GMT-0500 (Central Daylight Time),913367.5,A,boo,O,o,162,1,2765.2999999821186,910602.2000000179,7797,WL,A,8.0
7,31.22099995613098,immed,28779.00004386902,Fri May 08 2026 15:55:02 GMT-0500 (Central Daylight Time),913867.7000000179,A,book,O,k,485,1,3265.5,910602.2000000179,7797,WL,A,8.0
7,31.789999961853027,immed,28210.000038146973,Fri May 08 2026 15:55:02 GMT-0500 (Central Daylight Time),914436.8000000119,A,bookenter,O,enter,551,1,3834.5999999940395,910602.2000000179,7797,WL,A,8.0
7,49.598000049591064,immed,10401.999950408936,Fri May 08 2026 15:55:02 GMT-0500 (Central Daylight Time),932245.1000000238,A,r,O,r,17799,1,17808.100000023842,914437.0,7797,WL,A,9.0
7,49.89800000190735,immed,10101.999998092651,Fri May 08 2026 15:55:02 GMT-0500 (Central Daylight Time),932544.8000000119,A,ru,O,u,282,1,18107.80000001192,914437.0,7797,WL,A,9.0
7,50.14900016784668,immed,9850.99983215332,Fri May 08 2026 15:55:02 GMT-0500 (Central Daylight Time),932795.8000000119,A,rug,O,g,233,1,18358.80000001192,914437.0,7797,WL,A,9.0
7,50.581000089645386,immed,9418.999910354614,Fri May 08 2026 15:55:02 GMT-0500 (Central Daylight Time),933228.1000000238,A,rugenter,O,enter,420,1,18791.100000023842,914437.0,7797,WL,A,9.0
7,60.01200008392334,immed,-12.000083923339844,Fri May 08 2026 15:55:02 GMT-0500 (Central Daylight Time),942658.6000000238,A,None,O,None,9425,1,9430.300000011921,933228.3000000119,7797,WL,A,10.0
