Q,Q1,Q2,Q3,Q4,acc_sum,block,block_c,correct,correct_response,datetime,endtime,project,response,response_time,row_sel,session_number,squiggle1,squiggle1x,squiggle1y,squiggle2,squiggle2x,squiggle2y,squiggle3,squiggle3x,squiggle3y,squiggle4,squiggle4x,squiggle4y,start_end,starttime,subject_id,target_congruent,task,task_vers,testsquiggle,testsquigglex,testsquiggley,time_practice_delay,time_practice_fixation,time_practice_stimuli,time_practice_study,time_test_delay,time_test_fixation,time_test_stimuli,time_test_study,trial
1,1,0,0,0,1,prac,1,1,z,Tue Apr 21 2026 13:35:11 GMT-0500 (Central Daylight Time),85018.19999998808,I,z,1703,1,1,116.bmp,-120,-120,117.bmp,120,-120,118.bmp,-120,120,119.bmp,120,120,10511.199999988079,74507.0,8107,yes,SM,A,116.bmp,-120,-120,77566,71537,79567,73551,,,,,1
3,0,0,1,0,1,prac,1,0,m,Tue Apr 21 2026 13:35:11 GMT-0500 (Central Daylight Time),94798.0,I,z,959,2,1,120.bmp,-120,-120,121.bmp,120,-120,122.bmp,-120,120,123.bmp,120,120,9775.699999988079,85022.30000001192,8107,no,SM,A,123.bmp,-120,120,88079,82053,90095,84064,,,,,2
4,0,0,0,1,1,prac,1,0,m,Tue Apr 21 2026 13:35:11 GMT-0500 (Central Daylight Time),105628.09999999404,I,None,2015,3,1,124.bmp,-120,-120,125.bmp,120,-120,126.bmp,-120,120,127.bmp,120,120,10826.09999999404,94802.0,8107,no,SM,A,124.bmp,120,120,97860,91832,99876,93845,,,,,3
2,0,1,0,0,1,prac,1,0,z,Tue Apr 21 2026 13:35:11 GMT-0500 (Central Daylight Time),116241.19999998808,I,m,1788,4,1,128.bmp,-120,-120,129.bmp,120,-120,130.bmp,-120,120,131.bmp,120,120,10608.59999999404,105632.59999999404,8107,yes,SM,A,129.bmp,120,-120,108689,102663,110706,104674,,,,,4
3,0,0,1,0,2,prac,1,1,z,Tue Apr 21 2026 13:35:11 GMT-0500 (Central Daylight Time),126204.90000000596,I,z,1135,5,1,132.bmp,-120,-120,133.bmp,120,-120,134.bmp,-120,120,135.bmp,120,120,9960.300000011921,116244.59999999404,8107,yes,SM,A,134.bmp,-120,120,119303,113275,121319,115287,,,,,5
1,1,0,0,0,3,prac,1,1,m,Tue Apr 21 2026 13:35:11 GMT-0500 (Central Daylight Time),136335.0,I,m,1308,6,1,136.bmp,-120,-120,137.bmp,120,-120,138.bmp,-120,120,139.bmp,120,120,10126.699999988079,126208.30000001192,8107,no,SM,A,139.bmp,-120,-120,129266,123239,131283,125251,,,,,6
2,0,1,0,0,3,prac,1,0,m,Tue Apr 21 2026 13:35:11 GMT-0500 (Central Daylight Time),147165.30000001192,I,None,2015,7,1,140.bmp,-120,-120,141.bmp,120,-120,142.bmp,-120,120,143.bmp,120,120,10826.200000017881,136339.09999999404,8107,no,SM,A,140.bmp,120,-120,139397,133370,141413,135381,,,,,7
4,0,0,0,1,3,prac,1,0,z,Tue Apr 21 2026 13:35:11 GMT-0500 (Central Daylight Time),156878.69999998808,I,m,883,8,1,144.bmp,-120,-120,145.bmp,120,-120,146.bmp,-120,120,147.bmp,120,120,9710.09999999404,147168.59999999404,8107,yes,SM,A,147.bmp,120,120,150227,144199,152243,146211,,,,,8
4,0,0,0,1,0,test,1,0,m,Tue Apr 21 2026 13:35:11 GMT-0500 (Central Daylight Time),169541.09999999404,I,None,2014,1,1,148.bmp,-120,-120,149.bmp,120,-120,150.bmp,-120,120,143.bmp,120,120,10060.699999988079,159480.40000000596,8107,no,SM,A,150.bmp,120,120,150227,144199,152243,146211,162539.0,156511.0,164557.0,158524.0,1
2,0,1,0,0,1,test,1,1,m,Tue Apr 21 2026 13:35:11 GMT-0500 (Central Daylight Time),178788.40000000596,I,m,1196,2,1,101.bmp,-120,-120,102.bmp,120,-120,103.bmp,-120,120,104.bmp,120,120,9243.90000000596,169544.5,8107,no,SM,A,103.bmp,120,-120,150227,144199,152243,146211,172603.0,166575.0,174619.0,168588.0,2
1,1,0,0,0,2,test,1,1,z,Tue Apr 21 2026 13:35:11 GMT-0500 (Central Daylight Time),188186.40000000596,I,z,1349,3,1,105.bmp,-120,-120,106.bmp,120,-120,107.bmp,-120,120,108.bmp,120,120,9395.0,178791.40000000596,8107,yes,SM,A,105.bmp,-120,-120,150227,144199,152243,146211,181850.0,175822.0,183866.0,177834.0,3
3,0,0,1,0,3,test,1,1,m,Tue Apr 21 2026 13:35:11 GMT-0500 (Central Daylight Time),197465.59999999404,I,m,1231,4,1,109.bmp,-120,-120,110.bmp,120,-120,111.bmp,-120,120,112.bmp,120,120,9275.09999999404,188190.5,8107,no,SM,A,109.bmp,-120,120,150227,144199,152243,146211,191247.0,185221.0,193263.0,187232.0,4
2,0,1,0,0,3,test,1,0,z,Tue Apr 21 2026 13:35:11 GMT-0500 (Central Daylight Time),206996.30000001192,I,m,1370,5,1,113.bmp,-120,-120,114.bmp,120,-120,115.bmp,-120,120,116.bmp,120,120,9527.0,197469.30000001192,8107,yes,SM,A,114.bmp,120,-120,150227,144199,152243,146211,200629.0,194500.0,202644.0,196512.0,5
3,0,0,1,0,3,test,1,0,z,Tue Apr 21 2026 13:35:11 GMT-0500 (Central Daylight Time),217060.0,I,None,2016,6,1,117.bmp,-120,-120,118.bmp,120,-120,119.bmp,-120,120,120.bmp,120,120,10060.40000000596,206999.59999999404,8107,yes,SM,A,119.bmp,-120,120,150227,144199,152243,146211,210058.0,204030.0,212074.0,206043.0,6
4,0,0,0,1,4,test,1,1,z,Tue Apr 21 2026 13:35:11 GMT-0500 (Central Daylight Time),226456.69999998808,I,z,1348,7,1,121.bmp,-120,-120,122.bmp,120,-120,123.bmp,-120,120,124.bmp,120,120,9393.09999999404,217063.59999999404,8107,yes,SM,A,124.bmp,120,120,150227,144199,152243,146211,220121.0,214094.0,222138.0,216106.0,7
2,0,1,0,0,4,test,1,0,m,Tue Apr 21 2026 13:35:11 GMT-0500 (Central Daylight Time),236520.19999998808,I,None,2014,8,1,125.bmp,-120,-120,126.bmp,120,-120,127.bmp,-120,120,128.bmp,120,120,10060.5,226459.69999998808,8107,no,SM,A,125.bmp,120,-120,150227,144199,152243,146211,229518.0,223490.0,231536.0,225503.0,8
3,0,0,1,0,5,test,1,1,m,Tue Apr 21 2026 13:35:11 GMT-0500 (Central Daylight Time),245817.30000001192,I,m,1247,9,1,129.bmp,-120,-120,130.bmp,120,-120,131.bmp,-120,120,132.bmp,120,120,9294.0,236523.30000001192,8107,no,SM,A,130.bmp,-120,120,150227,144199,152243,146211,239582.0,233553.0,241599.0,235567.0,9
4,0,0,0,1,6,test,1,1,z,Tue Apr 21 2026 13:35:11 GMT-0500 (Central Daylight Time),255031.09999999404,I,z,1151,10,1,137.bmp,-120,-120,138.bmp,120,-120,139.bmp,-120,120,140.bmp,120,120,9210.799999982119,245820.30000001192,8107,yes,SM,A,140.bmp,120,120,150227,144199,152243,146211,248879.0,242851.0,250895.0,244864.0,10
3,0,0,1,0,7,test,1,1,z,Tue Apr 21 2026 13:35:11 GMT-0500 (Central Daylight Time),264745.09999999404,I,z,1658,11,1,133.bmp,-120,-120,134.bmp,120,-120,135.bmp,-120,120,136.bmp,120,120,9710.59999999404,255034.5,8107,yes,SM,A,135.bmp,-120,120,150227,144199,152243,146211,258093.0,252065.0,260109.0,254077.0,11
2,0,1,0,0,8,test,1,1,m,Tue Apr 21 2026 13:35:11 GMT-0500 (Central Daylight Time),273908.59999999404,I,m,1104,12,1,141.bmp,-120,-120,142.bmp,120,-120,143.bmp,-120,120,144.bmp,120,120,9160.59999999404,264748.0,8107,no,SM,A,141.bmp,120,-120,150227,144199,152243,146211,267806.0,261778.0,269822.0,263791.0,12
3,0,0,1,0,9,test,1,1,m,Tue Apr 21 2026 13:35:11 GMT-0500 (Central Daylight Time),283006.0,I,m,1043,13,1,145.bmp,-120,-120,146.bmp,120,-120,147.bmp,-120,120,148.bmp,120,120,9094.0,273912.0,8107,no,SM,A,146.bmp,-120,120,150227,144199,152243,146211,276970.0,270942.0,278987.0,272955.0,13
1,1,0,0,0,9,test,1,0,z,Tue Apr 21 2026 13:35:11 GMT-0500 (Central Daylight Time),293069.59999999404,I,None,2016,14,1,149.bmp,-120,-120,150.bmp,120,-120,104.bmp,-120,120,101.bmp,120,120,10059.90000000596,283009.6999999881,8107,yes,SM,A,149.bmp,-120,-120,150227,144199,152243,146211,286068.0,280040.0,288084.0,282052.0,14
4,0,0,0,1,10,test,1,1,m,Tue Apr 21 2026 13:35:11 GMT-0500 (Central Daylight Time),302149.59999999404,I,m,1020,15,1,110.bmp,-120,-120,111.bmp,120,-120,112.bmp,-120,120,113.bmp,120,120,9076.299999982119,293073.3000000119,8107,no,SM,A,111.bmp,120,120,150227,144199,152243,146211,296131.0,290103.0,298147.0,292116.0,15
1,1,0,0,0,11,test,1,1,m,Tue Apr 21 2026 13:35:11 GMT-0500 (Central Daylight Time),311280.5,I,m,1066,16,1,102.bmp,-120,-120,103.bmp,120,-120,104.bmp,-120,120,105.bmp,120,120,9127.800000011921,302152.6999999881,8107,no,SM,A,105.bmp,-120,-120,150227,144199,152243,146211,305212.0,299183.0,307229.0,301196.0,16
3,0,0,1,0,12,test,1,1,m,Tue Apr 21 2026 13:35:11 GMT-0500 (Central Daylight Time),321110.5,I,m,1769,17,1,122.bmp,-120,-120,123.bmp,120,-120,124.bmp,-120,120,125.bmp,120,120,9825.90000000596,311284.59999999404,8107,no,SM,A,122.bmp,-120,120,150227,144199,152243,146211,314342.0,308315.0,316358.0,310327.0,17
1,1,0,0,0,12,test,1,0,z,Tue Apr 21 2026 13:35:11 GMT-0500 (Central Daylight Time),331174.1999999881,I,None,2016,18,1,106.bmp,-120,-120,107.bmp,120,-120,108.bmp,-120,120,109.bmp,120,120,10060.399999976158,321113.8000000119,8107,yes,SM,A,106.bmp,-120,-120,150227,144199,152243,146211,324172.0,318144.0,326188.0,320157.0,18
2,0,1,0,0,13,test,1,1,z,Tue Apr 21 2026 13:35:11 GMT-0500 (Central Daylight Time),340271.1999999881,I,z,1034,19,1,126.bmp,-120,-120,127.bmp,120,-120,128.bmp,-120,120,129.bmp,120,120,9093.59999999404,331177.59999999404,8107,yes,SM,A,127.bmp,120,-120,150227,144199,152243,146211,334236.0,328208.0,336252.0,330220.0,19
3,0,0,1,0,14,test,1,1,z,Tue Apr 21 2026 13:35:11 GMT-0500 (Central Daylight Time),349501.59999999404,I,z,1177,20,1,130.bmp,-120,-120,131.bmp,120,-120,132.bmp,-120,120,133.bmp,120,120,9226.59999999404,340275.0,8107,yes,SM,A,132.bmp,-120,120,150227,144199,152243,146211,343333.0,337305.0,345349.0,339317.0,20
1,1,0,0,0,14,test,1,0,m,Tue Apr 21 2026 13:35:11 GMT-0500 (Central Daylight Time),359565.3000000119,I,None,2016,21,1,114.bmp,-120,-120,115.bmp,120,-120,116.bmp,-120,120,117.bmp,120,120,10060.40000000596,349504.90000000596,8107,no,SM,A,116.bmp,-120,-120,150227,144199,152243,146211,352563.0,346535.0,354579.0,348548.0,21
4,0,0,0,1,15,test,1,1,z,Tue Apr 21 2026 13:35:11 GMT-0500 (Central Daylight Time),369012.09999999404,I,z,1388,22,1,118.bmp,-120,-120,119.bmp,120,-120,120.bmp,-120,120,121.bmp,120,120,9443.799999982119,359568.3000000119,8107,yes,SM,A,121.bmp,120,120,150227,144199,152243,146211,362628.0,356599.0,364643.0,358611.0,22
1,1,0,0,0,15,test,1,0,m,Tue Apr 21 2026 13:35:11 GMT-0500 (Central Daylight Time),378342.6999999881,I,z,1267,23,1,134.bmp,-120,-120,135.bmp,120,-120,136.bmp,-120,120,137.bmp,120,120,9327.5,369015.1999999881,8107,no,SM,A,137.bmp,-120,-120,150227,144199,152243,146211,372074.0,366045.0,374091.0,368058.0,23
2,0,1,0,0,15,test,1,0,z,Tue Apr 21 2026 13:35:11 GMT-0500 (Central Daylight Time),387773.0,I,m,1371,24,1,142.bmp,-120,-120,143.bmp,120,-120,144.bmp,-120,120,145.bmp,120,120,9426.800000011921,378346.1999999881,8107,yes,SM,A,143.bmp,120,-120,150227,144199,152243,146211,381405.0,375376.0,383420.0,377389.0,24
4,0,0,0,1,16,test,1,1,m,Tue Apr 21 2026 13:35:11 GMT-0500 (Central Daylight Time),396736.6999999881,I,m,906,25,1,146.bmp,-120,-120,147.bmp,120,-120,148.bmp,-120,120,149.bmp,120,120,8960.799999982119,387775.90000000596,8107,no,SM,A,148.bmp,120,120,150227,144199,152243,146211,390834.0,384806.0,392852.0,386819.0,25
1,1,0,0,0,17,test,1,1,z,Tue Apr 21 2026 13:35:11 GMT-0500 (Central Daylight Time),405817.09999999404,I,z,1032,26,1,138.bmp,-120,-120,139.bmp,120,-120,140.bmp,-120,120,141.bmp,120,120,9076.90000000596,396740.1999999881,8107,yes,SM,A,138.bmp,-120,-120,150227,144199,152243,146211,399798.0,393770.0,401815.0,395783.0,26
4,0,0,0,1,18,test,1,1,z,Tue Apr 21 2026 13:35:11 GMT-0500 (Central Daylight Time),415584.09999999404,I,z,1719,27,1,150.bmp,-120,-120,111.bmp,120,-120,101.bmp,-120,120,102.bmp,120,120,9764.0,405820.09999999404,8107,yes,SM,A,102.bmp,120,120,150227,144199,152243,146211,408879.0,402850.0,410895.0,404864.0,27
3,0,0,1,0,18,test,1,0,m,Tue Apr 21 2026 13:35:11 GMT-0500 (Central Daylight Time),425427.6999999881,I,z,1788,28,1,103.bmp,-120,-120,104.bmp,120,-120,105.bmp,-120,120,106.bmp,120,120,9840.59999999404,415587.09999999404,8107,no,SM,A,103.bmp,-120,120,150227,144199,152243,146211,418643.0,412618.0,420659.0,414627.0,28
2,0,1,0,0,18,test,1,0,z,Tue Apr 21 2026 13:35:11 GMT-0500 (Central Daylight Time),435441.1999999881,I,m,1966,29,1,107.bmp,-120,-120,108.bmp,120,-120,109.bmp,-120,120,110.bmp,120,120,10010.299999982119,425430.90000000596,8107,yes,SM,A,108.bmp,120,-120,150227,144199,152243,146211,428489.0,422461.0,430505.0,424474.0,29
3,0,0,1,0,18,test,1,0,z,Tue Apr 21 2026 13:35:11 GMT-0500 (Central Daylight Time),444872.0,I,m,1367,30,1,111.bmp,-120,-120,112.bmp,120,-120,113.bmp,-120,120,114.bmp,120,120,9427.300000011921,435444.6999999881,8107,yes,SM,A,113.bmp,-120,120,150227,144199,152243,146211,438503.0,432475.0,440519.0,434488.0,30
1,1,0,0,0,18,test,1,0,z,Tue Apr 21 2026 13:35:11 GMT-0500 (Central Daylight Time),453803.0,I,m,881,31,1,115.bmp,-120,-120,116.bmp,120,-120,117.bmp,-120,120,118.bmp,120,120,8927.699999988079,444875.3000000119,8107,yes,SM,A,115.bmp,-120,-120,150227,144199,152243,146211,447933.0,441905.0,449949.0,443919.0,31
2,0,1,0,0,19,test,1,1,m,Tue Apr 21 2026 13:35:11 GMT-0500 (Central Daylight Time),462713.8000000119,I,m,863,32,1,119.bmp,-120,-120,120.bmp,120,-120,121.bmp,-120,120,122.bmp,120,120,8907.700000017881,453806.09999999404,8107,no,SM,A,119.bmp,120,-120,150227,144199,152243,146211,456864.0,450836.0,458880.0,452849.0,32
4,0,0,0,1,19,test,1,0,z,Tue Apr 21 2026 13:35:11 GMT-0500 (Central Daylight Time),472013.40000000596,I,m,1245,33,1,131.bmp,-120,-120,132.bmp,120,-120,133.bmp,-120,120,134.bmp,120,120,9296.09999999404,462717.3000000119,8107,yes,SM,A,134.bmp,120,120,150227,144199,152243,146211,465778.0,459747.0,467794.0,461762.0,33
2,0,1,0,0,20,test,1,1,z,Tue Apr 21 2026 13:35:11 GMT-0500 (Central Daylight Time),481843.3000000119,I,z,1771,34,1,123.bmp,-120,-120,124.bmp,120,-120,125.bmp,-120,120,126.bmp,120,120,9826.600000023842,472016.6999999881,8107,yes,SM,A,124.bmp,120,-120,150227,144199,152243,146211,475075.0,469047.0,477091.0,471059.0,34
4,0,0,0,1,21,test,1,1,m,Tue Apr 21 2026 13:35:11 GMT-0500 (Central Daylight Time),491523.8000000119,I,m,1630,35,1,127.bmp,-120,-120,128.bmp,120,-120,129.bmp,-120,120,130.bmp,120,120,9677.300000011921,481846.5,8107,no,SM,A,129.bmp,120,120,150227,144199,152243,146211,484906.0,478877.0,486921.0,480890.0,35
3,0,0,1,0,22,test,1,1,m,Tue Apr 21 2026 13:35:11 GMT-0500 (Central Daylight Time),500737.6999999881,I,m,1158,36,1,135.bmp,-120,-120,136.bmp,120,-120,137.bmp,-120,120,138.bmp,120,120,9210.899999976158,491526.8000000119,8107,no,SM,A,135.bmp,-120,120,150227,144199,152243,146211,494587.0,488557.0,496601.0,490570.0,36
1,1,0,0,0,23,test,1,1,m,Tue Apr 21 2026 13:35:11 GMT-0500 (Central Daylight Time),509684.6999999881,I,m,887,37,1,139.bmp,-120,-120,140.bmp,120,-120,141.bmp,-120,120,142.bmp,120,120,8944.09999999404,500740.59999999404,8107,no,SM,A,140.bmp,-120,-120,150227,144199,152243,146211,503799.0,497771.0,505815.0,499784.0,37
2,0,1,0,0,23,test,1,0,m,Tue Apr 21 2026 13:35:11 GMT-0500 (Central Daylight Time),519748.3000000119,I,None,2015,38,1,143.bmp,-120,-120,144.bmp,120,-120,145.bmp,-120,120,146.bmp,120,120,10060.600000023842,509687.6999999881,8107,no,SM,A,145.bmp,120,-120,150227,144199,152243,146211,512746.0,506718.0,514763.0,508731.0,38
4,0,0,0,1,24,test,1,1,z,Tue Apr 21 2026 13:35:11 GMT-0500 (Central Daylight Time),529045.599999994,I,z,1244,39,1,147.bmp,-120,-120,148.bmp,120,-120,149.bmp,-120,120,150.bmp,120,120,9294.09999999404,519751.5,8107,yes,SM,A,150.bmp,120,120,150227,144199,152243,146211,522810.0,516782.0,524826.0,518795.0,39
3,0,0,1,0,25,test,1,1,m,Tue Apr 21 2026 13:35:11 GMT-0500 (Central Daylight Time),538709.099999994,I,m,1611,40,1,104.bmp,-120,-120,105.bmp,120,-120,106.bmp,-120,120,107.bmp,120,120,9659.90000000596,529049.1999999881,8107,no,SM,A,105.bmp,-120,120,150227,144199,152243,146211,532107.0,526079.0,534123.0,528091.0,40
1,1,0,0,0,26,test,1,1,z,Tue Apr 21 2026 13:35:11 GMT-0500 (Central Daylight Time),548272.5,I,z,1515,41,1,108.bmp,-120,-120,109.bmp,120,-120,110.bmp,-120,120,111.bmp,120,120,9560.40000000596,538712.099999994,8107,yes,SM,A,108.bmp,-120,-120,150227,144199,152243,146211,541771.0,535742.0,543787.0,537755.0,41
4,0,0,0,1,26,test,1,0,z,Tue Apr 21 2026 13:35:11 GMT-0500 (Central Daylight Time),558336.3000000119,I,None,2016,42,1,112.bmp,-120,-120,113.bmp,120,-120,114.bmp,-120,120,115.bmp,120,120,10060.300000011921,548276.0,8107,yes,SM,A,115.bmp,120,120,150227,144199,152243,146211,551334.0,545306.0,553350.0,547319.0,42
1,1,0,0,0,27,test,1,1,z,Tue Apr 21 2026 13:35:11 GMT-0500 (Central Daylight Time),568033.1999999881,I,z,1633,43,1,116.bmp,-120,-120,117.bmp,120,-120,118.bmp,-120,120,119.bmp,120,120,9693.5,558339.6999999881,8107,yes,SM,A,116.bmp,-120,-120,150227,144199,152243,146211,561399.0,555370.0,563414.0,557382.0,43
4,0,0,0,1,28,test,1,1,m,Tue Apr 21 2026 13:35:11 GMT-0500 (Central Daylight Time),577530.099999994,I,m,1438,44,1,104.bmp,-120,-120,101.bmp,120,-120,102.bmp,-120,120,103.bmp,120,120,9493.90000000596,568036.1999999881,8107,no,SM,A,104.bmp,120,120,150227,144199,152243,146211,571095.0,565066.0,573112.0,567079.0,44
1,1,0,0,0,29,test,1,1,m,Tue Apr 21 2026 13:35:11 GMT-0500 (Central Daylight Time),586810.6999999881,I,m,1231,45,1,128.bmp,-120,-120,129.bmp,120,-120,130.bmp,-120,120,131.bmp,120,120,9277.5,577533.1999999881,8107,no,SM,A,131.bmp,-120,-120,150227,144199,152243,146211,580592.0,574563.0,582608.0,576577.0,45
1,1,0,0,0,30,test,1,1,m,Tue Apr 21 2026 13:35:11 GMT-0500 (Central Daylight Time),596041.0,I,m,1167,46,1,120.bmp,-120,-120,121.bmp,120,-120,122.bmp,-120,120,123.bmp,120,120,9226.90000000596,586814.099999994,8107,no,SM,A,121.bmp,-120,-120,150227,144199,152243,146211,589872.0,583844.0,591888.0,585857.0,46
3,0,0,1,0,30,test,1,0,z,Tue Apr 21 2026 13:35:11 GMT-0500 (Central Daylight Time),606138.0,I,None,2003,47,1,124.bmp,-120,-120,125.bmp,120,-120,126.bmp,-120,120,127.bmp,120,120,10093.699999988079,596044.3000000119,8107,yes,SM,A,126.bmp,-120,120,150227,144199,152243,146211,599103.0,593075.0,601165.0,595087.0,47
3,0,0,1,0,30,test,1,0,z,Tue Apr 21 2026 13:35:11 GMT-0500 (Central Daylight Time),616201.5,I,None,2015,48,1,140.bmp,-120,-120,141.bmp,120,-120,142.bmp,-120,120,143.bmp,120,120,10060.699999988079,606140.8000000119,8107,yes,SM,A,142.bmp,-120,120,150227,144199,152243,146211,609199.0,603171.0,611216.0,605184.0,48
2,0,1,0,0,31,test,1,1,z,Tue Apr 21 2026 13:35:11 GMT-0500 (Central Daylight Time),626198.1999999881,I,z,1936,49,1,136.bmp,-120,-120,137.bmp,120,-120,138.bmp,-120,120,139.bmp,120,120,9992.09999999404,616206.099999994,8107,yes,SM,A,137.bmp,120,-120,150227,144199,152243,146211,619263.0,613236.0,621279.0,615248.0,49
3,0,0,1,0,31,test,1,0,m,Tue Apr 21 2026 13:35:11 GMT-0500 (Central Daylight Time),635696.400000006,I,z,1434,50,1,132.bmp,-120,-120,133.bmp,120,-120,134.bmp,-120,120,135.bmp,120,120,9495.09999999404,626201.3000000119,8107,no,SM,A,132.bmp,-120,120,150227,144199,152243,146211,629260.0,623232.0,631276.0,625245.0,50
2,0,1,0,0,31,test,1,0,z,Tue Apr 21 2026 13:35:11 GMT-0500 (Central Daylight Time),645625.5,I,m,1874,51,1,144.bmp,-120,-120,145.bmp,120,-120,146.bmp,-120,120,147.bmp,120,120,9925.90000000596,635699.599999994,8107,yes,SM,A,145.bmp,120,-120,150227,144199,152243,146211,638757.0,632730.0,640773.0,634741.0,51
4,0,0,0,1,32,test,1,1,m,Tue Apr 21 2026 13:35:11 GMT-0500 (Central Daylight Time),655172.599999994,I,m,1488,52,1,148.bmp,-120,-120,149.bmp,120,-120,150.bmp,-120,120,131.bmp,120,120,9544.199999988079,645628.400000006,8107,no,SM,A,148.bmp,120,120,150227,144199,152243,146211,648687.0,642659.0,650703.0,644672.0,52
3,0,0,1,0,32,test,1,0,z,Tue Apr 21 2026 13:35:11 GMT-0500 (Central Daylight Time),665236.0,I,None,2016,53,1,101.bmp,-120,-120,102.bmp,120,-120,103.bmp,-120,120,104.bmp,120,120,10060.09999999404,655175.900000006,8107,yes,SM,A,103.bmp,-120,120,150227,144199,152243,146211,658234.0,652206.0,660250.0,654219.0,53
1,1,0,0,0,32,test,1,0,m,Tue Apr 21 2026 13:35:11 GMT-0500 (Central Daylight Time),675008.0,I,z,1724,54,1,105.bmp,-120,-120,106.bmp,120,-120,107.bmp,-120,120,108.bmp,120,120,9769.199999988079,665238.8000000119,8107,no,SM,A,107.bmp,-120,-120,150227,144199,152243,146211,668298.0,662269.0,670314.0,664282.0,54
4,0,0,0,1,33,test,1,1,z,Tue Apr 21 2026 13:35:11 GMT-0500 (Central Daylight Time),684546.8000000119,I,z,1497,55,1,109.bmp,-120,-120,110.bmp,120,-120,111.bmp,-120,120,112.bmp,120,120,9535.800000011921,675011.0,8107,yes,SM,A,112.bmp,120,120,150227,144199,152243,146211,678061.0,672041.0,680078.0,674046.0,55
2,0,1,0,0,33,test,1,0,m,Tue Apr 21 2026 13:35:11 GMT-0500 (Central Daylight Time),694610.3000000119,I,None,2016,56,1,113.bmp,-120,-120,114.bmp,120,-120,115.bmp,-120,120,116.bmp,120,120,10060.100000023842,684550.1999999881,8107,no,SM,A,113.bmp,120,-120,150227,144199,152243,146211,687608.0,681580.0,689624.0,683594.0,56
4,0,0,0,1,33,test,1,0,m,Tue Apr 21 2026 13:35:11 GMT-0500 (Central Daylight Time),703858.3000000119,I,z,1198,57,1,117.bmp,-120,-120,118.bmp,120,-120,119.bmp,-120,120,120.bmp,120,120,9245.100000023842,694613.1999999881,8107,no,SM,A,118.bmp,120,120,150227,144199,152243,146211,697672.0,691643.0,699688.0,693657.0,57
3,0,0,1,0,34,test,1,1,z,Tue Apr 21 2026 13:35:11 GMT-0500 (Central Daylight Time),713903.900000006,I,z,1992,58,1,121.bmp,-120,-120,122.bmp,120,-120,123.bmp,-120,120,124.bmp,120,120,10042.200000017881,703861.6999999881,8107,yes,SM,A,123.bmp,-120,120,150227,144199,152243,146211,706919.0,700892.0,708935.0,702904.0,58
2,0,1,0,0,35,test,1,1,m,Tue Apr 21 2026 13:35:11 GMT-0500 (Central Daylight Time),723267.900000006,I,m,1243,59,1,125.bmp,-120,-120,126.bmp,120,-120,127.bmp,-120,120,128.bmp,120,120,9360.40000000596,713907.5,8107,no,SM,A,128.bmp,120,-120,150227,144199,152243,146211,716966.0,710938.0,719044.0,712950.0,59
1,1,0,0,0,36,test,1,1,z,Tue Apr 21 2026 13:35:11 GMT-0500 (Central Daylight Time),733032.599999994,I,z,1700,60,1,129.bmp,-120,-120,130.bmp,120,-120,131.bmp,-120,120,132.bmp,120,120,9761.90000000596,723270.6999999881,8107,yes,SM,A,129.bmp,-120,-120,150227,144199,152243,146211,726329.0,720301.0,728346.0,722314.0,60
2,0,1,0,0,37,test,1,1,z,Tue Apr 21 2026 13:35:11 GMT-0500 (Central Daylight Time),742595.1999999881,I,z,1506,61,1,133.bmp,-120,-120,134.bmp,120,-120,135.bmp,-120,120,136.bmp,120,120,9559.399999976158,733035.8000000119,8107,yes,SM,A,134.bmp,120,-120,150227,144199,152243,146211,736093.0,730066.0,738109.0,732078.0,61
4,0,0,0,1,38,test,1,1,z,Tue Apr 21 2026 13:35:11 GMT-0500 (Central Daylight Time),752175.3000000119,I,z,1517,62,1,141.bmp,-120,-120,142.bmp,120,-120,143.bmp,-120,120,144.bmp,120,120,9576.700000017881,742598.599999994,8107,yes,SM,A,144.bmp,120,120,150227,144199,152243,146211,745657.0,739629.0,747673.0,741641.0,62
1,1,0,0,0,38,test,1,0,m,Tue Apr 21 2026 13:35:11 GMT-0500 (Central Daylight Time),761356.0,I,z,1121,63,1,145.bmp,-120,-120,146.bmp,120,-120,147.bmp,-120,120,148.bmp,120,120,9177.5,752178.5,8107,no,SM,A,145.bmp,-120,120,150227,144199,152243,146211,755237.0,749209.0,757253.0,751222.0,63
2,0,1,0,0,39,test,1,1,z,Tue Apr 21 2026 13:35:11 GMT-0500 (Central Daylight Time),770736.400000006,I,z,1314,64,1,149.bmp,-120,-120,150.bmp,120,-120,112.bmp,-120,120,101.bmp,120,120,9377.5,761358.900000006,8107,yes,SM,A,150.bmp,120,-120,150227,144199,152243,146211,764418.0,758389.0,766436.0,760402.0,64
4,0,0,0,1,39,test,1,0,m,Tue Apr 21 2026 13:35:11 GMT-0500 (Central Daylight Time),779883.400000006,I,z,1088,65,1,102.bmp,-120,-120,103.bmp,120,-120,104.bmp,-120,120,105.bmp,120,120,9144.0,770739.400000006,8107,no,SM,A,104.bmp,120,120,150227,144199,152243,146211,773798.0,767770.0,775814.0,769782.0,65
3,0,0,1,0,40,test,1,1,m,Tue Apr 21 2026 13:35:11 GMT-0500 (Central Daylight Time),789246.900000006,I,m,1310,66,1,106.bmp,-120,-120,107.bmp,120,-120,108.bmp,-120,120,109.bmp,120,120,9360.59999999404,779886.3000000119,8107,no,SM,A,109.bmp,-120,120,150227,144199,152243,146211,782945.0,776917.0,784961.0,778931.0,66
2,0,1,0,0,41,test,1,1,m,Tue Apr 21 2026 13:35:11 GMT-0500 (Central Daylight Time),798910.6999999881,I,m,1601,67,1,137.bmp,-120,-120,138.bmp,120,-120,139.bmp,-120,120,140.bmp,120,120,9660.699999988079,789250.0,8107,no,SM,A,139.bmp,120,-120,150227,144199,152243,146211,792309.0,786280.0,794325.0,788293.0,67
3,0,0,1,0,42,test,1,1,z,Tue Apr 21 2026 13:35:11 GMT-0500 (Central Daylight Time),808557.900000006,I,z,1595,68,1,110.bmp,-120,-120,111.bmp,120,-120,112.bmp,-120,120,113.bmp,120,120,9643.800000011921,798914.099999994,8107,yes,SM,A,112.bmp,-120,120,150227,144199,152243,146211,801972.0,795944.0,803988.0,797957.0,68
1,1,0,0,0,43,test,1,1,m,Tue Apr 21 2026 13:35:11 GMT-0500 (Central Daylight Time),818087.900000006,I,m,1475,69,1,114.bmp,-120,-120,115.bmp,120,-120,116.bmp,-120,120,117.bmp,120,120,9527.09999999404,808560.8000000119,8107,no,SM,A,115.bmp,-120,-120,150227,144199,152243,146211,811619.0,805591.0,813635.0,807605.0,69
2,0,1,0,0,44,test,1,1,m,Tue Apr 21 2026 13:35:11 GMT-0500 (Central Daylight Time),827401.6999999881,I,m,1264,70,1,118.bmp,-120,-120,119.bmp,120,-120,120.bmp,-120,120,121.bmp,120,120,9310.799999982119,818090.900000006,8107,no,SM,A,120.bmp,120,-120,150227,144199,152243,146211,821150.0,815121.0,823166.0,817135.0,70
4,0,0,0,1,44,test,1,0,z,Tue Apr 21 2026 13:35:11 GMT-0500 (Central Daylight Time),836648.8000000119,I,m,1199,71,1,122.bmp,-120,-120,123.bmp,120,-120,124.bmp,-120,120,125.bmp,120,120,9244.200000017881,827404.599999994,8107,yes,SM,A,125.bmp,120,120,150227,144199,152243,146211,830463.0,824435.0,832479.0,826448.0,71
1,1,0,0,0,45,test,1,1,z,Tue Apr 21 2026 13:35:11 GMT-0500 (Central Daylight Time),845812.900000006,I,z,1111,72,1,126.bmp,-120,-120,127.bmp,120,-120,128.bmp,-120,120,129.bmp,120,120,9161.200000017881,836651.6999999881,8107,yes,SM,A,126.bmp,-120,-120,150227,144199,152243,146211,839712.0,833682.0,841727.0,835695.0,72
2,0,1,0,0,45,test,1,0,z,Tue Apr 21 2026 13:35:11 GMT-0500 (Central Daylight Time),854976.599999994,I,m,1101,73,1,130.bmp,-120,-120,131.bmp,120,-120,132.bmp,-120,120,133.bmp,120,120,9161.0,845815.599999994,8107,yes,SM,A,131.bmp,120,-120,150227,144199,152243,146211,848874.0,842846.0,850890.0,844859.0,73
4,0,0,0,1,46,test,1,1,m,Tue Apr 21 2026 13:35:11 GMT-0500 (Central Daylight Time),864490.1999999881,I,m,1457,74,1,134.bmp,-120,-120,135.bmp,120,-120,136.bmp,-120,120,137.bmp,120,120,9510.299999982119,854979.900000006,8107,no,SM,A,136.bmp,120,120,150227,144199,152243,146211,858038.0,852010.0,860054.0,854023.0,74
2,0,1,0,0,47,test,1,1,m,Tue Apr 21 2026 13:35:11 GMT-0500 (Central Daylight Time),873620.6999999881,I,m,1079,75,1,138.bmp,-120,-120,139.bmp,120,-120,140.bmp,-120,120,141.bmp,120,120,9127.399999976158,864493.3000000119,8107,no,SM,A,141.bmp,120,-120,150227,144199,152243,146211,867552.0,861523.0,869568.0,863536.0,75
1,1,0,0,0,48,test,1,1,z,Tue Apr 21 2026 13:35:11 GMT-0500 (Central Daylight Time),883051.1999999881,I,z,1372,76,1,142.bmp,-120,-120,143.bmp,120,-120,144.bmp,-120,120,145.bmp,120,120,9427.09999999404,873624.099999994,8107,yes,SM,A,142.bmp,-120,-120,150227,144199,152243,146211,876682.0,870654.0,878699.0,872667.0,76
3,0,0,1,0,48,test,1,0,z,Tue Apr 21 2026 13:35:11 GMT-0500 (Central Daylight Time),892549.099999994,I,m,1446,77,1,150.bmp,-120,-120,111.bmp,120,-120,101.bmp,-120,120,102.bmp,120,120,9494.799999982119,883054.3000000119,8107,yes,SM,A,101.bmp,-120,120,150227,144199,152243,146211,886113.0,880085.0,888129.0,882097.0,77
1,1,0,0,0,49,test,1,1,m,Tue Apr 21 2026 13:35:11 GMT-0500 (Central Daylight Time),901811.900000006,I,m,1205,78,1,146.bmp,-120,-120,147.bmp,120,-120,148.bmp,-120,120,149.bmp,120,120,9258.800000011921,892553.099999994,8107,no,SM,A,147.bmp,-120,-120,150227,144199,152243,146211,895610.0,889583.0,897626.0,891594.0,78
4,0,0,0,1,50,test,1,1,m,Tue Apr 21 2026 13:35:11 GMT-0500 (Central Daylight Time),911109.0,I,m,1244,79,1,107.bmp,-120,-120,108.bmp,120,-120,109.bmp,-120,120,110.bmp,120,120,9293.699999988079,901815.3000000119,8107,no,SM,A,107.bmp,120,120,150227,144199,152243,146211,904873.0,898846.0,906890.0,900858.0,79
3,0,0,1,0,51,test,1,1,m,Tue Apr 21 2026 13:35:11 GMT-0500 (Central Daylight Time),920855.900000006,I,m,1683,80,1,103.bmp,-120,-120,104.bmp,120,-120,105.bmp,-120,120,106.bmp,120,120,9743.40000000596,911112.5,8107,no,SM,A,106.bmp,-120,120,150227,144199,152243,146211,914170.0,908143.0,916187.0,910156.0,80
