acc_sum,block_c,block_dur,condition,correct,correct_response,countdown,datetime,endtime,project,response,response_time,response_time_test1_response,response_time_test2_response,row_sel,same,session_number,start_end,starttime,stim1,stim2,subject_id,task,task_vers,time_test1,time_test2,trial
0,1,0.0,prac,0,z,30000.0,Wed May 20 2026 19:22:20 GMT-0500 (Central Daylight Time),27819.0,I,m,2794,,,5,yes,1,4311.600000023842,23507.399999976158,practrial5.png,practrial5.png,8114,PC,B,,,1
1,1,0.0,prac,1,z,30000.0,Wed May 20 2026 19:22:20 GMT-0500 (Central Daylight Time),30968.0,I,z,1621,,,1,yes,1,3143.7000000476837,27824.299999952316,practrial1.png,practrial1.png,8114,PC,B,,,2
2,1,0.0,prac,1,z,30000.0,Wed May 20 2026 19:22:20 GMT-0500 (Central Daylight Time),33435.299999952316,I,z,945,,,3,yes,1,2463.600000023842,30971.699999928474,practrial3.png,practrial3.png,8114,PC,B,,,3
2,1,0.0,prac,0,m,30000.0,Wed May 20 2026 19:22:20 GMT-0500 (Central Daylight Time),35816.39999997616,I,z,853,,,6,no,1,2376.7000000476837,33439.699999928474,practrial6.png,practrial6b.png,8114,PC,B,,,4
3,1,0.0,prac,1,m,30000.0,Wed May 20 2026 19:22:20 GMT-0500 (Central Daylight Time),38465.799999952316,I,m,1112,,,4,no,1,2645.5,35820.299999952316,practrial4.png,practrial4b.png,8114,PC,B,,,5
4,1,0.0,prac,1,m,30000.0,Wed May 20 2026 19:22:20 GMT-0500 (Central Daylight Time),41114.799999952316,I,m,1127,,,2,no,1,2644.600000023842,38470.199999928474,practrial2.png,practrial2b.png,8114,PC,B,,,6
1,1,1.2829999923706055,test,1,z,28717.000007629395,Wed May 20 2026 19:22:20 GMT-0500 (Central Daylight Time),52244.699999928474,I,z,1263,1263,,1,yes,1,1279.8999999761581,50964.799999952316,test1trial1.png,test1trial1.png,8114,PC,B,48551,,1
2,1,2.3489999771118164,test,1,m,27651.000022888184,Wed May 20 2026 19:22:20 GMT-0500 (Central Daylight Time),53310.89999997616,I,m,1060,1060,,2,no,1,1062.8999999761581,52248.0,test1trial2.png,test1trial2b.png,8114,PC,B,49834,,2
3,1,3.5329999923706055,test,1,z,26467.000007629395,Wed May 20 2026 19:22:20 GMT-0500 (Central Daylight Time),54494.89999997616,I,z,1178,1178,,3,yes,1,1180.8999999761581,53314.0,test1trial3.png,test1trial3.png,8114,PC,B,50900,,3
4,1,4.531000137329102,test,1,m,25468.9998626709,Wed May 20 2026 19:22:20 GMT-0500 (Central Daylight Time),55493.39999997616,I,m,995,995,,4,no,1,995.8000000715256,54497.59999990463,test1trial4.png,test1trial4b.png,8114,PC,B,52083,,4
5,1,5.615000009536743,test,1,z,24384.999990463257,Wed May 20 2026 19:22:20 GMT-0500 (Central Daylight Time),56576.799999952316,I,z,1068,1068,,5,yes,1,1080.2999999523163,55496.5,test1trial5.png,test1trial5.png,8114,PC,B,53082,,5
6,1,6.5980000495910645,test,1,m,23401.999950408936,Wed May 20 2026 19:22:20 GMT-0500 (Central Daylight Time),57559.799999952316,I,m,977,977,,6,no,1,979.8999999761581,56579.89999997616,test1trial6.png,test1trial6b.png,8114,PC,B,54166,,6
7,1,7.581000089645386,test,1,z,22418.999910354614,Wed May 20 2026 19:22:20 GMT-0500 (Central Daylight Time),58543.09999990463,I,z,970,970,,7,yes,1,980.1999999284744,57562.89999997616,test1trial7.png,test1trial7.png,8114,PC,B,55148,,7
8,1,9.02999997138977,test,1,m,20970.00002861023,Wed May 20 2026 19:22:20 GMT-0500 (Central Daylight Time),59992.09999990463,I,m,1443,1443,,8,no,1,1445.6999999284744,58546.39999997616,test1trial8.png,test1trial8b.png,8114,PC,B,56132,,8
9,1,10.111999988555908,test,1,z,19888.00001144409,Wed May 20 2026 19:22:20 GMT-0500 (Central Daylight Time),61075.39999997616,I,z,1074,1074,,9,yes,1,1080.5,59994.89999997616,test1trial9.png,test1trial9.png,8114,PC,B,57580,,9
10,1,10.995000123977661,test,1,m,19004.99987602234,Wed May 20 2026 19:22:20 GMT-0500 (Central Daylight Time),61958.09999990463,I,m,878,878,,10,no,1,879.7999999523163,61078.299999952316,test1trial10.png,test1trial10b.png,8114,PC,B,58664,,10
11,1,11.778000116348267,test,1,z,18221.999883651733,Wed May 20 2026 19:22:20 GMT-0500 (Central Daylight Time),62741.5,I,z,764,764,,11,yes,1,780.7000000476837,61960.799999952316,test1trial11.png,test1trial11.png,8114,PC,B,59546,,11
11,1,12.811000108718872,test,0,m,17188.999891281128,Wed May 20 2026 19:22:20 GMT-0500 (Central Daylight Time),63774.59999990463,I,z,1013,1013,,12,no,1,1030.0,62744.59999990463,test1trial12.png,test1trial12b.png,8114,PC,B,60330,,12
12,1,13.877000093460083,test,1,m,16122.999906539917,Wed May 20 2026 19:22:20 GMT-0500 (Central Daylight Time),64840.699999928474,I,m,1059,1059,,13,no,1,1062.6999999284744,63778.0,test1trial13.png,test1trial13b.png,8114,PC,B,61364,,13
13,1,14.844000101089478,test,1,m,15155.999898910522,Wed May 20 2026 19:22:20 GMT-0500 (Central Daylight Time),65807.69999992847,I,m,954,954,,14,no,1,964.1999999284744,64843.5,test1trial14.png,test1trial14b.png,8114,PC,B,62429,,14
14,1,15.710000038146973,test,1,z,14289.999961853027,Wed May 20 2026 19:22:20 GMT-0500 (Central Daylight Time),66673.5,I,z,859,859,,15,yes,1,862.9000000953674,65810.59999990463,test1trial15.png,test1trial15.png,8114,PC,B,63396,,15
15,1,16.777000188827515,test,1,m,13222.999811172485,Wed May 20 2026 19:22:20 GMT-0500 (Central Daylight Time),67740.0,I,m,1056,1056,,16,no,1,1063.4000000953674,66676.59999990463,test1trial16.png,test1trial16b.png,8114,PC,B,64262,,16
16,1,18.110000133514404,test,1,z,11889.999866485596,Wed May 20 2026 19:22:20 GMT-0500 (Central Daylight Time),69072.89999997616,I,z,1317,1317,,17,yes,1,1329.8999999761581,67743.0,test1trial17.png,test1trial17.png,8114,PC,B,65328,,17
17,1,19.159000158309937,test,1,m,10840.999841690063,Wed May 20 2026 19:22:20 GMT-0500 (Central Daylight Time),70122.5,I,m,1040,1040,,18,no,1,1046.8000000715256,69075.69999992847,test1trial18.png,test1trial18b.png,8114,PC,B,66662,,18
18,1,20.77500009536743,test,1,m,9224.999904632568,Wed May 20 2026 19:22:20 GMT-0500 (Central Daylight Time),71738.39999997616,I,m,1606,1606,,19,no,1,1613.2000000476837,70125.19999992847,test1trial19.png,test1trial19b.png,8114,PC,B,67712,,19
19,1,21.758000135421753,test,1,z,8241.999864578247,Wed May 20 2026 19:22:20 GMT-0500 (Central Daylight Time),72721.69999992847,I,z,966,966,,20,yes,1,979.2999999523163,71742.39999997616,test1trial20.png,test1trial20.png,8114,PC,B,69328,,20
20,1,22.657999992370605,test,1,z,7342.0000076293945,Wed May 20 2026 19:22:20 GMT-0500 (Central Daylight Time),73621.19999992847,I,z,896,896,,21,yes,1,896.6000000238419,72724.59999990463,test1trial21.png,test1trial21.png,8114,PC,B,70310,,21
21,1,23.674000024795532,test,1,z,6325.999975204468,Wed May 20 2026 19:22:20 GMT-0500 (Central Daylight Time),74637.29999995232,I,z,996,996,,22,yes,1,1012.7999999523163,73624.5,test1trial22.png,test1trial22.png,8114,PC,B,71210,,22
22,1,24.574000120162964,test,1,z,5425.999879837036,Wed May 20 2026 19:22:20 GMT-0500 (Central Daylight Time),75537.19999992847,I,z,884,884,,23,yes,1,896.6999999284744,74640.5,test1trial23.png,test1trial23.png,8114,PC,B,72226,,23
23,1,25.59000015258789,test,1,z,4409.999847412109,Wed May 20 2026 19:22:20 GMT-0500 (Central Daylight Time),76553.39999997616,I,z,1009,1009,,24,yes,1,1013.7000000476837,75539.69999992847,test1trial24.png,test1trial24.png,8114,PC,B,73125,,24
24,1,26.67300009727478,test,1,m,3326.9999027252197,Wed May 20 2026 19:22:20 GMT-0500 (Central Daylight Time),77636.39999997616,I,m,1064,1064,,25,no,1,1080.3000000715256,76556.09999990463,test1trial25.png,test1trial25b.png,8114,PC,B,74142,,25
25,1,27.555999994277954,test,1,m,2444.000005722046,Wed May 20 2026 19:22:20 GMT-0500 (Central Daylight Time),78519.5,I,m,869,869,,26,no,1,880.2000000476837,77639.29999995232,test1trial26.png,test1trial26b.png,8114,PC,B,75225,,26
26,1,28.623000144958496,test,1,m,1376.999855041504,Wed May 20 2026 19:22:20 GMT-0500 (Central Daylight Time),79585.79999995232,I,m,1058,1058,,27,no,1,1063.7000000476837,78522.09999990463,practrial6.png,practrial6b.png,8114,PC,B,76108,,27
27,1,29.67200016975403,test,1,z,327.9998302459717,Wed May 20 2026 19:22:20 GMT-0500 (Central Daylight Time),80635.39999997616,I,z,1032,1032,,28,yes,1,1046.6000000238419,79588.79999995232,practrial1.png,practrial1.png,8114,PC,B,77174,,28
27,1,30.005000114440918,test,0,m,-5.000114440917969,Wed May 20 2026 19:22:20 GMT-0500 (Central Daylight Time),80968.69999992847,I,None,329,329,,29,no,1,329.7999999523163,80638.89999997616,practrial2.png,practrial2b.png,8114,PC,B,78225,,29
1,2,1.3329999446868896,test,1,m,28667.00005531311,Wed May 20 2026 19:22:20 GMT-0500 (Central Daylight Time),92515.29999995232,I,m,1324,,1324.0,1,no,1,11876.399999976158,80638.89999997616,test2trial1.png,test2trial1b.png,8114,PC,B,,88770.0,1
2,2,2.6989998817443848,test,1,m,27301.000118255615,Wed May 20 2026 19:22:20 GMT-0500 (Central Daylight Time),93881.5,I,m,1349,,1349.0,2,no,1,13242.600000023842,80638.89999997616,test2trial2.png,test2trial2b.png,8114,PC,B,,90105.0,2
3,2,4.085000038146973,test,1,z,25914.999961853027,Wed May 20 2026 19:22:20 GMT-0500 (Central Daylight Time),95267.5,I,z,1368,,1368.0,3,yes,1,14628.600000023842,80638.89999997616,test2trial3.png,test2trial3.png,8114,PC,B,,91470.0,3
4,2,4.914999961853027,test,1,z,25085.000038146973,Wed May 20 2026 19:22:20 GMT-0500 (Central Daylight Time),96097.39999997616,I,z,824,,824.0,4,yes,1,15458.5,80638.89999997616,test2trial4.png,test2trial4.png,8114,PC,B,,92856.0,4
5,2,5.937000036239624,test,1,z,24062.999963760376,Wed May 20 2026 19:22:20 GMT-0500 (Central Daylight Time),97119.0,I,z,1001,,1001.0,5,yes,1,16480.100000023842,80638.89999997616,test2trial5.png,test2trial5.png,8114,PC,B,,93686.0,5
6,2,7.13100004196167,test,1,z,22868.99995803833,Wed May 20 2026 19:22:20 GMT-0500 (Central Daylight Time),98313.29999995232,I,z,1183,,1183.0,6,yes,1,17674.399999976158,80638.89999997616,test2trial6.png,test2trial6.png,8114,PC,B,,94711.0,6
7,2,8.081000089645386,test,1,m,21918.999910354614,Wed May 20 2026 19:22:20 GMT-0500 (Central Daylight Time),99263.0,I,m,943,,943.0,7,no,1,18624.100000023842,80638.89999997616,test2trial7.png,test2trial7b.png,8114,PC,B,,95903.0,7
8,2,9.114000082015991,test,1,m,20885.99991798401,Wed May 20 2026 19:22:20 GMT-0500 (Central Daylight Time),100296.5,I,m,1026,,1026.0,8,no,1,19657.600000023842,80638.89999997616,test2trial8.png,test2trial8b.png,8114,PC,B,,96852.0,8
9,2,10.44700002670288,test,1,z,19552.99997329712,Wed May 20 2026 19:22:20 GMT-0500 (Central Daylight Time),101629.09999990463,I,z,1313,,1313.0,9,yes,1,20990.199999928474,80638.89999997616,test2trial9.png,test2trial9.png,8114,PC,B,,97885.0,9
10,2,11.379999876022339,test,1,z,18620.00012397766,Wed May 20 2026 19:22:20 GMT-0500 (Central Daylight Time),102561.89999997616,I,z,916,,916.0,10,yes,1,21923.0,80638.89999997616,test2trial10.png,test2trial10.png,8114,PC,B,,99218.0,10
11,2,12.229000091552734,test,1,m,17770.999908447266,Wed May 20 2026 19:22:20 GMT-0500 (Central Daylight Time),103411.69999992847,I,m,832,,832.0,11,no,1,22772.799999952316,80638.89999997616,test2trial11.png,test2trial11b.png,8114,PC,B,,100150.0,11
12,2,13.361999988555908,test,1,m,16638.00001144409,Wed May 20 2026 19:22:20 GMT-0500 (Central Daylight Time),104544.69999992847,I,m,1126,,1126.0,12,no,1,23905.799999952316,80638.89999997616,test2trial12.png,test2trial12b.png,8114,PC,B,,101000.0,12
13,2,14.828999996185303,test,1,z,15171.000003814697,Wed May 20 2026 19:22:20 GMT-0500 (Central Daylight Time),106010.89999997616,I,z,1449,,1449.0,13,yes,1,25372.0,80638.89999997616,test2trial13.png,test2trial13.png,8114,PC,B,,102133.0,13
14,2,16.227999925613403,test,1,m,13772.000074386597,Wed May 20 2026 19:22:20 GMT-0500 (Central Daylight Time),107410.39999997616,I,m,1391,,1391.0,14,no,1,26771.5,80638.89999997616,test2trial14.png,test2trial14b.png,8114,PC,B,,103599.0,14
15,2,17.045000076293945,test,1,m,12954.999923706055,Wed May 20 2026 19:22:20 GMT-0500 (Central Daylight Time),108226.79999995232,I,m,807,,807.0,15,no,1,27587.899999976158,80638.89999997616,test2trial15.png,test2trial15b.png,8114,PC,B,,104999.0,15
16,2,18.210999965667725,test,1,m,11789.000034332275,Wed May 20 2026 19:22:20 GMT-0500 (Central Daylight Time),109393.09999990463,I,m,1159,,1159.0,16,no,1,28754.199999928474,80638.89999997616,test2trial16.png,test2trial16b.png,8114,PC,B,,105815.0,16
17,2,19.293999910354614,test,1,z,10706.000089645386,Wed May 20 2026 19:22:20 GMT-0500 (Central Daylight Time),110476.19999992847,I,z,1064,,1064.0,17,yes,1,29837.299999952316,80638.89999997616,test2trial17.png,test2trial17.png,8114,PC,B,,106982.0,17
18,2,20.259999990463257,test,1,z,9740.000009536743,Wed May 20 2026 19:22:20 GMT-0500 (Central Daylight Time),111442.5,I,z,950,,950.0,18,yes,1,30803.600000023842,80638.89999997616,test2trial18.png,test2trial18.png,8114,PC,B,,108064.0,18
19,2,21.542999982833862,test,1,z,8457.000017166138,Wed May 20 2026 19:22:20 GMT-0500 (Central Daylight Time),112725.39999997616,I,z,1263,,1263.0,19,yes,1,32086.5,80638.89999997616,test2trial19.png,test2trial19.png,8114,PC,B,,109031.0,19
20,2,22.70899987220764,test,1,z,7291.000127792358,Wed May 20 2026 19:22:20 GMT-0500 (Central Daylight Time),113891.69999992847,I,z,1156,,1156.0,20,yes,1,33252.799999952316,80638.89999997616,test2trial20.png,test2trial20.png,8114,PC,B,,110314.0,20
21,2,24.20899987220764,test,1,z,5791.000127792358,Wed May 20 2026 19:22:20 GMT-0500 (Central Daylight Time),115391.29999995232,I,z,1494,,1494.0,21,yes,1,34752.39999997616,80638.89999997616,test2trial21.png,test2trial21.png,8114,PC,B,,111480.0,21
22,2,25.30900001525879,test,1,m,4690.999984741211,Wed May 20 2026 19:22:20 GMT-0500 (Central Daylight Time),116490.89999997616,I,m,1082,,1082.0,22,no,1,35852.0,80638.89999997616,test2trial22.png,test2trial22b.png,8114,PC,B,,112980.0,22
23,2,27.375,test,1,m,2625.0,Wed May 20 2026 19:22:20 GMT-0500 (Central Daylight Time),118556.89999997616,I,m,2055,,2055.0,23,no,1,37918.0,80638.89999997616,test2trial23.png,test2trial23b.png,8114,PC,B,,114079.0,23
24,2,28.35800004005432,test,1,m,1641.9999599456787,Wed May 20 2026 19:22:20 GMT-0500 (Central Daylight Time),119539.89999997616,I,m,965,,965.0,24,no,1,38901.0,80638.89999997616,test2trial24.png,test2trial24b.png,8114,PC,B,,116145.0,24
25,2,29.539999961853027,test,1,z,460.00003814697266,Wed May 20 2026 19:22:20 GMT-0500 (Central Daylight Time),120723.09999990463,I,z,1166,,1166.0,25,yes,1,40084.199999928474,80638.89999997616,test2trial25.png,test2trial25.png,8114,PC,B,,117128.0,25
25,2,30.00600004196167,test,0,z,-6.000041961669922,Wed May 20 2026 19:22:20 GMT-0500 (Central Daylight Time),121189.69999992847,I,None,463,,463.0,26,no,1,40550.799999952316,80638.89999997616,test2trial26.png,test2trial26b.png,8114,PC,B,,118312.0,26
