acc_sum,block_c,block_dur,condition,correct,correct_response,countdown,datetime,endtime,project,response,response_time,response_time_test1_response,response_time_test2_response,row_sel,same,session_number,start_end,starttime,stim1,stim2,subject_id,task,task_vers,time_test1,time_test2,trial
1,1,0.0,prac,1,z,30000.0,Tue Mar 03 2026 12:19:51 GMT-0600 (Central Standard Time),57077.39999997616,O,z,3469,,,1,yes,1,4994.600000023842,52082.799999952316,practrial1.png,practrial1.png,7762,PC,A,,,1
2,1,0.0,prac,1,m,30000.0,Tue Mar 03 2026 12:19:51 GMT-0600 (Central Standard Time),61559.09999990463,O,m,2950,,,4,no,1,4476.899999976158,57082.199999928474,practrial4.png,practrial4b.png,7762,PC,A,,,2
3,1,0.0,prac,1,z,30000.0,Tue Mar 03 2026 12:19:51 GMT-0600 (Central Standard Time),65474.59999990463,O,z,2389,,,5,yes,1,3911.399999976158,61563.199999928474,practrial5.png,practrial5.png,7762,PC,A,,,3
4,1,0.0,prac,1,m,30000.0,Tue Mar 03 2026 12:19:51 GMT-0600 (Central Standard Time),68623.5,O,m,1618,,,2,no,1,3145.100000023842,65478.39999997616,practrial2.png,practrial2b.png,7762,PC,A,,,4
5,1,0.0,prac,1,m,30000.0,Tue Mar 03 2026 12:19:51 GMT-0600 (Central Standard Time),71839.29999995232,O,m,1685,,,6,no,1,3212.100000023842,68627.19999992847,practrial6.png,practrial6b.png,7762,PC,A,,,5
6,1,0.0,prac,1,z,30000.0,Tue Mar 03 2026 12:19:51 GMT-0600 (Central Standard Time),74721.79999995232,O,z,1357,,,3,yes,1,2878.600000023842,71843.19999992847,practrial3.png,practrial3.png,7762,PC,A,,,6
1,1,2.2660000324249268,test,1,z,27733.999967575073,Tue Mar 03 2026 12:19:51 GMT-0600 (Central Standard Time),97014.69999992847,O,z,2257,2257,,1,yes,1,2263.600000023842,94751.09999990463,test1trial1.png,test1trial1.png,7762,PC,A,92685,,1
2,1,3.565000057220459,test,1,m,26434.99994277954,Tue Mar 03 2026 12:19:51 GMT-0600 (Central Standard Time),98314.19999992847,O,m,1294,1294,,2,no,1,1296.2999999523163,97017.89999997616,test1trial2.png,test1trial2b.png,7762,PC,A,94952,,2
3,1,5.232000112533569,test,1,z,24767.99988746643,Tue Mar 03 2026 12:19:51 GMT-0600 (Central Standard Time),99980.39999997616,O,z,1660,1660,,3,yes,1,1663.5,98316.89999997616,test1trial3.png,test1trial3.png,7762,PC,A,96251,,3
4,1,6.432000160217285,test,1,m,23567.999839782715,Tue Mar 03 2026 12:19:51 GMT-0600 (Central Standard Time),101180.19999992847,O,m,1186,1186,,4,no,1,1197.0,99983.19999992847,test1trial4.png,test1trial4b.png,7762,PC,A,97917,,4
5,1,8.064000129699707,test,1,z,21935.999870300293,Tue Mar 03 2026 12:19:51 GMT-0600 (Central Standard Time),102812.59999990463,O,z,1625,1625,,5,yes,1,1629.5999999046326,101183.0,test1trial5.png,test1trial5.png,7762,PC,A,99117,,5
6,1,9.746999979019165,test,1,m,20253.000020980835,Tue Mar 03 2026 12:19:51 GMT-0600 (Central Standard Time),104495.59999990463,O,m,1674,1674,,6,no,1,1680.0,102815.59999990463,test1trial6.png,test1trial6b.png,7762,PC,A,100749,,6
7,1,11.246000051498413,test,1,z,18753.999948501587,Tue Mar 03 2026 12:19:51 GMT-0600 (Central Standard Time),105995.09999990463,O,z,1495,1495,,7,yes,1,1496.6999999284744,104498.39999997616,test1trial7.png,test1trial7.png,7762,PC,A,102432,,7
8,1,13.446000099182129,test,1,m,16553.99990081787,Tue Mar 03 2026 12:19:51 GMT-0600 (Central Standard Time),108194.19999992847,O,m,2194,2194,,8,no,1,2196.2999999523163,105997.89999997616,test1trial8.png,test1trial8b.png,7762,PC,A,103932,,8
9,1,14.995000123977661,test,1,z,15004.999876022339,Tue Mar 03 2026 12:19:51 GMT-0600 (Central Standard Time),109743.89999997616,O,z,1531,1531,,9,yes,1,1546.8999999761581,108197.0,test1trial9.png,test1trial9.png,7762,PC,A,106131,,9
10,1,17.26200008392334,test,1,m,12737.99991607666,Tue Mar 03 2026 12:19:51 GMT-0600 (Central Standard Time),112011.09999990463,O,m,2254,2254,,10,no,1,2264.5,109746.59999990463,test1trial10.png,test1trial10b.png,7762,PC,A,107680,,10
11,1,18.66100001335144,test,1,z,11338.99998664856,Tue Mar 03 2026 12:19:51 GMT-0600 (Central Standard Time),113409.69999992847,O,z,1387,1387,,11,yes,1,1395.7999999523163,112013.89999997616,test1trial11.png,test1trial11.png,7762,PC,A,109948,,11
11,1,20.544000148773193,test,0,m,9455.999851226807,Tue Mar 03 2026 12:19:51 GMT-0600 (Central Standard Time),115292.29999995232,O,z,1875,1875,,12,no,1,1879.5,113412.79999995232,test1trial12.png,test1trial12b.png,7762,PC,A,111347,,12
12,1,22.308000087738037,test,1,m,7691.999912261963,Tue Mar 03 2026 12:19:51 GMT-0600 (Central Standard Time),117058.19999992847,O,m,1761,1761,,13,no,1,1763.2999999523163,115294.89999997616,test1trial13.png,test1trial13b.png,7762,PC,A,113229,,13
12,1,24.157999992370605,test,0,m,5842.0000076293945,Tue Mar 03 2026 12:19:51 GMT-0600 (Central Standard Time),118907.5,O,z,1843,1843,,14,no,1,1846.8000000715256,117060.69999992847,test1trial14.png,test1trial14b.png,7762,PC,A,114995,,14
13,1,26.807000160217285,test,1,z,3192.999839782715,Tue Mar 03 2026 12:19:51 GMT-0600 (Central Standard Time),121557.29999995232,O,z,2642,2642,,15,yes,1,2646.7999999523163,118910.5,test1trial15.png,test1trial15.png,7762,PC,A,116844,,15
14,1,28.457000017166138,test,1,m,1542.9999828338623,Tue Mar 03 2026 12:19:51 GMT-0600 (Central Standard Time),123206.59999990463,O,m,1641,1641,,16,no,1,1646.5999999046326,121560.0,test1trial16.png,test1trial16b.png,7762,PC,A,119494,,16
14,1,30.00600004196167,test,0,z,-6.000041961669922,Tue Mar 03 2026 12:19:51 GMT-0600 (Central Standard Time),124756.09999990463,O,None,1546,1546,,17,yes,1,1546.5,123209.59999990463,test1trial17.png,test1trial17.png,7762,PC,A,121143,,17
1,2,1.6489999294281006,test,1,m,28351.0000705719,Tue Mar 03 2026 12:19:51 GMT-0600 (Central Standard Time),131353.89999997616,O,m,1630,,1630.0,1,no,1,8144.300000071526,123209.59999990463,test2trial1.png,test2trial1b.png,7762,PC,A,,127641.0,1
2,2,3.181999921798706,test,1,m,26818.000078201294,Tue Mar 03 2026 12:19:51 GMT-0600 (Central Standard Time),132886.89999997616,O,m,1515,,1515.0,2,no,1,9677.300000071526,123209.59999990463,test2trial2.png,test2trial2b.png,7762,PC,A,,129291.0,2
3,2,4.2829999923706055,test,1,z,25717.000007629395,Tue Mar 03 2026 12:19:51 GMT-0600 (Central Standard Time),133987.5,O,z,1095,,1095.0,3,yes,1,10777.900000095367,123209.59999990463,test2trial3.png,test2trial3.png,7762,PC,A,,130823.0,3
4,2,5.914999961853027,test,1,z,24085.000038146973,Tue Mar 03 2026 12:19:51 GMT-0600 (Central Standard Time),135619.39999997616,O,z,1618,,1618.0,4,yes,1,12409.800000071526,123209.59999990463,test2trial4.png,test2trial4.png,7762,PC,A,,131924.0,4
5,2,7.296999931335449,test,1,z,22703.00006866455,Tue Mar 03 2026 12:19:51 GMT-0600 (Central Standard Time),137002.0,O,z,1378,,1378.0,5,yes,1,13792.400000095367,123209.59999990463,test2trial5.png,test2trial5.png,7762,PC,A,,133556.0,5
6,2,8.846999883651733,test,1,z,21153.000116348267,Tue Mar 03 2026 12:19:51 GMT-0600 (Central Standard Time),138551.89999997616,O,z,1540,,1540.0,6,yes,1,15342.300000071526,123209.59999990463,test2trial6.png,test2trial6.png,7762,PC,A,,134939.0,6
7,2,10.562999963760376,test,1,m,19437.000036239624,Tue Mar 03 2026 12:19:51 GMT-0600 (Central Standard Time),140267.69999992847,O,m,1701,,1701.0,7,no,1,17058.100000023842,123209.59999990463,test2trial7.png,test2trial7b.png,7762,PC,A,,136489.0,7
8,2,11.728999853134155,test,1,m,18271.000146865845,Tue Mar 03 2026 12:19:51 GMT-0600 (Central Standard Time),141433.89999997616,O,m,1162,,1162.0,8,no,1,18224.300000071526,123209.59999990463,test2trial8.png,test2trial8b.png,7762,PC,A,,138204.0,8
9,2,12.928999900817871,test,1,z,17071.00009918213,Tue Mar 03 2026 12:19:51 GMT-0600 (Central Standard Time),142633.59999990463,O,z,1195,,1195.0,9,yes,1,19424.0,123209.59999990463,test2trial9.png,test2trial9.png,7762,PC,A,,139370.0,9
10,2,14.527999877929688,test,1,z,15472.000122070312,Tue Mar 03 2026 12:19:51 GMT-0600 (Central Standard Time),144233.0,O,z,1588,,1588.0,10,yes,1,21023.400000095367,123209.59999990463,test2trial10.png,test2trial10.png,7762,PC,A,,140570.0,10
11,2,16.628000020980835,test,1,m,13371.999979019165,Tue Mar 03 2026 12:19:51 GMT-0600 (Central Standard Time),146332.69999992847,O,m,2094,,2094.0,11,no,1,23123.100000023842,123209.59999990463,test2trial11.png,test2trial11b.png,7762,PC,A,,142169.0,11
11,2,18.41100001335144,test,0,m,11588.99998664856,Tue Mar 03 2026 12:19:51 GMT-0600 (Central Standard Time),148115.39999997616,O,z,1769,,1769.0,12,no,1,24905.800000071526,123209.59999990463,test2trial12.png,test2trial12b.png,7762,PC,A,,144269.0,12
11,2,20.55999994277954,test,0,z,9440.000057220459,Tue Mar 03 2026 12:19:51 GMT-0600 (Central Standard Time),150264.69999992847,O,m,2130,,2130.0,13,yes,1,27055.100000023842,123209.59999990463,test2trial13.png,test2trial13.png,7762,PC,A,,146052.0,13
12,2,23.174999952316284,test,1,m,6825.000047683716,Tue Mar 03 2026 12:19:51 GMT-0600 (Central Standard Time),152880.29999995232,O,m,2597,,2597.0,14,no,1,29670.700000047684,123209.59999990463,test2trial14.png,test2trial14b.png,7762,PC,A,,148201.0,14
13,2,24.508999824523926,test,1,m,5491.000175476074,Tue Mar 03 2026 12:19:51 GMT-0600 (Central Standard Time),154213.59999990463,O,m,1317,,1317.0,15,no,1,31004.0,123209.59999990463,test2trial15.png,test2trial15b.png,7762,PC,A,,150817.0,15
13,2,26.125,test,0,m,3875.0,Tue Mar 03 2026 12:19:51 GMT-0600 (Central Standard Time),155829.5,O,z,1608,,1608.0,16,no,1,32619.900000095367,123209.59999990463,test2trial16.png,test2trial16b.png,7762,PC,A,,152150.0,16
14,2,27.97499990463257,test,1,z,2025.0000953674316,Tue Mar 03 2026 12:19:51 GMT-0600 (Central Standard Time),157679.5,O,z,1832,,1832.0,17,yes,1,34469.90000009537,123209.59999990463,test2trial17.png,test2trial17.png,7762,PC,A,,153766.0,17
15,2,29.240999937057495,test,1,z,759.0000629425049,Tue Mar 03 2026 12:19:51 GMT-0600 (Central Standard Time),158945.5,O,z,1254,,1254.0,18,yes,1,35735.90000009537,123209.59999990463,test2trial18.png,test2trial18.png,7762,PC,A,,155616.0,18
15,2,30.006999969482422,test,0,z,-6.999969482421875,Tue Mar 03 2026 12:19:51 GMT-0600 (Central Standard Time),159711.79999995232,O,None,763,,763.0,19,yes,1,36502.200000047684,123209.59999990463,test2trial19.png,test2trial19.png,7762,PC,A,,156882.0,19
