acc_sum,block_c,block_dur,condition,correct,correct_response,countdown,datetime,endtime,project,response,response_time,response_time_test1_response,response_time_test2_response,row_sel,same,session_number,start_end,starttime,stim1,stim2,subject_id,task,task_vers,time_test1,time_test2,trial
1,1,0.0,prac,1,m,30000.0,Thu Sep 04 2025 18:27:49 GMT-0500 (Central Daylight Time),45292.799999952316,O,m,2603,,,4,no,1,4129.5,41163.299999952316,practrial4.png,practrial4b.png,7199,PC,A,,,1
2,1,0.0,prac,1,z,30000.0,Thu Sep 04 2025 18:27:49 GMT-0500 (Central Daylight Time),48341.799999952316,O,z,1494,,,5,yes,1,3027.9000000953674,45313.89999985695,practrial5.png,practrial5.png,7199,PC,A,,,2
3,1,0.0,prac,1,z,30000.0,Thu Sep 04 2025 18:27:49 GMT-0500 (Central Daylight Time),51357.39999985695,O,z,1465,,,1,yes,1,2998.0,48359.39999985695,practrial1.png,practrial1.png,7199,PC,A,,,3
3,1,0.0,prac,0,m,30000.0,Thu Sep 04 2025 18:27:49 GMT-0500 (Central Daylight Time),55989.09999990463,O,z,3089,,,6,no,1,4614.0,51375.09999990463,practrial6.png,practrial6b.png,7199,PC,A,,,4
4,1,0.0,prac,1,m,30000.0,Thu Sep 04 2025 18:27:49 GMT-0500 (Central Daylight Time),59271.39999985695,O,m,1735,,,2,no,1,3263.199999809265,56008.200000047684,practrial2.png,practrial2b.png,7199,PC,A,,,5
5,1,0.0,prac,1,z,30000.0,Thu Sep 04 2025 18:27:49 GMT-0500 (Central Daylight Time),62620.299999952316,O,z,1807,,,3,yes,1,3330.7000000476837,59289.59999990463,practrial3.png,practrial3.png,7199,PC,A,,,6
1,1,1.4659998416900635,test,1,z,28534.000158309937,Thu Sep 04 2025 18:27:49 GMT-0500 (Central Daylight Time),70401.79999995232,O,z,1445,1445,,1,yes,1,1455.4000000953674,68946.39999985695,test1trial1.png,test1trial1.png,7199,PC,A,66402,,1
2,1,2.6659998893737793,test,1,m,27334.00011062622,Thu Sep 04 2025 18:27:49 GMT-0500 (Central Daylight Time),71601.0,O,m,1169,1169,,2,no,1,1186.0,70415.0,test1trial2.png,test1trial2b.png,7199,PC,A,67871,,2
2,1,3.9809999465942383,test,0,z,26019.00005340576,Thu Sep 04 2025 18:27:49 GMT-0500 (Central Daylight Time),72916.20000004768,O,m,1297,1297,,3,yes,1,1302.1000001430511,71614.09999990463,test1trial3.png,test1trial3.png,7199,PC,A,69069,,3
3,1,5.180999994277954,test,1,m,24819.000005722046,Thu Sep 04 2025 18:27:49 GMT-0500 (Central Daylight Time),74116.5,O,m,1181,1181,,4,no,1,1194.1000001430511,72922.39999985695,test1trial4.png,test1trial4b.png,7199,PC,A,70377,,4
4,1,7.080999851226807,test,1,z,22919.000148773193,Thu Sep 04 2025 18:27:49 GMT-0500 (Central Daylight Time),76016.29999995232,O,z,1880,1880,,5,yes,1,1888.0,74128.29999995232,test1trial5.png,test1trial5.png,7199,PC,A,71583,,5
5,1,8.146999835968018,test,1,m,21853.000164031982,Thu Sep 04 2025 18:27:49 GMT-0500 (Central Daylight Time),77082.39999985695,O,m,1042,1042,,6,no,1,1054.0,76028.39999985695,test1trial6.png,test1trial6b.png,7199,PC,A,73485,,6
6,1,9.513000011444092,test,1,z,20486.99998855591,Thu Sep 04 2025 18:27:49 GMT-0500 (Central Daylight Time),78448.70000004768,O,z,1337,1337,,7,yes,1,1354.4000000953674,77094.29999995232,test1trial7.png,test1trial7.png,7199,PC,A,74550,,7
7,1,11.462999820709229,test,1,m,18537.00017929077,Thu Sep 04 2025 18:27:49 GMT-0500 (Central Daylight Time),80397.79999995232,O,m,1922,1922,,8,no,1,1937.4000000953674,78460.39999985695,test1trial8.png,test1trial8b.png,7199,PC,A,75917,,8
8,1,13.078999996185303,test,1,z,16921.000003814697,Thu Sep 04 2025 18:27:49 GMT-0500 (Central Daylight Time),82014.20000004768,O,z,1591,1591,,9,yes,1,1604.7000000476837,80409.5,test1trial9.png,test1trial9.png,7199,PC,A,77865,,9
9,1,14.227999925613403,test,1,m,15772.000074386597,Thu Sep 04 2025 18:27:49 GMT-0500 (Central Daylight Time),83163.89999985695,O,m,1115,1115,,10,no,1,1137.3999998569489,82026.5,test1trial10.png,test1trial10b.png,7199,PC,A,79483,,10
10,1,15.444000005722046,test,1,z,14555.999994277954,Thu Sep 04 2025 18:27:49 GMT-0500 (Central Daylight Time),84379.70000004768,O,z,1185,1185,,11,yes,1,1204.0,83175.70000004768,test1trial11.png,test1trial11.png,7199,PC,A,80631,,11
11,1,17.043999910354614,test,1,m,12956.000089645386,Thu Sep 04 2025 18:27:49 GMT-0500 (Central Daylight Time),85979.0,O,m,1574,1574,,12,no,1,1587.2999999523163,84391.70000004768,test1trial12.png,test1trial12b.png,7199,PC,A,81849,,12
12,1,18.292999982833862,test,1,m,11707.000017166138,Thu Sep 04 2025 18:27:49 GMT-0500 (Central Daylight Time),87228.70000004768,O,m,1238,1238,,13,no,1,1243.1000001430511,85985.59999990463,test1trial13.png,test1trial13b.png,7199,PC,A,83441,,13
13,1,19.743000030517578,test,1,m,10256.999969482422,Thu Sep 04 2025 18:27:49 GMT-0500 (Central Daylight Time),88678.5,O,m,1422,1422,,14,no,1,1438.0,87240.5,test1trial14.png,test1trial14b.png,7199,PC,A,84697,,14
14,1,21.042999982833862,test,1,z,8957.000017166138,Thu Sep 04 2025 18:27:49 GMT-0500 (Central Daylight Time),89978.20000004768,O,z,1269,1269,,15,yes,1,1287.9000000953674,88690.29999995232,test1trial15.png,test1trial15.png,7199,PC,A,86146,,15
15,1,22.55900001525879,test,1,m,7440.999984741211,Thu Sep 04 2025 18:27:49 GMT-0500 (Central Daylight Time),91494.39999985695,O,m,1488,1488,,16,no,1,1504.6999998092651,89989.70000004768,test1trial16.png,test1trial16b.png,7199,PC,A,87447,,16
16,1,23.858999967575073,test,1,z,6141.000032424927,Thu Sep 04 2025 18:27:49 GMT-0500 (Central Daylight Time),92793.89999985695,O,z,1270,1270,,17,yes,1,1287.0,91506.89999985695,test1trial17.png,test1trial17.png,7199,PC,A,88962,,17
17,1,25.257999897003174,test,1,m,4742.000102996826,Thu Sep 04 2025 18:27:49 GMT-0500 (Central Daylight Time),94193.39999985695,O,m,1377,1377,,18,no,1,1388.2999999523163,92805.09999990463,test1trial18.png,test1trial18b.png,7199,PC,A,90262,,18
17,1,26.7739999294281,test,0,m,3226.0000705718994,Thu Sep 04 2025 18:27:49 GMT-0500 (Central Daylight Time),95709.39999985695,O,z,1498,1498,,19,no,1,1504.5,94204.89999985695,test1trial19.png,test1trial19b.png,7199,PC,A,91661,,19
18,1,28.340999841690063,test,1,z,1659.0001583099365,Thu Sep 04 2025 18:27:49 GMT-0500 (Central Daylight Time),97276.20000004768,O,z,1551,1551,,20,yes,1,1554.8000001907349,95721.39999985695,test1trial20.png,test1trial20.png,7199,PC,A,93176,,20
19,1,29.805999994277954,test,1,z,194.0000057220459,Thu Sep 04 2025 18:27:49 GMT-0500 (Central Daylight Time),98741.59999990463,O,z,1439,1439,,21,yes,1,1453.3999998569489,97288.20000004768,test1trial21.png,test1trial21.png,7199,PC,A,94744,,21
19,1,30.0239999294281,test,0,z,-23.999929428100586,Thu Sep 04 2025 18:27:49 GMT-0500 (Central Daylight Time),98958.89999985695,O,None,208,208,,22,yes,1,210.69999980926514,98748.20000004768,test1trial22.png,test1trial22.png,7199,PC,A,96202,,22
1,2,1.181999921798706,test,1,m,28818.000078201294,Thu Sep 04 2025 18:27:49 GMT-0500 (Central Daylight Time),111837.89999985695,O,m,1164,,1164.0,1,no,1,13089.699999809265,98748.20000004768,test2trial1.png,test2trial1b.png,7199,PC,A,,108123.0,1
2,2,2.81499981880188,test,1,m,27185.00018119812,Thu Sep 04 2025 18:27:49 GMT-0500 (Central Daylight Time),113469.70000004768,O,m,1612,,1612.0,2,no,1,14721.5,98748.20000004768,test2trial2.png,test2trial2b.png,7199,PC,A,,109307.0,2
2,2,4.313999891281128,test,0,z,25686.000108718872,Thu Sep 04 2025 18:27:49 GMT-0500 (Central Daylight Time),114969.0,O,m,1485,,1485.0,3,yes,1,16220.799999952316,98748.20000004768,test2trial3.png,test2trial3.png,7199,PC,A,,110929.0,3
3,2,5.513999938964844,test,1,z,24486.000061035156,Thu Sep 04 2025 18:27:49 GMT-0500 (Central Daylight Time),116169.20000004768,O,z,1182,,1182.0,4,yes,1,17421.0,98748.20000004768,test2trial4.png,test2trial4.png,7199,PC,A,,112425.0,4
4,2,6.898000001907349,test,1,z,23101.99999809265,Thu Sep 04 2025 18:27:49 GMT-0500 (Central Daylight Time),117552.5,O,z,1360,,1360.0,5,yes,1,18804.299999952316,98748.20000004768,test2trial5.png,test2trial5.png,7199,PC,A,,113631.0,5
5,2,8.530999898910522,test,1,z,21469.000101089478,Thu Sep 04 2025 18:27:49 GMT-0500 (Central Daylight Time),119185.39999985695,O,z,1604,,1604.0,6,yes,1,20437.199999809265,98748.20000004768,test2trial6.png,test2trial6.png,7199,PC,A,,115019.0,6
6,2,9.563999891281128,test,1,m,20436.000108718872,Thu Sep 04 2025 18:27:49 GMT-0500 (Central Daylight Time),120218.39999985695,O,m,1010,,1010.0,7,no,1,21470.199999809265,98748.20000004768,test2trial7.png,test2trial7b.png,7199,PC,A,,116653.0,7
7,2,10.845999956130981,test,1,m,19154.00004386902,Thu Sep 04 2025 18:27:49 GMT-0500 (Central Daylight Time),121500.39999985695,O,m,1257,,1257.0,8,no,1,22752.199999809265,98748.20000004768,test2trial8.png,test2trial8b.png,7199,PC,A,,117686.0,8
8,2,12.27899980545044,test,1,z,17721.00019454956,Thu Sep 04 2025 18:27:49 GMT-0500 (Central Daylight Time),122934.09999990463,O,z,1417,,1417.0,9,yes,1,24185.89999985695,98748.20000004768,test2trial9.png,test2trial9.png,7199,PC,A,,118958.0,9
9,2,13.578999996185303,test,1,z,16421.000003814697,Thu Sep 04 2025 18:27:49 GMT-0500 (Central Daylight Time),124233.5,O,z,1279,,1279.0,10,yes,1,25485.299999952316,98748.20000004768,test2trial10.png,test2trial10.png,7199,PC,A,,120400.0,10
10,2,14.678999900817871,test,1,m,15321.000099182129,Thu Sep 04 2025 18:27:49 GMT-0500 (Central Daylight Time),125333.39999985695,O,m,1075,,1075.0,11,no,1,26585.199999809265,98748.20000004768,test2trial11.png,test2trial11b.png,7199,PC,A,,121701.0,11
11,2,16.527999877929688,test,1,m,13472.000122070312,Thu Sep 04 2025 18:27:49 GMT-0500 (Central Daylight Time),127182.70000004768,O,m,1829,,1829.0,12,no,1,28434.5,98748.20000004768,test2trial12.png,test2trial12b.png,7199,PC,A,,122802.0,12
12,2,17.727999925613403,test,1,z,12272.000074386597,Thu Sep 04 2025 18:27:49 GMT-0500 (Central Daylight Time),128382.39999985695,O,z,1181,,1181.0,13,yes,1,29634.199999809265,98748.20000004768,test2trial13.png,test2trial13.png,7199,PC,A,,124650.0,13
13,2,19.30999994277954,test,1,m,10690.000057220459,Thu Sep 04 2025 18:27:49 GMT-0500 (Central Daylight Time),129965.0,O,m,1556,,1556.0,14,no,1,31216.799999952316,98748.20000004768,test2trial14.png,test2trial14b.png,7199,PC,A,,125852.0,14
14,2,20.276999950408936,test,1,m,9723.000049591064,Thu Sep 04 2025 18:27:49 GMT-0500 (Central Daylight Time),130931.39999985695,O,m,942,,942.0,15,no,1,32183.199999809265,98748.20000004768,test2trial15.png,test2trial15b.png,7199,PC,A,,127433.0,15
15,2,21.758999824523926,test,1,m,8241.000175476074,Thu Sep 04 2025 18:27:49 GMT-0500 (Central Daylight Time),132414.20000004768,O,m,1466,,1466.0,16,no,1,33666.0,98748.20000004768,test2trial16.png,test2trial16b.png,7199,PC,A,,128398.0,16
16,2,23.29199981689453,test,1,z,6708.000183105469,Thu Sep 04 2025 18:27:49 GMT-0500 (Central Daylight Time),133946.89999985695,O,z,1512,,1512.0,17,yes,1,35198.699999809265,98748.20000004768,test2trial17.png,test2trial17.png,7199,PC,A,,129880.0,17
17,2,24.64199995994568,test,1,z,5358.000040054321,Thu Sep 04 2025 18:27:49 GMT-0500 (Central Daylight Time),135296.79999995232,O,z,1321,,1321.0,18,yes,1,36548.59999990463,98748.20000004768,test2trial18.png,test2trial18.png,7199,PC,A,,131414.0,18
18,2,26.22499990463257,test,1,z,3775.0000953674316,Thu Sep 04 2025 18:27:49 GMT-0500 (Central Daylight Time),136879.5,O,z,1566,,1566.0,19,yes,1,38131.299999952316,98748.20000004768,test2trial19.png,test2trial19.png,7199,PC,A,,132762.0,19
18,2,27.95799994468689,test,0,z,2042.0000553131104,Thu Sep 04 2025 18:27:49 GMT-0500 (Central Daylight Time),138612.70000004768,O,m,1718,,1718.0,20,yes,1,39864.5,98748.20000004768,test2trial20.png,test2trial20.png,7199,PC,A,,134346.0,20
19,2,29.756999969482422,test,1,z,243.00003051757812,Thu Sep 04 2025 18:27:49 GMT-0500 (Central Daylight Time),140411.70000004768,O,z,1777,,1777.0,21,yes,1,41663.5,98748.20000004768,test2trial21.png,test2trial21.png,7199,PC,A,,136079.0,21
19,2,30.02300000190735,test,0,m,-23.000001907348633,Thu Sep 04 2025 18:27:49 GMT-0500 (Central Daylight Time),140677.89999985695,O,None,251,,251.0,22,no,1,41929.699999809265,98748.20000004768,test2trial22.png,test2trial22b.png,7199,PC,A,,137879.0,22
