acc_sum,block,block_c,condition,correct,correct_response,datetime,endtime,flanker,jitter,project,response,response_test_buffer_response,response_test_target_response,response_time,response_time_test_buffer_response,response_time_test_target_response,row_sel,session_number,start_end,starttime,subject_id,target,task,task_vers,time_test_buffer,time_test_buffer_response,time_test_constants,time_test_flanker,time_test_jitter,time_test_logger,time_test_target,time_test_target_response,time_test_variables,trial
1,prac,1,con,1,z,Mon Nov 10 2025 08:04:27 GMT-0600 (Central Standard Time),268420.0,lime,800,I,z,,,129,,,5,2,2227.7999999523163,266192.2000000477,8058,lime,NF,C,,,,,,,,,,1
1,prac,1,con,0,m,Mon Nov 10 2025 08:04:27 GMT-0600 (Central Standard Time),273318.3000000119,bronze,800,I,None,,,1844,,,9,2,4892.599999964237,268425.7000000477,8058,bronze,NF,C,,,,,,,,,,2
2,prac,1,con,1,z,Mon Nov 10 2025 08:04:27 GMT-0600 (Central Standard Time),275667.5,orange,1000,I,z,,,45,,,3,2,2344.599999964237,273322.90000003576,8058,orange,NF,C,,,,,,,,,,3
2,prac,1,con,0,m,Mon Nov 10 2025 08:04:27 GMT-0600 (Central Standard Time),280549.3000000119,gold,800,I,None,,,1815,,,13,2,4877.399999976158,275671.90000003576,8058,gold,NF,C,,,,,,,,,,4
2,prac,1,con,0,m,Mon Nov 10 2025 08:04:27 GMT-0600 (Central Standard Time),285614.5,zinc,1000,I,None,,,1799,,,15,2,5060.599999964237,280553.90000003576,8058,zinc,NF,C,,,,,,,,,,5
2,prac,1,inc,0,m,Mon Nov 10 2025 08:04:27 GMT-0600 (Central Standard Time),290579.3000000119,pear,900,I,None,,,1799,,,14,2,4960.199999988079,285619.10000002384,8058,iron,NF,C,,,,,,,,,,6
3,prac,1,con,1,z,Mon Nov 10 2025 08:04:27 GMT-0600 (Central Standard Time),292928.8000000119,banana,800,I,z,,,241,,,1,2,2344.899999976158,290583.90000003576,8058,banana,NF,C,,,,,,,,,,7
4,prac,1,con,1,m,Mon Nov 10 2025 08:04:27 GMT-0600 (Central Standard Time),295462.5,silver,1000,I,m,,,218,,,11,2,2529.5,292933.0,8058,silver,NF,C,,,,,,,,,,8
5,prac,1,con,1,z,Mon Nov 10 2025 08:04:27 GMT-0600 (Central Standard Time),297927.2000000477,kiwi,1000,I,z,,,159,,,7,2,2459.800000011921,295467.40000003576,8058,kiwi,NF,C,,,,,,,,,,9
5,prac,1,inc,0,m,Mon Nov 10 2025 08:04:27 GMT-0600 (Central Standard Time),300426.3000000119,plum,1100,I,z,,,88,,,16,2,2494.099999964237,297932.2000000477,8058,lead,NF,C,,,,,,,,,,10
5,prac,1,inc,0,m,Mon Nov 10 2025 08:04:27 GMT-0600 (Central Standard Time),303175.7000000477,raisin,1100,I,z,,,334,,,12,2,2745.2000000476837,300430.5,8058,cobalt,NF,C,,,,,,,,,,11
5,prac,1,inc,0,z,Mon Nov 10 2025 08:04:27 GMT-0600 (Central Standard Time),308340.7000000477,lead,1100,I,None,,,1800,,,8,2,5160.0,303180.7000000477,8058,plum,NF,C,,,,,,,,,,12
6,prac,1,inc,1,z,Mon Nov 10 2025 08:04:27 GMT-0600 (Central Standard Time),311023.0,iron,900,I,z,,,482,,,6,2,2678.0,308345.0,8058,pear,NF,C,,,,,,,,,,13
6,prac,1,inc,0,m,Mon Nov 10 2025 08:04:27 GMT-0600 (Central Standard Time),313255.7000000477,cherry,900,I,z,,,33,,,10,2,2228.800000011921,311026.90000003576,8058,copper,NF,C,,,,,,,,,,14
7,prac,1,inc,1,z,Mon Nov 10 2025 08:04:27 GMT-0600 (Central Standard Time),316138.3000000119,cobalt,1100,I,z,,,471,,,4,2,2878.300000011921,313260.0,8058,raisin,NF,C,,,,,,,,,,15
8,prac,1,inc,1,z,Mon Nov 10 2025 08:04:27 GMT-0600 (Central Standard Time),318930.10000002384,copper,900,I,z,,,484,,,2,2,2787.600000023842,316142.5,8058,cherry,NF,C,,,,,,,,,,16
1,prac,2,con,1,z,Mon Nov 10 2025 08:04:27 GMT-0600 (Central Standard Time),333016.3000000119,banana,800,I,z,,,440,,,1,2,2545.5,330470.8000000119,8058,banana,NF,C,,,,,,,,,,1
2,prac,2,inc,1,z,Mon Nov 10 2025 08:04:27 GMT-0600 (Central Standard Time),335865.5,cobalt,1100,I,z,,,448,,,4,2,2844.7999999523163,333020.7000000477,8058,raisin,NF,C,,,,,,,,,,2
3,prac,2,con,1,m,Mon Nov 10 2025 08:04:27 GMT-0600 (Central Standard Time),338447.7000000477,gold,800,I,m,,,474,,,13,2,2578.100000023842,335869.60000002384,8058,gold,NF,C,,,,,,,,,,3
4,prac,2,inc,1,m,Mon Nov 10 2025 08:04:27 GMT-0600 (Central Standard Time),341330.40000003576,plum,1100,I,m,,,479,,,16,2,2878.400000035763,338452.0,8058,lead,NF,C,,,,,,,,,,4
5,prac,2,inc,1,m,Mon Nov 10 2025 08:04:27 GMT-0600 (Central Standard Time),344129.5,cherry,900,I,m,,,481,,,10,2,2795.199999988079,341334.3000000119,8058,copper,NF,C,,,,,,,,,,5
6,prac,2,inc,1,z,Mon Nov 10 2025 08:04:27 GMT-0600 (Central Standard Time),346795.40000003576,copper,900,I,z,,,452,,,2,2,2661.800000011921,344133.60000002384,8058,cherry,NF,C,,,,,,,,,,6
7,prac,2,inc,1,m,Mon Nov 10 2025 08:04:27 GMT-0600 (Central Standard Time),349610.5,raisin,1100,I,m,,,410,,,12,2,2811.199999988079,346799.3000000119,8058,cobalt,NF,C,,,,,,,,,,7
8,prac,2,inc,1,z,Mon Nov 10 2025 08:04:27 GMT-0600 (Central Standard Time),352226.90000003576,iron,900,I,z,,,405,,,6,2,2611.5,349615.40000003576,8058,pear,NF,C,,,,,,,,,,8
9,prac,2,con,1,z,Mon Nov 10 2025 08:04:27 GMT-0600 (Central Standard Time),354792.7000000477,lime,800,I,z,,,464,,,5,2,2561.2000000476837,352231.5,8058,lime,NF,C,,,,,,,,,,9
10,prac,2,con,1,m,Mon Nov 10 2025 08:04:27 GMT-0600 (Central Standard Time),357258.40000003576,bronze,800,I,m,,,362,,,9,2,2461.600000023842,354796.8000000119,8058,bronze,NF,C,,,,,,,,,,10
11,prac,2,inc,1,z,Mon Nov 10 2025 08:04:27 GMT-0600 (Central Standard Time),360074.40000003576,lead,1100,I,z,,,412,,,8,2,2812.0,357262.40000003576,8058,plum,NF,C,,,,,,,,,,11
12,prac,2,con,1,z,Mon Nov 10 2025 08:04:27 GMT-0600 (Central Standard Time),362873.60000002384,kiwi,1000,I,z,,,489,,,7,2,2795.300000011921,360078.3000000119,8058,kiwi,NF,C,,,,,,,,,,12
12,prac,2,con,0,m,Mon Nov 10 2025 08:04:27 GMT-0600 (Central Standard Time),365589.2000000477,silver,1000,I,z,,,410,,,11,2,2711.7000000476837,362877.5,8058,silver,NF,C,,,,,,,,,,13
13,prac,2,inc,1,m,Mon Nov 10 2025 08:04:27 GMT-0600 (Central Standard Time),368205.0,pear,900,I,m,,,409,,,14,2,2610.5,365594.5,8058,iron,NF,C,,,,,,,,,,14
13,prac,2,con,0,z,Mon Nov 10 2025 08:04:27 GMT-0600 (Central Standard Time),370920.90000003576,orange,1000,I,m,,,414,,,3,2,2711.900000035763,368209.0,8058,orange,NF,C,,,,,,,,,,15
14,prac,2,con,1,m,Mon Nov 10 2025 08:04:27 GMT-0600 (Central Standard Time),373620.3000000119,zinc,1000,I,m,,,395,,,15,2,2695.599999964237,370924.7000000477,8058,zinc,NF,C,,,,,,,,,,16
1,test,1,inc,1,m,Mon Nov 10 2025 08:04:27 GMT-0600 (Central Standard Time),407109.8000000119,lime,800,I,m,m,None,445,245.0,200.0,117,2,1779.300000011921,405330.5,8058,zinc,NF,C,390745,390745,389216,390028,389216,390995,390545,390545,390995,1
2,test,1,inc,1,m,Mon Nov 10 2025 08:04:27 GMT-0600 (Central Standard Time),409175.5,plum,1100,I,m,m,None,416,216.0,200.0,128,2,2060.0,407115.5,8058,lead,NF,C,392829,392829,391001,392111,391001,393061,392628,392628,393061,2
3,test,1,con,1,m,Mon Nov 10 2025 08:04:27 GMT-0600 (Central Standard Time),411224.60000002384,silver,1100,I,m,m,None,415,216.0,199.0,84,2,2044.6000000238419,409180.0,8058,silver,NF,C,394894,394894,393065,394177,393065,395110,394694,394694,395110,3
4,test,1,con,1,z,Mon Nov 10 2025 08:04:27 GMT-0600 (Central Standard Time),413270.7000000477,raisin,900,I,z,z,None,486,286.0,200.0,26,2,2042.2000000476837,411228.5,8058,raisin,NF,C,396743,396743,395114,396026,395114,397156,396543,396543,397156,4
4,test,1,inc,0,z,Mon Nov 10 2025 08:04:27 GMT-0600 (Central Standard Time),415307.10000002384,lead,1100,I,m,m,None,389,190.0,199.0,64,2,2031.6000000238419,413275.5,8058,plum,NF,C,398992,398992,397161,398276,397161,399192,398793,398793,399192,5
5,test,1,inc,1,z,Mon Nov 10 2025 08:04:27 GMT-0600 (Central Standard Time),417089.5,gold,800,I,z,z,None,449,249.0,200.0,53,2,1778.5,415311.0,8058,kiwi,NF,C,400725,400725,399196,400008,399196,400975,400525,400525,400975,6
6,test,1,inc,1,m,Mon Nov 10 2025 08:04:27 GMT-0600 (Central Standard Time),418922.40000003576,lime,800,I,m,m,None,497,298.0,199.0,109,2,1829.199999988079,417093.2000000477,8058,iron,NF,C,402508,402508,400978,401792,400978,402807,402308,402308,402807,7
7,test,1,con,1,m,Mon Nov 10 2025 08:04:27 GMT-0600 (Central Standard Time),420938.5,copper,900,I,m,m,None,580,381.0,199.0,74,2,2011.7999999523163,418926.7000000477,8058,copper,NF,C,404441,404441,402812,403724,402812,404824,404241,404241,404823,8
8,test,1,inc,1,z,Mon Nov 10 2025 08:04:27 GMT-0600 (Central Standard Time),423104.40000003576,zinc,1000,I,z,z,None,615,416.0,199.0,39,2,2162.0,420942.40000003576,8058,lime,NF,C,406557,406557,404827,405840,404828,406990,406357,406357,406989,9
9,test,1,inc,1,z,Mon Nov 10 2025 08:04:27 GMT-0600 (Central Standard Time),425204.10000002384,iron,900,I,z,z,None,663,463.0,200.0,54,2,2095.899999976158,423108.2000000477,8058,kiwi,NF,C,408623,408623,406993,407906,406993,409089,408422,408422,409089,10
10,test,1,inc,1,z,Mon Nov 10 2025 08:04:27 GMT-0600 (Central Standard Time),427153.60000002384,iron,900,I,z,z,None,516,316.0,200.0,62,2,1945.6000000238419,425208.0,8058,plum,NF,C,410722,410722,409093,410005,409093,411039,410522,410522,411039,11
11,test,1,inc,1,z,Mon Nov 10 2025 08:04:27 GMT-0600 (Central Standard Time),429269.2000000477,silver,1000,I,z,z,None,579,379.0,200.0,23,2,2111.300000011921,427157.90000003576,8058,orange,NF,C,412771,412771,411043,412055,411043,413154,412571,412571,413154,12
12,test,1,con,1,z,Mon Nov 10 2025 08:04:27 GMT-0600 (Central Standard Time),431335.2000000477,plum,900,I,z,z,None,619,419.0,200.0,58,2,2062.100000023842,429273.10000002384,8058,plum,NF,C,414787,414787,413158,414071,413158,415220,414587,414587,415220,13
13,test,1,con,1,m,Mon Nov 10 2025 08:04:27 GMT-0600 (Central Standard Time),433501.3000000119,gold,1000,I,m,m,None,619,419.0,200.0,99,2,2162.099999964237,431339.2000000477,8058,gold,NF,C,416953,416954,415224,416238,415224,417386,416753,416753,417386,14
14,test,1,inc,1,m,Mon Nov 10 2025 08:04:27 GMT-0600 (Central Standard Time),435500.7000000477,cherry,900,I,m,m,None,555,355.0,200.0,70,2,1995.5,433505.2000000477,8058,bronze,NF,C,419019,419019,417390,418303,417390,419386,418819,418819,419386,15
15,test,1,con,1,z,Mon Nov 10 2025 08:04:27 GMT-0600 (Central Standard Time),437783.40000003576,orange,1100,I,z,z,None,551,351.0,200.0,20,2,2279.0,435504.40000003576,8058,orange,NF,C,421302,421302,419389,420599,419390,421668,421102,421102,421668,16
16,test,1,con,1,m,Mon Nov 10 2025 08:04:27 GMT-0600 (Central Standard Time),439849.3000000119,copper,1000,I,m,m,None,525,325.0,200.0,75,2,2062.399999976158,437786.90000003576,8058,copper,NF,C,423401,423401,421672,422686,421672,423734,423201,423201,423734,17
17,test,1,con,1,m,Mon Nov 10 2025 08:04:27 GMT-0600 (Central Standard Time),441931.90000003576,bronze,800,I,m,m,None,746,547.0,199.0,65,2,2078.5,439853.40000003576,8058,bronze,NF,C,425267,425267,423738,424551,423739,425817,425068,425068,425817,18
18,test,1,con,1,m,Mon Nov 10 2025 08:04:27 GMT-0600 (Central Standard Time),443981.40000003576,iron,900,I,m,m,None,612,412.0,200.0,106,2,2045.4000000357628,441936.0,8058,iron,NF,C,427450,427450,425821,426734,425821,427867,427250,427250,427866,19
19,test,1,inc,1,z,Mon Nov 10 2025 08:04:27 GMT-0600 (Central Standard Time),445914.3000000119,gold,800,I,z,z,None,589,389.0,200.0,61,2,1928.800000011921,443985.5,8058,plum,NF,C,429399,429400,427871,428683,427871,429799,429199,429199,429799,20
20,test,1,con,1,z,Mon Nov 10 2025 08:04:27 GMT-0600 (Central Standard Time),447930.0,banana,900,I,z,z,None,574,374.0,200.0,2,2,2012.199999988079,445917.8000000119,8058,banana,NF,C,431432,431432,429803,430716,429803,431815,431232,431232,431815,21
21,test,1,con,1,z,Mon Nov 10 2025 08:04:27 GMT-0600 (Central Standard Time),450079.2000000477,banana,1000,I,z,z,None,608,409.0,199.0,3,2,2145.5,447933.7000000477,8058,banana,NF,C,433548,433548,431819,432832,431819,433964,433349,433349,433964,22
22,test,1,con,1,z,Mon Nov 10 2025 08:04:27 GMT-0600 (Central Standard Time),452062.3000000119,lime,800,I,z,z,None,643,444.0,199.0,33,2,1979.0,450083.3000000119,8058,lime,NF,C,435498,435498,433968,434781,433969,435947,435298,435298,435947,23
23,test,1,inc,1,m,Mon Nov 10 2025 08:04:27 GMT-0600 (Central Standard Time),454244.60000002384,raisin,1100,I,m,m,None,546,346.0,200.0,88,2,2178.600000023842,452066.0,8058,silver,NF,C,437780,437780,435951,437064,435951,438130,437580,437580,438130,24
24,test,1,con,1,z,Mon Nov 10 2025 08:04:27 GMT-0600 (Central Standard Time),456344.10000002384,pear,1000,I,z,z,None,558,359.0,199.0,43,2,2095.699999988079,454248.40000003576,8058,pear,NF,C,439863,439863,438133,439146,438134,440229,439663,439663,440229,25
25,test,1,con,1,z,Mon Nov 10 2025 08:04:27 GMT-0600 (Central Standard Time),458593.5,cherry,1100,I,z,z,None,600,400.0,200.0,12,2,2245.599999964237,456347.90000003576,8058,cherry,NF,C,442062,442062,440233,441346,440233,442479,441862,441862,442479,26
26,test,1,inc,1,z,Mon Nov 10 2025 08:04:27 GMT-0600 (Central Standard Time),460776.0,silver,1000,I,z,z,None,634,309.0,325.0,7,2,2178.7999999523163,458597.2000000477,8058,banana,NF,C,444336,444336,442482,443495,442482,444661,444011,444011,444661,27
27,test,1,con,1,z,Mon Nov 10 2025 08:04:27 GMT-0600 (Central Standard Time),462908.5,kiwi,1000,I,z,z,None,587,387.0,200.0,51,2,2128.599999964237,460779.90000003576,8058,kiwi,NF,C,446394,446394,444665,445678,444665,446794,446194,446194,446794,28
28,test,1,con,1,z,Mon Nov 10 2025 08:04:27 GMT-0600 (Central Standard Time),465008.40000003576,lime,1000,I,z,z,None,558,359.0,199.0,35,2,2095.699999988079,462912.7000000477,8058,lime,NF,C,448527,448527,446798,447810,446798,448893,448327,448327,448893,29
29,test,1,con,1,z,Mon Nov 10 2025 08:04:27 GMT-0600 (Central Standard Time),466940.7000000477,orange,800,I,z,z,None,588,388.0,200.0,17,2,1927.800000011921,465012.90000003576,8058,orange,NF,C,450426,450426,448898,449710,448898,450826,450226,450226,450826,30
30,test,1,inc,1,z,Mon Nov 10 2025 08:04:27 GMT-0600 (Central Standard Time),468923.60000002384,copper,900,I,z,z,None,538,338.0,200.0,14,2,1979.199999988079,466944.40000003576,8058,cherry,NF,C,452459,452459,450829,451742,450830,452809,452259,452259,452809,31
31,test,1,inc,1,m,Mon Nov 10 2025 08:04:27 GMT-0600 (Central Standard Time),470872.8000000119,lime,800,I,m,m,None,616,417.0,199.0,125,2,1945.5,468927.3000000119,8058,lead,NF,C,454341,454341,452812,453625,452813,454758,454142,454142,454758,32
32,test,1,con,1,m,Mon Nov 10 2025 08:04:27 GMT-0600 (Central Standard Time),473022.3000000119,zinc,1100,I,m,m,None,511,311.0,200.0,116,2,2145.699999988079,470876.60000002384,8058,zinc,NF,C,456591,456591,454762,455875,454762,456907,456391,456391,456907,33
33,test,1,inc,1,m,Mon Nov 10 2025 08:04:27 GMT-0600 (Central Standard Time),475088.2000000477,kiwi,1000,I,m,m,None,517,317.0,200.0,103,2,2062.300000011921,473025.90000003576,8058,gold,NF,C,458640,458640,456911,457925,456911,458973,458440,458440,458973,34
34,test,1,inc,1,z,Mon Nov 10 2025 08:04:27 GMT-0600 (Central Standard Time),477104.40000003576,copper,900,I,z,z,None,575,375.0,200.0,6,2,2012.300000011921,475092.10000002384,8058,banana,NF,C,460606,460607,458977,459890,458977,460989,460406,460406,460989,35
35,test,1,con,1,z,Mon Nov 10 2025 08:04:27 GMT-0600 (Central Standard Time),479070.40000003576,lime,900,I,z,z,None,529,329.0,200.0,34,2,1962.199999988079,477108.2000000477,8058,lime,NF,C,462622,462622,460993,461906,460994,462955,462422,462422,462955,36
36,test,1,con,1,z,Mon Nov 10 2025 08:04:27 GMT-0600 (Central Standard Time),481186.2000000477,cherry,1000,I,z,z,None,574,374.0,200.0,11,2,2111.900000035763,479074.3000000119,8058,cherry,NF,C,464688,464688,462959,463972,462960,465071,464488,464488,465071,37
37,test,1,con,1,m,Mon Nov 10 2025 08:04:27 GMT-0600 (Central Standard Time),483302.40000003576,cobalt,1100,I,m,m,None,478,278.0,200.0,92,2,2112.300000011921,481190.10000002384,8058,cobalt,NF,C,466904,466904,465075,466188,465075,467187,466704,466704,467187,38
38,test,1,con,1,z,Mon Nov 10 2025 08:04:27 GMT-0600 (Central Standard Time),485452.10000002384,plum,1100,I,z,z,None,514,314.0,200.0,60,2,2146.0,483306.10000002384,8058,plum,NF,C,469020,469020,467191,468304,467191,469337,468820,468820,469337,39
39,test,1,con,1,z,Mon Nov 10 2025 08:04:27 GMT-0600 (Central Standard Time),487584.40000003576,raisin,1100,I,z,z,None,492,292.0,200.0,28,2,2128.600000023842,485455.8000000119,8058,raisin,NF,C,471170,471170,469341,470453,469341,471469,470970,470970,471469,40
40,test,1,con,1,m,Mon Nov 10 2025 08:04:27 GMT-0600 (Central Standard Time),489433.8000000119,silver,800,I,m,m,None,507,307.0,200.0,81,2,1845.300000011921,487588.5,8058,silver,NF,C,473003,473003,471474,472286,471474,473319,472802,472802,473319,41
41,test,1,con,1,m,Mon Nov 10 2025 08:04:27 GMT-0600 (Central Standard Time),491599.40000003576,gold,1100,I,m,m,None,516,317.0,199.0,100,2,2161.699999988079,489437.7000000477,8058,gold,NF,C,475152,475152,473323,474435,473323,475484,474952,474952,475484,42
42,test,1,inc,1,m,Mon Nov 10 2025 08:04:27 GMT-0600 (Central Standard Time),493649.3000000119,cherry,900,I,m,m,None,608,408.0,200.0,86,2,2045.800000011921,491603.5,8058,silver,NF,C,477118,477118,475489,476401,475489,477534,476918,476918,477534,43
43,test,1,con,1,m,Mon Nov 10 2025 08:04:27 GMT-0600 (Central Standard Time),495598.60000002384,zinc,900,I,m,m,None,511,311.0,200.0,114,2,1945.699999988079,493652.90000003576,8058,zinc,NF,C,479167,479167,477538,478451,477538,479484,478967,478967,479484,44
44,test,1,inc,1,z,Mon Nov 10 2025 08:04:27 GMT-0600 (Central Standard Time),497647.7000000477,zinc,1000,I,z,z,None,500,300.0,200.0,47,2,2045.5,495602.2000000477,8058,pear,NF,C,481217,481217,479487,480500,479487,481533,481016,481016,481533,45
45,test,1,inc,1,m,Mon Nov 10 2025 08:04:27 GMT-0600 (Central Standard Time),499630.40000003576,cherry,900,I,m,m,None,543,343.0,200.0,78,2,1979.0,497651.40000003576,8058,copper,NF,C,483166,483166,481536,482449,481537,483516,482966,482966,483515,46
46,test,1,con,1,z,Mon Nov 10 2025 08:04:27 GMT-0600 (Central Standard Time),501513.0,banana,800,I,z,z,None,548,349.0,199.0,1,2,1878.8999999761581,499634.10000002384,8058,banana,NF,C,485048,485049,483519,484332,483519,485398,484849,484849,485398,47
47,test,1,con,1,m,Mon Nov 10 2025 08:04:27 GMT-0600 (Central Standard Time),503362.90000003576,zinc,800,I,m,m,None,507,307.0,200.0,113,2,1846.199999988079,501516.7000000477,8058,zinc,NF,C,486931,486931,485402,486215,485402,487248,486731,486731,487248,48
48,test,1,con,1,m,Mon Nov 10 2025 08:04:27 GMT-0600 (Central Standard Time),505362.0,bronze,900,I,m,m,None,557,357.0,200.0,66,2,1995.199999988079,503366.8000000119,8058,bronze,NF,C,488881,488881,487252,488164,487252,489247,488681,488681,489247,49
49,test,1,inc,1,z,Mon Nov 10 2025 08:04:27 GMT-0600 (Central Standard Time),507573.3000000119,cobalt,1100,I,z,z,None,578,378.0,200.0,16,2,2207.599999964237,505365.7000000477,8058,cherry,NF,C,491080,491080,489251,490364,489251,491458,490880,490880,491458,50
50,test,1,con,1,z,Mon Nov 10 2025 08:04:27 GMT-0600 (Central Standard Time),509410.7000000477,raisin,800,I,z,z,None,491,291.0,200.0,25,2,1833.5,507577.2000000477,8058,raisin,NF,C,492996,492996,491462,492280,491463,493296,492796,492796,493296,51
50,test,1,inc,0,z,Mon Nov 10 2025 08:04:27 GMT-0600 (Central Standard Time),511160.3000000119,bronze,800,I,m,m,None,401,201.0,200.0,21,2,1745.8999999761581,509414.40000003576,8058,orange,NF,C,494829,494829,493299,494112,493300,495045,494629,494629,495045,52
51,test,1,inc,1,m,Mon Nov 10 2025 08:04:27 GMT-0600 (Central Standard Time),513309.2000000477,plum,1100,I,m,m,None,511,311.0,200.0,120,2,2145.0,511164.2000000477,8058,zinc,NF,C,496878,496878,495049,496162,495049,497194,496678,496678,497194,53
52,test,1,con,1,z,Mon Nov 10 2025 08:04:27 GMT-0600 (Central Standard Time),515408.8000000119,raisin,1000,I,z,z,None,565,366.0,199.0,27,2,2095.199999988079,513313.60000002384,8058,raisin,NF,C,498928,498928,497199,498211,497199,499294,498728,498728,499294,54
53,test,1,con,1,m,Mon Nov 10 2025 08:04:27 GMT-0600 (Central Standard Time),517474.8000000119,lead,1100,I,m,m,None,421,222.0,199.0,124,2,2062.199999988079,515412.60000002384,8058,lead,NF,C,501127,501127,499298,500410,499298,501360,500927,500927,501360,55
54,test,1,con,1,m,Mon Nov 10 2025 08:04:27 GMT-0600 (Central Standard Time),519541.0,copper,1100,I,m,m,None,421,221.0,200.0,76,2,2062.599999964237,517478.40000003576,8058,copper,NF,C,503193,503193,501363,502476,501364,503426,502993,502993,503426,56
55,test,1,inc,1,z,Mon Nov 10 2025 08:04:27 GMT-0600 (Central Standard Time),521390.40000003576,gold,800,I,z,z,None,511,311.0,200.0,37,2,1845.9000000357628,519544.5,8058,lime,NF,C,504959,504959,503430,504243,503430,505276,504759,504759,505275,57
56,test,1,inc,1,m,Mon Nov 10 2025 08:04:27 GMT-0600 (Central Standard Time),523289.40000003576,banana,800,I,m,m,None,564,364.0,200.0,77,2,1895.199999988079,521394.2000000477,8058,copper,NF,C,506809,506809,505279,506092,505280,507174,506608,506608,507174,58
57,test,1,con,1,m,Mon Nov 10 2025 08:04:27 GMT-0600 (Central Standard Time),525389.0,lead,1000,I,m,m,None,553,354.0,199.0,123,2,2095.899999976158,523293.10000002384,8058,lead,NF,C,508908,508908,507178,508191,507178,509274,508708,508708,509274,59
58,test,1,inc,1,z,Mon Nov 10 2025 08:04:27 GMT-0600 (Central Standard Time),527504.9000000358,silver,1000,I,z,z,None,582,382.0,200.0,31,2,2112.0,525392.9000000358,8058,raisin,NF,C,511007,511007,509278,510291,509278,511390,510807,510807,511390,60
59,test,1,inc,1,z,Mon Nov 10 2025 08:04:27 GMT-0600 (Central Standard Time),529471.1000000238,copper,900,I,z,z,None,519,319.0,200.0,30,2,1962.300000011921,527508.8000000119,8058,raisin,NF,C,513023,513023,511394,512307,511394,513356,512823,512823,513356,61
60,test,1,inc,1,m,Mon Nov 10 2025 08:04:27 GMT-0600 (Central Standard Time),531387.2000000477,banana,800,I,m,m,None,580,380.0,200.0,69,2,1912.4000000357628,529474.8000000119,8058,bronze,NF,C,514890,514890,513360,514173,513360,515272,514689,514689,515272,62
61,test,1,inc,1,m,Mon Nov 10 2025 08:04:27 GMT-0600 (Central Standard Time),533636.6000000238,raisin,1100,I,m,m,None,604,405.0,199.0,96,2,2245.600000023842,531391.0,8058,cobalt,NF,C,517105,517105,515276,516389,515276,517522,516906,516906,517522,63
62,test,1,con,1,m,Mon Nov 10 2025 08:04:27 GMT-0600 (Central Standard Time),535752.7000000477,bronze,1000,I,m,m,None,565,366.0,199.0,67,2,2112.0,533640.7000000477,8058,bronze,NF,C,519255,519255,517526,518538,517526,519638,519055,519055,519638,64
63,test,1,inc,1,z,Mon Nov 10 2025 08:04:27 GMT-0600 (Central Standard Time),537918.3000000119,cobalt,1100,I,z,z,None,526,327.0,199.0,24,2,2161.5,535756.8000000119,8058,orange,NF,C,521471,521471,519642,520754,519642,521803,521271,521271,521803,65
64,test,1,inc,1,m,Mon Nov 10 2025 08:04:27 GMT-0600 (Central Standard Time),539834.5,pear,900,I,m,m,None,481,282.0,199.0,102,2,1912.3999999761581,537922.1000000238,8058,gold,NF,C,523436,523436,521807,522721,521807,523720,523237,523237,523720,66
65,test,1,inc,1,m,Mon Nov 10 2025 08:04:27 GMT-0600 (Central Standard Time),541733.8000000119,pear,900,I,m,m,None,459,260.0,199.0,110,2,1895.5,539838.3000000119,8058,iron,NF,C,525353,525353,523723,524636,523724,525619,525153,525153,525619,67
65,test,1,inc,0,m,Mon Nov 10 2025 08:04:27 GMT-0600 (Central Standard Time),543850.0,raisin,1100,I,z,z,None,474,274.0,200.0,80,2,2112.2999999523163,541737.7000000477,8058,copper,NF,C,527452,527452,525623,526736,525623,527735,527252,527252,527735,68
66,test,1,inc,1,z,Mon Nov 10 2025 08:04:27 GMT-0600 (Central Standard Time),545532.8000000119,bronze,800,I,z,z,None,338,138.0,200.0,5,2,1679.0,543853.8000000119,8058,banana,NF,C,529268,529268,527739,528552,527739,529418,529068,529068,529418,69
67,test,1,inc,1,z,Mon Nov 10 2025 08:04:27 GMT-0600 (Central Standard Time),547548.7000000477,silver,1000,I,z,z,None,470,270.0,200.0,15,2,2012.2000000476837,545536.5,8058,cherry,NF,C,531151,531151,529422,530435,529422,531434,530951,530951,531434,70
68,test,1,inc,1,z,Mon Nov 10 2025 08:04:27 GMT-0600 (Central Standard Time),549464.9000000358,copper,900,I,z,z,None,467,267.0,200.0,22,2,1912.300000011921,547552.6000000238,8058,orange,NF,C,533067,533067,531438,532351,531438,533350,532867,532867,533350,71
69,test,1,inc,1,m,Mon Nov 10 2025 08:04:27 GMT-0600 (Central Standard Time),551247.6000000238,banana,800,I,m,m,None,443,243.0,200.0,85,2,1778.199999988079,549469.4000000358,8058,silver,NF,C,534883,534883,533354,534167,533355,535133,534683,534683,535133,72
70,test,1,inc,1,m,Mon Nov 10 2025 08:04:27 GMT-0600 (Central Standard Time),553246.9000000358,orange,1000,I,m,m,None,460,261.0,199.0,79,2,1995.5,551251.4000000358,8058,copper,NF,C,536865,536865,535136,536149,535137,537132,536666,536666,537132,73
71,test,1,inc,1,m,Mon Nov 10 2025 08:04:27 GMT-0600 (Central Standard Time),555146.2000000477,pear,900,I,m,m,None,444,240.0,204.0,118,2,1895.7000000476837,553250.5,8058,zinc,NF,C,538782,538782,537136,538049,537136,539031,538577,538577,539031,74
72,test,1,con,1,m,Mon Nov 10 2025 08:04:27 GMT-0600 (Central Standard Time),556995.9000000358,lead,800,I,m,m,None,513,314.0,199.0,121,2,1846.1000000238419,555149.8000000119,8058,lead,NF,C,540564,540564,539035,539848,539035,540881,540365,540365,540881,75
72,test,1,inc,0,m,Mon Nov 10 2025 08:04:27 GMT-0600 (Central Standard Time),558861.8000000119,kiwi,1000,I,z,z,None,320,120.0,200.0,127,2,1861.800000011921,557000.0,8058,lead,NF,C,542614,542614,540885,541897,540885,542747,542414,542414,542747,76
73,test,1,inc,1,z,Mon Nov 10 2025 08:04:27 GMT-0600 (Central Standard Time),560861.3000000119,zinc,1000,I,z,z,None,462,262.0,200.0,55,2,1995.8999999761581,558865.4000000358,8058,kiwi,NF,C,544480,544480,542750,543765,542751,544746,544280,544280,544746,77
74,test,1,inc,1,m,Mon Nov 10 2025 08:04:27 GMT-0600 (Central Standard Time),562794.0,pear,900,I,m,m,None,489,290.0,199.0,126,2,1928.8999999761581,560865.1000000238,8058,lead,NF,C,546379,546380,544750,545663,544750,546679,546180,546180,546679,78
75,test,1,con,1,z,Mon Nov 10 2025 08:04:27 GMT-0600 (Central Standard Time),564777.1000000238,pear,900,I,z,z,None,550,350.0,200.0,42,2,1979.3999999761581,562797.7000000477,8058,pear,NF,C,548312,548312,546683,547596,546683,548662,548112,548112,548662,79
76,test,1,inc,1,m,Mon Nov 10 2025 08:04:27 GMT-0600 (Central Standard Time),566792.9000000358,cherry,900,I,m,m,None,566,367.0,199.0,94,2,2012.300000011921,564780.6000000238,8058,cobalt,NF,C,550295,550295,548666,549578,548666,550678,550095,550095,550678,80
77,test,1,con,1,m,Mon Nov 10 2025 08:04:27 GMT-0600 (Central Standard Time),568908.9000000358,bronze,1100,I,m,m,None,479,279.0,200.0,68,2,2112.400000035763,566796.5,8058,bronze,NF,C,552511,552511,550682,551794,550682,552794,552311,552311,552794,81
78,test,1,con,1,m,Mon Nov 10 2025 08:04:27 GMT-0600 (Central Standard Time),570858.1000000238,silver,1000,I,m,m,None,407,207.0,200.0,83,2,1945.300000011921,568912.8000000119,8058,silver,NF,C,554527,554527,552798,553810,552798,554743,554327,554327,554743,82
79,test,1,inc,1,m,Mon Nov 10 2025 08:04:27 GMT-0600 (Central Standard Time),572657.3000000119,banana,800,I,m,m,None,466,266.0,200.0,93,2,1795.5999999642372,570861.7000000477,8058,cobalt,NF,C,556276,556276,554747,555560,554747,556542,556076,556076,556542,83
80,test,1,inc,1,z,Mon Nov 10 2025 08:04:27 GMT-0600 (Central Standard Time),574590.3000000119,iron,900,I,z,z,None,492,277.0,215.0,46,2,1929.199999988079,572661.1000000238,8058,pear,NF,C,558193,558193,556546,557459,556546,558475,557977,557977,558475,84
81,test,1,inc,1,z,Mon Nov 10 2025 08:04:27 GMT-0600 (Central Standard Time),576472.7000000477,bronze,800,I,z,z,None,550,350.0,200.0,29,2,1878.800000011921,574593.9000000358,8058,raisin,NF,C,560008,560008,558479,559292,558479,560358,559808,559808,560358,85
82,test,1,con,1,m,Mon Nov 10 2025 08:04:27 GMT-0600 (Central Standard Time),578423.3000000119,gold,900,I,m,m,None,502,256.0,246.0,98,2,1947.0999999642372,576476.2000000477,8058,gold,NF,C,562037,562037,560361,561275,560361,562308,561791,561791,562308,86
83,test,1,con,1,m,Mon Nov 10 2025 08:04:27 GMT-0600 (Central Standard Time),580271.9000000358,silver,900,I,m,m,None,410,210.0,200.0,82,2,1845.0,578426.9000000358,8058,silver,NF,C,563940,563940,562312,563224,562312,564157,563740,563740,564157,87
84,test,1,inc,1,z,Mon Nov 10 2025 08:04:27 GMT-0600 (Central Standard Time),582188.1000000238,iron,900,I,z,z,None,480,280.0,200.0,38,2,1912.6000000238419,580275.5,8058,lime,NF,C,565790,565790,564161,565075,564161,566073,565590,565590,566073,88
84,test,1,con,0,z,Mon Nov 10 2025 08:04:27 GMT-0600 (Central Standard Time),584104.1000000238,orange,900,I,m,m,None,467,267.0,200.0,18,2,1912.300000011921,582191.8000000119,8058,orange,NF,C,567706,567706,566077,566989,566077,567989,567506,567506,567989,89
85,test,1,con,1,z,Mon Nov 10 2025 08:04:27 GMT-0600 (Central Standard Time),586220.0,plum,1000,I,z,z,None,572,372.0,200.0,59,2,2112.199999988079,584107.8000000119,8058,plum,NF,C,569722,569722,567993,569005,567993,570105,569522,569522,570105,90
86,test,1,con,1,z,Mon Nov 10 2025 08:04:27 GMT-0600 (Central Standard Time),588369.3000000119,kiwi,1100,I,z,z,None,508,308.0,200.0,52,2,2145.5,586223.8000000119,8058,kiwi,NF,C,571938,571938,570109,571222,570109,572254,571738,571738,572254,91
87,test,1,inc,1,m,Mon Nov 10 2025 08:04:27 GMT-0600 (Central Standard Time),590385.2000000477,orange,1000,I,m,m,None,483,283.0,200.0,95,2,2012.2000000476837,588373.0,8058,cobalt,NF,C,573987,573987,572258,573271,572258,574270,573787,573787,574270,92
88,test,1,inc,1,m,Mon Nov 10 2025 08:04:27 GMT-0600 (Central Standard Time),592534.6000000238,raisin,1100,I,m,m,None,511,311.0,200.0,72,2,2145.5,590389.1000000238,8058,bronze,NF,C,576103,576103,574274,575387,574274,576420,575903,575903,576420,93
89,test,1,inc,1,m,Mon Nov 10 2025 08:04:27 GMT-0600 (Central Standard Time),594517.5,kiwi,1000,I,m,m,None,444,245.0,199.0,119,2,1979.0,592538.5,8058,zinc,NF,C,578153,578153,576424,577436,576424,578403,577953,577953,578403,94
90,test,1,con,1,z,Mon Nov 10 2025 08:04:27 GMT-0600 (Central Standard Time),596400.1000000238,kiwi,800,I,z,z,None,542,343.0,199.0,49,2,1878.5,594521.6000000238,8058,kiwi,NF,C,579935,579935,578407,579219,578407,580285,579735,579736,580285,95
91,test,1,inc,1,z,Mon Nov 10 2025 08:04:27 GMT-0600 (Central Standard Time),598166.3000000119,bronze,800,I,z,z,None,420,220.0,200.0,13,2,1762.5999999642372,596403.7000000477,8058,cherry,NF,C,581818,581818,580289,581101,580289,582051,581618,581618,582051,96
92,test,1,con,1,m,Mon Nov 10 2025 08:04:27 GMT-0600 (Central Standard Time),600248.8000000119,iron,1000,I,m,m,None,542,342.0,200.0,107,2,2078.699999988079,598170.1000000238,8058,iron,NF,C,583784,583784,582055,583068,582055,584134,583584,583584,584134,97
93,test,1,inc,1,z,Mon Nov 10 2025 08:04:27 GMT-0600 (Central Standard Time),602081.6000000238,gold,800,I,z,z,None,491,180.0,311.0,45,2,1829.199999988079,600252.4000000358,8058,pear,NF,C,585778,585778,584137,584951,584138,585967,585467,585467,585967,98
93,test,1,inc,0,m,Mon Nov 10 2025 08:04:27 GMT-0600 (Central Standard Time),604047.7000000477,orange,1000,I,z,z,None,425,226.0,199.0,87,2,1962.4000000357628,602085.3000000119,8058,silver,NF,C,587700,587700,585970,586983,585971,587933,587500,587500,587933,99
94,test,1,con,1,m,Mon Nov 10 2025 08:04:27 GMT-0600 (Central Standard Time),605897.2000000477,cobalt,900,I,m,m,None,400,200.0,200.0,90,2,1845.7000000476837,604051.5,8058,cobalt,NF,C,589566,589566,587937,588849,587937,589782,589366,589366,589782,100
95,test,1,inc,1,m,Mon Nov 10 2025 08:04:27 GMT-0600 (Central Standard Time),607963.2000000477,kiwi,1000,I,m,m,None,531,331.0,200.0,111,2,2062.300000011921,605900.9000000358,8058,iron,NF,C,591515,591515,589786,590798,589786,591848,591315,591315,591848,101
96,test,1,con,1,z,Mon Nov 10 2025 08:04:27 GMT-0600 (Central Standard Time),609912.5,cherry,900,I,z,z,None,510,310.0,200.0,10,2,1945.699999988079,607966.8000000119,8058,cherry,NF,C,593481,593481,591852,592765,591852,593798,593281,593281,593798,102
97,test,1,inc,1,z,Mon Nov 10 2025 08:04:27 GMT-0600 (Central Standard Time),612095.3000000119,lead,1100,I,z,z,None,544,344.0,200.0,48,2,2178.699999988079,609916.6000000238,8058,pear,NF,C,595630,595630,593802,594914,593802,595980,595430,595430,595980,103
98,test,1,inc,1,m,Mon Nov 10 2025 08:04:27 GMT-0600 (Central Standard Time),614094.6000000238,orange,1000,I,m,m,None,453,253.0,200.0,71,2,1995.6000000238419,612099.0,8058,bronze,NF,C,597713,597713,595984,596997,595984,597980,597513,597513,597980,104
98,test,1,con,0,z,Mon Nov 10 2025 08:04:27 GMT-0600 (Central Standard Time),616160.7000000477,lime,1100,I,m,m,None,424,225.0,199.0,36,2,2062.600000023842,614098.1000000238,8058,lime,NF,C,599813,599813,597983,599096,597983,600046,599613,599613,600046,105
99,test,1,inc,1,m,Mon Nov 10 2025 08:04:27 GMT-0600 (Central Standard Time),618226.2000000477,plum,1100,I,m,m,None,430,215.0,215.0,104,2,2061.900000035763,616164.3000000119,8058,gold,NF,C,601895,601895,600049,601162,600050,602111,601680,601680,602111,106
100,test,1,inc,1,z,Mon Nov 10 2025 08:04:27 GMT-0600 (Central Standard Time),620375.7000000477,cobalt,1100,I,z,z,None,499,300.0,199.0,32,2,2146.100000023842,618229.6000000238,8058,raisin,NF,C,603945,603945,602115,603228,602115,604261,603745,603745,604261,107
101,test,1,inc,1,m,Mon Nov 10 2025 08:04:27 GMT-0600 (Central Standard Time),622192.2000000477,lime,800,I,m,m,None,476,276.0,200.0,101,2,1812.9000000357628,620379.3000000119,8058,gold,NF,C,605794,605794,604264,605077,604265,606077,605594,605594,606077,108
102,test,1,con,1,z,Mon Nov 10 2025 08:04:27 GMT-0600 (Central Standard Time),624224.9000000358,orange,1000,I,z,z,None,500,300.0,200.0,19,2,2029.1000000238419,622195.8000000119,8058,orange,NF,C,607810,607810,606081,607094,606081,608110,607610,607610,608110,109
103,test,1,inc,1,m,Mon Nov 10 2025 08:04:27 GMT-0600 (Central Standard Time),626440.8000000119,plum,1100,I,m,m,None,475,275.0,200.0,112,2,2211.800000011921,624229.0,8058,iron,NF,C,610043,610043,608114,609336,608114,610326,609843,609843,610326,110
104,test,1,con,1,z,Mon Nov 10 2025 08:04:27 GMT-0600 (Central Standard Time),628273.2000000477,pear,800,I,z,z,None,491,291.0,200.0,41,2,1828.7000000476837,626444.5,8058,pear,NF,C,611859,611859,610330,611142,610330,612158,611659,611659,612158,111
105,test,1,con,1,z,Mon Nov 10 2025 08:04:27 GMT-0600 (Central Standard Time),630006.3000000119,plum,800,I,z,z,None,395,195.0,200.0,57,2,1729.300000011921,628277.0,8058,plum,NF,C,613691,613691,612162,612975,612162,613891,613491,613491,613891,112
106,test,1,con,1,m,Mon Nov 10 2025 08:04:27 GMT-0600 (Central Standard Time),631839.1000000238,lead,900,I,m,m,None,385,186.0,199.0,122,2,1829.199999988079,630009.9000000358,8058,lead,NF,C,615524,615524,613895,614808,613895,615724,615325,615325,615724,113
107,test,1,con,1,z,Mon Nov 10 2025 08:04:27 GMT-0600 (Central Standard Time),633704.7000000477,cherry,800,I,z,z,None,524,324.0,200.0,9,2,1861.800000011921,631842.9000000358,8058,cherry,NF,C,617257,617257,615728,616540,615728,617590,617057,617057,617590,114
108,test,1,inc,1,z,Mon Nov 10 2025 08:04:27 GMT-0600 (Central Standard Time),635937.4000000358,lead,1100,I,z,z,None,599,399.0,200.0,40,2,2229.0,633708.4000000358,8058,lime,NF,C,619423,619423,617593,618707,617594,619822,619223,619223,619822,115
109,test,1,con,1,m,Mon Nov 10 2025 08:04:27 GMT-0600 (Central Standard Time),637703.6000000238,copper,800,I,m,m,None,417,217.0,200.0,73,2,1762.699999988079,635940.9000000358,8058,copper,NF,C,621356,621356,619826,620639,619826,621589,621156,621156,621589,116
109,test,1,con,0,m,Mon Nov 10 2025 08:04:27 GMT-0600 (Central Standard Time),639436.3000000119,iron,800,I,z,z,None,396,196.0,200.0,105,2,1729.0,637707.3000000119,8058,iron,NF,C,623122,623122,621592,622406,621593,623321,622922,622922,623321,117
110,test,1,inc,1,z,Mon Nov 10 2025 08:04:27 GMT-0600 (Central Standard Time),641502.6000000238,zinc,1000,I,z,z,None,519,319.0,200.0,63,2,2062.5,639440.1000000238,8058,plum,NF,C,625055,625055,623325,624338,623325,625388,624855,624855,625388,118
111,test,1,con,1,m,Mon Nov 10 2025 08:04:27 GMT-0600 (Central Standard Time),643218.8000000119,cobalt,800,I,m,m,None,380,181.0,199.0,89,2,1712.699999988079,641506.1000000238,8058,cobalt,NF,C,626921,626921,625391,626204,625391,627104,626721,626721,627104,119
112,test,1,con,1,m,Mon Nov 10 2025 08:04:27 GMT-0600 (Central Standard Time),645151.5,cobalt,1000,I,m,m,None,393,193.0,200.0,91,2,1929.0999999642372,643222.4000000358,8058,cobalt,NF,C,628837,628837,627107,628120,627108,629037,628637,628637,629037,120
113,test,1,inc,1,z,Mon Nov 10 2025 08:04:27 GMT-0600 (Central Standard Time),647284.1000000238,cobalt,1100,I,z,z,None,487,288.0,199.0,8,2,2128.899999976158,645155.2000000477,8058,banana,NF,C,630870,630870,629040,630153,629040,631169,630670,630670,631169,121
114,test,1,con,1,z,Mon Nov 10 2025 08:04:27 GMT-0600 (Central Standard Time),649466.7000000477,banana,1100,I,z,z,None,428,223.0,205.0,4,2,2178.7000000476837,647288.0,8058,banana,NF,C,633119,633119,631173,632286,631173,633352,632914,632914,633352,122
115,test,1,con,1,z,Mon Nov 10 2025 08:04:27 GMT-0600 (Central Standard Time),651482.8000000119,pear,1100,I,z,z,None,381,181.0,200.0,44,2,2012.3999999761581,649470.4000000358,8058,pear,NF,C,635185,635185,633355,634468,633356,635368,634985,634985,635368,123
116,test,1,con,1,m,Mon Nov 10 2025 08:04:27 GMT-0600 (Central Standard Time),653482.3000000119,iron,1100,I,m,m,None,357,157.0,200.0,108,2,1995.800000011921,651486.5,8058,iron,NF,C,637201,637201,635372,636484,635372,637367,637001,637001,637367,124
117,test,1,inc,1,z,Mon Nov 10 2025 08:04:27 GMT-0600 (Central Standard Time),655614.8000000119,lead,1100,I,z,z,None,493,293.0,200.0,56,2,2128.899999976158,653485.9000000358,8058,kiwi,NF,C,639200,639201,637371,638484,637371,639500,639000,639000,639500,125
118,test,1,con,1,z,Mon Nov 10 2025 08:04:27 GMT-0600 (Central Standard Time),657597.7000000477,kiwi,900,I,z,z,None,537,337.0,200.0,50,2,1979.2000000476837,655618.5,8058,kiwi,NF,C,641133,641133,639504,640417,639504,641483,640933,640933,641483,126
119,test,1,con,1,m,Mon Nov 10 2025 08:04:27 GMT-0600 (Central Standard Time),659630.4000000358,zinc,1000,I,m,m,None,493,294.0,199.0,115,2,2029.1000000238419,657601.3000000119,8058,zinc,NF,C,643215,643216,641486,642499,641487,643516,643016,643016,643515,127
120,test,1,con,1,m,Mon Nov 10 2025 08:04:27 GMT-0600 (Central Standard Time),661496.5,gold,800,I,m,m,None,526,326.0,200.0,97,2,1862.0999999642372,659634.4000000358,8058,gold,NF,C,645048,645048,643519,644332,643520,645382,644848,644848,645382,128
