acc_sum,block,block_c,condition,correct,correct_response,datetime,endtime,flanker,jitter,project,response,response_test_buffer_response,response_test_target_response,response_time,response_time_test_buffer_response,response_time_test_target_response,row_sel,session_number,start_end,starttime,subject_id,target,task,task_vers,time_test_buffer,time_test_buffer_response,time_test_constants,time_test_flanker,time_test_jitter,time_test_logger,time_test_target,time_test_target_response,time_test_variables,trial
0,prac,1,inc,0,m,Fri Nov 14 2025 16:03:21 GMT-0600 (Central Standard Time),195595.89999997616,pear,900,I,None,,,1799,,,14,1,4960.799999952316,190635.10000002384,7237,iron,NF,C,,,,,,,,,,1
1,prac,1,con,1,z,Fri Nov 14 2025 16:03:21 GMT-0600 (Central Standard Time),198228.39999997616,banana,800,I,z,,,528,,,1,1,2627.600000023842,195600.79999995232,7237,banana,NF,C,,,,,,,,,,2
2,prac,1,con,1,z,Fri Nov 14 2025 16:03:21 GMT-0600 (Central Standard Time),200761.89999997616,lime,800,I,z,,,423,,,5,1,2529.2000000476837,198232.69999992847,7237,lime,NF,C,,,,,,,,,,3
3,prac,1,con,1,z,Fri Nov 14 2025 16:03:21 GMT-0600 (Central Standard Time),203476.60000002384,orange,1000,I,z,,,403,,,3,1,2711.3000000715256,200765.29999995232,7237,orange,NF,C,,,,,,,,,,4
4,prac,1,con,1,m,Fri Nov 14 2025 16:03:21 GMT-0600 (Central Standard Time),206026.29999995232,bronze,800,I,m,,,440,,,9,1,2545.5,203480.79999995232,7237,bronze,NF,C,,,,,,,,,,5
5,prac,1,inc,1,z,Fri Nov 14 2025 16:03:21 GMT-0600 (Central Standard Time),208675.29999995232,iron,900,I,z,,,438,,,6,1,2645.600000023842,206029.69999992847,7237,pear,NF,C,,,,,,,,,,6
5,prac,1,inc,0,m,Fri Nov 14 2025 16:03:21 GMT-0600 (Central Standard Time),211490.69999992847,raisin,1100,I,z,,,412,,,12,1,2811.399999976158,208679.29999995232,7237,cobalt,NF,C,,,,,,,,,,7
6,prac,1,inc,1,z,Fri Nov 14 2025 16:03:21 GMT-0600 (Central Standard Time),214439.69999992847,cobalt,1100,I,z,,,541,,,4,1,2945.1999999284744,211494.5,7237,raisin,NF,C,,,,,,,,,,8
7,prac,1,inc,1,z,Fri Nov 14 2025 16:03:21 GMT-0600 (Central Standard Time),217273.39999997616,copper,900,I,z,,,633,,,2,1,2829.899999976158,214443.5,7237,cherry,NF,C,,,,,,,,,,9
7,prac,1,con,0,m,Fri Nov 14 2025 16:03:21 GMT-0600 (Central Standard Time),220104.60000002384,zinc,1000,I,z,,,517,,,15,1,2826.4000000953674,217278.19999992847,7237,zinc,NF,C,,,,,,,,,,10
8,prac,1,con,1,m,Fri Nov 14 2025 16:03:21 GMT-0600 (Central Standard Time),222737.0,gold,800,I,m,,,515,,,13,1,2629.0,220108.0,7237,gold,NF,C,,,,,,,,,,11
9,prac,1,inc,1,z,Fri Nov 14 2025 16:03:21 GMT-0600 (Central Standard Time),225686.29999995232,lead,1100,I,z,,,534,,,8,1,2946.100000023842,222740.19999992847,7237,plum,NF,C,,,,,,,,,,12
10,prac,1,inc,1,m,Fri Nov 14 2025 16:03:21 GMT-0600 (Central Standard Time),228685.39999997616,cherry,900,I,m,,,793,,,10,1,2995.5,225689.89999997616,7237,copper,NF,C,,,,,,,,,,13
11,prac,1,inc,1,m,Fri Nov 14 2025 16:03:21 GMT-0600 (Central Standard Time),231584.5,plum,1100,I,m,,,500,,,16,1,2895.7000000476837,228688.79999995232,7237,lead,NF,C,,,,,,,,,,14
12,prac,1,con,1,m,Fri Nov 14 2025 16:03:21 GMT-0600 (Central Standard Time),234386.39999997616,silver,1000,I,m,,,507,,,11,1,2797.2999999523163,231589.10000002384,7237,silver,NF,C,,,,,,,,,,15
13,prac,1,con,1,z,Fri Nov 14 2025 16:03:21 GMT-0600 (Central Standard Time),237365.79999995232,kiwi,1000,I,z,,,677,,,7,1,2976.0,234389.79999995232,7237,kiwi,NF,C,,,,,,,,,,16
1,test,1,con,1,m,Fri Nov 14 2025 16:03:21 GMT-0600 (Central Standard Time),262341.6999999285,silver,900,I,m,m,None,538,339.0,199.0,82,1,1979.2999999523163,260362.39999997616,7237,silver,NF,C,257485,257485,255856,256770,255857,257836,257286,257286,257836,1
2,test,1,con,1,z,Fri Nov 14 2025 16:03:21 GMT-0600 (Central Standard Time),264373.89999997616,raisin,1000,I,z,z,None,487,287.0,200.0,27,1,2027.7000000476837,262346.1999999285,7237,raisin,NF,C,259568,259568,257840,258852,257841,259868,259368,259368,259868,2
3,test,1,con,1,m,Fri Nov 14 2025 16:03:21 GMT-0600 (Central Standard Time),266672.7999999523,zinc,1100,I,m,m,None,657,457.0,200.0,116,1,2293.0,264379.7999999523,7237,zinc,NF,C,261702,261702,259874,260984,259874,262167,261501,261501,262167,3
4,test,1,con,1,m,Fri Nov 14 2025 16:03:21 GMT-0600 (Central Standard Time),268439.39999997616,zinc,800,I,m,m,None,427,227.0,200.0,113,1,1763.2000000476837,266676.1999999285,7237,zinc,NF,C,263700,263700,262170,262984,262171,263933,263500,263500,263933,4
5,test,1,con,1,m,Fri Nov 14 2025 16:03:21 GMT-0600 (Central Standard Time),270355.60000002384,copper,1000,I,m,m,None,372,157.0,215.0,75,1,1912.9000000953674,268442.6999999285,7237,copper,NF,C,265683,265683,263937,264951,263937,265850,265468,265468,265849,5
6,test,1,con,1,m,Fri Nov 14 2025 16:03:21 GMT-0600 (Central Standard Time),272388.10000002384,silver,1100,I,m,m,None,396,196.0,200.0,84,1,2029.2000000476837,270358.89999997616,7237,silver,NF,C,267683,267683,265853,266966,265853,267882,267483,267483,267882,6
7,test,1,inc,1,z,Fri Nov 14 2025 16:03:21 GMT-0600 (Central Standard Time),274454.2999999523,silver,1000,I,z,z,None,535,336.0,199.0,23,1,2062.899999976158,272391.39999997616,7237,orange,NF,C,269599,269599,267885,268898,267886,269948,269399,269399,269948,7
8,test,1,inc,1,m,Fri Nov 14 2025 16:03:21 GMT-0600 (Central Standard Time),276653.5,kiwi,1000,I,m,m,None,654,455.0,199.0,127,1,2196.100000023842,274457.39999997616,7237,lead,NF,C,271681,271681,269951,270965,269952,272148,271481,271481,272148,8
9,test,1,inc,1,z,Fri Nov 14 2025 16:03:21 GMT-0600 (Central Standard Time),278802.89999997616,cobalt,1100,I,z,z,None,517,316.0,201.0,16,1,2146.2999999523163,276656.60000002384,7237,cherry,NF,C,273981,273981,272151,273264,272151,274297,273780,273780,274297,9
9,test,1,inc,0,z,Fri Nov 14 2025 16:03:21 GMT-0600 (Central Standard Time),280852.2999999523,cobalt,1100,I,m,m,None,429,230.0,199.0,32,1,2046.1999999284744,278806.10000002384,7237,raisin,NF,C,276113,276113,274300,275413,274300,276346,275914,275914,276346,10
10,test,1,con,1,z,Fri Nov 14 2025 16:03:21 GMT-0600 (Central Standard Time),282701.39999997616,kiwi,900,I,z,z,None,404,204.0,200.0,50,1,1845.7999999523163,280855.60000002384,7237,kiwi,NF,C,277980,277980,276350,277262,276350,278195,277779,277779,278195,11
11,test,1,con,1,z,Fri Nov 14 2025 16:03:21 GMT-0600 (Central Standard Time),284517.39999997616,kiwi,800,I,z,z,None,480,278.0,202.0,49,1,1813.0,282704.39999997616,7237,kiwi,NF,C,279730,279730,278198,279012,278199,280012,279528,279528,280011,12
12,test,1,con,1,z,Fri Nov 14 2025 16:03:21 GMT-0600 (Central Standard Time),286434.60000002384,cherry,900,I,z,z,None,474,275.0,199.0,10,1,1913.9000000953674,284520.6999999285,7237,cherry,NF,C,281644,281645,280015,280928,280015,281929,281445,281445,281929,13
13,test,1,con,1,m,Fri Nov 14 2025 16:03:21 GMT-0600 (Central Standard Time),288448.89999997616,cobalt,1100,I,m,m,None,373,174.0,199.0,92,1,2010.7999999523163,286438.10000002384,7237,cobalt,NF,C,283761,283761,281932,283044,281932,283943,283561,283561,283943,14
14,test,1,inc,1,z,Fri Nov 14 2025 16:03:21 GMT-0600 (Central Standard Time),290664.6999999285,lead,1100,I,z,z,None,581,382.0,199.0,48,1,2212.899999976158,288451.7999999523,7237,pear,NF,C,285777,285777,283946,285060,283946,286159,285577,285577,286159,15
15,test,1,con,1,z,Fri Nov 14 2025 16:03:21 GMT-0600 (Central Standard Time),292648.89999997616,plum,1000,I,z,z,None,434,235.0,199.0,59,1,1981.0,290667.89999997616,7237,plum,NF,C,287892,287892,286162,287176,286162,288143,287692,287693,288143,16
16,test,1,con,1,m,Fri Nov 14 2025 16:03:21 GMT-0600 (Central Standard Time),294581.0,bronze,1000,I,m,m,None,386,187.0,199.0,67,1,1928.8000000715256,292652.1999999285,7237,bronze,NF,C,289876,289876,288146,289159,288146,290075,289676,289676,290075,17
17,test,1,inc,1,z,Fri Nov 14 2025 16:03:21 GMT-0600 (Central Standard Time),296347.10000002384,bronze,800,I,z,z,None,432,232.0,200.0,29,1,1762.7000000476837,294584.39999997616,7237,raisin,NF,C,291608,291608,290078,290892,290079,291841,291408,291408,291841,18
18,test,1,inc,1,m,Fri Nov 14 2025 16:03:21 GMT-0600 (Central Standard Time),298229.5,banana,800,I,m,m,None,535,320.0,215.0,85,1,1879.6000000238419,296349.89999997616,7237,silver,NF,C,293391,293391,291844,292658,291844,293724,293176,293176,293724,19
19,test,1,inc,1,m,Fri Nov 14 2025 16:03:21 GMT-0600 (Central Standard Time),300378.2999999523,cherry,900,I,m,m,None,713,514.0,199.0,78,1,2145.7999999523163,298232.5,7237,copper,NF,C,295357,295357,293727,294641,293727,295872,295157,295157,295872,20
20,test,1,inc,1,m,Fri Nov 14 2025 16:03:21 GMT-0600 (Central Standard Time),302395.60000002384,pear,900,I,m,m,None,571,372.0,199.0,110,1,2014.4000000953674,300381.1999999285,7237,iron,NF,C,297507,297507,295875,296789,295875,297890,297308,297308,297890,21
21,test,1,inc,1,z,Fri Nov 14 2025 16:03:21 GMT-0600 (Central Standard Time),304278.60000002384,gold,800,I,z,z,None,537,337.0,200.0,53,1,1879.6000000238419,302399.0,7237,kiwi,NF,C,299422,299422,297893,298707,297893,299773,299222,299222,299773,22
22,test,1,inc,1,z,Fri Nov 14 2025 16:03:21 GMT-0600 (Central Standard Time),306144.10000002384,copper,900,I,z,z,None,425,226.0,199.0,30,1,1862.5,304281.60000002384,7237,raisin,NF,C,301405,301405,299776,300689,299776,301638,301206,301206,301638,23
23,test,1,con,1,m,Fri Nov 14 2025 16:03:21 GMT-0600 (Central Standard Time),308093.39999997616,cobalt,900,I,m,m,None,513,313.0,200.0,90,1,1946.3999999761581,306147.0,7237,cobalt,NF,C,303272,303272,301641,302555,301641,303587,303071,303071,303587,24
24,test,1,inc,1,m,Fri Nov 14 2025 16:03:21 GMT-0600 (Central Standard Time),309909.39999997616,lime,800,I,m,m,None,470,270.0,200.0,117,1,1813.3999999761581,308096.0,7237,zinc,NF,C,305121,305121,303590,304404,303590,305403,304921,304921,305403,25
25,test,1,con,1,z,Fri Nov 14 2025 16:03:21 GMT-0600 (Central Standard Time),311941.89999997616,banana,900,I,z,z,None,586,386.0,200.0,2,1,2029.2999999523163,309912.60000002384,7237,banana,NF,C,307037,307037,305407,306329,305407,307436,306837,306837,307436,26
26,test,1,con,1,z,Fri Nov 14 2025 16:03:21 GMT-0600 (Central Standard Time),313841.89999997616,cherry,800,I,z,z,None,557,358.0,199.0,9,1,1897.2000000476837,311944.6999999285,7237,cherry,NF,C,308969,308969,307439,308253,307439,309336,308770,308770,309336,27
27,test,1,con,1,z,Fri Nov 14 2025 16:03:21 GMT-0600 (Central Standard Time),315790.2999999523,lime,900,I,z,z,None,510,310.0,200.0,34,1,1945.7999999523163,313844.5,7237,lime,NF,C,310969,310969,309339,310252,309339,311284,310769,310769,311284,28
28,test,1,con,1,m,Fri Nov 14 2025 16:03:21 GMT-0600 (Central Standard Time),317524.1999999285,gold,800,I,m,m,None,389,189.0,200.0,97,1,1731.2999999523163,315792.89999997616,7237,gold,NF,C,312818,312818,311287,312102,311287,313018,312618,312618,313018,29
29,test,1,con,1,m,Fri Nov 14 2025 16:03:21 GMT-0600 (Central Standard Time),319223.10000002384,copper,800,I,m,m,None,360,160.0,200.0,73,1,1696.0,317527.10000002384,7237,copper,NF,C,314551,314551,313021,313834,313021,314717,314351,314351,314717,30
30,test,1,con,1,z,Fri Nov 14 2025 16:03:21 GMT-0600 (Central Standard Time),321072.60000002384,raisin,900,I,z,z,None,401,201.0,200.0,26,1,1846.9000000953674,319225.6999999285,7237,raisin,NF,C,316350,316350,314720,315634,314720,316567,316150,316150,316567,31
31,test,1,con,1,m,Fri Nov 14 2025 16:03:21 GMT-0600 (Central Standard Time),322871.5,lead,900,I,m,m,None,351,150.0,201.0,122,1,1796.1000000238419,321075.39999997616,7237,lead,NF,C,318201,318201,316569,317483,316570,318366,317999,317999,318366,32
32,test,1,inc,1,m,Fri Nov 14 2025 16:03:21 GMT-0600 (Central Standard Time),324972.0,raisin,1100,I,m,m,None,451,252.0,199.0,96,1,2097.5,322874.5,7237,cobalt,NF,C,320198,320198,318369,319482,318369,320466,319999,319999,320466,33
33,test,1,inc,1,z,Fri Nov 14 2025 16:03:21 GMT-0600 (Central Standard Time),326904.89999997616,iron,900,I,z,z,None,484,284.0,200.0,54,1,1930.2000000476837,324974.6999999285,7237,kiwi,NF,C,322099,322099,320469,321382,320469,322399,321898,321898,322399,34
34,test,1,con,1,m,Fri Nov 14 2025 16:03:21 GMT-0600 (Central Standard Time),328954.2999999523,cobalt,1000,I,m,m,None,507,308.0,199.0,91,1,2046.6999999284744,326907.60000002384,7237,cobalt,NF,C,324131,324131,322402,323414,322402,324448,323931,323931,324448,35
34,test,1,con,0,z,Fri Nov 14 2025 16:03:21 GMT-0600 (Central Standard Time),331019.39999997616,plum,1100,I,m,m,None,424,223.0,201.0,60,1,2062.2999999523163,328957.10000002384,7237,plum,NF,C,326281,326281,324451,325564,324451,326513,326080,326080,326513,36
35,test,1,inc,1,z,Fri Nov 14 2025 16:03:21 GMT-0600 (Central Standard Time),333168.60000002384,lead,1100,I,z,z,None,501,302.0,199.0,64,1,2146.3000000715256,331022.2999999523,7237,plum,NF,C,328346,328346,326516,327630,326516,328663,328147,328147,328663,37
36,test,1,con,1,z,Fri Nov 14 2025 16:03:21 GMT-0600 (Central Standard Time),335201.39999997616,orange,1100,I,z,z,None,400,199.0,201.0,20,1,2026.3999999761581,333175.0,7237,orange,NF,C,330496,330496,328669,329780,328669,330695,330295,330295,330695,38
37,test,1,inc,1,m,Fri Nov 14 2025 16:03:21 GMT-0600 (Central Standard Time),337034.2999999523,banana,800,I,m,m,None,491,291.0,200.0,69,1,1829.8999999761581,335204.39999997616,7237,bronze,NF,C,332228,332228,330698,331511,330699,332528,332028,332028,332528,39
38,test,1,con,1,z,Fri Nov 14 2025 16:03:21 GMT-0600 (Central Standard Time),339000.0,lime,1000,I,z,z,None,426,227.0,199.0,35,1,1961.3000000715256,337038.6999999285,7237,lime,NF,C,334261,334261,332533,333545,332533,334494,334061,334062,334494,40
39,test,1,inc,1,m,Fri Nov 14 2025 16:03:21 GMT-0600 (Central Standard Time),340816.10000002384,lime,800,I,m,m,None,476,276.0,200.0,101,1,1813.0,339003.10000002384,7237,gold,NF,C,336027,336027,334497,335311,334497,336310,335827,335827,336310,41
40,test,1,inc,1,m,Fri Nov 14 2025 16:03:21 GMT-0600 (Central Standard Time),342748.39999997616,cherry,900,I,m,m,None,496,296.0,200.0,94,1,1929.7999999523163,340818.60000002384,7237,cobalt,NF,C,337943,337943,336313,337227,336313,338243,337743,337743,338242,42
41,test,1,inc,1,z,Fri Nov 14 2025 16:03:21 GMT-0600 (Central Standard Time),344581.5,gold,800,I,z,z,None,486,287.0,199.0,37,1,1830.1000000238419,342751.39999997616,7237,lime,NF,C,339776,339776,338245,339059,338246,340076,339577,339577,340076,43
42,test,1,con,1,m,Fri Nov 14 2025 16:03:21 GMT-0600 (Central Standard Time),346431.0,cobalt,800,I,m,m,None,509,309.0,200.0,89,1,1846.8999999761581,344584.10000002384,7237,cobalt,NF,C,341610,341610,340078,340893,340078,341925,341410,341410,341925,44
43,test,1,inc,1,z,Fri Nov 14 2025 16:03:21 GMT-0600 (Central Standard Time),348231.2999999523,bronze,800,I,z,z,None,453,253.0,200.0,5,1,1797.1000000238419,346434.1999999285,7237,banana,NF,C,343458,343458,341928,342742,341928,343725,343258,343258,343725,45
44,test,1,con,1,z,Fri Nov 14 2025 16:03:21 GMT-0600 (Central Standard Time),350215.89999997616,orange,900,I,z,z,None,539,339.0,200.0,18,1,1981.5,348234.39999997616,7237,orange,NF,C,345357,345357,343728,344641,343729,345710,345157,345157,345710,46
45,test,1,con,1,m,Fri Nov 14 2025 16:03:21 GMT-0600 (Central Standard Time),352146.0,gold,900,I,m,m,None,490,290.0,200.0,98,1,1926.8000000715256,350219.1999999285,7237,gold,NF,C,347341,347341,345713,346624,345713,347640,347140,347140,347640,47
46,test,1,con,1,z,Fri Nov 14 2025 16:03:21 GMT-0600 (Central Standard Time),354261.7999999523,raisin,1100,I,z,z,None,469,254.0,215.0,28,1,2113.1999999284744,352148.60000002384,7237,raisin,NF,C,349489,349489,347643,348756,347643,349756,349274,349274,349756,48
47,test,1,inc,1,m,Fri Nov 14 2025 16:03:21 GMT-0600 (Central Standard Time),356228.2999999523,kiwi,1000,I,m,m,None,430,231.0,199.0,119,1,1963.2999999523163,354265.0,7237,zinc,NF,C,351489,351489,349759,350774,349759,351722,351290,351290,351722,49
48,test,1,inc,1,z,Fri Nov 14 2025 16:03:21 GMT-0600 (Central Standard Time),358127.39999997616,zinc,1000,I,z,z,None,372,160.0,212.0,47,1,1896.5,356230.89999997616,7237,pear,NF,C,353455,353455,351725,352739,351725,353621,353243,353243,353621,50
48,test,1,inc,0,z,Fri Nov 14 2025 16:03:21 GMT-0600 (Central Standard Time),359860.89999997616,gold,800,I,m,m,None,404,205.0,199.0,61,1,1730.1000000238419,358130.7999999523,7237,plum,NF,C,355138,355138,353625,354438,353625,355355,354939,354939,355355,51
49,test,1,inc,1,z,Fri Nov 14 2025 16:03:21 GMT-0600 (Central Standard Time),361776.2999999523,copper,900,I,z,z,None,467,266.0,201.0,6,1,1912.7999999523163,359863.5,7237,banana,NF,C,356989,356989,355358,356272,355358,357270,356787,356787,357270,52
50,test,1,con,1,z,Fri Nov 14 2025 16:03:21 GMT-0600 (Central Standard Time),363659.1999999285,lime,800,I,z,z,None,548,348.0,200.0,33,1,1880.2999999523163,361778.89999997616,7237,lime,NF,C,358803,358804,357273,358087,357273,359153,358603,358603,359153,53
51,test,1,inc,1,z,Fri Nov 14 2025 16:03:21 GMT-0600 (Central Standard Time),365724.89999997616,iron,900,I,z,z,None,621,421.0,200.0,38,1,2061.2000000476837,363663.6999999285,7237,lime,NF,C,360786,360786,359158,360070,359158,361219,360586,360586,361219,54
52,test,1,inc,1,z,Fri Nov 14 2025 16:03:21 GMT-0600 (Central Standard Time),367841.1999999285,zinc,1000,I,z,z,None,583,383.0,200.0,39,1,2113.2999999523163,365727.89999997616,7237,lime,NF,C,362952,362952,361222,362236,361222,363335,362752,362752,363335,55
53,test,1,inc,1,m,Fri Nov 14 2025 16:03:21 GMT-0600 (Central Standard Time),369706.6999999285,pear,900,I,m,m,None,422,222.0,200.0,102,1,1863.0,367843.6999999285,7237,gold,NF,C,364969,364969,363338,364252,363338,365201,364768,364768,365201,56
53,test,1,inc,0,m,Fri Nov 14 2025 16:03:21 GMT-0600 (Central Standard Time),371840.5,banana,800,I,z,z,None,793,593.0,200.0,77,1,2130.8000000715256,369709.6999999285,7237,copper,NF,C,366735,366735,365204,366017,365204,367335,366534,366534,367335,57
54,test,1,con,1,z,Fri Nov 14 2025 16:03:21 GMT-0600 (Central Standard Time),373673.1999999285,plum,800,I,z,z,None,491,292.0,199.0,57,1,1830.1999999284744,371843.0,7237,plum,NF,C,368867,368867,367337,368150,367337,369167,368667,368667,369167,58
55,test,1,con,1,z,Fri Nov 14 2025 16:03:21 GMT-0600 (Central Standard Time),375788.2999999523,kiwi,1100,I,z,z,None,488,288.0,200.0,52,1,2111.6999999284744,373676.60000002384,7237,kiwi,NF,C,370983,370983,369171,370282,369171,371282,370783,370783,371282,59
56,test,1,inc,1,m,Fri Nov 14 2025 16:03:21 GMT-0600 (Central Standard Time),377720.89999997616,cherry,900,I,m,m,None,498,299.0,199.0,86,1,1929.8999999761581,375791.0,7237,silver,NF,C,372916,372916,371285,372199,371285,373215,372716,372716,373215,60
57,test,1,inc,1,m,Fri Nov 14 2025 16:03:21 GMT-0600 (Central Standard Time),379620.7999999523,banana,800,I,m,m,None,563,363.0,200.0,93,1,1897.2999999523163,377723.5,7237,cobalt,NF,C,374748,374748,373218,374032,373218,375115,374548,374548,375115,61
58,test,1,con,1,z,Fri Nov 14 2025 16:03:21 GMT-0600 (Central Standard Time),381404.10000002384,orange,800,I,z,z,None,438,237.0,201.0,17,1,1780.5,379623.60000002384,7237,orange,NF,C,376650,376650,375118,375931,375118,376898,376448,376448,376898,62
58,test,1,con,0,m,Fri Nov 14 2025 16:03:21 GMT-0600 (Central Standard Time),383519.60000002384,iron,1100,I,z,z,None,468,268.0,200.0,108,1,2112.7000000476837,381406.89999997616,7237,iron,NF,C,378731,378731,376901,378014,376901,379014,378530,378530,379014,63
59,test,1,con,1,z,Fri Nov 14 2025 16:03:21 GMT-0600 (Central Standard Time),385568.1999999285,pear,1100,I,z,z,None,408,209.0,199.0,44,1,2045.3999999761581,383522.7999999523,7237,pear,NF,C,380846,380846,379017,380130,379017,381062,380647,380647,381062,64
60,test,1,con,1,z,Fri Nov 14 2025 16:03:21 GMT-0600 (Central Standard Time),387950.89999997616,cherry,1000,I,z,z,None,860,661.0,199.0,11,1,2379.7000000476837,385571.1999999285,7237,cherry,NF,C,382779,382779,381065,382079,381065,383445,382580,382580,383445,65
61,test,1,inc,1,m,Fri Nov 14 2025 16:03:21 GMT-0600 (Central Standard Time),389917.89999997616,orange,1000,I,m,m,None,430,230.0,200.0,87,1,1964.5,387953.39999997616,7237,silver,NF,C,385178,385178,383447,384463,383448,385412,384978,384978,385412,66
62,test,1,inc,1,m,Fri Nov 14 2025 16:03:21 GMT-0600 (Central Standard Time),392100.10000002384,raisin,1100,I,m,m,None,537,338.0,199.0,88,1,2179.5,389920.60000002384,7237,silver,NF,C,387245,387245,385415,386528,385415,387594,387045,387045,387594,67
63,test,1,inc,1,z,Fri Nov 14 2025 16:03:21 GMT-0600 (Central Standard Time),394332.7999999523,lead,1100,I,z,z,None,597,397.0,200.0,56,1,2228.600000023842,392104.1999999285,7237,kiwi,NF,C,389427,389427,387598,388711,387599,389827,389227,389227,389827,68
64,test,1,con,1,z,Fri Nov 14 2025 16:03:21 GMT-0600 (Central Standard Time),396782.5,cherry,1100,I,z,z,None,812,611.0,201.0,12,1,2446.8000000715256,394335.6999999285,7237,cherry,NF,C,391660,391660,389830,390943,389830,392277,391459,391459,392277,69
65,test,1,con,1,z,Fri Nov 14 2025 16:03:21 GMT-0600 (Central Standard Time),398681.0,orange,1000,I,z,z,None,358,159.0,199.0,19,1,1895.5,396785.5,7237,orange,NF,C,394009,394009,392280,393292,392280,394175,393809,393809,394175,70
66,test,1,inc,1,z,Fri Nov 14 2025 16:03:21 GMT-0600 (Central Standard Time),400814.10000002384,silver,1000,I,z,z,None,587,387.0,200.0,7,1,2130.2000000476837,398683.89999997616,7237,banana,NF,C,395908,395908,394178,395191,394178,396308,395708,395708,396308,71
67,test,1,con,1,m,Fri Nov 14 2025 16:03:21 GMT-0600 (Central Standard Time),402746.5,iron,1000,I,m,m,None,390,190.0,200.0,107,1,1929.5,400817.0,7237,iron,NF,C,398041,398041,396311,397324,396311,398241,397840,397840,398241,72
68,test,1,inc,1,m,Fri Nov 14 2025 16:03:21 GMT-0600 (Central Standard Time),404829.0,kiwi,1000,I,m,m,None,537,336.0,201.0,103,1,2079.899999976158,402749.10000002384,7237,gold,NF,C,399975,399975,398243,399257,398243,400323,399774,399774,400323,73
69,test,1,con,1,z,Fri Nov 14 2025 16:03:21 GMT-0600 (Central Standard Time),406978.1999999285,pear,1000,I,z,z,None,608,408.0,200.0,43,1,2144.0,404834.1999999285,7237,pear,NF,C,402056,402056,400328,401340,400328,402472,401856,401856,402472,74
70,test,1,inc,1,m,Fri Nov 14 2025 16:03:21 GMT-0600 (Central Standard Time),409112.1999999285,cherry,900,I,m,m,None,700,485.0,215.0,70,1,2131.399999976158,406980.7999999523,7237,bronze,NF,C,404106,404106,402475,403389,402475,404606,403891,403891,404606,75
71,test,1,inc,1,z,Fri Nov 14 2025 16:03:21 GMT-0600 (Central Standard Time),411093.2999999523,copper,900,I,z,z,None,537,337.0,200.0,22,1,1977.1000000238419,409116.1999999285,7237,orange,NF,C,406238,406238,404610,405522,404611,406587,406038,406038,406587,76
72,test,1,inc,1,z,Fri Nov 14 2025 16:03:21 GMT-0600 (Central Standard Time),413110.1999999285,iron,900,I,z,z,None,578,378.0,200.0,46,1,2014.3999999761581,411095.7999999523,7237,pear,NF,C,408222,408222,406590,407505,406590,408604,408021,408021,408604,77
73,test,1,inc,1,m,Fri Nov 14 2025 16:03:21 GMT-0600 (Central Standard Time),415193.1999999285,raisin,1100,I,m,m,None,442,241.0,201.0,80,1,2080.399999976158,413112.7999999523,7237,copper,NF,C,410439,410439,408607,409721,408607,410687,410237,410237,410687,78
74,test,1,inc,1,m,Fri Nov 14 2025 16:03:21 GMT-0600 (Central Standard Time),417426.39999997616,plum,1100,I,m,m,None,584,384.0,200.0,120,1,2230.7999999523163,415195.60000002384,7237,zinc,NF,C,412519,412519,410690,411803,410690,412920,412319,412319,412920,79
75,test,1,inc,1,m,Fri Nov 14 2025 16:03:21 GMT-0600 (Central Standard Time),419474.6999999285,kiwi,1000,I,m,m,None,507,308.0,199.0,111,1,2045.7999999523163,417428.89999997616,7237,iron,NF,C,414652,414652,412923,413936,412923,414969,414453,414453,414969,80
76,test,1,inc,1,m,Fri Nov 14 2025 16:03:21 GMT-0600 (Central Standard Time),421573.5,plum,1100,I,m,m,None,461,261.0,200.0,112,1,2096.3000000715256,419477.1999999285,7237,iron,NF,C,416802,416802,414971,416085,414971,417068,416602,416602,417068,81
77,test,1,con,1,m,Fri Nov 14 2025 16:03:21 GMT-0600 (Central Standard Time),423390.10000002384,silver,800,I,m,m,None,493,278.0,215.0,81,1,1813.9000000953674,421576.1999999285,7237,silver,NF,C,418601,418601,417070,417884,417070,418884,418386,418386,418884,82
78,test,1,con,1,z,Fri Nov 14 2025 16:03:21 GMT-0600 (Central Standard Time),425222.39999997616,pear,800,I,z,z,None,495,295.0,200.0,41,1,1829.7999999523163,423392.60000002384,7237,pear,NF,C,420417,420417,418887,419701,418887,420717,420217,420217,420716,83
79,test,1,inc,1,z,Fri Nov 14 2025 16:03:21 GMT-0600 (Central Standard Time),427439.6999999285,copper,900,I,z,z,None,769,569.0,200.0,14,1,2214.5,425225.1999999285,7237,cherry,NF,C,422350,422350,420719,421633,420719,422934,422150,422150,422934,84
80,test,1,inc,1,z,Fri Nov 14 2025 16:03:21 GMT-0600 (Central Standard Time),429504.7999999523,silver,1000,I,z,z,None,533,333.0,200.0,31,1,2062.5,427442.2999999523,7237,raisin,NF,C,424666,424666,422936,423949,422937,424999,424466,424466,424999,85
81,test,1,con,1,z,Fri Nov 14 2025 16:03:21 GMT-0600 (Central Standard Time),431371.10000002384,banana,800,I,z,z,None,524,325.0,199.0,1,1,1863.4000000953674,429507.6999999285,7237,banana,NF,C,426531,426531,425002,425816,425002,426865,426332,426332,426865,86
81,test,1,con,0,m,Fri Nov 14 2025 16:03:21 GMT-0600 (Central Standard Time),433336.60000002384,iron,900,I,z,z,None,518,317.0,201.0,106,1,1959.1000000238419,431377.5,7237,iron,NF,C,428498,428498,426872,427782,426872,428831,428297,428297,428831,87
82,test,1,inc,1,m,Fri Nov 14 2025 16:03:21 GMT-0600 (Central Standard Time),435519.60000002384,raisin,1100,I,m,m,None,535,335.0,200.0,72,1,2180.4000000953674,433339.1999999285,7237,bronze,NF,C,430664,430664,428833,429948,428833,431014,430464,430464,431014,88
83,test,1,con,1,z,Fri Nov 14 2025 16:03:21 GMT-0600 (Central Standard Time),437552.6999999285,lime,1100,I,z,z,None,383,184.0,199.0,36,1,2030.5999999046326,435522.10000002384,7237,lime,NF,C,432847,432847,431016,432130,431016,433047,432647,432647,433047,89
84,test,1,con,1,m,Fri Nov 14 2025 16:03:21 GMT-0600 (Central Standard Time),439601.5,gold,1100,I,m,m,None,416,216.0,200.0,100,1,2045.8000000715256,437555.6999999285,7237,gold,NF,C,434879,434879,433050,434163,433050,435096,434679,434679,435096,90
85,test,1,con,1,m,Fri Nov 14 2025 16:03:21 GMT-0600 (Central Standard Time),441501.39999997616,copper,900,I,m,m,None,462,262.0,200.0,74,1,1897.5,439603.89999997616,7237,copper,NF,C,436729,436729,435098,436012,435098,436995,436529,436529,436995,91
86,test,1,con,1,m,Fri Nov 14 2025 16:03:21 GMT-0600 (Central Standard Time),443733.60000002384,lead,1100,I,m,m,None,587,388.0,199.0,124,1,2229.5,441504.10000002384,7237,lead,NF,C,438828,438828,436998,438113,436998,439228,438628,438628,439228,92
87,test,1,con,1,m,Fri Nov 14 2025 16:03:21 GMT-0600 (Central Standard Time),445749.7999999523,lead,1000,I,m,m,None,471,271.0,200.0,123,1,2010.2999999523163,443739.5,7237,lead,NF,C,440960,440960,439234,440245,439234,441244,440760,440760,441244,93
88,test,1,inc,1,z,Fri Nov 14 2025 16:03:21 GMT-0600 (Central Standard Time),447882.60000002384,lead,1100,I,z,z,None,490,290.0,200.0,40,1,2130.0,445752.60000002384,7237,lime,NF,C,443077,443077,441247,442361,441247,443377,442876,442876,443377,94
89,test,1,con,1,m,Fri Nov 14 2025 16:03:21 GMT-0600 (Central Standard Time),449914.6999999285,silver,1000,I,m,m,None,489,289.0,200.0,83,1,2028.1999999284744,447886.5,7237,silver,NF,C,445110,445110,443381,444393,443381,445409,444909,444909,445409,95
90,test,1,inc,1,m,Fri Nov 14 2025 16:03:21 GMT-0600 (Central Standard Time),451819.10000002384,pear,900,I,m,m,None,460,261.0,199.0,126,1,1901.2000000476837,449917.89999997616,7237,lead,NF,C,447043,447043,445412,446326,445412,447313,446843,446843,447313,96
91,test,1,inc,1,m,Fri Nov 14 2025 16:03:21 GMT-0600 (Central Standard Time),453596.89999997616,lime,800,I,m,m,None,438,238.0,200.0,125,1,1774.6000000238419,451822.2999999523,7237,lead,NF,C,448841,448841,447316,448125,447317,449091,448641,448641,449091,97
92,test,1,inc,1,m,Fri Nov 14 2025 16:03:21 GMT-0600 (Central Standard Time),455663.89999997616,orange,1000,I,m,m,None,518,302.0,216.0,79,1,2064.2999999523163,453599.60000002384,7237,copper,NF,C,450841,450841,449094,450108,449094,451158,450625,450625,451158,98
93,test,1,inc,1,z,Fri Nov 14 2025 16:03:21 GMT-0600 (Central Standard Time),457678.89999997616,zinc,1000,I,z,z,None,476,260.0,216.0,55,1,2011.7000000476837,455667.1999999285,7237,kiwi,NF,C,452907,452907,451161,452173,451162,453173,452691,452691,453173,99
94,test,1,inc,1,m,Fri Nov 14 2025 16:03:21 GMT-0600 (Central Standard Time),459863.10000002384,plum,1100,I,m,m,None,536,337.0,199.0,128,1,2181.5,457681.60000002384,7237,lead,NF,C,455006,455006,453176,454290,453176,455357,454807,454807,455357,100
95,test,1,inc,1,z,Fri Nov 14 2025 16:03:21 GMT-0600 (Central Standard Time),462128.10000002384,zinc,1000,I,z,z,None,718,518.0,200.0,63,1,2261.5,459866.60000002384,7237,plum,NF,C,457089,457089,455361,456372,455361,457622,456889,456889,457622,101
96,test,1,inc,1,m,Fri Nov 14 2025 16:03:21 GMT-0600 (Central Standard Time),464227.60000002384,orange,1000,I,m,m,None,549,335.0,214.0,71,1,2096.7000000476837,462130.89999997616,7237,bronze,NF,C,459370,459370,457625,458638,457625,459722,459156,459156,459722,102
97,test,1,con,1,z,Fri Nov 14 2025 16:03:21 GMT-0600 (Central Standard Time),466509.60000002384,banana,1100,I,z,z,None,637,436.0,201.0,4,1,2278.7000000476837,464230.89999997616,7237,banana,NF,C,461555,461555,459725,460838,459725,462004,461354,461354,462004,103
98,test,1,inc,1,m,Fri Nov 14 2025 16:03:21 GMT-0600 (Central Standard Time),468659.10000002384,orange,1000,I,m,m,None,623,424.0,199.0,95,1,2146.3000000715256,466512.7999999523,7237,cobalt,NF,C,463720,463720,462007,463020,462007,464153,463521,463521,464153,104
99,test,1,con,1,m,Fri Nov 14 2025 16:03:21 GMT-0600 (Central Standard Time),470492.0,iron,800,I,m,m,None,498,298.0,200.0,105,1,1829.8000000715256,468662.1999999285,7237,iron,NF,C,465686,465686,464156,464970,464156,465986,465486,465486,465986,105
100,test,1,inc,1,z,Fri Nov 14 2025 16:03:21 GMT-0600 (Central Standard Time),472307.89999997616,bronze,800,I,z,z,None,473,273.0,200.0,13,1,1812.8999999761581,470495.0,7237,cherry,NF,C,467519,467519,465989,466803,465989,467802,467319,467319,467802,106
101,test,1,con,1,m,Fri Nov 14 2025 16:03:21 GMT-0600 (Central Standard Time),474474.5,copper,1100,I,m,m,None,523,324.0,199.0,76,1,2161.2000000476837,472313.2999999523,7237,copper,NF,C,469635,469635,467807,468919,467808,469969,469435,469435,469969,107
102,test,1,inc,1,m,Fri Nov 14 2025 16:03:21 GMT-0600 (Central Standard Time),476689.7999999523,plum,1100,I,m,m,None,574,375.0,199.0,104,1,2212.399999976158,474477.39999997616,7237,gold,NF,C,471801,471801,469971,471090,469972,472184,471601,471601,472184,108
103,test,1,con,1,z,Fri Nov 14 2025 16:03:21 GMT-0600 (Central Standard Time),478605.2999999523,pear,900,I,z,z,None,469,270.0,199.0,42,1,1911.6999999284744,476693.60000002384,7237,pear,NF,C,473817,473817,472188,473101,472188,474099,473617,473617,474099,109
104,test,1,inc,1,m,Fri Nov 14 2025 16:03:21 GMT-0600 (Central Standard Time),480455.89999997616,pear,900,I,m,m,None,410,211.0,199.0,118,1,1847.2000000476837,478608.6999999285,7237,zinc,NF,C,475733,475733,474103,475017,474103,475950,475533,475533,475950,110
105,test,1,con,1,m,Fri Nov 14 2025 16:03:21 GMT-0600 (Central Standard Time),482638.5,bronze,900,I,m,m,None,737,537.0,200.0,66,1,2179.600000023842,480458.89999997616,7237,bronze,NF,C,477582,477582,475953,476866,475953,478133,477382,477382,478133,111
105,test,1,con,0,z,Fri Nov 14 2025 16:03:21 GMT-0600 (Central Standard Time),484586.7999999523,kiwi,1000,I,m,m,None,405,206.0,199.0,51,1,1945.6999999284744,482641.10000002384,7237,kiwi,NF,C,479865,479865,478135,479149,478135,480081,479665,479665,480081,112
106,test,1,con,1,m,Fri Nov 14 2025 16:03:21 GMT-0600 (Central Standard Time),486569.39999997616,gold,1000,I,m,m,None,442,243.0,199.0,99,1,1979.7999999523163,484589.60000002384,7237,gold,NF,C,481814,481814,480084,481098,480084,482064,481615,481615,482063,113
106,test,1,con,0,m,Fri Nov 14 2025 16:03:21 GMT-0600 (Central Standard Time),488519.1999999285,zinc,1000,I,z,z,None,401,202.0,199.0,115,1,1946.7999999523163,486572.39999997616,7237,zinc,NF,C,483797,483797,482066,483081,482067,484013,483597,483597,484013,114
107,test,1,con,1,m,Fri Nov 14 2025 16:03:21 GMT-0600 (Central Standard Time),490484.89999997616,bronze,800,I,m,m,None,621,421.0,200.0,65,1,1962.7999999523163,488522.10000002384,7237,bronze,NF,C,485546,485546,484016,484830,484016,485979,485346,485346,485979,115
108,test,1,inc,1,z,Fri Nov 14 2025 16:03:21 GMT-0600 (Central Standard Time),492700.89999997616,cobalt,1100,I,z,z,None,571,371.0,200.0,24,1,2212.899999976158,490488.0,7237,orange,NF,C,487812,487812,485982,487096,485982,488195,487612,487612,488195,116
109,test,1,con,1,m,Fri Nov 14 2025 16:03:21 GMT-0600 (Central Standard Time),494651.2999999523,zinc,900,I,m,m,None,506,307.0,199.0,114,1,1947.6999999284744,492703.60000002384,7237,zinc,NF,C,489828,489828,488198,489112,488198,490145,489629,489629,490145,117
110,test,1,con,1,z,Fri Nov 14 2025 16:03:21 GMT-0600 (Central Standard Time),496516.60000002384,raisin,800,I,z,z,None,530,329.0,201.0,25,1,1862.7000000476837,494653.89999997616,7237,raisin,NF,C,491678,491678,490148,490961,490148,492011,491477,491477,492011,118
111,test,1,con,1,z,Fri Nov 14 2025 16:03:21 GMT-0600 (Central Standard Time),498416.6999999285,plum,900,I,z,z,None,451,251.0,200.0,58,1,1897.0999999046326,496519.60000002384,7237,plum,NF,C,493644,493644,492014,492927,492014,493911,493444,493444,493911,119
112,test,1,con,1,m,Fri Nov 14 2025 16:03:21 GMT-0600 (Central Standard Time),500581.89999997616,bronze,1100,I,m,m,None,520,320.0,200.0,68,1,2162.600000023842,498419.2999999523,7237,bronze,NF,C,495743,495743,493913,495028,493913,496076,495543,495543,496076,120
113,test,1,con,1,z,Fri Nov 14 2025 16:03:21 GMT-0600 (Central Standard Time),502565.6999999285,banana,1000,I,z,z,None,438,237.0,201.0,3,1,1980.0,500585.6999999285,7237,banana,NF,C,497810,497810,496080,497093,496080,498060,497609,497609,498060,121
114,test,1,inc,1,z,Fri Nov 14 2025 16:03:21 GMT-0600 (Central Standard Time),504630.60000002384,bronze,800,I,z,z,None,718,519.0,199.0,21,1,2062.3000000715256,502568.2999999523,7237,orange,NF,C,499592,499592,498062,498876,498063,500125,499392,499392,500125,122
115,test,1,con,1,m,Fri Nov 14 2025 16:03:21 GMT-0600 (Central Standard Time),506513.60000002384,lead,800,I,m,m,None,565,366.0,199.0,121,1,1880.1000000238419,504633.5,7237,lead,NF,C,501641,501641,500128,500941,500128,502008,501442,501442,502008,123
116,test,1,inc,1,z,Fri Nov 14 2025 16:03:21 GMT-0600 (Central Standard Time),508647.10000002384,silver,1000,I,z,z,None,585,386.0,199.0,15,1,2130.600000023842,506516.5,7237,cherry,NF,C,503741,503741,502011,503024,502011,504141,503541,503541,504141,124
117,test,1,inc,1,z,Fri Nov 14 2025 16:03:21 GMT-0600 (Central Standard Time),510479.5,gold,800,I,z,z,None,486,286.0,200.0,45,1,1829.6000000238419,508649.89999997616,7237,pear,NF,C,505673,505673,504144,504957,504144,505974,505473,505473,505974,125
118,test,1,inc,1,z,Fri Nov 14 2025 16:03:21 GMT-0600 (Central Standard Time),512577.89999997616,iron,900,I,z,z,None,657,456.0,201.0,62,1,2095.7999999523163,510482.10000002384,7237,plum,NF,C,507607,507607,505976,506890,505976,508072,507406,507406,508072,126
119,test,1,inc,1,m,Fri Nov 14 2025 16:03:21 GMT-0600 (Central Standard Time),514444.39999997616,lime,800,I,m,m,None,521,322.0,199.0,109,1,1863.7999999523163,512580.60000002384,7237,iron,NF,C,509605,509605,508075,508889,508075,509939,509406,509406,509938,127
120,test,1,inc,1,z,Fri Nov 14 2025 16:03:21 GMT-0600 (Central Standard Time),516544.10000002384,cobalt,1100,I,z,z,None,451,251.0,200.0,8,1,2096.9000000953674,514447.1999999285,7237,banana,NF,C,511772,511772,509941,511055,509941,512038,511571,511571,512038,128
