acc_sum,block,block_c,condition,correct,correct_response,datetime,endtime,flanker,jitter,project,response,response_test_buffer_response,response_test_target_response,response_time,response_time_test_buffer_response,response_time_test_target_response,row_sel,session_number,start_end,starttime,subject_id,target,task,task_vers,time_test_buffer,time_test_buffer_response,time_test_constants,time_test_flanker,time_test_jitter,time_test_logger,time_test_target,time_test_target_response,time_test_variables,trial
1,prac,1,con,1,m,Mon Dec 15 2025 14:52:21 GMT-0600 (Central Standard Time),130828.0,zinc,1000,I,m,,,1018,,,15,1,3326.4000000953674,127501.59999990463,7722,zinc,NF,C,,,,,,,,,,1
2,prac,1,con,1,z,Mon Dec 15 2025 14:52:21 GMT-0600 (Central Standard Time),133777.69999992847,lime,800,I,z,,,832,,,5,1,2941.5,130836.19999992847,7722,lime,NF,C,,,,,,,,,,2
3,prac,1,con,1,m,Mon Dec 15 2025 14:52:21 GMT-0600 (Central Standard Time),136427.09999990463,silver,1000,I,m,,,333,,,11,1,2641.7999999523163,133785.29999995232,7722,silver,NF,C,,,,,,,,,,3
4,prac,1,inc,1,z,Mon Dec 15 2025 14:52:21 GMT-0600 (Central Standard Time),139625.39999997616,lead,1100,I,z,,,788,,,8,1,3194.2000000476837,136431.19999992847,7722,plum,NF,C,,,,,,,,,,4
5,prac,1,con,1,m,Mon Dec 15 2025 14:52:21 GMT-0600 (Central Standard Time),142374.39999997616,bronze,800,I,m,,,656,,,9,1,2743.399999976158,139631.0,7722,bronze,NF,C,,,,,,,,,,5
6,prac,1,con,1,m,Mon Dec 15 2025 14:52:21 GMT-0600 (Central Standard Time),145173.09999990463,gold,800,I,m,,,691,,,13,1,2791.0999999046326,142382.0,7722,gold,NF,C,,,,,,,,,,6
7,prac,1,inc,1,z,Mon Dec 15 2025 14:52:21 GMT-0600 (Central Standard Time),147975.0,copper,900,I,z,,,594,,,2,1,2795.9000000953674,145179.09999990463,7722,cherry,NF,C,,,,,,,,,,7
8,prac,1,inc,1,m,Mon Dec 15 2025 14:52:21 GMT-0600 (Central Standard Time),150755.29999995232,pear,900,I,m,,,590,,,14,1,2772.2999999523163,147983.0,7722,iron,NF,C,,,,,,,,,,8
9,prac,1,con,1,z,Mon Dec 15 2025 14:52:21 GMT-0600 (Central Standard Time),153522.19999992847,kiwi,1000,I,z,,,465,,,7,1,2759.100000023842,150763.09999990463,7722,kiwi,NF,C,,,,,,,,,,9
10,prac,1,inc,1,m,Mon Dec 15 2025 14:52:21 GMT-0600 (Central Standard Time),156302.89999997616,cherry,900,I,m,,,575,,,10,1,2774.399999976158,153528.5,7722,copper,NF,C,,,,,,,,,,10
11,prac,1,inc,1,z,Mon Dec 15 2025 14:52:21 GMT-0600 (Central Standard Time),159141.5,iron,900,I,z,,,624,,,6,1,2831.9000000953674,156309.59999990463,7722,pear,NF,C,,,,,,,,,,11
12,prac,1,inc,1,m,Mon Dec 15 2025 14:52:21 GMT-0600 (Central Standard Time),162151.29999995232,raisin,1100,I,m,,,602,,,12,1,3004.399999976158,159146.89999997616,7722,cobalt,NF,C,,,,,,,,,,12
13,prac,1,inc,1,z,Mon Dec 15 2025 14:52:21 GMT-0600 (Central Standard Time),165184.59999990463,cobalt,1100,I,z,,,634,,,4,1,3025.6999999284744,162158.89999997616,7722,raisin,NF,C,,,,,,,,,,13
14,prac,1,con,1,z,Mon Dec 15 2025 14:52:21 GMT-0600 (Central Standard Time),167800.5,banana,800,I,z,,,507,,,1,1,2609.5,165191.0,7722,banana,NF,C,,,,,,,,,,14
15,prac,1,con,1,z,Mon Dec 15 2025 14:52:21 GMT-0600 (Central Standard Time),170699.59999990463,orange,1000,I,z,,,596,,,3,1,2894.6999999284744,167804.89999997616,7722,orange,NF,C,,,,,,,,,,15
16,prac,1,inc,1,m,Mon Dec 15 2025 14:52:21 GMT-0600 (Central Standard Time),173646.19999992847,plum,1100,I,m,,,540,,,16,1,2939.5,170706.69999992847,7722,lead,NF,C,,,,,,,,,,16
1,test,1,inc,1,m,Mon Dec 15 2025 14:52:21 GMT-0600 (Central Standard Time),185493.89999997616,pear,900,I,m,m,None,669,469.0,200.0,126,1,2108.5,183385.39999997616,7722,lead,NF,C,180554,180554,178927,179837,178928,181036,180353,180353,181036,1
2,test,1,inc,1,m,Mon Dec 15 2025 14:52:21 GMT-0600 (Central Standard Time),187412.0,cherry,900,I,m,m,None,483,283.0,200.0,78,1,1914.9000000953674,185497.09999990463,7722,copper,NF,C,182669,182669,181039,181953,181039,182954,182469,182469,182954,2
2,test,1,con,0,z,Mon Dec 15 2025 14:52:21 GMT-0600 (Central Standard Time),189443.0,orange,1000,I,m,m,None,489,288.0,201.0,19,1,2025.9000000953674,187417.09999990463,7722,orange,NF,C,184687,184687,182959,183970,182960,184985,184485,184485,184985,3
3,test,1,con,1,z,Mon Dec 15 2025 14:52:21 GMT-0600 (Central Standard Time),191575.89999997616,banana,1100,I,z,z,None,493,293.0,200.0,4,1,2128.0,189447.89999997616,7722,banana,NF,C,186818,186818,184990,186101,184990,187118,186617,186617,187118,4
4,test,1,con,1,m,Mon Dec 15 2025 14:52:21 GMT-0600 (Central Standard Time),193425.29999995232,lead,800,I,m,m,None,516,317.0,199.0,121,1,1845.2000000476837,191580.09999990463,7722,lead,NF,C,188634,188634,187122,187934,187122,188967,188435,188435,188967,5
5,test,1,con,1,z,Mon Dec 15 2025 14:52:21 GMT-0600 (Central Standard Time),195275.59999990463,lime,800,I,z,z,None,517,316.0,201.0,33,1,1847.2999999523163,193428.29999995232,7722,lime,NF,C,190501,190501,188970,189785,188971,190818,190299,190299,190818,6
6,test,1,con,1,m,Mon Dec 15 2025 14:52:21 GMT-0600 (Central Standard Time),197251.09999990463,cobalt,800,I,m,m,None,641,425.0,216.0,89,1,1970.7999999523163,195280.29999995232,7722,cobalt,NF,C,192350,192350,190822,191633,190823,192793,192134,192134,192793,7
7,test,1,inc,1,m,Mon Dec 15 2025 14:52:21 GMT-0600 (Central Standard Time),199508.09999990463,plum,1100,I,m,m,None,633,434.0,199.0,112,1,2253.0,197255.09999990463,7722,iron,NF,C,194600,194600,192797,193899,192797,195050,194401,194401,195050,8
8,test,1,con,1,z,Mon Dec 15 2025 14:52:21 GMT-0600 (Central Standard Time),201473.79999995232,lime,900,I,z,z,None,534,333.0,201.0,34,1,1960.7999999523163,199513.0,7722,lime,NF,C,196683,196683,195055,195968,195055,197016,196481,196481,197016,9
9,test,1,inc,1,z,Mon Dec 15 2025 14:52:21 GMT-0600 (Central Standard Time),203538.19999992847,gold,800,I,z,z,None,724,524.0,200.0,53,1,2058.600000023842,201479.59999990463,7722,kiwi,NF,C,198547,198547,197022,197831,197022,199080,198347,198347,199080,10
10,test,1,inc,1,z,Mon Dec 15 2025 14:52:21 GMT-0600 (Central Standard Time),205370.09999990463,gold,800,I,z,z,None,506,307.0,199.0,45,1,1828.8999999761581,203541.19999992847,7722,pear,NF,C,200596,200596,199083,199896,199083,200912,200397,200397,200912,11
11,test,1,inc,1,z,Mon Dec 15 2025 14:52:21 GMT-0600 (Central Standard Time),207287.0,copper,900,I,z,z,None,484,284.0,200.0,14,1,1913.1000000238419,205373.89999997616,7722,cherry,NF,C,202531,202531,200916,201829,200916,202829,202330,202330,202829,12
12,test,1,inc,1,m,Mon Dec 15 2025 14:52:21 GMT-0600 (Central Standard Time),209537.09999990463,raisin,1100,I,m,m,None,618,419.0,199.0,96,1,2246.0,207291.09999990463,7722,cobalt,NF,C,204646,204646,202833,203945,202833,205079,204447,204447,205079,13
13,test,1,inc,1,m,Mon Dec 15 2025 14:52:21 GMT-0600 (Central Standard Time),211620.0,cherry,900,I,m,m,None,654,437.0,217.0,70,1,2077.4000000953674,209542.59999990463,7722,bronze,NF,C,206715,206715,205085,205996,205085,207162,206498,206498,207162,14
14,test,1,inc,1,m,Mon Dec 15 2025 14:52:21 GMT-0600 (Central Standard Time),213820.0,orange,1000,I,m,m,None,649,450.0,199.0,79,1,2195.9000000953674,211624.09999990463,7722,copper,NF,C,208895,208895,207166,208178,207166,209362,208695,208695,209362,15
15,test,1,inc,1,z,Mon Dec 15 2025 14:52:21 GMT-0600 (Central Standard Time),215900.79999995232,iron,900,I,z,z,None,636,437.0,199.0,38,1,2075.399999976158,213825.39999997616,7722,lime,NF,C,210994,210994,209367,210277,209368,211443,210795,210795,211443,16
16,test,1,con,1,m,Mon Dec 15 2025 14:52:21 GMT-0600 (Central Standard Time),218184.39999997616,cobalt,1100,I,m,m,None,634,435.0,199.0,92,1,2278.600000023842,215905.79999995232,7722,cobalt,NF,C,213276,213276,211448,212560,211448,213726,213077,213077,213726,17
17,test,1,inc,1,z,Mon Dec 15 2025 14:52:21 GMT-0600 (Central Standard Time),220217.19999992847,gold,800,I,z,z,None,696,494.0,202.0,37,1,2028.6000000238419,218188.59999990463,7722,lime,NF,C,215260,215260,213731,214543,213731,215759,215058,215058,215759,18
18,test,1,con,1,m,Mon Dec 15 2025 14:52:21 GMT-0600 (Central Standard Time),222365.69999992847,bronze,1000,I,m,m,None,619,420.0,199.0,67,1,2144.5,220221.19999992847,7722,bronze,NF,C,217475,217475,215763,216774,215763,217908,217275,217275,217908,19
19,test,1,con,1,z,Mon Dec 15 2025 14:52:21 GMT-0600 (Central Standard Time),224331.19999992847,orange,800,I,z,z,None,623,408.0,215.0,17,1,1961.2999999523163,222369.89999997616,7722,orange,NF,C,219457,219457,217912,218724,217912,219873,219242,219242,219873,20
20,test,1,con,1,m,Mon Dec 15 2025 14:52:21 GMT-0600 (Central Standard Time),226315.5,gold,800,I,m,m,None,646,446.0,200.0,97,1,1979.7000000476837,224335.79999995232,7722,gold,NF,C,221408,221409,219878,220691,219878,221858,221208,221208,221858,21
21,test,1,inc,1,m,Mon Dec 15 2025 14:52:21 GMT-0600 (Central Standard Time),228314.29999995232,cherry,900,I,m,m,None,556,357.0,199.0,86,1,1994.6000000238419,226319.69999992847,7722,silver,NF,C,223490,223490,221862,222773,221862,223856,223290,223290,223856,22
22,test,1,con,1,z,Mon Dec 15 2025 14:52:21 GMT-0600 (Central Standard Time),230511.39999997616,cherry,1100,I,z,z,None,550,350.0,200.0,12,1,2192.899999976158,228318.5,7722,cherry,NF,C,225691,225691,223861,224973,223861,226053,225490,225490,226053,23
22,test,1,con,0,z,Mon Dec 15 2025 14:52:21 GMT-0600 (Central Standard Time),232513.59999990463,kiwi,800,I,m,m,None,664,465.0,199.0,49,1,1999.2999999523163,230514.29999995232,7722,kiwi,NF,C,227590,227590,226056,226873,226057,228056,227390,227390,228056,24
23,test,1,inc,1,z,Mon Dec 15 2025 14:52:21 GMT-0600 (Central Standard Time),234979.39999997616,bronze,800,I,z,z,None,1133,932.0,201.0,5,1,2462.3000000715256,232517.09999990463,7722,banana,NF,C,229589,229589,228059,228872,228059,230521,229388,229388,230521,25
24,test,1,inc,1,m,Mon Dec 15 2025 14:52:21 GMT-0600 (Central Standard Time),237277.79999995232,raisin,1100,I,m,m,None,668,454.0,214.0,80,1,2294.100000023842,234983.69999992847,7722,copper,NF,C,232354,232354,230526,231636,230526,232820,232139,232139,232820,26
25,test,1,con,1,m,Mon Dec 15 2025 14:52:21 GMT-0600 (Central Standard Time),239493.59999990463,cobalt,900,I,m,m,None,769,570.0,199.0,90,1,2212.5999999046326,237281.0,7722,cobalt,NF,C,234453,234453,232823,233737,232823,235036,234254,234254,235036,27
26,test,1,con,1,z,Mon Dec 15 2025 14:52:21 GMT-0600 (Central Standard Time),241577.5,plum,1100,I,z,z,None,442,242.0,200.0,60,1,2080.3000000715256,239497.19999992847,7722,plum,NF,C,236869,236869,235039,236152,235039,237120,236669,236669,237120,28
27,test,1,inc,1,m,Mon Dec 15 2025 14:52:21 GMT-0600 (Central Standard Time),243610.39999997616,cherry,900,I,m,m,None,607,408.0,199.0,94,1,2027.3000000715256,241583.09999990463,7722,cobalt,NF,C,238735,238735,237125,238034,237125,239152,238536,238536,239152,29
28,test,1,inc,1,z,Mon Dec 15 2025 14:52:21 GMT-0600 (Central Standard Time),245575.59999990463,iron,900,I,z,z,None,535,336.0,199.0,54,1,1960.5999999046326,243615.0,7722,kiwi,NF,C,240767,240767,239157,240067,239157,241118,240568,240568,241118,30
29,test,1,inc,1,m,Mon Dec 15 2025 14:52:21 GMT-0600 (Central Standard Time),247675.19999992847,kiwi,1000,I,m,m,None,567,367.0,200.0,127,1,2093.6999999284744,245581.5,7722,lead,NF,C,242850,242850,241124,242135,241124,243217,242650,242650,243217,31
30,test,1,con,1,z,Mon Dec 15 2025 14:52:21 GMT-0600 (Central Standard Time),249623.39999997616,kiwi,900,I,z,z,None,509,310.0,199.0,50,1,1943.1000000238419,247680.29999995232,7722,kiwi,NF,C,244849,244849,243222,244133,243223,245165,244650,244650,245165,32
31,test,1,con,1,z,Mon Dec 15 2025 14:52:21 GMT-0600 (Central Standard Time),251724.29999995232,kiwi,1100,I,z,z,None,463,247.0,216.0,52,1,2095.7000000476837,249628.59999990463,7722,kiwi,NF,C,247016,247016,245171,246283,245171,247266,246800,246800,247266,33
32,test,1,con,1,m,Mon Dec 15 2025 14:52:21 GMT-0600 (Central Standard Time),253722.79999995232,silver,800,I,m,m,None,665,450.0,215.0,81,1,1993.0,251729.79999995232,7722,silver,NF,C,248815,248815,247272,248081,247272,249265,248599,248599,249265,34
33,test,1,con,1,m,Mon Dec 15 2025 14:52:21 GMT-0600 (Central Standard Time),256055.29999995232,gold,1000,I,m,m,None,793,593.0,200.0,99,1,2327.399999976158,253727.89999997616,7722,gold,NF,C,250998,250998,249270,250281,249270,251597,250797,250797,251597,35
34,test,1,con,1,m,Mon Dec 15 2025 14:52:21 GMT-0600 (Central Standard Time),258137.69999992847,bronze,900,I,m,m,None,633,433.0,200.0,66,1,2076.600000023842,256061.09999990463,7722,bronze,NF,C,253231,253231,251603,252513,251603,253680,253030,253030,253680,36
35,test,1,inc,1,m,Mon Dec 15 2025 14:52:21 GMT-0600 (Central Standard Time),260170.09999990463,lime,800,I,m,m,None,697,496.0,201.0,117,1,2027.8999999761581,258142.19999992847,7722,zinc,NF,C,255215,255215,253684,254497,253685,255712,255013,255013,255712,37
36,test,1,inc,1,z,Mon Dec 15 2025 14:52:21 GMT-0600 (Central Standard Time),262219.59999990463,cobalt,1100,I,z,z,None,413,214.0,199.0,8,1,2042.0999999046326,260177.5,7722,banana,NF,C,257545,257546,255720,256829,255720,257762,257346,257346,257762,38
37,test,1,inc,1,m,Mon Dec 15 2025 14:52:21 GMT-0600 (Central Standard Time),264368.89999997616,kiwi,1000,I,m,m,None,606,407.0,199.0,119,1,2143.2000000476837,262225.6999999285,7722,zinc,NF,C,259495,259496,257768,258778,257768,259911,259296,259296,259911,39
38,test,1,con,1,m,Mon Dec 15 2025 14:52:21 GMT-0600 (Central Standard Time),266635.89999997616,iron,1100,I,m,m,None,623,424.0,199.0,108,1,2260.5,264375.39999997616,7722,iron,NF,C,261744,261744,259917,261028,259918,262178,261545,261545,262178,40
39,test,1,inc,1,z,Mon Dec 15 2025 14:52:21 GMT-0600 (Central Standard Time),268534.1999999285,bronze,800,I,z,z,None,548,336.0,212.0,21,1,1892.6000000238419,266641.59999990463,7722,orange,NF,C,263727,263727,262184,262994,262184,264076,263514,263514,264076,41
40,test,1,inc,1,m,Mon Dec 15 2025 14:52:21 GMT-0600 (Central Standard Time),270516.6999999285,lime,800,I,m,m,None,639,439.0,200.0,109,1,1976.6000000238419,268540.09999990463,7722,iron,NF,C,265609,265609,264082,264893,264082,266059,265409,265409,266059,42
41,test,1,con,1,m,Mon Dec 15 2025 14:52:21 GMT-0600 (Central Standard Time),272633.59999990463,iron,900,I,m,m,None,682,483.0,199.0,106,1,2111.1999999284744,270522.39999997616,7722,iron,NF,C,267692,267692,266064,266976,266065,268176,267492,267492,268176,43
42,test,1,con,1,z,Mon Dec 15 2025 14:52:21 GMT-0600 (Central Standard Time),274599.0,plum,800,I,z,z,None,618,418.0,200.0,57,1,1960.6000000238419,272638.39999997616,7722,plum,NF,C,269709,269709,268180,268992,268181,270141,269508,269508,270141,44
43,test,1,con,1,m,Mon Dec 15 2025 14:52:21 GMT-0600 (Central Standard Time),276698.6999999285,iron,800,I,m,m,None,764,549.0,215.0,105,1,2092.1999999284744,274606.5,7722,iron,NF,C,271691,271691,270149,270959,270149,272241,271476,271476,272241,45
44,test,1,inc,1,z,Mon Dec 15 2025 14:52:21 GMT-0600 (Central Standard Time),278781.2999999523,iron,900,I,z,z,None,653,437.0,216.0,46,1,2077.7000000476837,276703.59999990463,7722,pear,NF,C,273874,273874,272246,273156,272246,274323,273658,273658,274323,46
45,test,1,inc,1,m,Mon Dec 15 2025 14:52:21 GMT-0600 (Central Standard Time),280713.1999999285,lime,800,I,m,m,None,596,381.0,215.0,101,1,1927.1000000238419,278786.09999990463,7722,gold,NF,C,275874,275874,274328,275140,274328,276255,275658,275658,276255,47
46,test,1,inc,1,z,Mon Dec 15 2025 14:52:21 GMT-0600 (Central Standard Time),282697.2999999523,bronze,800,I,z,z,None,634,434.0,200.0,29,1,1981.5,280715.7999999523,7722,raisin,NF,C,277789,277789,276258,277074,276258,278239,277589,277589,278239,48
47,test,1,con,1,m,Mon Dec 15 2025 14:52:21 GMT-0600 (Central Standard Time),284945.59999990463,silver,1100,I,m,m,None,614,414.0,200.0,84,1,2242.0999999046326,282703.5,7722,silver,NF,C,280073,280073,278246,279357,278246,280488,279873,279873,280487,49
48,test,1,con,1,z,Mon Dec 15 2025 14:52:21 GMT-0600 (Central Standard Time),287161.5,cherry,1000,I,z,z,None,674,474.0,200.0,11,1,2210.8000000715256,284950.6999999285,7722,cherry,NF,C,282221,282221,280493,281505,280493,282704,282021,282021,282704,50
49,test,1,inc,1,m,Mon Dec 15 2025 14:52:21 GMT-0600 (Central Standard Time),289011.39999997616,banana,800,I,m,m,None,506,306.0,200.0,69,1,1845.5,287165.89999997616,7722,bronze,NF,C,284237,284237,282708,283521,282708,284553,284037,284037,284553,51
50,test,1,con,1,z,Mon Dec 15 2025 14:52:21 GMT-0600 (Central Standard Time),290960.89999997616,raisin,900,I,z,z,None,500,300.0,200.0,26,1,1943.7000000476837,289017.1999999285,7722,raisin,NF,C,286187,286187,284559,285470,284559,286503,285986,285986,286503,52
51,test,1,con,1,m,Mon Dec 15 2025 14:52:21 GMT-0600 (Central Standard Time),293076.59999990463,lead,1000,I,m,m,None,571,372.0,199.0,123,1,2110.5,290966.09999990463,7722,lead,NF,C,288235,288235,286508,287520,286508,288619,288036,288036,288619,53
52,test,1,inc,1,m,Mon Dec 15 2025 14:52:21 GMT-0600 (Central Standard Time),295209.5,kiwi,1000,I,m,m,None,583,384.0,199.0,103,1,2127.2000000476837,293082.2999999523,7722,gold,NF,C,290352,290352,288624,289635,288625,290752,290152,290152,290751,54
53,test,1,con,1,z,Mon Dec 15 2025 14:52:21 GMT-0600 (Central Standard Time),297175.39999997616,banana,1000,I,z,z,None,428,224.0,204.0,3,1,1960.8999999761581,295214.5,7722,banana,NF,C,292488,292488,290757,291769,290757,292717,292283,292283,292717,55
54,test,1,con,1,m,Mon Dec 15 2025 14:52:21 GMT-0600 (Central Standard Time),299225.1999999285,zinc,900,I,m,m,None,616,416.0,200.0,114,1,2045.5,297179.6999999285,7722,zinc,NF,C,294351,294351,292722,293634,292722,294767,294150,294150,294767,56
55,test,1,inc,1,m,Mon Dec 15 2025 14:52:21 GMT-0600 (Central Standard Time),301457.59999990463,pear,900,I,m,m,None,791,592.0,199.0,102,1,2226.0999999046326,299231.5,7722,gold,NF,C,296400,296400,294774,295684,294774,297000,296201,296201,297000,57
56,test,1,con,1,m,Mon Dec 15 2025 14:52:21 GMT-0600 (Central Standard Time),303423.1999999285,iron,1000,I,m,m,None,420,220.0,200.0,107,1,1961.2999999523163,301461.89999997616,7722,iron,NF,C,298731,298731,297004,298016,297004,298965,298531,298531,298965,58
57,test,1,inc,1,z,Mon Dec 15 2025 14:52:21 GMT-0600 (Central Standard Time),305454.39999997616,silver,1000,I,z,z,None,484,284.0,200.0,7,1,2025.6000000238419,303428.7999999523,7722,banana,NF,C,300698,300698,298971,299982,298971,300996,300497,300497,300996,59
58,test,1,con,1,z,Mon Dec 15 2025 14:52:21 GMT-0600 (Central Standard Time),307471.89999997616,plum,900,I,z,z,None,576,377.0,199.0,58,1,2014.7000000476837,305457.1999999285,7722,plum,NF,C,302631,302631,300999,301916,300999,303014,302432,302432,303014,60
59,test,1,con,1,z,Mon Dec 15 2025 14:52:21 GMT-0600 (Central Standard Time),309471.59999990463,cherry,900,I,z,z,None,552,352.0,200.0,10,1,1994.3999999761581,307477.1999999285,7722,cherry,NF,C,304647,304647,303019,303931,303020,305014,304447,304447,305014,61
60,test,1,con,1,z,Mon Dec 15 2025 14:52:21 GMT-0600 (Central Standard Time),311553.6999999285,plum,1000,I,z,z,None,540,340.0,200.0,59,1,2076.6999999284744,309477.0,7722,plum,NF,C,306747,306747,305019,306030,305019,307096,306546,306546,307096,62
61,test,1,con,1,m,Mon Dec 15 2025 14:52:21 GMT-0600 (Central Standard Time),313736.2999999523,gold,1100,I,m,m,None,534,333.0,201.0,100,1,2177.7000000476837,311558.59999990463,7722,gold,NF,C,308930,308930,307101,308214,307101,309278,308729,308729,309278,63
62,test,1,con,1,m,Mon Dec 15 2025 14:52:21 GMT-0600 (Central Standard Time),315986.39999997616,copper,1100,I,m,m,None,623,424.0,199.0,76,1,2245.3000000715256,313741.09999990463,7722,copper,NF,C,311095,311095,309283,310395,309283,311528,310896,310896,311528,64
63,test,1,inc,1,m,Mon Dec 15 2025 14:52:21 GMT-0600 (Central Standard Time),318335.6999999285,plum,1100,I,m,m,None,712,510.0,202.0,104,1,2345.2999999523163,315990.39999997616,7722,gold,NF,C,313363,313363,311532,312645,311533,313878,313161,313161,313878,65
64,test,1,con,1,z,Mon Dec 15 2025 14:52:21 GMT-0600 (Central Standard Time),320268.09999990463,raisin,800,I,z,z,None,589,389.0,200.0,25,1,1929.5,318338.59999990463,7722,raisin,NF,C,315410,315410,313881,314696,313881,315810,315210,315210,315810,66
65,test,1,inc,1,z,Mon Dec 15 2025 14:52:21 GMT-0600 (Central Standard Time),322368.6999999285,copper,900,I,z,z,None,653,452.0,201.0,22,1,2097.7999999523163,320270.89999997616,7722,orange,NF,C,317443,317443,315813,316727,315813,317911,317242,317242,317911,67
66,test,1,con,1,m,Mon Dec 15 2025 14:52:21 GMT-0600 (Central Standard Time),324419.09999990463,silver,1000,I,m,m,None,510,310.0,200.0,83,1,2046.1999999284744,322372.89999997616,7722,silver,NF,C,319642,319642,317915,318929,317915,319961,319442,319442,319961,68
67,test,1,con,1,m,Mon Dec 15 2025 14:52:21 GMT-0600 (Central Standard Time),326566.5,zinc,1000,I,m,m,None,611,395.0,216.0,115,1,2144.5,324422.0,7722,zinc,NF,C,321708,321708,319964,320976,319964,322109,321492,321492,322108,69
68,test,1,inc,1,m,Mon Dec 15 2025 14:52:21 GMT-0600 (Central Standard Time),328482.6999999285,pear,900,I,m,m,None,482,283.0,199.0,110,1,1912.7999999523163,326569.89999997616,7722,iron,NF,C,323741,323741,322112,323025,322112,324025,323542,323542,324025,70
69,test,1,con,1,z,Mon Dec 15 2025 14:52:21 GMT-0600 (Central Standard Time),330464.5,pear,900,I,z,z,None,540,341.0,199.0,42,1,1977.8000000715256,328486.6999999285,7722,pear,NF,C,325658,325658,324029,324943,324029,326007,325459,325459,326006,71
70,test,1,con,1,z,Mon Dec 15 2025 14:52:21 GMT-0600 (Central Standard Time),332198.7999999523,pear,800,I,z,z,None,388,188.0,200.0,41,1,1731.2000000476837,330467.59999990463,7722,pear,NF,C,327540,327540,326010,326825,326010,327741,327340,327340,327741,72
71,test,1,inc,1,m,Mon Dec 15 2025 14:52:21 GMT-0600 (Central Standard Time),334296.7999999523,lime,800,I,m,m,None,758,543.0,215.0,125,1,2095.2000000476837,332201.59999990463,7722,lead,NF,C,329288,329288,327744,328557,327744,329839,329073,329073,329839,73
72,test,1,inc,1,z,Mon Dec 15 2025 14:52:21 GMT-0600 (Central Standard Time),336346.09999990463,silver,1000,I,z,z,None,521,306.0,215.0,23,1,2046.0,334300.09999990463,7722,orange,NF,C,331573,331573,329842,330855,329842,331888,331357,331357,331888,74
73,test,1,inc,1,z,Mon Dec 15 2025 14:52:21 GMT-0600 (Central Standard Time),338478.0,zinc,1000,I,z,z,None,585,384.0,201.0,47,1,2127.9000000953674,336350.09999990463,7722,pear,NF,C,333622,333622,331892,332907,331892,334020,333421,333421,334020,75
74,test,1,inc,1,m,Mon Dec 15 2025 14:52:21 GMT-0600 (Central Standard Time),340363.0,banana,800,I,m,m,None,568,367.0,201.0,77,1,1882.3000000715256,338480.6999999285,7722,copper,NF,C,335538,335538,334023,334836,334023,335905,335337,335337,335905,76
75,test,1,con,1,z,Mon Dec 15 2025 14:52:21 GMT-0600 (Central Standard Time),342493.89999997616,orange,900,I,z,z,None,686,486.0,200.0,18,1,2126.2000000476837,340367.6999999285,7722,orange,NF,C,337537,337537,335910,336820,335910,338036,337337,337337,338036,77
76,test,1,inc,1,m,Mon Dec 15 2025 14:52:21 GMT-0600 (Central Standard Time),344810.39999997616,orange,1000,I,m,m,None,788,574.0,214.0,87,1,2312.2000000476837,342498.1999999285,7722,silver,NF,C,339769,339769,338040,339054,338041,340352,339555,339555,340352,78
77,test,1,inc,1,m,Mon Dec 15 2025 14:52:21 GMT-0600 (Central Standard Time),346961.2999999523,raisin,1100,I,m,m,None,516,317.0,199.0,72,1,2148.0,344813.2999999523,7722,bronze,NF,C,342186,342186,340355,341470,340356,342503,341986,341986,342503,79
78,test,1,con,1,z,Mon Dec 15 2025 14:52:21 GMT-0600 (Central Standard Time),349261.0,orange,1100,I,z,z,None,681,482.0,199.0,20,1,2295.4000000953674,346965.59999990463,7722,orange,NF,C,344318,344318,342508,343618,342508,344803,344119,344119,344803,80
79,test,1,con,1,z,Mon Dec 15 2025 14:52:21 GMT-0600 (Central Standard Time),351690.39999997616,pear,1100,I,z,z,None,789,590.0,199.0,44,1,2425.5,349264.89999997616,7722,pear,NF,C,346633,346633,344807,345919,344807,347232,346434,346434,347232,81
80,test,1,inc,1,z,Mon Dec 15 2025 14:52:21 GMT-0600 (Central Standard Time),354007.09999990463,lead,1100,I,z,z,None,670,468.0,202.0,56,1,2314.1999999284744,351692.89999997616,7722,kiwi,NF,C,349067,349067,347235,348351,347235,349549,348865,348865,349549,82
81,test,1,inc,1,m,Mon Dec 15 2025 14:52:21 GMT-0600 (Central Standard Time),356239.6999999285,raisin,1100,I,m,m,None,585,383.0,202.0,88,1,2227.6999999284744,354012.0,7722,silver,NF,C,351384,351384,349554,350666,349554,351782,351182,351182,351782,83
82,test,1,con,1,z,Mon Dec 15 2025 14:52:21 GMT-0600 (Central Standard Time),358607.5,lime,1000,I,z,z,None,819,618.0,201.0,35,1,2363.8000000715256,356243.6999999285,7722,lime,NF,C,353517,353517,351786,352800,351786,354150,353316,353316,354150,84
83,test,1,inc,1,z,Mon Dec 15 2025 14:52:21 GMT-0600 (Central Standard Time),360371.7999999523,bronze,800,I,z,z,None,433,232.0,201.0,13,1,1758.6000000238419,358613.1999999285,7722,cherry,NF,C,355682,355682,354155,354966,354155,355914,355481,355481,355914,85
84,test,1,con,1,m,Mon Dec 15 2025 14:52:21 GMT-0600 (Central Standard Time),362371.6999999285,bronze,800,I,m,m,None,657,457.0,200.0,65,1,1995.6999999284744,360376.0,7722,bronze,NF,C,357448,357448,355918,356730,355918,357914,357247,357247,357914,86
85,test,1,con,1,z,Mon Dec 15 2025 14:52:21 GMT-0600 (Central Standard Time),364588.1999999285,raisin,1100,I,z,z,None,588,389.0,199.0,28,1,2212.6999999284744,362375.5,7722,raisin,NF,C,359730,359730,357918,359029,357918,360130,359531,359531,360130,87
86,test,1,inc,1,z,Mon Dec 15 2025 14:52:21 GMT-0600 (Central Standard Time),366803.5,cobalt,1100,I,z,z,None,573,372.0,201.0,32,1,2210.7000000476837,364592.7999999523,7722,raisin,NF,C,361963,361963,360135,361247,360135,362346,361762,361762,362346,88
87,test,1,inc,1,z,Mon Dec 15 2025 14:52:21 GMT-0600 (Central Standard Time),368752.2999999523,copper,900,I,z,z,None,499,300.0,199.0,30,1,1943.7000000476837,366808.59999990463,7722,raisin,NF,C,363979,363979,362351,363263,362351,364294,363779,363779,364294,89
88,test,1,con,1,m,Mon Dec 15 2025 14:52:21 GMT-0600 (Central Standard Time),371020.39999997616,bronze,1100,I,m,m,None,632,430.0,202.0,68,1,2262.600000023842,368757.7999999523,7722,bronze,NF,C,366129,366129,364300,365411,364300,366562,365927,365927,366562,90
89,test,1,inc,1,m,Mon Dec 15 2025 14:52:21 GMT-0600 (Central Standard Time),373268.59999990463,plum,1100,I,m,m,None,606,406.0,200.0,128,1,2243.1999999284744,371025.39999997616,7722,lead,NF,C,368395,368395,366567,367678,366568,368811,368194,368194,368811,91
90,test,1,inc,1,z,Mon Dec 15 2025 14:52:21 GMT-0600 (Central Standard Time),375383.1999999285,silver,1000,I,z,z,None,578,378.0,200.0,31,1,2107.6999999284744,373275.5,7722,raisin,NF,C,370543,370544,368818,369826,368818,370925,370343,370343,370925,92
91,test,1,inc,1,z,Mon Dec 15 2025 14:52:21 GMT-0600 (Central Standard Time),377732.5,lead,1100,I,z,z,None,703,504.0,199.0,64,1,2344.100000023842,375388.39999997616,7722,plum,NF,C,372759,372759,370930,372042,370931,373275,372559,372559,373275,93
92,test,1,con,1,m,Mon Dec 15 2025 14:52:21 GMT-0600 (Central Standard Time),380066.59999990463,zinc,1100,I,m,m,None,691,491.0,200.0,116,1,2328.5,377738.09999990463,7722,zinc,NF,C,375108,375108,373280,374391,373280,375609,374907,374907,375609,94
93,test,1,inc,1,m,Mon Dec 15 2025 14:52:21 GMT-0600 (Central Standard Time),382698.39999997616,plum,1100,I,m,m,None,989,790.0,199.0,120,1,2625.0,380073.39999997616,7722,zinc,NF,C,377441,377441,375615,376724,375616,378240,377241,377241,378240,95
94,test,1,inc,1,z,Mon Dec 15 2025 14:52:21 GMT-0600 (Central Standard Time),384697.6999999285,copper,900,I,z,z,None,558,359.0,199.0,6,1,1995.2999999523163,382702.39999997616,7722,banana,NF,C,379873,379873,378244,379156,378245,380240,379673,379673,380240,96
95,test,1,con,1,m,Mon Dec 15 2025 14:52:21 GMT-0600 (Central Standard Time),386913.5,lead,900,I,m,m,None,775,575.0,200.0,122,1,2209.600000023842,384703.89999997616,7722,lead,NF,C,381873,381874,380246,381157,380246,382456,381673,381673,382456,97
96,test,1,con,1,m,Mon Dec 15 2025 14:52:21 GMT-0600 (Central Standard Time),389080.89999997616,gold,900,I,m,m,None,732,518.0,214.0,98,1,2161.899999976158,386919.0,7722,gold,NF,C,384089,384089,382461,383372,382461,384624,383874,383874,384623,98
97,test,1,con,1,m,Mon Dec 15 2025 14:52:21 GMT-0600 (Central Standard Time),391427.7999999523,silver,900,I,m,m,None,929,713.0,216.0,82,1,2339.7000000476837,389088.09999990463,7722,silver,NF,C,386255,386255,384630,385538,384630,386970,386039,386039,386970,99
98,test,1,inc,1,m,Mon Dec 15 2025 14:52:21 GMT-0600 (Central Standard Time),393363.6999999285,banana,800,I,m,m,None,601,402.0,199.0,93,1,1931.7999999523163,391431.89999997616,7722,cobalt,NF,C,388503,388504,386974,387788,386974,388906,388304,388304,388906,100
99,test,1,inc,1,m,Mon Dec 15 2025 14:52:21 GMT-0600 (Central Standard Time),395426.6999999285,kiwi,1000,I,m,m,None,522,323.0,199.0,111,1,2056.899999976158,393369.7999999523,7722,iron,NF,C,390637,390637,388912,389921,388912,390969,390437,390437,390969,101
100,test,1,con,1,z,Mon Dec 15 2025 14:52:21 GMT-0600 (Central Standard Time),397377.6999999285,cherry,800,I,z,z,None,600,400.0,200.0,9,1,1945.6999999284744,395432.0,7722,cherry,NF,C,392504,392504,390974,391787,390974,392920,392303,392303,392920,102
101,test,1,con,1,z,Mon Dec 15 2025 14:52:21 GMT-0600 (Central Standard Time),399476.1999999285,pear,1000,I,z,z,None,562,363.0,199.0,43,1,2092.0,397384.1999999285,7722,pear,NF,C,394652,394652,392926,393936,392926,395018,394453,394453,395018,103
101,test,1,con,0,z,Mon Dec 15 2025 14:52:21 GMT-0600 (Central Standard Time),401642.6999999285,kiwi,1000,I,m,m,None,618,417.0,201.0,51,1,2163.899999976158,399478.7999999523,7722,kiwi,NF,C,396751,396751,395021,396033,395021,397185,396550,396550,397185,104
102,test,1,con,1,m,Mon Dec 15 2025 14:52:21 GMT-0600 (Central Standard Time),404175.0,copper,800,I,m,m,None,1185,985.0,200.0,73,1,2526.600000023842,401648.39999997616,7722,copper,NF,C,398718,398718,397190,398001,397191,399717,398517,398517,399717,105
103,test,1,inc,1,m,Mon Dec 15 2025 14:52:21 GMT-0600 (Central Standard Time),406473.2999999523,orange,1000,I,m,m,None,755,540.0,215.0,71,1,2295.0,404178.2999999523,7722,bronze,NF,C,401468,401468,399720,400733,399721,402015,401252,401252,402015,106
104,test,1,inc,1,z,Mon Dec 15 2025 14:52:21 GMT-0600 (Central Standard Time),408640.39999997616,lead,1100,I,z,z,None,532,317.0,215.0,40,1,2162.8000000715256,406477.59999990463,7722,lime,NF,C,403849,403850,402020,403132,402020,404182,403634,403634,404182,107
105,test,1,con,1,z,Mon Dec 15 2025 14:52:21 GMT-0600 (Central Standard Time),410688.6999999285,lime,1100,I,z,z,None,398,183.0,215.0,36,1,2042.1000000238419,408646.59999990463,7722,lime,NF,C,406032,406032,404189,405298,404189,406231,405817,405817,406231,108
106,test,1,inc,1,z,Mon Dec 15 2025 14:52:21 GMT-0600 (Central Standard Time),412621.7999999523,silver,1000,I,z,z,None,411,212.0,199.0,15,1,1927.2000000476837,410694.59999990463,7722,cherry,NF,C,407948,407948,406237,407248,406237,408164,407749,407749,408164,109
107,test,1,inc,1,z,Mon Dec 15 2025 14:52:21 GMT-0600 (Central Standard Time),414638.1999999285,zinc,1000,I,z,z,None,469,270.0,199.0,39,1,2012.8999999761581,412625.2999999523,7722,lime,NF,C,409897,409897,408167,409181,408168,410180,409697,409697,410180,110
108,test,1,con,1,m,Mon Dec 15 2025 14:52:21 GMT-0600 (Central Standard Time),416669.89999997616,copper,900,I,m,m,None,587,387.0,200.0,74,1,2026.0,414643.89999997616,7722,copper,NF,C,411813,411813,410186,411097,410186,412212,411613,411613,412212,111
109,test,1,inc,1,z,Mon Dec 15 2025 14:52:21 GMT-0600 (Central Standard Time),418853.89999997616,cobalt,1100,I,z,z,None,546,346.0,200.0,24,1,2178.600000023842,416675.2999999523,7722,orange,NF,C,414045,414046,412217,413330,412218,414396,413845,413845,414396,112
110,test,1,con,1,z,Mon Dec 15 2025 14:52:21 GMT-0600 (Central Standard Time),421019.6999999285,banana,900,I,z,z,None,746,547.0,199.0,2,1,2159.399999976158,418860.2999999523,7722,banana,NF,C,416012,416012,414402,415311,414403,416562,415812,415812,416562,113
111,test,1,inc,1,z,Mon Dec 15 2025 14:52:21 GMT-0600 (Central Standard Time),423185.39999997616,gold,800,I,z,z,None,824,625.0,199.0,61,1,2160.7000000476837,421024.6999999285,7722,plum,NF,C,418095,418095,416567,417379,416567,418727,417895,417895,418727,114
112,test,1,con,1,z,Mon Dec 15 2025 14:52:21 GMT-0600 (Central Standard Time),425386.6999999285,banana,800,I,z,z,None,866,667.0,199.0,1,1,2197.1999999284744,423189.5,7722,banana,NF,C,420261,420261,418732,419543,418732,420929,420061,420061,420929,115
113,test,1,inc,1,m,Mon Dec 15 2025 14:52:21 GMT-0600 (Central Standard Time),427417.59999990463,banana,800,I,m,m,None,683,483.0,200.0,85,1,2026.0999999046326,425391.5,7722,silver,NF,C,422460,422460,420934,421744,420934,422960,422260,422260,422960,116
114,test,1,con,1,m,Mon Dec 15 2025 14:52:21 GMT-0600 (Central Standard Time),429434.6999999285,zinc,800,I,m,m,None,682,467.0,215.0,113,1,2013.6999999284744,427421.0,7722,zinc,NF,C,424509,424509,422963,423776,422963,424977,424294,424294,424977,117
115,test,1,inc,1,m,Mon Dec 15 2025 14:52:21 GMT-0600 (Central Standard Time),431581.5,orange,1000,I,m,m,None,603,402.0,201.0,95,1,2142.5,429439.0,7722,cobalt,NF,C,426709,426709,424981,425992,424981,427124,426508,426508,427124,118
116,test,1,con,1,m,Mon Dec 15 2025 14:52:21 GMT-0600 (Central Standard Time),433582.0,cobalt,1000,I,m,m,None,453,251.0,202.0,91,1,1996.7000000476837,431585.2999999523,7722,cobalt,NF,C,428860,428860,427127,428142,427128,429124,428658,428658,429124,119
117,test,1,con,1,m,Mon Dec 15 2025 14:52:21 GMT-0600 (Central Standard Time),435647.2999999523,lead,1100,I,m,m,None,434,216.0,218.0,124,1,2061.7000000476837,433585.59999990463,7722,lead,NF,C,430959,430959,429128,430240,429128,431189,430741,430741,431189,120
118,test,1,inc,1,z,Mon Dec 15 2025 14:52:21 GMT-0600 (Central Standard Time),437897.39999997616,lead,1100,I,z,z,None,601,401.0,200.0,48,1,2244.7000000476837,435652.6999999285,7722,pear,NF,C,433023,433023,431195,432307,431195,433439,432823,432823,433439,121
119,test,1,inc,1,z,Mon Dec 15 2025 14:52:21 GMT-0600 (Central Standard Time),440132.0,iron,900,I,z,z,None,801,601.0,200.0,62,1,2230.100000023842,437901.89999997616,7722,plum,NF,C,435073,435073,433444,434357,433444,435674,434872,434873,435674,122
120,test,1,inc,1,z,Mon Dec 15 2025 14:52:21 GMT-0600 (Central Standard Time),442247.2999999523,zinc,1000,I,z,z,None,579,379.0,200.0,63,1,2110.2000000476837,440137.09999990463,7722,plum,NF,C,437405,437405,435679,436689,435679,437789,437205,437205,437789,123
121,test,1,con,1,m,Mon Dec 15 2025 14:52:21 GMT-0600 (Central Standard Time),444428.39999997616,copper,1000,I,m,m,None,646,447.0,199.0,75,1,2177.899999976158,442250.5,7722,copper,NF,C,439521,439521,437793,438805,437793,439970,439321,439321,439970,124
122,test,1,inc,1,m,Mon Dec 15 2025 14:52:21 GMT-0600 (Central Standard Time),446394.6999999285,pear,900,I,m,m,None,523,323.0,200.0,118,1,1961.8999999761581,444432.7999999523,7722,zinc,NF,C,441604,441604,439975,440888,439975,441937,441404,441404,441937,125
123,test,1,inc,1,z,Mon Dec 15 2025 14:52:21 GMT-0600 (Central Standard Time),448542.89999997616,cobalt,1100,I,z,z,None,508,294.0,214.0,16,1,2143.600000023842,446399.2999999523,7722,cherry,NF,C,443786,443786,441941,443053,441942,444085,443572,443572,444085,126
124,test,1,inc,1,z,Mon Dec 15 2025 14:52:21 GMT-0600 (Central Standard Time),450692.6999999285,zinc,1000,I,z,z,None,611,411.0,200.0,55,1,2146.600000023842,448546.09999990463,7722,kiwi,NF,C,445820,445820,444088,445102,444088,446235,445619,445619,446235,127
125,test,1,con,1,z,Mon Dec 15 2025 14:52:21 GMT-0600 (Central Standard Time),452841.89999997616,raisin,1000,I,z,z,None,615,415.0,200.0,27,1,2145.5,450696.39999997616,7722,raisin,NF,C,447969,447969,446238,447253,446240,448384,447769,447769,448384,128
