Number,acc_sum,block,block_c,block_cond,con_img,correct,correct_response,datetime,endtime,jitter,project,response,response_time,row_sel,session_number,start_end,starttime,subject_id,task,task_vers,trial
2,1,prac,1,A,circle.png,1,z,Wed Feb 25 2026 09:37:57 GMT-0600 (Central Standard Time),72367.89999999106,2000,O,z,1170,2,1,3940.2999999970198,68427.59999999404,7748,NTS,C,1
8,2,prac,1,A,circle.png,1,m,Wed Feb 25 2026 09:37:57 GMT-0600 (Central Standard Time),75349.39999999106,1600,O,m,590,7,1,2974.8999999910593,72374.5,7748,NTS,C,2
9,3,prac,1,A,circle.png,1,m,Wed Feb 25 2026 09:37:57 GMT-0600 (Central Standard Time),78434.29999999702,1500,O,m,792,8,1,3078.0,75356.29999999702,7748,NTS,C,3
2,4,prac,1,A,circle.png,1,z,Wed Feb 25 2026 09:37:57 GMT-0600 (Central Standard Time),81847.79999999702,2000,O,z,617,2,1,3407.5999999940395,78440.20000000298,7748,NTS,C,4
1,5,prac,1,A,circle.png,1,z,Wed Feb 25 2026 09:37:57 GMT-0600 (Central Standard Time),84446.89999999106,1000,O,z,799,1,1,2594.2999999970198,81852.59999999404,7748,NTS,C,5
9,6,prac,1,A,circle.png,1,m,Wed Feb 25 2026 09:37:57 GMT-0600 (Central Standard Time),87328.5,1500,O,m,596,8,1,2876.2000000029802,84452.29999999702,7748,NTS,C,6
7,7,prac,1,A,circle.png,1,m,Wed Feb 25 2026 09:37:57 GMT-0600 (Central Standard Time),90411.0,1700,O,m,584,6,1,3077.2000000029802,87333.79999999702,7748,NTS,C,7
4,8,prac,1,A,circle.png,1,z,Wed Feb 25 2026 09:37:57 GMT-0600 (Central Standard Time),93246.09999999404,1400,O,z,635,4,1,2829.0,90417.09999999404,7748,NTS,C,8
8,9,prac,1,A,circle.png,1,m,Wed Feb 25 2026 09:37:57 GMT-0600 (Central Standard Time),96244.59999999404,1600,O,m,625,7,1,2993.0999999940395,93251.5,7748,NTS,C,9
3,10,prac,1,A,circle.png,1,z,Wed Feb 25 2026 09:37:57 GMT-0600 (Central Standard Time),98858.79999999702,1200,O,z,627,3,1,2608.5999999940395,96250.20000000298,7748,NTS,C,10
6,11,prac,1,A,circle.png,1,m,Wed Feb 25 2026 09:37:57 GMT-0600 (Central Standard Time),102157.89999999106,1900,O,m,609,5,1,3293.3999999910593,98864.5,7748,NTS,C,11
7,12,prac,1,A,circle.png,1,m,Wed Feb 25 2026 09:37:57 GMT-0600 (Central Standard Time),105308.29999999702,1700,O,m,669,6,1,3144.7000000029802,102163.59999999404,7748,NTS,C,12
9,0,prac,1,B,triangle.png,0,z,Wed Feb 25 2026 09:37:57 GMT-0600 (Central Standard Time),159639.5,1400,O,None,1515,8,1,3687.6000000089407,155951.89999999106,7748,NTS,C,1
1,1,prac,1,B,triangle.png,1,z,Wed Feb 25 2026 09:37:57 GMT-0600 (Central Standard Time),162905.09999999404,1900,O,z,572,1,1,3259.7999999970198,159645.29999999702,7748,NTS,C,2
8,2,prac,1,B,triangle.png,1,m,Wed Feb 25 2026 09:37:57 GMT-0600 (Central Standard Time),165372.5,1200,O,m,468,7,1,2462.7000000029802,162909.79999999702,7748,NTS,C,3
2,3,prac,1,B,triangle.png,1,m,Wed Feb 25 2026 09:37:57 GMT-0600 (Central Standard Time),168436.79999999702,1700,O,m,584,2,1,3055.5,165381.29999999702,7748,NTS,C,4
7,4,prac,1,B,triangle.png,1,z,Wed Feb 25 2026 09:37:57 GMT-0600 (Central Standard Time),171869.89999999106,2000,O,z,650,6,1,3426.5,168443.39999999106,7748,NTS,C,5
2,5,prac,1,B,triangle.png,1,m,Wed Feb 25 2026 09:37:57 GMT-0600 (Central Standard Time),174968.70000000298,1700,O,m,604,2,1,3093.5,171875.20000000298,7748,NTS,C,6
8,6,prac,1,B,triangle.png,1,m,Wed Feb 25 2026 09:37:57 GMT-0600 (Central Standard Time),177950.79999999702,1200,O,m,998,7,1,2975.0999999940395,174975.70000000298,7748,NTS,C,7
3,7,prac,1,B,triangle.png,1,z,Wed Feb 25 2026 09:37:57 GMT-0600 (Central Standard Time),180898.20000000298,1600,O,z,553,3,1,2940.9000000059605,177957.29999999702,7748,NTS,C,8
1,8,prac,1,B,triangle.png,1,z,Wed Feb 25 2026 09:37:57 GMT-0600 (Central Standard Time),184314.89999999106,1900,O,z,728,1,1,3412.0,180902.89999999106,7748,NTS,C,9
4,8,prac,1,B,triangle.png,0,m,Wed Feb 25 2026 09:37:57 GMT-0600 (Central Standard Time),188113.89999999106,1500,O,None,1516,4,1,3790.5,184323.39999999106,7748,NTS,C,10
6,9,prac,1,B,triangle.png,1,m,Wed Feb 25 2026 09:37:57 GMT-0600 (Central Standard Time),190480.59999999404,1000,O,m,584,5,1,2360.8999999910593,188119.70000000298,7748,NTS,C,11
6,10,prac,1,B,triangle.png,1,m,Wed Feb 25 2026 09:37:57 GMT-0600 (Central Standard Time),192745.20000000298,1000,O,m,473,5,1,2258.1000000089407,190487.09999999404,7748,NTS,C,12
2,1,test,1,A,circle.png,1,z,Wed Feb 25 2026 09:37:57 GMT-0600 (Central Standard Time),240747.59999999404,2000,O,z,502,2,1,2529.7000000029802,238217.89999999106,7748,NTS,C,1
4,2,test,1,A,circle.png,1,z,Wed Feb 25 2026 09:37:57 GMT-0600 (Central Standard Time),242746.59999999404,1400,O,z,572,4,1,1995.3999999910593,240751.20000000298,7748,NTS,C,2
2,3,test,1,A,circle.png,1,z,Wed Feb 25 2026 09:37:57 GMT-0600 (Central Standard Time),245347.79999999702,2000,O,z,583,2,1,2597.2999999970198,242750.5,7748,NTS,C,3
9,4,test,1,A,circle.png,1,m,Wed Feb 25 2026 09:37:57 GMT-0600 (Central Standard Time),247378.20000000298,1500,O,m,514,8,1,2025.7000000029802,245352.5,7748,NTS,C,4
6,5,test,1,A,circle.png,1,m,Wed Feb 25 2026 09:37:57 GMT-0600 (Central Standard Time),249927.5,1900,O,m,624,5,1,2544.7999999970198,247382.70000000298,7748,NTS,C,5
1,6,test,1,A,circle.png,1,z,Wed Feb 25 2026 09:37:57 GMT-0600 (Central Standard Time),251459.59999999404,1000,O,z,502,1,1,1528.3999999910593,249931.20000000298,7748,NTS,C,6
3,7,test,1,A,circle.png,1,z,Wed Feb 25 2026 09:37:57 GMT-0600 (Central Standard Time),253309.79999999702,1200,O,z,617,3,1,1847.5999999940395,251462.20000000298,7748,NTS,C,7
4,8,test,1,A,circle.png,1,z,Wed Feb 25 2026 09:37:57 GMT-0600 (Central Standard Time),255210.5,1400,O,z,473,4,1,1897.1000000089407,253313.39999999106,7748,NTS,C,8
7,9,test,1,A,circle.png,1,m,Wed Feb 25 2026 09:37:57 GMT-0600 (Central Standard Time),257425.5,1700,O,m,499,6,1,2212.2999999970198,255213.20000000298,7748,NTS,C,9
9,10,test,1,A,circle.png,1,m,Wed Feb 25 2026 09:37:57 GMT-0600 (Central Standard Time),259492.39999999106,1500,O,m,537,8,1,2059.3999999910593,257433.0,7748,NTS,C,10
7,11,test,1,A,circle.png,1,m,Wed Feb 25 2026 09:37:57 GMT-0600 (Central Standard Time),261790.39999999106,1700,O,m,576,6,1,2291.0999999940395,259499.29999999702,7748,NTS,C,11
8,12,test,1,A,circle.png,1,m,Wed Feb 25 2026 09:37:57 GMT-0600 (Central Standard Time),264056.09999999404,1600,O,m,639,7,1,2260.7000000029802,261795.39999999106,7748,NTS,C,12
7,13,test,1,A,circle.png,1,m,Wed Feb 25 2026 09:37:57 GMT-0600 (Central Standard Time),266256.39999999106,1700,O,m,472,6,1,2195.5999999940395,264060.799999997,7748,NTS,C,13
9,14,test,1,A,circle.png,1,m,Wed Feb 25 2026 09:37:57 GMT-0600 (Central Standard Time),268238.299999997,1500,O,m,452,8,1,1978.2000000029802,266260.09999999404,7748,NTS,C,14
8,15,test,1,A,circle.png,1,m,Wed Feb 25 2026 09:37:57 GMT-0600 (Central Standard Time),270570.39999999106,1600,O,m,699,7,1,2326.2999999970198,268244.09999999404,7748,NTS,C,15
1,16,test,1,A,circle.png,1,z,Wed Feb 25 2026 09:37:57 GMT-0600 (Central Standard Time),272236.200000003,1000,O,z,645,1,1,1662.300000011921,270573.89999999106,7748,NTS,C,16
8,17,test,1,A,circle.png,1,m,Wed Feb 25 2026 09:37:57 GMT-0600 (Central Standard Time),274504.799999997,1600,O,m,642,7,1,2263.7999999970198,272241.0,7748,NTS,C,17
3,18,test,1,A,circle.png,1,z,Wed Feb 25 2026 09:37:57 GMT-0600 (Central Standard Time),276336.09999999404,1200,O,z,600,3,1,1825.7000000029802,274510.39999999106,7748,NTS,C,18
6,19,test,1,A,circle.png,1,m,Wed Feb 25 2026 09:37:57 GMT-0600 (Central Standard Time),278851.5,1900,O,m,588,5,1,2510.4000000059605,276341.09999999404,7748,NTS,C,19
8,20,test,1,A,circle.png,1,m,Wed Feb 25 2026 09:37:57 GMT-0600 (Central Standard Time),280952.0,1600,O,m,461,7,1,2094.5,278857.5,7748,NTS,C,20
4,21,test,1,A,circle.png,1,z,Wed Feb 25 2026 09:37:57 GMT-0600 (Central Standard Time),282919.0,1400,O,z,545,4,1,1959.2999999970198,280959.700000003,7748,NTS,C,21
4,22,test,1,A,circle.png,1,z,Wed Feb 25 2026 09:37:57 GMT-0600 (Central Standard Time),284999.200000003,1400,O,z,650,4,1,2074.9000000059605,282924.299999997,7748,NTS,C,22
3,23,test,1,A,circle.png,1,z,Wed Feb 25 2026 09:37:57 GMT-0600 (Central Standard Time),286714.39999999106,1200,O,z,495,3,1,1708.8999999910593,285005.5,7748,NTS,C,23
3,24,test,1,A,circle.png,1,z,Wed Feb 25 2026 09:37:57 GMT-0600 (Central Standard Time),288416.0,1200,O,z,470,3,1,1699.1000000089407,286716.89999999106,7748,NTS,C,24
4,1,test,1,B,triangle.png,1,m,Wed Feb 25 2026 09:37:57 GMT-0600 (Central Standard Time),307708.59999999404,1500,O,m,797,4,1,2310.0999999940395,305398.5,7748,NTS,C,1
6,2,test,1,B,triangle.png,1,m,Wed Feb 25 2026 09:37:57 GMT-0600 (Central Standard Time),309325.299999997,1000,O,m,595,5,1,1610.5,307714.799999997,7748,NTS,C,2
2,3,test,1,B,triangle.png,1,m,Wed Feb 25 2026 09:37:57 GMT-0600 (Central Standard Time),311790.59999999404,1700,O,m,734,2,1,2460.2000000029802,309330.39999999106,7748,NTS,C,3
7,4,test,1,B,triangle.png,1,z,Wed Feb 25 2026 09:37:57 GMT-0600 (Central Standard Time),313989.89999999106,1600,O,z,576,14,1,2194.2999999970198,311795.59999999404,7748,NTS,C,4
8,5,test,1,B,triangle.png,1,m,Wed Feb 25 2026 09:37:57 GMT-0600 (Central Standard Time),316174.700000003,1700,O,m,456,15,1,2181.9000000059605,313992.799999997,7748,NTS,C,5
6,6,test,1,B,triangle.png,1,m,Wed Feb 25 2026 09:37:57 GMT-0600 (Central Standard Time),318207.0,1500,O,m,509,13,1,2026.1000000089407,316180.89999999106,7748,NTS,C,6
9,7,test,1,B,triangle.png,1,z,Wed Feb 25 2026 09:37:57 GMT-0600 (Central Standard Time),320688.59999999404,1900,O,z,556,16,1,2479.0,318209.59999999404,7748,NTS,C,7
8,8,test,1,B,triangle.png,1,m,Wed Feb 25 2026 09:37:57 GMT-0600 (Central Standard Time),322405.299999997,1200,O,m,493,7,1,1713.9000000059605,320691.39999999106,7748,NTS,C,8
3,9,test,1,B,triangle.png,1,z,Wed Feb 25 2026 09:37:57 GMT-0600 (Central Standard Time),324954.59999999404,2000,O,z,521,11,1,2546.3999999910593,322408.200000003,7748,NTS,C,9
9,10,test,1,B,triangle.png,1,z,Wed Feb 25 2026 09:37:57 GMT-0600 (Central Standard Time),327119.799999997,1400,O,z,742,8,1,2162.0999999940395,324957.700000003,7748,NTS,C,10
9,11,test,1,B,triangle.png,1,z,Wed Feb 25 2026 09:37:57 GMT-0600 (Central Standard Time),329118.0,1400,O,z,567,8,1,1994.7999999970198,327123.200000003,7748,NTS,C,11
3,12,test,1,B,triangle.png,1,z,Wed Feb 25 2026 09:37:57 GMT-0600 (Central Standard Time),331735.09999999404,2000,O,z,592,11,1,2614.5,329120.59999999404,7748,NTS,C,12
8,13,test,1,B,triangle.png,1,m,Wed Feb 25 2026 09:37:57 GMT-0600 (Central Standard Time),334000.299999997,1700,O,m,532,15,1,2261.5999999940395,331738.700000003,7748,NTS,C,13
8,14,test,1,B,triangle.png,1,m,Wed Feb 25 2026 09:37:57 GMT-0600 (Central Standard Time),335567.5,1200,O,m,344,7,1,1564.7000000029802,334002.799999997,7748,NTS,C,14
7,15,test,1,B,triangle.png,1,z,Wed Feb 25 2026 09:37:57 GMT-0600 (Central Standard Time),338066.89999999106,2000,O,z,472,6,1,2496.3999999910593,335570.5,7748,NTS,C,15
1,15,test,1,B,triangle.png,0,z,Wed Feb 25 2026 09:37:57 GMT-0600 (Central Standard Time),340115.39999999106,1400,O,m,633,9,1,2043.699999988079,338071.700000003,7748,NTS,C,16
1,16,test,1,B,triangle.png,1,z,Wed Feb 25 2026 09:37:57 GMT-0600 (Central Standard Time),342631.59999999404,1900,O,z,583,1,1,2512.3999999910593,340119.200000003,7748,NTS,C,17
4,17,test,1,B,triangle.png,1,m,Wed Feb 25 2026 09:37:57 GMT-0600 (Central Standard Time),344363.59999999404,1000,O,m,700,12,1,1729.0999999940395,342634.5,7748,NTS,C,18
2,18,test,1,B,triangle.png,1,m,Wed Feb 25 2026 09:37:57 GMT-0600 (Central Standard Time),346280.09999999404,1200,O,m,683,10,1,1913.5,344366.59999999404,7748,NTS,C,19
1,19,test,1,B,triangle.png,1,z,Wed Feb 25 2026 09:37:57 GMT-0600 (Central Standard Time),348762.299999997,1900,O,z,548,1,1,2478.7999999970198,346283.5,7748,NTS,C,20
3,20,test,1,B,triangle.png,1,z,Wed Feb 25 2026 09:37:57 GMT-0600 (Central Standard Time),350978.0,1600,O,z,597,3,1,2211.2999999970198,348766.700000003,7748,NTS,C,21
4,21,test,1,B,triangle.png,1,m,Wed Feb 25 2026 09:37:57 GMT-0600 (Central Standard Time),352961.09999999404,1500,O,m,456,4,1,1980.2999999970198,350980.799999997,7748,NTS,C,22
6,22,test,1,B,triangle.png,1,m,Wed Feb 25 2026 09:37:57 GMT-0600 (Central Standard Time),354444.09999999404,1000,O,m,462,5,1,1479.8999999910593,352964.200000003,7748,NTS,C,23
4,23,test,1,B,triangle.png,1,m,Wed Feb 25 2026 09:37:57 GMT-0600 (Central Standard Time),355944.5,1000,O,m,467,12,1,1496.9000000059605,354447.59999999404,7748,NTS,C,24
1,1,prac,1,C,circle.png,1,z,Wed Feb 25 2026 09:37:57 GMT-0600 (Central Standard Time),396947.59999999404,1700,O,z,1135,1,1,3628.0999999940395,393319.5,7748,NTS,C,1
3,1,prac,1,C,triangle.png,0,z,Wed Feb 25 2026 09:37:57 GMT-0600 (Central Standard Time),400745.799999997,1500,O,None,1517,3,1,3789.7000000029802,396956.09999999404,7748,NTS,C,2
7,2,prac,1,C,triangle.png,1,z,Wed Feb 25 2026 09:37:57 GMT-0600 (Central Standard Time),403497.39999999106,1200,O,z,782,6,1,2744.8999999910593,400752.5,7748,NTS,C,3
8,3,prac,1,C,triangle.png,1,m,Wed Feb 25 2026 09:37:57 GMT-0600 (Central Standard Time),406527.59999999404,1400,O,m,835,7,1,3021.5999999940395,403506.0,7748,NTS,C,4
4,4,prac,1,C,circle.png,1,z,Wed Feb 25 2026 09:37:57 GMT-0600 (Central Standard Time),409193.39999999106,1000,O,z,873,4,1,2657.5,406535.89999999106,7748,NTS,C,5
6,5,prac,1,C,circle.png,1,m,Wed Feb 25 2026 09:37:57 GMT-0600 (Central Standard Time),413009.89999999106,2000,O,m,1037,5,1,3809.0999999940395,409200.799999997,7748,NTS,C,6
1,6,prac,1,C,circle.png,1,z,Wed Feb 25 2026 09:37:57 GMT-0600 (Central Standard Time),416307.700000003,1700,O,z,811,1,1,3291.1000000089407,413016.59999999404,7748,NTS,C,7
8,6,prac,1,C,triangle.png,0,m,Wed Feb 25 2026 09:37:57 GMT-0600 (Central Standard Time),420006.700000003,1400,O,None,1515,7,1,3693.800000011921,416312.89999999106,7748,NTS,C,8
4,6,prac,1,C,circle.png,0,z,Wed Feb 25 2026 09:37:57 GMT-0600 (Central Standard Time),423206.5,1000,O,m,1416,4,1,3193.2999999970198,420013.200000003,7748,NTS,C,9
9,7,prac,1,C,circle.png,1,m,Wed Feb 25 2026 09:37:57 GMT-0600 (Central Standard Time),426737.799999997,1900,O,m,837,8,1,3525.0999999940395,423212.700000003,7748,NTS,C,10
2,8,prac,1,C,triangle.png,1,m,Wed Feb 25 2026 09:37:57 GMT-0600 (Central Standard Time),430403.89999999106,1600,O,m,1280,2,1,3660.3999999910593,426743.5,7748,NTS,C,11
6,9,prac,1,C,circle.png,1,m,Wed Feb 25 2026 09:37:57 GMT-0600 (Central Standard Time),434353.799999997,2000,O,m,1166,5,1,3943.4000000059605,430410.39999999106,7748,NTS,C,12
4,1,prac,2,C,circle.png,1,z,Wed Feb 25 2026 09:37:57 GMT-0600 (Central Standard Time),451763.700000003,1000,O,z,1120,4,1,2909.2000000029802,448854.5,7748,NTS,C,1
3,2,prac,2,C,triangle.png,1,z,Wed Feb 25 2026 09:37:57 GMT-0600 (Central Standard Time),455479.0,1500,O,z,1416,3,1,3708.7999999970198,451770.200000003,7748,NTS,C,2
9,3,prac,2,C,circle.png,1,m,Wed Feb 25 2026 09:37:57 GMT-0600 (Central Standard Time),458928.299999997,1900,O,m,767,8,1,3444.5,455483.799999997,7748,NTS,C,3
3,4,prac,2,C,triangle.png,1,z,Wed Feb 25 2026 09:37:57 GMT-0600 (Central Standard Time),462193.799999997,1500,O,z,982,3,1,3260.0,458933.799999997,7748,NTS,C,4
1,5,prac,2,C,circle.png,1,z,Wed Feb 25 2026 09:37:57 GMT-0600 (Central Standard Time),465510.39999999106,1700,O,z,844,1,1,3312.699999988079,462197.700000003,7748,NTS,C,5
4,6,prac,2,C,circle.png,1,z,Wed Feb 25 2026 09:37:57 GMT-0600 (Central Standard Time),467993.299999997,1000,O,z,714,4,1,2478.7999999970198,465514.5,7748,NTS,C,6
2,7,prac,2,C,triangle.png,1,m,Wed Feb 25 2026 09:37:57 GMT-0600 (Central Standard Time),471275.0,1600,O,m,905,2,1,3276.5,467998.5,7748,NTS,C,7
2,7,prac,2,C,triangle.png,0,m,Wed Feb 25 2026 09:37:57 GMT-0600 (Central Standard Time),474824.700000003,1600,O,z,1159,2,1,3543.4000000059605,471281.299999997,7748,NTS,C,8
8,8,prac,2,C,triangle.png,1,m,Wed Feb 25 2026 09:37:57 GMT-0600 (Central Standard Time),478140.0,1400,O,m,1119,7,1,3308.9000000059605,474831.09999999404,7748,NTS,C,9
6,9,prac,2,C,circle.png,1,m,Wed Feb 25 2026 09:37:57 GMT-0600 (Central Standard Time),481587.799999997,2000,O,m,661,5,1,3440.5999999940395,478147.200000003,7748,NTS,C,10
7,10,prac,2,C,triangle.png,1,z,Wed Feb 25 2026 09:37:57 GMT-0600 (Central Standard Time),484635.89999999106,1200,O,z,1053,6,1,3043.0999999940395,481592.799999997,7748,NTS,C,11
8,10,prac,2,C,triangle.png,0,m,Wed Feb 25 2026 09:37:57 GMT-0600 (Central Standard Time),488318.59999999404,1400,O,z,1492,7,1,3675.5,484643.09999999404,7748,NTS,C,12
1,1,test,1,C,circle.png,1,z,Wed Feb 25 2026 09:37:57 GMT-0600 (Central Standard Time),506014.0,1000,O,z,637,1,1,1659.0,504355.0,7748,NTS,C,1
2,2,test,1,C,circle.png,1,z,Wed Feb 25 2026 09:37:57 GMT-0600 (Central Standard Time),508395.299999997,1700,O,z,655,10,1,2377.0999999940395,506018.200000003,7748,NTS,C,2
2,3,test,1,C,triangle.png,1,m,Wed Feb 25 2026 09:37:57 GMT-0600 (Central Standard Time),511644.200000003,2000,O,m,1222,2,1,3244.2000000029802,508400.0,7748,NTS,C,3
9,4,test,1,C,circle.png,1,m,Wed Feb 25 2026 09:37:57 GMT-0600 (Central Standard Time),514092.799999997,1500,O,m,915,24,1,2443.9000000059605,511648.89999999106,7748,NTS,C,4
8,5,test,1,C,triangle.png,1,m,Wed Feb 25 2026 09:37:57 GMT-0600 (Central Standard Time),516596.200000003,1600,O,m,881,7,1,2499.6000000089407,514096.59999999404,7748,NTS,C,5
6,6,test,1,C,circle.png,1,m,Wed Feb 25 2026 09:37:57 GMT-0600 (Central Standard Time),519574.39999999106,1900,O,m,1062,5,1,2974.7999999970198,516599.59999999404,7748,NTS,C,6
7,7,test,1,C,triangle.png,1,z,Wed Feb 25 2026 09:37:57 GMT-0600 (Central Standard Time),522257.299999997,1700,O,z,956,6,1,2677.7999999970198,519579.5,7748,NTS,C,7
6,7,test,1,C,triangle.png,0,m,Wed Feb 25 2026 09:37:57 GMT-0600 (Central Standard Time),524441.0,1000,O,z,1169,13,1,2179.4000000059605,522261.59999999404,7748,NTS,C,8
3,8,test,1,C,circle.png,1,z,Wed Feb 25 2026 09:37:57 GMT-0600 (Central Standard Time),527107.099999994,1600,O,z,1039,11,1,2661.7000000029802,524445.3999999911,7748,NTS,C,9
4,9,test,1,C,circle.png,1,z,Wed Feb 25 2026 09:37:57 GMT-0600 (Central Standard Time),529688.299999997,1400,O,z,1158,4,1,2577.4000000059605,527110.8999999911,7748,NTS,C,10
9,10,test,1,C,triangle.png,1,z,Wed Feb 25 2026 09:37:57 GMT-0600 (Central Standard Time),532507.599999994,1400,O,z,1386,16,1,2815.3999999910593,529692.200000003,7748,NTS,C,11
7,11,test,1,C,circle.png,1,m,Wed Feb 25 2026 09:37:57 GMT-0600 (Central Standard Time),535487.0,2000,O,m,959,14,1,2971.6000000089407,532515.3999999911,7748,NTS,C,12
3,12,test,1,C,circle.png,1,z,Wed Feb 25 2026 09:37:57 GMT-0600 (Central Standard Time),537885.700000003,1600,O,z,779,19,1,2394.6000000089407,535491.099999994,7748,NTS,C,13
4,13,test,1,C,triangle.png,1,m,Wed Feb 25 2026 09:37:57 GMT-0600 (Central Standard Time),540368.3999999911,1500,O,m,946,12,1,2479.199999988079,537889.200000003,7748,NTS,C,14
6,14,test,1,C,circle.png,1,m,Wed Feb 25 2026 09:37:57 GMT-0600 (Central Standard Time),543033.700000003,1900,O,m,749,21,1,2661.1000000089407,540372.599999994,7748,NTS,C,15
9,15,test,1,C,circle.png,1,m,Wed Feb 25 2026 09:37:57 GMT-0600 (Central Standard Time),545366.299999997,1500,O,m,808,8,1,2327.4000000059605,543038.8999999911,7748,NTS,C,16
8,16,test,1,C,circle.png,1,m,Wed Feb 25 2026 09:37:57 GMT-0600 (Central Standard Time),547182.8999999911,1200,O,m,594,15,1,1814.0,545368.8999999911,7748,NTS,C,17
1,17,test,1,C,triangle.png,1,z,Wed Feb 25 2026 09:37:57 GMT-0600 (Central Standard Time),550032.200000003,1900,O,z,925,9,1,2845.300000011921,547186.8999999911,7748,NTS,C,18
1,18,test,1,C,triangle.png,1,z,Wed Feb 25 2026 09:37:57 GMT-0600 (Central Standard Time),553212.8999999911,1900,O,z,1251,17,1,3176.5,550036.3999999911,7748,NTS,C,19
8,19,test,1,C,triangle.png,1,m,Wed Feb 25 2026 09:37:57 GMT-0600 (Central Standard Time),555863.299999997,1600,O,m,1017,23,1,2646.5999999940395,553216.700000003,7748,NTS,C,20
3,20,test,1,C,triangle.png,1,z,Wed Feb 25 2026 09:37:57 GMT-0600 (Central Standard Time),558097.099999994,1200,O,z,1017,3,1,2231.2000000029802,555865.8999999911,7748,NTS,C,21
2,21,test,1,C,circle.png,1,z,Wed Feb 25 2026 09:37:57 GMT-0600 (Central Standard Time),560878.099999994,1700,O,z,1061,18,1,2777.5,558100.599999994,7748,NTS,C,22
7,22,test,1,C,triangle.png,1,z,Wed Feb 25 2026 09:37:57 GMT-0600 (Central Standard Time),563610.8999999911,1700,O,z,1005,22,1,2729.5999999940395,560881.299999997,7748,NTS,C,23
4,23,test,1,C,triangle.png,1,m,Wed Feb 25 2026 09:37:57 GMT-0600 (Central Standard Time),566477.299999997,1500,O,m,1343,20,1,2862.7000000029802,563614.599999994,7748,NTS,C,24
7,1,test,2,C,circle.png,1,m,Wed Feb 25 2026 09:37:57 GMT-0600 (Central Standard Time),585005.5,2000,O,m,713,14,1,2731.0,582274.5,7748,NTS,C,1
1,2,test,2,C,triangle.png,1,z,Wed Feb 25 2026 09:37:57 GMT-0600 (Central Standard Time),587789.200000003,1900,O,z,855,9,1,2779.9000000059605,585009.299999997,7748,NTS,C,2
8,3,test,2,C,circle.png,1,m,Wed Feb 25 2026 09:37:57 GMT-0600 (Central Standard Time),589752.799999997,1200,O,m,747,23,1,1960.2000000029802,587792.599999994,7748,NTS,C,3
2,4,test,2,C,circle.png,1,z,Wed Feb 25 2026 09:37:57 GMT-0600 (Central Standard Time),592252.099999994,1700,O,z,767,18,1,2494.8999999910593,589757.200000003,7748,NTS,C,4
3,5,test,2,C,circle.png,1,z,Wed Feb 25 2026 09:37:57 GMT-0600 (Central Standard Time),594535.8999999911,1600,O,z,653,19,1,2276.699999988079,592259.200000003,7748,NTS,C,5
4,6,test,2,C,circle.png,1,z,Wed Feb 25 2026 09:37:57 GMT-0600 (Central Standard Time),596518.3999999911,1400,O,z,553,4,1,1977.5,594540.8999999911,7748,NTS,C,6
8,7,test,2,C,circle.png,1,m,Wed Feb 25 2026 09:37:57 GMT-0600 (Central Standard Time),598384.8999999911,1200,O,m,633,15,1,1862.3999999910593,596522.5,7748,NTS,C,7
8,8,test,2,C,triangle.png,1,m,Wed Feb 25 2026 09:37:57 GMT-0600 (Central Standard Time),600784.700000003,1600,O,m,768,7,1,2395.1000000089407,598389.599999994,7748,NTS,C,8
9,9,test,2,C,triangle.png,1,z,Wed Feb 25 2026 09:37:57 GMT-0600 (Central Standard Time),603216.0,1400,O,z,1001,24,1,2427.7000000029802,600788.299999997,7748,NTS,C,9
3,10,test,2,C,circle.png,1,z,Wed Feb 25 2026 09:37:57 GMT-0600 (Central Standard Time),605597.700000003,1600,O,z,752,11,1,2377.0,603220.700000003,7748,NTS,C,10
2,11,test,2,C,triangle.png,1,m,Wed Feb 25 2026 09:37:57 GMT-0600 (Central Standard Time),608683.099999994,2000,O,m,1053,2,1,3082.5,605600.599999994,7748,NTS,C,11
4,12,test,2,C,triangle.png,1,m,Wed Feb 25 2026 09:37:57 GMT-0600 (Central Standard Time),611178.599999994,1500,O,m,972,12,1,2491.7999999970198,608686.799999997,7748,NTS,C,12
9,13,test,2,C,triangle.png,1,z,Wed Feb 25 2026 09:37:57 GMT-0600 (Central Standard Time),613661.700000003,1400,O,z,1059,16,1,2479.0,611182.700000003,7748,NTS,C,13
1,14,test,2,C,triangle.png,1,z,Wed Feb 25 2026 09:37:57 GMT-0600 (Central Standard Time),616744.599999994,1900,O,z,1166,17,1,3079.5999999940395,613665.0,7748,NTS,C,14
6,15,test,2,C,circle.png,1,m,Wed Feb 25 2026 09:37:57 GMT-0600 (Central Standard Time),619393.099999994,1900,O,m,716,5,1,2644.0999999940395,616749.0,7748,NTS,C,15
1,16,test,2,C,circle.png,1,z,Wed Feb 25 2026 09:37:57 GMT-0600 (Central Standard Time),621293.3999999911,1000,O,z,870,1,1,1895.5999999940395,619397.799999997,7748,NTS,C,16
3,17,test,2,C,triangle.png,1,z,Wed Feb 25 2026 09:37:57 GMT-0600 (Central Standard Time),623558.299999997,1200,O,z,1043,3,1,2257.2000000029802,621301.099999994,7748,NTS,C,17
6,18,test,2,C,triangle.png,1,m,Wed Feb 25 2026 09:37:57 GMT-0600 (Central Standard Time),625524.3999999911,1000,O,m,945,13,1,1960.5999999940395,623563.799999997,7748,NTS,C,18
7,18,test,2,C,triangle.png,0,z,Wed Feb 25 2026 09:37:57 GMT-0600 (Central Standard Time),628407.099999994,1700,O,m,1151,6,1,2875.0999999940395,625532.0,7748,NTS,C,19
4,19,test,2,C,triangle.png,1,m,Wed Feb 25 2026 09:37:57 GMT-0600 (Central Standard Time),631174.3999999911,1500,O,m,1244,20,1,2760.8999999910593,628413.5,7748,NTS,C,20
6,20,test,2,C,triangle.png,1,m,Wed Feb 25 2026 09:37:57 GMT-0600 (Central Standard Time),632871.700000003,1000,O,m,674,21,1,1694.6000000089407,631177.099999994,7748,NTS,C,21
9,21,test,2,C,circle.png,1,m,Wed Feb 25 2026 09:37:57 GMT-0600 (Central Standard Time),635270.8999999911,1500,O,m,867,8,1,2393.5,632877.3999999911,7748,NTS,C,22
2,22,test,2,C,circle.png,1,z,Wed Feb 25 2026 09:37:57 GMT-0600 (Central Standard Time),637871.099999994,1700,O,z,868,10,1,2595.2999999970198,635275.799999997,7748,NTS,C,23
7,23,test,2,C,circle.png,1,m,Wed Feb 25 2026 09:37:57 GMT-0600 (Central Standard Time),640701.799999997,2000,O,m,809,22,1,2822.4000000059605,637879.3999999911,7748,NTS,C,24
6,1,test,3,C,circle.png,1,m,Wed Feb 25 2026 09:37:57 GMT-0600 (Central Standard Time),652697.700000003,1900,O,m,1286,21,1,3212.0,649485.700000003,7748,NTS,C,1
3,2,test,3,C,triangle.png,1,z,Wed Feb 25 2026 09:37:57 GMT-0600 (Central Standard Time),654948.0,1200,O,z,1022,19,1,2247.6000000089407,652700.3999999911,7748,NTS,C,2
3,3,test,3,C,triangle.png,1,z,Wed Feb 25 2026 09:37:57 GMT-0600 (Central Standard Time),657530.700000003,1200,O,z,1364,3,1,2579.2000000029802,654951.5,7748,NTS,C,3
8,4,test,3,C,circle.png,1,m,Wed Feb 25 2026 09:37:57 GMT-0600 (Central Standard Time),659363.700000003,1200,O,m,613,15,1,1827.1000000089407,657536.599999994,7748,NTS,C,4
7,5,test,3,C,triangle.png,1,z,Wed Feb 25 2026 09:37:57 GMT-0600 (Central Standard Time),662180.0,1700,O,z,1087,22,1,2811.7999999970198,659368.200000003,7748,NTS,C,5
3,6,test,3,C,circle.png,1,z,Wed Feb 25 2026 09:37:57 GMT-0600 (Central Standard Time),664629.299999997,1600,O,z,817,11,1,2443.7000000029802,662185.599999994,7748,NTS,C,6
4,7,test,3,C,circle.png,1,z,Wed Feb 25 2026 09:37:57 GMT-0600 (Central Standard Time),666929.3999999911,1400,O,z,865,4,1,2295.0999999940395,664634.299999997,7748,NTS,C,7
2,8,test,3,C,circle.png,1,z,Wed Feb 25 2026 09:37:57 GMT-0600 (Central Standard Time),669276.0,1700,O,z,627,10,1,2342.4000000059605,666933.599999994,7748,NTS,C,8
7,9,test,3,C,circle.png,1,m,Wed Feb 25 2026 09:37:57 GMT-0600 (Central Standard Time),672027.200000003,2000,O,m,718,14,1,2748.6000000089407,669278.599999994,7748,NTS,C,9
1,10,test,3,C,triangle.png,1,z,Wed Feb 25 2026 09:37:57 GMT-0600 (Central Standard Time),674891.099999994,1900,O,z,944,9,1,2859.0,672032.099999994,7748,NTS,C,10
1,11,test,3,C,circle.png,1,z,Wed Feb 25 2026 09:37:57 GMT-0600 (Central Standard Time),676642.700000003,1000,O,z,731,1,1,1748.300000011921,674894.3999999911,7748,NTS,C,11
9,12,test,3,C,triangle.png,1,z,Wed Feb 25 2026 09:37:57 GMT-0600 (Central Standard Time),679458.3999999911,1400,O,z,1399,16,1,2811.0999999940395,676647.299999997,7748,NTS,C,12
9,13,test,3,C,circle.png,1,m,Wed Feb 25 2026 09:37:57 GMT-0600 (Central Standard Time),681806.8999999911,1500,O,m,817,24,1,2344.2999999970198,679462.599999994,7748,NTS,C,13
4,14,test,3,C,triangle.png,1,m,Wed Feb 25 2026 09:37:57 GMT-0600 (Central Standard Time),684273.5,1500,O,m,942,12,1,2462.2000000029802,681811.299999997,7748,NTS,C,14
6,15,test,3,C,circle.png,1,m,Wed Feb 25 2026 09:37:57 GMT-0600 (Central Standard Time),687073.0,1900,O,m,867,5,1,2796.7000000029802,684276.299999997,7748,NTS,C,15
2,16,test,3,C,triangle.png,1,m,Wed Feb 25 2026 09:37:57 GMT-0600 (Central Standard Time),690153.799999997,2000,O,m,1055,2,1,3077.0999999940395,687076.700000003,7748,NTS,C,16
8,17,test,3,C,triangle.png,1,m,Wed Feb 25 2026 09:37:57 GMT-0600 (Central Standard Time),692690.0,1600,O,m,920,7,1,2532.7000000029802,690157.299999997,7748,NTS,C,17
6,18,test,3,C,triangle.png,1,m,Wed Feb 25 2026 09:37:57 GMT-0600 (Central Standard Time),694469.599999994,1000,O,m,753,13,1,1776.0999999940395,692693.5,7748,NTS,C,18
7,19,test,3,C,triangle.png,1,z,Wed Feb 25 2026 09:37:57 GMT-0600 (Central Standard Time),697520.200000003,1700,O,z,1334,6,1,3045.9000000059605,694474.299999997,7748,NTS,C,19
2,20,test,3,C,triangle.png,1,m,Wed Feb 25 2026 09:37:57 GMT-0600 (Central Standard Time),700751.599999994,2000,O,m,1201,18,1,3228.5999999940395,697523.0,7748,NTS,C,20
4,21,test,3,C,circle.png,1,z,Wed Feb 25 2026 09:37:57 GMT-0600 (Central Standard Time),702999.700000003,1400,O,z,825,20,1,2243.800000011921,700755.8999999911,7748,NTS,C,21
1,22,test,3,C,circle.png,1,z,Wed Feb 25 2026 09:37:57 GMT-0600 (Central Standard Time),704965.5,1000,O,z,936,17,1,1962.9000000059605,703002.599999994,7748,NTS,C,22
9,23,test,3,C,circle.png,1,m,Wed Feb 25 2026 09:37:57 GMT-0600 (Central Standard Time),707165.799999997,1500,O,m,670,8,1,2195.7999999970198,704970.0,7748,NTS,C,23
8,24,test,3,C,triangle.png,1,m,Wed Feb 25 2026 09:37:57 GMT-0600 (Central Standard Time),709847.599999994,1600,O,m,1059,23,1,2676.8999999910593,707170.700000003,7748,NTS,C,24
8,0,test,4,C,circle.png,0,m,Wed Feb 25 2026 09:37:57 GMT-0600 (Central Standard Time),719078.299999997,1200,O,z,1426,15,1,2645.7000000029802,716432.599999994,7748,NTS,C,1
6,1,test,4,C,circle.png,1,m,Wed Feb 25 2026 09:37:57 GMT-0600 (Central Standard Time),721743.599999994,1900,O,m,743,21,1,2662.2000000029802,719081.3999999911,7748,NTS,C,2
7,2,test,4,C,triangle.png,1,z,Wed Feb 25 2026 09:37:57 GMT-0600 (Central Standard Time),724443.3999999911,1700,O,z,980,22,1,2696.8999999910593,721746.5,7748,NTS,C,3
1,3,test,4,C,circle.png,1,z,Wed Feb 25 2026 09:37:57 GMT-0600 (Central Standard Time),726675.8999999911,1000,O,z,1204,17,1,2225.2999999970198,724450.599999994,7748,NTS,C,4
6,4,test,4,C,circle.png,1,m,Wed Feb 25 2026 09:37:57 GMT-0600 (Central Standard Time),729442.099999994,1900,O,m,850,5,1,2762.2999999970198,726679.799999997,7748,NTS,C,5
8,5,test,4,C,triangle.png,1,m,Wed Feb 25 2026 09:37:57 GMT-0600 (Central Standard Time),732174.799999997,1600,O,m,1109,7,1,2728.5999999940395,729446.200000003,7748,NTS,C,6
2,6,test,4,C,triangle.png,1,m,Wed Feb 25 2026 09:37:57 GMT-0600 (Central Standard Time),735424.200000003,2000,O,m,1225,2,1,3245.1000000089407,732179.099999994,7748,NTS,C,7
8,7,test,4,C,triangle.png,1,m,Wed Feb 25 2026 09:37:57 GMT-0600 (Central Standard Time),738071.5,1600,O,m,1024,23,1,2643.2999999970198,735428.200000003,7748,NTS,C,8
7,8,test,4,C,circle.png,1,m,Wed Feb 25 2026 09:37:57 GMT-0600 (Central Standard Time),740787.799999997,2000,O,m,696,14,1,2710.7000000029802,738077.099999994,7748,NTS,C,9
9,9,test,4,C,circle.png,1,m,Wed Feb 25 2026 09:37:57 GMT-0600 (Central Standard Time),742937.200000003,1500,O,m,623,8,1,2143.6000000089407,740793.599999994,7748,NTS,C,10
1,10,test,4,C,triangle.png,1,z,Wed Feb 25 2026 09:37:57 GMT-0600 (Central Standard Time),745719.3999999911,1900,O,z,851,9,1,2776.0,742943.3999999911,7748,NTS,C,11
3,11,test,4,C,triangle.png,1,z,Wed Feb 25 2026 09:37:57 GMT-0600 (Central Standard Time),748068.700000003,1200,O,z,1120,19,1,2345.9000000059605,745722.799999997,7748,NTS,C,12
4,12,test,4,C,circle.png,1,z,Wed Feb 25 2026 09:37:57 GMT-0600 (Central Standard Time),750253.599999994,1400,O,z,756,20,1,2180.7000000029802,748072.8999999911,7748,NTS,C,13
9,13,test,4,C,circle.png,1,m,Wed Feb 25 2026 09:37:57 GMT-0600 (Central Standard Time),752467.3999999911,1500,O,m,689,24,1,2209.3999999910593,750258.0,7748,NTS,C,14
1,14,test,4,C,circle.png,1,z,Wed Feb 25 2026 09:37:57 GMT-0600 (Central Standard Time),754134.8999999911,1000,O,z,646,1,1,1660.0,752474.8999999911,7748,NTS,C,15
3,15,test,4,C,triangle.png,1,z,Wed Feb 25 2026 09:37:57 GMT-0600 (Central Standard Time),756332.5,1200,O,z,979,3,1,2192.2000000029802,754140.299999997,7748,NTS,C,16
9,16,test,4,C,triangle.png,1,z,Wed Feb 25 2026 09:37:57 GMT-0600 (Central Standard Time),758764.5,1400,O,z,1009,16,1,2427.0,756337.5,7748,NTS,C,17
2,16,test,4,C,triangle.png,0,m,Wed Feb 25 2026 09:37:57 GMT-0600 (Central Standard Time),762285.299999997,2000,O,None,1503,18,1,3513.0999999940395,758772.200000003,7748,NTS,C,18
4,17,test,4,C,triangle.png,1,m,Wed Feb 25 2026 09:37:57 GMT-0600 (Central Standard Time),764612.8999999911,1500,O,m,811,12,1,2322.3999999910593,762290.5,7748,NTS,C,19
2,18,test,4,C,circle.png,1,z,Wed Feb 25 2026 09:37:57 GMT-0600 (Central Standard Time),767063.5,1700,O,z,718,10,1,2446.6000000089407,764616.8999999911,7748,NTS,C,20
3,19,test,4,C,circle.png,1,z,Wed Feb 25 2026 09:37:57 GMT-0600 (Central Standard Time),769362.799999997,1600,O,z,672,11,1,2295.0,767067.799999997,7748,NTS,C,21
6,20,test,4,C,triangle.png,1,m,Wed Feb 25 2026 09:37:57 GMT-0600 (Central Standard Time),771178.299999997,1000,O,m,798,13,1,1810.5999999940395,769367.700000003,7748,NTS,C,22
4,21,test,4,C,circle.png,1,z,Wed Feb 25 2026 09:37:57 GMT-0600 (Central Standard Time),773295.599999994,1400,O,z,694,4,1,2112.3999999910593,771183.200000003,7748,NTS,C,23
7,22,test,4,C,triangle.png,1,z,Wed Feb 25 2026 09:37:57 GMT-0600 (Central Standard Time),776076.700000003,1700,O,z,1054,6,1,2777.5,773299.200000003,7748,NTS,C,24
