acc_sum,block_c,block_dur,condition,correct,correct_response,countdown,datetime,endtime,project,response,response_time,response_time_test1_response,response_time_test2_response,row_sel,same,session_number,start_end,starttime,stim1,stim2,subject_id,task,task_vers,time_test1,time_test2,trial
1,1,0.0,prac,1,z,30000.0,Tue Aug 13 2024 14:55:16 GMT-0500 (Central Daylight Time),42175.39999999851,O,z,1911,,,5,yes,1,3428.7999999970198,38746.60000000149,practrial5.png,practrial5.png,7015,PC,B,,,1
2,1,0.0,prac,1,m,30000.0,Tue Aug 13 2024 14:55:16 GMT-0500 (Central Daylight Time),45141.10000000149,O,m,1429,,,4,no,1,2961.3000000044703,42179.79999999702,practrial4.png,practrial4b.png,7015,PC,B,,,2
3,1,0.0,prac,1,z,30000.0,Tue Aug 13 2024 14:55:16 GMT-0500 (Central Daylight Time),48673.5,O,z,2001,,,3,yes,1,3528.8000000044703,45144.69999999553,practrial3.png,practrial3.png,7015,PC,B,,,3
3,1,0.0,prac,0,m,30000.0,Tue Aug 13 2024 14:55:16 GMT-0500 (Central Daylight Time),52455.5,O,z,2260,,,6,no,1,3778.39999999851,48677.10000000149,practrial6.png,practrial6b.png,7015,PC,B,,,4
4,1,0.0,prac,1,m,30000.0,Tue Aug 13 2024 14:55:16 GMT-0500 (Central Daylight Time),55388.10000000149,O,m,1406,,,2,no,1,2928.5,52459.60000000149,practrial2.png,practrial2b.png,7015,PC,B,,,5
5,1,0.0,prac,1,z,30000.0,Tue Aug 13 2024 14:55:16 GMT-0500 (Central Daylight Time),58920.10000000149,O,z,2002,,,1,yes,1,3528.4000000059605,55391.69999999553,practrial1.png,practrial1.png,7015,PC,B,,,6
1,1,1.25,test,1,z,28750.0,Tue Aug 13 2024 14:55:16 GMT-0500 (Central Daylight Time),73665.69999999553,O,z,1237,1237,,1,yes,1,1245.3999999985099,72420.29999999702,test1trial1.png,test1trial1.png,7015,PC,B,70704,,1
2,1,2.1660001277923584,test,1,m,27833.99987220764,Tue Aug 13 2024 14:55:16 GMT-0500 (Central Daylight Time),74582.10000000149,O,m,908,908,,2,no,1,913.3000000044703,73668.79999999702,test1trial2.png,test1trial2b.png,7015,PC,B,71952,,2
3,1,3.515000104904175,test,1,z,26484.999895095825,Tue Aug 13 2024 14:55:16 GMT-0500 (Central Daylight Time),75931.19999999553,O,z,1344,1344,,3,yes,1,1346.2999999970198,74584.89999999851,test1trial3.png,test1trial3.png,7015,PC,B,72868,,3
4,1,4.515000104904175,test,1,m,25484.999895095825,Tue Aug 13 2024 14:55:16 GMT-0500 (Central Daylight Time),76930.89999999851,O,m,996,996,,4,no,1,997.2000000029802,75933.69999999553,test1trial4.png,test1trial4b.png,7015,PC,B,74217,,4
5,1,5.998000144958496,test,1,z,24001.999855041504,Tue Aug 13 2024 14:55:16 GMT-0500 (Central Daylight Time),78414.10000000149,O,z,1468,1468,,5,yes,1,1480.8000000044703,76933.29999999702,test1trial5.png,test1trial5.png,7015,PC,B,75217,,5
6,1,6.898000001907349,test,1,m,23101.99999809265,Tue Aug 13 2024 14:55:16 GMT-0500 (Central Daylight Time),79314.0,O,m,881,881,,6,no,1,897.3000000044703,78416.69999999553,test1trial6.png,test1trial6b.png,7015,PC,B,76700,,6
7,1,8.19700002670288,test,1,z,21802.99997329712,Tue Aug 13 2024 14:55:16 GMT-0500 (Central Daylight Time),80613.29999999702,O,z,1285,1285,,7,yes,1,1296.6000000014901,79316.69999999553,test1trial7.png,test1trial7.png,7015,PC,B,77600,,7
8,1,9.44700002670288,test,1,m,20552.99997329712,Tue Aug 13 2024 14:55:16 GMT-0500 (Central Daylight Time),81862.79999999702,O,m,1241,1241,,8,no,1,1246.6999999955297,80616.10000000149,test1trial8.png,test1trial8b.png,7015,PC,B,78900,,8
9,1,10.730000019073486,test,1,z,19269.999980926514,Tue Aug 13 2024 14:55:16 GMT-0500 (Central Daylight Time),83145.89999999851,O,z,1272,1272,,9,yes,1,1280.3999999985099,81865.5,test1trial9.png,test1trial9.png,7015,PC,B,80149,,9
10,1,11.67900013923645,test,1,m,18320.99986076355,Tue Aug 13 2024 14:55:16 GMT-0500 (Central Daylight Time),84095.5,O,m,933,933,,10,no,1,946.8999999985099,83148.60000000149,test1trial10.png,test1trial10b.png,7015,PC,B,81432,,10
10,1,13.662000179290771,test,0,z,16337.999820709229,Tue Aug 13 2024 14:55:16 GMT-0500 (Central Daylight Time),86078.29999999702,O,m,1975,1975,,11,yes,1,1979.8999999985099,84098.39999999851,test1trial11.png,test1trial11.png,7015,PC,B,82382,,11
11,1,15.945000171661377,test,1,m,14054.999828338623,Tue Aug 13 2024 14:55:16 GMT-0500 (Central Daylight Time),88360.89999999851,O,m,2272,2272,,12,no,1,2279.7999999970198,86081.10000000149,test1trial12.png,test1trial12b.png,7015,PC,B,84365,,12
12,1,17.028000116348267,test,1,m,12971.999883651733,Tue Aug 13 2024 14:55:16 GMT-0500 (Central Daylight Time),89444.0,O,m,1070,1070,,13,no,1,1080.3000000044703,88363.69999999553,test1trial13.png,test1trial13b.png,7015,PC,B,86647,,13
13,1,18.194000005722046,test,1,m,11805.999994277954,Tue Aug 13 2024 14:55:16 GMT-0500 (Central Daylight Time),90610.19999999553,O,m,1162,1162,,14,no,1,1163.2999999970198,89446.89999999851,test1trial14.png,test1trial14b.png,7015,PC,B,87731,,14
14,1,19.24399995803833,test,1,z,10756.00004196167,Tue Aug 13 2024 14:55:16 GMT-0500 (Central Daylight Time),91660.10000000149,O,z,1036,1036,,15,yes,1,1046.9000000059605,90613.19999999553,test1trial15.png,test1trial15.png,7015,PC,B,88897,,15
15,1,20.493000030517578,test,1,m,9506.999969482422,Tue Aug 13 2024 14:55:16 GMT-0500 (Central Daylight Time),92909.5,O,m,1243,1243,,16,no,1,1246.8999999985099,91662.60000000149,test1trial16.png,test1trial16b.png,7015,PC,B,89946,,16
16,1,21.9760000705719,test,1,z,8023.999929428101,Tue Aug 13 2024 14:55:16 GMT-0500 (Central Daylight Time),94392.29999999702,O,z,1473,1473,,17,yes,1,1480.1000000014901,92912.19999999553,test1trial17.png,test1trial17.png,7015,PC,B,91196,,17
17,1,23.092000007629395,test,1,m,6907.9999923706055,Tue Aug 13 2024 14:55:16 GMT-0500 (Central Daylight Time),95508.60000000149,O,m,1110,1110,,18,no,1,1113.5,94395.10000000149,test1trial18.png,test1trial18b.png,7015,PC,B,92679,,18
18,1,24.79200005531311,test,1,m,5207.99994468689,Tue Aug 13 2024 14:55:16 GMT-0500 (Central Daylight Time),97208.19999999553,O,m,1682,1682,,19,no,1,1696.8999999985099,95511.29999999702,test1trial19.png,test1trial19b.png,7015,PC,B,93795,,19
19,1,26.324000120162964,test,1,z,3675.999879837036,Tue Aug 13 2024 14:55:16 GMT-0500 (Central Daylight Time),98740.60000000149,O,z,1527,1527,,20,yes,1,1529.8000000044703,97210.79999999702,test1trial20.png,test1trial20.png,7015,PC,B,95494,,20
20,1,28.824000120162964,test,1,z,1175.9998798370361,Tue Aug 13 2024 14:55:16 GMT-0500 (Central Daylight Time),101240.0,O,z,2481,2481,,21,yes,1,2495.60000000149,98744.39999999851,test1trial21.png,test1trial21.png,7015,PC,B,97028,,21
20,1,30.006999969482422,test,0,z,-6.999969482421875,Tue Aug 13 2024 14:55:16 GMT-0500 (Central Daylight Time),102423.69999999553,O,None,1179,1179,,22,yes,1,1180.7999999970198,101242.89999999851,test1trial22.png,test1trial22.png,7015,PC,B,99527,,22
1,2,1.2109999656677246,test,1,m,28789.000034332275,Tue Aug 13 2024 14:55:16 GMT-0500 (Central Daylight Time),108866.60000000149,O,m,1062,,1062.0,1,no,1,7623.70000000298,101242.89999999851,test2trial1.png,test2trial1b.png,7015,PC,B,,105941.0,1
2,2,2.7990000247955322,test,1,m,27200.999975204468,Tue Aug 13 2024 14:55:16 GMT-0500 (Central Daylight Time),110454.10000000149,O,m,1571,,1571.0,2,no,1,9211.20000000298,101242.89999999851,test2trial2.png,test2trial2b.png,7015,PC,B,,107154.0,2
3,2,4.331000089645386,test,1,z,25668.999910354614,Tue Aug 13 2024 14:55:16 GMT-0500 (Central Daylight Time),111986.60000000149,O,z,1529,,1529.0,3,yes,1,10743.70000000298,101242.89999999851,test2trial3.png,test2trial3.png,7015,PC,B,,108740.0,3
4,2,5.29800009727478,test,1,z,24701.99990272522,Tue Aug 13 2024 14:55:16 GMT-0500 (Central Daylight Time),112953.39999999851,O,z,956,,956.0,4,yes,1,11710.5,101242.89999999851,test2trial4.png,test2trial4.png,7015,PC,B,,110273.0,4
5,2,6.930999994277954,test,1,z,23069.000005722046,Tue Aug 13 2024 14:55:16 GMT-0500 (Central Daylight Time),114585.79999999702,O,z,1614,,1614.0,5,yes,1,13342.89999999851,101242.89999999851,test2trial5.png,test2trial5.png,7015,PC,B,,111239.0,5
6,2,8.147000074386597,test,1,z,21852.999925613403,Tue Aug 13 2024 14:55:16 GMT-0500 (Central Daylight Time),115802.29999999702,O,z,1205,,1205.0,6,yes,1,14559.39999999851,101242.89999999851,test2trial6.png,test2trial6.png,7015,PC,B,,112872.0,6
7,2,9.263000011444092,test,1,m,20736.99998855591,Tue Aug 13 2024 14:55:16 GMT-0500 (Central Daylight Time),116918.60000000149,O,m,1108,,1108.0,7,no,1,15675.70000000298,101242.89999999851,test2trial7.png,test2trial7b.png,7015,PC,B,,114088.0,7
8,2,10.461999893188477,test,1,m,19538.000106811523,Tue Aug 13 2024 14:55:16 GMT-0500 (Central Daylight Time),118118.29999999702,O,m,1184,,1184.0,8,no,1,16875.39999999851,101242.89999999851,test2trial8.png,test2trial8b.png,7015,PC,B,,115205.0,8
9,2,11.928999900817871,test,1,z,18071.00009918213,Tue Aug 13 2024 14:55:16 GMT-0500 (Central Daylight Time),119584.60000000149,O,z,1457,,1457.0,9,yes,1,18341.70000000298,101242.89999999851,test2trial9.png,test2trial9.png,7015,PC,B,,116404.0,9
10,2,12.977999925613403,test,1,z,17022.000074386597,Tue Aug 13 2024 14:55:16 GMT-0500 (Central Daylight Time),120634.39999999851,O,z,1030,,1030.0,10,yes,1,19391.5,101242.89999999851,test2trial10.png,test2trial10.png,7015,PC,B,,117871.0,10
11,2,14.260999917984009,test,1,m,15739.000082015991,Tue Aug 13 2024 14:55:16 GMT-0500 (Central Daylight Time),121917.0,O,m,1268,,1268.0,11,no,1,20674.10000000149,101242.89999999851,test2trial11.png,test2trial11b.png,7015,PC,B,,118921.0,11
12,2,16.177000045776367,test,1,m,13822.999954223633,Tue Aug 13 2024 14:55:16 GMT-0500 (Central Daylight Time),123833.10000000149,O,m,1905,,1905.0,12,no,1,22590.20000000298,101242.89999999851,test2trial12.png,test2trial12b.png,7015,PC,B,,120204.0,12
13,2,17.342999935150146,test,1,z,12657.000064849854,Tue Aug 13 2024 14:55:16 GMT-0500 (Central Daylight Time),124999.39999999851,O,z,1158,,1158.0,13,yes,1,23756.5,101242.89999999851,test2trial13.png,test2trial13.png,7015,PC,B,,122119.0,13
14,2,18.64299988746643,test,1,m,11357.00011253357,Tue Aug 13 2024 14:55:16 GMT-0500 (Central Daylight Time),126299.29999999702,O,m,1287,,1287.0,14,no,1,25056.39999999851,101242.89999999851,test2trial14.png,test2trial14b.png,7015,PC,B,,123286.0,14
15,2,19.592999935150146,test,1,m,10407.000064849854,Tue Aug 13 2024 14:55:16 GMT-0500 (Central Daylight Time),127248.60000000149,O,m,932,,932.0,15,no,1,26005.70000000298,101242.89999999851,test2trial15.png,test2trial15b.png,7015,PC,B,,124585.0,15
15,2,20.675999879837036,test,0,m,9324.000120162964,Tue Aug 13 2024 14:55:16 GMT-0500 (Central Daylight Time),128331.79999999702,O,z,1070,,1070.0,16,no,1,27088.89999999851,101242.89999999851,test2trial16.png,test2trial16b.png,7015,PC,B,,125535.0,16
16,2,21.825000047683716,test,1,z,8174.999952316284,Tue Aug 13 2024 14:55:16 GMT-0500 (Central Daylight Time),129481.39999999851,O,z,1131,,1131.0,17,yes,1,28238.5,101242.89999999851,test2trial17.png,test2trial17.png,7015,PC,B,,126618.0,17
16,2,23.257999897003174,test,0,z,6742.000102996826,Tue Aug 13 2024 14:55:16 GMT-0500 (Central Daylight Time),130914.19999999553,O,m,1414,,1414.0,18,yes,1,29671.29999999702,101242.89999999851,test2trial18.png,test2trial18.png,7015,PC,B,,127767.0,18
17,2,24.819999933242798,test,1,z,5180.000066757202,Tue Aug 13 2024 14:55:16 GMT-0500 (Central Daylight Time),132475.8999999985,O,z,1541,,1541.0,19,yes,1,31233.0,101242.89999999851,test2trial19.png,test2trial19.png,7015,PC,B,,129200.0,19
18,2,25.740999937057495,test,1,z,4259.000062942505,Tue Aug 13 2024 14:55:16 GMT-0500 (Central Daylight Time),133396.8999999985,O,z,907,,907.0,20,yes,1,32154.0,101242.89999999851,test2trial20.png,test2trial20.png,7015,PC,B,,130762.0,20
19,2,27.289999961853027,test,1,z,2710.0000381469727,Tue Aug 13 2024 14:55:16 GMT-0500 (Central Daylight Time),134946.19999999553,O,z,1538,,1538.0,21,yes,1,33703.29999999702,101242.89999999851,test2trial21.png,test2trial21.png,7015,PC,B,,131683.0,21
20,2,28.67300009727478,test,1,m,1326.9999027252197,Tue Aug 13 2024 14:55:16 GMT-0500 (Central Daylight Time),136329.0,O,m,1373,,1373.0,22,no,1,35086.10000000149,101242.89999999851,test2trial22.png,test2trial22b.png,7015,PC,B,,133232.0,22
20,2,30.00600004196167,test,0,m,-6.000041961669922,Tue Aug 13 2024 14:55:16 GMT-0500 (Central Daylight Time),137662.3999999985,O,None,1330,,1330.0,23,no,1,36419.5,101242.89999999851,test2trial23.png,test2trial23b.png,7015,PC,B,,134615.0,23
