acc_sum,block,block_c,change,condition,correct,correct_response,datetime,endtime,face,project,response,response_time,row_sel,session_number,start_end,starttime,subject_id,task,task_vers,trial
0,prac,1,,1-Back,,,Fri Jun 05 2026 11:03:28 GMT-0400 (Eastern Daylight Time),,005_o_f_d_a.png,I,space,15864,1,3,,,9035,VNB,B,0
0,prac,1,0.0,1-Back,0.0,m,Fri Jun 05 2026 11:03:28 GMT-0400 (Eastern Daylight Time),145964.10000000894,020_y_f_n_a.png,I,z,974,2,3,1874.0,144090.10000000894,9035,VNB,B,1
1,prac,1,0.0,1-Back,1.0,m,Fri Jun 05 2026 11:03:28 GMT-0400 (Eastern Daylight Time),148380.70000000298,007_m_m_h_a.png,I,m,1472,3,3,2400.5999999940395,145980.10000000894,9035,VNB,B,2
2,prac,1,0.0,1-Back,1.0,m,Fri Jun 05 2026 11:03:28 GMT-0400 (Eastern Daylight Time),150497.29999999702,016_y_m_d_a.png,I,m,1195,4,3,2108.7999999970198,148388.5,9035,VNB,B,3
3,prac,1,0.0,1-Back,1.0,m,Fri Jun 05 2026 11:03:28 GMT-0400 (Eastern Daylight Time),152263.90000000596,005_o_f_n_a.png,I,m,847,5,3,1758.7999999970198,150505.10000000894,9035,VNB,B,4
4,prac,1,1.0,1-Back,1.0,z,Fri Jun 05 2026 11:03:28 GMT-0400 (Eastern Daylight Time),153913.79999999702,016_y_m_n_a.png,I,z,719,6,3,1640.8999999910593,152272.90000000596,9035,VNB,B,5
5,prac,1,0.0,1-Back,1.0,m,Fri Jun 05 2026 11:03:28 GMT-0400 (Eastern Daylight Time),155780.70000000298,004_o_m_h_a.png,I,m,956,7,3,1851.9000000059605,153928.79999999702,9035,VNB,B,6
6,prac,1,0.0,1-Back,1.0,m,Fri Jun 05 2026 11:03:28 GMT-0400 (Eastern Daylight Time),157497.29999999702,011_m_f_d_a.png,I,m,792,8,3,1704.5999999940395,155792.70000000298,9035,VNB,B,7
7,prac,1,1.0,1-Back,1.0,z,Fri Jun 05 2026 11:03:28 GMT-0400 (Eastern Daylight Time),159097.29999999702,020_y_f_d_a.png,I,z,692,9,3,1590.5999999940395,157506.70000000298,9035,VNB,B,8
8,prac,1,0.0,1-Back,1.0,m,Fri Jun 05 2026 11:03:28 GMT-0400 (Eastern Daylight Time),160780.60000000894,007_m_m_n_a.png,I,m,766,10,3,1672.9000000059605,159107.70000000298,9035,VNB,B,9
8,prac,1,0.0,1-Back,0.0,m,Fri Jun 05 2026 11:03:28 GMT-0400 (Eastern Daylight Time),162547.20000000298,005_o_f_h_a.png,I,z,831,11,3,1751.2000000029802,160796.0,9035,VNB,B,10
9,prac,1,0.0,1-Back,1.0,m,Fri Jun 05 2026 11:03:28 GMT-0400 (Eastern Daylight Time),164363.90000000596,016_y_m_d_a.png,I,m,883,12,3,1808.2999999970198,162555.60000000894,9035,VNB,B,11
0,test,1,0.0,1-Back,,,Fri Jun 05 2026 11:03:28 GMT-0400 (Eastern Daylight Time),164363.90000000596,020_y_f_d_a.png,I,space,11890,1,3,1808.2999999970198,162555.60000000894,9035,VNB,B,0
1,test,1,0.0,1-Back,1.0,m,Fri Jun 05 2026 11:03:28 GMT-0400 (Eastern Daylight Time),184797.29999999702,011_m_f_n_a.png,I,m,1301,2,3,2324.199999988079,182473.10000000894,9035,VNB,B,1
2,test,1,0.0,1-Back,1.0,m,Fri Jun 05 2026 11:03:28 GMT-0400 (Eastern Daylight Time),186580.5,004_o_m_h_a.png,I,m,759,3,3,1777.2999999970198,184803.20000000298,9035,VNB,B,2
3,test,1,1.0,1-Back,1.0,z,Fri Jun 05 2026 11:03:28 GMT-0400 (Eastern Daylight Time),188046.79999999702,007_m_m_h_a.png,I,z,448,4,3,1459.0999999940395,186587.70000000298,9035,VNB,B,3
4,test,1,0.0,1-Back,1.0,m,Fri Jun 05 2026 11:03:28 GMT-0400 (Eastern Daylight Time),189547.20000000298,005_o_f_n_a.png,I,m,470,5,3,1494.0999999940395,188053.10000000894,9035,VNB,B,4
5,test,1,0.0,1-Back,1.0,m,Fri Jun 05 2026 11:03:28 GMT-0400 (Eastern Daylight Time),191263.5,016_y_m_d_a.png,I,m,698,6,3,1709.0,189554.5,9035,VNB,B,5
6,test,1,1.0,1-Back,1.0,z,Fri Jun 05 2026 11:03:28 GMT-0400 (Eastern Daylight Time),192880.40000000596,011_m_f_d_a.png,I,z,597,7,3,1606.7999999970198,191273.60000000894,9035,VNB,B,6
7,test,1,0.0,1-Back,1.0,m,Fri Jun 05 2026 11:03:28 GMT-0400 (Eastern Daylight Time),194397.10000000894,020_y_f_h_a.png,I,m,483,8,3,1508.300000011921,192888.79999999702,9035,VNB,B,7
8,test,1,0.0,1-Back,1.0,m,Fri Jun 05 2026 11:03:28 GMT-0400 (Eastern Daylight Time),195930.40000000596,004_o_m_n_a.png,I,m,504,9,3,1527.1000000089407,194403.29999999702,9035,VNB,B,8
9,test,1,0.0,1-Back,1.0,m,Fri Jun 05 2026 11:03:28 GMT-0400 (Eastern Daylight Time),197663.60000000894,016_y_m_h_a.png,I,m,714,10,3,1724.6000000089407,195939.0,9035,VNB,B,9
10,test,1,0.0,1-Back,1.0,m,Fri Jun 05 2026 11:03:28 GMT-0400 (Eastern Daylight Time),199246.70000000298,004_o_m_d_a.png,I,m,565,11,3,1576.4000000059605,197670.29999999702,9035,VNB,B,10
11,test,1,1.0,1-Back,1.0,z,Fri Jun 05 2026 11:03:28 GMT-0400 (Eastern Daylight Time),200747.0,005_o_f_d_a.png,I,z,469,12,3,1493.0999999940395,199253.90000000596,9035,VNB,B,11
12,test,1,0.0,1-Back,1.0,m,Fri Jun 05 2026 11:03:28 GMT-0400 (Eastern Daylight Time),202347.0,007_m_m_n_a.png,I,m,570,13,3,1593.2999999970198,200753.70000000298,9035,VNB,B,12
13,test,1,1.0,1-Back,1.0,z,Fri Jun 05 2026 11:03:28 GMT-0400 (Eastern Daylight Time),203913.70000000298,020_y_f_n_a.png,I,z,538,14,3,1559.5,202354.20000000298,9035,VNB,B,13
14,test,1,0.0,1-Back,1.0,m,Fri Jun 05 2026 11:03:28 GMT-0400 (Eastern Daylight Time),205497.10000000894,011_m_f_h_a.png,I,m,555,15,3,1576.2000000029802,203920.90000000596,9035,VNB,B,14
15,test,1,0.0,1-Back,1.0,m,Fri Jun 05 2026 11:03:28 GMT-0400 (Eastern Daylight Time),206997.0,007_m_m_d_a.png,I,m,476,16,3,1493.0999999940395,205503.90000000596,9035,VNB,B,15
16,test,1,0.0,1-Back,1.0,m,Fri Jun 05 2026 11:03:28 GMT-0400 (Eastern Daylight Time),208663.5,016_y_m_n_a.png,I,m,640,17,3,1658.7999999970198,207004.70000000298,9035,VNB,B,16
17,test,1,0.0,1-Back,1.0,m,Fri Jun 05 2026 11:03:28 GMT-0400 (Eastern Daylight Time),210397.0,005_o_f_h_a.png,I,m,700,18,3,1727.2000000029802,208669.79999999702,9035,VNB,B,17
0,test,2,0.0,1-Back,,,Fri Jun 05 2026 11:03:28 GMT-0400 (Eastern Daylight Time),210397.0,016_y_m_n_a.png,I,space,1647,1,3,1727.2000000029802,208669.79999999702,9035,VNB,B,0
0,test,2,0.0,1-Back,0.0,m,Fri Jun 05 2026 11:03:28 GMT-0400 (Eastern Daylight Time),217097.29999999702,020_y_f_h_a.png,I,None,2016,2,3,3021.0999999940395,214076.20000000298,9035,VNB,B,1
1,test,2,1.0,1-Back,1.0,m,Fri Jun 05 2026 11:03:28 GMT-0400 (Eastern Daylight Time),218896.90000000596,004_o_m_n_a.png,I,m,780,3,3,1793.6000000089407,217103.29999999702,9035,VNB,B,2
2,test,2,0.0,1-Back,1.0,m,Fri Jun 05 2026 11:03:28 GMT-0400 (Eastern Daylight Time),220730.29999999702,011_m_f_d_a.png,I,m,804,4,3,1825.8999999910593,218904.40000000596,9035,VNB,B,3
3,test,2,0.0,1-Back,1.0,z,Fri Jun 05 2026 11:03:28 GMT-0400 (Eastern Daylight Time),222347.0,007_m_m_d_a.png,I,z,586,5,3,1610.2000000029802,220736.79999999702,9035,VNB,B,4
4,test,2,0.0,1-Back,1.0,m,Fri Jun 05 2026 11:03:28 GMT-0400 (Eastern Daylight Time),224080.29999999702,016_y_m_h_a.png,I,m,713,6,3,1724.0,222356.29999999702,9035,VNB,B,5
5,test,2,1.0,1-Back,1.0,z,Fri Jun 05 2026 11:03:28 GMT-0400 (Eastern Daylight Time),225630.40000000596,005_o_f_h_a.png,I,z,532,7,3,1542.1000000089407,224088.29999999702,9035,VNB,B,6
6,test,2,0.0,1-Back,1.0,m,Fri Jun 05 2026 11:03:28 GMT-0400 (Eastern Daylight Time),227213.60000000894,011_m_f_n_a.png,I,m,550,8,3,1574.800000011921,225638.79999999702,9035,VNB,B,7
7,test,2,0.0,1-Back,1.0,m,Fri Jun 05 2026 11:03:28 GMT-0400 (Eastern Daylight Time),228863.40000000596,020_y_f_d_a.png,I,m,631,9,3,1642.7999999970198,227220.60000000894,9035,VNB,B,8
8,test,2,0.0,1-Back,1.0,m,Fri Jun 05 2026 11:03:28 GMT-0400 (Eastern Daylight Time),230547.0,007_m_m_n_a.png,I,m,661,10,3,1674.7999999970198,228872.20000000298,9035,VNB,B,9
9,test,2,1.0,1-Back,1.0,m,Fri Jun 05 2026 11:03:28 GMT-0400 (Eastern Daylight Time),232414.10000000894,011_m_f_h_a.png,I,m,850,11,3,1858.300000011921,230555.79999999702,9035,VNB,B,10
10,test,2,0.0,1-Back,1.0,z,Fri Jun 05 2026 11:03:28 GMT-0400 (Eastern Daylight Time),233930.29999999702,004_o_m_h_a.png,I,z,487,12,3,1509.199999988079,232421.10000000894,9035,VNB,B,11
11,test,2,0.0,1-Back,1.0,m,Fri Jun 05 2026 11:03:28 GMT-0400 (Eastern Daylight Time),235463.60000000894,016_y_m_d_a.png,I,m,506,13,3,1524.4000000059605,233939.20000000298,9035,VNB,B,12
12,test,2,0.0,1-Back,1.0,m,Fri Jun 05 2026 11:03:28 GMT-0400 (Eastern Daylight Time),237213.60000000894,005_o_f_n_a.png,I,m,717,14,3,1739.800000011921,235473.79999999702,9035,VNB,B,13
13,test,2,0.0,1-Back,1.0,z,Fri Jun 05 2026 11:03:28 GMT-0400 (Eastern Daylight Time),238730.40000000596,020_y_f_n_a.png,I,z,487,15,3,1509.7000000029802,237220.70000000298,9035,VNB,B,14
14,test,2,1.0,1-Back,1.0,m,Fri Jun 05 2026 11:03:28 GMT-0400 (Eastern Daylight Time),240297.0,007_m_m_h_a.png,I,m,538,16,3,1559.5,238737.5,9035,VNB,B,15
15,test,2,0.0,1-Back,1.0,m,Fri Jun 05 2026 11:03:28 GMT-0400 (Eastern Daylight Time),241797.0,005_o_f_d_a.png,I,m,476,17,3,1492.8999999910593,240304.10000000894,9035,VNB,B,16
16,test,2,1.0,1-Back,1.0,z,Fri Jun 05 2026 11:03:28 GMT-0400 (Eastern Daylight Time),243263.40000000596,004_o_m_d_a.png,I,z,448,18,3,1460.4000000059605,241803.0,9035,VNB,B,17
0,test,3,1.0,1-Back,,,Fri Jun 05 2026 11:03:28 GMT-0400 (Eastern Daylight Time),243263.40000000596,005_o_f_h_a.png,I,space,1326,1,3,1460.4000000059605,241803.0,9035,VNB,B,0
1,test,3,0.0,1-Back,1.0,m,Fri Jun 05 2026 11:03:28 GMT-0400 (Eastern Daylight Time),249413.60000000894,011_m_f_d_a.png,I,m,1642,2,3,2658.4000000059605,246755.20000000298,9035,VNB,B,1
2,test,3,1.0,1-Back,1.0,m,Fri Jun 05 2026 11:03:28 GMT-0400 (Eastern Daylight Time),251646.70000000298,007_m_m_n_a.png,I,m,1216,3,3,2224.9000000059605,249421.79999999702,9035,VNB,B,2
2,test,3,0.0,1-Back,0.0,z,Fri Jun 05 2026 11:03:28 GMT-0400 (Eastern Daylight Time),253463.60000000894,005_o_f_n_a.png,I,m,789,4,3,1811.2000000029802,251652.40000000596,9035,VNB,B,3
3,test,3,1.0,1-Back,1.0,m,Fri Jun 05 2026 11:03:28 GMT-0400 (Eastern Daylight Time),255097.0,004_o_m_d_a.png,I,m,605,5,3,1625.5,253471.5,9035,VNB,B,4
4,test,3,0.0,1-Back,1.0,m,Fri Jun 05 2026 11:03:28 GMT-0400 (Eastern Daylight Time),256913.60000000894,020_y_f_h_a.png,I,m,796,6,3,1810.4000000059605,255103.20000000298,9035,VNB,B,5
5,test,3,0.0,1-Back,1.0,z,Fri Jun 05 2026 11:03:28 GMT-0400 (Eastern Daylight Time),258380.29999999702,016_y_m_h_a.png,I,z,434,7,3,1459.199999988079,256921.10000000894,9035,VNB,B,6
6,test,3,0.0,1-Back,1.0,m,Fri Jun 05 2026 11:03:28 GMT-0400 (Eastern Daylight Time),259997.0,011_m_f_n_a.png,I,m,583,8,3,1609.2000000029802,258387.79999999702,9035,VNB,B,7
7,test,3,0.0,1-Back,1.0,m,Fri Jun 05 2026 11:03:28 GMT-0400 (Eastern Daylight Time),261513.70000000298,020_y_f_d_a.png,I,m,488,9,3,1508.7999999970198,260004.90000000596,9035,VNB,B,8
8,test,3,1.0,1-Back,1.0,m,Fri Jun 05 2026 11:03:28 GMT-0400 (Eastern Daylight Time),263163.60000000894,004_o_m_n_a.png,I,m,618,10,3,1644.1000000089407,261519.5,9035,VNB,B,9
9,test,3,0.0,1-Back,1.0,m,Fri Jun 05 2026 11:03:28 GMT-0400 (Eastern Daylight Time),264780.299999997,007_m_m_h_a.png,I,m,585,11,3,1609.0999999940395,263171.200000003,9035,VNB,B,10
10,test,3,0.0,1-Back,1.0,z,Fri Jun 05 2026 11:03:28 GMT-0400 (Eastern Daylight Time),266397.0,011_m_f_h_a.png,I,z,591,12,3,1609.3999999910593,264787.60000000894,9035,VNB,B,11
11,test,3,1.0,1-Back,1.0,m,Fri Jun 05 2026 11:03:28 GMT-0400 (Eastern Daylight Time),267863.60000000894,005_o_f_d_a.png,I,m,439,13,3,1459.800000011921,266403.799999997,9035,VNB,B,12
12,test,3,0.0,1-Back,1.0,z,Fri Jun 05 2026 11:03:28 GMT-0400 (Eastern Daylight Time),269330.200000003,007_m_m_d_a.png,I,z,444,14,3,1460.2999999970198,267869.90000000596,9035,VNB,B,13
13,test,3,0.0,1-Back,1.0,m,Fri Jun 05 2026 11:03:28 GMT-0400 (Eastern Daylight Time),270946.90000000596,016_y_m_n_a.png,I,m,594,15,3,1610.2000000029802,269336.700000003,9035,VNB,B,14
14,test,3,1.0,1-Back,1.0,m,Fri Jun 05 2026 11:03:28 GMT-0400 (Eastern Daylight Time),272496.799999997,004_o_m_h_a.png,I,m,529,16,3,1542.2999999970198,270954.5,9035,VNB,B,15
15,test,3,0.0,1-Back,1.0,m,Fri Jun 05 2026 11:03:28 GMT-0400 (Eastern Daylight Time),273980.200000003,016_y_m_d_a.png,I,m,451,17,3,1473.9000000059605,272506.299999997,9035,VNB,B,16
16,test,3,1.0,1-Back,1.0,m,Fri Jun 05 2026 11:03:28 GMT-0400 (Eastern Daylight Time),275715.10000000894,020_y_f_n_a.png,I,m,712,18,3,1727.2000000029802,273987.90000000596,9035,VNB,B,17
0,test,4,1.0,1-Back,,,Fri Jun 05 2026 11:03:28 GMT-0400 (Eastern Daylight Time),275715.10000000894,007_m_m_d_a.png,I,space,1209,1,3,1727.2000000029802,273987.90000000596,9035,VNB,B,0
1,test,4,0.0,1-Back,1.0,z,Fri Jun 05 2026 11:03:28 GMT-0400 (Eastern Daylight Time),280430.200000003,004_o_m_d_a.png,I,z,466,2,3,1473.5,278956.700000003,9035,VNB,B,1
2,test,4,0.0,1-Back,1.0,m,Fri Jun 05 2026 11:03:28 GMT-0400 (Eastern Daylight Time),282080.10000000894,016_y_m_h_a.png,I,m,631,3,3,1641.6000000089407,280438.5,9035,VNB,B,2
3,test,4,0.0,1-Back,1.0,m,Fri Jun 05 2026 11:03:28 GMT-0400 (Eastern Daylight Time),283530.200000003,011_m_f_n_a.png,I,m,419,4,3,1441.5999999940395,282088.60000000894,9035,VNB,B,3
4,test,4,1.0,1-Back,1.0,m,Fri Jun 05 2026 11:03:28 GMT-0400 (Eastern Daylight Time),285363.60000000894,005_o_f_h_a.png,I,m,809,5,3,1824.7000000029802,283538.90000000596,9035,VNB,B,4
5,test,4,0.0,1-Back,1.0,m,Fri Jun 05 2026 11:03:28 GMT-0400 (Eastern Daylight Time),286863.40000000596,007_m_m_n_a.png,I,m,481,6,3,1493.4000000059605,285370.0,9035,VNB,B,5
6,test,4,0.0,1-Back,1.0,m,Fri Jun 05 2026 11:03:28 GMT-0400 (Eastern Daylight Time),288430.299999997,016_y_m_d_a.png,I,m,533,7,3,1559.3999999910593,286870.90000000596,9035,VNB,B,6
7,test,4,1.0,1-Back,1.0,z,Fri Jun 05 2026 11:03:28 GMT-0400 (Eastern Daylight Time),290014.0,020_y_f_d_a.png,I,z,566,8,3,1576.7999999970198,288437.200000003,9035,VNB,B,7
8,test,4,0.0,1-Back,1.0,m,Fri Jun 05 2026 11:03:28 GMT-0400 (Eastern Daylight Time),291563.60000000894,011_m_f_h_a.png,I,m,519,9,3,1542.6000000089407,290021.0,9035,VNB,B,8
9,test,4,0.0,1-Back,1.0,z,Fri Jun 05 2026 11:03:28 GMT-0400 (Eastern Daylight Time),293013.60000000894,004_o_m_h_a.png,I,z,425,10,3,1443.1000000089407,291570.5,9035,VNB,B,9
10,test,4,1.0,1-Back,1.0,m,Fri Jun 05 2026 11:03:28 GMT-0400 (Eastern Daylight Time),294446.700000003,005_o_f_n_a.png,I,m,414,11,3,1426.2000000029802,293020.5,9035,VNB,B,10
11,test,4,0.0,1-Back,1.0,m,Fri Jun 05 2026 11:03:28 GMT-0400 (Eastern Daylight Time),295980.200000003,011_m_f_d_a.png,I,m,501,12,3,1528.0,294452.200000003,9035,VNB,B,11
11,test,4,0.0,1-Back,0.0,m,Fri Jun 05 2026 11:03:28 GMT-0400 (Eastern Daylight Time),297613.60000000894,020_y_f_n_a.png,I,z,600,13,3,1626.7000000029802,295986.90000000596,9035,VNB,B,12
12,test,4,0.0,1-Back,1.0,m,Fri Jun 05 2026 11:03:28 GMT-0400 (Eastern Daylight Time),299196.90000000596,005_o_f_d_a.png,I,m,550,14,3,1575.1000000089407,297621.799999997,9035,VNB,B,13
13,test,4,0.0,1-Back,1.0,m,Fri Jun 05 2026 11:03:28 GMT-0400 (Eastern Daylight Time),300763.5,020_y_f_h_a.png,I,m,535,15,3,1558.2000000029802,299205.299999997,9035,VNB,B,14
14,test,4,1.0,1-Back,1.0,z,Fri Jun 05 2026 11:03:28 GMT-0400 (Eastern Daylight Time),302413.799999997,007_m_m_h_a.png,I,z,632,16,3,1644.199999988079,300769.60000000894,9035,VNB,B,15
15,test,4,0.0,1-Back,1.0,m,Fri Jun 05 2026 11:03:28 GMT-0400 (Eastern Daylight Time),303880.200000003,004_o_m_n_a.png,I,m,439,17,3,1459.5999999940395,302420.60000000894,9035,VNB,B,16
16,test,4,1.0,1-Back,1.0,z,Fri Jun 05 2026 11:03:28 GMT-0400 (Eastern Daylight Time),305380.299999997,016_y_m_n_a.png,I,z,477,18,3,1493.199999988079,303887.10000000894,9035,VNB,B,17
0,test,5,1.0,1-Back,,,Fri Jun 05 2026 11:03:28 GMT-0400 (Eastern Daylight Time),305380.299999997,004_o_m_n_a.png,I,space,1224,1,3,1493.199999988079,303887.10000000894,9035,VNB,B,0
1,test,5,1.0,1-Back,1.0,m,Fri Jun 05 2026 11:03:28 GMT-0400 (Eastern Daylight Time),310363.299999997,005_o_f_h_a.png,I,m,702,2,3,1727.0,308636.299999997,9035,VNB,B,1
2,test,5,0.0,1-Back,1.0,m,Fri Jun 05 2026 11:03:28 GMT-0400 (Eastern Daylight Time),311897.0,016_y_m_d_a.png,I,m,504,3,3,1530.5,310366.5,9035,VNB,B,2
3,test,5,0.0,1-Back,1.0,z,Fri Jun 05 2026 11:03:28 GMT-0400 (Eastern Daylight Time),313380.299999997,004_o_m_d_a.png,I,z,460,4,3,1476.699999988079,311903.60000000894,9035,VNB,B,3
4,test,5,0.0,1-Back,1.0,m,Fri Jun 05 2026 11:03:28 GMT-0400 (Eastern Daylight Time),314814.0,011_m_f_h_a.png,I,m,415,5,3,1425.3999999910593,313388.60000000894,9035,VNB,B,4
5,test,5,0.0,1-Back,1.0,m,Fri Jun 05 2026 11:03:28 GMT-0400 (Eastern Daylight Time),316363.5,020_y_f_n_a.png,I,m,518,6,3,1540.7999999970198,314822.700000003,9035,VNB,B,5
6,test,5,1.0,1-Back,1.0,z,Fri Jun 05 2026 11:03:28 GMT-0400 (Eastern Daylight Time),317930.10000000894,005_o_f_n_a.png,I,z,536,7,3,1559.7000000029802,316370.40000000596,9035,VNB,B,6
7,test,5,0.0,1-Back,1.0,m,Fri Jun 05 2026 11:03:28 GMT-0400 (Eastern Daylight Time),319413.5,011_m_f_d_a.png,I,m,458,8,3,1476.7000000029802,317936.799999997,9035,VNB,B,7
8,test,5,0.0,1-Back,1.0,m,Fri Jun 05 2026 11:03:28 GMT-0400 (Eastern Daylight Time),321296.799999997,016_y_m_h_a.png,I,m,863,9,3,1876.3999999910593,319420.40000000596,9035,VNB,B,8
9,test,5,0.0,1-Back,1.0,m,Fri Jun 05 2026 11:03:28 GMT-0400 (Eastern Daylight Time),322813.799999997,020_y_f_d_a.png,I,m,499,10,3,1509.2999999970198,321304.5,9035,VNB,B,9
10,test,5,0.0,1-Back,1.0,m,Fri Jun 05 2026 11:03:28 GMT-0400 (Eastern Daylight Time),324396.90000000596,007_m_m_n_a.png,I,m,550,11,3,1576.0,322820.90000000596,9035,VNB,B,10
11,test,5,1.0,1-Back,1.0,z,Fri Jun 05 2026 11:03:28 GMT-0400 (Eastern Daylight Time),325996.799999997,011_m_f_n_a.png,I,z,567,12,3,1594.0,324402.799999997,9035,VNB,B,11
12,test,5,0.0,1-Back,1.0,m,Fri Jun 05 2026 11:03:28 GMT-0400 (Eastern Daylight Time),327513.60000000894,004_o_m_h_a.png,I,m,487,13,3,1508.300000011921,326005.299999997,9035,VNB,B,12
13,test,5,0.0,1-Back,1.0,z,Fri Jun 05 2026 11:03:28 GMT-0400 (Eastern Daylight Time),328930.200000003,007_m_m_h_a.png,I,z,394,14,3,1410.4000000059605,327519.799999997,9035,VNB,B,13
14,test,5,1.0,1-Back,1.0,m,Fri Jun 05 2026 11:03:28 GMT-0400 (Eastern Daylight Time),330380.200000003,005_o_f_d_a.png,I,m,417,15,3,1441.5,328938.700000003,9035,VNB,B,14
15,test,5,0.0,1-Back,1.0,m,Fri Jun 05 2026 11:03:28 GMT-0400 (Eastern Daylight Time),331846.799999997,016_y_m_n_a.png,I,m,441,16,3,1457.8999999910593,330388.90000000596,9035,VNB,B,15
16,test,5,0.0,1-Back,1.0,m,Fri Jun 05 2026 11:03:28 GMT-0400 (Eastern Daylight Time),333630.200000003,020_y_f_h_a.png,I,m,766,17,3,1776.4000000059605,331853.799999997,9035,VNB,B,16
17,test,5,0.0,1-Back,1.0,m,Fri Jun 05 2026 11:03:28 GMT-0400 (Eastern Daylight Time),335263.200000003,007_m_m_d_a.png,I,m,613,18,3,1627.2000000029802,333636.0,9035,VNB,B,17
0,prac,1,0.0,2-Back,,,Fri Jun 05 2026 11:03:28 GMT-0400 (Eastern Daylight Time),335263.200000003,011_m_f_n_a.png,I,space,13687,1,3,1627.2000000029802,333636.0,9035,VNB,B,0
0,prac,1,0.0,2-Back,,,Fri Jun 05 2026 11:03:28 GMT-0400 (Eastern Daylight Time),335263.200000003,005_o_f_h_a.png,I,space,13687,2,3,1627.2000000029802,333636.0,9035,VNB,B,0
1,prac,1,0.0,2-Back,1.0,m,Fri Jun 05 2026 11:03:28 GMT-0400 (Eastern Daylight Time),433663.10000000894,004_o_m_d_a.png,I,m,758,3,3,1640.9000000059605,432022.200000003,9035,VNB,B,1
2,prac,1,1.0,2-Back,1.0,z,Fri Jun 05 2026 11:03:28 GMT-0400 (Eastern Daylight Time),435380.10000000894,007_m_m_h_a.png,I,z,791,4,3,1711.1000000089407,433669.0,9035,VNB,B,2
3,prac,1,0.0,2-Back,1.0,m,Fri Jun 05 2026 11:03:28 GMT-0400 (Eastern Daylight Time),437013.5,020_y_f_n_a.png,I,m,729,5,3,1624.2000000029802,435389.299999997,9035,VNB,B,3
4,prac,1,1.0,2-Back,1.0,z,Fri Jun 05 2026 11:03:28 GMT-0400 (Eastern Daylight Time),438497.10000000894,004_o_m_h_a.png,I,z,696,6,3,1467.9000000059605,437029.200000003,9035,VNB,B,4
5,prac,1,1.0,2-Back,1.0,z,Fri Jun 05 2026 11:03:28 GMT-0400 (Eastern Daylight Time),440080.200000003,016_y_m_n_a.png,I,z,658,7,3,1573.0,438507.200000003,9035,VNB,B,5
6,prac,1,0.0,2-Back,1.0,m,Fri Jun 05 2026 11:03:28 GMT-0400 (Eastern Daylight Time),442013.5,011_m_f_d_a.png,I,m,1025,8,3,1924.7999999970198,440088.700000003,9035,VNB,B,6
7,prac,1,0.0,2-Back,1.0,m,Fri Jun 05 2026 11:03:28 GMT-0400 (Eastern Daylight Time),443713.5,005_o_f_d_a.png,I,m,788,9,3,1691.5,442022.0,9035,VNB,B,7
8,prac,1,0.0,2-Back,1.0,m,Fri Jun 05 2026 11:03:28 GMT-0400 (Eastern Daylight Time),445430.10000000894,007_m_m_h_a.png,I,m,929,10,3,1706.300000011921,443723.799999997,9035,VNB,B,8
9,prac,1,1.0,2-Back,1.0,z,Fri Jun 05 2026 11:03:28 GMT-0400 (Eastern Daylight Time),446830.10000000894,020_y_f_d_a.png,I,z,503,11,3,1392.300000011921,445437.799999997,9035,VNB,B,9
10,prac,1,0.0,2-Back,1.0,m,Fri Jun 05 2026 11:03:28 GMT-0400 (Eastern Daylight Time),448347.0,004_o_m_n_a.png,I,m,593,12,3,1502.5,446844.5,9035,VNB,B,10
0,test,1,0.0,2-Back,,,Fri Jun 05 2026 11:03:28 GMT-0400 (Eastern Daylight Time),448347.0,016_y_m_h_a.png,I,space,9749,1,3,1502.5,446844.5,9035,VNB,B,0
0,test,1,0.0,2-Back,,,Fri Jun 05 2026 11:03:28 GMT-0400 (Eastern Daylight Time),448347.0,005_o_f_n_a.png,I,space,9749,2,3,1502.5,446844.5,9035,VNB,B,0
1,test,1,0.0,2-Back,1.0,z,Fri Jun 05 2026 11:03:28 GMT-0400 (Eastern Daylight Time),470063.5,004_o_m_h_a.png,I,z,681,3,3,1694.2999999970198,468369.200000003,9035,VNB,B,1
2,test,1,0.0,2-Back,1.0,m,Fri Jun 05 2026 11:03:28 GMT-0400 (Eastern Daylight Time),471996.700000003,011_m_f_d_a.png,I,m,900,4,3,1924.7000000029802,470072.0,9035,VNB,B,2
2,test,1,1.0,2-Back,0.0,m,Fri Jun 05 2026 11:03:28 GMT-0400 (Eastern Daylight Time),474146.700000003,016_y_m_n_a.png,I,z,1127,5,3,2141.7000000029802,472005.0,9035,VNB,B,3
3,test,1,0.0,2-Back,1.0,z,Fri Jun 05 2026 11:03:28 GMT-0400 (Eastern Daylight Time),475913.200000003,020_y_f_d_a.png,I,z,737,6,3,1759.2000000029802,474154.0,9035,VNB,B,4
4,test,1,0.0,2-Back,1.0,m,Fri Jun 05 2026 11:03:28 GMT-0400 (Eastern Daylight Time),478113.40000000596,007_m_m_h_a.png,I,m,1179,7,3,2191.5,475921.90000000596,9035,VNB,B,5
5,test,1,1.0,2-Back,1.0,m,Fri Jun 05 2026 11:03:28 GMT-0400 (Eastern Daylight Time),480046.299999997,020_y_f_n_a.png,I,m,914,8,3,1926.2999999970198,478120.0,9035,VNB,B,6
6,test,1,0.0,2-Back,1.0,z,Fri Jun 05 2026 11:03:28 GMT-0400 (Eastern Daylight Time),481579.90000000596,005_o_f_h_a.png,I,z,501,9,3,1528.5,480051.40000000596,9035,VNB,B,7
7,test,1,0.0,2-Back,1.0,m,Fri Jun 05 2026 11:03:28 GMT-0400 (Eastern Daylight Time),483429.90000000596,004_o_m_d_a.png,I,m,824,10,3,1843.7999999970198,481586.10000000894,9035,VNB,B,8
8,test,1,1.0,2-Back,1.0,m,Fri Jun 05 2026 11:03:28 GMT-0400 (Eastern Daylight Time),485596.700000003,007_m_m_d_a.png,I,m,1135,11,3,2158.0,483438.700000003,9035,VNB,B,9
9,test,1,0.0,2-Back,1.0,m,Fri Jun 05 2026 11:03:28 GMT-0400 (Eastern Daylight Time),487696.5,011_m_f_n_a.png,I,m,1079,12,3,2090.7000000029802,485605.799999997,9035,VNB,B,10
10,test,1,0.0,2-Back,1.0,m,Fri Jun 05 2026 11:03:28 GMT-0400 (Eastern Daylight Time),489679.799999997,020_y_f_h_a.png,I,m,963,13,3,1976.3999999910593,487703.40000000596,9035,VNB,B,11
11,test,1,0.0,2-Back,1.0,z,Fri Jun 05 2026 11:03:28 GMT-0400 (Eastern Daylight Time),491146.5,007_m_m_n_a.png,I,z,436,14,3,1460.2000000029802,489686.299999997,9035,VNB,B,12
12,test,1,0.0,2-Back,1.0,m,Fri Jun 05 2026 11:03:28 GMT-0400 (Eastern Daylight Time),492863.10000000894,016_y_m_d_a.png,I,m,697,15,3,1710.1000000089407,491153.0,9035,VNB,B,13
12,test,1,1.0,2-Back,0.0,m,Fri Jun 05 2026 11:03:28 GMT-0400 (Eastern Daylight Time),494379.90000000596,011_m_f_h_a.png,I,z,484,16,3,1508.6000000089407,492871.299999997,9035,VNB,B,14
13,test,1,0.0,2-Back,1.0,z,Fri Jun 05 2026 11:03:28 GMT-0400 (Eastern Daylight Time),495930.0,005_o_f_d_a.png,I,z,521,17,3,1544.2000000029802,494385.799999997,9035,VNB,B,15
14,test,1,0.0,2-Back,1.0,m,Fri Jun 05 2026 11:03:28 GMT-0400 (Eastern Daylight Time),497913.299999997,004_o_m_n_a.png,I,m,954,18,3,1976.199999988079,495937.10000000894,9035,VNB,B,16
0,test,2,0.0,2-Back,,,Fri Jun 05 2026 11:03:28 GMT-0400 (Eastern Daylight Time),497913.299999997,007_m_m_h_a.png,I,space,1539,1,3,1976.199999988079,495937.10000000894,9035,VNB,B,0
0,test,2,0.0,2-Back,,,Fri Jun 05 2026 11:03:28 GMT-0400 (Eastern Daylight Time),497913.299999997,020_y_f_n_a.png,I,space,1539,2,3,1976.199999988079,495937.10000000894,9035,VNB,B,0
1,test,2,1.0,2-Back,1.0,z,Fri Jun 05 2026 11:03:28 GMT-0400 (Eastern Daylight Time),506213.299999997,005_o_f_h_a.png,I,z,425,3,3,1443.8999999910593,504769.40000000596,9035,VNB,B,1
2,test,2,0.0,2-Back,1.0,m,Fri Jun 05 2026 11:03:28 GMT-0400 (Eastern Daylight Time),507829.90000000596,004_o_m_d_a.png,I,m,591,4,3,1609.9000000059605,506220.0,9035,VNB,B,2
2,test,2,0.0,2-Back,0.0,m,Fri Jun 05 2026 11:03:28 GMT-0400 (Eastern Daylight Time),509913.299999997,011_m_f_d_a.png,I,z,1054,5,3,2077.0999999940395,507836.200000003,9035,VNB,B,3
3,test,2,0.0,2-Back,1.0,m,Fri Jun 05 2026 11:03:28 GMT-0400 (Eastern Daylight Time),511796.5,016_y_m_h_a.png,I,m,858,6,3,1876.2000000029802,509920.299999997,9035,VNB,B,4
3,test,2,0.0,2-Back,0.0,m,Fri Jun 05 2026 11:03:28 GMT-0400 (Eastern Daylight Time),513629.90000000596,005_o_f_n_a.png,I,z,815,7,3,1824.1000000089407,511805.799999997,9035,VNB,B,5
4,test,2,1.0,2-Back,1.0,z,Fri Jun 05 2026 11:03:28 GMT-0400 (Eastern Daylight Time),515063.200000003,004_o_m_h_a.png,I,z,406,8,3,1426.0999999940395,513637.10000000894,9035,VNB,B,6
5,test,2,0.0,2-Back,1.0,m,Fri Jun 05 2026 11:03:28 GMT-0400 (Eastern Daylight Time),516929.90000000596,020_y_f_d_a.png,I,m,844,9,3,1859.9000000059605,515070.0,9035,VNB,B,7
6,test,2,0.0,2-Back,1.0,m,Fri Jun 05 2026 11:03:28 GMT-0400 (Eastern Daylight Time),518796.60000000894,016_y_m_d_a.png,I,m,834,10,3,1859.9000000059605,516936.700000003,9035,VNB,B,8
7,test,2,0.0,2-Back,1.0,m,Fri Jun 05 2026 11:03:28 GMT-0400 (Eastern Daylight Time),521013.200000003,007_m_m_n_a.png,I,m,1191,11,3,2209.9000000059605,518803.299999997,9035,VNB,B,9
8,test,2,0.0,2-Back,1.0,m,Fri Jun 05 2026 11:03:28 GMT-0400 (Eastern Daylight Time),522663.200000003,011_m_f_h_a.png,I,m,622,12,3,1640.7999999970198,521022.40000000596,9035,VNB,B,10
9,test,2,1.0,2-Back,1.0,z,Fri Jun 05 2026 11:03:28 GMT-0400 (Eastern Daylight Time),524413.700000003,004_o_m_n_a.png,I,z,732,13,3,1743.5999999940395,522670.10000000894,9035,VNB,B,11
10,test,2,0.0,2-Back,1.0,m,Fri Jun 05 2026 11:03:28 GMT-0400 (Eastern Daylight Time),525979.900000006,005_o_f_d_a.png,I,m,534,14,3,1557.4000000059605,524422.5,9035,VNB,B,12
11,test,2,0.0,2-Back,1.0,m,Fri Jun 05 2026 11:03:28 GMT-0400 (Eastern Daylight Time),527996.5,020_y_f_h_a.png,I,m,984,15,3,2007.7000000029802,525988.799999997,9035,VNB,B,13
11,test,2,0.0,2-Back,0.0,z,Fri Jun 05 2026 11:03:28 GMT-0400 (Eastern Daylight Time),530029.299999997,007_m_m_d_a.png,I,m,1015,16,3,2025.5999999940395,528003.700000003,9035,VNB,B,14
11,test,2,0.0,2-Back,0.0,m,Fri Jun 05 2026 11:03:28 GMT-0400 (Eastern Daylight Time),531979.900000006,016_y_m_n_a.png,I,z,918,17,3,1947.5,530032.400000006,9035,VNB,B,15
12,test,2,1.0,2-Back,1.0,m,Fri Jun 05 2026 11:03:28 GMT-0400 (Eastern Daylight Time),534146.5,011_m_f_n_a.png,I,m,1144,18,3,2160.5999999940395,531985.900000006,9035,VNB,B,16
0,test,3,1.0,2-Back,,,Fri Jun 05 2026 11:03:28 GMT-0400 (Eastern Daylight Time),534146.5,004_o_m_n_a.png,I,space,4586,1,3,2160.5999999940395,531985.900000006,9035,VNB,B,0
0,test,3,1.0,2-Back,,,Fri Jun 05 2026 11:03:28 GMT-0400 (Eastern Daylight Time),534146.5,005_o_f_d_a.png,I,space,4586,2,3,2160.5999999940395,531985.900000006,9035,VNB,B,0
1,test,3,0.0,2-Back,1.0,m,Fri Jun 05 2026 11:03:28 GMT-0400 (Eastern Daylight Time),545530.700000003,020_y_f_h_a.png,I,m,703,3,3,1728.4000000059605,543802.299999997,9035,VNB,B,1
2,test,3,0.0,2-Back,1.0,z,Fri Jun 05 2026 11:03:28 GMT-0400 (Eastern Daylight Time),547196.6000000089,011_m_f_d_a.png,I,z,634,4,3,1662.7000000029802,545533.900000006,9035,VNB,B,2
3,test,3,1.0,2-Back,1.0,m,Fri Jun 05 2026 11:03:28 GMT-0400 (Eastern Daylight Time),548746.5,016_y_m_n_a.png,I,m,519,5,3,1542.7000000029802,547203.799999997,9035,VNB,B,3
3,test,3,0.0,2-Back,0.0,m,Fri Jun 05 2026 11:03:28 GMT-0400 (Eastern Daylight Time),550479.6000000089,004_o_m_h_a.png,I,z,714,6,3,1726.6000000089407,548753.0,9035,VNB,B,4
4,test,3,0.0,2-Back,1.0,z,Fri Jun 05 2026 11:03:28 GMT-0400 (Eastern Daylight Time),552030.1000000089,020_y_f_n_a.png,I,z,531,7,3,1543.300000011921,550486.799999997,9035,VNB,B,5
5,test,3,1.0,2-Back,1.0,m,Fri Jun 05 2026 11:03:28 GMT-0400 (Eastern Daylight Time),553629.900000006,007_m_m_d_a.png,I,m,567,8,3,1594.5,552035.400000006,9035,VNB,B,6
6,test,3,0.0,2-Back,1.0,m,Fri Jun 05 2026 11:03:28 GMT-0400 (Eastern Daylight Time),555229.700000003,016_y_m_d_a.png,I,m,582,9,3,1592.7000000029802,553637.0,9035,VNB,B,7
7,test,3,0.0,2-Back,1.0,m,Fri Jun 05 2026 11:03:28 GMT-0400 (Eastern Daylight Time),557179.900000006,005_o_f_h_a.png,I,m,918,10,3,1944.7000000029802,555235.200000003,9035,VNB,B,8
8,test,3,1.0,2-Back,1.0,m,Fri Jun 05 2026 11:03:28 GMT-0400 (Eastern Daylight Time),558829.900000006,011_m_f_n_a.png,I,m,632,11,3,1643.0,557186.900000006,9035,VNB,B,9
9,test,3,1.0,2-Back,1.0,z,Fri Jun 05 2026 11:03:28 GMT-0400 (Eastern Daylight Time),560279.799999997,007_m_m_h_a.png,I,z,422,12,3,1444.199999988079,558835.6000000089,9035,VNB,B,10
10,test,3,0.0,2-Back,1.0,m,Fri Jun 05 2026 11:03:28 GMT-0400 (Eastern Daylight Time),561896.5,020_y_f_d_a.png,I,m,589,13,3,1608.0,560288.5,9035,VNB,B,11
10,test,3,0.0,2-Back,0.0,m,Fri Jun 05 2026 11:03:28 GMT-0400 (Eastern Daylight Time),563813.1000000089,005_o_f_n_a.png,I,z,891,14,3,1910.5,561902.6000000089,9035,VNB,B,12
11,test,3,0.0,2-Back,1.0,z,Fri Jun 05 2026 11:03:28 GMT-0400 (Eastern Daylight Time),565479.799999997,004_o_m_d_a.png,I,z,638,15,3,1659.699999988079,563820.1000000089,9035,VNB,B,13
12,test,3,1.0,2-Back,1.0,m,Fri Jun 05 2026 11:03:28 GMT-0400 (Eastern Daylight Time),567129.900000006,011_m_f_h_a.png,I,m,620,16,3,1643.0,565486.900000006,9035,VNB,B,14
13,test,3,0.0,2-Back,1.0,m,Fri Jun 05 2026 11:03:28 GMT-0400 (Eastern Daylight Time),568846.299999997,007_m_m_n_a.png,I,m,698,17,3,1710.7999999970198,567135.5,9035,VNB,B,15
14,test,3,0.0,2-Back,1.0,z,Fri Jun 05 2026 11:03:28 GMT-0400 (Eastern Daylight Time),570296.400000006,016_y_m_h_a.png,I,z,421,18,3,1443.4000000059605,568853.0,9035,VNB,B,16
0,test,4,0.0,2-Back,,,Fri Jun 05 2026 11:03:28 GMT-0400 (Eastern Daylight Time),570296.400000006,011_m_f_n_a.png,I,space,1252,1,3,1443.4000000059605,568853.0,9035,VNB,B,0
0,test,4,0.0,2-Back,,,Fri Jun 05 2026 11:03:28 GMT-0400 (Eastern Daylight Time),570296.400000006,004_o_m_n_a.png,I,space,1252,2,3,1443.4000000059605,568853.0,9035,VNB,B,0
1,test,4,1.0,2-Back,1.0,m,Fri Jun 05 2026 11:03:28 GMT-0400 (Eastern Daylight Time),578746.1000000089,016_y_m_h_a.png,I,m,819,3,3,1835.9000000059605,576910.200000003,9035,VNB,B,1
2,test,4,1.0,2-Back,1.0,m,Fri Jun 05 2026 11:03:28 GMT-0400 (Eastern Daylight Time),580713.200000003,005_o_f_d_a.png,I,m,937,4,3,1963.5,578749.700000003,9035,VNB,B,2
3,test,4,0.0,2-Back,1.0,z,Fri Jun 05 2026 11:03:28 GMT-0400 (Eastern Daylight Time),582413.0,004_o_m_h_a.png,I,z,667,5,3,1692.7999999970198,580720.200000003,9035,VNB,B,3
4,test,4,0.0,2-Back,1.0,m,Fri Jun 05 2026 11:03:28 GMT-0400 (Eastern Daylight Time),584096.400000006,007_m_m_n_a.png,I,m,662,6,3,1677.2999999970198,582419.1000000089,9035,VNB,B,4
5,test,4,0.0,2-Back,1.0,m,Fri Jun 05 2026 11:03:28 GMT-0400 (Eastern Daylight Time),585846.200000003,011_m_f_d_a.png,I,m,723,7,3,1744.0999999940395,584102.1000000089,9035,VNB,B,5
6,test,4,0.0,2-Back,1.0,z,Fri Jun 05 2026 11:03:28 GMT-0400 (Eastern Daylight Time),587813.1000000089,020_y_f_n_a.png,I,z,941,8,3,1960.2000000029802,585852.900000006,9035,VNB,B,6
7,test,4,1.0,2-Back,1.0,m,Fri Jun 05 2026 11:03:28 GMT-0400 (Eastern Daylight Time),589446.400000006,005_o_f_h_a.png,I,m,607,9,3,1626.0,587820.400000006,9035,VNB,B,7
8,test,4,0.0,2-Back,1.0,m,Fri Jun 05 2026 11:03:28 GMT-0400 (Eastern Daylight Time),591096.400000006,007_m_m_h_a.png,I,m,621,10,3,1641.6000000089407,589454.799999997,9035,VNB,B,8
9,test,4,0.0,2-Back,1.0,m,Fri Jun 05 2026 11:03:28 GMT-0400 (Eastern Daylight Time),592746.400000006,020_y_f_d_a.png,I,m,620,11,3,1642.2000000029802,591104.200000003,9035,VNB,B,9
10,test,4,0.0,2-Back,1.0,m,Fri Jun 05 2026 11:03:28 GMT-0400 (Eastern Daylight Time),594363.1000000089,016_y_m_n_a.png,I,m,585,12,3,1608.4000000059605,592754.700000003,9035,VNB,B,10
11,test,4,0.0,2-Back,1.0,z,Fri Jun 05 2026 11:03:28 GMT-0400 (Eastern Daylight Time),595829.700000003,004_o_m_d_a.png,I,z,441,13,3,1459.9000000059605,594369.799999997,9035,VNB,B,11
12,test,4,1.0,2-Back,1.0,m,Fri Jun 05 2026 11:03:28 GMT-0400 (Eastern Daylight Time),597496.400000006,011_m_f_h_a.png,I,m,638,14,3,1659.6000000089407,595836.799999997,9035,VNB,B,12
13,test,4,1.0,2-Back,1.0,m,Fri Jun 05 2026 11:03:28 GMT-0400 (Eastern Daylight Time),599213.1000000089,020_y_f_h_a.png,I,m,683,15,3,1709.7000000029802,597503.400000006,9035,VNB,B,13
14,test,4,0.0,2-Back,1.0,m,Fri Jun 05 2026 11:03:28 GMT-0400 (Eastern Daylight Time),600879.6000000089,005_o_f_n_a.png,I,m,648,16,3,1660.300000011921,599219.299999997,9035,VNB,B,14
15,test,4,0.0,2-Back,1.0,m,Fri Jun 05 2026 11:03:28 GMT-0400 (Eastern Daylight Time),602563.1000000089,016_y_m_d_a.png,I,m,660,17,3,1677.7000000029802,600885.400000006,9035,VNB,B,15
16,test,4,1.0,2-Back,1.0,m,Fri Jun 05 2026 11:03:28 GMT-0400 (Eastern Daylight Time),604096.400000006,007_m_m_d_a.png,I,m,513,18,3,1524.1000000089407,602572.299999997,9035,VNB,B,16
0,test,5,1.0,2-Back,,,Fri Jun 05 2026 11:03:28 GMT-0400 (Eastern Daylight Time),604096.400000006,020_y_f_d_a.png,I,space,1820,1,3,1524.1000000089407,602572.299999997,9035,VNB,B,0
0,test,5,1.0,2-Back,,,Fri Jun 05 2026 11:03:28 GMT-0400 (Eastern Daylight Time),604096.400000006,005_o_f_h_a.png,I,space,1820,2,3,1524.1000000089407,602572.299999997,9035,VNB,B,0
1,test,5,1.0,2-Back,1.0,z,Fri Jun 05 2026 11:03:28 GMT-0400 (Eastern Daylight Time),612846.400000006,004_o_m_d_a.png,I,z,515,3,3,1526.0,611320.400000006,9035,VNB,B,1
2,test,5,1.0,2-Back,1.0,m,Fri Jun 05 2026 11:03:28 GMT-0400 (Eastern Daylight Time),614429.700000003,011_m_f_n_a.png,I,m,565,4,3,1574.5,612855.200000003,9035,VNB,B,2
3,test,5,0.0,2-Back,1.0,m,Fri Jun 05 2026 11:03:28 GMT-0400 (Eastern Daylight Time),616079.6000000089,007_m_m_h_a.png,I,m,630,5,3,1644.300000011921,614435.299999997,9035,VNB,B,3
4,test,5,0.0,2-Back,1.0,z,Fri Jun 05 2026 11:03:28 GMT-0400 (Eastern Daylight Time),617579.700000003,020_y_f_n_a.png,I,z,468,6,3,1493.7999999970198,616085.900000006,9035,VNB,B,4
4,test,5,0.0,2-Back,0.0,m,Fri Jun 05 2026 11:03:28 GMT-0400 (Eastern Daylight Time),619096.400000006,005_o_f_d_a.png,I,z,488,7,3,1508.7000000029802,617587.700000003,9035,VNB,B,5
5,test,5,0.0,2-Back,1.0,m,Fri Jun 05 2026 11:03:28 GMT-0400 (Eastern Daylight Time),620979.700000003,004_o_m_h_a.png,I,m,859,8,3,1874.5,619105.200000003,9035,VNB,B,6
6,test,5,1.0,2-Back,1.0,z,Fri Jun 05 2026 11:03:28 GMT-0400 (Eastern Daylight Time),622529.700000003,011_m_f_d_a.png,I,z,528,9,3,1543.5999999940395,620986.1000000089,9035,VNB,B,7
7,test,5,0.0,2-Back,1.0,m,Fri Jun 05 2026 11:03:28 GMT-0400 (Eastern Daylight Time),624046.1000000089,016_y_m_n_a.png,I,m,500,10,3,1508.7000000029802,622537.400000006,9035,VNB,B,8
8,test,5,0.0,2-Back,1.0,m,Fri Jun 05 2026 11:03:28 GMT-0400 (Eastern Daylight Time),625579.700000003,007_m_m_n_a.png,I,m,501,11,3,1528.5,624051.200000003,9035,VNB,B,9
9,test,5,0.0,2-Back,1.0,m,Fri Jun 05 2026 11:03:28 GMT-0400 (Eastern Daylight Time),627313.0,020_y_f_h_a.png,I,m,712,12,3,1727.0,625586.0,9035,VNB,B,10
9,test,5,0.0,2-Back,0.0,m,Fri Jun 05 2026 11:03:28 GMT-0400 (Eastern Daylight Time),628796.400000006,016_y_m_d_a.png,I,z,406,13,3,1476.4000000059605,627320.0,9035,VNB,B,11
9,test,5,1.0,2-Back,0.0,z,Fri Jun 05 2026 11:03:28 GMT-0400 (Eastern Daylight Time),630546.400000006,011_m_f_h_a.png,I,m,727,14,3,1743.4000000059605,628803.0,9035,VNB,B,12
10,test,5,0.0,2-Back,1.0,m,Fri Jun 05 2026 11:03:28 GMT-0400 (Eastern Daylight Time),632213.1000000089,004_o_m_n_a.png,I,m,641,15,3,1659.5,630553.6000000089,9035,VNB,B,13
11,test,5,0.0,2-Back,1.0,m,Fri Jun 05 2026 11:03:28 GMT-0400 (Eastern Daylight Time),633846.400000006,007_m_m_d_a.png,I,m,607,16,3,1625.9000000059605,632220.5,9035,VNB,B,14
12,test,5,0.0,2-Back,1.0,z,Fri Jun 05 2026 11:03:28 GMT-0400 (Eastern Daylight Time),635513.0,005_o_f_n_a.png,I,z,637,17,3,1659.8999999910593,633853.1000000089,9035,VNB,B,15
13,test,5,1.0,2-Back,1.0,m,Fri Jun 05 2026 11:03:28 GMT-0400 (Eastern Daylight Time),637063.1000000089,016_y_m_h_a.png,I,m,523,18,3,1543.7000000029802,635519.400000006,9035,VNB,B,16
