acc_sum,block,block_c,block_cond,con_img,correct,correct_response,datetime,endtime,face,jitter,line,project,response,response_time,row_sel,session_number,start_end,starttime,subject_id,task,task_vers,trial
1,prac,1,A,haborder.png,1,z,Tue Apr 14 2026 08:52:59 GMT-0500 (Central Daylight Time),60099.199999928474,CFD-BM-043-014-A.jpg,1600,solid,I,z,797,2,1,3169.0999999046326,56930.10000002384,8106,ATS,C,1
2,prac,1,A,haborder.png,1,m,Tue Apr 14 2026 08:52:59 GMT-0500 (Central Daylight Time),63144.799999952316,CFD-WM-028-005-HC.jpg,1400,solid,I,m,839,7,1,6214.699999928474,56930.10000002384,8106,ATS,C,2
3,prac,1,A,haborder.png,1,z,Tue Apr 14 2026 08:52:59 GMT-0500 (Central Daylight Time),65560.79999995232,CFD-WF-023-013-A.jpg,1000,solid,I,z,623,12,1,8630.699999928474,56930.10000002384,8106,ATS,C,3
4,prac,1,A,haborder.png,1,m,Tue Apr 14 2026 08:52:59 GMT-0500 (Central Daylight Time),68576.5,CFD-WF-013-009-HC.jpg,1500,solid,I,m,723,11,1,11646.399999976158,56930.10000002384,8106,ATS,C,4
5,prac,1,A,haborder.png,1,m,Tue Apr 14 2026 08:52:59 GMT-0500 (Central Daylight Time),71426.60000002384,CFD-BM-022-004-HC.jpg,1500,solid,I,m,562,3,1,14496.5,56930.10000002384,8106,ATS,C,5
6,prac,1,A,haborder.png,1,m,Tue Apr 14 2026 08:52:59 GMT-0500 (Central Daylight Time),74524.39999997616,CFD-BM-034-035-HC.jpg,1700,solid,I,m,610,1,1,17594.299999952316,56930.10000002384,8106,ATS,C,6
7,prac,1,A,haborder.png,1,z,Tue Apr 14 2026 08:52:59 GMT-0500 (Central Daylight Time),77023.79999995232,CFD-BF-031-020-A.jpg,1000,solid,I,z,715,4,1,20093.699999928474,56930.10000002384,8106,ATS,C,7
8,prac,1,A,haborder.png,1,z,Tue Apr 14 2026 08:52:59 GMT-0500 (Central Daylight Time),80056.10000002384,CFD-WF-037-016-A.jpg,1600,solid,I,z,648,10,1,23126.0,56930.10000002384,8106,ATS,C,8
9,prac,1,A,haborder.png,1,m,Tue Apr 14 2026 08:52:59 GMT-0500 (Central Daylight Time),83507.5,CFD-BF-019-004-HC.jpg,2000,solid,I,m,670,5,1,26577.399999976158,56930.10000002384,8106,ATS,C,9
10,prac,1,A,haborder.png,1,m,Tue Apr 14 2026 08:52:59 GMT-0500 (Central Daylight Time),86620.69999992847,CFD-WM-035-036-HC.jpg,1700,solid,I,m,626,9,1,29690.599999904633,56930.10000002384,8106,ATS,C,10
11,prac,1,A,haborder.png,1,z,Tue Apr 14 2026 08:52:59 GMT-0500 (Central Daylight Time),90069.79999995232,CFD-WM-036-018-A.jpg,1900,solid,I,z,750,8,1,33139.699999928474,56930.10000002384,8106,ATS,C,11
12,prac,1,A,haborder.png,1,z,Tue Apr 14 2026 08:52:59 GMT-0500 (Central Daylight Time),92985.39999997616,CFD-BF-002-018-A.jpg,1200,solid,I,z,921,6,1,36055.299999952316,56930.10000002384,8106,ATS,C,12
1,prac,1,B,mfborder.png,1,m,Tue Apr 14 2026 08:52:59 GMT-0500 (Central Daylight Time),117928.79999995232,CFD-WM-036-018-A.jpg,1700,9,I,m,1106,dash,1,3582.399999976158,114346.39999997616,8106,ATS,C,1
2,prac,1,B,mfborder.png,1,z,Tue Apr 14 2026 08:52:59 GMT-0500 (Central Daylight Time),121509.79999995232,CFD-WF-001-010-HC.jpg,1900,8,I,z,883,dash,1,7163.399999976158,114346.39999997616,8106,ATS,C,2
3,prac,1,B,mfborder.png,1,z,Tue Apr 14 2026 08:52:59 GMT-0500 (Central Daylight Time),123992.5,CFD-BF-031-020-A.jpg,1000,4,I,z,689,dash,1,9646.100000023842,114346.39999997616,8106,ATS,C,3
4,prac,1,B,mfborder.png,1,m,Tue Apr 14 2026 08:52:59 GMT-0500 (Central Daylight Time),127091.5,CFD-WM-035-036-HC.jpg,1600,10,I,m,710,dash,1,12745.100000023842,114346.39999997616,8106,ATS,C,4
5,prac,1,B,mfborder.png,1,z,Tue Apr 14 2026 08:52:59 GMT-0500 (Central Daylight Time),130007.10000002384,CFD-BF-019-004-HC.jpg,1400,7,I,z,724,dash,1,15660.700000047684,114346.39999997616,8106,ATS,C,5
6,prac,1,B,mfborder.png,1,z,Tue Apr 14 2026 08:52:59 GMT-0500 (Central Daylight Time),132972.79999995232,CFD-WF-037-016-A.jpg,1500,11,I,z,667,dash,1,18626.399999976158,114346.39999997616,8106,ATS,C,6
7,prac,1,B,mfborder.png,1,z,Tue Apr 14 2026 08:52:59 GMT-0500 (Central Daylight Time),135339.0,CFD-WF-013-009-HC.jpg,1000,12,I,z,578,dash,1,20992.600000023842,114346.39999997616,8106,ATS,C,7
8,prac,1,B,mfborder.png,1,z,Tue Apr 14 2026 08:52:59 GMT-0500 (Central Daylight Time),138287.79999995232,CFD-BF-042-031-HC.jpg,1500,3,I,z,664,dash,1,23941.399999976158,114346.39999997616,8106,ATS,C,8
9,prac,1,B,mfborder.png,1,m,Tue Apr 14 2026 08:52:59 GMT-0500 (Central Daylight Time),141637.0,CFD-BM-022-004-HC.jpg,1700,1,I,m,859,dash,1,27290.600000023842,114346.39999997616,8106,ATS,C,9
10,prac,1,B,mfborder.png,1,m,Tue Apr 14 2026 08:52:59 GMT-0500 (Central Daylight Time),144935.89999997616,CFD-BM-043-014-A.jpg,2000,5,I,m,514,dash,1,30589.5,114346.39999997616,8106,ATS,C,10
11,prac,1,B,mfborder.png,1,m,Tue Apr 14 2026 08:52:59 GMT-0500 (Central Daylight Time),147802.79999995232,CFD-BM-021-026-A.jpg,1600,2,I,m,494,dash,1,33456.39999997616,114346.39999997616,8106,ATS,C,11
12,prac,1,B,mfborder.png,1,m,Tue Apr 14 2026 08:52:59 GMT-0500 (Central Daylight Time),150335.29999995232,CFD-WM-034-040-A.jpg,1200,6,I,m,558,dash,1,35988.89999997616,114346.39999997616,8106,ATS,C,12
1,test,1,A,haborder.png,1,m,Tue Apr 14 2026 08:52:59 GMT-0500 (Central Daylight Time),168595.19999992847,CFD-BM-034-035-HC.jpg,1700,solid,I,m,763,1,1,2482.6999999284744,166112.5,8106,ATS,C,1
2,test,1,A,haborder.png,1,z,Tue Apr 14 2026 08:52:59 GMT-0500 (Central Daylight Time),170360.79999995232,CFD-BF-002-018-A.jpg,1200,solid,I,z,548,6,1,4248.299999952316,166112.5,8106,ATS,C,2
3,test,1,A,haborder.png,1,z,Tue Apr 14 2026 08:52:59 GMT-0500 (Central Daylight Time),172627.10000002384,CFD-WF-037-016-A.jpg,1600,solid,I,z,638,10,1,6514.600000023842,166112.5,8106,ATS,C,3
4,test,1,A,haborder.png,1,z,Tue Apr 14 2026 08:52:59 GMT-0500 (Central Daylight Time),174243.39999997616,CFD-WF-023-013-A.jpg,1000,solid,I,z,588,12,1,8130.899999976158,166112.5,8106,ATS,C,4
5,test,1,A,haborder.png,1,m,Tue Apr 14 2026 08:52:59 GMT-0500 (Central Daylight Time),176542.39999997616,CFD-BM-022-004-HC.jpg,1500,solid,I,m,767,3,1,10429.899999976158,166112.5,8106,ATS,C,5
6,test,1,A,haborder.png,1,m,Tue Apr 14 2026 08:52:59 GMT-0500 (Central Daylight Time),178675.29999995232,CFD-WM-028-005-HC.jpg,1400,solid,I,m,632,7,1,12562.799999952316,166112.5,8106,ATS,C,6
7,test,1,A,haborder.png,1,m,Tue Apr 14 2026 08:52:59 GMT-0500 (Central Daylight Time),181074.60000002384,CFD-WF-013-009-HC.jpg,1500,solid,I,m,880,11,1,14962.100000023842,166112.5,8106,ATS,C,7
8,test,1,A,haborder.png,1,m,Tue Apr 14 2026 08:52:59 GMT-0500 (Central Daylight Time),183740.29999995232,CFD-BF-019-004-HC.jpg,2000,solid,I,m,645,5,1,17627.799999952316,166112.5,8106,ATS,C,8
9,test,1,A,haborder.png,1,z,Tue Apr 14 2026 08:52:59 GMT-0500 (Central Daylight Time),186006.29999995232,CFD-WF-037-016-A.jpg,1600,solid,I,z,634,10,1,19893.799999952316,166112.5,8106,ATS,C,9
10,test,1,A,haborder.png,1,z,Tue Apr 14 2026 08:52:59 GMT-0500 (Central Daylight Time),187638.89999997616,CFD-WF-023-013-A.jpg,1000,solid,I,z,609,12,1,21526.399999976158,166112.5,8106,ATS,C,10
11,test,1,A,haborder.png,1,z,Tue Apr 14 2026 08:52:59 GMT-0500 (Central Daylight Time),189188.5,CFD-BF-031-020-A.jpg,1000,solid,I,z,520,4,1,23076.0,166112.5,8106,ATS,C,11
11,test,1,A,haborder.png,0,m,Tue Apr 14 2026 08:52:59 GMT-0500 (Central Daylight Time),192054.29999995232,CFD-BF-019-004-HC.jpg,2000,solid,I,z,835,5,1,25941.799999952316,166112.5,8106,ATS,C,12
12,test,1,A,haborder.png,1,z,Tue Apr 14 2026 08:52:59 GMT-0500 (Central Daylight Time),193653.79999995232,CFD-BF-031-020-A.jpg,1000,solid,I,z,576,4,1,27541.299999952316,166112.5,8106,ATS,C,13
13,test,1,A,haborder.png,1,m,Tue Apr 14 2026 08:52:59 GMT-0500 (Central Daylight Time),196336.29999995232,CFD-BM-034-035-HC.jpg,1700,solid,I,m,958,1,1,30223.799999952316,166112.5,8106,ATS,C,14
14,test,1,A,haborder.png,1,m,Tue Apr 14 2026 08:52:59 GMT-0500 (Central Daylight Time),198368.69999992847,CFD-WF-013-009-HC.jpg,1500,solid,I,m,515,11,1,32256.199999928474,166112.5,8106,ATS,C,15
15,test,1,A,haborder.png,1,z,Tue Apr 14 2026 08:52:59 GMT-0500 (Central Daylight Time),201085.0,CFD-WM-036-018-A.jpg,1900,solid,I,z,784,8,1,34972.5,166112.5,8106,ATS,C,16
16,test,1,A,haborder.png,1,m,Tue Apr 14 2026 08:52:59 GMT-0500 (Central Daylight Time),203450.79999995232,CFD-WM-028-005-HC.jpg,1400,solid,I,m,938,7,1,37338.299999952316,166112.5,8106,ATS,C,17
17,test,1,A,haborder.png,1,z,Tue Apr 14 2026 08:52:59 GMT-0500 (Central Daylight Time),205300.19999992847,CFD-BF-002-018-A.jpg,1200,solid,I,z,628,6,1,39187.699999928474,166112.5,8106,ATS,C,18
18,test,1,A,haborder.png,1,m,Tue Apr 14 2026 08:52:59 GMT-0500 (Central Daylight Time),208082.69999992847,CFD-WM-035-036-HC.jpg,1700,solid,I,m,1063,9,1,41970.199999928474,166112.5,8106,ATS,C,19
19,test,1,A,haborder.png,1,z,Tue Apr 14 2026 08:52:59 GMT-0500 (Central Daylight Time),210781.79999995232,CFD-BM-043-014-A.jpg,1600,solid,I,z,1069,2,1,44669.299999952316,166112.5,8106,ATS,C,20
20,test,1,A,haborder.png,1,z,Tue Apr 14 2026 08:52:59 GMT-0500 (Central Daylight Time),212997.89999997616,CFD-BM-043-014-A.jpg,1600,solid,I,z,594,2,1,46885.39999997616,166112.5,8106,ATS,C,21
21,test,1,A,haborder.png,1,m,Tue Apr 14 2026 08:52:59 GMT-0500 (Central Daylight Time),215180.60000002384,CFD-BM-022-004-HC.jpg,1500,solid,I,m,662,3,1,49068.10000002384,166112.5,8106,ATS,C,22
22,test,1,A,haborder.png,1,m,Tue Apr 14 2026 08:52:59 GMT-0500 (Central Daylight Time),217546.5,CFD-WM-035-036-HC.jpg,1700,solid,I,m,639,9,1,51434.0,166112.5,8106,ATS,C,23
23,test,1,A,haborder.png,1,z,Tue Apr 14 2026 08:52:59 GMT-0500 (Central Daylight Time),220295.39999997616,CFD-WM-036-018-A.jpg,1900,solid,I,z,824,8,1,54182.89999997616,166112.5,8106,ATS,C,24
1,test,1,B,mfborder.png,1,z,Tue Apr 14 2026 08:52:59 GMT-0500 (Central Daylight Time),234807.5,CFD-WF-013-009-HC.jpg,1000,dash,I,z,733,12,1,1765.8999999761581,233041.60000002384,8106,ATS,C,1
2,test,1,B,mfborder.png,1,z,Tue Apr 14 2026 08:52:59 GMT-0500 (Central Daylight Time),236773.60000002384,CFD-BF-019-004-HC.jpg,1400,dash,I,z,536,7,1,3732.0,233041.60000002384,8106,ATS,C,2
3,test,1,B,mfborder.png,1,z,Tue Apr 14 2026 08:52:59 GMT-0500 (Central Daylight Time),239256.0,CFD-WF-001-010-HC.jpg,1900,dash,I,z,557,8,1,6214.399999976158,233041.60000002384,8106,ATS,C,3
4,test,1,B,mfborder.png,1,m,Tue Apr 14 2026 08:52:59 GMT-0500 (Central Daylight Time),241639.0,CFD-BM-022-004-HC.jpg,1700,dash,I,m,659,1,1,8597.399999976158,233041.60000002384,8106,ATS,C,4
5,test,1,B,mfborder.png,1,m,Tue Apr 14 2026 08:52:59 GMT-0500 (Central Daylight Time),244504.79999995232,CFD-BM-022-004-HC.jpg,1700,dash,I,m,1140,1,1,11463.199999928474,233041.60000002384,8106,ATS,C,5
6,test,1,B,mfborder.png,1,z,Tue Apr 14 2026 08:52:59 GMT-0500 (Central Daylight Time),246570.39999997616,CFD-BF-031-020-A.jpg,1000,dash,I,z,1039,4,1,13528.799999952316,233041.60000002384,8106,ATS,C,6
7,test,1,B,mfborder.png,1,m,Tue Apr 14 2026 08:52:59 GMT-0500 (Central Daylight Time),248969.79999995232,CFD-WM-034-040-A.jpg,1200,dash,I,m,1173,6,1,15928.199999928474,233041.60000002384,8106,ATS,C,7
8,test,1,B,mfborder.png,1,z,Tue Apr 14 2026 08:52:59 GMT-0500 (Central Daylight Time),251235.69999992847,CFD-BF-042-031-HC.jpg,1500,dash,I,z,745,3,1,18194.099999904633,233041.60000002384,8106,ATS,C,8
9,test,1,B,mfborder.png,1,m,Tue Apr 14 2026 08:52:59 GMT-0500 (Central Daylight Time),253468.60000002384,CFD-BM-021-026-A.jpg,1600,dash,I,m,603,2,1,20427.0,233041.60000002384,8106,ATS,C,9
10,test,1,B,mfborder.png,1,z,Tue Apr 14 2026 08:52:59 GMT-0500 (Central Daylight Time),256051.0,CFD-WF-001-010-HC.jpg,1900,dash,I,z,663,8,1,23009.399999976158,233041.60000002384,8106,ATS,C,10
11,test,1,B,mfborder.png,1,m,Tue Apr 14 2026 08:52:59 GMT-0500 (Central Daylight Time),258366.89999997616,CFD-WM-036-018-A.jpg,1700,dash,I,m,583,9,1,25325.299999952316,233041.60000002384,8106,ATS,C,11
12,test,1,B,mfborder.png,1,m,Tue Apr 14 2026 08:52:59 GMT-0500 (Central Daylight Time),260767.29999995232,CFD-BM-021-026-A.jpg,1600,dash,I,m,768,2,1,27725.699999928474,233041.60000002384,8106,ATS,C,12
13,test,1,B,mfborder.png,1,m,Tue Apr 14 2026 08:52:59 GMT-0500 (Central Daylight Time),263231.89999997616,CFD-WM-036-018-A.jpg,1700,dash,I,m,750,9,1,30190.299999952316,233041.60000002384,8106,ATS,C,13
14,test,1,B,mfborder.png,1,z,Tue Apr 14 2026 08:52:59 GMT-0500 (Central Daylight Time),264848.39999997616,CFD-WF-013-009-HC.jpg,1000,dash,I,z,591,12,1,31806.799999952316,233041.60000002384,8106,ATS,C,14
15,test,1,B,mfborder.png,1,m,Tue Apr 14 2026 08:52:59 GMT-0500 (Central Daylight Time),267580.60000002384,CFD-BM-043-014-A.jpg,2000,dash,I,m,702,5,1,34539.0,233041.60000002384,8106,ATS,C,15
16,test,1,B,mfborder.png,1,m,Tue Apr 14 2026 08:52:59 GMT-0500 (Central Daylight Time),270413.2999999523,CFD-WM-035-036-HC.jpg,1600,dash,I,m,1202,10,1,37371.699999928474,233041.60000002384,8106,ATS,C,16
17,test,1,B,mfborder.png,1,m,Tue Apr 14 2026 08:52:59 GMT-0500 (Central Daylight Time),272299.1999999285,CFD-WM-034-040-A.jpg,1200,dash,I,m,530,6,1,39257.59999990463,233041.60000002384,8106,ATS,C,17
18,test,1,B,mfborder.png,1,z,Tue Apr 14 2026 08:52:59 GMT-0500 (Central Daylight Time),274612.2999999523,CFD-BF-042-031-HC.jpg,1500,dash,I,z,787,3,1,41570.699999928474,233041.60000002384,8106,ATS,C,18
19,test,1,B,mfborder.png,1,z,Tue Apr 14 2026 08:52:59 GMT-0500 (Central Daylight Time),276511.2999999523,CFD-BF-031-020-A.jpg,1000,dash,I,z,867,4,1,43469.699999928474,233041.60000002384,8106,ATS,C,19
20,test,1,B,mfborder.png,1,m,Tue Apr 14 2026 08:52:59 GMT-0500 (Central Daylight Time),279178.10000002384,CFD-BM-043-014-A.jpg,2000,dash,I,m,649,5,1,46136.5,233041.60000002384,8106,ATS,C,20
21,test,1,B,mfborder.png,1,z,Tue Apr 14 2026 08:52:59 GMT-0500 (Central Daylight Time),281459.6999999285,CFD-BF-019-004-HC.jpg,1400,dash,I,z,854,7,1,48418.09999990463,233041.60000002384,8106,ATS,C,21
22,test,1,B,mfborder.png,1,m,Tue Apr 14 2026 08:52:59 GMT-0500 (Central Daylight Time),283842.1999999285,CFD-WM-035-036-HC.jpg,1600,dash,I,m,756,10,1,50800.59999990463,233041.60000002384,8106,ATS,C,22
23,test,1,B,mfborder.png,1,z,Tue Apr 14 2026 08:52:59 GMT-0500 (Central Daylight Time),286458.1999999285,CFD-WF-037-016-A.jpg,1500,dash,I,z,1088,11,1,53416.59999990463,233041.60000002384,8106,ATS,C,23
23,test,1,B,mfborder.png,0,z,Tue Apr 14 2026 08:52:59 GMT-0500 (Central Daylight Time),288674.10000002384,CFD-WF-037-016-A.jpg,1500,dash,I,m,697,11,1,55632.5,233041.60000002384,8106,ATS,C,24
0,prac,1,C,mfborder.png,0,z,Tue Apr 14 2026 08:52:59 GMT-0500 (Central Daylight Time),338974.6999999285,CFD-BF-019-004-HC.jpg,1000,dash,I,None,1516,11,1,3298.5999999046326,335676.10000002384,8106,ATS,C,1
1,prac,1,C,haborder.png,1,z,Tue Apr 14 2026 08:52:59 GMT-0500 (Central Daylight Time),342980.60000002384,CFD-BF-002-018-A.jpg,1700,solid,I,z,1445,11,1,7304.5,335676.10000002384,8106,ATS,C,2
2,prac,1,C,haborder.png,1,m,Tue Apr 14 2026 08:52:59 GMT-0500 (Central Daylight Time),346239.60000002384,CFD-WM-028-005-HC.jpg,1000,dash,I,m,1474,11,1,10563.5,335676.10000002384,8106,ATS,C,3
2,prac,1,C,mfborder.png,0,z,Tue Apr 14 2026 08:52:59 GMT-0500 (Central Daylight Time),350088.1999999285,CFD-WF-013-009-HC.jpg,1600,dash,I,m,1464,11,1,14412.099999904633,335676.10000002384,8106,ATS,C,4
2,prac,1,C,haborder.png,0,z,Tue Apr 14 2026 08:52:59 GMT-0500 (Central Daylight Time),353987.0,CFD-WF-037-016-A.jpg,1600,dash,I,None,1516,11,1,18310.899999976158,335676.10000002384,8106,ATS,C,5
2,prac,1,C,haborder.png,0,m,Tue Apr 14 2026 08:52:59 GMT-0500 (Central Daylight Time),357685.89999997616,CFD-WM-028-005-HC.jpg,1400,solid,I,None,1516,11,1,22009.799999952316,335676.10000002384,8106,ATS,C,6
3,prac,1,C,mfborder.png,1,z,Tue Apr 14 2026 08:52:59 GMT-0500 (Central Daylight Time),361034.7999999523,CFD-WF-023-013-A.jpg,1500,solid,I,z,1060,11,1,25358.699999928474,335676.10000002384,8106,ATS,C,7
3,prac,1,C,mfborder.png,0,m,Tue Apr 14 2026 08:52:59 GMT-0500 (Central Daylight Time),364533.6999999285,CFD-BM-043-014-A.jpg,1200,dash,I,None,1516,11,1,28857.599999904633,335676.10000002384,8106,ATS,C,8
4,prac,1,C,mfborder.png,1,m,Tue Apr 14 2026 08:52:59 GMT-0500 (Central Daylight Time),368782.1999999285,CFD-BM-034-035-HC.jpg,2000,solid,I,m,1392,11,1,33106.09999990463,335676.10000002384,8106,ATS,C,9
5,prac,1,C,haborder.png,1,m,Tue Apr 14 2026 08:52:59 GMT-0500 (Central Daylight Time),372097.7999999523,CFD-BM-022-004-HC.jpg,1500,solid,I,m,1029,11,1,36421.699999928474,335676.10000002384,8106,ATS,C,10
6,prac,1,C,haborder.png,1,z,Tue Apr 14 2026 08:52:59 GMT-0500 (Central Daylight Time),375513.5,CFD-BF-031-020-A.jpg,1900,dash,I,z,722,11,1,39837.39999997616,335676.10000002384,8106,ATS,C,11
7,prac,1,C,mfborder.png,1,m,Tue Apr 14 2026 08:52:59 GMT-0500 (Central Daylight Time),378829.2999999523,CFD-WM-036-018-A.jpg,1700,solid,I,m,817,11,1,43153.199999928474,335676.10000002384,8106,ATS,C,12
0,prac,2,C,haborder.png,0,z,Tue Apr 14 2026 08:52:59 GMT-0500 (Central Daylight Time),389409.2999999523,CFD-BF-002-018-A.jpg,1700,solid,I,None,1516,11,1,53733.199999928474,335676.10000002384,8106,ATS,C,1
1,prac,2,C,haborder.png,1,z,Tue Apr 14 2026 08:52:59 GMT-0500 (Central Daylight Time),392908.1999999285,CFD-WF-037-016-A.jpg,1600,dash,I,z,1102,11,1,57232.09999990463,335676.10000002384,8106,ATS,C,2
2,prac,2,C,mfborder.png,1,m,Tue Apr 14 2026 08:52:59 GMT-0500 (Central Daylight Time),396274.0,CFD-BM-043-014-A.jpg,1200,dash,I,m,1371,11,1,60597.89999997616,335676.10000002384,8106,ATS,C,3
2,prac,2,C,mfborder.png,0,z,Tue Apr 14 2026 08:52:59 GMT-0500 (Central Daylight Time),400155.7999999523,CFD-WF-013-009-HC.jpg,1600,dash,I,None,1501,11,1,64479.699999928474,335676.10000002384,8106,ATS,C,4
3,prac,2,C,mfborder.png,1,m,Tue Apr 14 2026 08:52:59 GMT-0500 (Central Daylight Time),403488.1999999285,CFD-WM-036-018-A.jpg,1700,solid,I,m,848,11,1,67812.09999990463,335676.10000002384,8106,ATS,C,5
3,prac,2,C,haborder.png,0,m,Tue Apr 14 2026 08:52:59 GMT-0500 (Central Daylight Time),406787.10000002384,CFD-WM-028-005-HC.jpg,1000,dash,I,None,1516,11,1,71111.0,335676.10000002384,8106,ATS,C,6
4,prac,2,C,mfborder.png,1,m,Tue Apr 14 2026 08:52:59 GMT-0500 (Central Daylight Time),410869.2999999523,CFD-BM-034-035-HC.jpg,2000,solid,I,m,1292,11,1,75193.19999992847,335676.10000002384,8106,ATS,C,7
5,prac,2,C,mfborder.png,1,z,Tue Apr 14 2026 08:52:59 GMT-0500 (Central Daylight Time),414301.5,CFD-WF-023-013-A.jpg,1500,solid,I,z,1143,11,1,78625.39999997616,335676.10000002384,8106,ATS,C,8
6,prac,2,C,haborder.png,1,z,Tue Apr 14 2026 08:52:59 GMT-0500 (Central Daylight Time),418333.5,CFD-BF-031-020-A.jpg,1900,dash,I,z,1333,11,1,82657.39999997616,335676.10000002384,8106,ATS,C,9
7,prac,2,C,haborder.png,1,m,Tue Apr 14 2026 08:52:59 GMT-0500 (Central Daylight Time),421349.39999997616,CFD-WM-028-005-HC.jpg,1400,solid,I,m,817,11,1,85673.29999995232,335676.10000002384,8106,ATS,C,10
8,prac,2,C,haborder.png,1,m,Tue Apr 14 2026 08:52:59 GMT-0500 (Central Daylight Time),424482.60000002384,CFD-BM-022-004-HC.jpg,1500,solid,I,m,862,11,1,88806.5,335676.10000002384,8106,ATS,C,11
9,prac,2,C,mfborder.png,1,z,Tue Apr 14 2026 08:52:59 GMT-0500 (Central Daylight Time),427164.2999999523,CFD-BF-019-004-HC.jpg,1000,dash,I,z,894,11,1,91488.19999992847,335676.10000002384,8106,ATS,C,12
0,test,1,C,haborder.png,0,m,Tue Apr 14 2026 08:52:59 GMT-0500 (Central Daylight Time),444908.2999999523,CFD-WF-013-009-HC.jpg,1000,solid,I,z,1428,12,1,2449.0,442459.2999999523,8106,ATS,C,1
0,test,1,C,haborder.png,0,z,Tue Apr 14 2026 08:52:59 GMT-0500 (Central Daylight Time),447841.0,CFD-WM-036-018-A.jpg,1400,solid,I,None,1516,7,1,5381.700000047684,442459.2999999523,8106,ATS,C,2
1,test,1,C,haborder.png,1,m,Tue Apr 14 2026 08:52:59 GMT-0500 (Central Daylight Time),450840.0,CFD-WF-001-010-HC.jpg,1500,solid,I,m,1474,11,1,8380.700000047684,442459.2999999523,8106,ATS,C,3
2,test,1,C,mfborder.png,1,z,Tue Apr 14 2026 08:52:59 GMT-0500 (Central Daylight Time),453372.5,CFD-BF-031-020-A.jpg,1600,dash,I,z,910,2,1,10913.200000047684,442459.2999999523,8106,ATS,C,4
2,test,1,C,mfborder.png,0,m,Tue Apr 14 2026 08:52:59 GMT-0500 (Central Daylight Time),456904.6999999285,CFD-WM-034-040-A.jpg,2000,dash,I,None,1516,5,1,14445.399999976158,442459.2999999523,8106,ATS,C,5
3,test,1,C,mfborder.png,1,z,Tue Apr 14 2026 08:52:59 GMT-0500 (Central Daylight Time),459487.2999999523,CFD-WF-037-016-A.jpg,1500,dash,I,z,1059,3,1,17028.0,442459.2999999523,8106,ATS,C,6
3,test,1,C,mfborder.png,0,z,Tue Apr 14 2026 08:52:59 GMT-0500 (Central Daylight Time),462619.6999999285,CFD-BF-031-020-A.jpg,1600,dash,I,None,1515,2,1,20160.399999976158,442459.2999999523,8106,ATS,C,7
3,test,1,C,haborder.png,0,z,Tue Apr 14 2026 08:52:59 GMT-0500 (Central Daylight Time),465501.89999997616,CFD-BM-021-026-A.jpg,1700,solid,I,m,1160,9,1,23042.600000023842,442459.2999999523,8106,ATS,C,8
3,test,1,C,haborder.png,0,m,Tue Apr 14 2026 08:52:59 GMT-0500 (Central Daylight Time),467568.2999999523,CFD-WF-013-009-HC.jpg,1000,solid,I,z,1034,12,1,25109.0,442459.2999999523,8106,ATS,C,9
3,test,1,C,mfborder.png,0,m,Tue Apr 14 2026 08:52:59 GMT-0500 (Central Daylight Time),470100.7999999523,CFD-WM-035-036-HC.jpg,1000,dash,I,None,1516,4,1,27641.5,442459.2999999523,8106,ATS,C,10
4,test,1,C,haborder.png,1,m,Tue Apr 14 2026 08:52:59 GMT-0500 (Central Daylight Time),473033.10000002384,CFD-WF-001-010-HC.jpg,1500,solid,I,m,1400,11,1,30573.800000071526,442459.2999999523,8106,ATS,C,11
4,test,1,C,haborder.png,0,z,Tue Apr 14 2026 08:52:59 GMT-0500 (Central Daylight Time),476116.5,CFD-BM-043-014-A.jpg,1900,solid,I,m,1162,8,1,33657.200000047684,442459.2999999523,8106,ATS,C,12
4,test,1,C,haborder.png,0,z,Tue Apr 14 2026 08:52:59 GMT-0500 (Central Daylight Time),478814.5,CFD-BM-043-014-A.jpg,1900,solid,I,m,776,8,1,36355.200000047684,442459.2999999523,8106,ATS,C,13
4,test,1,C,haborder.png,0,m,Tue Apr 14 2026 08:52:59 GMT-0500 (Central Daylight Time),481947.6999999285,CFD-BF-019-004-HC.jpg,1600,solid,I,None,1517,10,1,39488.39999997616,442459.2999999523,8106,ATS,C,14
4,test,1,C,mfborder.png,0,z,Tue Apr 14 2026 08:52:59 GMT-0500 (Central Daylight Time),485062.2999999523,CFD-BF-042-031-HC.jpg,1700,dash,I,m,1393,1,1,42603.0,442459.2999999523,8106,ATS,C,15
4,test,1,C,haborder.png,0,m,Tue Apr 14 2026 08:52:59 GMT-0500 (Central Daylight Time),488111.60000002384,CFD-BF-019-004-HC.jpg,1600,solid,I,z,1417,10,1,45652.300000071526,442459.2999999523,8106,ATS,C,16
4,test,1,C,haborder.png,0,z,Tue Apr 14 2026 08:52:59 GMT-0500 (Central Daylight Time),490877.60000002384,CFD-BM-021-026-A.jpg,1700,solid,I,m,1044,9,1,48418.300000071526,442459.2999999523,8106,ATS,C,17
4,test,1,C,mfborder.png,0,z,Tue Apr 14 2026 08:52:59 GMT-0500 (Central Daylight Time),493909.5,CFD-WF-037-016-A.jpg,1500,dash,I,None,1515,3,1,51450.200000047684,442459.2999999523,8106,ATS,C,18
4,test,1,C,mfborder.png,0,m,Tue Apr 14 2026 08:52:59 GMT-0500 (Central Daylight Time),497325.39999997616,CFD-WM-034-040-A.jpg,2000,dash,I,z,1386,5,1,54866.10000002384,442459.2999999523,8106,ATS,C,19
5,test,1,C,mfborder.png,1,m,Tue Apr 14 2026 08:52:59 GMT-0500 (Central Daylight Time),499857.7999999523,CFD-BM-022-004-HC.jpg,1200,dash,I,m,1314,6,1,57398.5,442459.2999999523,8106,ATS,C,20
5,test,1,C,mfborder.png,0,m,Tue Apr 14 2026 08:52:59 GMT-0500 (Central Daylight Time),502590.2999999523,CFD-BM-022-004-HC.jpg,1200,dash,I,None,1515,6,1,60131.0,442459.2999999523,8106,ATS,C,21
6,test,1,C,mfborder.png,1,m,Tue Apr 14 2026 08:52:59 GMT-0500 (Central Daylight Time),504906.1999999285,CFD-WM-035-036-HC.jpg,1000,dash,I,m,1297,4,1,62446.89999997616,442459.2999999523,8106,ATS,C,22
6,test,1,C,haborder.png,0,z,Tue Apr 14 2026 08:52:59 GMT-0500 (Central Daylight Time),507840.1999999285,CFD-WM-036-018-A.jpg,1400,solid,I,None,1517,7,1,65380.89999997616,442459.2999999523,8106,ATS,C,23
6,test,1,C,mfborder.png,0,z,Tue Apr 14 2026 08:52:59 GMT-0500 (Central Daylight Time),511072.0,CFD-BF-042-031-HC.jpg,1700,dash,I,None,1517,1,1,68612.70000004768,442459.2999999523,8106,ATS,C,24
0,test,2,C,mfborder.png,0,z,Tue Apr 14 2026 08:52:59 GMT-0500 (Central Daylight Time),517652.60000002384,CFD-WF-023-013-A.jpg,1600,dash,I,None,1515,2,1,3132.5,514520.10000002384,8106,ATS,C,1
1,test,2,C,mfborder.png,1,z,Tue Apr 14 2026 08:52:59 GMT-0500 (Central Daylight Time),520868.10000002384,CFD-WF-013-009-HC.jpg,1700,dash,I,z,1495,1,1,6348.0,514520.10000002384,8106,ATS,C,2
1,test,2,C,haborder.png,0,z,Tue Apr 14 2026 08:52:59 GMT-0500 (Central Daylight Time),524100.10000002384,CFD-WF-037-016-A.jpg,1700,solid,I,None,1516,9,1,9580.0,514520.10000002384,8106,ATS,C,3
2,test,2,C,haborder.png,1,m,Tue Apr 14 2026 08:52:59 GMT-0500 (Central Daylight Time),526699.8999999762,CFD-BM-022-004-HC.jpg,1600,solid,I,m,979,10,1,12179.799999952316,514520.10000002384,8106,ATS,C,4
2,test,2,C,mfborder.png,0,m,Tue Apr 14 2026 08:52:59 GMT-0500 (Central Daylight Time),529432.1999999285,CFD-WM-036-018-A.jpg,1200,dash,I,None,1516,6,1,14912.099999904633,514520.10000002384,8106,ATS,C,5
3,test,2,C,mfborder.png,1,m,Tue Apr 14 2026 08:52:59 GMT-0500 (Central Daylight Time),531600.2999999523,CFD-BM-034-035-HC.jpg,1000,dash,I,m,1151,4,1,17080.199999928474,514520.10000002384,8106,ATS,C,6
4,test,2,C,mfborder.png,1,m,Tue Apr 14 2026 08:52:59 GMT-0500 (Central Daylight Time),534263.6999999285,CFD-BM-043-014-A.jpg,2000,dash,I,m,634,5,1,19743.599999904633,514520.10000002384,8106,ATS,C,7
5,test,2,C,haborder.png,1,m,Tue Apr 14 2026 08:52:59 GMT-0500 (Central Daylight Time),537113.1000000238,CFD-WM-028-005-HC.jpg,1500,solid,I,m,1317,11,1,22593.0,514520.10000002384,8106,ATS,C,8
6,test,2,C,haborder.png,1,m,Tue Apr 14 2026 08:52:59 GMT-0500 (Central Daylight Time),539713.1999999285,CFD-WM-028-005-HC.jpg,1500,solid,I,m,1082,11,1,25193.099999904633,514520.10000002384,8106,ATS,C,9
7,test,2,C,mfborder.png,1,z,Tue Apr 14 2026 08:52:59 GMT-0500 (Central Daylight Time),542044.5,CFD-BF-019-004-HC.jpg,1500,dash,I,z,803,3,1,27524.399999976158,514520.10000002384,8106,ATS,C,10
7,test,2,C,haborder.png,0,m,Tue Apr 14 2026 08:52:59 GMT-0500 (Central Daylight Time),545177.1999999285,CFD-BM-022-004-HC.jpg,1600,solid,I,None,1516,10,1,30657.099999904633,514520.10000002384,8106,ATS,C,11
7,test,2,C,haborder.png,0,z,Tue Apr 14 2026 08:52:59 GMT-0500 (Central Daylight Time),548409.1999999285,CFD-WF-037-016-A.jpg,1700,solid,I,None,1515,9,1,33889.09999990463,514520.10000002384,8106,ATS,C,12
7,test,2,C,haborder.png,0,z,Tue Apr 14 2026 08:52:59 GMT-0500 (Central Daylight Time),551841.6999999285,CFD-BF-002-018-A.jpg,1900,solid,I,None,1516,8,1,37321.59999990463,514520.10000002384,8106,ATS,C,13
8,test,2,C,haborder.png,1,z,Tue Apr 14 2026 08:52:59 GMT-0500 (Central Daylight Time),554757.2999999523,CFD-BF-002-018-A.jpg,1900,solid,I,z,985,8,1,40237.199999928474,514520.10000002384,8106,ATS,C,14
9,test,2,C,mfborder.png,1,m,Tue Apr 14 2026 08:52:59 GMT-0500 (Central Daylight Time),557789.7999999523,CFD-BM-043-014-A.jpg,2000,dash,I,m,1001,5,1,43269.699999928474,514520.10000002384,8106,ATS,C,15
9,test,2,C,haborder.png,0,m,Tue Apr 14 2026 08:52:59 GMT-0500 (Central Daylight Time),560322.2999999523,CFD-WM-028-005-HC.jpg,1000,solid,I,None,1516,12,1,45802.199999928474,514520.10000002384,8106,ATS,C,16
10,test,2,C,mfborder.png,1,z,Tue Apr 14 2026 08:52:59 GMT-0500 (Central Daylight Time),563155.0,CFD-WF-023-013-A.jpg,1600,dash,I,z,1213,2,1,48634.89999997616,514520.10000002384,8106,ATS,C,17
10,test,2,C,haborder.png,0,z,Tue Apr 14 2026 08:52:59 GMT-0500 (Central Daylight Time),566087.2999999523,CFD-BF-031-020-A.jpg,1400,solid,I,None,1516,7,1,51567.199999928474,514520.10000002384,8106,ATS,C,18
11,test,2,C,haborder.png,1,m,Tue Apr 14 2026 08:52:59 GMT-0500 (Central Daylight Time),568369.6999999285,CFD-WM-028-005-HC.jpg,1000,solid,I,m,1264,12,1,53849.59999990463,514520.10000002384,8106,ATS,C,19
12,test,2,C,mfborder.png,1,m,Tue Apr 14 2026 08:52:59 GMT-0500 (Central Daylight Time),570852.3999999762,CFD-WM-036-018-A.jpg,1200,dash,I,m,1253,6,1,56332.299999952316,514520.10000002384,8106,ATS,C,20
13,test,2,C,mfborder.png,1,z,Tue Apr 14 2026 08:52:59 GMT-0500 (Central Daylight Time),573418.3999999762,CFD-WF-013-009-HC.jpg,1700,dash,I,z,847,1,1,58898.299999952316,514520.10000002384,8106,ATS,C,21
14,test,2,C,mfborder.png,1,m,Tue Apr 14 2026 08:52:59 GMT-0500 (Central Daylight Time),575451.8999999762,CFD-BM-034-035-HC.jpg,1000,dash,I,m,1005,4,1,60931.799999952316,514520.10000002384,8106,ATS,C,22
14,test,2,C,haborder.png,0,z,Tue Apr 14 2026 08:52:59 GMT-0500 (Central Daylight Time),578383.3999999762,CFD-BF-031-020-A.jpg,1400,solid,I,None,1515,7,1,63863.299999952316,514520.10000002384,8106,ATS,C,23
15,test,2,C,mfborder.png,1,z,Tue Apr 14 2026 08:52:59 GMT-0500 (Central Daylight Time),580916.1000000238,CFD-BF-019-004-HC.jpg,1500,dash,I,z,1012,3,1,66396.0,514520.10000002384,8106,ATS,C,24
0,test,3,C,haborder.png,0,m,Tue Apr 14 2026 08:52:59 GMT-0500 (Central Daylight Time),588730.2999999523,CFD-WF-001-010-HC.jpg,1500,solid,I,None,1516,11,1,3032.7999999523163,585697.5,8106,ATS,C,1
0,test,3,C,haborder.png,0,z,Tue Apr 14 2026 08:52:59 GMT-0500 (Central Daylight Time),591962.5,CFD-BM-021-026-A.jpg,1700,solid,I,None,1515,9,1,6265.0,585697.5,8106,ATS,C,2
1,test,3,C,haborder.png,1,z,Tue Apr 14 2026 08:52:59 GMT-0500 (Central Daylight Time),594544.7999999523,CFD-WM-036-018-A.jpg,1400,solid,I,z,1157,7,1,8847.299999952316,585697.5,8106,ATS,C,3
1,test,3,C,haborder.png,0,z,Tue Apr 14 2026 08:52:59 GMT-0500 (Central Daylight Time),597977.2999999523,CFD-BM-043-014-A.jpg,1900,solid,I,None,1516,8,1,12279.799999952316,585697.5,8106,ATS,C,4
1,test,3,C,haborder.png,0,m,Tue Apr 14 2026 08:52:59 GMT-0500 (Central Daylight Time),601109.6000000238,CFD-BF-019-004-HC.jpg,1600,solid,I,None,1516,10,1,15412.100000023842,585697.5,8106,ATS,C,5
2,test,3,C,mfborder.png,1,m,Tue Apr 14 2026 08:52:59 GMT-0500 (Central Daylight Time),604125.2999999523,CFD-WM-034-040-A.jpg,2000,dash,I,m,986,5,1,18427.799999952316,585697.5,8106,ATS,C,6
3,test,3,C,mfborder.png,1,m,Tue Apr 14 2026 08:52:59 GMT-0500 (Central Daylight Time),606274.6000000238,CFD-BM-022-004-HC.jpg,1200,dash,I,m,930,6,1,20577.100000023842,585697.5,8106,ATS,C,7
4,test,3,C,mfborder.png,1,m,Tue Apr 14 2026 08:52:59 GMT-0500 (Central Daylight Time),607974.1999999285,CFD-WM-035-036-HC.jpg,1000,dash,I,m,669,4,1,22276.699999928474,585697.5,8106,ATS,C,8
5,test,3,C,mfborder.png,1,z,Tue Apr 14 2026 08:52:59 GMT-0500 (Central Daylight Time),610489.8999999762,CFD-BF-031-020-A.jpg,1600,dash,I,z,889,2,1,24792.399999976158,585697.5,8106,ATS,C,9
5,test,3,C,haborder.png,0,m,Tue Apr 14 2026 08:52:59 GMT-0500 (Central Daylight Time),613622.5,CFD-BF-019-004-HC.jpg,1600,solid,I,None,1515,10,1,27925.0,585697.5,8106,ATS,C,10
6,test,3,C,mfborder.png,1,z,Tue Apr 14 2026 08:52:59 GMT-0500 (Central Daylight Time),616038.2999999523,CFD-WF-037-016-A.jpg,1500,dash,I,z,885,3,1,30340.799999952316,585697.5,8106,ATS,C,11
7,test,3,C,mfborder.png,1,z,Tue Apr 14 2026 08:52:59 GMT-0500 (Central Daylight Time),618670.7999999523,CFD-BF-042-031-HC.jpg,1700,dash,I,z,910,1,1,32973.299999952316,585697.5,8106,ATS,C,12
8,test,3,C,haborder.png,1,m,Tue Apr 14 2026 08:52:59 GMT-0500 (Central Daylight Time),620336.6000000238,CFD-WF-013-009-HC.jpg,1000,solid,I,m,649,12,1,34639.10000002384,585697.5,8106,ATS,C,13
8,test,3,C,mfborder.png,0,m,Tue Apr 14 2026 08:52:59 GMT-0500 (Central Daylight Time),622869.1999999285,CFD-WM-035-036-HC.jpg,1000,dash,I,None,1516,4,1,37171.699999928474,585697.5,8106,ATS,C,14
8,test,3,C,mfborder.png,0,z,Tue Apr 14 2026 08:52:59 GMT-0500 (Central Daylight Time),626102.1000000238,CFD-BF-042-031-HC.jpg,1700,dash,I,None,1516,1,1,40404.60000002384,585697.5,8106,ATS,C,15
9,test,3,C,mfborder.png,1,z,Tue Apr 14 2026 08:52:59 GMT-0500 (Central Daylight Time),628584.3999999762,CFD-WF-037-016-A.jpg,1500,dash,I,z,958,3,1,42886.89999997616,585697.5,8106,ATS,C,16
9,test,3,C,haborder.png,0,m,Tue Apr 14 2026 08:52:59 GMT-0500 (Central Daylight Time),631050.1999999285,CFD-WF-013-009-HC.jpg,1000,solid,I,z,1447,12,1,45352.699999928474,585697.5,8106,ATS,C,17
9,test,3,C,haborder.png,0,z,Tue Apr 14 2026 08:52:59 GMT-0500 (Central Daylight Time),634482.6000000238,CFD-BM-043-014-A.jpg,1900,solid,I,None,1515,8,1,48785.10000002384,585697.5,8106,ATS,C,18
10,test,3,C,mfborder.png,1,m,Tue Apr 14 2026 08:52:59 GMT-0500 (Central Daylight Time),636931.7999999523,CFD-BM-022-004-HC.jpg,1200,dash,I,m,1229,6,1,51234.299999952316,585697.5,8106,ATS,C,19
10,test,3,C,haborder.png,0,m,Tue Apr 14 2026 08:52:59 GMT-0500 (Central Daylight Time),639964.1999999285,CFD-WF-001-010-HC.jpg,1500,solid,I,None,1516,11,1,54266.699999928474,585697.5,8106,ATS,C,20
11,test,3,C,mfborder.png,1,z,Tue Apr 14 2026 08:52:59 GMT-0500 (Central Daylight Time),642546.7999999523,CFD-BF-031-020-A.jpg,1600,dash,I,z,955,2,1,56849.299999952316,585697.5,8106,ATS,C,21
11,test,3,C,haborder.png,0,z,Tue Apr 14 2026 08:52:59 GMT-0500 (Central Daylight Time),645779.0,CFD-BM-021-026-A.jpg,1700,solid,I,None,1516,9,1,60081.5,585697.5,8106,ATS,C,22
12,test,3,C,haborder.png,1,z,Tue Apr 14 2026 08:52:59 GMT-0500 (Central Daylight Time),648594.7999999523,CFD-WM-036-018-A.jpg,1400,solid,I,z,1389,7,1,62897.299999952316,585697.5,8106,ATS,C,23
13,test,3,C,mfborder.png,1,m,Tue Apr 14 2026 08:52:59 GMT-0500 (Central Daylight Time),651360.5,CFD-WM-034-040-A.jpg,2000,dash,I,m,741,5,1,65663.0,585697.5,8106,ATS,C,24
1,test,4,C,haborder.png,1,m,Tue Apr 14 2026 08:52:59 GMT-0500 (Central Daylight Time),657626.2999999523,CFD-WM-028-005-HC.jpg,1500,solid,I,m,1365,11,1,2883.600000023842,654742.6999999285,8106,ATS,C,1
1,test,4,C,mfborder.png,0,m,Tue Apr 14 2026 08:52:59 GMT-0500 (Central Daylight Time),659991.1999999285,CFD-WM-036-018-A.jpg,1200,dash,I,z,1134,6,1,5248.5,654742.6999999285,8106,ATS,C,2
1,test,4,C,haborder.png,0,z,Tue Apr 14 2026 08:52:59 GMT-0500 (Central Daylight Time),662923.6000000238,CFD-BF-031-020-A.jpg,1400,solid,I,None,1516,7,1,8180.900000095367,654742.6999999285,8106,ATS,C,3
1,test,4,C,haborder.png,0,m,Tue Apr 14 2026 08:52:59 GMT-0500 (Central Daylight Time),665456.1999999285,CFD-WM-028-005-HC.jpg,1000,solid,I,None,1516,12,1,10713.5,654742.6999999285,8106,ATS,C,4
2,test,4,C,mfborder.png,1,m,Tue Apr 14 2026 08:52:59 GMT-0500 (Central Daylight Time),667388.7999999523,CFD-BM-034-035-HC.jpg,1000,dash,I,m,903,4,1,12646.100000023842,654742.6999999285,8106,ATS,C,5
3,test,4,C,haborder.png,1,m,Tue Apr 14 2026 08:52:59 GMT-0500 (Central Daylight Time),670121.3999999762,CFD-BM-022-004-HC.jpg,1600,solid,I,m,1107,10,1,15378.700000047684,654742.6999999285,8106,ATS,C,6
4,test,4,C,mfborder.png,1,z,Tue Apr 14 2026 08:52:59 GMT-0500 (Central Daylight Time),672620.5,CFD-BF-019-004-HC.jpg,1500,dash,I,z,970,3,1,17877.800000071526,654742.6999999285,8106,ATS,C,7
5,test,4,C,haborder.png,1,z,Tue Apr 14 2026 08:52:59 GMT-0500 (Central Daylight Time),675702.8999999762,CFD-BF-002-018-A.jpg,1900,solid,I,z,1159,8,1,20960.200000047684,654742.6999999285,8106,ATS,C,8
6,test,4,C,mfborder.png,1,z,Tue Apr 14 2026 08:52:59 GMT-0500 (Central Daylight Time),678002.1000000238,CFD-WF-023-013-A.jpg,1600,dash,I,z,681,2,1,23259.400000095367,654742.6999999285,8106,ATS,C,9
6,test,4,C,mfborder.png,0,m,Tue Apr 14 2026 08:52:59 GMT-0500 (Central Daylight Time),679718.7999999523,CFD-WM-036-018-A.jpg,1200,dash,I,z,492,6,1,24976.100000023842,654742.6999999285,8106,ATS,C,10
7,test,4,C,haborder.png,1,m,Tue Apr 14 2026 08:52:59 GMT-0500 (Central Daylight Time),682300.7999999523,CFD-BM-022-004-HC.jpg,1600,solid,I,m,961,10,1,27558.100000023842,654742.6999999285,8106,ATS,C,11
7,test,4,C,haborder.png,0,z,Tue Apr 14 2026 08:52:59 GMT-0500 (Central Daylight Time),685732.8999999762,CFD-BF-002-018-A.jpg,1900,solid,I,None,1516,8,1,30990.200000047684,654742.6999999285,8106,ATS,C,12
8,test,4,C,haborder.png,1,z,Tue Apr 14 2026 08:52:59 GMT-0500 (Central Daylight Time),688398.7999999523,CFD-WF-037-016-A.jpg,1700,solid,I,z,933,9,1,33656.10000002384,654742.6999999285,8106,ATS,C,13
9,test,4,C,mfborder.png,1,z,Tue Apr 14 2026 08:52:59 GMT-0500 (Central Daylight Time),690899.1999999285,CFD-WF-013-009-HC.jpg,1700,dash,I,z,781,1,1,36156.5,654742.6999999285,8106,ATS,C,14
10,test,4,C,mfborder.png,1,z,Tue Apr 14 2026 08:52:59 GMT-0500 (Central Daylight Time),692897.2999999523,CFD-BF-019-004-HC.jpg,1500,dash,I,z,480,3,1,38154.60000002384,654742.6999999285,8106,ATS,C,15
11,test,4,C,mfborder.png,1,m,Tue Apr 14 2026 08:52:59 GMT-0500 (Central Daylight Time),695480.0,CFD-BM-043-014-A.jpg,2000,dash,I,m,550,5,1,40737.300000071526,654742.6999999285,8106,ATS,C,16
12,test,4,C,mfborder.png,1,z,Tue Apr 14 2026 08:52:59 GMT-0500 (Central Daylight Time),698112.6000000238,CFD-WF-023-013-A.jpg,1600,dash,I,z,1000,2,1,43369.90000009537,654742.6999999285,8106,ATS,C,17
13,test,4,C,mfborder.png,1,z,Tue Apr 14 2026 08:52:59 GMT-0500 (Central Daylight Time),700761.6000000238,CFD-WF-013-009-HC.jpg,1700,dash,I,z,922,1,1,46018.90000009537,654742.6999999285,8106,ATS,C,18
14,test,4,C,mfborder.png,1,m,Tue Apr 14 2026 08:52:59 GMT-0500 (Central Daylight Time),702594.2999999523,CFD-BM-034-035-HC.jpg,1000,dash,I,m,814,4,1,47851.60000002384,654742.6999999285,8106,ATS,C,19
14,test,4,C,haborder.png,0,z,Tue Apr 14 2026 08:52:59 GMT-0500 (Central Daylight Time),705526.7999999523,CFD-BF-031-020-A.jpg,1400,solid,I,None,1516,7,1,50784.10000002384,654742.6999999285,8106,ATS,C,20
15,test,4,C,haborder.png,1,m,Tue Apr 14 2026 08:52:59 GMT-0500 (Central Daylight Time),708143.0,CFD-WM-028-005-HC.jpg,1500,solid,I,m,1093,11,1,53400.300000071526,654742.6999999285,8106,ATS,C,21
15,test,4,C,mfborder.png,0,m,Tue Apr 14 2026 08:52:59 GMT-0500 (Central Daylight Time),711675.0,CFD-BM-043-014-A.jpg,2000,dash,I,None,1516,5,1,56932.300000071526,654742.6999999285,8106,ATS,C,22
16,test,4,C,haborder.png,1,z,Tue Apr 14 2026 08:52:59 GMT-0500 (Central Daylight Time),714440.7999999523,CFD-WF-037-016-A.jpg,1700,solid,I,z,1041,9,1,59698.10000002384,654742.6999999285,8106,ATS,C,23
17,test,4,C,haborder.png,1,m,Tue Apr 14 2026 08:52:59 GMT-0500 (Central Daylight Time),716656.6000000238,CFD-WM-028-005-HC.jpg,1000,solid,I,m,1191,12,1,61913.90000009537,654742.6999999285,8106,ATS,C,24
