Number,acc_sum,block,block_c,block_cond,con_img,correct,correct_response,datetime,endtime,jitter,project,response,response_time,row_sel,session_number,start_end,starttime,subject_id,task,task_vers,trial
7,0,prac,1,A,circle.png,0,m,Mon Dec 01 2025 10:24:09 GMT-0500 (Eastern Standard Time),126712.59999990463,1700,I,None,1514,6,1,3989.0999999046326,122723.5,9038,NTS,C,1
2,0,prac,1,A,circle.png,0,z,Mon Dec 01 2025 10:24:09 GMT-0500 (Eastern Standard Time),131012.29999995232,2000,I,None,1514,2,1,4287.799999952316,126724.5,9038,NTS,C,2
6,0,prac,1,A,circle.png,0,m,Mon Dec 01 2025 10:24:09 GMT-0500 (Eastern Standard Time),135212.29999995232,1900,I,None,1512,5,1,4188.799999952316,131023.5,9038,NTS,C,3
3,1,prac,1,A,circle.png,1,z,Mon Dec 01 2025 10:24:09 GMT-0500 (Eastern Standard Time),138195.90000009537,1200,I,z,994,3,1,2968.300000190735,135227.59999990463,9038,NTS,C,4
6,2,prac,1,A,circle.png,1,m,Mon Dec 01 2025 10:24:09 GMT-0500 (Eastern Standard Time),141462.59999990463,1900,I,m,575,5,1,3254.0999999046326,138208.5,9038,NTS,C,5
8,3,prac,1,A,circle.png,1,m,Mon Dec 01 2025 10:24:09 GMT-0500 (Eastern Standard Time),144395.79999995232,1600,I,m,534,7,1,2919.399999856949,141476.40000009537,9038,NTS,C,6
7,3,prac,1,A,circle.png,0,m,Mon Dec 01 2025 10:24:09 GMT-0500 (Eastern Standard Time),147629.09999990463,1700,I,z,735,6,1,3221.899999856949,144407.20000004768,9038,NTS,C,7
3,4,prac,1,A,circle.png,1,z,Mon Dec 01 2025 10:24:09 GMT-0500 (Eastern Standard Time),150162.5,1200,I,z,545,3,1,2520.7000000476837,147641.79999995232,9038,NTS,C,8
8,5,prac,1,A,circle.png,1,m,Mon Dec 01 2025 10:24:09 GMT-0500 (Eastern Standard Time),153212.5,1600,I,m,652,7,1,3039.0,150173.5,9038,NTS,C,9
4,6,prac,1,A,circle.png,1,z,Mon Dec 01 2025 10:24:09 GMT-0500 (Eastern Standard Time),156361.79999995232,1400,I,z,955,4,1,3136.0999999046326,153225.70000004768,9038,NTS,C,10
1,7,prac,1,A,circle.png,1,z,Mon Dec 01 2025 10:24:09 GMT-0500 (Eastern Standard Time),158845.79999995232,1000,I,z,685,1,1,2474.899999856949,156370.90000009537,9038,NTS,C,11
9,8,prac,1,A,circle.png,1,m,Mon Dec 01 2025 10:24:09 GMT-0500 (Eastern Standard Time),161795.90000009537,1500,I,m,661,8,1,2935.5,158860.40000009537,9038,NTS,C,12
2,1,prac,2,A,circle.png,1,z,Mon Dec 01 2025 10:24:09 GMT-0500 (Eastern Standard Time),180479.0,2000,I,z,700,2,1,3490.0999999046326,176988.90000009537,9038,NTS,C,1
8,2,prac,2,A,circle.png,1,m,Mon Dec 01 2025 10:24:09 GMT-0500 (Eastern Standard Time),183429.20000004768,1600,I,m,561,7,1,2938.7000000476837,180490.5,9038,NTS,C,2
7,3,prac,2,A,circle.png,1,m,Mon Dec 01 2025 10:24:09 GMT-0500 (Eastern Standard Time),186412.40000009537,1700,I,m,486,6,1,2971.100000143051,183441.29999995232,9038,NTS,C,3
9,4,prac,2,A,circle.png,1,m,Mon Dec 01 2025 10:24:09 GMT-0500 (Eastern Standard Time),189295.79999995232,1500,I,m,597,8,1,2872.2999999523163,186423.5,9038,NTS,C,4
2,5,prac,2,A,circle.png,1,z,Mon Dec 01 2025 10:24:09 GMT-0500 (Eastern Standard Time),192545.79999995232,2000,I,z,446,2,1,3228.899999856949,189316.90000009537,9038,NTS,C,5
6,6,prac,2,A,circle.png,1,m,Mon Dec 01 2025 10:24:09 GMT-0500 (Eastern Standard Time),195845.79999995232,1900,I,m,592,5,1,3279.2000000476837,192566.59999990463,9038,NTS,C,6
7,7,prac,2,A,circle.png,1,m,Mon Dec 01 2025 10:24:09 GMT-0500 (Eastern Standard Time),198879.09999990463,1700,I,m,533,6,1,3022.699999809265,195856.40000009537,9038,NTS,C,7
9,8,prac,2,A,circle.png,1,m,Mon Dec 01 2025 10:24:09 GMT-0500 (Eastern Standard Time),201695.70000004768,1500,I,m,516,8,1,2806.4000000953674,198889.29999995232,9038,NTS,C,8
3,9,prac,2,A,circle.png,1,z,Mon Dec 01 2025 10:24:09 GMT-0500 (Eastern Standard Time),204345.79999995232,1200,I,z,655,3,1,2638.899999856949,201706.90000009537,9038,NTS,C,9
1,10,prac,2,A,circle.png,1,z,Mon Dec 01 2025 10:24:09 GMT-0500 (Eastern Standard Time),206845.79999995232,1000,I,z,701,1,1,2487.0999999046326,204358.70000004768,9038,NTS,C,10
4,11,prac,2,A,circle.png,1,z,Mon Dec 01 2025 10:24:09 GMT-0500 (Eastern Standard Time),209812.40000009537,1400,I,z,777,4,1,2953.9000000953674,206858.5,9038,NTS,C,11
6,12,prac,2,A,circle.png,1,m,Mon Dec 01 2025 10:24:09 GMT-0500 (Eastern Standard Time),213162.40000009537,1900,I,m,654,5,1,3340.100000143051,209822.29999995232,9038,NTS,C,12
6,1,prac,1,B,triangle.png,1,m,Mon Dec 01 2025 10:24:09 GMT-0500 (Eastern Standard Time),264112.40000009537,1000,I,m,615,5,1,2388.800000190735,261723.59999990463,9038,NTS,C,1
7,2,prac,1,B,triangle.png,1,z,Mon Dec 01 2025 10:24:09 GMT-0500 (Eastern Standard Time),267712.2999999523,2000,I,z,815,6,1,3588.5999999046326,264123.7000000477,9038,NTS,C,2
8,3,prac,1,B,triangle.png,1,m,Mon Dec 01 2025 10:24:09 GMT-0500 (Eastern Standard Time),270329.0,1200,I,m,623,7,1,2606.7999999523163,267722.2000000477,9038,NTS,C,3
4,4,prac,1,B,triangle.png,1,m,Mon Dec 01 2025 10:24:09 GMT-0500 (Eastern Standard Time),273395.7999999523,1500,I,m,778,4,1,3054.899999856949,270340.90000009537,9038,NTS,C,4
7,5,prac,1,B,triangle.png,1,z,Mon Dec 01 2025 10:24:09 GMT-0500 (Eastern Standard Time),276829.0,2000,I,z,636,6,1,3422.2000000476837,273406.7999999523,9038,NTS,C,5
3,6,prac,1,B,triangle.png,1,z,Mon Dec 01 2025 10:24:09 GMT-0500 (Eastern Standard Time),279812.40000009537,1600,I,z,595,3,1,2972.2000000476837,276840.2000000477,9038,NTS,C,6
1,7,prac,1,B,triangle.png,1,z,Mon Dec 01 2025 10:24:09 GMT-0500 (Eastern Standard Time),283162.2999999523,1900,I,z,655,1,1,3339.5,279822.7999999523,9038,NTS,C,7
2,8,prac,1,B,triangle.png,1,m,Mon Dec 01 2025 10:24:09 GMT-0500 (Eastern Standard Time),286612.2000000477,1700,I,m,961,2,1,3437.100000143051,283175.09999990463,9038,NTS,C,8
9,9,prac,1,B,triangle.png,1,z,Mon Dec 01 2025 10:24:09 GMT-0500 (Eastern Standard Time),289628.90000009537,1400,I,z,819,8,1,3005.4000000953674,286623.5,9038,NTS,C,9
9,10,prac,1,B,triangle.png,1,z,Mon Dec 01 2025 10:24:09 GMT-0500 (Eastern Standard Time),292545.7000000477,1400,I,z,731,8,1,2906.7000000476837,289639.0,9038,NTS,C,10
1,11,prac,1,B,triangle.png,1,z,Mon Dec 01 2025 10:24:09 GMT-0500 (Eastern Standard Time),296112.2999999523,1900,I,z,866,1,1,3556.0999999046326,292556.2000000477,9038,NTS,C,11
6,12,prac,1,B,triangle.png,1,m,Mon Dec 01 2025 10:24:09 GMT-0500 (Eastern Standard Time),299162.2999999523,1000,I,m,1255,5,1,3036.899999856949,296125.40000009537,9038,NTS,C,12
1,1,test,1,A,circle.png,1,z,Mon Dec 01 2025 10:24:09 GMT-0500 (Eastern Standard Time),345128.7999999523,1000,I,z,924,1,1,1942.2000000476837,343186.59999990463,9038,NTS,C,1
7,2,test,1,A,circle.png,1,m,Mon Dec 01 2025 10:24:09 GMT-0500 (Eastern Standard Time),347678.7000000477,1700,I,m,816,6,1,2540.2999999523163,345138.40000009537,9038,NTS,C,2
7,3,test,1,A,circle.png,1,m,Mon Dec 01 2025 10:24:09 GMT-0500 (Eastern Standard Time),350128.7999999523,1700,I,m,716,6,1,2439.7000000476837,347689.09999990463,9038,NTS,C,3
3,4,test,1,A,circle.png,1,z,Mon Dec 01 2025 10:24:09 GMT-0500 (Eastern Standard Time),352045.40000009537,1200,I,z,685,3,1,1908.3000001907349,350137.09999990463,9038,NTS,C,4
4,5,test,1,A,circle.png,1,z,Mon Dec 01 2025 10:24:09 GMT-0500 (Eastern Standard Time),354145.40000009537,1400,I,z,665,4,1,2091.100000143051,352054.2999999523,9038,NTS,C,5
7,6,test,1,A,circle.png,1,m,Mon Dec 01 2025 10:24:09 GMT-0500 (Eastern Standard Time),356428.7999999523,1700,I,m,552,6,1,2274.0999999046326,354154.7000000477,9038,NTS,C,6
3,7,test,1,A,circle.png,1,z,Mon Dec 01 2025 10:24:09 GMT-0500 (Eastern Standard Time),358262.0,1200,I,z,610,3,1,1824.0,356438.0,9038,NTS,C,7
8,8,test,1,A,circle.png,1,m,Mon Dec 01 2025 10:24:09 GMT-0500 (Eastern Standard Time),360428.7000000477,1600,I,m,538,7,1,2156.4000000953674,358272.2999999523,9038,NTS,C,8
3,9,test,1,A,circle.png,1,z,Mon Dec 01 2025 10:24:09 GMT-0500 (Eastern Standard Time),362645.2999999523,1200,I,z,993,3,1,2207.5999999046326,360437.7000000477,9038,NTS,C,9
1,10,test,1,A,circle.png,1,z,Mon Dec 01 2025 10:24:09 GMT-0500 (Eastern Standard Time),364262.09999990463,1000,I,z,593,1,1,1607.8999998569489,362654.2000000477,9038,NTS,C,10
9,11,test,1,A,circle.png,1,m,Mon Dec 01 2025 10:24:09 GMT-0500 (Eastern Standard Time),366228.7000000477,1500,I,m,445,8,1,1957.2999999523163,364271.40000009537,9038,NTS,C,11
4,12,test,1,A,circle.png,1,z,Mon Dec 01 2025 10:24:09 GMT-0500 (Eastern Standard Time),368195.2999999523,1400,I,z,546,4,1,1957.0999999046326,366238.2000000477,9038,NTS,C,12
1,13,test,1,A,circle.png,1,z,Mon Dec 01 2025 10:24:09 GMT-0500 (Eastern Standard Time),369745.2999999523,1000,I,z,532,1,1,1537.5999999046326,368207.7000000477,9038,NTS,C,13
6,14,test,1,A,circle.png,1,m,Mon Dec 01 2025 10:24:09 GMT-0500 (Eastern Standard Time),372462.09999990463,1900,I,m,786,5,1,2708.5,369753.59999990463,9038,NTS,C,14
2,15,test,1,A,circle.png,1,z,Mon Dec 01 2025 10:24:09 GMT-0500 (Eastern Standard Time),375112.0,2000,I,z,624,2,1,2640.0,372472.0,9038,NTS,C,15
9,16,test,1,A,circle.png,1,m,Mon Dec 01 2025 10:24:09 GMT-0500 (Eastern Standard Time),377228.7000000477,1500,I,m,587,8,1,2108.7999999523163,375119.90000009537,9038,NTS,C,16
8,17,test,1,A,circle.png,1,m,Mon Dec 01 2025 10:24:09 GMT-0500 (Eastern Standard Time),379445.40000009537,1600,I,m,592,7,1,2207.4000000953674,377238.0,9038,NTS,C,17
9,18,test,1,A,circle.png,1,m,Mon Dec 01 2025 10:24:09 GMT-0500 (Eastern Standard Time),381462.0,1500,I,m,494,8,1,2002.9000000953674,379459.09999990463,9038,NTS,C,18
8,19,test,1,A,circle.png,1,m,Mon Dec 01 2025 10:24:09 GMT-0500 (Eastern Standard Time),383478.7000000477,1600,I,m,392,7,1,2007.7999999523163,381470.90000009537,9038,NTS,C,19
6,20,test,1,A,circle.png,1,m,Mon Dec 01 2025 10:24:09 GMT-0500 (Eastern Standard Time),386128.7999999523,1900,I,m,716,5,1,2641.399999856949,383487.40000009537,9038,NTS,C,20
3,21,test,1,A,circle.png,1,z,Mon Dec 01 2025 10:24:09 GMT-0500 (Eastern Standard Time),387895.40000009537,1200,I,z,541,3,1,1755.8000001907349,386139.59999990463,9038,NTS,C,21
6,22,test,1,A,circle.png,1,m,Mon Dec 01 2025 10:24:09 GMT-0500 (Eastern Standard Time),390278.5,1900,I,m,459,5,1,2372.4000000953674,387906.09999990463,9038,NTS,C,22
2,23,test,1,A,circle.png,1,z,Mon Dec 01 2025 10:24:09 GMT-0500 (Eastern Standard Time),392945.5,2000,I,z,632,2,1,2656.5999999046326,390288.90000009537,9038,NTS,C,23
2,24,test,1,A,circle.png,1,z,Mon Dec 01 2025 10:24:09 GMT-0500 (Eastern Standard Time),395528.59999990463,2000,I,z,557,2,1,2572.2999999523163,392956.2999999523,9038,NTS,C,24
6,1,test,1,B,triangle.png,1,m,Mon Dec 01 2025 10:24:09 GMT-0500 (Eastern Standard Time),422695.2999999523,1000,I,m,776,5,1,1792.3999998569489,420902.90000009537,9038,NTS,C,1
6,2,test,1,B,triangle.png,1,m,Mon Dec 01 2025 10:24:09 GMT-0500 (Eastern Standard Time),424778.59999990463,1500,I,m,556,13,1,2072.0,422706.59999990463,9038,NTS,C,2
3,3,test,1,B,triangle.png,1,z,Mon Dec 01 2025 10:24:09 GMT-0500 (Eastern Standard Time),426878.7000000477,1600,I,z,469,3,1,2091.5,424787.2000000477,9038,NTS,C,3
8,4,test,1,B,triangle.png,1,m,Mon Dec 01 2025 10:24:09 GMT-0500 (Eastern Standard Time),428995.2999999523,1700,I,m,397,15,1,2107.7999999523163,426887.5,9038,NTS,C,4
4,5,test,1,B,triangle.png,1,m,Mon Dec 01 2025 10:24:09 GMT-0500 (Eastern Standard Time),431028.59999990463,1500,I,m,512,4,1,2024.0,429004.59999990463,9038,NTS,C,5
7,6,test,1,B,triangle.png,1,z,Mon Dec 01 2025 10:24:09 GMT-0500 (Eastern Standard Time),433745.09999990463,2000,I,z,699,6,1,2707.899999856949,431037.2000000477,9038,NTS,C,6
6,7,test,1,B,triangle.png,1,m,Mon Dec 01 2025 10:24:09 GMT-0500 (Eastern Standard Time),435578.5,1000,I,m,807,5,1,1823.0999999046326,433755.40000009537,9038,NTS,C,7
8,8,test,1,B,triangle.png,1,m,Mon Dec 01 2025 10:24:09 GMT-0500 (Eastern Standard Time),437345.2999999523,1200,I,m,533,7,1,1757.5,435587.7999999523,9038,NTS,C,8
2,9,test,1,B,triangle.png,1,m,Mon Dec 01 2025 10:24:09 GMT-0500 (Eastern Standard Time),439245.2999999523,1200,I,m,670,10,1,1890.7999999523163,437354.5,9038,NTS,C,9
6,10,test,1,B,triangle.png,1,m,Mon Dec 01 2025 10:24:09 GMT-0500 (Eastern Standard Time),441395.2999999523,1500,I,m,630,13,1,2139.2000000476837,439256.09999990463,9038,NTS,C,10
3,11,test,1,B,triangle.png,1,z,Mon Dec 01 2025 10:24:09 GMT-0500 (Eastern Standard Time),443978.7000000477,2000,I,z,556,11,1,2574.2000000476837,441404.5,9038,NTS,C,11
1,12,test,1,B,triangle.png,1,z,Mon Dec 01 2025 10:24:09 GMT-0500 (Eastern Standard Time),445945.09999990463,1400,I,z,541,9,1,1957.1999998092651,443987.90000009537,9038,NTS,C,12
4,13,test,1,B,triangle.png,1,m,Mon Dec 01 2025 10:24:09 GMT-0500 (Eastern Standard Time),447578.59999990463,1000,I,m,606,12,1,1623.1999998092651,445955.40000009537,9038,NTS,C,13
7,13,test,1,B,triangle.png,0,z,Mon Dec 01 2025 10:24:09 GMT-0500 (Eastern Standard Time),449745.2999999523,1600,I,m,533,14,1,2157.5,447587.7999999523,9038,NTS,C,14
2,14,test,1,B,triangle.png,1,m,Mon Dec 01 2025 10:24:09 GMT-0500 (Eastern Standard Time),452245.2999999523,1700,I,m,778,2,1,2489.2000000476837,449756.09999990463,9038,NTS,C,15
8,15,test,1,B,triangle.png,1,m,Mon Dec 01 2025 10:24:09 GMT-0500 (Eastern Standard Time),454545.2000000477,1700,I,m,582,15,1,2289.2000000476837,452256.0,9038,NTS,C,16
2,16,test,1,B,triangle.png,1,m,Mon Dec 01 2025 10:24:09 GMT-0500 (Eastern Standard Time),456945.09999990463,1700,I,m,683,2,1,2388.7999999523163,454556.2999999523,9038,NTS,C,17
9,17,test,1,B,triangle.png,1,z,Mon Dec 01 2025 10:24:09 GMT-0500 (Eastern Standard Time),459512.0,1900,I,z,642,16,1,2558.9000000953674,456953.09999990463,9038,NTS,C,18
3,18,test,1,B,triangle.png,1,z,Mon Dec 01 2025 10:24:09 GMT-0500 (Eastern Standard Time),461728.7000000477,1600,I,z,584,3,1,2208.2000000476837,459520.5,9038,NTS,C,19
3,19,test,1,B,triangle.png,1,z,Mon Dec 01 2025 10:24:09 GMT-0500 (Eastern Standard Time),464328.59999990463,2000,I,z,575,11,1,2590.7999999523163,461737.7999999523,9038,NTS,C,20
8,20,test,1,B,triangle.png,1,m,Mon Dec 01 2025 10:24:09 GMT-0500 (Eastern Standard Time),466078.59999990463,1200,I,m,518,7,1,1741.0999999046326,464337.5,9038,NTS,C,21
9,21,test,1,B,triangle.png,1,z,Mon Dec 01 2025 10:24:09 GMT-0500 (Eastern Standard Time),468245.09999990463,1400,I,z,744,8,1,2156.2999999523163,466088.7999999523,9038,NTS,C,22
2,22,test,1,B,triangle.png,1,m,Mon Dec 01 2025 10:24:09 GMT-0500 (Eastern Standard Time),470078.7000000477,1200,I,m,602,10,1,1823.1000001430511,468255.59999990463,9038,NTS,C,23
1,23,test,1,B,triangle.png,1,z,Mon Dec 01 2025 10:24:09 GMT-0500 (Eastern Standard Time),472595.0,1900,I,z,597,1,1,2507.5999999046326,470087.40000009537,9038,NTS,C,24
6,1,prac,1,C,circle.png,1,m,Mon Dec 01 2025 10:24:09 GMT-0500 (Eastern Standard Time),525628.7000000477,2000,I,m,1286,5,1,4076.7999999523163,521551.90000009537,9038,NTS,C,1
2,1,prac,1,C,triangle.png,0,m,Mon Dec 01 2025 10:24:09 GMT-0500 (Eastern Standard Time),528628.5999999046,1600,I,z,611,2,1,2986.2999999523163,525642.2999999523,9038,NTS,C,2
2,2,prac,1,C,triangle.png,1,m,Mon Dec 01 2025 10:24:09 GMT-0500 (Eastern Standard Time),531795.4000000954,1600,I,m,778,2,1,3155.600000143051,528639.7999999523,9038,NTS,C,3
7,2,prac,1,C,triangle.png,0,z,Mon Dec 01 2025 10:24:09 GMT-0500 (Eastern Standard Time),534845.4000000954,1200,I,m,1052,6,1,3039.4000000953674,531806.0,9038,NTS,C,4
8,3,prac,1,C,triangle.png,1,m,Mon Dec 01 2025 10:24:09 GMT-0500 (Eastern Standard Time),538445.4000000954,1400,I,m,1401,7,1,3590.0,534855.4000000954,9038,NTS,C,5
3,4,prac,1,C,triangle.png,1,z,Mon Dec 01 2025 10:24:09 GMT-0500 (Eastern Standard Time),542012.0,1500,I,z,1271,3,1,3554.0999999046326,538457.9000000954,9038,NTS,C,6
9,5,prac,1,C,circle.png,1,m,Mon Dec 01 2025 10:24:09 GMT-0500 (Eastern Standard Time),545662.0,1900,I,m,952,8,1,3638.0999999046326,542023.9000000954,9038,NTS,C,7
6,6,prac,1,C,circle.png,1,m,Mon Dec 01 2025 10:24:09 GMT-0500 (Eastern Standard Time),549178.5999999046,2000,I,m,721,5,1,3506.2999999523163,545672.2999999523,9038,NTS,C,8
8,6,prac,1,C,triangle.png,0,m,Mon Dec 01 2025 10:24:09 GMT-0500 (Eastern Standard Time),552878.5999999046,1400,I,None,1516,7,1,3690.199999809265,549188.4000000954,9038,NTS,C,9
3,7,prac,1,C,triangle.png,1,z,Mon Dec 01 2025 10:24:09 GMT-0500 (Eastern Standard Time),555828.5,1500,I,z,660,3,1,2938.7000000476837,552889.7999999523,9038,NTS,C,10
1,7,prac,1,C,circle.png,0,z,Mon Dec 01 2025 10:24:09 GMT-0500 (Eastern Standard Time),559828.5,1700,I,None,1516,1,1,3990.5,555838.0,9038,NTS,C,11
4,7,prac,1,C,circle.png,0,z,Mon Dec 01 2025 10:24:09 GMT-0500 (Eastern Standard Time),563128.5999999046,1000,I,None,1516,4,1,3288.7999999523163,559839.7999999523,9038,NTS,C,12
3,1,prac,2,C,triangle.png,1,z,Mon Dec 01 2025 10:24:09 GMT-0500 (Eastern Standard Time),582078.5,1500,I,z,1200,3,1,3490.0,578588.5,9038,NTS,C,1
7,2,prac,2,C,triangle.png,1,z,Mon Dec 01 2025 10:24:09 GMT-0500 (Eastern Standard Time),585162.0,1200,I,z,1089,6,1,3071.2999999523163,582090.7000000477,9038,NTS,C,2
1,3,prac,2,C,circle.png,1,z,Mon Dec 01 2025 10:24:09 GMT-0500 (Eastern Standard Time),588845.2999999523,1700,I,z,1185,1,1,3670.2000000476837,585175.0999999046,9038,NTS,C,3
6,4,prac,2,C,circle.png,1,m,Mon Dec 01 2025 10:24:09 GMT-0500 (Eastern Standard Time),592495.2999999523,2000,I,m,850,5,1,3638.7000000476837,588856.5999999046,9038,NTS,C,4
9,5,prac,2,C,circle.png,1,m,Mon Dec 01 2025 10:24:09 GMT-0500 (Eastern Standard Time),596511.9000000954,1900,I,m,1333,8,1,4006.300000190735,592505.5999999046,9038,NTS,C,5
4,5,prac,2,C,circle.png,0,z,Mon Dec 01 2025 10:24:09 GMT-0500 (Eastern Standard Time),599211.7999999523,1000,I,m,903,4,1,2688.7999999523163,596523.0,9038,NTS,C,6
8,5,prac,2,C,triangle.png,0,m,Mon Dec 01 2025 10:24:09 GMT-0500 (Eastern Standard Time),602911.9000000954,1400,I,None,1516,7,1,3687.300000190735,599224.5999999046,9038,NTS,C,7
9,6,prac,2,C,circle.png,1,m,Mon Dec 01 2025 10:24:09 GMT-0500 (Eastern Standard Time),606595.2999999523,1900,I,m,996,8,1,3672.2000000476837,602923.0999999046,9038,NTS,C,8
3,7,prac,2,C,triangle.png,1,z,Mon Dec 01 2025 10:24:09 GMT-0500 (Eastern Standard Time),609478.5999999046,1500,I,z,592,3,1,2870.7999999523163,606607.7999999523,9038,NTS,C,9
7,8,prac,2,C,triangle.png,1,z,Mon Dec 01 2025 10:24:09 GMT-0500 (Eastern Standard Time),612161.9000000954,1200,I,z,696,6,1,2672.4000000953674,609489.5,9038,NTS,C,10
2,8,prac,2,C,triangle.png,0,m,Mon Dec 01 2025 10:24:09 GMT-0500 (Eastern Standard Time),615561.9000000954,1600,I,z,1005,2,1,3387.2000000476837,612174.7000000477,9038,NTS,C,11
1,8,prac,2,C,circle.png,0,z,Mon Dec 01 2025 10:24:09 GMT-0500 (Eastern Standard Time),619011.9000000954,1700,I,m,963,1,1,3438.100000143051,615573.7999999523,9038,NTS,C,12
8,1,test,1,C,triangle.png,1,m,Mon Dec 01 2025 10:24:09 GMT-0500 (Eastern Standard Time),687611.7999999523,1600,I,m,1104,7,1,2725.899999856949,684885.9000000954,9038,NTS,C,1
2,2,test,1,C,circle.png,1,z,Mon Dec 01 2025 10:24:09 GMT-0500 (Eastern Standard Time),690811.7000000477,1700,I,z,1471,10,1,3190.2999999523163,687621.4000000954,9038,NTS,C,2
9,2,test,1,C,triangle.png,0,z,Mon Dec 01 2025 10:24:09 GMT-0500 (Eastern Standard Time),693745.0999999046,1400,I,None,1516,16,1,2924.5,690820.5999999046,9038,NTS,C,3
8,3,test,1,C,circle.png,1,m,Mon Dec 01 2025 10:24:09 GMT-0500 (Eastern Standard Time),695611.7000000477,1200,I,m,639,15,1,1857.5,693754.2000000477,9038,NTS,C,4
3,4,test,1,C,triangle.png,1,z,Mon Dec 01 2025 10:24:09 GMT-0500 (Eastern Standard Time),697611.7999999523,1200,I,z,771,3,1,1989.0999999046326,695622.7000000477,9038,NTS,C,5
3,5,test,1,C,circle.png,1,z,Mon Dec 01 2025 10:24:09 GMT-0500 (Eastern Standard Time),699744.7999999523,1600,I,z,515,19,1,2122.0,697622.7999999523,9038,NTS,C,6
4,5,test,1,C,triangle.png,0,m,Mon Dec 01 2025 10:24:09 GMT-0500 (Eastern Standard Time),702778.4000000954,1500,I,None,1516,12,1,3026.300000190735,699752.0999999046,9038,NTS,C,7
1,5,test,1,C,circle.png,0,z,Mon Dec 01 2025 10:24:09 GMT-0500 (Eastern Standard Time),704945.0,1000,I,m,1132,1,1,2158.9000000953674,702786.0999999046,9038,NTS,C,8
7,5,test,1,C,triangle.png,0,z,Mon Dec 01 2025 10:24:09 GMT-0500 (Eastern Standard Time),707245.0999999046,1700,I,m,571,22,1,2290.5,704954.5999999046,9038,NTS,C,9
3,6,test,1,C,circle.png,1,z,Mon Dec 01 2025 10:24:09 GMT-0500 (Eastern Standard Time),709761.4000000954,1600,I,z,898,11,1,2505.7000000476837,707255.7000000477,9038,NTS,C,10
8,7,test,1,C,triangle.png,1,m,Mon Dec 01 2025 10:24:09 GMT-0500 (Eastern Standard Time),712628.4000000954,1600,I,m,1245,23,1,2858.300000190735,709770.0999999046,9038,NTS,C,11
1,8,test,1,C,triangle.png,1,z,Mon Dec 01 2025 10:24:09 GMT-0500 (Eastern Standard Time),715278.4000000954,1900,I,z,718,9,1,2641.0,712637.4000000954,9038,NTS,C,12
6,9,test,1,C,circle.png,1,m,Mon Dec 01 2025 10:24:09 GMT-0500 (Eastern Standard Time),718111.7000000477,1900,I,m,901,5,1,2825.2999999523163,715286.4000000954,9038,NTS,C,13
7,10,test,1,C,triangle.png,1,z,Mon Dec 01 2025 10:24:09 GMT-0500 (Eastern Standard Time),720661.7000000477,1700,I,z,827,6,1,2540.7999999523163,718120.9000000954,9038,NTS,C,14
9,11,test,1,C,circle.png,1,m,Mon Dec 01 2025 10:24:09 GMT-0500 (Eastern Standard Time),722944.9000000954,1500,I,m,766,8,1,2273.5,720671.4000000954,9038,NTS,C,15
6,12,test,1,C,circle.png,1,m,Mon Dec 01 2025 10:24:09 GMT-0500 (Eastern Standard Time),725711.5999999046,1900,I,m,834,21,1,2759.699999809265,722951.9000000954,9038,NTS,C,16
9,12,test,1,C,circle.png,0,m,Mon Dec 01 2025 10:24:09 GMT-0500 (Eastern Standard Time),728328.5,1500,I,z,1092,24,1,2606.4000000953674,725722.0999999046,9038,NTS,C,17
2,12,test,1,C,circle.png,0,z,Mon Dec 01 2025 10:24:09 GMT-0500 (Eastern Standard Time),730895.0,1700,I,m,834,18,1,2557.2999999523163,728337.7000000477,9038,NTS,C,18
1,13,test,1,C,triangle.png,1,z,Mon Dec 01 2025 10:24:09 GMT-0500 (Eastern Standard Time),733744.9000000954,1900,I,z,932,17,1,2842.100000143051,730902.7999999523,9038,NTS,C,19
2,13,test,1,C,triangle.png,0,m,Mon Dec 01 2025 10:24:09 GMT-0500 (Eastern Standard Time),736778.2000000477,2000,I,z,1006,2,1,3025.100000143051,733753.0999999046,9038,NTS,C,20
4,13,test,1,C,triangle.png,0,m,Mon Dec 01 2025 10:24:09 GMT-0500 (Eastern Standard Time),739811.5999999046,1500,I,None,1515,20,1,3022.899999856949,736788.7000000477,9038,NTS,C,21
6,14,test,1,C,triangle.png,1,m,Mon Dec 01 2025 10:24:09 GMT-0500 (Eastern Standard Time),741744.9000000954,1000,I,m,915,13,1,1924.2000000476837,739820.7000000477,9038,NTS,C,22
4,15,test,1,C,circle.png,1,z,Mon Dec 01 2025 10:24:09 GMT-0500 (Eastern Standard Time),744511.5,1400,I,z,1334,4,1,2756.9000000953674,741754.5999999046,9038,NTS,C,23
7,16,test,1,C,circle.png,1,m,Mon Dec 01 2025 10:24:09 GMT-0500 (Eastern Standard Time),747845.0,2000,I,m,1311,14,1,3324.7000000476837,744520.2999999523,9038,NTS,C,24
8,1,test,2,C,circle.png,1,m,Mon Dec 01 2025 10:24:09 GMT-0500 (Eastern Standard Time),761394.7000000477,1200,I,m,647,23,1,1858.2999999523163,759536.4000000954,9038,NTS,C,1
2,2,test,2,C,triangle.png,1,m,Mon Dec 01 2025 10:24:09 GMT-0500 (Eastern Standard Time),764361.5999999046,2000,I,m,940,2,1,2962.0999999046326,761399.5,9038,NTS,C,2
6,3,test,2,C,triangle.png,1,m,Mon Dec 01 2025 10:24:09 GMT-0500 (Eastern Standard Time),766078.2999999523,1000,I,m,685,13,1,1706.0999999046326,764372.2000000477,9038,NTS,C,3
2,4,test,2,C,circle.png,1,z,Mon Dec 01 2025 10:24:09 GMT-0500 (Eastern Standard Time),768694.9000000954,1700,I,z,893,10,1,2605.2000000476837,766089.7000000477,9038,NTS,C,4
8,5,test,2,C,circle.png,1,m,Mon Dec 01 2025 10:24:09 GMT-0500 (Eastern Standard Time),770594.5999999046,1200,I,m,680,15,1,1888.5999999046326,768706.0,9038,NTS,C,5
1,6,test,2,C,triangle.png,1,z,Mon Dec 01 2025 10:24:09 GMT-0500 (Eastern Standard Time),773144.9000000954,1900,I,z,624,17,1,2542.300000190735,770602.5999999046,9038,NTS,C,6
6,7,test,2,C,circle.png,1,m,Mon Dec 01 2025 10:24:09 GMT-0500 (Eastern Standard Time),775811.5999999046,1900,I,m,746,5,1,2657.7999999523163,773153.7999999523,9038,NTS,C,7
3,8,test,2,C,circle.png,1,z,Mon Dec 01 2025 10:24:09 GMT-0500 (Eastern Standard Time),778445.0,1600,I,z,1003,11,1,2623.7999999523163,775821.2000000477,9038,NTS,C,8
3,9,test,2,C,triangle.png,1,z,Mon Dec 01 2025 10:24:09 GMT-0500 (Eastern Standard Time),780628.2999999523,1200,I,z,963,3,1,2174.399999856949,778453.9000000954,9038,NTS,C,9
4,9,test,2,C,triangle.png,0,m,Mon Dec 01 2025 10:24:09 GMT-0500 (Eastern Standard Time),783661.5999999046,1500,I,None,1517,12,1,3023.0,780638.5999999046,9038,NTS,C,10
6,10,test,2,C,triangle.png,1,m,Mon Dec 01 2025 10:24:09 GMT-0500 (Eastern Standard Time),785945.0,1000,I,m,1257,21,1,2274.4000000953674,783670.5999999046,9038,NTS,C,11
1,11,test,2,C,circle.png,1,z,Mon Dec 01 2025 10:24:09 GMT-0500 (Eastern Standard Time),788194.7999999523,1000,I,z,1230,1,1,2239.5999999046326,785955.2000000477,9038,NTS,C,12
8,12,test,2,C,triangle.png,1,m,Mon Dec 01 2025 10:24:09 GMT-0500 (Eastern Standard Time),791311.5,1600,I,m,1484,7,1,3108.0999999046326,788203.4000000954,9038,NTS,C,13
4,13,test,2,C,circle.png,1,z,Mon Dec 01 2025 10:24:09 GMT-0500 (Eastern Standard Time),793978.2000000477,1400,I,z,1239,4,1,2655.4000000953674,791322.7999999523,9038,NTS,C,14
9,14,test,2,C,circle.png,1,m,Mon Dec 01 2025 10:24:09 GMT-0500 (Eastern Standard Time),796661.5999999046,1500,I,m,1161,8,1,2674.399999856949,793987.2000000477,9038,NTS,C,15
1,15,test,2,C,triangle.png,1,z,Mon Dec 01 2025 10:24:09 GMT-0500 (Eastern Standard Time),799278.0,1900,I,z,685,9,1,2607.0,796671.0,9038,NTS,C,16
7,16,test,2,C,circle.png,1,m,Mon Dec 01 2025 10:24:09 GMT-0500 (Eastern Standard Time),802344.9000000954,2000,I,m,1041,14,1,3057.800000190735,799287.0999999046,9038,NTS,C,17
7,17,test,2,C,circle.png,1,m,Mon Dec 01 2025 10:24:09 GMT-0500 (Eastern Standard Time),804945.0,2000,I,m,566,22,1,2590.0999999046326,802354.9000000954,9038,NTS,C,18
4,18,test,2,C,triangle.png,1,m,Mon Dec 01 2025 10:24:09 GMT-0500 (Eastern Standard Time),807644.9000000954,1500,I,m,1170,20,1,2691.9000000953674,804953.0,9038,NTS,C,19
2,19,test,2,C,circle.png,1,z,Mon Dec 01 2025 10:24:09 GMT-0500 (Eastern Standard Time),809944.9000000954,1700,I,z,574,18,1,2291.100000143051,807653.7999999523,9038,NTS,C,20
9,19,test,2,C,triangle.png,0,z,Mon Dec 01 2025 10:24:09 GMT-0500 (Eastern Standard Time),812878.4000000954,1400,I,None,1516,16,1,2923.2000000476837,809955.2000000477,9038,NTS,C,21
9,19,test,2,C,triangle.png,0,z,Mon Dec 01 2025 10:24:09 GMT-0500 (Eastern Standard Time),814911.5,1400,I,m,601,24,1,2022.4000000953674,812889.0999999046,9038,NTS,C,22
3,20,test,2,C,circle.png,1,z,Mon Dec 01 2025 10:24:09 GMT-0500 (Eastern Standard Time),817344.9000000954,1600,I,z,815,19,1,2424.4000000953674,814920.5,9038,NTS,C,23
7,20,test,2,C,triangle.png,0,z,Mon Dec 01 2025 10:24:09 GMT-0500 (Eastern Standard Time),819878.2000000477,1700,I,m,810,6,1,2523.9000000953674,817354.2999999523,9038,NTS,C,24
3,1,test,3,C,circle.png,1,z,Mon Dec 01 2025 10:24:09 GMT-0500 (Eastern Standard Time),833978.4000000954,1600,I,z,889,11,1,2509.100000143051,831469.2999999523,9038,NTS,C,1
3,2,test,3,C,triangle.png,1,z,Mon Dec 01 2025 10:24:09 GMT-0500 (Eastern Standard Time),836161.2000000477,1200,I,z,964,3,1,2173.0,833988.2000000477,9038,NTS,C,2
4,2,test,3,C,circle.png,0,z,Mon Dec 01 2025 10:24:09 GMT-0500 (Eastern Standard Time),838144.7999999523,1400,I,m,565,4,1,1975.2000000476837,836169.5999999046,9038,NTS,C,3
9,3,test,3,C,triangle.png,1,z,Mon Dec 01 2025 10:24:09 GMT-0500 (Eastern Standard Time),840461.5999999046,1400,I,z,886,16,1,2308.199999809265,838153.4000000954,9038,NTS,C,4
9,4,test,3,C,circle.png,1,m,Mon Dec 01 2025 10:24:09 GMT-0500 (Eastern Standard Time),842878.2000000477,1500,I,m,885,8,1,2407.9000000953674,840470.2999999523,9038,NTS,C,5
2,5,test,3,C,triangle.png,1,m,Mon Dec 01 2025 10:24:09 GMT-0500 (Eastern Standard Time),845794.7999999523,2000,I,m,897,2,1,2907.2999999523163,842887.5,9038,NTS,C,6
7,6,test,3,C,triangle.png,1,z,Mon Dec 01 2025 10:24:09 GMT-0500 (Eastern Standard Time),848261.5,1700,I,z,744,6,1,2455.5999999046326,845805.9000000954,9038,NTS,C,7
2,7,test,3,C,triangle.png,1,m,Mon Dec 01 2025 10:24:09 GMT-0500 (Eastern Standard Time),851094.7999999523,2000,I,m,809,18,1,2824.5,848270.2999999523,9038,NTS,C,8
7,8,test,3,C,triangle.png,1,z,Mon Dec 01 2025 10:24:09 GMT-0500 (Eastern Standard Time),854028.0999999046,1700,I,z,1205,22,1,2922.899999856949,851105.2000000477,9038,NTS,C,9
6,9,test,3,C,circle.png,1,m,Mon Dec 01 2025 10:24:09 GMT-0500 (Eastern Standard Time),856744.7999999523,1900,I,m,791,21,1,2706.399999856949,854038.4000000954,9038,NTS,C,10
6,9,test,3,C,triangle.png,0,m,Mon Dec 01 2025 10:24:09 GMT-0500 (Eastern Standard Time),858461.5999999046,1000,I,z,686,13,1,1707.7999999523163,856753.7999999523,9038,NTS,C,11
4,9,test,3,C,circle.png,0,z,Mon Dec 01 2025 10:24:09 GMT-0500 (Eastern Standard Time),860494.7999999523,1400,I,m,601,20,1,2023.8999998569489,858470.9000000954,9038,NTS,C,12
1,10,test,3,C,circle.png,1,z,Mon Dec 01 2025 10:24:09 GMT-0500 (Eastern Standard Time),862811.5,1000,I,z,1288,1,1,2305.7999999523163,860505.7000000477,9038,NTS,C,13
9,10,test,3,C,circle.png,0,m,Mon Dec 01 2025 10:24:09 GMT-0500 (Eastern Standard Time),865845.0,1500,I,None,1516,24,1,3021.0999999046326,862823.9000000954,9038,NTS,C,14
2,11,test,3,C,circle.png,1,z,Mon Dec 01 2025 10:24:09 GMT-0500 (Eastern Standard Time),868177.9000000954,1700,I,z,615,10,1,2324.2000000476837,865853.7000000477,9038,NTS,C,15
3,12,test,3,C,triangle.png,1,z,Mon Dec 01 2025 10:24:09 GMT-0500 (Eastern Standard Time),870144.9000000954,1200,I,z,749,19,1,1958.7000000476837,868186.2000000477,9038,NTS,C,16
4,12,test,3,C,triangle.png,0,m,Mon Dec 01 2025 10:24:09 GMT-0500 (Eastern Standard Time),872678.0999999046,1500,I,z,1010,12,1,2522.399999856949,870155.7000000477,9038,NTS,C,17
6,13,test,3,C,circle.png,1,m,Mon Dec 01 2025 10:24:09 GMT-0500 (Eastern Standard Time),875144.7999999523,1900,I,m,524,5,1,2451.7000000476837,872693.0999999046,9038,NTS,C,18
1,14,test,3,C,circle.png,1,z,Mon Dec 01 2025 10:24:09 GMT-0500 (Eastern Standard Time),876844.9000000954,1000,I,z,670,17,1,1689.8000001907349,875155.0999999046,9038,NTS,C,19
8,15,test,3,C,triangle.png,1,m,Mon Dec 01 2025 10:24:09 GMT-0500 (Eastern Standard Time),879461.4000000954,1600,I,m,995,7,1,2605.800000190735,876855.5999999046,9038,NTS,C,20
8,16,test,3,C,triangle.png,1,m,Mon Dec 01 2025 10:24:09 GMT-0500 (Eastern Standard Time),881744.9000000954,1600,I,m,649,23,1,2274.800000190735,879470.0999999046,9038,NTS,C,21
8,17,test,3,C,circle.png,1,m,Mon Dec 01 2025 10:24:09 GMT-0500 (Eastern Standard Time),884094.7999999523,1200,I,m,1118,15,1,2341.2000000476837,881753.5999999046,9038,NTS,C,22
1,18,test,3,C,triangle.png,1,z,Mon Dec 01 2025 10:24:09 GMT-0500 (Eastern Standard Time),886628.0999999046,1900,I,z,612,9,1,2523.7999999523163,884104.2999999523,9038,NTS,C,23
7,19,test,3,C,circle.png,1,m,Mon Dec 01 2025 10:24:09 GMT-0500 (Eastern Standard Time),889494.7000000477,2000,I,m,844,14,1,2855.100000143051,886639.5999999046,9038,NTS,C,24
1,1,test,4,C,circle.png,1,z,Mon Dec 01 2025 10:24:09 GMT-0500 (Eastern Standard Time),904178.2000000477,1000,I,z,847,17,1,1851.7999999523163,902326.4000000954,9038,NTS,C,1
8,2,test,4,C,triangle.png,1,m,Mon Dec 01 2025 10:24:09 GMT-0500 (Eastern Standard Time),906878.0999999046,1600,I,m,1069,23,1,2689.199999809265,904188.9000000954,9038,NTS,C,2
6,3,test,4,C,circle.png,1,m,Mon Dec 01 2025 10:24:09 GMT-0500 (Eastern Standard Time),909411.4000000954,1900,I,m,613,5,1,2524.100000143051,906887.2999999523,9038,NTS,C,3
8,3,test,4,C,triangle.png,0,m,Mon Dec 01 2025 10:24:09 GMT-0500 (Eastern Standard Time),911744.5999999046,1600,I,z,715,7,1,2322.699999809265,909421.9000000954,9038,NTS,C,4
7,4,test,4,C,circle.png,1,m,Mon Dec 01 2025 10:24:09 GMT-0500 (Eastern Standard Time),914594.7000000477,2000,I,m,830,14,1,2842.7999999523163,911751.9000000954,9038,NTS,C,5
3,4,test,4,C,circle.png,0,z,Mon Dec 01 2025 10:24:09 GMT-0500 (Eastern Standard Time),916961.2000000477,1600,I,m,748,11,1,2356.7000000476837,914604.5,9038,NTS,C,6
8,5,test,4,C,circle.png,1,m,Mon Dec 01 2025 10:24:09 GMT-0500 (Eastern Standard Time),918961.2000000477,1200,I,m,781,15,1,1989.4000000953674,916971.7999999523,9038,NTS,C,7
1,6,test,4,C,circle.png,1,z,Mon Dec 01 2025 10:24:09 GMT-0500 (Eastern Standard Time),920544.7000000477,1000,I,z,549,1,1,1574.6000001430511,918970.0999999046,9038,NTS,C,8
6,7,test,4,C,triangle.png,1,m,Mon Dec 01 2025 10:24:09 GMT-0500 (Eastern Standard Time),922544.7000000477,1000,I,m,982,13,1,1991.5,920553.2000000477,9038,NTS,C,9
7,8,test,4,C,triangle.png,1,z,Mon Dec 01 2025 10:24:09 GMT-0500 (Eastern Standard Time),925094.7999999523,1700,I,z,826,6,1,2540.7000000476837,922554.0999999046,9038,NTS,C,10
9,9,test,4,C,circle.png,1,m,Mon Dec 01 2025 10:24:09 GMT-0500 (Eastern Standard Time),927194.7000000477,1500,I,m,572,24,1,2089.2999999523163,925105.4000000954,9038,NTS,C,11
2,10,test,4,C,triangle.png,1,m,Mon Dec 01 2025 10:24:09 GMT-0500 (Eastern Standard Time),930394.7999999523,2000,I,m,1172,18,1,3191.7999999523163,927203.0,9038,NTS,C,12
4,11,test,4,C,circle.png,1,z,Mon Dec 01 2025 10:24:09 GMT-0500 (Eastern Standard Time),932927.4000000954,1400,I,z,1115,4,1,2523.300000190735,930404.0999999046,9038,NTS,C,13
2,12,test,4,C,triangle.png,1,m,Mon Dec 01 2025 10:24:09 GMT-0500 (Eastern Standard Time),935994.7000000477,2000,I,m,1040,2,1,3062.2000000476837,932932.5,9038,NTS,C,14
7,13,test,4,C,triangle.png,1,z,Mon Dec 01 2025 10:24:09 GMT-0500 (Eastern Standard Time),938511.5,1700,I,z,784,22,1,2502.7999999523163,936008.7000000477,9038,NTS,C,15
4,14,test,4,C,circle.png,1,z,Mon Dec 01 2025 10:24:09 GMT-0500 (Eastern Standard Time),940994.5,1400,I,z,1063,20,1,2472.0999999046326,938522.4000000954,9038,NTS,C,16
6,15,test,4,C,circle.png,1,m,Mon Dec 01 2025 10:24:09 GMT-0500 (Eastern Standard Time),943694.7000000477,1900,I,m,768,21,1,2690.2000000476837,941004.5,9038,NTS,C,17
4,16,test,4,C,triangle.png,1,m,Mon Dec 01 2025 10:24:09 GMT-0500 (Eastern Standard Time),946228.0999999046,1500,I,m,1012,12,1,2523.0,943705.0999999046,9038,NTS,C,18
3,17,test,4,C,triangle.png,1,z,Mon Dec 01 2025 10:24:09 GMT-0500 (Eastern Standard Time),948161.2000000477,1200,I,z,715,3,1,1921.9000000953674,946239.2999999523,9038,NTS,C,19
2,18,test,4,C,circle.png,1,z,Mon Dec 01 2025 10:24:09 GMT-0500 (Eastern Standard Time),951194.7000000477,1700,I,z,1305,10,1,3022.7000000476837,948172.0,9038,NTS,C,20
9,19,test,4,C,circle.png,1,m,Mon Dec 01 2025 10:24:09 GMT-0500 (Eastern Standard Time),953861.2999999523,1500,I,m,1144,8,1,2656.399999856949,951204.9000000954,9038,NTS,C,21
1,20,test,4,C,triangle.png,1,z,Mon Dec 01 2025 10:24:09 GMT-0500 (Eastern Standard Time),956378.0,1900,I,z,589,9,1,2505.9000000953674,953872.0999999046,9038,NTS,C,22
9,21,test,4,C,triangle.png,1,z,Mon Dec 01 2025 10:24:09 GMT-0500 (Eastern Standard Time),958794.7000000477,1400,I,z,989,16,1,2408.100000143051,956386.5999999046,9038,NTS,C,23
3,22,test,4,C,triangle.png,1,z,Mon Dec 01 2025 10:24:09 GMT-0500 (Eastern Standard Time),960678.0999999046,1200,I,z,660,19,1,1872.5999999046326,958805.5,9038,NTS,C,24
