Q,Q1,Q2,Q3,Q4,acc_sum,block,block_c,correct,correct_response,datetime,endtime,project,response,response_time,row_sel,session_number,squiggle1,squiggle1x,squiggle1y,squiggle2,squiggle2x,squiggle2y,squiggle3,squiggle3x,squiggle3y,squiggle4,squiggle4x,squiggle4y,start_end,starttime,subject_id,target_congruent,task,task_vers,testsquiggle,testsquigglex,testsquiggley,time_practice_delay,time_practice_fixation,time_practice_stimuli,time_practice_study,time_test_delay,time_test_fixation,time_test_stimuli,time_test_study,trial
1,1,0,0,0,0,prac,1,0,z,Tue Jan 06 2026 13:00:35 GMT-0600 (Central Standard Time),181697.29999995232,O,None,2016,1,1,116.bmp,-120,-120,117.bmp,120,-120,118.bmp,-120,120,119.bmp,120,120,10826.699999928474,170870.60000002384,7729,yes,SM,A,116.bmp,-120,-120,170568,164541,172585,166555,,,,,1
3,0,0,1,0,0,prac,1,0,m,Tue Jan 06 2026 13:00:35 GMT-0600 (Central Standard Time),192377.70000004768,O,z,1884,2,1,120.bmp,-120,-120,121.bmp,120,-120,122.bmp,-120,120,123.bmp,120,120,10676.400000095367,181701.29999995232,7729,no,SM,A,123.bmp,-120,120,181384,175371,183398,177383,,,,,2
4,0,0,0,1,0,prac,1,0,m,Tue Jan 06 2026 13:00:35 GMT-0600 (Central Standard Time),203189.39999997616,O,None,2004,3,1,124.bmp,-120,-120,125.bmp,120,-120,126.bmp,-120,120,127.bmp,120,120,10807.100000023842,192382.29999995232,7729,no,SM,A,124.bmp,120,120,192078,186053,194094,188065,,,,,3
2,0,1,0,0,1,prac,1,1,z,Tue Jan 06 2026 13:00:35 GMT-0600 (Central Standard Time),213553.5,O,z,1540,4,1,128.bmp,-120,-120,129.bmp,120,-120,130.bmp,-120,120,131.bmp,120,120,10361.600000023842,203191.89999997616,7729,yes,SM,A,129.bmp,120,-120,202891,196862,204908,198877,,,,,4
3,0,0,1,0,1,prac,1,0,z,Tue Jan 06 2026 13:00:35 GMT-0600 (Central Standard Time),224366.0,O,None,2015,5,1,132.bmp,-120,-120,133.bmp,120,-120,134.bmp,-120,120,135.bmp,120,120,10804.200000047684,213561.79999995232,7729,yes,SM,A,134.bmp,-120,120,213254,207232,215255,209240,,,,,5
1,1,0,0,0,1,prac,1,0,m,Tue Jan 06 2026 13:00:35 GMT-0600 (Central Standard Time),234996.10000002384,O,z,1811,6,1,136.bmp,-120,-120,137.bmp,120,-120,138.bmp,-120,120,139.bmp,120,120,10623.399999976158,224372.70000004768,7729,no,SM,A,139.bmp,-120,-120,224069,218043,226084,220053,,,,,6
2,0,1,0,0,1,prac,1,0,m,Tue Jan 06 2026 13:00:35 GMT-0600 (Central Standard Time),245576.79999995232,O,z,1757,7,1,140.bmp,-120,-120,141.bmp,120,-120,142.bmp,-120,120,143.bmp,120,120,10575.299999952316,235001.5,7729,no,SM,A,140.bmp,120,-120,234698,228672,236715,230684,,,,,7
4,0,0,0,1,1,prac,1,0,z,Tue Jan 06 2026 13:00:35 GMT-0600 (Central Standard Time),256406.29999995232,O,None,2016,8,1,144.bmp,-120,-120,145.bmp,120,-120,146.bmp,-120,120,147.bmp,120,120,10825.0,245581.29999995232,7729,yes,SM,A,147.bmp,120,120,245278,239252,247294,241264,,,,,8
1,1,0,0,0,0,prac,2,0,z,Tue Jan 06 2026 13:00:35 GMT-0600 (Central Standard Time),293477.2000000477,O,None,2014,1,1,116.bmp,-120,-120,117.bmp,120,-120,118.bmp,-120,120,119.bmp,120,120,10807.100000023842,282670.10000002384,7729,yes,SM,A,116.bmp,-120,-120,282367,276340,284369,278352,,,,,1
3,0,0,1,0,0,prac,2,0,m,Tue Jan 06 2026 13:00:35 GMT-0600 (Central Standard Time),303558.0,O,z,1251,2,1,120.bmp,-120,-120,121.bmp,120,-120,122.bmp,-120,120,123.bmp,120,120,10076.299999952316,293481.7000000477,7729,no,SM,A,123.bmp,-120,120,293180,287152,295196,289165,,,,,2
4,0,0,0,1,1,prac,2,1,m,Tue Jan 06 2026 13:00:35 GMT-0600 (Central Standard Time),314175.60000002384,O,m,1803,3,1,124.bmp,-120,-120,125.bmp,120,-120,126.bmp,-120,120,127.bmp,120,120,10614.300000071526,303561.2999999523,7729,no,SM,A,124.bmp,120,120,303261,297232,305276,299244,,,,,3
2,0,1,0,0,2,prac,2,1,z,Tue Jan 06 2026 13:00:35 GMT-0600 (Central Standard Time),324601.89999997616,O,z,1622,4,1,128.bmp,-120,-120,129.bmp,120,-120,130.bmp,-120,120,131.bmp,120,120,10422.899999976158,314179.0,7729,yes,SM,A,129.bmp,120,-120,313871,307849,315873,309861,,,,,4
3,0,0,1,0,3,prac,2,1,z,Tue Jan 06 2026 13:00:35 GMT-0600 (Central Standard Time),334948.89999997616,O,z,1521,5,1,132.bmp,-120,-120,133.bmp,120,-120,134.bmp,-120,120,135.bmp,120,120,10342.100000023842,324606.7999999523,7729,yes,SM,A,134.bmp,-120,120,324303,318277,326319,320290,,,,,5
1,1,0,0,0,3,prac,2,0,m,Tue Jan 06 2026 13:00:35 GMT-0600 (Central Standard Time),345211.2999999523,O,z,1436,6,1,136.bmp,-120,-120,137.bmp,120,-120,138.bmp,-120,120,139.bmp,120,120,10254.799999952316,334956.5,7729,no,SM,A,139.bmp,-120,-120,334649,328627,336667,330636,,,,,6
2,0,1,0,0,4,prac,2,1,m,Tue Jan 06 2026 13:00:35 GMT-0600 (Central Standard Time),356024.39999997616,O,m,1991,7,1,140.bmp,-120,-120,141.bmp,120,-120,142.bmp,-120,120,143.bmp,120,120,10805.600000023842,345218.7999999523,7729,no,SM,A,140.bmp,120,-120,344913,338889,346929,340898,,,,,7
4,0,0,0,1,4,prac,2,0,z,Tue Jan 06 2026 13:00:35 GMT-0600 (Central Standard Time),366838.5,O,m,1993,8,1,144.bmp,-120,-120,145.bmp,120,-120,146.bmp,-120,120,147.bmp,120,120,10807.899999976158,356030.60000002384,7729,yes,SM,A,147.bmp,120,120,355726,349701,357742,351712,,,,,8
4,0,0,0,1,0,test,1,0,m,Tue Jan 06 2026 13:00:35 GMT-0600 (Central Standard Time),390710.60000002384,O,None,2030,1,1,148.bmp,-120,-120,149.bmp,120,-120,150.bmp,-120,120,143.bmp,120,120,10072.700000047684,380637.89999997616,7729,no,SM,A,150.bmp,120,120,355726,349701,357742,351712,380337.0,374308.0,382351.0,376320.0,1
2,0,1,0,0,0,test,1,0,m,Tue Jan 06 2026 13:00:35 GMT-0600 (Central Standard Time),400560.2999999523,O,z,1791,2,1,101.bmp,-120,-120,102.bmp,120,-120,103.bmp,-120,120,104.bmp,120,120,9846.599999904633,390713.7000000477,7729,no,SM,A,103.bmp,120,-120,355726,349701,357742,351712,390417.0,384384.0,392432.0,386402.0,2
1,1,0,0,0,1,test,1,1,z,Tue Jan 06 2026 13:00:35 GMT-0600 (Central Standard Time),410042.0,O,z,1417,3,1,105.bmp,-120,-120,106.bmp,120,-120,107.bmp,-120,120,108.bmp,120,120,9478.200000047684,400563.7999999523,7729,yes,SM,A,105.bmp,-120,-120,355726,349701,357742,351712,400263.0,394234.0,402279.0,396247.0,3
3,0,0,1,0,1,test,1,0,m,Tue Jan 06 2026 13:00:35 GMT-0600 (Central Standard Time),420104.2000000477,O,None,2016,4,1,109.bmp,-120,-120,110.bmp,120,-120,111.bmp,-120,120,112.bmp,120,120,10059.700000047684,410044.5,7729,no,SM,A,109.bmp,-120,120,355726,349701,357742,351712,409743.0,403715.0,411758.0,405727.0,4
2,0,1,0,0,1,test,1,0,z,Tue Jan 06 2026 13:00:35 GMT-0600 (Central Standard Time),430168.5,O,None,2016,5,1,113.bmp,-120,-120,114.bmp,120,-120,115.bmp,-120,120,116.bmp,120,120,10058.799999952316,420109.7000000477,7729,yes,SM,A,114.bmp,120,-120,355726,349701,357742,351712,419807.0,413780.0,421822.0,415792.0,5
3,0,0,1,0,2,test,1,1,z,Tue Jan 06 2026 13:00:35 GMT-0600 (Central Standard Time),440049.0,O,z,1819,6,1,117.bmp,-120,-120,118.bmp,120,-120,119.bmp,-120,120,120.bmp,120,120,9873.700000047684,430175.2999999523,7729,yes,SM,A,119.bmp,-120,120,355726,349701,357742,351712,429870.0,423845.0,431884.0,425854.0,6
4,0,0,0,1,3,test,1,1,z,Tue Jan 06 2026 13:00:35 GMT-0600 (Central Standard Time),449564.2000000477,O,z,1468,7,1,121.bmp,-120,-120,122.bmp,120,-120,123.bmp,-120,120,124.bmp,120,120,9510.400000095367,440053.7999999523,7729,yes,SM,A,124.bmp,120,120,355726,349701,357742,351712,439749.0,433724.0,441766.0,435735.0,7
2,0,1,0,0,3,test,1,0,m,Tue Jan 06 2026 13:00:35 GMT-0600 (Central Standard Time),459625.7000000477,O,None,2016,8,1,125.bmp,-120,-120,126.bmp,120,-120,127.bmp,-120,120,128.bmp,120,120,10059.0,449566.7000000477,7729,no,SM,A,125.bmp,120,-120,355726,349701,357742,351712,449266.0,443237.0,451280.0,445247.0,8
3,0,0,1,0,3,test,1,0,m,Tue Jan 06 2026 13:00:35 GMT-0600 (Central Standard Time),469622.2999999523,O,z,1945,9,1,129.bmp,-120,-120,130.bmp,120,-120,131.bmp,-120,120,132.bmp,120,120,9990.899999976158,459631.39999997616,7729,no,SM,A,130.bmp,-120,120,355726,349701,357742,351712,459328.0,453302.0,461343.0,455314.0,9
4,0,0,0,1,3,test,1,0,z,Tue Jan 06 2026 13:00:35 GMT-0600 (Central Standard Time),479035.89999997616,O,m,1356,10,1,137.bmp,-120,-120,138.bmp,120,-120,139.bmp,-120,120,140.bmp,120,120,9407.100000023842,469628.7999999523,7729,yes,SM,A,140.bmp,120,120,355726,349701,357742,351712,469323.0,463299.0,471339.0,465308.0,10
3,0,0,1,0,4,test,1,1,z,Tue Jan 06 2026 13:00:35 GMT-0600 (Central Standard Time),487999.10000002384,O,z,910,11,1,133.bmp,-120,-120,134.bmp,120,-120,135.bmp,-120,120,136.bmp,120,120,8960.600000023842,479038.5,7729,yes,SM,A,135.bmp,-120,120,355726,349701,357742,351712,478736.0,472709.0,480754.0,474722.0,11
2,0,1,0,0,4,test,1,0,m,Tue Jan 06 2026 13:00:35 GMT-0600 (Central Standard Time),498063.5,O,None,2015,12,1,141.bmp,-120,-120,142.bmp,120,-120,143.bmp,-120,120,144.bmp,120,120,10061.399999976158,488002.10000002384,7729,no,SM,A,141.bmp,120,-120,355726,349701,357742,351712,487702.0,481672.0,489718.0,483686.0,12
3,0,0,1,0,5,test,1,1,m,Tue Jan 06 2026 13:00:35 GMT-0600 (Central Standard Time),507459.60000002384,O,m,1348,13,1,145.bmp,-120,-120,146.bmp,120,-120,147.bmp,-120,120,148.bmp,120,120,9392.399999976158,498067.2000000477,7729,no,SM,A,146.bmp,-120,120,355726,349701,357742,351712,497765.0,491737.0,499781.0,493749.0,13
1,1,0,0,0,5,test,1,0,z,Tue Jan 06 2026 13:00:35 GMT-0600 (Central Standard Time),517523.60000002384,O,None,2014,14,1,149.bmp,-120,-120,150.bmp,120,-120,104.bmp,-120,120,101.bmp,120,120,10060.100000023842,507463.5,7729,yes,SM,A,149.bmp,-120,-120,355726,349701,357742,351712,507163.0,501134.0,509179.0,503146.0,14
4,0,0,0,1,5,test,1,0,m,Tue Jan 06 2026 13:00:35 GMT-0600 (Central Standard Time),527586.7999999523,O,None,2015,15,1,110.bmp,-120,-120,111.bmp,120,-120,112.bmp,-120,120,113.bmp,120,120,10060.399999976158,517526.39999997616,7729,no,SM,A,111.bmp,120,120,355726,349701,357742,351712,517226.0,511197.0,519242.0,513211.0,15
1,1,0,0,0,6,test,1,1,m,Tue Jan 06 2026 13:00:35 GMT-0600 (Central Standard Time),537618.6000000238,O,m,1975,16,1,102.bmp,-120,-120,103.bmp,120,-120,104.bmp,-120,120,105.bmp,120,120,10029.5,527589.1000000238,7729,no,SM,A,105.bmp,-120,-120,355726,349701,357742,351712,527289.0,521259.0,529305.0,523274.0,16
3,0,0,1,0,7,test,1,1,m,Tue Jan 06 2026 13:00:35 GMT-0600 (Central Standard Time),547130.8999999762,O,m,1466,17,1,122.bmp,-120,-120,123.bmp,120,-120,124.bmp,-120,120,125.bmp,120,120,9508.600000023842,537622.2999999523,7729,no,SM,A,122.bmp,-120,120,355726,349701,357742,351712,537318.0,531293.0,539335.0,533305.0,17
1,1,0,0,0,7,test,1,0,z,Tue Jan 06 2026 13:00:35 GMT-0600 (Central Standard Time),557195.1000000238,O,None,2017,18,1,106.bmp,-120,-120,107.bmp,120,-120,108.bmp,-120,120,109.bmp,120,120,10059.600000023842,547135.5,7729,yes,SM,A,106.bmp,-120,-120,355726,349701,357742,351712,546832.0,540806.0,548848.0,542817.0,18
2,0,1,0,0,8,test,1,1,z,Tue Jan 06 2026 13:00:35 GMT-0600 (Central Standard Time),566823.7000000477,O,z,1585,19,1,126.bmp,-120,-120,127.bmp,120,-120,128.bmp,-120,120,129.bmp,120,120,9625.600000023842,557198.1000000238,7729,yes,SM,A,127.bmp,120,-120,355726,349701,357742,351712,556894.0,550868.0,558895.0,552883.0,19
3,0,0,1,0,8,test,1,0,z,Tue Jan 06 2026 13:00:35 GMT-0600 (Central Standard Time),576770.5,O,m,1898,20,1,130.bmp,-120,-120,131.bmp,120,-120,132.bmp,-120,120,133.bmp,120,120,9941.899999976158,566828.6000000238,7729,yes,SM,A,132.bmp,-120,120,355726,349701,357742,351712,566526.0,560499.0,568542.0,562511.0,20
1,1,0,0,0,8,test,1,0,m,Tue Jan 06 2026 13:00:35 GMT-0600 (Central Standard Time),586684.0,O,z,1863,21,1,114.bmp,-120,-120,115.bmp,120,-120,116.bmp,-120,120,117.bmp,120,120,9905.399999976158,576778.6000000238,7729,no,SM,A,116.bmp,-120,-120,355726,349701,357742,351712,576473.0,570449.0,578489.0,572459.0,21
4,0,0,0,1,9,test,1,1,z,Tue Jan 06 2026 13:00:35 GMT-0600 (Central Standard Time),596596.3999999762,O,z,1868,22,1,118.bmp,-120,-120,119.bmp,120,-120,120.bmp,-120,120,121.bmp,120,120,9905.899999976158,586690.5,7729,yes,SM,A,121.bmp,120,120,355726,349701,357742,351712,586386.0,580361.0,588387.0,582372.0,22
1,1,0,0,0,9,test,1,0,m,Tue Jan 06 2026 13:00:35 GMT-0600 (Central Standard Time),606661.5,O,None,2013,23,1,134.bmp,-120,-120,135.bmp,120,-120,136.bmp,-120,120,137.bmp,120,120,10063.100000023842,596598.3999999762,7729,no,SM,A,137.bmp,-120,-120,355726,349701,357742,351712,596301.0,590269.0,598317.0,592285.0,23
2,0,1,0,0,9,test,1,0,z,Tue Jan 06 2026 13:00:35 GMT-0600 (Central Standard Time),616142.1000000238,O,m,1428,24,1,142.bmp,-120,-120,143.bmp,120,-120,144.bmp,-120,120,145.bmp,120,120,9476.700000047684,606665.3999999762,7729,yes,SM,A,143.bmp,120,-120,355726,349701,357742,351712,606364.0,600336.0,608380.0,602349.0,24
4,0,0,0,1,9,test,1,0,m,Tue Jan 06 2026 13:00:35 GMT-0600 (Central Standard Time),626170.6000000238,O,z,1971,25,1,146.bmp,-120,-120,147.bmp,120,-120,148.bmp,-120,120,149.bmp,120,120,10025.600000023842,616145.0,7729,no,SM,A,148.bmp,120,120,355726,349701,357742,351712,615843.0,609816.0,617860.0,611828.0,25
1,1,0,0,0,10,test,1,1,z,Tue Jan 06 2026 13:00:35 GMT-0600 (Central Standard Time),636085.6000000238,O,z,1878,26,1,138.bmp,-120,-120,139.bmp,120,-120,140.bmp,-120,120,141.bmp,120,120,9913.0,626172.6000000238,7729,yes,SM,A,138.bmp,-120,-120,355726,349701,357742,351712,625860.0,619843.0,627874.0,621859.0,26
4,0,0,0,1,11,test,1,1,z,Tue Jan 06 2026 13:00:35 GMT-0600 (Central Standard Time),645815.8999999762,O,z,1668,27,1,150.bmp,-120,-120,111.bmp,120,-120,101.bmp,-120,120,102.bmp,120,120,9727.199999928474,636088.7000000477,7729,yes,SM,A,102.bmp,120,120,355726,349701,357742,351712,635788.0,629759.0,637804.0,631772.0,27
3,0,0,1,0,11,test,1,0,m,Tue Jan 06 2026 13:00:35 GMT-0600 (Central Standard Time),655879.1000000238,O,None,2016,28,1,103.bmp,-120,-120,104.bmp,120,-120,105.bmp,-120,120,106.bmp,120,120,10059.600000023842,645819.5,7729,no,SM,A,103.bmp,-120,120,355726,349701,357742,351712,645519.0,639490.0,647533.0,641504.0,28
2,0,1,0,0,11,test,1,0,z,Tue Jan 06 2026 13:00:35 GMT-0600 (Central Standard Time),665945.2000000477,O,None,2016,29,1,107.bmp,-120,-120,108.bmp,120,-120,109.bmp,-120,120,110.bmp,120,120,10062.400000095367,655882.7999999523,7729,yes,SM,A,108.bmp,120,-120,355726,349701,357742,351712,655583.0,649553.0,657599.0,651566.0,29
3,0,0,1,0,11,test,1,0,z,Tue Jan 06 2026 13:00:35 GMT-0600 (Central Standard Time),676005.8999999762,O,None,2013,30,1,111.bmp,-120,-120,112.bmp,120,-120,113.bmp,-120,120,114.bmp,120,120,10055.899999976158,665950.0,7729,yes,SM,A,113.bmp,-120,120,355726,349701,357742,351712,665645.0,659621.0,667663.0,661629.0,30
1,1,0,0,0,11,test,1,0,z,Tue Jan 06 2026 13:00:35 GMT-0600 (Central Standard Time),686069.8999999762,O,None,2016,31,1,115.bmp,-120,-120,116.bmp,120,-120,117.bmp,-120,120,118.bmp,120,120,10061.399999976158,676008.5,7729,yes,SM,A,115.bmp,-120,-120,355726,349701,357742,351712,675708.0,669679.0,677724.0,671692.0,31
2,0,1,0,0,11,test,1,0,m,Tue Jan 06 2026 13:00:35 GMT-0600 (Central Standard Time),696135.8999999762,O,None,2016,32,1,119.bmp,-120,-120,120.bmp,120,-120,121.bmp,-120,120,122.bmp,120,120,10060.699999928474,686075.2000000477,7729,no,SM,A,119.bmp,120,-120,355726,349701,357742,351712,685771.0,679745.0,687790.0,681755.0,32
4,0,0,0,1,12,test,1,1,z,Tue Jan 06 2026 13:00:35 GMT-0600 (Central Standard Time),705930.2999999523,O,z,1749,33,1,131.bmp,-120,-120,132.bmp,120,-120,133.bmp,-120,120,134.bmp,120,120,9791.799999952316,696138.5,7729,yes,SM,A,134.bmp,120,120,355726,349701,357742,351712,695834.0,689809.0,697851.0,691819.0,33
2,0,1,0,0,12,test,1,0,z,Tue Jan 06 2026 13:00:35 GMT-0600 (Central Standard Time),715995.1000000238,O,None,2014,34,1,123.bmp,-120,-120,124.bmp,120,-120,125.bmp,-120,120,126.bmp,120,120,10060.200000047684,705934.8999999762,7729,yes,SM,A,124.bmp,120,-120,355726,349701,357742,351712,705631.0,699605.0,707651.0,701616.0,34
4,0,0,0,1,12,test,1,0,m,Tue Jan 06 2026 13:00:35 GMT-0600 (Central Standard Time),725740.7000000477,O,z,1697,35,1,127.bmp,-120,-120,128.bmp,120,-120,129.bmp,-120,120,130.bmp,120,120,9740.700000047684,716000.0,7729,no,SM,A,129.bmp,120,120,355726,349701,357742,351712,715696.0,709670.0,717711.0,711680.0,35
3,0,0,1,0,12,test,1,0,m,Tue Jan 06 2026 13:00:35 GMT-0600 (Central Standard Time),735321.3999999762,O,z,1517,36,1,135.bmp,-120,-120,136.bmp,120,-120,137.bmp,-120,120,138.bmp,120,120,9576.699999928474,725744.7000000477,7729,no,SM,A,135.bmp,-120,120,355726,349701,357742,351712,725443.0,719415.0,727458.0,721427.0,36
1,1,0,0,0,13,test,1,1,m,Tue Jan 06 2026 13:00:35 GMT-0600 (Central Standard Time),745351.2000000477,O,m,1969,37,1,139.bmp,-120,-120,140.bmp,120,-120,141.bmp,-120,120,142.bmp,120,120,10026.600000023842,735324.6000000238,7729,no,SM,A,140.bmp,-120,-120,355726,349701,357742,351712,735023.0,728995.0,737038.0,731007.0,37
2,0,1,0,0,13,test,1,0,m,Tue Jan 06 2026 13:00:35 GMT-0600 (Central Standard Time),755414.5,O,None,2015,38,1,143.bmp,-120,-120,144.bmp,120,-120,145.bmp,-120,120,146.bmp,120,120,10060.0,745354.5,7729,no,SM,A,145.bmp,120,-120,355726,349701,357742,351712,745052.0,739025.0,747069.0,741036.0,38
4,0,0,0,1,13,test,1,0,z,Tue Jan 06 2026 13:00:35 GMT-0600 (Central Standard Time),765463.2999999523,O,None,2016,39,1,147.bmp,-120,-120,148.bmp,120,-120,149.bmp,-120,120,150.bmp,120,120,10042.599999904633,755420.7000000477,7729,yes,SM,A,150.bmp,120,120,355726,349701,357742,351712,755115.0,749091.0,757117.0,751100.0,39
3,0,0,1,0,13,test,1,0,m,Tue Jan 06 2026 13:00:35 GMT-0600 (Central Standard Time),775024.7999999523,O,z,1508,40,1,104.bmp,-120,-120,105.bmp,120,-120,106.bmp,-120,120,107.bmp,120,120,9558.299999952316,765466.5,7729,no,SM,A,105.bmp,-120,120,355726,349701,357742,351712,765162.0,759137.0,767180.0,761149.0,40
1,1,0,0,0,13,test,1,0,z,Tue Jan 06 2026 13:00:35 GMT-0600 (Central Standard Time),785087.3999999762,O,None,2014,41,1,108.bmp,-120,-120,109.bmp,120,-120,110.bmp,-120,120,111.bmp,120,120,10060.399999976158,775027.0,7729,yes,SM,A,108.bmp,-120,-120,355726,349701,357742,351712,774726.0,768697.0,776743.0,770712.0,41
4,0,0,0,1,13,test,1,0,z,Tue Jan 06 2026 13:00:35 GMT-0600 (Central Standard Time),794119.6000000238,O,m,977,42,1,112.bmp,-120,-120,113.bmp,120,-120,114.bmp,-120,120,115.bmp,120,120,9027.700000047684,785091.8999999762,7729,yes,SM,A,115.bmp,120,120,355726,349701,357742,351712,784790.0,778762.0,786806.0,780774.0,42
1,1,0,0,0,13,test,1,0,z,Tue Jan 06 2026 13:00:35 GMT-0600 (Central Standard Time),804182.3999999762,O,None,2015,43,1,116.bmp,-120,-120,117.bmp,120,-120,118.bmp,-120,120,119.bmp,120,120,10059.399999976158,794123.0,7729,yes,SM,A,116.bmp,-120,-120,355726,349701,357742,351712,793821.0,787793.0,795837.0,789805.0,43
4,0,0,0,1,14,test,1,1,m,Tue Jan 06 2026 13:00:35 GMT-0600 (Central Standard Time),813529.2999999523,O,m,1300,44,1,104.bmp,-120,-120,101.bmp,120,-120,102.bmp,-120,120,103.bmp,120,120,9343.699999928474,804185.6000000238,7729,no,SM,A,104.bmp,120,120,355726,349701,357742,351712,803884.0,797856.0,805899.0,799869.0,44
1,1,0,0,0,15,test,1,1,m,Tue Jan 06 2026 13:00:35 GMT-0600 (Central Standard Time),823459.2999999523,O,m,1882,45,1,128.bmp,-120,-120,129.bmp,120,-120,130.bmp,-120,120,131.bmp,120,120,9926.899999976158,813532.3999999762,7729,no,SM,A,131.bmp,-120,-120,355726,349701,357742,351712,813231.0,807203.0,815247.0,809215.0,45
1,1,0,0,0,16,test,1,1,m,Tue Jan 06 2026 13:00:35 GMT-0600 (Central Standard Time),832939.8999999762,O,m,1422,46,1,120.bmp,-120,-120,121.bmp,120,-120,122.bmp,-120,120,123.bmp,120,120,9478.299999952316,823461.6000000238,7729,no,SM,A,121.bmp,-120,-120,355726,349701,357742,351712,823161.0,817132.0,825178.0,819145.0,46
3,0,0,1,0,16,test,1,0,z,Tue Jan 06 2026 13:00:35 GMT-0600 (Central Standard Time),842134.7999999523,O,m,1134,47,1,124.bmp,-120,-120,125.bmp,120,-120,126.bmp,-120,120,127.bmp,120,120,9193.0,832941.7999999523,7729,yes,SM,A,126.bmp,-120,120,355726,349701,357742,351712,832640.0,826612.0,834657.0,828625.0,47
3,0,0,1,0,16,test,1,0,z,Tue Jan 06 2026 13:00:35 GMT-0600 (Central Standard Time),851499.5,O,m,1305,48,1,140.bmp,-120,-120,141.bmp,120,-120,142.bmp,-120,120,143.bmp,120,120,9362.299999952316,842137.2000000477,7729,yes,SM,A,142.bmp,-120,120,355726,349701,357742,351712,841839.0,835807.0,843855.0,837821.0,48
2,0,1,0,0,16,test,1,0,z,Tue Jan 06 2026 13:00:35 GMT-0600 (Central Standard Time),860779.0,O,m,1222,49,1,136.bmp,-120,-120,137.bmp,120,-120,138.bmp,-120,120,139.bmp,120,120,9275.200000047684,851503.7999999523,7729,yes,SM,A,137.bmp,120,-120,355726,349701,357742,351712,851201.0,845174.0,853217.0,847185.0,49
3,0,0,1,0,16,test,1,0,m,Tue Jan 06 2026 13:00:35 GMT-0600 (Central Standard Time),870310.7999999523,O,z,1486,50,1,132.bmp,-120,-120,133.bmp,120,-120,134.bmp,-120,120,135.bmp,120,120,9530.0,860780.7999999523,7729,no,SM,A,132.bmp,-120,120,355726,349701,357742,351712,860467.0,854451.0,862482.0,856466.0,50
2,0,1,0,0,16,test,1,0,z,Tue Jan 06 2026 13:00:35 GMT-0600 (Central Standard Time),880376.7000000477,O,None,2019,51,1,144.bmp,-120,-120,145.bmp,120,-120,146.bmp,-120,120,147.bmp,120,120,10062.300000071526,870314.3999999762,7729,yes,SM,A,145.bmp,120,-120,355726,349701,357742,351712,870011.0,863985.0,872028.0,865998.0,51
4,0,0,0,1,17,test,1,1,m,Tue Jan 06 2026 13:00:35 GMT-0600 (Central Standard Time),890154.1000000238,O,m,1723,52,1,148.bmp,-120,-120,149.bmp,120,-120,150.bmp,-120,120,131.bmp,120,120,9775.300000071526,880378.7999999523,7729,no,SM,A,148.bmp,120,120,355726,349701,357742,351712,880075.0,874049.0,882092.0,876060.0,52
3,0,0,1,0,18,test,1,1,z,Tue Jan 06 2026 13:00:35 GMT-0600 (Central Standard Time),899050.5,O,z,847,53,1,101.bmp,-120,-120,102.bmp,120,-120,103.bmp,-120,120,104.bmp,120,120,8894.600000023842,890155.8999999762,7729,yes,SM,A,103.bmp,-120,120,355726,349701,357742,351712,889856.0,883826.0,891872.0,885840.0,53
1,1,0,0,0,18,test,1,0,m,Tue Jan 06 2026 13:00:35 GMT-0600 (Central Standard Time),909114.8999999762,O,None,2016,54,1,105.bmp,-120,-120,106.bmp,120,-120,107.bmp,-120,120,108.bmp,120,120,10061.899999976158,899053.0,7729,no,SM,A,107.bmp,-120,-120,355726,349701,357742,351712,898753.0,892723.0,900769.0,894737.0,54
4,0,0,0,1,18,test,1,0,z,Tue Jan 06 2026 13:00:35 GMT-0600 (Central Standard Time),918329.1000000238,O,m,1149,55,1,109.bmp,-120,-120,110.bmp,120,-120,111.bmp,-120,120,112.bmp,120,120,9211.399999976158,909117.7000000477,7729,yes,SM,A,112.bmp,120,120,355726,349701,357742,351712,908816.0,902788.0,910833.0,904800.0,55
2,0,1,0,0,18,test,1,0,m,Tue Jan 06 2026 13:00:35 GMT-0600 (Central Standard Time),928391.1000000238,O,None,2014,56,1,113.bmp,-120,-120,114.bmp,120,-120,115.bmp,-120,120,116.bmp,120,120,10060.100000023842,918331.0,7729,no,SM,A,113.bmp,120,-120,355726,349701,357742,351712,918029.0,912001.0,920047.0,914014.0,56
4,0,0,0,1,19,test,1,1,m,Tue Jan 06 2026 13:00:35 GMT-0600 (Central Standard Time),937722.3999999762,O,m,1282,57,1,117.bmp,-120,-120,118.bmp,120,-120,119.bmp,-120,120,120.bmp,120,120,9328.0,928394.3999999762,7729,no,SM,A,118.bmp,120,120,355726,349701,357742,351712,928093.0,922065.0,930109.0,924077.0,57
3,0,0,1,0,20,test,1,1,z,Tue Jan 06 2026 13:00:35 GMT-0600 (Central Standard Time),947069.6000000238,O,z,1303,58,1,121.bmp,-120,-120,122.bmp,120,-120,123.bmp,-120,120,124.bmp,120,120,9344.5,937725.1000000238,7729,yes,SM,A,123.bmp,-120,120,355726,349701,357742,351712,937423.0,931395.0,939425.0,933408.0,58
2,0,1,0,0,21,test,1,1,m,Tue Jan 06 2026 13:00:35 GMT-0600 (Central Standard Time),956799.2999999523,O,m,1669,59,1,125.bmp,-120,-120,126.bmp,120,-120,127.bmp,-120,120,128.bmp,120,120,9726.799999952316,947072.5,7729,no,SM,A,128.bmp,120,-120,355726,349701,357742,351712,946772.0,940743.0,948786.0,942754.0,59
1,1,0,0,0,22,test,1,1,z,Tue Jan 06 2026 13:00:35 GMT-0600 (Central Standard Time),966063.8999999762,O,z,1210,60,1,129.bmp,-120,-120,130.bmp,120,-120,131.bmp,-120,120,132.bmp,120,120,9262.399999976158,956801.5,7729,yes,SM,A,129.bmp,-120,-120,355726,349701,357742,351712,956501.0,950472.0,958517.0,952486.0,60
2,0,1,0,0,22,test,1,0,z,Tue Jan 06 2026 13:00:35 GMT-0600 (Central Standard Time),975075.8999999762,O,m,962,61,1,133.bmp,-120,-120,134.bmp,120,-120,135.bmp,-120,120,136.bmp,120,120,9010.100000023842,966065.7999999523,7729,yes,SM,A,134.bmp,120,-120,355726,349701,357742,351712,965764.0,959736.0,967781.0,961749.0,61
4,0,0,0,1,23,test,1,1,z,Tue Jan 06 2026 13:00:35 GMT-0600 (Central Standard Time),984623.7000000477,O,z,1492,62,1,141.bmp,-120,-120,142.bmp,120,-120,143.bmp,-120,120,144.bmp,120,120,9546.0,975077.7000000477,7729,yes,SM,A,144.bmp,120,120,355726,349701,357742,351712,974778.0,968748.0,976795.0,970763.0,62
1,1,0,0,0,23,test,1,0,m,Tue Jan 06 2026 13:00:35 GMT-0600 (Central Standard Time),994204.5,O,z,1521,63,1,145.bmp,-120,-120,146.bmp,120,-120,147.bmp,-120,120,148.bmp,120,120,9578.700000047684,984625.7999999523,7729,no,SM,A,145.bmp,-120,120,355726,349701,357742,351712,984328.0,978296.0,986342.0,980310.0,63
2,0,1,0,0,23,test,1,0,z,Tue Jan 06 2026 13:00:35 GMT-0600 (Central Standard Time),1003767.5,O,m,1510,64,1,149.bmp,-120,-120,150.bmp,120,-120,112.bmp,-120,120,101.bmp,120,120,9561.0,994206.5,7729,yes,SM,A,150.bmp,120,-120,355726,349701,357742,351712,993906.0,987877.0,995921.0,989891.0,64
4,0,0,0,1,23,test,1,0,m,Tue Jan 06 2026 13:00:35 GMT-0600 (Central Standard Time),1013831.1000000238,O,None,2016,65,1,102.bmp,-120,-120,103.bmp,120,-120,104.bmp,-120,120,105.bmp,120,120,10061.899999976158,1003769.2000000477,7729,no,SM,A,104.bmp,120,120,355726,349701,357742,351712,1003469.0,997439.0,1005485.0,999454.0,65
3,0,0,1,0,23,test,1,0,m,Tue Jan 06 2026 13:00:35 GMT-0600 (Central Standard Time),1022844.8999999762,O,z,962,66,1,106.bmp,-120,-120,107.bmp,120,-120,108.bmp,-120,120,109.bmp,120,120,9010.199999928474,1013834.7000000477,7729,no,SM,A,109.bmp,-120,120,355726,349701,357742,351712,1013533.0,1007505.0,1015549.0,1009517.0,66
2,0,1,0,0,23,test,1,0,m,Tue Jan 06 2026 13:00:35 GMT-0600 (Central Standard Time),1032908.8999999762,O,None,2017,67,1,137.bmp,-120,-120,138.bmp,120,-120,139.bmp,-120,120,140.bmp,120,120,10061.399999976158,1022847.5,7729,no,SM,A,139.bmp,120,-120,355726,349701,357742,351712,1022546.0,1016518.0,1024562.0,1018531.0,67
3,0,0,1,0,23,test,1,0,z,Tue Jan 06 2026 13:00:35 GMT-0600 (Central Standard Time),1042505.2999999523,O,m,1533,68,1,110.bmp,-120,-120,111.bmp,120,-120,112.bmp,-120,120,113.bmp,120,120,9594.199999928474,1032911.1000000238,7729,yes,SM,A,112.bmp,-120,120,355726,349701,357742,351712,1032611.0,1026581.0,1034626.0,1028595.0,68
1,1,0,0,0,23,test,1,0,m,Tue Jan 06 2026 13:00:35 GMT-0600 (Central Standard Time),1052185.6000000238,O,z,1623,69,1,114.bmp,-120,-120,115.bmp,120,-120,116.bmp,-120,120,117.bmp,120,120,9677.700000047684,1042507.8999999762,7729,no,SM,A,115.bmp,-120,-120,355726,349701,357742,351712,1042207.0,1036178.0,1044224.0,1038192.0,69
2,0,1,0,0,24,test,1,1,m,Tue Jan 06 2026 13:00:35 GMT-0600 (Central Standard Time),1062199.6000000238,O,m,1962,70,1,118.bmp,-120,-120,119.bmp,120,-120,120.bmp,-120,120,121.bmp,120,120,10011.899999976158,1052187.7000000477,7729,no,SM,A,120.bmp,120,-120,355726,349701,357742,351712,1051887.0,1045858.0,1053902.0,1047873.0,70
4,0,0,0,1,24,test,1,0,z,Tue Jan 06 2026 13:00:35 GMT-0600 (Central Standard Time),1072113.1000000238,O,m,1859,71,1,122.bmp,-120,-120,123.bmp,120,-120,124.bmp,-120,120,125.bmp,120,120,9911.399999976158,1062201.7000000477,7729,yes,SM,A,125.bmp,120,120,355726,349701,357742,351712,1061900.0,1055872.0,1063916.0,1057887.0,71
1,1,0,0,0,25,test,1,1,z,Tue Jan 06 2026 13:00:35 GMT-0600 (Central Standard Time),1081643.0,O,z,1481,72,1,126.bmp,-120,-120,127.bmp,120,-120,128.bmp,-120,120,129.bmp,120,120,9526.899999976158,1072116.1000000238,7729,yes,SM,A,126.bmp,-120,-120,355726,349701,357742,351712,1071814.0,1065786.0,1073830.0,1067800.0,72
2,0,1,0,0,26,test,1,1,z,Tue Jan 06 2026 13:00:35 GMT-0600 (Central Standard Time),1090756.6000000238,O,z,1054,73,1,130.bmp,-120,-120,131.bmp,120,-120,132.bmp,-120,120,133.bmp,120,120,9111.300000071526,1081645.2999999523,7729,yes,SM,A,131.bmp,120,-120,355726,349701,357742,351712,1081345.0,1075316.0,1083361.0,1077329.0,73
4,0,0,0,1,27,test,1,1,m,Tue Jan 06 2026 13:00:35 GMT-0600 (Central Standard Time),1100503.7999999523,O,m,1693,74,1,134.bmp,-120,-120,135.bmp,120,-120,136.bmp,-120,120,137.bmp,120,120,9742.399999976158,1090761.3999999762,7729,no,SM,A,136.bmp,120,120,355726,349701,357742,351712,1090459.0,1084432.0,1092474.0,1086443.0,74
2,0,1,0,0,27,test,1,0,m,Tue Jan 06 2026 13:00:35 GMT-0600 (Central Standard Time),1110482.8999999762,O,z,1922,75,1,138.bmp,-120,-120,139.bmp,120,-120,140.bmp,-120,120,141.bmp,120,120,9976.299999952316,1100506.6000000238,7729,no,SM,A,141.bmp,120,-120,355726,349701,357742,351712,1100205.0,1094177.0,1102221.0,1096190.0,75
1,1,0,0,0,28,test,1,1,z,Tue Jan 06 2026 13:00:35 GMT-0600 (Central Standard Time),1119547.7000000477,O,z,1014,76,1,142.bmp,-120,-120,143.bmp,120,-120,144.bmp,-120,120,145.bmp,120,120,9062.900000095367,1110484.7999999523,7729,yes,SM,A,142.bmp,-120,-120,355726,349701,357742,351712,1110185.0,1104155.0,1112201.0,1106170.0,76
3,0,0,1,0,29,test,1,1,z,Tue Jan 06 2026 13:00:35 GMT-0600 (Central Standard Time),1128961.3999999762,O,z,1358,77,1,150.bmp,-120,-120,111.bmp,120,-120,101.bmp,-120,120,102.bmp,120,120,9411.199999928474,1119550.2000000477,7729,yes,SM,A,101.bmp,-120,120,355726,349701,357742,351712,1119250.0,1113220.0,1121265.0,1115233.0,77
1,1,0,0,0,29,test,1,0,m,Tue Jan 06 2026 13:00:35 GMT-0600 (Central Standard Time),1139024.8999999762,O,None,2016,78,1,146.bmp,-120,-120,147.bmp,120,-120,148.bmp,-120,120,149.bmp,120,120,10061.199999928474,1128963.7000000477,7729,no,SM,A,147.bmp,-120,-120,355726,349701,357742,351712,1128663.0,1122634.0,1130679.0,1124647.0,78
4,0,0,0,1,30,test,1,1,m,Tue Jan 06 2026 13:00:35 GMT-0600 (Central Standard Time),1148337.1000000238,O,m,1266,79,1,107.bmp,-120,-120,108.bmp,120,-120,109.bmp,-120,120,110.bmp,120,120,9310.300000071526,1139026.7999999523,7729,no,SM,A,107.bmp,120,120,355726,349701,357742,351712,1138712.0,1132697.0,1140725.0,1134711.0,79
3,0,0,1,0,30,test,1,0,m,Tue Jan 06 2026 13:00:35 GMT-0600 (Central Standard Time),1157219.0,O,z,831,80,1,103.bmp,-120,-120,104.bmp,120,-120,105.bmp,-120,120,106.bmp,120,120,8880.200000047684,1148338.7999999523,7729,no,SM,A,106.bmp,-120,120,355726,349701,357742,351712,1148040.0,1142009.0,1150055.0,1144025.0,80
