Q,Q1,Q2,Q3,Q4,acc_sum,block,block_c,correct,correct_response,datetime,endtime,project,response,response_time,row_sel,session_number,squiggle1,squiggle1x,squiggle1y,squiggle2,squiggle2x,squiggle2y,squiggle3,squiggle3x,squiggle3y,squiggle4,squiggle4x,squiggle4y,start_end,starttime,subject_id,target_congruent,task,task_vers,testsquiggle,testsquigglex,testsquiggley,time_practice_delay,time_practice_fixation,time_practice_stimuli,time_practice_study,time_test_delay,time_test_fixation,time_test_stimuli,time_test_study,trial
1,1,0,0,0,0,prac,1,0,z,Thu Nov 06 2025 10:19:14 GMT-0600 (Central Standard Time),198249.89999999106,O,m,1369,1,1,116.bmp,-120,-120,117.bmp,120,-120,118.bmp,-120,120,119.bmp,120,120,10194.79999999702,188055.09999999404,7238,yes,SM,A,116.bmp,-120,-120,186327,180298,188342,182312,,,,,1
3,0,0,1,0,0,prac,1,0,m,Thu Nov 06 2025 10:19:14 GMT-0600 (Central Standard Time),208661.79999999702,O,z,1595,2,1,120.bmp,-120,-120,121.bmp,120,-120,122.bmp,-120,120,123.bmp,120,120,10409.20000000298,198252.59999999404,7238,no,SM,A,123.bmp,-120,120,196523,190496,198540,192508,,,,,2
4,0,0,0,1,0,prac,1,0,m,Thu Nov 06 2025 10:19:14 GMT-0600 (Central Standard Time),219493.09999999404,O,None,2015,3,1,124.bmp,-120,-120,125.bmp,120,-120,126.bmp,-120,120,127.bmp,120,120,10828.20000000298,208664.89999999106,7238,no,SM,A,124.bmp,120,120,206937,200908,208953,202922,,,,,3
2,0,1,0,0,1,prac,1,1,z,Thu Nov 06 2025 10:19:14 GMT-0600 (Central Standard Time),229621.89999999106,O,z,1312,4,1,128.bmp,-120,-120,129.bmp,120,-120,130.bmp,-120,120,131.bmp,120,120,10125.09999999404,219496.79999999702,7238,yes,SM,A,129.bmp,120,-120,217766,211740,219783,213751,,,,,4
3,0,0,1,0,2,prac,1,1,z,Thu Nov 06 2025 10:19:14 GMT-0600 (Central Standard Time),240135.59999999404,O,z,1687,5,1,132.bmp,-120,-120,133.bmp,120,-120,134.bmp,-120,120,135.bmp,120,120,10511.39999999106,229624.20000000298,7238,yes,SM,A,134.bmp,-120,120,227896,221867,229912,223882,,,,,5
1,1,0,0,0,2,prac,1,0,m,Thu Nov 06 2025 10:19:14 GMT-0600 (Central Standard Time),250448.79999999702,O,z,1494,6,1,136.bmp,-120,-120,137.bmp,120,-120,138.bmp,-120,120,139.bmp,120,120,10310.29999999702,240138.5,7238,no,SM,A,139.bmp,-120,-120,238410,232382,240425,234396,,,,,6
2,0,1,0,0,2,prac,1,0,m,Thu Nov 06 2025 10:19:14 GMT-0600 (Central Standard Time),261278.0,O,None,2016,7,1,140.bmp,-120,-120,141.bmp,120,-120,142.bmp,-120,120,143.bmp,120,120,10827.0,250451.0,7238,no,SM,A,140.bmp,120,-120,248723,242694,250739,244708,,,,,7
4,0,0,0,1,2,prac,1,0,z,Thu Nov 06 2025 10:19:14 GMT-0600 (Central Standard Time),271474.799999997,O,m,1383,8,1,144.bmp,-120,-120,145.bmp,120,-120,146.bmp,-120,120,147.bmp,120,120,10193.90000000596,261280.89999999106,7238,yes,SM,A,147.bmp,120,120,259552,253524,261569,255537,,,,,8
1,1,0,0,0,1,prac,2,1,z,Thu Nov 06 2025 10:19:14 GMT-0600 (Central Standard Time),286071.799999997,O,z,1444,1,1,116.bmp,-120,-120,117.bmp,120,-120,118.bmp,-120,120,119.bmp,120,120,10261.29999999702,275810.5,7238,yes,SM,A,116.bmp,-120,-120,274083,268054,276099,270066,,,,,1
3,0,0,1,0,2,prac,2,1,m,Thu Nov 06 2025 10:19:14 GMT-0600 (Central Standard Time),296400.59999999404,O,m,1509,2,1,120.bmp,-120,-120,121.bmp,120,-120,122.bmp,-120,120,123.bmp,120,120,10326.20000000298,286074.39999999106,7238,no,SM,A,123.bmp,-120,120,284345,278318,286362,280330,,,,,2
4,0,0,0,1,3,prac,2,1,m,Thu Nov 06 2025 10:19:14 GMT-0600 (Central Standard Time),306447.299999997,O,m,1218,3,1,124.bmp,-120,-120,125.bmp,120,-120,126.bmp,-120,120,127.bmp,120,120,10044.59999999404,296402.700000003,7238,no,SM,A,124.bmp,120,120,294676,288646,296693,290661,,,,,3
2,0,1,0,0,4,prac,2,1,z,Thu Nov 06 2025 10:19:14 GMT-0600 (Central Standard Time),316445.09999999404,O,z,1172,4,1,128.bmp,-120,-120,129.bmp,120,-120,130.bmp,-120,120,131.bmp,120,120,9995.09999999404,306450.0,7238,yes,SM,A,129.bmp,120,-120,304722,298693,306739,300708,,,,,4
3,0,0,1,0,5,prac,2,1,z,Thu Nov 06 2025 10:19:14 GMT-0600 (Central Standard Time),326807.89999999106,O,z,1544,5,1,132.bmp,-120,-120,133.bmp,120,-120,134.bmp,-120,120,135.bmp,120,120,10359.699999988079,316448.200000003,7238,yes,SM,A,134.bmp,-120,120,314719,308691,316735,310703,,,,,5
1,1,0,0,0,6,prac,2,1,m,Thu Nov 06 2025 10:19:14 GMT-0600 (Central Standard Time),336537.799999997,O,m,900,6,1,136.bmp,-120,-120,137.bmp,120,-120,138.bmp,-120,120,139.bmp,120,120,9726.90000000596,326810.89999999106,7238,no,SM,A,139.bmp,-120,-120,325082,319054,327099,321067,,,,,6
2,0,1,0,0,6,prac,2,0,m,Thu Nov 06 2025 10:19:14 GMT-0600 (Central Standard Time),346435.299999997,O,z,1074,7,1,140.bmp,-120,-120,141.bmp,120,-120,142.bmp,-120,120,143.bmp,120,120,9894.5,336540.799999997,7238,no,SM,A,140.bmp,120,-120,334813,328784,336829,330797,,,,,7
4,0,0,0,1,6,prac,2,0,z,Thu Nov 06 2025 10:19:14 GMT-0600 (Central Standard Time),356781.59999999404,O,m,1530,8,1,144.bmp,-120,-120,145.bmp,120,-120,146.bmp,-120,120,147.bmp,120,120,10343.89999999106,346437.700000003,7238,yes,SM,A,147.bmp,120,120,344709,338681,346725,340694,,,,,8
4,0,0,0,1,1,test,1,1,m,Thu Nov 06 2025 10:19:14 GMT-0600 (Central Standard Time),373227.89999999106,O,m,1193,1,1,148.bmp,-120,-120,149.bmp,120,-120,150.bmp,-120,120,143.bmp,120,120,9246.89999999106,363981.0,7238,no,SM,A,150.bmp,120,120,344709,338681,346725,340694,362254.0,356224.0,364270.0,358238.0,1
2,0,1,0,0,1,test,1,0,m,Thu Nov 06 2025 10:19:14 GMT-0600 (Central Standard Time),382939.799999997,O,z,1651,2,1,101.bmp,-120,-120,102.bmp,120,-120,103.bmp,-120,120,104.bmp,120,120,9709.29999999702,373230.5,7238,no,SM,A,103.bmp,120,-120,344709,338681,346725,340694,371501.0,365474.0,373516.0,367487.0,2
1,1,0,0,0,2,test,1,1,z,Thu Nov 06 2025 10:19:14 GMT-0600 (Central Standard Time),392003.59999999404,O,z,1001,3,1,105.bmp,-120,-120,106.bmp,120,-120,107.bmp,-120,120,108.bmp,120,120,9061.0,382942.59999999404,7238,yes,SM,A,105.bmp,-120,-120,344709,338681,346725,340694,381214.0,375186.0,383230.0,377200.0,3
3,0,0,1,0,3,test,1,1,m,Thu Nov 06 2025 10:19:14 GMT-0600 (Central Standard Time),401300.700000003,O,m,1249,4,1,109.bmp,-120,-120,110.bmp,120,-120,111.bmp,-120,120,112.bmp,120,120,9295.20000000298,392005.5,7238,no,SM,A,109.bmp,-120,120,344709,338681,346725,340694,390280.0,384249.0,392294.0,386263.0,4
2,0,1,0,0,4,test,1,1,z,Thu Nov 06 2025 10:19:14 GMT-0600 (Central Standard Time),410931.0,O,z,1567,5,1,113.bmp,-120,-120,114.bmp,120,-120,115.bmp,-120,120,116.bmp,120,120,9628.20000000298,401302.799999997,7238,yes,SM,A,114.bmp,120,-120,344709,338681,346725,340694,399575.0,393546.0,401592.0,395560.0,5
3,0,0,1,0,5,test,1,1,z,Thu Nov 06 2025 10:19:14 GMT-0600 (Central Standard Time),420710.89999999106,O,z,1721,6,1,117.bmp,-120,-120,118.bmp,120,-120,119.bmp,-120,120,120.bmp,120,120,9777.5,410933.39999999106,7238,yes,SM,A,119.bmp,-120,120,344709,338681,346725,340694,409206.0,403177.0,411222.0,405191.0,6
4,0,0,0,1,6,test,1,1,z,Thu Nov 06 2025 10:19:14 GMT-0600 (Central Standard Time),430524.700000003,O,z,1750,7,1,121.bmp,-120,-120,122.bmp,120,-120,123.bmp,-120,120,124.bmp,120,120,9811.40000000596,420713.299999997,7238,yes,SM,A,124.bmp,120,120,344709,338681,346725,340694,418986.0,412957.0,421002.0,414970.0,7
2,0,1,0,0,7,test,1,1,m,Thu Nov 06 2025 10:19:14 GMT-0600 (Central Standard Time),439805.5,O,m,1223,8,1,125.bmp,-120,-120,126.bmp,120,-120,127.bmp,-120,120,128.bmp,120,120,9278.5,430527.0,7238,no,SM,A,125.bmp,120,-120,344709,338681,346725,340694,428800.0,422770.0,430816.0,424784.0,8
3,0,0,1,0,7,test,1,0,m,Thu Nov 06 2025 10:19:14 GMT-0600 (Central Standard Time),449869.59999999404,O,None,2016,9,1,129.bmp,-120,-120,130.bmp,120,-120,131.bmp,-120,120,132.bmp,120,120,10062.09999999404,439807.5,7238,no,SM,A,130.bmp,-120,120,344709,338681,346725,340694,438080.0,432051.0,440097.0,434066.0,9
4,0,0,0,1,8,test,1,1,z,Thu Nov 06 2025 10:19:14 GMT-0600 (Central Standard Time),459133.200000003,O,z,1214,10,1,137.bmp,-120,-120,138.bmp,120,-120,139.bmp,-120,120,140.bmp,120,120,9261.300000011921,449871.89999999106,7238,yes,SM,A,140.bmp,120,120,344709,338681,346725,340694,448143.0,442115.0,450161.0,444128.0,10
3,0,0,1,0,9,test,1,1,z,Thu Nov 06 2025 10:19:14 GMT-0600 (Central Standard Time),468462.39999999106,O,z,1280,11,1,133.bmp,-120,-120,134.bmp,120,-120,135.bmp,-120,120,136.bmp,120,120,9326.0,459136.39999999106,7238,yes,SM,A,135.bmp,-120,120,344709,338681,346725,340694,457407.0,451380.0,459423.0,453392.0,11
2,0,1,0,0,10,test,1,1,m,Thu Nov 06 2025 10:19:14 GMT-0600 (Central Standard Time),477576.09999999404,O,m,1054,12,1,141.bmp,-120,-120,142.bmp,120,-120,143.bmp,-120,120,144.bmp,120,120,9103.09999999404,468473.0,7238,no,SM,A,141.bmp,120,-120,344709,338681,346725,340694,466737.0,460716.0,468753.0,462721.0,12
3,0,0,1,0,10,test,1,0,m,Thu Nov 06 2025 10:19:14 GMT-0600 (Central Standard Time),487639.5,O,None,2016,13,1,145.bmp,-120,-120,146.bmp,120,-120,147.bmp,-120,120,148.bmp,120,120,10060.79999999702,477578.700000003,7238,no,SM,A,146.bmp,-120,120,344709,338681,346725,340694,475851.0,469822.0,477867.0,471837.0,13
1,1,0,0,0,11,test,1,1,z,Thu Nov 06 2025 10:19:14 GMT-0600 (Central Standard Time),496836.5,O,z,1139,14,1,149.bmp,-120,-120,150.bmp,120,-120,104.bmp,-120,120,101.bmp,120,120,9194.90000000596,487641.59999999404,7238,yes,SM,A,149.bmp,-120,-120,344709,338681,346725,340694,485915.0,479885.0,487932.0,481899.0,14
4,0,0,0,1,11,test,1,0,m,Thu Nov 06 2025 10:19:14 GMT-0600 (Central Standard Time),506583.299999997,O,z,1695,15,1,110.bmp,-120,-120,111.bmp,120,-120,112.bmp,-120,120,113.bmp,120,120,9744.09999999404,496839.200000003,7238,no,SM,A,111.bmp,120,120,344709,338681,346725,340694,495111.0,489082.0,497128.0,491097.0,15
1,1,0,0,0,12,test,1,1,m,Thu Nov 06 2025 10:19:14 GMT-0600 (Central Standard Time),515665.0,O,m,1043,16,1,102.bmp,-120,-120,103.bmp,120,-120,104.bmp,-120,120,105.bmp,120,120,9079.40000000596,506585.59999999404,7238,no,SM,A,105.bmp,-120,-120,344709,338681,346725,340694,504858.0,498829.0,506860.0,500844.0,16
3,0,0,1,0,12,test,1,0,m,Thu Nov 06 2025 10:19:14 GMT-0600 (Central Standard Time),524644.599999994,O,z,932,17,1,122.bmp,-120,-120,123.bmp,120,-120,124.bmp,-120,120,125.bmp,120,120,8972.89999999106,515671.700000003,7238,no,SM,A,122.bmp,-120,120,344709,338681,346725,340694,513939.0,507915.0,515955.0,509923.0,17
1,1,0,0,0,13,test,1,1,z,Thu Nov 06 2025 10:19:14 GMT-0600 (Central Standard Time),534409.099999994,O,z,1702,18,1,106.bmp,-120,-120,107.bmp,120,-120,108.bmp,-120,120,109.bmp,120,120,9762.59999999404,524646.5,7238,yes,SM,A,106.bmp,-120,-120,344709,338681,346725,340694,522919.0,516890.0,524937.0,518904.0,18
2,0,1,0,0,14,test,1,1,z,Thu Nov 06 2025 10:19:14 GMT-0600 (Central Standard Time),543688.700000003,O,z,1220,19,1,126.bmp,-120,-120,127.bmp,120,-120,128.bmp,-120,120,129.bmp,120,120,9277.5,534411.200000003,7238,yes,SM,A,127.bmp,120,-120,344709,338681,346725,340694,532684.0,526654.0,534699.0,528669.0,19
3,0,0,1,0,15,test,1,1,z,Thu Nov 06 2025 10:19:14 GMT-0600 (Central Standard Time),552652.700000003,O,z,908,20,1,130.bmp,-120,-120,131.bmp,120,-120,132.bmp,-120,120,133.bmp,120,120,8961.800000011921,543690.8999999911,7238,yes,SM,A,132.bmp,-120,120,344709,338681,346725,340694,541964.0,535934.0,543979.0,537948.0,20
1,1,0,0,0,15,test,1,0,m,Thu Nov 06 2025 10:19:14 GMT-0600 (Central Standard Time),561800.3999999911,O,z,1087,21,1,114.bmp,-120,-120,115.bmp,120,-120,116.bmp,-120,120,117.bmp,120,120,9145.5,552654.8999999911,7238,no,SM,A,116.bmp,-120,-120,344709,338681,346725,340694,550927.0,544898.0,552944.0,546912.0,21
4,0,0,0,1,16,test,1,1,z,Thu Nov 06 2025 10:19:14 GMT-0600 (Central Standard Time),571347.299999997,O,z,1484,22,1,118.bmp,-120,-120,119.bmp,120,-120,120.bmp,-120,120,121.bmp,120,120,9544.5,561802.799999997,7238,yes,SM,A,121.bmp,120,120,344709,338681,346725,340694,560074.0,554046.0,562091.0,556059.0,22
1,1,0,0,0,17,test,1,1,m,Thu Nov 06 2025 10:19:14 GMT-0600 (Central Standard Time),580993.299999997,O,m,1585,23,1,134.bmp,-120,-120,135.bmp,120,-120,136.bmp,-120,120,137.bmp,120,120,9643.09999999404,571350.200000003,7238,no,SM,A,137.bmp,-120,-120,344709,338681,346725,340694,569622.0,563593.0,571638.0,565608.0,23
2,0,1,0,0,18,test,1,1,z,Thu Nov 06 2025 10:19:14 GMT-0600 (Central Standard Time),590657.0,O,z,1603,24,1,142.bmp,-120,-120,143.bmp,120,-120,144.bmp,-120,120,145.bmp,120,120,9661.5,580995.5,7238,yes,SM,A,143.bmp,120,-120,344709,338681,346725,340694,579268.0,573239.0,581284.0,575253.0,24
4,0,0,0,1,19,test,1,1,m,Thu Nov 06 2025 10:19:14 GMT-0600 (Central Standard Time),600003.599999994,O,m,1291,25,1,146.bmp,-120,-120,147.bmp,120,-120,148.bmp,-120,120,149.bmp,120,120,9344.29999999702,590659.299999997,7238,no,SM,A,148.bmp,120,120,344709,338681,346725,340694,588932.0,582903.0,590947.0,584916.0,25
1,1,0,0,0,20,test,1,1,z,Thu Nov 06 2025 10:19:14 GMT-0600 (Central Standard Time),609068.200000003,O,z,1016,26,1,138.bmp,-120,-120,139.bmp,120,-120,140.bmp,-120,120,141.bmp,120,120,9062.20000000298,600006.0,7238,yes,SM,A,138.bmp,-120,-120,344709,338681,346725,340694,598278.0,592249.0,600295.0,594264.0,26
4,0,0,0,1,21,test,1,1,z,Thu Nov 06 2025 10:19:14 GMT-0600 (Central Standard Time),618048.799999997,O,z,921,27,1,150.bmp,-120,-120,111.bmp,120,-120,101.bmp,-120,120,102.bmp,120,120,8978.5,609070.299999997,7238,yes,SM,A,102.bmp,120,120,344709,338681,346725,340694,607342.0,601313.0,609358.0,603328.0,27
3,0,0,1,0,22,test,1,1,m,Thu Nov 06 2025 10:19:14 GMT-0600 (Central Standard Time),626995.099999994,O,m,892,28,1,103.bmp,-120,-120,104.bmp,120,-120,105.bmp,-120,120,106.bmp,120,120,8944.0,618051.099999994,7238,no,SM,A,103.bmp,-120,120,344709,338681,346725,340694,616323.0,610294.0,618339.0,612307.0,28
2,0,1,0,0,22,test,1,0,z,Thu Nov 06 2025 10:19:14 GMT-0600 (Central Standard Time),636858.799999997,O,m,1800,29,1,107.bmp,-120,-120,108.bmp,120,-120,109.bmp,-120,120,110.bmp,120,120,9861.40000000596,626997.3999999911,7238,yes,SM,A,108.bmp,120,-120,344709,338681,346725,340694,625270.0,619241.0,627287.0,621255.0,29
3,0,0,1,0,23,test,1,1,z,Thu Nov 06 2025 10:19:14 GMT-0600 (Central Standard Time),645806.8999999911,O,z,913,30,1,111.bmp,-120,-120,112.bmp,120,-120,113.bmp,-120,120,114.bmp,120,120,8946.0,636860.8999999911,7238,yes,SM,A,113.bmp,-120,120,344709,338681,346725,340694,635133.0,629104.0,637134.0,631118.0,30
1,1,0,0,0,23,test,1,0,z,Thu Nov 06 2025 10:19:14 GMT-0600 (Central Standard Time),655869.599999994,O,None,2016,31,1,115.bmp,-120,-120,116.bmp,120,-120,117.bmp,-120,120,118.bmp,120,120,10060.59999999404,645809.0,7238,yes,SM,A,115.bmp,-120,-120,344709,338681,346725,340694,644080.0,638052.0,646097.0,640066.0,31
2,0,1,0,0,24,test,1,1,m,Thu Nov 06 2025 10:19:14 GMT-0600 (Central Standard Time),665284.599999994,O,m,1351,32,1,119.bmp,-120,-120,120.bmp,120,-120,121.bmp,-120,120,122.bmp,120,120,9413.09999999404,655871.5,7238,no,SM,A,119.bmp,120,-120,344709,338681,346725,340694,654144.0,648115.0,656160.0,650129.0,32
4,0,0,0,1,25,test,1,1,z,Thu Nov 06 2025 10:19:14 GMT-0600 (Central Standard Time),674297.099999994,O,z,961,33,1,131.bmp,-120,-120,132.bmp,120,-120,133.bmp,-120,120,134.bmp,120,120,9010.29999999702,665286.799999997,7238,yes,SM,A,134.bmp,120,120,344709,338681,346725,340694,663558.0,657530.0,665574.0,659544.0,33
2,0,1,0,0,26,test,1,1,z,Thu Nov 06 2025 10:19:14 GMT-0600 (Central Standard Time),683394.5,O,z,1035,34,1,123.bmp,-120,-120,124.bmp,120,-120,125.bmp,-120,120,126.bmp,120,120,9095.60000000894,674298.8999999911,7238,yes,SM,A,124.bmp,120,-120,344709,338681,346725,340694,672574.0,666542.0,674588.0,668556.0,34
4,0,0,0,1,27,test,1,1,m,Thu Nov 06 2025 10:19:14 GMT-0600 (Central Standard Time),692524.200000003,O,m,1074,35,1,127.bmp,-120,-120,128.bmp,120,-120,129.bmp,-120,120,130.bmp,120,120,9127.60000000894,683396.599999994,7238,no,SM,A,129.bmp,120,120,344709,338681,346725,340694,681668.0,675640.0,683685.0,677657.0,35
3,0,0,1,0,28,test,1,1,m,Thu Nov 06 2025 10:19:14 GMT-0600 (Central Standard Time),701672.099999994,O,m,1096,36,1,135.bmp,-120,-120,136.bmp,120,-120,137.bmp,-120,120,138.bmp,120,120,9145.39999999106,692526.700000003,7238,no,SM,A,135.bmp,-120,120,344709,338681,346725,340694,690799.0,684770.0,692815.0,686783.0,36
1,1,0,0,0,29,test,1,1,m,Thu Nov 06 2025 10:19:14 GMT-0600 (Central Standard Time),710901.799999997,O,m,1172,37,1,139.bmp,-120,-120,140.bmp,120,-120,141.bmp,-120,120,142.bmp,120,120,9227.70000000298,701674.099999994,7238,no,SM,A,140.bmp,-120,-120,344709,338681,346725,340694,699947.0,693917.0,701963.0,695931.0,37
2,0,1,0,0,30,test,1,1,m,Thu Nov 06 2025 10:19:14 GMT-0600 (Central Standard Time),719749.0,O,m,803,38,1,143.bmp,-120,-120,144.bmp,120,-120,145.bmp,-120,120,146.bmp,120,120,8845.29999999702,710903.700000003,7238,no,SM,A,145.bmp,120,-120,344709,338681,346725,340694,709178.0,703147.0,711180.0,705161.0,38
4,0,0,0,1,31,test,1,1,z,Thu Nov 06 2025 10:19:14 GMT-0600 (Central Standard Time),729112.799999997,O,z,1302,39,1,147.bmp,-120,-120,148.bmp,120,-120,149.bmp,-120,120,150.bmp,120,120,9361.79999999702,719751.0,7238,yes,SM,A,150.bmp,120,120,344709,338681,346725,340694,718024.0,711994.0,720041.0,714009.0,39
3,0,0,1,0,31,test,1,0,m,Thu Nov 06 2025 10:19:14 GMT-0600 (Central Standard Time),738510.599999994,O,z,1347,40,1,104.bmp,-120,-120,105.bmp,120,-120,106.bmp,-120,120,107.bmp,120,120,9395.79999999702,729114.799999997,7238,no,SM,A,105.bmp,-120,120,344709,338681,346725,340694,727388.0,721358.0,729404.0,723372.0,40
1,1,0,0,0,31,test,1,0,z,Thu Nov 06 2025 10:19:14 GMT-0600 (Central Standard Time),747757.3999999911,O,m,1198,41,1,108.bmp,-120,-120,109.bmp,120,-120,110.bmp,-120,120,111.bmp,120,120,9245.0,738512.3999999911,7238,yes,SM,A,108.bmp,-120,-120,344709,338681,346725,340694,736785.0,730756.0,738801.0,732770.0,41
4,0,0,0,1,31,test,1,0,z,Thu Nov 06 2025 10:19:14 GMT-0600 (Central Standard Time),757253.799999997,O,m,1438,42,1,112.bmp,-120,-120,113.bmp,120,-120,114.bmp,-120,120,115.bmp,120,120,9494.20000000298,747759.599999994,7238,yes,SM,A,115.bmp,120,120,344709,338681,346725,340694,746033.0,740003.0,748049.0,742017.0,42
1,1,0,0,0,32,test,1,1,z,Thu Nov 06 2025 10:19:14 GMT-0600 (Central Standard Time),766153.700000003,O,z,846,43,1,116.bmp,-120,-120,117.bmp,120,-120,118.bmp,-120,120,119.bmp,120,120,8897.40000000596,757256.299999997,7238,yes,SM,A,116.bmp,-120,-120,344709,338681,346725,340694,755529.0,749499.0,757545.0,751513.0,43
4,0,0,0,1,32,test,1,0,m,Thu Nov 06 2025 10:19:14 GMT-0600 (Central Standard Time),775349.700000003,O,z,1149,44,1,104.bmp,-120,-120,101.bmp,120,-120,102.bmp,-120,120,103.bmp,120,120,9193.90000000596,766155.799999997,7238,no,SM,A,104.bmp,120,120,344709,338681,346725,340694,764426.0,758399.0,766442.0,760410.0,44
1,1,0,0,0,33,test,1,1,m,Thu Nov 06 2025 10:19:14 GMT-0600 (Central Standard Time),784629.599999994,O,m,1223,45,1,128.bmp,-120,-120,129.bmp,120,-120,130.bmp,-120,120,131.bmp,120,120,9275.5,775354.099999994,7238,no,SM,A,131.bmp,-120,-120,344709,338681,346725,340694,773624.0,767597.0,775639.0,769608.0,45
1,1,0,0,0,34,test,1,1,m,Thu Nov 06 2025 10:19:14 GMT-0600 (Central Standard Time),794425.700000003,O,m,1744,46,1,120.bmp,-120,-120,121.bmp,120,-120,122.bmp,-120,120,123.bmp,120,120,9794.300000011921,784631.3999999911,7238,no,SM,A,121.bmp,-120,-120,344709,338681,346725,340694,782904.0,776875.0,784919.0,778889.0,46
3,0,0,1,0,35,test,1,1,z,Thu Nov 06 2025 10:19:14 GMT-0600 (Central Standard Time),803856.5,O,z,1378,47,1,124.bmp,-120,-120,125.bmp,120,-120,126.bmp,-120,120,127.bmp,120,120,9427.29999999702,794429.200000003,7238,yes,SM,A,126.bmp,-120,120,344709,338681,346725,340694,792702.0,786672.0,794717.0,788685.0,47
3,0,0,1,0,36,test,1,1,z,Thu Nov 06 2025 10:19:14 GMT-0600 (Central Standard Time),813469.599999994,O,z,1563,48,1,140.bmp,-120,-120,141.bmp,120,-120,142.bmp,-120,120,143.bmp,120,120,9610.79999999702,803858.799999997,7238,yes,SM,A,142.bmp,-120,120,344709,338681,346725,340694,802130.0,796102.0,804148.0,798118.0,48
2,0,1,0,0,37,test,1,1,z,Thu Nov 06 2025 10:19:14 GMT-0600 (Central Standard Time),822251.5,O,z,718,49,1,136.bmp,-120,-120,137.bmp,120,-120,138.bmp,-120,120,139.bmp,120,120,8779.20000000298,813472.299999997,7238,yes,SM,A,137.bmp,120,-120,344709,338681,346725,340694,811745.0,805716.0,813761.0,807729.0,49
3,0,0,1,0,38,test,1,1,m,Thu Nov 06 2025 10:19:14 GMT-0600 (Central Standard Time),831346.700000003,O,m,1043,50,1,132.bmp,-120,-120,133.bmp,120,-120,134.bmp,-120,120,135.bmp,120,120,9093.20000000298,822253.5,7238,no,SM,A,132.bmp,-120,120,344709,338681,346725,340694,820524.0,814497.0,822540.0,816509.0,50
2,0,1,0,0,38,test,1,0,z,Thu Nov 06 2025 10:19:14 GMT-0600 (Central Standard Time),840777.0,O,m,1377,51,1,144.bmp,-120,-120,145.bmp,120,-120,146.bmp,-120,120,147.bmp,120,120,9427.60000000894,831349.3999999911,7238,yes,SM,A,145.bmp,120,-120,344709,338681,346725,340694,829622.0,823593.0,831638.0,825606.0,51
4,0,0,0,1,38,test,1,0,m,Thu Nov 06 2025 10:19:14 GMT-0600 (Central Standard Time),850208.799999997,O,z,1378,52,1,148.bmp,-120,-120,149.bmp,120,-120,150.bmp,-120,120,131.bmp,120,120,9429.70000000298,840779.099999994,7238,no,SM,A,148.bmp,120,120,344709,338681,346725,340694,839052.0,833022.0,841069.0,835037.0,52
3,0,0,1,0,38,test,1,0,z,Thu Nov 06 2025 10:19:14 GMT-0600 (Central Standard Time),859704.299999997,O,m,1445,53,1,101.bmp,-120,-120,102.bmp,120,-120,103.bmp,-120,120,104.bmp,120,120,9493.70000000298,850210.599999994,7238,yes,SM,A,103.bmp,-120,120,344709,338681,346725,340694,848482.0,842454.0,850498.0,844467.0,53
1,1,0,0,0,39,test,1,1,m,Thu Nov 06 2025 10:19:14 GMT-0600 (Central Standard Time),869485.599999994,O,m,1723,54,1,105.bmp,-120,-120,106.bmp,120,-120,107.bmp,-120,120,108.bmp,120,120,9779.39999999106,859706.200000003,7238,no,SM,A,107.bmp,-120,-120,344709,338681,346725,340694,857980.0,851949.0,859996.0,853964.0,54
4,0,0,0,1,40,test,1,1,z,Thu Nov 06 2025 10:19:14 GMT-0600 (Central Standard Time),878715.099999994,O,z,1176,55,1,109.bmp,-120,-120,110.bmp,120,-120,111.bmp,-120,120,112.bmp,120,120,9227.59999999404,869487.5,7238,yes,SM,A,112.bmp,120,120,344709,338681,346725,340694,867760.0,861731.0,869775.0,863744.0,55
2,0,1,0,0,40,test,1,0,m,Thu Nov 06 2025 10:19:14 GMT-0600 (Central Standard Time),888213.700000003,O,z,1448,56,1,113.bmp,-120,-120,114.bmp,120,-120,115.bmp,-120,120,116.bmp,120,120,9496.70000000298,878717.0,7238,no,SM,A,113.bmp,120,-120,344709,338681,346725,340694,876991.0,870960.0,879007.0,872974.0,56
4,0,0,0,1,41,test,1,1,m,Thu Nov 06 2025 10:19:14 GMT-0600 (Central Standard Time),897661.200000003,O,m,1383,57,1,117.bmp,-120,-120,118.bmp,120,-120,119.bmp,-120,120,120.bmp,120,120,9443.70000000298,888217.5,7238,no,SM,A,118.bmp,120,120,344709,338681,346725,340694,886488.0,880461.0,888504.0,882472.0,57
3,0,0,1,0,41,test,1,0,z,Thu Nov 06 2025 10:19:14 GMT-0600 (Central Standard Time),906774.200000003,O,m,1066,58,1,121.bmp,-120,-120,122.bmp,120,-120,123.bmp,-120,120,124.bmp,120,120,9110.90000000596,897663.299999997,7238,yes,SM,A,123.bmp,-120,120,344709,338681,346725,340694,895934.0,889907.0,897950.0,891920.0,58
2,0,1,0,0,41,test,1,0,m,Thu Nov 06 2025 10:19:14 GMT-0600 (Central Standard Time),915870.099999994,O,z,1047,59,1,125.bmp,-120,-120,126.bmp,120,-120,127.bmp,-120,120,128.bmp,120,120,9094.09999999404,906776.0,7238,no,SM,A,128.bmp,120,-120,344709,338681,346725,340694,905048.0,899019.0,907064.0,901034.0,59
1,1,0,0,0,42,test,1,1,z,Thu Nov 06 2025 10:19:14 GMT-0600 (Central Standard Time),924918.3999999911,O,z,1014,60,1,129.bmp,-120,-120,130.bmp,120,-120,131.bmp,-120,120,132.bmp,120,120,9046.29999999702,915872.099999994,7238,yes,SM,A,129.bmp,-120,-120,344709,338681,346725,340694,914144.0,908115.0,916145.0,910130.0,60
2,0,1,0,0,42,test,1,0,z,Thu Nov 06 2025 10:19:14 GMT-0600 (Central Standard Time),934281.099999994,O,m,1303,61,1,133.bmp,-120,-120,134.bmp,120,-120,135.bmp,-120,120,136.bmp,120,120,9361.0,924920.099999994,7238,yes,SM,A,134.bmp,120,-120,344709,338681,346725,340694,923193.0,917163.0,925208.0,919176.0,61
4,0,0,0,1,42,test,1,0,z,Thu Nov 06 2025 10:19:14 GMT-0600 (Central Standard Time),943644.599999994,O,m,1315,62,1,141.bmp,-120,-120,142.bmp,120,-120,143.bmp,-120,120,144.bmp,120,120,9361.79999999702,934282.799999997,7238,yes,SM,A,144.bmp,120,120,344709,338681,346725,340694,932556.0,926526.0,934573.0,928541.0,62
1,1,0,0,0,42,test,1,0,m,Thu Nov 06 2025 10:19:14 GMT-0600 (Central Standard Time),953291.299999997,O,z,1583,63,1,145.bmp,-120,-120,146.bmp,120,-120,147.bmp,-120,120,148.bmp,120,120,9644.40000000596,943646.8999999911,7238,no,SM,A,145.bmp,-120,120,344709,338681,346725,340694,941920.0,935890.0,943936.0,937903.0,63
2,0,1,0,0,43,test,1,1,z,Thu Nov 06 2025 10:19:14 GMT-0600 (Central Standard Time),962356.599999994,O,z,1001,64,1,149.bmp,-120,-120,150.bmp,120,-120,112.bmp,-120,120,101.bmp,120,120,9063.20000000298,953293.3999999911,7238,yes,SM,A,150.bmp,120,-120,344709,338681,346725,340694,951566.0,945537.0,953582.0,947552.0,64
4,0,0,0,1,44,test,1,1,m,Thu Nov 06 2025 10:19:14 GMT-0600 (Central Standard Time),971485.200000003,O,m,1081,65,1,102.bmp,-120,-120,103.bmp,120,-120,104.bmp,-120,120,105.bmp,120,120,9126.90000000596,962358.299999997,7238,no,SM,A,104.bmp,120,120,344709,338681,346725,340694,960632.0,954601.0,962646.0,956615.0,65
3,0,0,1,0,45,test,1,1,m,Thu Nov 06 2025 10:19:14 GMT-0600 (Central Standard Time),981132.700000003,O,m,1599,66,1,106.bmp,-120,-120,107.bmp,120,-120,108.bmp,-120,120,109.bmp,120,120,9645.5,971487.200000003,7238,no,SM,A,109.bmp,-120,120,344709,338681,346725,340694,969761.0,963730.0,971777.0,965745.0,66
2,0,1,0,0,46,test,1,1,m,Thu Nov 06 2025 10:19:14 GMT-0600 (Central Standard Time),990496.099999994,O,m,1312,67,1,137.bmp,-120,-120,138.bmp,120,-120,139.bmp,-120,120,140.bmp,120,120,9360.59999999404,981135.5,7238,no,SM,A,139.bmp,120,-120,344709,338681,346725,340694,979407.0,973379.0,981423.0,975393.0,67
3,0,0,1,0,46,test,1,0,z,Thu Nov 06 2025 10:19:14 GMT-0600 (Central Standard Time),1000209.8999999911,O,m,1652,68,1,110.bmp,-120,-120,111.bmp,120,-120,112.bmp,-120,120,113.bmp,120,120,9711.29999999702,990498.599999994,7238,yes,SM,A,112.bmp,-120,120,344709,338681,346725,340694,988771.0,982742.0,990787.0,984755.0,68
1,1,0,0,0,47,test,1,1,m,Thu Nov 06 2025 10:19:14 GMT-0600 (Central Standard Time),1009491.5,O,m,1226,69,1,114.bmp,-120,-120,115.bmp,120,-120,116.bmp,-120,120,117.bmp,120,120,9279.70000000298,1000211.799999997,7238,no,SM,A,115.bmp,-120,-120,344709,338681,346725,340694,998484.0,992455.0,1000501.0,994469.0,69
2,0,1,0,0,47,test,1,0,m,Thu Nov 06 2025 10:19:14 GMT-0600 (Central Standard Time),1019555.099999994,O,None,2016,70,1,118.bmp,-120,-120,119.bmp,120,-120,120.bmp,-120,120,121.bmp,120,120,10060.70000000298,1009494.3999999911,7238,no,SM,A,120.bmp,120,-120,344709,338681,346725,340694,1007765.0,1001738.0,1009782.0,1003750.0,70
4,0,0,0,1,48,test,1,1,z,Thu Nov 06 2025 10:19:14 GMT-0600 (Central Standard Time),1029367.3999999911,O,z,1762,71,1,122.bmp,-120,-120,123.bmp,120,-120,124.bmp,-120,120,125.bmp,120,120,9809.09999999404,1019558.299999997,7238,yes,SM,A,125.bmp,120,120,344709,338681,346725,340694,1017829.0,1011802.0,1019845.0,1013813.0,71
1,1,0,0,0,49,test,1,1,z,Thu Nov 06 2025 10:19:14 GMT-0600 (Central Standard Time),1038614.299999997,O,z,1197,72,1,126.bmp,-120,-120,127.bmp,120,-120,128.bmp,-120,120,129.bmp,120,120,9244.40000000596,1029369.8999999911,7238,yes,SM,A,126.bmp,-120,-120,344709,338681,346725,340694,1027642.0,1021613.0,1029658.0,1023628.0,72
2,0,1,0,0,50,test,1,1,z,Thu Nov 06 2025 10:19:14 GMT-0600 (Central Standard Time),1048461.299999997,O,z,1789,73,1,130.bmp,-120,-120,131.bmp,120,-120,132.bmp,-120,120,133.bmp,120,120,9844.79999999702,1038616.5,7238,yes,SM,A,131.bmp,120,-120,344709,338681,346725,340694,1036889.0,1030860.0,1038906.0,1032874.0,73
4,0,0,0,1,51,test,1,1,m,Thu Nov 06 2025 10:19:14 GMT-0600 (Central Standard Time),1057675.700000003,O,m,1151,74,1,134.bmp,-120,-120,135.bmp,120,-120,136.bmp,-120,120,137.bmp,120,120,9212.300000011921,1048463.3999999911,7238,no,SM,A,136.bmp,120,120,344709,338681,346725,340694,1046736.0,1040707.0,1048752.0,1042720.0,74
2,0,1,0,0,52,test,1,1,m,Thu Nov 06 2025 10:19:14 GMT-0600 (Central Standard Time),1067188.200000003,O,m,1457,75,1,138.bmp,-120,-120,139.bmp,120,-120,140.bmp,-120,120,141.bmp,120,120,9509.800000011921,1057678.399999991,7238,no,SM,A,141.bmp,120,-120,344709,338681,346725,340694,1055949.0,1049922.0,1057966.0,1051934.0,75
1,1,0,0,0,53,test,1,1,z,Thu Nov 06 2025 10:19:14 GMT-0600 (Central Standard Time),1076318.899999991,O,z,1072,76,1,142.bmp,-120,-120,143.bmp,120,-120,144.bmp,-120,120,145.bmp,120,120,9128.199999988079,1067190.700000003,7238,yes,SM,A,142.bmp,-120,-120,344709,338681,346725,340694,1065464.0,1059434.0,1067479.0,1061449.0,76
3,0,0,1,0,54,test,1,1,z,Thu Nov 06 2025 10:19:14 GMT-0600 (Central Standard Time),1085715.799999997,O,z,1341,77,1,150.bmp,-120,-120,111.bmp,120,-120,101.bmp,-120,120,102.bmp,120,120,9394.5,1076321.299999997,7238,yes,SM,A,101.bmp,-120,120,344709,338681,346725,340694,1074593.0,1068564.0,1076610.0,1070578.0,77
1,1,0,0,0,55,test,1,1,m,Thu Nov 06 2025 10:19:14 GMT-0600 (Central Standard Time),1095113.099999994,O,m,1336,78,1,146.bmp,-120,-120,147.bmp,120,-120,148.bmp,-120,120,149.bmp,120,120,9395.29999999702,1085717.799999997,7238,no,SM,A,147.bmp,-120,-120,344709,338681,346725,340694,1083991.0,1077961.0,1086007.0,1079975.0,78
4,0,0,0,1,55,test,1,0,m,Thu Nov 06 2025 10:19:14 GMT-0600 (Central Standard Time),1104726.700000003,O,z,1555,79,1,107.bmp,-120,-120,108.bmp,120,-120,109.bmp,-120,120,110.bmp,120,120,9611.800000011921,1095114.899999991,7238,no,SM,A,107.bmp,120,120,344709,338681,346725,340694,1093388.0,1087358.0,1095404.0,1089372.0,79
3,0,0,1,0,56,test,1,1,m,Thu Nov 06 2025 10:19:14 GMT-0600 (Central Standard Time),1113956.899999991,O,m,1183,80,1,103.bmp,-120,-120,104.bmp,120,-120,105.bmp,-120,120,106.bmp,120,120,9227.79999999702,1104729.099999994,7238,no,SM,A,106.bmp,-120,120,344709,338681,346725,340694,1103002.0,1096972.0,1105017.0,1098986.0,80
