block_c,block_dur,condition,countdown,datetime,endtime,list,multichar_response,project,response,response_time,session_number,start_end,starttime,subject_id,task,task_vers,trial
,,,,Mon Aug 18 2025 14:12:00 GMT-0500 (Central Daylight Time),,,,O,space,444,1,,,7211,WL,C,
prac,,0,,Mon Aug 18 2025 14:12:00 GMT-0500 (Central Daylight Time),,NA,b,O,b,1554,1,,,7211,WL,C,1.0
prac,,0,,Mon Aug 18 2025 14:12:00 GMT-0500 (Central Daylight Time),,NA,bo,O,o,439,1,,,7211,WL,C,1.0
prac,,0,,Mon Aug 18 2025 14:12:00 GMT-0500 (Central Daylight Time),,NA,boo,O,o,163,1,,,7211,WL,C,1.0
prac,,0,,Mon Aug 18 2025 14:12:00 GMT-0500 (Central Daylight Time),,NA,boos,O,s,246,1,,,7211,WL,C,1.0
prac,,0,,Mon Aug 18 2025 14:12:00 GMT-0500 (Central Daylight Time),,NA,boost,O,t,282,1,,,7211,WL,C,1.0
prac,,0,,Mon Aug 18 2025 14:12:00 GMT-0500 (Central Daylight Time),,NA,boostenter,O,enter,1687,1,,,7211,WL,C,1.0
1,5.0329999923706055,learn,54967.000007629395,Mon Aug 18 2025 14:12:00 GMT-0500 (Central Daylight Time),157379.70000004768,A,w,O,w,5013,1,5032.300000071526,152347.39999997616,7211,WL,C,1.0
1,5.349999904632568,learn,54650.00009536743,Mon Aug 18 2025 14:12:00 GMT-0500 (Central Daylight Time),157696.70000004768,A,wh,O,h,303,1,5349.300000071526,152347.39999997616,7211,WL,C,1.0
1,5.533999919891357,learn,54466.00008010864,Mon Aug 18 2025 14:12:00 GMT-0500 (Central Daylight Time),157881.10000002384,A,whe,O,e,170,1,5533.700000047684,152347.39999997616,7211,WL,C,1.0
1,5.75,learn,54250.0,Mon Aug 18 2025 14:12:00 GMT-0500 (Central Daylight Time),158097.10000002384,A,whea,O,a,200,1,5749.700000047684,152347.39999997616,7211,WL,C,1.0
1,6.08299994468689,learn,53917.00005531311,Mon Aug 18 2025 14:12:00 GMT-0500 (Central Daylight Time),158430.60000002384,A,wheat,O,t,312,1,6083.200000047684,152347.39999997616,7211,WL,C,1.0
1,7.915999889373779,learn,52084.00011062622,Mon Aug 18 2025 14:12:00 GMT-0500 (Central Daylight Time),160263.20000004768,A,wheatenter,O,enter,1823,1,7915.800000071526,152347.39999997616,7211,WL,C,1.0
1,10.614999771118164,learn,49385.000228881836,Mon Aug 18 2025 14:12:00 GMT-0500 (Central Daylight Time),162961.79999995232,A,t,O,t,2677,1,2698.1999999284744,160263.60000002384,7211,WL,C,2.0
1,10.847999811172485,learn,49152.000188827515,Mon Aug 18 2025 14:12:00 GMT-0500 (Central Daylight Time),163194.70000004768,A,to,O,o,209,1,2931.100000023842,160263.60000002384,7211,WL,C,2.0
1,11.02999997138977,learn,48970.00002861023,Mon Aug 18 2025 14:12:00 GMT-0500 (Central Daylight Time),163377.5,A,tow,O,w,166,1,3113.899999976158,160263.60000002384,7211,WL,C,2.0
1,11.247999906539917,learn,48752.00009346008,Mon Aug 18 2025 14:12:00 GMT-0500 (Central Daylight Time),163594.79999995232,A,towe,O,e,194,1,3331.1999999284744,160263.60000002384,7211,WL,C,2.0
1,11.513999938964844,learn,48486.000061035156,Mon Aug 18 2025 14:12:00 GMT-0500 (Central Daylight Time),163861.5,A,tower,O,r,254,1,3597.899999976158,160263.60000002384,7211,WL,C,2.0
1,12.613999843597412,learn,47386.00015640259,Mon Aug 18 2025 14:12:00 GMT-0500 (Central Daylight Time),164961.0,A,towerenter,O,enter,1085,1,4697.399999976158,160263.60000002384,7211,WL,C,2.0
1,14.197999954223633,learn,45802.00004577637,Mon Aug 18 2025 14:12:00 GMT-0500 (Central Daylight Time),166544.89999997616,A,q,O,q,1561,1,1583.5,164961.39999997616,7211,WL,C,3.0
1,14.562999963760376,learn,45437.000036239624,Mon Aug 18 2025 14:12:00 GMT-0500 (Central Daylight Time),166910.20000004768,A,qu,O,u,344,1,1948.8000000715256,164961.39999997616,7211,WL,C,3.0
1,14.846999883651733,learn,45153.00011634827,Mon Aug 18 2025 14:12:00 GMT-0500 (Central Daylight Time),167194.0,A,que,O,e,262,1,2232.600000023842,164961.39999997616,7211,WL,C,3.0
1,14.997999906539917,learn,45002.00009346008,Mon Aug 18 2025 14:12:00 GMT-0500 (Central Daylight Time),167345.0,A,quee,O,e,127,1,2383.600000023842,164961.39999997616,7211,WL,C,3.0
1,15.214999914169312,learn,44785.00008583069,Mon Aug 18 2025 14:12:00 GMT-0500 (Central Daylight Time),167562.0,A,queen,O,n,199,1,2600.600000023842,164961.39999997616,7211,WL,C,3.0
1,16.3439998626709,learn,43656.0001373291,Mon Aug 18 2025 14:12:00 GMT-0500 (Central Daylight Time),168691.39999997616,A,queenenter,O,enter,1118,1,3730.0,164961.39999997616,7211,WL,C,3.0
1,17.77899980545044,learn,42221.00019454956,Mon Aug 18 2025 14:12:00 GMT-0500 (Central Daylight Time),170125.79999995232,A,b,O,b,1414,1,1434.0999999046326,168691.70000004768,7211,WL,C,4.0
1,18.17899990081787,learn,41821.00009918213,Mon Aug 18 2025 14:12:00 GMT-0500 (Central Daylight Time),170526.70000004768,A,bo,O,o,379,1,1835.0,168691.70000004768,7211,WL,C,4.0
1,18.59499979019165,learn,41405.00020980835,Mon Aug 18 2025 14:12:00 GMT-0500 (Central Daylight Time),170941.70000004768,A,boy,O,y,403,1,2250.0,168691.70000004768,7211,WL,C,4.0
1,19.676999807357788,learn,40323.00019264221,Mon Aug 18 2025 14:12:00 GMT-0500 (Central Daylight Time),172023.70000004768,A,boyenter,O,enter,1068,1,3332.0,168691.70000004768,7211,WL,C,4.0
1,22.111999988555908,learn,37888.00001144409,Mon Aug 18 2025 14:12:00 GMT-0500 (Central Daylight Time),174459.10000002384,A,h,O,h,2419,1,2435.100000023842,172024.0,7211,WL,C,5.0
1,22.40999984741211,learn,37590.00015258789,Mon Aug 18 2025 14:12:00 GMT-0500 (Central Daylight Time),174757.5,A,ho,O,o,278,1,2733.5,172024.0,7211,WL,C,5.0
1,22.662999868392944,learn,37337.000131607056,Mon Aug 18 2025 14:12:00 GMT-0500 (Central Daylight Time),175009.70000004768,A,hom,O,m,237,1,2985.7000000476837,172024.0,7211,WL,C,5.0
1,22.942999839782715,learn,37057.000160217285,Mon Aug 18 2025 14:12:00 GMT-0500 (Central Daylight Time),175290.60000002384,A,home,O,e,263,1,3266.600000023842,172024.0,7211,WL,C,5.0
1,23.944999933242798,learn,36055.0000667572,Mon Aug 18 2025 14:12:00 GMT-0500 (Central Daylight Time),176291.60000002384,A,homeenter,O,enter,978,1,4267.600000023842,172024.0,7211,WL,C,5.0
1,26.125999927520752,learn,33874.00007247925,Mon Aug 18 2025 14:12:00 GMT-0500 (Central Daylight Time),178473.20000004768,A,c,O,c,2168,1,2181.2000000476837,176292.0,7211,WL,C,6.0
1,26.274999856948853,learn,33725.00014305115,Mon Aug 18 2025 14:12:00 GMT-0500 (Central Daylight Time),178622.29999995232,A,ca,O,a,135,1,2330.2999999523163,176292.0,7211,WL,C,6.0
1,26.674999952316284,learn,33325.000047683716,Mon Aug 18 2025 14:12:00 GMT-0500 (Central Daylight Time),179022.29999995232,A,cat,O,t,380,1,2730.2999999523163,176292.0,7211,WL,C,6.0
1,26.877999782562256,learn,33122.000217437744,Mon Aug 18 2025 14:12:00 GMT-0500 (Central Daylight Time),179224.70000004768,A,catt,O,t,177,1,2932.7000000476837,176292.0,7211,WL,C,6.0
1,27.075999975204468,learn,32924.00002479553,Mon Aug 18 2025 14:12:00 GMT-0500 (Central Daylight Time),179423.20000004768,A,cattl,O,l,182,1,3131.2000000476837,176292.0,7211,WL,C,6.0
1,27.20799994468689,learn,32792.00005531311,Mon Aug 18 2025 14:12:00 GMT-0500 (Central Daylight Time),179555.10000002384,A,cattle,O,e,121,1,3263.100000023842,176292.0,7211,WL,C,6.0
1,27.857999801635742,learn,32142.000198364258,Mon Aug 18 2025 14:12:00 GMT-0500 (Central Daylight Time),180205.5,A,cattleenter,O,enter,631,1,3913.5,176292.0,7211,WL,C,6.0
1,31.85699987411499,learn,28143.00012588501,Mon Aug 18 2025 14:12:00 GMT-0500 (Central Daylight Time),184203.79999995232,A,q,O,q,3988,1,3998.0,180205.79999995232,7211,WL,C,7.0
1,32.223999977111816,learn,27776.000022888184,Mon Aug 18 2025 14:12:00 GMT-0500 (Central Daylight Time),184571.20000004768,A,qu,O,u,346,1,4365.400000095367,180205.79999995232,7211,WL,C,7.0
1,32.45799994468689,learn,27542.00005531311,Mon Aug 18 2025 14:12:00 GMT-0500 (Central Daylight Time),184804.79999995232,A,que,O,e,212,1,4599.0,180205.79999995232,7211,WL,C,7.0
1,32.60899996757507,learn,27391.000032424927,Mon Aug 18 2025 14:12:00 GMT-0500 (Central Daylight Time),184955.89999997616,A,quee,O,e,144,1,4750.100000023842,180205.79999995232,7211,WL,C,7.0
1,32.84299993515015,learn,27157.000064849854,Mon Aug 18 2025 14:12:00 GMT-0500 (Central Daylight Time),185190.20000004768,A,queen,O,n,223,1,4984.400000095367,180205.79999995232,7211,WL,C,7.0
1,33.69099998474121,learn,26309.00001525879,Mon Aug 18 2025 14:12:00 GMT-0500 (Central Daylight Time),186038.10000002384,A,queenenter,O,enter,829,1,5832.300000071526,180205.79999995232,7211,WL,C,7.0
1,40.70699977874756,learn,19293.00022125244,Mon Aug 18 2025 14:12:00 GMT-0500 (Central Daylight Time),193054.5,A,s,O,s,7004,1,7016.0,186038.5,7211,WL,C,8.0
1,41.002999782562256,learn,18997.000217437744,Mon Aug 18 2025 14:12:00 GMT-0500 (Central Daylight Time),193349.79999995232,A,su,O,u,281,1,7311.299999952316,186038.5,7211,WL,C,8.0
1,41.30299997329712,learn,18697.00002670288,Mon Aug 18 2025 14:12:00 GMT-0500 (Central Daylight Time),193650.0,A,sug,O,g,285,1,7611.5,186038.5,7211,WL,C,8.0
1,41.419999837875366,learn,18580.000162124634,Mon Aug 18 2025 14:12:00 GMT-0500 (Central Daylight Time),193767.20000004768,A,suga,O,a,114,1,7728.700000047684,186038.5,7211,WL,C,8.0
1,41.73799991607666,learn,18262.00008392334,Mon Aug 18 2025 14:12:00 GMT-0500 (Central Daylight Time),194084.79999995232,A,sugar,O,r,310,1,8046.299999952316,186038.5,7211,WL,C,8.0
1,42.76899981498718,learn,17231.000185012817,Mon Aug 18 2025 14:12:00 GMT-0500 (Central Daylight Time),195116.20000004768,A,sugarenter,O,enter,1014,1,9077.700000047684,186038.5,7211,WL,C,8.0
1,54.61699986457825,learn,5383.000135421753,Mon Aug 18 2025 14:12:00 GMT-0500 (Central Daylight Time),206963.79999995232,A,enter,O,enter,11830,1,11847.299999952316,195116.5,7211,WL,C,9.0
1,60.01599979400635,learn,-15.999794006347656,Mon Aug 18 2025 14:12:00 GMT-0500 (Central Daylight Time),212363.0,A,None,O,None,5394,1,5398.899999976158,206964.10000002384,7211,WL,C,10.0
2,2.065000057220459,learn,57934.99994277954,Mon Aug 18 2025 14:12:00 GMT-0500 (Central Daylight Time),283890.39999997616,A,t,O,t,2058,1,2064.5,281825.89999997616,7211,WL,C,1.0
2,2.296999931335449,learn,57703.00006866455,Mon Aug 18 2025 14:12:00 GMT-0500 (Central Daylight Time),284122.39999997616,A,to,O,o,209,1,2296.5,281825.89999997616,7211,WL,C,1.0
2,2.5980000495910645,learn,57401.999950408936,Mon Aug 18 2025 14:12:00 GMT-0500 (Central Daylight Time),284423.10000002384,A,tow,O,w,278,1,2597.2000000476837,281825.89999997616,7211,WL,C,1.0
2,2.797999858856201,learn,57202.0001411438,Mon Aug 18 2025 14:12:00 GMT-0500 (Central Daylight Time),284622.7999999523,A,towe,O,e,188,1,2796.899999976158,281825.89999997616,7211,WL,C,1.0
2,4.21399998664856,learn,55786.00001335144,Mon Aug 18 2025 14:12:00 GMT-0500 (Central Daylight Time),286039.7000000477,A,tower,O,r,1396,1,4213.800000071526,281825.89999997616,7211,WL,C,1.0
2,5.180999994277954,learn,54819.000005722046,Mon Aug 18 2025 14:12:00 GMT-0500 (Central Daylight Time),287006.10000002384,A,towerenter,O,enter,954,1,5180.200000047684,281825.89999997616,7211,WL,C,1.0
2,5.681999921798706,learn,54318.000078201294,Mon Aug 18 2025 14:12:00 GMT-0500 (Central Daylight Time),287506.7999999523,A,w,O,w,486,1,500.2999999523163,287006.5,7211,WL,C,2.0
2,6.496999979019165,learn,53503.000020980835,Mon Aug 18 2025 14:12:00 GMT-0500 (Central Daylight Time),288321.7999999523,A,wh,O,h,792,1,1315.2999999523163,287006.5,7211,WL,C,2.0
2,6.662999868392944,learn,53337.000131607056,Mon Aug 18 2025 14:12:00 GMT-0500 (Central Daylight Time),288488.60000002384,A,whe,O,e,142,1,1482.1000000238419,287006.5,7211,WL,C,2.0
2,6.897000074386597,learn,53102.9999256134,Mon Aug 18 2025 14:12:00 GMT-0500 (Central Daylight Time),288722.2000000477,A,whea,O,a,219,1,1715.7000000476837,287006.5,7211,WL,C,2.0
2,7.230000019073486,learn,52769.999980926514,Mon Aug 18 2025 14:12:00 GMT-0500 (Central Daylight Time),289055.2000000477,A,wheat,O,t,312,1,2048.7000000476837,287006.5,7211,WL,C,2.0
2,9.74399995803833,learn,50256.00004196167,Mon Aug 18 2025 14:12:00 GMT-0500 (Central Daylight Time),291569.39999997616,A,wheatenter,O,enter,2507,1,4562.899999976158,287006.5,7211,WL,C,2.0
2,11.010999917984009,learn,48989.00008201599,Mon Aug 18 2025 14:12:00 GMT-0500 (Central Daylight Time),292836.7000000477,A,q,O,q,1257,1,1267.1000000238419,291569.60000002384,7211,WL,C,3.0
2,11.39299988746643,learn,48607.00011253357,Mon Aug 18 2025 14:12:00 GMT-0500 (Central Daylight Time),293218.60000002384,A,qu,O,u,362,1,1649.0,291569.60000002384,7211,WL,C,3.0
2,11.809999942779541,learn,48190.00005722046,Mon Aug 18 2025 14:12:00 GMT-0500 (Central Daylight Time),293635.7000000477,A,que,O,e,400,1,2066.100000023842,291569.60000002384,7211,WL,C,3.0
2,11.960999965667725,learn,48039.000034332275,Mon Aug 18 2025 14:12:00 GMT-0500 (Central Daylight Time),293786.5,A,quee,O,e,140,1,2216.899999976158,291569.60000002384,7211,WL,C,3.0
2,12.226999998092651,learn,47773.00000190735,Mon Aug 18 2025 14:12:00 GMT-0500 (Central Daylight Time),294052.2000000477,A,queen,O,n,253,1,2482.600000023842,291569.60000002384,7211,WL,C,3.0
2,13.226999998092651,learn,46773.00000190735,Mon Aug 18 2025 14:12:00 GMT-0500 (Central Daylight Time),295052.10000002384,A,queenenter,O,enter,978,1,3482.5,291569.60000002384,7211,WL,C,3.0
2,14.07800006866455,learn,45921.99993133545,Mon Aug 18 2025 14:12:00 GMT-0500 (Central Daylight Time),295902.89999997616,A,h,O,h,838,1,850.5,295052.39999997616,7211,WL,C,4.0
2,14.460000038146973,learn,45539.99996185303,Mon Aug 18 2025 14:12:00 GMT-0500 (Central Daylight Time),296285.0,A,ho,O,o,365,1,1232.6000000238419,295052.39999997616,7211,WL,C,4.0
2,15.875,learn,44125.0,Mon Aug 18 2025 14:12:00 GMT-0500 (Central Daylight Time),297700.0,A,hom,O,m,1405,1,2647.600000023842,295052.39999997616,7211,WL,C,4.0
2,16.276000022888184,learn,43723.99997711182,Mon Aug 18 2025 14:12:00 GMT-0500 (Central Daylight Time),298101.2000000477,A,home,O,e,392,1,3048.8000000715256,295052.39999997616,7211,WL,C,4.0
2,17.524999856948853,learn,42475.00014305115,Mon Aug 18 2025 14:12:00 GMT-0500 (Central Daylight Time),299350.5,A,homeb,O,b,1236,1,4298.100000023842,295052.39999997616,7211,WL,C,4.0
2,17.89199995994568,learn,42108.00004005432,Mon Aug 18 2025 14:12:00 GMT-0500 (Central Daylight Time),299717.2999999523,A,homebo,O,o,355,1,4664.899999976158,295052.39999997616,7211,WL,C,4.0
2,18.274999856948853,learn,41725.00014305115,Mon Aug 18 2025 14:12:00 GMT-0500 (Central Daylight Time),300100.2000000477,A,homeboy,O,y,372,1,5047.800000071526,295052.39999997616,7211,WL,C,4.0
2,33.5550000667572,learn,26444.999933242798,Mon Aug 18 2025 14:12:00 GMT-0500 (Central Daylight Time),315380.5,A,homebo,O,backspace,15270,1,20328.100000023842,295052.39999997616,7211,WL,C,4.0
2,33.72099995613098,learn,26279.00004386902,Mon Aug 18 2025 14:12:00 GMT-0500 (Central Daylight Time),315546.2999999523,A,homeb,O,backspace,142,1,20493.899999976158,295052.39999997616,7211,WL,C,4.0
2,34.03699994087219,learn,25963.000059127808,Mon Aug 18 2025 14:12:00 GMT-0500 (Central Daylight Time),315862.10000002384,A,home,O,backspace,293,1,20809.700000047684,295052.39999997616,7211,WL,C,4.0
2,34.20300006866455,learn,25796.99993133545,Mon Aug 18 2025 14:12:00 GMT-0500 (Central Daylight Time),316028.39999997616,A,hom,O,backspace,147,1,20976.0,295052.39999997616,7211,WL,C,4.0
2,35.2189998626709,learn,24781.0001373291,Mon Aug 18 2025 14:12:00 GMT-0500 (Central Daylight Time),317044.7000000477,A,home,O,e,1003,1,21992.300000071526,295052.39999997616,7211,WL,C,4.0
2,35.5699999332428,learn,24430.000066757202,Mon Aug 18 2025 14:12:00 GMT-0500 (Central Daylight Time),317395.0,A,homeenter,O,enter,330,1,22342.600000023842,295052.39999997616,7211,WL,C,4.0
2,36.78600001335144,learn,23213.99998664856,Mon Aug 18 2025 14:12:00 GMT-0500 (Central Daylight Time),318611.0,A,b,O,b,1208,1,1215.6000000238419,317395.39999997616,7211,WL,C,5.0
2,37.26900005340576,learn,22730.99994659424,Mon Aug 18 2025 14:12:00 GMT-0500 (Central Daylight Time),319094.2000000477,A,bo,O,o,462,1,1698.8000000715256,317395.39999997616,7211,WL,C,5.0
2,37.651999950408936,learn,22348.000049591064,Mon Aug 18 2025 14:12:00 GMT-0500 (Central Daylight Time),319477.5,A,boy,O,y,370,1,2082.100000023842,317395.39999997616,7211,WL,C,5.0
2,38.70199990272522,learn,21298.00009727478,Mon Aug 18 2025 14:12:00 GMT-0500 (Central Daylight Time),320527.39999997616,A,boyenter,O,enter,1026,1,3132.0,317395.39999997616,7211,WL,C,5.0
2,42.23399996757507,learn,17766.000032424927,Mon Aug 18 2025 14:12:00 GMT-0500 (Central Daylight Time),324059.39999997616,A,d,O,d,3516,1,3531.6999999284744,320527.7000000477,7211,WL,C,6.0
2,42.50099992752075,learn,17499.000072479248,Mon Aug 18 2025 14:12:00 GMT-0500 (Central Daylight Time),324326.7000000477,A,do,O,o,249,1,3799.0,320527.7000000477,7211,WL,C,6.0
2,42.66700005531311,learn,17332.99994468689,Mon Aug 18 2025 14:12:00 GMT-0500 (Central Daylight Time),324492.39999997616,A,doc,O,c,145,1,3964.6999999284744,320527.7000000477,7211,WL,C,6.0
2,43.03399991989136,learn,16966.000080108643,Mon Aug 18 2025 14:12:00 GMT-0500 (Central Daylight Time),324859.7000000477,A,doct,O,t,356,1,4332.0,320527.7000000477,7211,WL,C,6.0
2,43.20099997520447,learn,16799.000024795532,Mon Aug 18 2025 14:12:00 GMT-0500 (Central Daylight Time),325026.0,A,docto,O,o,149,1,4498.299999952316,320527.7000000477,7211,WL,C,6.0
2,44.61699986457825,learn,15383.000135421753,Mon Aug 18 2025 14:12:00 GMT-0500 (Central Daylight Time),326442.39999997616,A,doctor,O,r,1400,1,5914.699999928474,320527.7000000477,7211,WL,C,6.0
2,45.59999990463257,learn,14400.000095367432,Mon Aug 18 2025 14:12:00 GMT-0500 (Central Daylight Time),327425.2999999523,A,doctorenter,O,enter,968,1,6897.599999904633,320527.7000000477,7211,WL,C,6.0
2,47.134000062942505,learn,12865.999937057495,Mon Aug 18 2025 14:12:00 GMT-0500 (Central Daylight Time),328958.7999999523,A,n,O,n,1522,1,1533.0999999046326,327425.7000000477,7211,WL,C,7.0
2,47.34999990463257,learn,12650.000095367432,Mon Aug 18 2025 14:12:00 GMT-0500 (Central Daylight Time),329175.10000002384,A,na,O,a,196,1,1749.3999999761581,327425.7000000477,7211,WL,C,7.0
2,47.61800003051758,learn,12381.999969482422,Mon Aug 18 2025 14:12:00 GMT-0500 (Central Daylight Time),329442.7999999523,A,nai,O,i,250,1,2017.0999999046326,327425.7000000477,7211,WL,C,7.0
2,47.8989999294281,learn,12101.0000705719,Mon Aug 18 2025 14:12:00 GMT-0500 (Central Daylight Time),329724.60000002384,A,nail,O,l,270,1,2298.899999976158,327425.7000000477,7211,WL,C,7.0
2,48.76600003242493,learn,11233.999967575073,Mon Aug 18 2025 14:12:00 GMT-0500 (Central Daylight Time),330590.89999997616,A,nailenter,O,enter,846,1,3165.1999999284744,327425.7000000477,7211,WL,C,7.0
2,51.31599998474121,learn,8684.000015258789,Mon Aug 18 2025 14:12:00 GMT-0500 (Central Daylight Time),333141.5,A,s,O,s,2539,1,2550.2999999523163,330591.2000000477,7211,WL,C,8.0
2,51.598000049591064,learn,8401.999950408936,Mon Aug 18 2025 14:12:00 GMT-0500 (Central Daylight Time),333423.39999997616,A,sh,O,h,272,1,2832.1999999284744,330591.2000000477,7211,WL,C,8.0
2,51.882999897003174,learn,8117.000102996826,Mon Aug 18 2025 14:12:00 GMT-0500 (Central Daylight Time),333708.10000002384,A,sho,O,o,278,1,3116.899999976158,330591.2000000477,7211,WL,C,8.0
2,52.19799995422363,learn,7802.000045776367,Mon Aug 18 2025 14:12:00 GMT-0500 (Central Daylight Time),334023.7000000477,A,shor,O,r,302,1,3432.5,330591.2000000477,7211,WL,C,8.0
2,52.38199996948242,learn,7618.000030517578,Mon Aug 18 2025 14:12:00 GMT-0500 (Central Daylight Time),334206.89999997616,A,shore,O,e,160,1,3615.6999999284744,330591.2000000477,7211,WL,C,8.0
2,53.28099989891052,learn,6719.0001010894775,Mon Aug 18 2025 14:12:00 GMT-0500 (Central Daylight Time),335106.39999997616,A,shoreenter,O,enter,878,1,4515.199999928474,330591.2000000477,7211,WL,C,8.0
2,55.46399998664856,learn,4536.00001335144,Mon Aug 18 2025 14:12:00 GMT-0500 (Central Daylight Time),337289.60000002384,A,c,O,c,2168,1,2182.899999976158,335106.7000000477,7211,WL,C,9.0
2,55.6800000667572,learn,4319.999933242798,Mon Aug 18 2025 14:12:00 GMT-0500 (Central Daylight Time),337505.39999997616,A,ca,O,a,207,1,2398.6999999284744,335106.7000000477,7211,WL,C,9.0
2,56.11399984359741,learn,3886.000156402588,Mon Aug 18 2025 14:12:00 GMT-0500 (Central Daylight Time),337939.2999999523,A,cat,O,t,415,1,2832.5999999046326,335106.7000000477,7211,WL,C,9.0
2,56.263999938964844,learn,3736.0000610351562,Mon Aug 18 2025 14:12:00 GMT-0500 (Central Daylight Time),338088.89999997616,A,catt,O,t,130,1,2982.1999999284744,335106.7000000477,7211,WL,C,9.0
2,56.5460000038147,learn,3453.9999961853027,Mon Aug 18 2025 14:12:00 GMT-0500 (Central Daylight Time),338371.2000000477,A,cattl,O,l,265,1,3264.5,335106.7000000477,7211,WL,C,9.0
2,56.6800000667572,learn,3319.999933242798,Mon Aug 18 2025 14:12:00 GMT-0500 (Central Daylight Time),338505.60000002384,A,cattle,O,e,126,1,3398.899999976158,335106.7000000477,7211,WL,C,9.0
2,57.664000034332275,learn,2335.9999656677246,Mon Aug 18 2025 14:12:00 GMT-0500 (Central Daylight Time),339489.10000002384,A,cattleenter,O,enter,959,1,4382.399999976158,335106.7000000477,7211,WL,C,9.0
2,59.27999997138977,learn,720.0000286102295,Mon Aug 18 2025 14:12:00 GMT-0500 (Central Daylight Time),341105.0,A,c,O,c,1602,1,1615.6000000238419,339489.39999997616,7211,WL,C,10.0
2,59.545000076293945,learn,454.9999237060547,Mon Aug 18 2025 14:12:00 GMT-0500 (Central Daylight Time),341370.39999997616,A,ca,O,a,256,1,1881.0,339489.39999997616,7211,WL,C,10.0
2,59.86199998855591,learn,138.0000114440918,Mon Aug 18 2025 14:12:00 GMT-0500 (Central Daylight Time),341687.10000002384,A,can,O,n,302,1,2197.7000000476837,339489.39999997616,7211,WL,C,10.0
2,60.01199984550476,learn,-11.999845504760742,Mon Aug 18 2025 14:12:00 GMT-0500 (Central Daylight Time),341837.7000000477,A,canNone,O,None,143,1,2348.3000000715256,339489.39999997616,7211,WL,C,10.0
3,1.2000000476837158,learn,58799.999952316284,Mon Aug 18 2025 14:12:00 GMT-0500 (Central Daylight Time),414514.39999997616,A,t,O,t,1190,1,1199.6000000238419,413314.7999999523,7211,WL,C,1.0
3,1.434999942779541,learn,58565.00005722046,Mon Aug 18 2025 14:12:00 GMT-0500 (Central Daylight Time),414749.0,A,to,O,o,222,1,1434.2000000476837,413314.7999999523,7211,WL,C,1.0
3,1.616999864578247,learn,58383.00013542175,Mon Aug 18 2025 14:12:00 GMT-0500 (Central Daylight Time),414931.7000000477,A,tow,O,w,173,1,1616.9000000953674,413314.7999999523,7211,WL,C,1.0
3,1.8659999370574951,learn,58134.000062942505,Mon Aug 18 2025 14:12:00 GMT-0500 (Central Daylight Time),415180.2999999523,A,towe,O,e,238,1,1865.5,413314.7999999523,7211,WL,C,1.0
3,2.0829999446868896,learn,57917.00005531311,Mon Aug 18 2025 14:12:00 GMT-0500 (Central Daylight Time),415396.7999999523,A,tower,O,r,205,1,2082.0,413314.7999999523,7211,WL,C,1.0
3,3.2160000801086426,learn,56783.99991989136,Mon Aug 18 2025 14:12:00 GMT-0500 (Central Daylight Time),416530.2000000477,A,towerenter,O,enter,1115,1,3215.4000000953674,413314.7999999523,7211,WL,C,1.0
3,4.382999897003174,learn,55617.000102996826,Mon Aug 18 2025 14:12:00 GMT-0500 (Central Daylight Time),417697.2000000477,A,w,O,w,1147,1,1166.8000000715256,416530.39999997616,7211,WL,C,2.0
3,4.698999881744385,learn,55301.000118255615,Mon Aug 18 2025 14:12:00 GMT-0500 (Central Daylight Time),418013.5,A,wh,O,h,303,1,1483.1000000238419,416530.39999997616,7211,WL,C,2.0
3,4.832000017166138,learn,55167.99998283386,Mon Aug 18 2025 14:12:00 GMT-0500 (Central Daylight Time),418146.10000002384,A,whe,O,e,128,1,1615.7000000476837,416530.39999997616,7211,WL,C,2.0
3,5.098999977111816,learn,54901.00002288818,Mon Aug 18 2025 14:12:00 GMT-0500 (Central Daylight Time),418413.5,A,wher,O,r,250,1,1883.1000000238419,416530.39999997616,7211,WL,C,2.0
3,5.799000024795532,learn,54200.99997520447,Mon Aug 18 2025 14:12:00 GMT-0500 (Central Daylight Time),419113.2000000477,A,whe,O,backspace,678,1,2582.8000000715256,416530.39999997616,7211,WL,C,2.0
3,6.664000034332275,learn,53335.999965667725,Mon Aug 18 2025 14:12:00 GMT-0500 (Central Daylight Time),419978.7000000477,A,whea,O,a,854,1,3448.3000000715256,416530.39999997616,7211,WL,C,2.0
3,7.414999961853027,learn,52585.00003814697,Mon Aug 18 2025 14:12:00 GMT-0500 (Central Daylight Time),420728.7000000477,A,wheat,O,t,732,1,4198.300000071526,416530.39999997616,7211,WL,C,2.0
3,7.864000082015991,learn,52135.99991798401,Mon Aug 18 2025 14:12:00 GMT-0500 (Central Daylight Time),421178.5,A,wheatenter,O,enter,439,1,4648.100000023842,416530.39999997616,7211,WL,C,2.0
3,8.815000057220459,learn,51184.99994277954,Mon Aug 18 2025 14:12:00 GMT-0500 (Central Daylight Time),422128.89999997616,A,q,O,q,935,1,950.1000000238419,421178.7999999523,7211,WL,C,3.0
3,9.098000049591064,learn,50901.999950408936,Mon Aug 18 2025 14:12:00 GMT-0500 (Central Daylight Time),422411.89999997616,A,qu,O,u,265,1,1233.1000000238419,421178.7999999523,7211,WL,C,3.0
3,9.313999891281128,learn,50686.00010871887,Mon Aug 18 2025 14:12:00 GMT-0500 (Central Daylight Time),422628.0,A,que,O,e,209,1,1449.2000000476837,421178.7999999523,7211,WL,C,3.0
3,9.480999946594238,learn,50519.00005340576,Mon Aug 18 2025 14:12:00 GMT-0500 (Central Daylight Time),422795.60000002384,A,quee,O,e,157,1,1616.8000000715256,421178.7999999523,7211,WL,C,3.0
3,9.730000019073486,learn,50269.999980926514,Mon Aug 18 2025 14:12:00 GMT-0500 (Central Daylight Time),423044.39999997616,A,queen,O,n,229,1,1865.6000000238419,421178.7999999523,7211,WL,C,3.0
3,10.614000082015991,learn,49385.99991798401,Mon Aug 18 2025 14:12:00 GMT-0500 (Central Daylight Time),423928.0,A,queenenter,O,enter,859,1,2749.2000000476837,421178.7999999523,7211,WL,C,3.0
3,12.710999965667725,learn,47289.000034332275,Mon Aug 18 2025 14:12:00 GMT-0500 (Central Daylight Time),426025.7000000477,A,s,O,s,2083,1,2097.4000000953674,423928.2999999523,7211,WL,C,4.0
3,13.04699993133545,learn,46953.00006866455,Mon Aug 18 2025 14:12:00 GMT-0500 (Central Daylight Time),426360.7000000477,A,su,O,u,317,1,2432.4000000953674,423928.2999999523,7211,WL,C,4.0
3,13.296000003814697,learn,46703.9999961853,Mon Aug 18 2025 14:12:00 GMT-0500 (Central Daylight Time),426610.0,A,sug,O,g,234,1,2681.7000000476837,423928.2999999523,7211,WL,C,4.0
3,13.430000066757202,learn,46569.9999332428,Mon Aug 18 2025 14:12:00 GMT-0500 (Central Daylight Time),426744.10000002384,A,suga,O,a,110,1,2815.8000000715256,423928.2999999523,7211,WL,C,4.0
3,13.763000011444092,learn,46236.99998855591,Mon Aug 18 2025 14:12:00 GMT-0500 (Central Daylight Time),427077.0,A,sugar,O,r,312,1,3148.7000000476837,423928.2999999523,7211,WL,C,4.0
3,14.777999877929688,learn,45222.00012207031,Mon Aug 18 2025 14:12:00 GMT-0500 (Central Daylight Time),428092.2999999523,A,sugarenter,O,enter,998,1,4164.0,423928.2999999523,7211,WL,C,4.0
3,16.545000076293945,learn,43454.999923706055,Mon Aug 18 2025 14:12:00 GMT-0500 (Central Daylight Time),429859.0,A,c,O,c,1759,1,1766.3999999761581,428092.60000002384,7211,WL,C,5.0
3,16.795000076293945,learn,43204.999923706055,Mon Aug 18 2025 14:12:00 GMT-0500 (Central Daylight Time),430108.89999997616,A,ca,O,a,237,1,2016.2999999523163,428092.60000002384,7211,WL,C,5.0
3,17.72699999809265,learn,42273.00000190735,Mon Aug 18 2025 14:12:00 GMT-0500 (Central Daylight Time),431041.7000000477,A,cam,O,m,910,1,2949.100000023842,428092.60000002384,7211,WL,C,5.0
3,18.027999877929688,learn,41972.00012207031,Mon Aug 18 2025 14:12:00 GMT-0500 (Central Daylight Time),431341.7999999523,A,camp,O,p,288,1,3249.1999999284744,428092.60000002384,7211,WL,C,5.0
3,19.310999870300293,learn,40689.00012969971,Mon Aug 18 2025 14:12:00 GMT-0500 (Central Daylight Time),432624.89999997616,A,campenter,O,enter,1260,1,4532.299999952316,428092.60000002384,7211,WL,C,5.0
3,20.23099994659424,learn,39769.00005340576,Mon Aug 18 2025 14:12:00 GMT-0500 (Central Daylight Time),433545.5,A,b,O,b,898,1,920.2999999523163,432625.2000000477,7211,WL,C,6.0
3,20.526999950408936,learn,39473.000049591064,Mon Aug 18 2025 14:12:00 GMT-0500 (Central Daylight Time),433841.2000000477,A,bo,O,o,283,1,1216.0,432625.2000000477,7211,WL,C,6.0
3,20.876999855041504,learn,39123.000144958496,Mon Aug 18 2025 14:12:00 GMT-0500 (Central Daylight Time),434191.10000002384,A,boy,O,y,327,1,1565.8999999761581,432625.2000000477,7211,WL,C,6.0
3,22.493000030517578,learn,37506.99996948242,Mon Aug 18 2025 14:12:00 GMT-0500 (Central Daylight Time),435807.2000000477,A,boyenter,O,enter,1593,1,3182.0,432625.2000000477,7211,WL,C,6.0
3,23.608999967575073,learn,36391.00003242493,Mon Aug 18 2025 14:12:00 GMT-0500 (Central Daylight Time),436923.10000002384,A,d,O,d,1100,1,1115.7000000476837,435807.39999997616,7211,WL,C,7.0
3,23.859999895095825,learn,36140.000104904175,Mon Aug 18 2025 14:12:00 GMT-0500 (Central Daylight Time),437174.5,A,do,O,o,238,1,1367.1000000238419,435807.39999997616,7211,WL,C,7.0
3,23.9760000705719,learn,36023.9999294281,Mon Aug 18 2025 14:12:00 GMT-0500 (Central Daylight Time),437290.2999999523,A,doc,O,c,99,1,1482.8999999761581,435807.39999997616,7211,WL,C,7.0
3,24.274999856948853,learn,35725.00014305115,Mon Aug 18 2025 14:12:00 GMT-0500 (Central Daylight Time),437589.7000000477,A,doct,O,t,279,1,1782.3000000715256,435807.39999997616,7211,WL,C,7.0
3,24.443000078201294,learn,35556.999921798706,Mon Aug 18 2025 14:12:00 GMT-0500 (Central Daylight Time),437757.2999999523,A,docto,O,o,153,1,1949.8999999761581,435807.39999997616,7211,WL,C,7.0
3,24.658999919891357,learn,35341.00008010864,Mon Aug 18 2025 14:12:00 GMT-0500 (Central Daylight Time),437972.7999999523,A,doctor,O,r,194,1,2165.399999976158,435807.39999997616,7211,WL,C,7.0
3,25.375,learn,34625.0,Mon Aug 18 2025 14:12:00 GMT-0500 (Central Daylight Time),438689.5,A,doctorenter,O,enter,700,1,2882.100000023842,435807.39999997616,7211,WL,C,7.0
3,26.16000008583069,learn,33839.99991416931,Mon Aug 18 2025 14:12:00 GMT-0500 (Central Daylight Time),439474.10000002384,A,c,O,c,769,1,784.3000000715256,438689.7999999523,7211,WL,C,8.0
3,26.407999992370605,learn,33592.000007629395,Mon Aug 18 2025 14:12:00 GMT-0500 (Central Daylight Time),439722.5,A,ca,O,a,229,1,1032.7000000476837,438689.7999999523,7211,WL,C,8.0
3,26.907999992370605,learn,33092.000007629395,Mon Aug 18 2025 14:12:00 GMT-0500 (Central Daylight Time),440222.39999997616,A,cam,O,m,490,1,1532.6000000238419,438689.7999999523,7211,WL,C,8.0
3,27.240999937057495,learn,32759.000062942505,Mon Aug 18 2025 14:12:00 GMT-0500 (Central Daylight Time),440555.7000000477,A,camp,O,p,313,1,1865.9000000953674,438689.7999999523,7211,WL,C,8.0
3,27.808000087738037,learn,32191.999912261963,Mon Aug 18 2025 14:12:00 GMT-0500 (Central Daylight Time),441122.10000002384,A,campenter,O,enter,555,1,2432.3000000715256,438689.7999999523,7211,WL,C,8.0
3,28.70799994468689,learn,31292.00005531311,Mon Aug 18 2025 14:12:00 GMT-0500 (Central Daylight Time),442022.0,A,f,O,f,881,1,899.6000000238419,441122.39999997616,7211,WL,C,9.0
3,28.941999912261963,learn,31058.000087738037,Mon Aug 18 2025 14:12:00 GMT-0500 (Central Daylight Time),442256.2999999523,A,fl,O,l,211,1,1133.8999999761581,441122.39999997616,7211,WL,C,9.0
3,29.124000072479248,learn,30875.999927520752,Mon Aug 18 2025 14:12:00 GMT-0500 (Central Daylight Time),442438.2000000477,A,fla,O,a,161,1,1315.8000000715256,441122.39999997616,7211,WL,C,9.0
3,29.424999952316284,learn,30575.000047683716,Mon Aug 18 2025 14:12:00 GMT-0500 (Central Daylight Time),442739.2999999523,A,flag,O,g,289,1,1616.8999999761581,441122.39999997616,7211,WL,C,9.0
3,30.407999992370605,learn,29592.000007629395,Mon Aug 18 2025 14:12:00 GMT-0500 (Central Daylight Time),443722.7000000477,A,flagenter,O,enter,967,1,2600.3000000715256,441122.39999997616,7211,WL,C,9.0
3,31.27300000190735,learn,28726.99999809265,Mon Aug 18 2025 14:12:00 GMT-0500 (Central Daylight Time),444586.7999999523,A,c,O,c,847,1,863.7999999523163,443723.0,7211,WL,C,10.0
3,31.507999897003174,learn,28492.000102996826,Mon Aug 18 2025 14:12:00 GMT-0500 (Central Daylight Time),444822.10000002384,A,ca,O,a,225,1,1099.1000000238419,443723.0,7211,WL,C,10.0
3,31.841000080108643,learn,28158.999919891357,Mon Aug 18 2025 14:12:00 GMT-0500 (Central Daylight Time),445155.39999997616,A,cat,O,t,319,1,1432.3999999761581,443723.0,7211,WL,C,10.0
3,31.973999977111816,learn,28026.000022888184,Mon Aug 18 2025 14:12:00 GMT-0500 (Central Daylight Time),445288.0,A,catt,O,t,119,1,1565.0,443723.0,7211,WL,C,10.0
3,32.223999977111816,learn,27776.000022888184,Mon Aug 18 2025 14:12:00 GMT-0500 (Central Daylight Time),445538.2999999523,A,cattl,O,l,235,1,1815.2999999523163,443723.0,7211,WL,C,10.0
3,32.37400007247925,learn,27625.999927520752,Mon Aug 18 2025 14:12:00 GMT-0500 (Central Daylight Time),445688.5,A,cattle,O,e,135,1,1965.5,443723.0,7211,WL,C,10.0
3,33.27300000190735,learn,26726.99999809265,Mon Aug 18 2025 14:12:00 GMT-0500 (Central Daylight Time),446587.7000000477,A,cattleenter,O,enter,888,1,2864.7000000476837,443723.0,7211,WL,C,10.0
3,37.355000019073486,learn,22644.999980926514,Mon Aug 18 2025 14:12:00 GMT-0500 (Central Daylight Time),450669.10000002384,A,n,O,n,4063,1,4081.2000000476837,446587.89999997616,7211,WL,C,11.0
3,37.50600004196167,learn,22493.99995803833,Mon Aug 18 2025 14:12:00 GMT-0500 (Central Daylight Time),450819.7999999523,A,na,O,a,132,1,4231.899999976158,446587.89999997616,7211,WL,C,11.0
3,37.72199988365173,learn,22278.000116348267,Mon Aug 18 2025 14:12:00 GMT-0500 (Central Daylight Time),451036.2999999523,A,nai,O,i,202,1,4448.399999976158,446587.89999997616,7211,WL,C,11.0
3,37.93899989128113,learn,22061.000108718872,Mon Aug 18 2025 14:12:00 GMT-0500 (Central Daylight Time),451253.39999997616,A,nail,O,l,195,1,4665.5,446587.89999997616,7211,WL,C,11.0
3,38.47099995613098,learn,21529.00004386902,Mon Aug 18 2025 14:12:00 GMT-0500 (Central Daylight Time),451785.2999999523,A,nailenter,O,enter,524,1,5197.399999976158,446587.89999997616,7211,WL,C,11.0
3,41.0699999332428,learn,18930.000066757202,Mon Aug 18 2025 14:12:00 GMT-0500 (Central Daylight Time),454384.39999997616,A,b,O,b,2585,1,2598.7999999523163,451785.60000002384,7211,WL,C,12.0
3,41.355000019073486,learn,18644.999980926514,Mon Aug 18 2025 14:12:00 GMT-0500 (Central Daylight Time),454669.39999997616,A,bo,O,o,262,1,2883.7999999523163,451785.60000002384,7211,WL,C,12.0
3,41.53699994087219,learn,18463.000059127808,Mon Aug 18 2025 14:12:00 GMT-0500 (Central Daylight Time),454851.0,A,bod,O,d,160,1,3065.399999976158,451785.60000002384,7211,WL,C,12.0
3,41.78699994087219,learn,18213.000059127808,Mon Aug 18 2025 14:12:00 GMT-0500 (Central Daylight Time),455101.2000000477,A,body,O,y,228,1,3315.600000023842,451785.60000002384,7211,WL,C,12.0
3,42.90400004386902,learn,17095.99995613098,Mon Aug 18 2025 14:12:00 GMT-0500 (Central Daylight Time),456217.89999997616,A,bodyenter,O,enter,1108,1,4432.299999952316,451785.60000002384,7211,WL,C,12.0
3,46.003000020980835,learn,13996.999979019165,Mon Aug 18 2025 14:12:00 GMT-0500 (Central Daylight Time),459317.5,A,s,O,s,3090,1,3099.2999999523163,456218.2000000477,7211,WL,C,13.0
3,46.28699994087219,learn,13713.000059127808,Mon Aug 18 2025 14:12:00 GMT-0500 (Central Daylight Time),459600.7999999523,A,sh,O,h,260,1,3382.5999999046326,456218.2000000477,7211,WL,C,13.0
3,46.53699994087219,learn,13463.000059127808,Mon Aug 18 2025 14:12:00 GMT-0500 (Central Daylight Time),459850.7999999523,A,sho,O,o,233,1,3632.5999999046326,456218.2000000477,7211,WL,C,13.0
3,46.753000020980835,learn,13246.999979019165,Mon Aug 18 2025 14:12:00 GMT-0500 (Central Daylight Time),460067.2000000477,A,shor,O,r,200,1,3849.0,456218.2000000477,7211,WL,C,13.0
3,46.918999910354614,learn,13081.000089645386,Mon Aug 18 2025 14:12:00 GMT-0500 (Central Daylight Time),460233.10000002384,A,shore,O,e,144,1,4014.899999976158,456218.2000000477,7211,WL,C,13.0
3,47.61899995803833,learn,12381.00004196167,Mon Aug 18 2025 14:12:00 GMT-0500 (Central Daylight Time),460933.10000002384,A,shoreenter,O,enter,680,1,4714.899999976158,456218.2000000477,7211,WL,C,13.0
3,60.013999938964844,learn,-13.99993896484375,Mon Aug 18 2025 14:12:00 GMT-0500 (Central Daylight Time),473329.2000000477,A,None,O,None,12391,1,12395.800000071526,460933.39999997616,7211,WL,C,14.0
4,1.1180000305175781,learn,58881.99996948242,Mon Aug 18 2025 14:12:00 GMT-0500 (Central Daylight Time),551287.8999999762,A,t,O,t,1093,1,1117.1999999284744,550170.7000000477,7211,WL,C,1.0
4,1.4170000553131104,learn,58582.99994468689,Mon Aug 18 2025 14:12:00 GMT-0500 (Central Daylight Time),551587.3999999762,A,to,O,o,281,1,1416.6999999284744,550170.7000000477,7211,WL,C,1.0
4,1.9500000476837158,learn,58049.999952316284,Mon Aug 18 2025 14:12:00 GMT-0500 (Central Daylight Time),552119.8999999762,A,tow,O,w,513,1,1949.1999999284744,550170.7000000477,7211,WL,C,1.0
4,2.18500018119812,learn,57814.99981880188,Mon Aug 18 2025 14:12:00 GMT-0500 (Central Daylight Time),552355.5,A,towe,O,e,217,1,2184.7999999523163,550170.7000000477,7211,WL,C,1.0
4,2.4170000553131104,learn,57582.99994468689,Mon Aug 18 2025 14:12:00 GMT-0500 (Central Daylight Time),552587.1000000238,A,tower,O,r,216,1,2416.399999976158,550170.7000000477,7211,WL,C,1.0
4,3.3330001831054688,learn,56666.99981689453,Mon Aug 18 2025 14:12:00 GMT-0500 (Central Daylight Time),553502.7000000477,A,towerenter,O,enter,899,1,3332.0,550170.7000000477,7211,WL,C,1.0
4,4.384000062942505,learn,55615.999937057495,Mon Aug 18 2025 14:12:00 GMT-0500 (Central Daylight Time),554553.7000000477,A,w,O,w,1037,1,1050.7000000476837,553503.0,7211,WL,C,2.0
4,4.682000160217285,learn,55317.999839782715,Mon Aug 18 2025 14:12:00 GMT-0500 (Central Daylight Time),554851.8999999762,A,wh,O,h,285,1,1348.8999999761581,553503.0,7211,WL,C,2.0
4,4.833000183105469,learn,55166.99981689453,Mon Aug 18 2025 14:12:00 GMT-0500 (Central Daylight Time),555003.2999999523,A,whe,O,e,133,1,1500.2999999523163,553503.0,7211,WL,C,2.0
4,5.085000038146973,learn,54914.99996185303,Mon Aug 18 2025 14:12:00 GMT-0500 (Central Daylight Time),555255.6000000238,A,whea,O,a,237,1,1752.6000000238419,553503.0,7211,WL,C,2.0
4,5.416000127792358,learn,54583.99987220764,Mon Aug 18 2025 14:12:00 GMT-0500 (Central Daylight Time),555586.3999999762,A,wheat,O,t,323,1,2083.399999976158,553503.0,7211,WL,C,2.0
4,5.865000009536743,learn,54134.99999046326,Mon Aug 18 2025 14:12:00 GMT-0500 (Central Daylight Time),556035.2000000477,A,wheatenter,O,enter,436,1,2532.2000000476837,553503.0,7211,WL,C,2.0
4,7.015000104904175,learn,52984.999895095825,Mon Aug 18 2025 14:12:00 GMT-0500 (Central Daylight Time),557185.3999999762,A,q,O,q,1146,1,1150.1000000238419,556035.2999999523,7211,WL,C,3.0
4,7.332000017166138,learn,52667.99998283386,Mon Aug 18 2025 14:12:00 GMT-0500 (Central Daylight Time),557502.2999999523,A,qu,O,u,295,1,1467.0,556035.2999999523,7211,WL,C,3.0
4,7.582000017166138,learn,52417.99998283386,Mon Aug 18 2025 14:12:00 GMT-0500 (Central Daylight Time),557752.2999999523,A,que,O,e,228,1,1717.0,556035.2999999523,7211,WL,C,3.0
4,7.732000112533569,learn,52267.99988746643,Mon Aug 18 2025 14:12:00 GMT-0500 (Central Daylight Time),557902.3999999762,A,quee,O,e,137,1,1867.1000000238419,556035.2999999523,7211,WL,C,3.0
4,7.998000144958496,learn,52001.999855041504,Mon Aug 18 2025 14:12:00 GMT-0500 (Central Daylight Time),558168.5,A,queen,O,n,251,1,2133.2000000476837,556035.2999999523,7211,WL,C,3.0
4,8.731000185012817,learn,51268.99981498718,Mon Aug 18 2025 14:12:00 GMT-0500 (Central Daylight Time),558901.6000000238,A,queenenter,O,enter,710,1,2866.3000000715256,556035.2999999523,7211,WL,C,3.0
4,9.29800009727478,learn,50701.99990272522,Mon Aug 18 2025 14:12:00 GMT-0500 (Central Daylight Time),559467.8999999762,A,s,O,s,549,1,566.1000000238419,558901.7999999523,7211,WL,C,4.0
4,9.56600022315979,learn,50433.99977684021,Mon Aug 18 2025 14:12:00 GMT-0500 (Central Daylight Time),559735.8999999762,A,su,O,u,252,1,834.1000000238419,558901.7999999523,7211,WL,C,4.0
4,9.848000049591064,learn,50151.999950408936,Mon Aug 18 2025 14:12:00 GMT-0500 (Central Daylight Time),560018.1000000238,A,sug,O,g,272,1,1116.3000000715256,558901.7999999523,7211,WL,C,4.0
4,9.999000072479248,learn,50000.99992752075,Mon Aug 18 2025 14:12:00 GMT-0500 (Central Daylight Time),560168.7999999523,A,suga,O,a,129,1,1267.0,558901.7999999523,7211,WL,C,4.0
4,10.398000001907349,learn,49601.99999809265,Mon Aug 18 2025 14:12:00 GMT-0500 (Central Daylight Time),560568.5,A,sugar,O,r,376,1,1666.7000000476837,558901.7999999523,7211,WL,C,4.0
4,11.86300015449524,learn,48136.99984550476,Mon Aug 18 2025 14:12:00 GMT-0500 (Central Daylight Time),562033.7000000477,A,sugarenter,O,enter,1449,1,3131.9000000953674,558901.7999999523,7211,WL,C,4.0
4,13.513000011444092,learn,46486.99998855591,Mon Aug 18 2025 14:12:00 GMT-0500 (Central Daylight Time),563683.2000000477,A,h,O,h,1633,1,1649.3000000715256,562033.8999999762,7211,WL,C,5.0
4,13.79800009727478,learn,46201.99990272522,Mon Aug 18 2025 14:12:00 GMT-0500 (Central Daylight Time),563968.0,A,ho,O,o,261,1,1934.1000000238419,562033.8999999762,7211,WL,C,5.0
4,14.047000169754028,learn,45952.99983024597,Mon Aug 18 2025 14:12:00 GMT-0500 (Central Daylight Time),564217.5,A,hom,O,m,228,1,2183.600000023842,562033.8999999762,7211,WL,C,5.0
4,14.247000217437744,learn,45752.999782562256,Mon Aug 18 2025 14:12:00 GMT-0500 (Central Daylight Time),564417.2999999523,A,home,O,e,185,1,2383.399999976158,562033.8999999762,7211,WL,C,5.0
4,16.145000219345093,learn,43854.99978065491,Mon Aug 18 2025 14:12:00 GMT-0500 (Central Daylight Time),566314.7000000477,A,homeenter,O,enter,1877,1,4280.800000071526,562033.8999999762,7211,WL,C,5.0
4,16.66200017929077,learn,43337.99982070923,Mon Aug 18 2025 14:12:00 GMT-0500 (Central Daylight Time),566832.3999999762,A,b,O,b,504,1,517.3999999761581,566315.0,7211,WL,C,6.0
4,16.92900013923645,learn,43070.99986076355,Mon Aug 18 2025 14:12:00 GMT-0500 (Central Daylight Time),567098.8999999762,A,bo,O,o,257,1,783.8999999761581,566315.0,7211,WL,C,6.0
4,17.230000019073486,learn,42769.999980926514,Mon Aug 18 2025 14:12:00 GMT-0500 (Central Daylight Time),567400.3999999762,A,boy,O,y,277,1,1085.3999999761581,566315.0,7211,WL,C,6.0
4,18.09500002861023,learn,41904.99997138977,Mon Aug 18 2025 14:12:00 GMT-0500 (Central Daylight Time),568264.8999999762,A,boyenter,O,enter,844,1,1949.8999999761581,566315.0,7211,WL,C,6.0
4,19.82800006866455,learn,40171.99993133545,Mon Aug 18 2025 14:12:00 GMT-0500 (Central Daylight Time),569997.8999999762,A,d,O,d,1714,1,1732.6999999284744,568265.2000000477,7211,WL,C,7.0
4,20.112000226974487,learn,39887.99977302551,Mon Aug 18 2025 14:12:00 GMT-0500 (Central Daylight Time),570282.5,A,do,O,o,262,1,2017.2999999523163,568265.2000000477,7211,WL,C,7.0
4,20.278000116348267,learn,39721.99988365173,Mon Aug 18 2025 14:12:00 GMT-0500 (Central Daylight Time),570448.6000000238,A,doc,O,c,152,1,2183.399999976158,568265.2000000477,7211,WL,C,7.0
4,20.545000076293945,learn,39454.999923706055,Mon Aug 18 2025 14:12:00 GMT-0500 (Central Daylight Time),570714.8999999762,A,doct,O,t,244,1,2449.6999999284744,568265.2000000477,7211,WL,C,7.0
4,20.712000131607056,learn,39287.999868392944,Mon Aug 18 2025 14:12:00 GMT-0500 (Central Daylight Time),570882.1000000238,A,docto,O,o,161,1,2616.899999976158,568265.2000000477,7211,WL,C,7.0
4,20.99400019645691,learn,39005.99980354309,Mon Aug 18 2025 14:12:00 GMT-0500 (Central Daylight Time),571164.1000000238,A,doctor,O,r,262,1,2898.899999976158,568265.2000000477,7211,WL,C,7.0
4,21.478000164031982,learn,38521.99983596802,Mon Aug 18 2025 14:12:00 GMT-0500 (Central Daylight Time),571648.6000000238,A,doctorenter,O,enter,462,1,3383.399999976158,568265.2000000477,7211,WL,C,7.0
4,21.878000020980835,learn,38121.999979019165,Mon Aug 18 2025 14:12:00 GMT-0500 (Central Daylight Time),572048.0,A,c,O,c,385,1,399.2000000476837,571648.7999999523,7211,WL,C,8.0
4,22.16200017929077,learn,37837.99982070923,Mon Aug 18 2025 14:12:00 GMT-0500 (Central Daylight Time),572332.3999999762,A,ca,O,a,264,1,683.6000000238419,571648.7999999523,7211,WL,C,8.0
4,22.56000018119812,learn,37439.99981880188,Mon Aug 18 2025 14:12:00 GMT-0500 (Central Daylight Time),572730.6000000238,A,cam,O,m,390,1,1081.8000000715256,571648.7999999523,7211,WL,C,8.0
4,22.91100001335144,learn,37088.99998664856,Mon Aug 18 2025 14:12:00 GMT-0500 (Central Daylight Time),573080.6000000238,A,camp,O,p,332,1,1431.8000000715256,571648.7999999523,7211,WL,C,8.0
4,23.72700023651123,learn,36272.99976348877,Mon Aug 18 2025 14:12:00 GMT-0500 (Central Daylight Time),573896.7999999523,A,campenter,O,enter,798,1,2248.0,571648.7999999523,7211,WL,C,8.0
4,25.993000030517578,learn,34006.99996948242,Mon Aug 18 2025 14:12:00 GMT-0500 (Central Daylight Time),576163.3999999762,A,f,O,f,2251,1,2266.1999999284744,573897.2000000477,7211,WL,C,9.0
4,26.378000020980835,learn,33621.999979019165,Mon Aug 18 2025 14:12:00 GMT-0500 (Central Daylight Time),576548.1000000238,A,fl,O,l,361,1,2650.899999976158,573897.2000000477,7211,WL,C,9.0
4,26.4760000705719,learn,33523.9999294281,Mon Aug 18 2025 14:12:00 GMT-0500 (Central Daylight Time),576646.2000000477,A,fla,O,a,84,1,2749.0,573897.2000000477,7211,WL,C,9.0
4,26.89300012588501,learn,33106.99987411499,Mon Aug 18 2025 14:12:00 GMT-0500 (Central Daylight Time),577063.3999999762,A,flag,O,g,396,1,3166.1999999284744,573897.2000000477,7211,WL,C,9.0
4,27.925000190734863,learn,32074.999809265137,Mon Aug 18 2025 14:12:00 GMT-0500 (Central Daylight Time),578095.2000000477,A,flagenter,O,enter,1010,1,4198.0,573897.2000000477,7211,WL,C,9.0
4,28.675000190734863,learn,31324.999809265137,Mon Aug 18 2025 14:12:00 GMT-0500 (Central Daylight Time),578845.2999999523,A,l,O,l,731,1,749.8999999761581,578095.3999999762,7211,WL,C,10.0
4,28.942000150680542,learn,31057.999849319458,Mon Aug 18 2025 14:12:00 GMT-0500 (Central Daylight Time),579111.7000000477,A,le,O,e,252,1,1016.3000000715256,578095.3999999762,7211,WL,C,10.0
4,29.20900011062622,learn,30790.99988937378,Mon Aug 18 2025 14:12:00 GMT-0500 (Central Daylight Time),579379.5,A,let,O,t,260,1,1284.1000000238419,578095.3999999762,7211,WL,C,10.0
4,29.374000072479248,learn,30625.999927520752,Mon Aug 18 2025 14:12:00 GMT-0500 (Central Daylight Time),579544.5,A,lett,O,t,148,1,1449.1000000238419,578095.3999999762,7211,WL,C,10.0
4,29.62600016593933,learn,30373.99983406067,Mon Aug 18 2025 14:12:00 GMT-0500 (Central Daylight Time),579796.3999999762,A,lette,O,e,246,1,1701.0,578095.3999999762,7211,WL,C,10.0
4,29.808000087738037,learn,30191.999912261963,Mon Aug 18 2025 14:12:00 GMT-0500 (Central Daylight Time),579978.2999999523,A,letter,O,r,162,1,1882.8999999761581,578095.3999999762,7211,WL,C,10.0
4,30.225000143051147,learn,29774.999856948853,Mon Aug 18 2025 14:12:00 GMT-0500 (Central Daylight Time),580395.2999999523,A,letterenter,O,enter,393,1,2299.899999976158,578095.3999999762,7211,WL,C,10.0
4,33.00800013542175,learn,26991.999864578247,Mon Aug 18 2025 14:12:00 GMT-0500 (Central Daylight Time),583178.6000000238,A,c,O,c,2768,1,2783.100000023842,580395.5,7211,WL,C,11.0
4,33.224000215530396,learn,26775.999784469604,Mon Aug 18 2025 14:12:00 GMT-0500 (Central Daylight Time),583394.5,A,co,O,o,209,1,2999.0,580395.5,7211,WL,C,11.0
4,33.52300000190735,learn,26476.99999809265,Mon Aug 18 2025 14:12:00 GMT-0500 (Central Daylight Time),583693.2999999523,A,cor,O,r,280,1,3297.7999999523163,580395.5,7211,WL,C,11.0
4,33.97500014305115,learn,26024.999856948853,Mon Aug 18 2025 14:12:00 GMT-0500 (Central Daylight Time),584144.8999999762,A,corn,O,n,429,1,3749.399999976158,580395.5,7211,WL,C,11.0
4,35.25600004196167,learn,24743.99995803833,Mon Aug 18 2025 14:12:00 GMT-0500 (Central Daylight Time),585426.1000000238,A,cornenter,O,enter,1273,1,5030.600000023842,580395.5,7211,WL,C,11.0
4,42.003000020980835,learn,17996.999979019165,Mon Aug 18 2025 14:12:00 GMT-0500 (Central Daylight Time),592174.6000000238,A,s,O,s,6737,1,6748.100000023842,585426.5,7211,WL,C,12.0
4,42.23700022697449,learn,17762.999773025513,Mon Aug 18 2025 14:12:00 GMT-0500 (Central Daylight Time),592408.0,A,sh,O,h,218,1,6981.5,585426.5,7211,WL,C,12.0
4,42.52000021934509,learn,17479.999780654907,Mon Aug 18 2025 14:12:00 GMT-0500 (Central Daylight Time),592690.7999999523,A,sho,O,o,272,1,7264.299999952316,585426.5,7211,WL,C,12.0
4,42.771000146865845,learn,17228.999853134155,Mon Aug 18 2025 14:12:00 GMT-0500 (Central Daylight Time),592942.6000000238,A,shor,O,r,240,1,7516.100000023842,585426.5,7211,WL,C,12.0
4,42.97100019454956,learn,17028.99980545044,Mon Aug 18 2025 14:12:00 GMT-0500 (Central Daylight Time),593142.2999999523,A,shore,O,e,189,1,7715.799999952316,585426.5,7211,WL,C,12.0
4,43.40400004386902,learn,16595.99995613098,Mon Aug 18 2025 14:12:00 GMT-0500 (Central Daylight Time),593574.6000000238,A,shoreenter,O,enter,422,1,8148.100000023842,585426.5,7211,WL,C,12.0
4,43.97100019454956,learn,16028.99980545044,Mon Aug 18 2025 14:12:00 GMT-0500 (Central Daylight Time),594142.0,A,b,O,b,548,1,567.1000000238419,593574.8999999762,7211,WL,C,13.0
4,44.21900010108948,learn,15780.999898910522,Mon Aug 18 2025 14:12:00 GMT-0500 (Central Daylight Time),594390.2999999523,A,bo,O,o,227,1,815.3999999761581,593574.8999999762,7211,WL,C,13.0
4,44.52000021934509,learn,15479.999780654907,Mon Aug 18 2025 14:12:00 GMT-0500 (Central Daylight Time),594691.3999999762,A,bod,O,d,296,1,1116.5,593574.8999999762,7211,WL,C,13.0
4,44.82000017166138,learn,15179.999828338623,Mon Aug 18 2025 14:12:00 GMT-0500 (Central Daylight Time),594991.2000000477,A,body,O,y,278,1,1416.3000000715256,593574.8999999762,7211,WL,C,13.0
4,45.87100005149841,learn,14128.999948501587,Mon Aug 18 2025 14:12:00 GMT-0500 (Central Daylight Time),596041.7999999523,A,bodyenter,O,enter,1045,1,2466.899999976158,593574.8999999762,7211,WL,C,13.0
4,46.604000091552734,learn,13395.999908447266,Mon Aug 18 2025 14:12:00 GMT-0500 (Central Daylight Time),596775.0,A,n,O,n,713,1,733.0,596042.0,7211,WL,C,14.0
4,46.76900005340576,learn,13230.999946594238,Mon Aug 18 2025 14:12:00 GMT-0500 (Central Daylight Time),596939.7999999523,A,na,O,a,150,1,897.7999999523163,596042.0,7211,WL,C,14.0
4,46.955000162124634,learn,13044.999837875366,Mon Aug 18 2025 14:12:00 GMT-0500 (Central Daylight Time),597125.6000000238,A,nai,O,i,168,1,1083.6000000238419,596042.0,7211,WL,C,14.0
4,47.16800022125244,learn,12831.999778747559,Mon Aug 18 2025 14:12:00 GMT-0500 (Central Daylight Time),597339.2999999523,A,nail,O,l,207,1,1297.2999999523163,596042.0,7211,WL,C,14.0
4,48.1010000705719,learn,11898.9999294281,Mon Aug 18 2025 14:12:00 GMT-0500 (Central Daylight Time),598272.6000000238,A,nailenter,O,enter,925,1,2230.600000023842,596042.0,7211,WL,C,14.0
4,54.33300018310547,learn,5666.999816894531,Mon Aug 18 2025 14:12:00 GMT-0500 (Central Daylight Time),604503.7000000477,A,b,O,b,6219,1,6230.800000071526,598272.8999999762,7211,WL,C,15.0
4,54.6010000705719,learn,5398.999929428101,Mon Aug 18 2025 14:12:00 GMT-0500 (Central Daylight Time),604772.3999999762,A,bo,O,o,264,1,6499.5,598272.8999999762,7211,WL,C,15.0
4,54.867000102996826,learn,5132.999897003174,Mon Aug 18 2025 14:12:00 GMT-0500 (Central Daylight Time),605038.2000000477,A,bod,O,d,248,1,6765.300000071526,598272.8999999762,7211,WL,C,15.0
4,55.13300013542175,learn,4866.999864578247,Mon Aug 18 2025 14:12:00 GMT-0500 (Central Daylight Time),605304.0,A,body,O,y,252,1,7031.100000023842,598272.8999999762,7211,WL,C,15.0
4,56.06500005722046,learn,3934.999942779541,Mon Aug 18 2025 14:12:00 GMT-0500 (Central Daylight Time),606236.0,A,bod,O,backspace,923,1,7963.100000023842,598272.8999999762,7211,WL,C,15.0
4,56.24900007247925,learn,3750.999927520752,Mon Aug 18 2025 14:12:00 GMT-0500 (Central Daylight Time),606419.6000000238,A,bo,O,backspace,166,1,8146.700000047684,598272.8999999762,7211,WL,C,15.0
4,56.39900016784668,learn,3600.9998321533203,Mon Aug 18 2025 14:12:00 GMT-0500 (Central Daylight Time),606569.7999999523,A,b,O,backspace,134,1,8296.899999976158,598272.8999999762,7211,WL,C,15.0
4,57.46300005912781,learn,2536.9999408721924,Mon Aug 18 2025 14:12:00 GMT-0500 (Central Daylight Time),607634.6000000238,A,bo,O,o,1047,1,9361.700000047684,598272.8999999762,7211,WL,C,15.0
4,57.717000007629395,learn,2282.9999923706055,Mon Aug 18 2025 14:12:00 GMT-0500 (Central Daylight Time),607888.1000000238,A,bod,O,d,234,1,9615.200000047684,598272.8999999762,7211,WL,C,15.0
4,58.015000104904175,learn,1984.9998950958252,Mon Aug 18 2025 14:12:00 GMT-0500 (Central Daylight Time),608185.7999999523,A,body,O,y,290,1,9912.899999976158,598272.8999999762,7211,WL,C,15.0
4,58.665000200271606,learn,1334.9997997283936,Mon Aug 18 2025 14:12:00 GMT-0500 (Central Daylight Time),608835.7999999523,A,bodyenter,O,enter,642,1,10562.899999976158,598272.8999999762,7211,WL,C,15.0
5,1.0839998722076416,learn,60000.0,Mon Aug 18 2025 14:12:00 GMT-0500 (Central Daylight Time),681296.2000000477,A,t,O,t,1066,1,1083.6000000238419,680212.6000000238,7211,WL,C,1.0
5,1.316999912261963,learn,60000.0,Mon Aug 18 2025 14:12:00 GMT-0500 (Central Daylight Time),681528.7999999523,A,to,O,o,211,1,1316.1999999284744,680212.6000000238,7211,WL,C,1.0
5,1.9670000076293945,learn,60000.0,Mon Aug 18 2025 14:12:00 GMT-0500 (Central Daylight Time),682178.6000000238,A,tow,O,w,640,1,1966.0,680212.6000000238,7211,WL,C,1.0
5,2.1999998092651367,learn,60000.0,Mon Aug 18 2025 14:12:00 GMT-0500 (Central Daylight Time),682411.7999999523,A,towe,O,e,213,1,2199.1999999284744,680212.6000000238,7211,WL,C,1.0
5,2.434000015258789,learn,60000.0,Mon Aug 18 2025 14:12:00 GMT-0500 (Central Daylight Time),682645.7000000477,A,tower,O,r,221,1,2433.100000023842,680212.6000000238,7211,WL,C,1.0
5,3.932999849319458,learn,60000.0,Mon Aug 18 2025 14:12:00 GMT-0500 (Central Daylight Time),684144.8999999762,A,towerenter,O,enter,1479,1,3932.2999999523163,680212.6000000238,7211,WL,C,1.0
5,4.682999849319458,learn,60000.0,Mon Aug 18 2025 14:12:00 GMT-0500 (Central Daylight Time),684895.2000000477,A,w,O,w,738,1,750.0,684145.2000000477,7211,WL,C,2.0
5,4.949999809265137,learn,60000.0,Mon Aug 18 2025 14:12:00 GMT-0500 (Central Daylight Time),685162.0,A,wh,O,h,245,1,1016.7999999523163,684145.2000000477,7211,WL,C,2.0
5,5.099999904632568,learn,60000.0,Mon Aug 18 2025 14:12:00 GMT-0500 (Central Daylight Time),685311.8999999762,A,wha,O,a,126,1,1166.6999999284744,684145.2000000477,7211,WL,C,2.0
5,5.3999998569488525,learn,60000.0,Mon Aug 18 2025 14:12:00 GMT-0500 (Central Daylight Time),685612.0,A,whae,O,e,283,1,1466.7999999523163,684145.2000000477,7211,WL,C,2.0
5,5.616999864578247,learn,60000.0,Mon Aug 18 2025 14:12:00 GMT-0500 (Central Daylight Time),685829.0,A,whaet,O,t,210,1,1683.7999999523163,684145.2000000477,7211,WL,C,2.0
5,6.031999826431274,learn,60000.0,Mon Aug 18 2025 14:12:00 GMT-0500 (Central Daylight Time),686244.1000000238,A,whaetenter,O,enter,397,1,2098.899999976158,684145.2000000477,7211,WL,C,2.0
5,7.315999984741211,learn,60000.0,Mon Aug 18 2025 14:12:00 GMT-0500 (Central Daylight Time),687528.1000000238,A,w,O,w,1264,1,1283.8000000715256,686244.2999999523,7211,WL,C,3.0
5,8.049000024795532,learn,60000.0,Mon Aug 18 2025 14:12:00 GMT-0500 (Central Daylight Time),688260.7000000477,A,,O,backspace,722,1,2016.4000000953674,686244.2999999523,7211,WL,C,3.0
5,9.531999826431274,learn,60000.0,Mon Aug 18 2025 14:12:00 GMT-0500 (Central Daylight Time),689743.7999999523,A,q,O,q,1470,1,3499.5,686244.2999999523,7211,WL,C,3.0
5,9.947999954223633,learn,60000.0,Mon Aug 18 2025 14:12:00 GMT-0500 (Central Daylight Time),690159.6000000238,A,qu,O,u,394,1,3915.3000000715256,686244.2999999523,7211,WL,C,3.0
5,10.19700002670288,learn,60000.0,Mon Aug 18 2025 14:12:00 GMT-0500 (Central Daylight Time),690409.2999999523,A,que,O,e,231,1,4165.0,686244.2999999523,7211,WL,C,3.0
5,10.332000017166138,learn,60000.0,Mon Aug 18 2025 14:12:00 GMT-0500 (Central Daylight Time),690544.1000000238,A,quee,O,e,112,1,4299.800000071526,686244.2999999523,7211,WL,C,3.0
5,11.030999898910522,learn,60000.0,Mon Aug 18 2025 14:12:00 GMT-0500 (Central Daylight Time),691243.0,A,queen,O,n,675,1,4998.700000047684,686244.2999999523,7211,WL,C,3.0
5,11.52999997138977,learn,60000.0,Mon Aug 18 2025 14:12:00 GMT-0500 (Central Daylight Time),691742.2000000477,A,queenenter,O,enter,478,1,5497.900000095367,686244.2999999523,7211,WL,C,3.0
5,12.531999826431274,learn,60000.0,Mon Aug 18 2025 14:12:00 GMT-0500 (Central Daylight Time),692743.6000000238,A,s,O,s,981,1,1001.1000000238419,691742.5,7211,WL,C,4.0
5,12.796000003814697,learn,60000.0,Mon Aug 18 2025 14:12:00 GMT-0500 (Central Daylight Time),693008.3999999762,A,su,O,u,245,1,1265.8999999761581,691742.5,7211,WL,C,4.0
5,13.02999997138977,learn,60000.0,Mon Aug 18 2025 14:12:00 GMT-0500 (Central Daylight Time),693241.7999999523,A,sug,O,g,217,1,1499.2999999523163,691742.5,7211,WL,C,4.0
5,13.145999908447266,learn,60000.0,Mon Aug 18 2025 14:12:00 GMT-0500 (Central Daylight Time),693358.3999999762,A,suga,O,a,105,1,1615.8999999761581,691742.5,7211,WL,C,4.0
5,13.462999820709229,learn,60000.0,Mon Aug 18 2025 14:12:00 GMT-0500 (Central Daylight Time),693675.2999999523,A,sugar,O,r,298,1,1932.7999999523163,691742.5,7211,WL,C,4.0
5,14.429999828338623,learn,60000.0,Mon Aug 18 2025 14:12:00 GMT-0500 (Central Daylight Time),694642.2999999523,A,sugarenter,O,enter,959,1,2899.7999999523163,691742.5,7211,WL,C,4.0
5,14.94700002670288,learn,60000.0,Mon Aug 18 2025 14:12:00 GMT-0500 (Central Daylight Time),695159.0,A,h,O,h,496,1,516.3999999761581,694642.6000000238,7211,WL,C,5.0
5,15.19599986076355,learn,60000.0,Mon Aug 18 2025 14:12:00 GMT-0500 (Central Daylight Time),695407.8999999762,A,ho,O,o,228,1,765.2999999523163,694642.6000000238,7211,WL,C,5.0
5,15.412999868392944,learn,60000.0,Mon Aug 18 2025 14:12:00 GMT-0500 (Central Daylight Time),695624.8999999762,A,hom,O,m,202,1,982.2999999523163,694642.6000000238,7211,WL,C,5.0
5,15.580999851226807,learn,60000.0,Mon Aug 18 2025 14:12:00 GMT-0500 (Central Daylight Time),695792.6000000238,A,home,O,e,147,1,1150.0,694642.6000000238,7211,WL,C,5.0
5,15.879999876022339,learn,60000.0,Mon Aug 18 2025 14:12:00 GMT-0500 (Central Daylight Time),696092.1000000238,A,homeenter,O,enter,290,1,1449.5,694642.6000000238,7211,WL,C,5.0
5,16.44700002670288,learn,60000.0,Mon Aug 18 2025 14:12:00 GMT-0500 (Central Daylight Time),696658.7000000477,A,b,O,b,546,1,566.3000000715256,696092.3999999762,7211,WL,C,6.0
5,16.711999893188477,learn,60000.0,Mon Aug 18 2025 14:12:00 GMT-0500 (Central Daylight Time),696923.6000000238,A,bo,O,o,256,1,831.2000000476837,696092.3999999762,7211,WL,C,6.0
5,17.013999938964844,learn,60000.0,Mon Aug 18 2025 14:12:00 GMT-0500 (Central Daylight Time),697225.6000000238,A,boy,O,y,280,1,1133.2000000476837,696092.3999999762,7211,WL,C,6.0
5,17.562000036239624,learn,60000.0,Mon Aug 18 2025 14:12:00 GMT-0500 (Central Daylight Time),697774.3999999762,A,boyenter,O,enter,528,1,1682.0,696092.3999999762,7211,WL,C,6.0
5,18.110999822616577,learn,60000.0,Mon Aug 18 2025 14:12:00 GMT-0500 (Central Daylight Time),698323.2999999523,A,d,O,d,541,1,548.6999999284744,697774.6000000238,7211,WL,C,7.0
5,18.361999988555908,learn,60000.0,Mon Aug 18 2025 14:12:00 GMT-0500 (Central Daylight Time),698574.2000000477,A,do,O,o,227,1,799.6000000238419,697774.6000000238,7211,WL,C,7.0
5,18.49399995803833,learn,60000.0,Mon Aug 18 2025 14:12:00 GMT-0500 (Central Daylight Time),698706.0,A,doc,O,c,122,1,931.3999999761581,697774.6000000238,7211,WL,C,7.0
5,18.776999950408936,learn,60000.0,Mon Aug 18 2025 14:12:00 GMT-0500 (Central Daylight Time),698989.5,A,doct,O,t,269,1,1214.8999999761581,697774.6000000238,7211,WL,C,7.0
5,18.960999965667725,learn,60000.0,Mon Aug 18 2025 14:12:00 GMT-0500 (Central Daylight Time),699173.1000000238,A,docto,O,o,164,1,1398.5,697774.6000000238,7211,WL,C,7.0
5,19.17799997329712,learn,60000.0,Mon Aug 18 2025 14:12:00 GMT-0500 (Central Daylight Time),699390.2000000477,A,doctor,O,r,195,1,1615.6000000238419,697774.6000000238,7211,WL,C,7.0
5,19.796000003814697,learn,60000.0,Mon Aug 18 2025 14:12:00 GMT-0500 (Central Daylight Time),700008.2000000477,A,doctorc,O,c,595,1,2233.600000023842,697774.6000000238,7211,WL,C,7.0
5,20.027999877929688,learn,60000.0,Mon Aug 18 2025 14:12:00 GMT-0500 (Central Daylight Time),700239.7000000477,A,doctorca,O,a,219,1,2465.100000023842,697774.6000000238,7211,WL,C,7.0
5,20.57799983024597,learn,60000.0,Mon Aug 18 2025 14:12:00 GMT-0500 (Central Daylight Time),700789.8999999762,A,doctorcam,O,m,538,1,3015.2999999523163,697774.6000000238,7211,WL,C,7.0
5,20.911999940872192,learn,60000.0,Mon Aug 18 2025 14:12:00 GMT-0500 (Central Daylight Time),701123.7000000477,A,doctorcamp,O,p,327,1,3349.100000023842,697774.6000000238,7211,WL,C,7.0
5,21.55999994277954,learn,60000.0,Mon Aug 18 2025 14:12:00 GMT-0500 (Central Daylight Time),701771.7999999523,A,doctorcampenter,O,enter,639,1,3997.1999999284744,697774.6000000238,7211,WL,C,7.0
5,28.607999801635742,learn,60000.0,Mon Aug 18 2025 14:12:00 GMT-0500 (Central Daylight Time),708821.1000000238,A,f,O,f,7040,1,7049.0,701772.1000000238,7211,WL,C,8.0
5,28.757999897003174,learn,60000.0,Mon Aug 18 2025 14:12:00 GMT-0500 (Central Daylight Time),708970.2000000477,A,fl,O,l,142,1,7198.100000023842,701772.1000000238,7211,WL,C,8.0
5,28.97499990463257,learn,60000.0,Mon Aug 18 2025 14:12:00 GMT-0500 (Central Daylight Time),709187.7000000477,A,fla,O,a,196,1,7415.600000023842,701772.1000000238,7211,WL,C,8.0
5,29.240999937057495,learn,60000.0,Mon Aug 18 2025 14:12:00 GMT-0500 (Central Daylight Time),709453.6000000238,A,flag,O,g,246,1,7681.5,701772.1000000238,7211,WL,C,8.0
5,29.740999937057495,learn,60000.0,Mon Aug 18 2025 14:12:00 GMT-0500 (Central Daylight Time),709953.3999999762,A,flagenter,O,enter,494,1,8181.299999952316,701772.1000000238,7211,WL,C,8.0
5,30.707000017166138,learn,60000.0,Mon Aug 18 2025 14:12:00 GMT-0500 (Central Daylight Time),710919.8999999762,A,l,O,l,954,1,966.2999999523163,709953.6000000238,7211,WL,C,9.0
5,30.94099998474121,learn,60000.0,Mon Aug 18 2025 14:12:00 GMT-0500 (Central Daylight Time),711153.7999999523,A,le,O,e,217,1,1200.1999999284744,709953.6000000238,7211,WL,C,9.0
5,31.240999937057495,learn,60000.0,Mon Aug 18 2025 14:12:00 GMT-0500 (Central Daylight Time),711453.2000000477,A,let,O,t,279,1,1499.6000000238419,709953.6000000238,7211,WL,C,9.0
5,31.389999866485596,learn,60000.0,Mon Aug 18 2025 14:12:00 GMT-0500 (Central Daylight Time),711602.2999999523,A,lett,O,t,131,1,1648.6999999284744,709953.6000000238,7211,WL,C,9.0
5,31.639999866485596,learn,60000.0,Mon Aug 18 2025 14:12:00 GMT-0500 (Central Daylight Time),711852.3999999762,A,lette,O,e,239,1,1898.7999999523163,709953.6000000238,7211,WL,C,9.0
5,31.806999921798706,learn,60000.0,Mon Aug 18 2025 14:12:00 GMT-0500 (Central Daylight Time),712019.2999999523,A,letter,O,r,157,1,2065.6999999284744,709953.6000000238,7211,WL,C,9.0
5,32.78999996185303,learn,60000.0,Mon Aug 18 2025 14:12:00 GMT-0500 (Central Daylight Time),713003.1000000238,A,letterenter,O,enter,976,1,3049.5,709953.6000000238,7211,WL,C,9.0
5,34.12299990653992,learn,60000.0,Mon Aug 18 2025 14:12:00 GMT-0500 (Central Daylight Time),714336.1000000238,A,c,O,c,1320,1,1332.6000000238419,713003.5,7211,WL,C,10.0
5,34.37299990653992,learn,60000.0,Mon Aug 18 2025 14:12:00 GMT-0500 (Central Daylight Time),714586.0,A,ca,O,a,243,1,1582.5,713003.5,7211,WL,C,10.0
5,34.70700001716614,learn,60000.0,Mon Aug 18 2025 14:12:00 GMT-0500 (Central Daylight Time),714919.5,A,cat,O,t,322,1,1916.0,713003.5,7211,WL,C,10.0
5,34.85699987411499,learn,60000.0,Mon Aug 18 2025 14:12:00 GMT-0500 (Central Daylight Time),715069.7999999523,A,catt,O,t,140,1,2066.2999999523163,713003.5,7211,WL,C,10.0
5,35.055999994277954,learn,60000.0,Mon Aug 18 2025 14:12:00 GMT-0500 (Central Daylight Time),715269.1000000238,A,cattl,O,l,190,1,2265.600000023842,713003.5,7211,WL,C,10.0
5,35.289000034332275,learn,60000.0,Mon Aug 18 2025 14:12:00 GMT-0500 (Central Daylight Time),715502.2000000477,A,cattle,O,e,221,1,2498.7000000476837,713003.5,7211,WL,C,10.0
5,36.47199988365173,learn,60000.0,Mon Aug 18 2025 14:12:00 GMT-0500 (Central Daylight Time),716685.0,A,cattleenter,O,enter,1173,1,3681.5,713003.5,7211,WL,C,10.0
5,37.555999994277954,learn,60000.0,Mon Aug 18 2025 14:12:00 GMT-0500 (Central Daylight Time),717768.5,A,c,O,c,1070,1,1083.2000000476837,716685.2999999523,7211,WL,C,11.0
5,37.90499997138977,learn,60000.0,Mon Aug 18 2025 14:12:00 GMT-0500 (Central Daylight Time),718117.3999999762,A,co,O,o,327,1,1432.1000000238419,716685.2999999523,7211,WL,C,11.0
5,38.10599994659424,learn,60000.0,Mon Aug 18 2025 14:12:00 GMT-0500 (Central Daylight Time),718319.1000000238,A,cor,O,r,180,1,1633.8000000715256,716685.2999999523,7211,WL,C,11.0
5,38.52199983596802,learn,60000.0,Mon Aug 18 2025 14:12:00 GMT-0500 (Central Daylight Time),718735.0,A,corn,O,n,394,1,2049.7000000476837,716685.2999999523,7211,WL,C,11.0
5,39.105000019073486,learn,60000.0,Mon Aug 18 2025 14:12:00 GMT-0500 (Central Daylight Time),719318.1000000238,A,cornenter,O,enter,571,1,2632.8000000715256,716685.2999999523,7211,WL,C,11.0
5,44.03699994087219,learn,60000.0,Mon Aug 18 2025 14:12:00 GMT-0500 (Central Daylight Time),724249.7000000477,A,s,O,s,4926,1,4931.300000071526,719318.3999999762,7211,WL,C,12.0
5,45.585999965667725,learn,60000.0,Mon Aug 18 2025 14:12:00 GMT-0500 (Central Daylight Time),725798.7000000477,A,sh,O,h,1535,1,6480.300000071526,719318.3999999762,7211,WL,C,12.0
5,45.83699989318848,learn,60000.0,Mon Aug 18 2025 14:12:00 GMT-0500 (Central Daylight Time),726049.5,A,sho,O,o,244,1,6731.100000023842,719318.3999999762,7211,WL,C,12.0
5,46.1029999256134,learn,60000.0,Mon Aug 18 2025 14:12:00 GMT-0500 (Central Daylight Time),726316.1000000238,A,shor,O,r,250,1,6997.700000047684,719318.3999999762,7211,WL,C,12.0
5,46.23699998855591,learn,60000.0,Mon Aug 18 2025 14:12:00 GMT-0500 (Central Daylight Time),726449.5,A,shore,O,e,119,1,7131.100000023842,719318.3999999762,7211,WL,C,12.0
5,46.86999988555908,learn,60000.0,Mon Aug 18 2025 14:12:00 GMT-0500 (Central Daylight Time),727082.3999999762,A,shoreenter,O,enter,627,1,7764.0,719318.3999999762,7211,WL,C,12.0
5,49.437000036239624,learn,60000.0,Mon Aug 18 2025 14:12:00 GMT-0500 (Central Daylight Time),729649.5,A,b,O,b,2546,1,2566.7999999523163,727082.7000000477,7211,WL,C,13.0
5,49.651999950408936,learn,60000.0,Mon Aug 18 2025 14:12:00 GMT-0500 (Central Daylight Time),729864.7000000477,A,bo,O,o,193,1,2782.0,727082.7000000477,7211,WL,C,13.0
5,49.835999965667725,learn,60000.0,Mon Aug 18 2025 14:12:00 GMT-0500 (Central Daylight Time),730048.3999999762,A,bod,O,d,178,1,2965.6999999284744,727082.7000000477,7211,WL,C,13.0
5,50.09999990463257,learn,60000.0,Mon Aug 18 2025 14:12:00 GMT-0500 (Central Daylight Time),730313.1000000238,A,body,O,y,258,1,3230.399999976158,727082.7000000477,7211,WL,C,13.0
5,50.60099983215332,learn,60000.0,Mon Aug 18 2025 14:12:00 GMT-0500 (Central Daylight Time),730813.7000000477,A,bodyenter,O,enter,481,1,3731.0,727082.7000000477,7211,WL,C,13.0
5,54.70199990272522,learn,60000.0,Mon Aug 18 2025 14:12:00 GMT-0500 (Central Daylight Time),734914.8999999762,A,n,O,n,4093,1,4100.899999976158,730814.0,7211,WL,C,14.0
5,54.86800003051758,learn,60000.0,Mon Aug 18 2025 14:12:00 GMT-0500 (Central Daylight Time),735080.6000000238,A,na,O,a,146,1,4266.600000023842,730814.0,7211,WL,C,14.0
5,54.99899983406067,learn,60000.0,Mon Aug 18 2025 14:12:00 GMT-0500 (Central Daylight Time),735212.0,A,nai,O,i,121,1,4398.0,730814.0,7211,WL,C,14.0
5,55.34999990463257,learn,60000.0,Mon Aug 18 2025 14:12:00 GMT-0500 (Central Daylight Time),735562.6000000238,A,nail,O,l,335,1,4748.600000023842,730814.0,7211,WL,C,14.0
5,55.71599984169006,learn,60000.0,Mon Aug 18 2025 14:12:00 GMT-0500 (Central Daylight Time),735928.6000000238,A,nailenter,O,enter,352,1,5114.600000023842,730814.0,7211,WL,C,14.0
5,69.21299982070923,learn,60000.0,Mon Aug 18 2025 14:12:00 GMT-0500 (Central Daylight Time),749425.6000000238,A,enter,O,enter,13478,1,13496.899999976158,735928.7000000477,7211,WL,C,15.0
6,1.5499999523162842,distr,58450.000047683716,Mon Aug 18 2025 14:12:00 GMT-0500 (Central Daylight Time),832964.7999999523,B,s,O,s,1530,1,1549.6999999284744,831415.1000000238,7211,WL,C,1.0
6,3.0490000247955322,distr,56950.99997520447,Mon Aug 18 2025 14:12:00 GMT-0500 (Central Daylight Time),834464.6000000238,B,sk,O,k,1479,1,3049.5,831415.1000000238,7211,WL,C,1.0
6,3.381999969482422,distr,56618.00003051758,Mon Aug 18 2025 14:12:00 GMT-0500 (Central Daylight Time),834797.0,B,sky,O,y,322,1,3381.899999976158,831415.1000000238,7211,WL,C,1.0
6,4.0329999923706055,distr,55967.000007629395,Mon Aug 18 2025 14:12:00 GMT-0500 (Central Daylight Time),835447.6000000238,B,skyenter,O,enter,636,1,4032.5,831415.1000000238,7211,WL,C,1.0
6,5.0329999923706055,distr,54967.000007629395,Mon Aug 18 2025 14:12:00 GMT-0500 (Central Daylight Time),836447.8999999762,B,v,O,v,994,1,1000.0,835447.8999999762,7211,WL,C,2.0
6,5.315000057220459,distr,54684.99994277954,Mon Aug 18 2025 14:12:00 GMT-0500 (Central Daylight Time),836730.5,B,va,O,a,266,1,1282.6000000238419,835447.8999999762,7211,WL,C,2.0
6,5.813999891281128,distr,54186.00010871887,Mon Aug 18 2025 14:12:00 GMT-0500 (Central Daylight Time),837229.0,B,val,O,l,477,1,1781.1000000238419,835447.8999999762,7211,WL,C,2.0
6,5.931999921798706,distr,54068.000078201294,Mon Aug 18 2025 14:12:00 GMT-0500 (Central Daylight Time),837347.3999999762,B,vall,O,l,111,1,1899.5,835447.8999999762,7211,WL,C,2.0
6,6.3999998569488525,distr,53600.00014305115,Mon Aug 18 2025 14:12:00 GMT-0500 (Central Daylight Time),837814.7000000477,B,valle,O,e,444,1,2366.8000000715256,835447.8999999762,7211,WL,C,2.0
6,6.83299994468689,distr,53167.00005531311,Mon Aug 18 2025 14:12:00 GMT-0500 (Central Daylight Time),838247.6000000238,B,valley,O,y,419,1,2799.7000000476837,835447.8999999762,7211,WL,C,2.0
6,7.930999994277954,distr,52069.000005722046,Mon Aug 18 2025 14:12:00 GMT-0500 (Central Daylight Time),839345.8999999762,B,valleyenter,O,enter,1091,1,3898.0,835447.8999999762,7211,WL,C,2.0
6,8.996000051498413,distr,51003.99994850159,Mon Aug 18 2025 14:12:00 GMT-0500 (Central Daylight Time),840411.5,B,m,O,m,1049,1,1065.2999999523163,839346.2000000477,7211,WL,C,3.0
6,9.263999938964844,distr,50736.000061035156,Mon Aug 18 2025 14:12:00 GMT-0500 (Central Daylight Time),840678.6000000238,B,me,O,e,247,1,1332.3999999761581,839346.2000000477,7211,WL,C,3.0
6,9.513999938964844,distr,50486.000061035156,Mon Aug 18 2025 14:12:00 GMT-0500 (Central Daylight Time),840929.1000000238,B,mea,O,a,238,1,1582.8999999761581,839346.2000000477,7211,WL,C,3.0
6,9.879999876022339,distr,50120.00012397766,Mon Aug 18 2025 14:12:00 GMT-0500 (Central Daylight Time),841295.6000000238,B,meat,O,t,344,1,1949.3999999761581,839346.2000000477,7211,WL,C,3.0
6,10.88100004196167,distr,49118.99995803833,Mon Aug 18 2025 14:12:00 GMT-0500 (Central Daylight Time),842296.3999999762,B,meatb,O,b,993,1,2950.1999999284744,839346.2000000477,7211,WL,C,3.0
6,11.164000034332275,distr,48835.999965667725,Mon Aug 18 2025 14:12:00 GMT-0500 (Central Daylight Time),842579.6000000238,B,meatbu,O,u,266,1,3233.399999976158,839346.2000000477,7211,WL,C,3.0
6,11.596999883651733,distr,48403.00011634827,Mon Aug 18 2025 14:12:00 GMT-0500 (Central Daylight Time),843012.3999999762,B,meatbut,O,t,416,1,3666.1999999284744,839346.2000000477,7211,WL,C,3.0
6,11.730000019073486,distr,48269.999980926514,Mon Aug 18 2025 14:12:00 GMT-0500 (Central Daylight Time),843145.0,B,meatbutt,O,t,118,1,3798.7999999523163,839346.2000000477,7211,WL,C,3.0
6,12.095999956130981,distr,47904.00004386902,Mon Aug 18 2025 14:12:00 GMT-0500 (Central Daylight Time),843511.6000000238,B,meatbutte,O,e,353,1,4165.399999976158,839346.2000000477,7211,WL,C,3.0
6,12.29699993133545,distr,47703.00006866455,Mon Aug 18 2025 14:12:00 GMT-0500 (Central Daylight Time),843711.7000000477,B,meatbutter,O,r,187,1,4365.5,839346.2000000477,7211,WL,C,3.0
6,13.865000009536743,distr,46134.99999046326,Mon Aug 18 2025 14:12:00 GMT-0500 (Central Daylight Time),845279.7000000477,B,meatbutte,O,backspace,1555,1,5933.5,839346.2000000477,7211,WL,C,3.0
6,14.029000043869019,distr,45970.99995613098,Mon Aug 18 2025 14:12:00 GMT-0500 (Central Daylight Time),845444.5,B,meatbutt,O,backspace,149,1,6098.299999952316,839346.2000000477,7211,WL,C,3.0
6,14.178999900817871,distr,45821.00009918213,Mon Aug 18 2025 14:12:00 GMT-0500 (Central Daylight Time),845594.1000000238,B,meatbut,O,backspace,133,1,6247.899999976158,839346.2000000477,7211,WL,C,3.0
6,14.312000036239624,distr,45687.999963760376,Mon Aug 18 2025 14:12:00 GMT-0500 (Central Daylight Time),845727.2000000477,B,meatbu,O,backspace,119,1,6381.0,839346.2000000477,7211,WL,C,3.0
6,14.478999853134155,distr,45521.000146865845,Mon Aug 18 2025 14:12:00 GMT-0500 (Central Daylight Time),845894.7000000477,B,meatb,O,backspace,154,1,6548.5,839346.2000000477,7211,WL,C,3.0
6,14.828999996185303,distr,45171.0000038147,Mon Aug 18 2025 14:12:00 GMT-0500 (Central Daylight Time),846243.7000000477,B,meat,O,backspace,332,1,6897.5,839346.2000000477,7211,WL,C,3.0
6,15.644999980926514,distr,44355.000019073486,Mon Aug 18 2025 14:12:00 GMT-0500 (Central Daylight Time),847060.2999999523,B,meatenter,O,enter,798,1,7714.099999904633,839346.2000000477,7211,WL,C,3.0
6,16.526999950408936,distr,43473.000049591064,Mon Aug 18 2025 14:12:00 GMT-0500 (Central Daylight Time),847942.5,B,b,O,b,863,1,881.8999999761581,847060.6000000238,7211,WL,C,4.0
6,16.812000036239624,distr,43187.999963760376,Mon Aug 18 2025 14:12:00 GMT-0500 (Central Daylight Time),848226.7999999523,B,bu,O,u,266,1,1166.1999999284744,847060.6000000238,7211,WL,C,4.0
6,17.211999893188477,distr,42788.00010681152,Mon Aug 18 2025 14:12:00 GMT-0500 (Central Daylight Time),848626.6000000238,B,but,O,t,384,1,1566.0,847060.6000000238,7211,WL,C,4.0
6,17.328999996185303,distr,42671.0000038147,Mon Aug 18 2025 14:12:00 GMT-0500 (Central Daylight Time),848744.3999999762,B,butt,O,t,111,1,1683.7999999523163,847060.6000000238,7211,WL,C,4.0
6,17.626999855041504,distr,42373.000144958496,Mon Aug 18 2025 14:12:00 GMT-0500 (Central Daylight Time),849042.3999999762,B,butte,O,e,282,1,1981.7999999523163,847060.6000000238,7211,WL,C,4.0
6,17.812000036239624,distr,42187.999963760376,Mon Aug 18 2025 14:12:00 GMT-0500 (Central Daylight Time),849226.7000000477,B,butter,O,r,160,1,2166.100000023842,847060.6000000238,7211,WL,C,4.0
6,18.509999990463257,distr,41490.00000953674,Mon Aug 18 2025 14:12:00 GMT-0500 (Central Daylight Time),849925.3999999762,B,butterenter,O,enter,678,1,2864.7999999523163,847060.6000000238,7211,WL,C,4.0
6,19.744999885559082,distr,40255.00011444092,Mon Aug 18 2025 14:12:00 GMT-0500 (Central Daylight Time),851159.7000000477,B,v,O,v,1216,1,1234.2000000476837,849925.5,7211,WL,C,5.0
6,19.94599986076355,distr,40054.00013923645,Mon Aug 18 2025 14:12:00 GMT-0500 (Central Daylight Time),851360.7999999523,B,va,O,a,193,1,1435.2999999523163,849925.5,7211,WL,C,5.0
6,20.40999984741211,distr,39590.00015258789,Mon Aug 18 2025 14:12:00 GMT-0500 (Central Daylight Time),851825.3999999762,B,val,O,l,448,1,1899.8999999761581,849925.5,7211,WL,C,5.0
6,20.55900001525879,distr,39440.99998474121,Mon Aug 18 2025 14:12:00 GMT-0500 (Central Daylight Time),851974.2000000477,B,vall,O,l,127,1,2048.7000000476837,849925.5,7211,WL,C,5.0
6,20.792999982833862,distr,39207.00001716614,Mon Aug 18 2025 14:12:00 GMT-0500 (Central Daylight Time),852208.3999999762,B,valle,O,e,219,1,2282.899999976158,849925.5,7211,WL,C,5.0
6,21.075999975204468,distr,38924.00002479553,Mon Aug 18 2025 14:12:00 GMT-0500 (Central Daylight Time),852491.0,B,valley,O,y,274,1,2565.5,849925.5,7211,WL,C,5.0
6,21.925999879837036,distr,38074.000120162964,Mon Aug 18 2025 14:12:00 GMT-0500 (Central Daylight Time),853340.7999999523,B,valleyenter,O,enter,841,1,3415.2999999523163,849925.5,7211,WL,C,5.0
6,23.16100001335144,distr,36838.99998664856,Mon Aug 18 2025 14:12:00 GMT-0500 (Central Daylight Time),854575.7000000477,B,f,O,f,1214,1,1234.6000000238419,853341.1000000238,7211,WL,C,6.0
6,23.39400005340576,distr,36605.99994659424,Mon Aug 18 2025 14:12:00 GMT-0500 (Central Daylight Time),854808.8999999762,B,fo,O,o,220,1,1467.7999999523163,853341.1000000238,7211,WL,C,6.0
6,23.5939998626709,distr,36406.0001373291,Mon Aug 18 2025 14:12:00 GMT-0500 (Central Daylight Time),855009.2000000477,B,for,O,r,177,1,1668.1000000238419,853341.1000000238,7211,WL,C,6.0
6,23.792999982833862,distr,36207.00001716614,Mon Aug 18 2025 14:12:00 GMT-0500 (Central Daylight Time),855207.7999999523,B,fore,O,e,188,1,1866.6999999284744,853341.1000000238,7211,WL,C,6.0
6,24.026000022888184,distr,35973.99997711182,Mon Aug 18 2025 14:12:00 GMT-0500 (Central Daylight Time),855441.0,B,fores,O,s,220,1,2099.899999976158,853341.1000000238,7211,WL,C,6.0
6,24.29099988937378,distr,35709.00011062622,Mon Aug 18 2025 14:12:00 GMT-0500 (Central Daylight Time),855706.3999999762,B,forest,O,t,256,1,2365.2999999523163,853341.1000000238,7211,WL,C,6.0
6,25.47499990463257,distr,34525.00009536743,Mon Aug 18 2025 14:12:00 GMT-0500 (Central Daylight Time),856890.0,B,forestenter,O,enter,1174,1,3548.899999976158,853341.1000000238,7211,WL,C,6.0
6,26.990999937057495,distr,33009.000062942505,Mon Aug 18 2025 14:12:00 GMT-0500 (Central Daylight Time),858406.5,B,m,O,m,1506,1,1516.2000000476837,856890.2999999523,7211,WL,C,7.0
6,27.258999824523926,distr,32741.000175476074,Mon Aug 18 2025 14:12:00 GMT-0500 (Central Daylight Time),858673.6000000238,B,mo,O,o,260,1,1783.3000000715256,856890.2999999523,7211,WL,C,7.0
6,28.22699999809265,distr,31773.00000190735,Mon Aug 18 2025 14:12:00 GMT-0500 (Central Daylight Time),859641.7999999523,B,mot,O,t,961,1,2751.5,856890.2999999523,7211,WL,C,7.0
6,28.490999937057495,distr,31509.000062942505,Mon Aug 18 2025 14:12:00 GMT-0500 (Central Daylight Time),859906.2999999523,B,moth,O,h,248,1,3016.0,856890.2999999523,7211,WL,C,7.0
6,28.625,distr,31375.0,Mon Aug 18 2025 14:12:00 GMT-0500 (Central Daylight Time),860040.3999999762,B,mothe,O,e,127,1,3150.100000023842,856890.2999999523,7211,WL,C,7.0
6,28.823999881744385,distr,31176.000118255615,Mon Aug 18 2025 14:12:00 GMT-0500 (Central Daylight Time),860238.7000000477,B,mother,O,r,185,1,3348.4000000953674,856890.2999999523,7211,WL,C,7.0
6,29.973000049591064,distr,30026.999950408936,Mon Aug 18 2025 14:12:00 GMT-0500 (Central Daylight Time),861388.6000000238,B,motherenter,O,enter,1140,1,4498.300000071526,856890.2999999523,7211,WL,C,7.0
6,34.75499987602234,distr,25245.00012397766,Mon Aug 18 2025 14:12:00 GMT-0500 (Central Daylight Time),866170.1000000238,B,p,O,p,4766,1,4781.300000071526,861388.7999999523,7211,WL,C,8.0
6,34.954999923706055,distr,25045.000076293945,Mon Aug 18 2025 14:12:00 GMT-0500 (Central Daylight Time),866370.2000000477,B,pl,O,l,192,1,4981.400000095367,861388.7999999523,7211,WL,C,8.0
6,35.138999938964844,distr,24861.000061035156,Mon Aug 18 2025 14:12:00 GMT-0500 (Central Daylight Time),866554.3999999762,B,pla,O,a,163,1,5165.600000023842,861388.7999999523,7211,WL,C,8.0
6,35.42199993133545,distr,24578.00006866455,Mon Aug 18 2025 14:12:00 GMT-0500 (Central Daylight Time),866836.7000000477,B,plan,O,n,264,1,5447.900000095367,861388.7999999523,7211,WL,C,8.0
6,35.855000019073486,distr,24144.999980926514,Mon Aug 18 2025 14:12:00 GMT-0500 (Central Daylight Time),867269.8999999762,B,plant,O,t,411,1,5881.100000023842,861388.7999999523,7211,WL,C,8.0
6,36.638999938964844,distr,23361.000061035156,Mon Aug 18 2025 14:12:00 GMT-0500 (Central Daylight Time),868053.7999999523,B,plantenter,O,enter,772,1,6665.0,861388.7999999523,7211,WL,C,8.0
6,51.299999952316284,distr,8700.000047683716,Mon Aug 18 2025 14:12:00 GMT-0500 (Central Daylight Time),882715.2000000477,B,enter,O,enter,14647,1,14661.200000047684,868054.0,7211,WL,C,9.0
6,56.5479998588562,distr,3452.000141143799,Mon Aug 18 2025 14:12:00 GMT-0500 (Central Daylight Time),887963.2000000477,B,enter,O,enter,5243,1,5247.800000071526,882715.3999999762,7211,WL,C,10.0
6,60.014999866485596,distr,-14.999866485595703,Mon Aug 18 2025 14:12:00 GMT-0500 (Central Daylight Time),891430.5,B,None,O,None,3462,1,3467.0,887963.5,7211,WL,C,11.0
7,0.9820001125335693,immed,59017.99988746643,Mon Aug 18 2025 14:12:00 GMT-0500 (Central Daylight Time),906090.6000000238,A,t,O,t,965,1,981.2000000476837,905109.3999999762,7211,WL,C,1.0
7,1.2160000801086426,immed,58783.99991989136,Mon Aug 18 2025 14:12:00 GMT-0500 (Central Daylight Time),906325.3999999762,A,to,O,o,222,1,1216.0,905109.3999999762,7211,WL,C,1.0
7,1.6000001430511475,immed,58399.99985694885,Mon Aug 18 2025 14:12:00 GMT-0500 (Central Daylight Time),906708.3999999762,A,tow,O,w,366,1,1599.0,905109.3999999762,7211,WL,C,1.0
7,1.7990000247955322,immed,58200.99997520447,Mon Aug 18 2025 14:12:00 GMT-0500 (Central Daylight Time),906907.7000000477,A,towe,O,e,189,1,1798.3000000715256,905109.3999999762,7211,WL,C,1.0
7,2.014000177383423,immed,57985.99982261658,Mon Aug 18 2025 14:12:00 GMT-0500 (Central Daylight Time),907123.2999999523,A,tower,O,r,205,1,2013.8999999761581,905109.3999999762,7211,WL,C,1.0
7,2.450000047683716,immed,57549.999952316284,Mon Aug 18 2025 14:12:00 GMT-0500 (Central Daylight Time),907559.1000000238,A,towerenter,O,enter,420,1,2449.7000000476837,905109.3999999762,7211,WL,C,1.0
7,4.314000129699707,immed,55685.99987030029,Mon Aug 18 2025 14:12:00 GMT-0500 (Central Daylight Time),909422.7999999523,A,w,O,w,1847,1,1863.3999999761581,907559.3999999762,7211,WL,C,2.0
7,4.648000001907349,immed,55351.99999809265,Mon Aug 18 2025 14:12:00 GMT-0500 (Central Daylight Time),909756.5,A,wh,O,h,323,1,2197.100000023842,907559.3999999762,7211,WL,C,2.0
7,4.880000114440918,immed,55119.99988555908,Mon Aug 18 2025 14:12:00 GMT-0500 (Central Daylight Time),909989.1000000238,A,whe,O,e,212,1,2429.7000000476837,907559.3999999762,7211,WL,C,2.0
7,5.0990002155303955,immed,54900.999784469604,Mon Aug 18 2025 14:12:00 GMT-0500 (Central Daylight Time),910208.2999999523,A,whea,O,a,207,1,2648.899999976158,907559.3999999762,7211,WL,C,2.0
7,5.432000160217285,immed,54567.999839782715,Mon Aug 18 2025 14:12:00 GMT-0500 (Central Daylight Time),910540.7000000477,A,wheat,O,t,313,1,2981.3000000715256,907559.3999999762,7211,WL,C,2.0
7,5.997000217437744,immed,54002.999782562256,Mon Aug 18 2025 14:12:00 GMT-0500 (Central Daylight Time),911106.0,A,wheatenter,O,enter,558,1,3546.600000023842,907559.3999999762,7211,WL,C,2.0
7,7.299000024795532,immed,52700.99997520447,Mon Aug 18 2025 14:12:00 GMT-0500 (Central Daylight Time),912407.7999999523,A,w,O,w,1289,1,1301.5,911106.2999999523,7211,WL,C,3.0
7,8.180999994277954,immed,51819.000005722046,Mon Aug 18 2025 14:12:00 GMT-0500 (Central Daylight Time),913290.2000000477,A,,O,backspace,866,1,2183.9000000953674,911106.2999999523,7211,WL,C,3.0
7,8.915000200271606,immed,51084.99979972839,Mon Aug 18 2025 14:12:00 GMT-0500 (Central Daylight Time),914023.8999999762,A,q,O,q,722,1,2917.600000023842,911106.2999999523,7211,WL,C,3.0
7,9.231000185012817,immed,50768.99981498718,Mon Aug 18 2025 14:12:00 GMT-0500 (Central Daylight Time),914340.0,A,qu,O,u,298,1,3233.7000000476837,911106.2999999523,7211,WL,C,3.0
7,9.412000179290771,immed,50587.99982070923,Mon Aug 18 2025 14:12:00 GMT-0500 (Central Daylight Time),914521.0,A,que,O,e,167,1,3414.7000000476837,911106.2999999523,7211,WL,C,3.0
7,9.564000129699707,immed,50435.99987030029,Mon Aug 18 2025 14:12:00 GMT-0500 (Central Daylight Time),914672.2999999523,A,quee,O,e,135,1,3566.0,911106.2999999523,7211,WL,C,3.0
7,9.830000162124634,immed,50169.999837875366,Mon Aug 18 2025 14:12:00 GMT-0500 (Central Daylight Time),914938.8999999762,A,queen,O,n,246,1,3832.600000023842,911106.2999999523,7211,WL,C,3.0
7,10.246000051498413,immed,49753.99994850159,Mon Aug 18 2025 14:12:00 GMT-0500 (Central Daylight Time),915354.5,A,queenenter,O,enter,406,1,4248.200000047684,911106.2999999523,7211,WL,C,3.0
7,11.995000123977661,immed,48004.99987602234,Mon Aug 18 2025 14:12:00 GMT-0500 (Central Daylight Time),917103.8999999762,A,s,O,s,1730,1,1749.1999999284744,915354.7000000477,7211,WL,C,4.0
7,12.26200008392334,immed,47737.99991607666,Mon Aug 18 2025 14:12:00 GMT-0500 (Central Daylight Time),917371.2999999523,A,su,O,u,257,1,2016.5999999046326,915354.7000000477,7211,WL,C,4.0
7,12.59600019454956,immed,47403.99980545044,Mon Aug 18 2025 14:12:00 GMT-0500 (Central Daylight Time),917704.7999999523,A,sug,O,g,317,1,2350.0999999046326,915354.7000000477,7211,WL,C,4.0
7,12.730000019073486,immed,47269.999980926514,Mon Aug 18 2025 14:12:00 GMT-0500 (Central Daylight Time),917839.2000000477,A,suga,O,a,111,1,2484.5,915354.7000000477,7211,WL,C,4.0
7,13.044000148773193,immed,46955.99985122681,Mon Aug 18 2025 14:12:00 GMT-0500 (Central Daylight Time),918153.1000000238,A,sugar,O,r,299,1,2798.399999976158,915354.7000000477,7211,WL,C,4.0
7,13.91100001335144,immed,46088.99998664856,Mon Aug 18 2025 14:12:00 GMT-0500 (Central Daylight Time),919020.2999999523,A,sugarenter,O,enter,849,1,3665.5999999046326,915354.7000000477,7211,WL,C,4.0
7,17.527000188827515,immed,42472.999811172485,Mon Aug 18 2025 14:12:00 GMT-0500 (Central Daylight Time),922636.0,A,b,O,b,3610,1,3615.5,919020.5,7211,WL,C,5.0
7,17.91000008583069,immed,42089.99991416931,Mon Aug 18 2025 14:12:00 GMT-0500 (Central Daylight Time),923018.8999999762,A,bo,O,o,366,1,3998.399999976158,919020.5,7211,WL,C,5.0
7,18.277000188827515,immed,41722.999811172485,Mon Aug 18 2025 14:12:00 GMT-0500 (Central Daylight Time),923386.0,A,boy,O,y,351,1,4365.5,919020.5,7211,WL,C,5.0
7,18.877000093460083,immed,41122.99990653992,Mon Aug 18 2025 14:12:00 GMT-0500 (Central Daylight Time),923985.7000000477,A,boyenter,O,enter,579,1,4965.200000047684,919020.5,7211,WL,C,5.0
7,19.776000022888184,immed,40223.99997711182,Mon Aug 18 2025 14:12:00 GMT-0500 (Central Daylight Time),924885.2999999523,A,h,O,h,882,1,899.2999999523163,923986.0,7211,WL,C,6.0
7,20.027000188827515,immed,39972.999811172485,Mon Aug 18 2025 14:12:00 GMT-0500 (Central Daylight Time),925135.8999999762,A,ho,O,o,228,1,1149.8999999761581,923986.0,7211,WL,C,6.0
7,20.259000062942505,immed,39740.999937057495,Mon Aug 18 2025 14:12:00 GMT-0500 (Central Daylight Time),925367.8999999762,A,hom,O,m,217,1,1381.8999999761581,923986.0,7211,WL,C,6.0
7,20.478000164031982,immed,39521.99983596802,Mon Aug 18 2025 14:12:00 GMT-0500 (Central Daylight Time),925586.8999999762,A,home,O,e,195,1,1600.8999999761581,923986.0,7211,WL,C,6.0
7,21.29200005531311,immed,38707.99994468689,Mon Aug 18 2025 14:12:00 GMT-0500 (Central Daylight Time),926400.7999999523,A,homeenter,O,enter,792,1,2414.7999999523163,923986.0,7211,WL,C,6.0
7,22.642000198364258,immed,37357.99980163574,Mon Aug 18 2025 14:12:00 GMT-0500 (Central Daylight Time),927751.1000000238,A,d,O,d,1338,1,1350.1000000238419,926401.0,7211,WL,C,7.0
7,22.91000008583069,immed,37089.99991416931,Mon Aug 18 2025 14:12:00 GMT-0500 (Central Daylight Time),928018.6000000238,A,do,O,o,254,1,1617.6000000238419,926401.0,7211,WL,C,7.0
7,23.092000007629395,immed,36907.999992370605,Mon Aug 18 2025 14:12:00 GMT-0500 (Central Daylight Time),928200.7999999523,A,doc,O,c,167,1,1799.7999999523163,926401.0,7211,WL,C,7.0
7,23.342000007629395,immed,36657.999992370605,Mon Aug 18 2025 14:12:00 GMT-0500 (Central Daylight Time),928451.2999999523,A,doct,O,t,242,1,2050.2999999523163,926401.0,7211,WL,C,7.0
7,23.54100012779236,immed,36458.99987220764,Mon Aug 18 2025 14:12:00 GMT-0500 (Central Daylight Time),928649.8999999762,A,docto,O,o,183,1,2248.899999976158,926401.0,7211,WL,C,7.0
7,23.69099998474121,immed,36309.00001525879,Mon Aug 18 2025 14:12:00 GMT-0500 (Central Daylight Time),928800.0,A,doctor,O,r,133,1,2399.0,926401.0,7211,WL,C,7.0
7,24.509000062942505,immed,35490.999937057495,Mon Aug 18 2025 14:12:00 GMT-0500 (Central Daylight Time),929617.5,A,doctorenter,O,enter,805,1,3216.5,926401.0,7211,WL,C,7.0
7,25.34000015258789,immed,34659.99984741211,Mon Aug 18 2025 14:12:00 GMT-0500 (Central Daylight Time),930449.2000000477,A,c,O,c,818,1,831.4000000953674,929617.7999999523,7211,WL,C,8.0
7,25.591000080108643,immed,34408.99991989136,Mon Aug 18 2025 14:12:00 GMT-0500 (Central Daylight Time),930700.2999999523,A,ca,O,a,232,1,1082.5,929617.7999999523,7211,WL,C,8.0
7,25.875,immed,34125.0,Mon Aug 18 2025 14:12:00 GMT-0500 (Central Daylight Time),930983.5,A,can,O,n,260,1,1365.7000000476837,929617.7999999523,7211,WL,C,8.0
7,26.374000072479248,immed,33625.99992752075,Mon Aug 18 2025 14:12:00 GMT-0500 (Central Daylight Time),931482.7999999523,A,ca,O,backspace,483,1,1865.0,929617.7999999523,7211,WL,C,8.0
7,26.75600004196167,immed,33243.99995803833,Mon Aug 18 2025 14:12:00 GMT-0500 (Central Daylight Time),931865.2000000477,A,cam,O,m,368,1,2247.4000000953674,929617.7999999523,7211,WL,C,8.0
7,27.055999994277954,immed,32944.000005722046,Mon Aug 18 2025 14:12:00 GMT-0500 (Central Daylight Time),932164.7000000477,A,camp,O,p,287,1,2546.9000000953674,929617.7999999523,7211,WL,C,8.0
7,28.073000192642212,immed,31926.999807357788,Mon Aug 18 2025 14:12:00 GMT-0500 (Central Daylight Time),933182.0,A,campenter,O,enter,1006,1,3564.2000000476837,929617.7999999523,7211,WL,C,8.0
7,30.1560001373291,immed,29843.9998626709,Mon Aug 18 2025 14:12:00 GMT-0500 (Central Daylight Time),935265.2000000477,A,f,O,f,2063,1,2083.0,933182.2000000477,7211,WL,C,9.0
7,30.34000015258789,immed,29659.99984741211,Mon Aug 18 2025 14:12:00 GMT-0500 (Central Daylight Time),935448.5,A,fl,O,l,162,1,2266.2999999523163,933182.2000000477,7211,WL,C,9.0
7,30.507000207901,immed,29492.999792099,Mon Aug 18 2025 14:12:00 GMT-0500 (Central Daylight Time),935616.0,A,fla,O,a,152,1,2433.7999999523163,933182.2000000477,7211,WL,C,9.0
7,30.790000200271606,immed,29209.999799728394,Mon Aug 18 2025 14:12:00 GMT-0500 (Central Daylight Time),935898.3999999762,A,flag,O,g,268,1,2716.1999999284744,933182.2000000477,7211,WL,C,9.0
7,31.23800015449524,immed,28761.99984550476,Mon Aug 18 2025 14:12:00 GMT-0500 (Central Daylight Time),936346.5,A,flagenter,O,enter,431,1,3164.2999999523163,933182.2000000477,7211,WL,C,9.0
7,31.67300009727478,immed,28326.99990272522,Mon Aug 18 2025 14:12:00 GMT-0500 (Central Daylight Time),936781.7000000477,A,l,O,l,416,1,435.0,936346.7000000477,7211,WL,C,10.0
7,31.956000089645386,immed,28043.999910354614,Mon Aug 18 2025 14:12:00 GMT-0500 (Central Daylight Time),937064.6000000238,A,le,O,e,270,1,717.8999999761581,936346.7000000477,7211,WL,C,10.0
7,32.25500011444092,immed,27744.999885559082,Mon Aug 18 2025 14:12:00 GMT-0500 (Central Daylight Time),937363.7000000477,A,let,O,t,279,1,1017.0,936346.7000000477,7211,WL,C,10.0
7,32.4060001373291,immed,27593.9998626709,Mon Aug 18 2025 14:12:00 GMT-0500 (Central Daylight Time),937514.8999999762,A,lett,O,t,131,1,1168.1999999284744,936346.7000000477,7211,WL,C,10.0
7,32.640000104904175,immed,27359.999895095825,Mon Aug 18 2025 14:12:00 GMT-0500 (Central Daylight Time),937748.8999999762,A,lette,O,e,221,1,1402.1999999284744,936346.7000000477,7211,WL,C,10.0
7,32.82200002670288,immed,27177.99997329712,Mon Aug 18 2025 14:12:00 GMT-0500 (Central Daylight Time),937931.0,A,letter,O,r,176,1,1584.2999999523163,936346.7000000477,7211,WL,C,10.0
7,33.5220000743866,immed,26477.999925613403,Mon Aug 18 2025 14:12:00 GMT-0500 (Central Daylight Time),938630.3999999762,A,letterenter,O,enter,678,1,2283.6999999284744,936346.7000000477,7211,WL,C,10.0
7,35.438000202178955,immed,24561.999797821045,Mon Aug 18 2025 14:12:00 GMT-0500 (Central Daylight Time),940546.8999999762,A,n,O,n,1908,1,1916.2999999523163,938630.6000000238,7211,WL,C,11.0
7,35.622000217437744,immed,24377.999782562256,Mon Aug 18 2025 14:12:00 GMT-0500 (Central Daylight Time),940730.5,A,na,O,a,161,1,2099.899999976158,938630.6000000238,7211,WL,C,11.0
7,35.80400013923645,immed,24195.99986076355,Mon Aug 18 2025 14:12:00 GMT-0500 (Central Daylight Time),940913.2999999523,A,nai,O,i,162,1,2282.6999999284744,938630.6000000238,7211,WL,C,11.0
7,36.021000146865845,immed,23978.999853134155,Mon Aug 18 2025 14:12:00 GMT-0500 (Central Daylight Time),941129.6000000238,A,nail,O,l,197,1,2499.0,938630.6000000238,7211,WL,C,11.0
7,36.53800010681152,immed,23461.999893188477,Mon Aug 18 2025 14:12:00 GMT-0500 (Central Daylight Time),941646.3999999762,A,nailenter,O,enter,503,1,3015.7999999523163,938630.6000000238,7211,WL,C,11.0
7,39.569000005722046,immed,20430.999994277954,Mon Aug 18 2025 14:12:00 GMT-0500 (Central Daylight Time),944677.2999999523,A,l,O,l,3012,1,3030.5999999046326,941646.7000000477,7211,WL,C,12.0
7,39.753000020980835,immed,20246.999979019165,Mon Aug 18 2025 14:12:00 GMT-0500 (Central Daylight Time),944861.7000000477,A,le,O,e,166,1,3215.0,941646.7000000477,7211,WL,C,12.0
7,40.03700017929077,immed,19962.99982070923,Mon Aug 18 2025 14:12:00 GMT-0500 (Central Daylight Time),945145.6000000238,A,let,O,t,260,1,3498.899999976158,941646.7000000477,7211,WL,C,12.0
7,40.16900014877319,immed,19830.999851226807,Mon Aug 18 2025 14:12:00 GMT-0500 (Central Daylight Time),945278.2000000477,A,lett,O,t,119,1,3631.5,941646.7000000477,7211,WL,C,12.0
7,40.41900014877319,immed,19580.999851226807,Mon Aug 18 2025 14:12:00 GMT-0500 (Central Daylight Time),945527.3999999762,A,lette,O,e,232,1,3880.6999999284744,941646.7000000477,7211,WL,C,12.0
7,40.58500003814697,immed,19414.999961853027,Mon Aug 18 2025 14:12:00 GMT-0500 (Central Daylight Time),945694.2000000477,A,letter,O,r,148,1,4047.5,941646.7000000477,7211,WL,C,12.0
7,40.902000188827515,immed,19097.999811172485,Mon Aug 18 2025 14:12:00 GMT-0500 (Central Daylight Time),946011.2000000477,A,letterenter,O,enter,310,1,4364.5,941646.7000000477,7211,WL,C,12.0
7,41.37000012397766,immed,18629.99987602234,Mon Aug 18 2025 14:12:00 GMT-0500 (Central Daylight Time),946478.8999999762,A,c,O,c,448,1,467.5,946011.3999999762,7211,WL,C,13.0
7,41.60300016403198,immed,18396.999835968018,Mon Aug 18 2025 14:12:00 GMT-0500 (Central Daylight Time),946712.0,A,co,O,o,219,1,700.6000000238419,946011.3999999762,7211,WL,C,13.0
7,41.77000021934509,immed,18229.999780654907,Mon Aug 18 2025 14:12:00 GMT-0500 (Central Daylight Time),946879.0,A,cor,O,r,145,1,867.6000000238419,946011.3999999762,7211,WL,C,13.0
7,42.0530002117157,immed,17946.9997882843,Mon Aug 18 2025 14:12:00 GMT-0500 (Central Daylight Time),947162.2999999523,A,corn,O,n,261,1,1150.8999999761581,946011.3999999762,7211,WL,C,13.0
7,42.902000188827515,immed,17097.999811172485,Mon Aug 18 2025 14:12:00 GMT-0500 (Central Daylight Time),948010.7000000477,A,cornenter,O,enter,841,1,1999.3000000715256,946011.3999999762,7211,WL,C,13.0
7,44.83500003814697,immed,15164.999961853027,Mon Aug 18 2025 14:12:00 GMT-0500 (Central Daylight Time),949944.7999999523,A,b,O,b,1913,1,1933.7999999523163,948011.0,7211,WL,C,14.0
7,45.117000102996826,immed,14882.999897003174,Mon Aug 18 2025 14:12:00 GMT-0500 (Central Daylight Time),950226.2000000477,A,bo,O,o,273,1,2215.2000000476837,948011.0,7211,WL,C,14.0
7,45.651000022888184,immed,14348.999977111816,Mon Aug 18 2025 14:12:00 GMT-0500 (Central Daylight Time),950760.7999999523,A,bod,O,d,512,1,2749.7999999523163,948011.0,7211,WL,C,14.0
7,45.86800003051758,immed,14131.999969482422,Mon Aug 18 2025 14:12:00 GMT-0500 (Central Daylight Time),950977.6000000238,A,body,O,y,195,1,2966.600000023842,948011.0,7211,WL,C,14.0
7,46.30000019073486,immed,13699.999809265137,Mon Aug 18 2025 14:12:00 GMT-0500 (Central Daylight Time),951409.7000000477,A,bodyenter,O,enter,417,1,3398.7000000476837,948011.0,7211,WL,C,14.0
7,46.718000173568726,immed,13281.999826431274,Mon Aug 18 2025 14:12:00 GMT-0500 (Central Daylight Time),951827.2999999523,A,s,O,s,413,1,417.39999997615814,951409.8999999762,7211,WL,C,15.0
7,46.91800022125244,immed,13081.999778747559,Mon Aug 18 2025 14:12:00 GMT-0500 (Central Daylight Time),952027.3999999762,A,sh,O,h,193,1,617.5,951409.8999999762,7211,WL,C,15.0
7,47.217000007629395,immed,12782.999992370605,Mon Aug 18 2025 14:12:00 GMT-0500 (Central Daylight Time),952326.2000000477,A,sho,O,o,287,1,916.3000000715256,951409.8999999762,7211,WL,C,15.0
7,47.55000019073486,immed,12449.999809265137,Mon Aug 18 2025 14:12:00 GMT-0500 (Central Daylight Time),952659.1000000238,A,shor,O,r,323,1,1249.2000000476837,951409.8999999762,7211,WL,C,15.0
7,47.76600003242493,immed,12233.999967575073,Mon Aug 18 2025 14:12:00 GMT-0500 (Central Daylight Time),952875.8999999762,A,shore,O,e,211,1,1466.0,951409.8999999762,7211,WL,C,15.0
7,48.68300008773804,immed,11316.999912261963,Mon Aug 18 2025 14:12:00 GMT-0500 (Central Daylight Time),953792.1000000238,A,shoreenter,O,enter,903,1,2382.2000000476837,951409.8999999762,7211,WL,C,15.0
