acc_sum,block,block_c,change,condition,correct,correct_response,datetime,endtime,face,project,response,response_time,row_sel,session_number,start_end,starttime,subject_id,task,task_vers,trial
0,prac,1,,1-Back,,,Fri Mar 27 2026 10:12:49 GMT-0500 (Central Daylight Time),,124_o_f_d_a.png,O,space,9571,1,1,,,7788,VNB,A,0
0,prac,1,0.0,1-Back,0.0,m,Fri Mar 27 2026 10:12:49 GMT-0500 (Central Daylight Time),230756.39999985695,071_y_f_n_a.png,O,None,2016,2,1,2805.2999999523163,227951.09999990463,7788,VNB,A,1
0,prac,1,0.0,1-Back,0.0,m,Fri Mar 27 2026 10:12:49 GMT-0500 (Central Daylight Time),233554.89999985695,165_m_m_h_a.png,O,None,2002,3,1,2789.7999999523163,230765.09999990463,7788,VNB,A,2
0,prac,1,0.0,1-Back,0.0,m,Fri Mar 27 2026 10:12:49 GMT-0500 (Central Daylight Time),236370.89999985695,109_y_m_d_a.png,O,None,2015,4,1,2807.0,233563.89999985695,7788,VNB,A,3
0,prac,1,0.0,1-Back,0.0,m,Fri Mar 27 2026 10:12:49 GMT-0500 (Central Daylight Time),238520.09999990463,124_o_f_n_a.png,O,z,1325,5,1,2139.7000000476837,236380.39999985695,7788,VNB,A,4
0,prac,1,1.0,1-Back,0.0,z,Fri Mar 27 2026 10:12:49 GMT-0500 (Central Daylight Time),240702.79999995232,109_y_m_n_a.png,O,m,1367,6,1,2174.0,238528.79999995232,7788,VNB,A,5
0,prac,1,0.0,1-Back,0.0,m,Fri Mar 27 2026 10:12:49 GMT-0500 (Central Daylight Time),243067.70000004768,039_o_m_h_a.png,O,z,1556,7,1,2356.5,240711.20000004768,7788,VNB,A,6
1,prac,1,0.0,1-Back,1.0,m,Fri Mar 27 2026 10:12:49 GMT-0500 (Central Daylight Time),245517.79999995232,139_m_f_d_a.png,O,m,1629,8,1,2443.2000000476837,243074.59999990463,7788,VNB,A,7
1,prac,1,1.0,1-Back,0.0,z,Fri Mar 27 2026 10:12:49 GMT-0500 (Central Daylight Time),247384.09999990463,071_y_f_d_a.png,O,m,1072,9,1,1857.7999999523163,245526.29999995232,7788,VNB,A,8
1,prac,1,0.0,1-Back,0.0,m,Fri Mar 27 2026 10:12:49 GMT-0500 (Central Daylight Time),249433.09999990463,165_m_m_n_a.png,O,z,1253,10,1,2041.3999998569489,247391.70000004768,7788,VNB,A,9
1,prac,1,0.0,1-Back,0.0,m,Fri Mar 27 2026 10:12:49 GMT-0500 (Central Daylight Time),252249.79999995232,124_o_f_h_a.png,O,None,2006,11,1,2807.5,249442.29999995232,7788,VNB,A,10
1,prac,1,0.0,1-Back,0.0,m,Fri Mar 27 2026 10:12:49 GMT-0500 (Central Daylight Time),255031.39999985695,109_y_m_d_a.png,O,None,2007,12,1,2772.7999999523163,252258.59999990463,7788,VNB,A,11
0,prac,2,0.0,1-Back,,,Fri Mar 27 2026 10:12:49 GMT-0500 (Central Daylight Time),255031.39999985695,124_o_f_d_a.png,O,a,17582,1,1,2772.7999999523163,252258.59999990463,7788,VNB,A,0
0,prac,2,0.0,1-Back,0.0,m,Fri Mar 27 2026 10:12:49 GMT-0500 (Central Daylight Time),278457.09999990463,071_y_f_n_a.png,O,None,2001,2,1,2789.399999856949,275667.7000000477,7788,VNB,A,1
0,prac,2,0.0,1-Back,0.0,m,Fri Mar 27 2026 10:12:49 GMT-0500 (Central Daylight Time),280858.5,165_m_m_h_a.png,O,z,1599,3,1,2392.2000000476837,278466.2999999523,7788,VNB,A,2
1,prac,2,0.0,1-Back,1.0,m,Fri Mar 27 2026 10:12:49 GMT-0500 (Central Daylight Time),282974.09999990463,109_y_m_d_a.png,O,m,1323,4,1,2104.2000000476837,280869.89999985695,7788,VNB,A,3
1,prac,2,0.0,1-Back,0.0,m,Fri Mar 27 2026 10:12:49 GMT-0500 (Central Daylight Time),284992.59999990463,124_o_f_n_a.png,O,z,1189,5,1,2008.3999998569489,282984.2000000477,7788,VNB,A,4
1,prac,2,1.0,1-Back,0.0,z,Fri Mar 27 2026 10:12:49 GMT-0500 (Central Daylight Time),287388.2999999523,109_y_m_n_a.png,O,m,1574,6,1,2386.5999999046326,285001.7000000477,7788,VNB,A,5
2,prac,2,0.0,1-Back,1.0,m,Fri Mar 27 2026 10:12:49 GMT-0500 (Central Daylight Time),289355.89999985695,039_o_m_h_a.png,O,m,1166,7,1,1956.7999999523163,287399.09999990463,7788,VNB,A,6
3,prac,2,0.0,1-Back,1.0,m,Fri Mar 27 2026 10:12:49 GMT-0500 (Central Daylight Time),292071.7000000477,139_m_f_d_a.png,O,m,1910,8,1,2704.4000000953674,289367.2999999523,7788,VNB,A,7
4,prac,2,1.0,1-Back,1.0,z,Fri Mar 27 2026 10:12:49 GMT-0500 (Central Daylight Time),293886.39999985695,071_y_f_d_a.png,O,z,1001,9,1,1803.8999998569489,292082.5,7788,VNB,A,8
5,prac,2,0.0,1-Back,1.0,m,Fri Mar 27 2026 10:12:49 GMT-0500 (Central Daylight Time),295753.89999985695,165_m_m_n_a.png,O,m,1073,10,1,1861.6999998092651,293892.2000000477,7788,VNB,A,9
6,prac,2,0.0,1-Back,1.0,m,Fri Mar 27 2026 10:12:49 GMT-0500 (Central Daylight Time),297753.89999985695,124_o_f_h_a.png,O,m,1190,11,1,1989.0999999046326,295764.7999999523,7788,VNB,A,10
7,prac,2,0.0,1-Back,1.0,m,Fri Mar 27 2026 10:12:49 GMT-0500 (Central Daylight Time),299618.0,109_y_m_d_a.png,O,m,1075,12,1,1852.0,297766.0,7788,VNB,A,11
0,prac,3,0.0,1-Back,,,Fri Mar 27 2026 10:12:49 GMT-0500 (Central Daylight Time),299618.0,124_o_f_d_a.png,O,a,12958,1,1,1852.0,297766.0,7788,VNB,A,0
1,prac,3,0.0,1-Back,1.0,m,Fri Mar 27 2026 10:12:49 GMT-0500 (Central Daylight Time),317362.7000000477,071_y_f_n_a.png,O,m,948,2,1,1738.3000001907349,315624.39999985695,7788,VNB,A,1
2,prac,3,0.0,1-Back,1.0,m,Fri Mar 27 2026 10:12:49 GMT-0500 (Central Daylight Time),319028.89999985695,165_m_m_h_a.png,O,m,851,3,1,1656.5,317372.39999985695,7788,VNB,A,2
3,prac,3,0.0,1-Back,1.0,m,Fri Mar 27 2026 10:12:49 GMT-0500 (Central Daylight Time),320678.7000000477,109_y_m_d_a.png,O,m,868,4,1,1639.5,319039.2000000477,7788,VNB,A,3
4,prac,3,0.0,1-Back,1.0,m,Fri Mar 27 2026 10:12:49 GMT-0500 (Central Daylight Time),322444.59999990463,124_o_f_n_a.png,O,m,937,5,1,1756.2000000476837,320688.39999985695,7788,VNB,A,4
5,prac,3,1.0,1-Back,1.0,z,Fri Mar 27 2026 10:12:49 GMT-0500 (Central Daylight Time),324210.59999990463,109_y_m_n_a.png,O,z,954,6,1,1757.3999998569489,322453.2000000477,7788,VNB,A,5
6,prac,3,0.0,1-Back,1.0,m,Fri Mar 27 2026 10:12:49 GMT-0500 (Central Daylight Time),326194.09999990463,039_o_m_h_a.png,O,m,1197,7,1,1976.8999998569489,324217.2000000477,7788,VNB,A,6
7,prac,3,0.0,1-Back,1.0,m,Fri Mar 27 2026 10:12:49 GMT-0500 (Central Daylight Time),327909.59999990463,139_m_f_d_a.png,O,m,905,8,1,1707.5,326202.09999990463,7788,VNB,A,7
8,prac,3,1.0,1-Back,1.0,z,Fri Mar 27 2026 10:12:49 GMT-0500 (Central Daylight Time),329675.7999999523,071_y_f_d_a.png,O,z,968,9,1,1758.7000000476837,327917.09999990463,7788,VNB,A,8
9,prac,3,0.0,1-Back,1.0,m,Fri Mar 27 2026 10:12:49 GMT-0500 (Central Daylight Time),331540.7000000477,165_m_m_n_a.png,O,m,1052,10,1,1853.9000000953674,329686.7999999523,7788,VNB,A,9
10,prac,3,0.0,1-Back,1.0,m,Fri Mar 27 2026 10:12:49 GMT-0500 (Central Daylight Time),333473.89999985695,124_o_f_h_a.png,O,m,1120,11,1,1925.5,331548.39999985695,7788,VNB,A,10
11,prac,3,0.0,1-Back,1.0,m,Fri Mar 27 2026 10:12:49 GMT-0500 (Central Daylight Time),335089.09999990463,109_y_m_d_a.png,O,m,839,12,1,1605.7999999523163,333483.2999999523,7788,VNB,A,11
0,test,1,0.0,1-Back,,,Fri Mar 27 2026 10:12:49 GMT-0500 (Central Daylight Time),335089.09999990463,071_y_f_d_a.png,O,space,11480,1,1,1605.7999999523163,333483.2999999523,7788,VNB,A,0
1,test,1,0.0,1-Back,1.0,m,Fri Mar 27 2026 10:12:49 GMT-0500 (Central Daylight Time),371128.59999990463,139_m_f_n_a.png,O,m,917,2,1,1939.0999999046326,369189.5,7788,VNB,A,1
2,test,1,0.0,1-Back,1.0,m,Fri Mar 27 2026 10:12:49 GMT-0500 (Central Daylight Time),373045.2999999523,039_o_m_h_a.png,O,m,900,3,1,1910.2999999523163,371135.0,7788,VNB,A,2
3,test,1,1.0,1-Back,1.0,z,Fri Mar 27 2026 10:12:49 GMT-0500 (Central Daylight Time),375093.7999999523,165_m_m_h_a.png,O,z,1029,4,1,2045.2000000476837,373048.59999990463,7788,VNB,A,3
4,test,1,0.0,1-Back,1.0,m,Fri Mar 27 2026 10:12:49 GMT-0500 (Central Daylight Time),377125.7999999523,124_o_f_n_a.png,O,m,1012,5,1,2024.9000000953674,375100.89999985695,7788,VNB,A,4
5,test,1,0.0,1-Back,1.0,m,Fri Mar 27 2026 10:12:49 GMT-0500 (Central Daylight Time),379325.39999985695,109_y_m_d_a.png,O,m,1181,6,1,2194.899999856949,377130.5,7788,VNB,A,5
6,test,1,1.0,1-Back,1.0,z,Fri Mar 27 2026 10:12:49 GMT-0500 (Central Daylight Time),381305.89999985695,139_m_f_d_a.png,O,z,952,7,1,1975.3999998569489,379330.5,7788,VNB,A,6
7,test,1,0.0,1-Back,1.0,m,Fri Mar 27 2026 10:12:49 GMT-0500 (Central Daylight Time),383108.59999990463,071_y_f_h_a.png,O,m,774,8,1,1798.0999999046326,381310.5,7788,VNB,A,7
8,test,1,0.0,1-Back,1.0,m,Fri Mar 27 2026 10:12:49 GMT-0500 (Central Daylight Time),385391.0,039_o_m_n_a.png,O,m,1261,9,1,2273.2999999523163,383117.7000000477,7788,VNB,A,8
9,test,1,0.0,1-Back,1.0,m,Fri Mar 27 2026 10:12:49 GMT-0500 (Central Daylight Time),387474.0,109_y_m_h_a.png,O,m,1052,10,1,2075.600000143051,385398.39999985695,7788,VNB,A,9
10,test,1,0.0,1-Back,1.0,m,Fri Mar 27 2026 10:12:49 GMT-0500 (Central Daylight Time),389422.7000000477,039_o_m_d_a.png,O,m,928,11,1,1942.5,387480.2000000477,7788,VNB,A,10
11,test,1,1.0,1-Back,1.0,z,Fri Mar 27 2026 10:12:49 GMT-0500 (Central Daylight Time),391356.0,124_o_f_d_a.png,O,z,916,12,1,1925.6000001430511,389430.39999985695,7788,VNB,A,11
12,test,1,0.0,1-Back,1.0,m,Fri Mar 27 2026 10:12:49 GMT-0500 (Central Daylight Time),393305.5,165_m_m_n_a.png,O,m,917,13,1,1943.6000001430511,391361.89999985695,7788,VNB,A,12
13,test,1,1.0,1-Back,1.0,z,Fri Mar 27 2026 10:12:49 GMT-0500 (Central Daylight Time),395537.0,071_y_f_n_a.png,O,z,1203,14,1,2224.4000000953674,393312.59999990463,7788,VNB,A,13
14,test,1,0.0,1-Back,1.0,m,Fri Mar 27 2026 10:12:49 GMT-0500 (Central Daylight Time),398068.5,139_m_f_h_a.png,O,m,1512,15,1,2523.7999999523163,395544.7000000477,7788,VNB,A,14
14,test,1,0.0,1-Back,0.0,m,Fri Mar 27 2026 10:12:49 GMT-0500 (Central Daylight Time),399919.09999990463,165_m_m_d_a.png,O,z,821,16,1,1843.3999998569489,398075.7000000477,7788,VNB,A,15
15,test,1,0.0,1-Back,1.0,m,Fri Mar 27 2026 10:12:49 GMT-0500 (Central Daylight Time),401984.39999985695,109_y_m_n_a.png,O,m,1042,17,1,2059.199999809265,399925.2000000477,7788,VNB,A,16
16,test,1,0.0,1-Back,1.0,m,Fri Mar 27 2026 10:12:49 GMT-0500 (Central Daylight Time),403967.39999985695,124_o_f_h_a.png,O,m,958,18,1,1978.3999998569489,401989.0,7788,VNB,A,17
0,test,2,0.0,1-Back,,,Fri Mar 27 2026 10:12:49 GMT-0500 (Central Daylight Time),403967.39999985695,109_y_m_n_a.png,O,space,6642,1,1,1978.3999998569489,401989.0,7788,VNB,A,0
1,test,2,0.0,1-Back,1.0,m,Fri Mar 27 2026 10:12:49 GMT-0500 (Central Daylight Time),415230.2999999523,071_y_f_h_a.png,O,m,1566,2,1,2592.7000000476837,412637.59999990463,7788,VNB,A,1
2,test,2,1.0,1-Back,1.0,m,Fri Mar 27 2026 10:12:49 GMT-0500 (Central Daylight Time),417197.7000000477,039_o_m_n_a.png,O,m,938,3,1,1959.4000000953674,415238.2999999523,7788,VNB,A,2
3,test,2,0.0,1-Back,1.0,m,Fri Mar 27 2026 10:12:49 GMT-0500 (Central Daylight Time),419047.39999985695,139_m_f_d_a.png,O,m,827,4,1,1843.0999999046326,417204.2999999523,7788,VNB,A,3
4,test,2,0.0,1-Back,1.0,z,Fri Mar 27 2026 10:12:49 GMT-0500 (Central Daylight Time),420747.7000000477,165_m_m_d_a.png,O,z,667,5,1,1695.9000000953674,419051.7999999523,7788,VNB,A,4
5,test,2,0.0,1-Back,1.0,m,Fri Mar 27 2026 10:12:49 GMT-0500 (Central Daylight Time),423063.0,109_y_m_h_a.png,O,m,1287,6,1,2308.7000000476837,420754.2999999523,7788,VNB,A,5
5,test,2,1.0,1-Back,0.0,z,Fri Mar 27 2026 10:12:49 GMT-0500 (Central Daylight Time),425110.7000000477,124_o_f_h_a.png,O,m,1028,7,1,2040.6000001430511,423070.09999990463,7788,VNB,A,6
6,test,2,0.0,1-Back,1.0,m,Fri Mar 27 2026 10:12:49 GMT-0500 (Central Daylight Time),427026.0,139_m_f_n_a.png,O,m,890,8,1,1909.7999999523163,425116.2000000477,7788,VNB,A,7
7,test,2,0.0,1-Back,1.0,m,Fri Mar 27 2026 10:12:49 GMT-0500 (Central Daylight Time),429109.39999985695,071_y_f_d_a.png,O,m,1053,9,1,2077.199999809265,427032.2000000477,7788,VNB,A,8
8,test,2,0.0,1-Back,1.0,m,Fri Mar 27 2026 10:12:49 GMT-0500 (Central Daylight Time),430959.2999999523,165_m_m_n_a.png,O,m,818,10,1,1843.5999999046326,429115.7000000477,7788,VNB,A,9
9,test,2,1.0,1-Back,1.0,m,Fri Mar 27 2026 10:12:49 GMT-0500 (Central Daylight Time),432925.5,139_m_f_h_a.png,O,m,947,11,1,1961.0,430964.5,7788,VNB,A,10
10,test,2,0.0,1-Back,1.0,z,Fri Mar 27 2026 10:12:49 GMT-0500 (Central Daylight Time),434893.5,039_o_m_h_a.png,O,z,950,12,1,1961.7999999523163,432931.7000000477,7788,VNB,A,11
11,test,2,0.0,1-Back,1.0,m,Fri Mar 27 2026 10:12:49 GMT-0500 (Central Daylight Time),437124.7999999523,109_y_m_d_a.png,O,m,1214,13,1,2224.5999999046326,434900.2000000477,7788,VNB,A,12
12,test,2,0.0,1-Back,1.0,m,Fri Mar 27 2026 10:12:49 GMT-0500 (Central Daylight Time),439291.2000000477,124_o_f_n_a.png,O,m,1150,14,1,2160.2000000476837,437131.0,7788,VNB,A,13
13,test,2,0.0,1-Back,1.0,z,Fri Mar 27 2026 10:12:49 GMT-0500 (Central Daylight Time),441388.2999999523,071_y_f_n_a.png,O,z,1079,15,1,2091.5999999046326,439296.7000000477,7788,VNB,A,14
14,test,2,1.0,1-Back,1.0,m,Fri Mar 27 2026 10:12:49 GMT-0500 (Central Daylight Time),443472.39999985695,165_m_m_h_a.png,O,m,1052,16,1,2077.7999999523163,441394.59999990463,7788,VNB,A,15
15,test,2,0.0,1-Back,1.0,m,Fri Mar 27 2026 10:12:49 GMT-0500 (Central Daylight Time),445454.59999990463,124_o_f_d_a.png,O,m,956,17,1,1975.7000000476837,443478.89999985695,7788,VNB,A,16
16,test,2,1.0,1-Back,1.0,z,Fri Mar 27 2026 10:12:49 GMT-0500 (Central Daylight Time),447420.09999990463,039_o_m_d_a.png,O,z,938,18,1,1959.7999999523163,445460.2999999523,7788,VNB,A,17
0,test,3,1.0,1-Back,,,Fri Mar 27 2026 10:12:49 GMT-0500 (Central Daylight Time),447420.09999990463,124_o_f_h_a.png,O,space,6648,1,1,1959.7999999523163,445460.2999999523,7788,VNB,A,0
1,test,3,0.0,1-Back,1.0,m,Fri Mar 27 2026 10:12:49 GMT-0500 (Central Daylight Time),458050.0,139_m_f_d_a.png,O,m,889,2,1,1907.6000001430511,456142.39999985695,7788,VNB,A,1
2,test,3,1.0,1-Back,1.0,m,Fri Mar 27 2026 10:12:49 GMT-0500 (Central Daylight Time),460199.0,165_m_m_n_a.png,O,m,1128,3,1,2142.0,458057.0,7788,VNB,A,2
3,test,3,0.0,1-Back,1.0,z,Fri Mar 27 2026 10:12:49 GMT-0500 (Central Daylight Time),462231.89999985695,124_o_f_n_a.png,O,z,1009,4,1,2029.2999999523163,460202.59999990463,7788,VNB,A,3
4,test,3,1.0,1-Back,1.0,m,Fri Mar 27 2026 10:12:49 GMT-0500 (Central Daylight Time),464131.7000000477,039_o_m_d_a.png,O,m,872,5,1,1893.9000000953674,462237.7999999523,7788,VNB,A,4
5,test,3,0.0,1-Back,1.0,m,Fri Mar 27 2026 10:12:49 GMT-0500 (Central Daylight Time),465997.5,071_y_f_h_a.png,O,m,847,6,1,1857.7999999523163,464139.7000000477,7788,VNB,A,5
6,test,3,0.0,1-Back,1.0,z,Fri Mar 27 2026 10:12:49 GMT-0500 (Central Daylight Time),467880.2999999523,109_y_m_h_a.png,O,z,850,7,1,1876.5,466003.7999999523,7788,VNB,A,6
7,test,3,0.0,1-Back,1.0,m,Fri Mar 27 2026 10:12:49 GMT-0500 (Central Daylight Time),469947.5,139_m_f_n_a.png,O,m,1049,8,1,2060.600000143051,467886.89999985695,7788,VNB,A,7
8,test,3,0.0,1-Back,1.0,m,Fri Mar 27 2026 10:12:49 GMT-0500 (Central Daylight Time),471896.09999990463,071_y_f_d_a.png,O,m,917,9,1,1944.2999999523163,469951.7999999523,7788,VNB,A,8
9,test,3,1.0,1-Back,1.0,m,Fri Mar 27 2026 10:12:49 GMT-0500 (Central Daylight Time),473812.7000000477,039_o_m_n_a.png,O,m,898,10,1,1909.4000000953674,471903.2999999523,7788,VNB,A,9
10,test,3,0.0,1-Back,1.0,m,Fri Mar 27 2026 10:12:49 GMT-0500 (Central Daylight Time),475962.5,165_m_m_h_a.png,O,m,1126,11,1,2142.7000000476837,473819.7999999523,7788,VNB,A,10
11,test,3,0.0,1-Back,1.0,z,Fri Mar 27 2026 10:12:49 GMT-0500 (Central Daylight Time),477893.5,139_m_f_h_a.png,O,z,900,12,1,1923.6000001430511,475969.89999985695,7788,VNB,A,11
12,test,3,1.0,1-Back,1.0,m,Fri Mar 27 2026 10:12:49 GMT-0500 (Central Daylight Time),479510.0,124_o_f_d_a.png,O,m,587,13,1,1609.6000001430511,477900.39999985695,7788,VNB,A,12
13,test,3,0.0,1-Back,1.0,z,Fri Mar 27 2026 10:12:49 GMT-0500 (Central Daylight Time),481710.39999985695,165_m_m_d_a.png,O,z,1170,14,1,2190.7999999523163,479519.59999990463,7788,VNB,A,13
14,test,3,0.0,1-Back,1.0,m,Fri Mar 27 2026 10:12:49 GMT-0500 (Central Daylight Time),483891.89999985695,109_y_m_n_a.png,O,m,1163,15,1,2172.199999809265,481719.7000000477,7788,VNB,A,14
15,test,3,1.0,1-Back,1.0,m,Fri Mar 27 2026 10:12:49 GMT-0500 (Central Daylight Time),485924.7999999523,039_o_m_h_a.png,O,m,1004,16,1,2026.4000000953674,483898.39999985695,7788,VNB,A,15
16,test,3,0.0,1-Back,1.0,m,Fri Mar 27 2026 10:12:49 GMT-0500 (Central Daylight Time),487840.59999990463,109_y_m_d_a.png,O,m,884,17,1,1909.5,485931.09999990463,7788,VNB,A,16
17,test,3,1.0,1-Back,1.0,m,Fri Mar 27 2026 10:12:49 GMT-0500 (Central Daylight Time),490189.7999999523,071_y_f_n_a.png,O,m,1328,18,1,2344.5999999046326,487845.2000000477,7788,VNB,A,17
0,test,4,1.0,1-Back,,,Fri Mar 27 2026 10:12:49 GMT-0500 (Central Daylight Time),490189.7999999523,165_m_m_d_a.png,O,space,2578,1,1,2344.5999999046326,487845.2000000477,7788,VNB,A,0
0,test,4,0.0,1-Back,0.0,z,Fri Mar 27 2026 10:12:49 GMT-0500 (Central Daylight Time),497020.7999999523,039_o_m_d_a.png,O,m,1210,2,1,2227.2999999523163,494793.5,7788,VNB,A,1
1,test,4,0.0,1-Back,1.0,m,Fri Mar 27 2026 10:12:49 GMT-0500 (Central Daylight Time),499536.7000000477,109_y_m_h_a.png,O,m,1483,3,1,2509.4000000953674,497027.2999999523,7788,VNB,A,2
2,test,4,0.0,1-Back,1.0,m,Fri Mar 27 2026 10:12:49 GMT-0500 (Central Daylight Time),501869.2000000477,139_m_f_n_a.png,O,m,1312,4,1,2324.600000143051,499544.59999990463,7788,VNB,A,3
3,test,4,1.0,1-Back,1.0,m,Fri Mar 27 2026 10:12:49 GMT-0500 (Central Daylight Time),503851.59999990463,124_o_f_h_a.png,O,m,954,5,1,1974.5,501877.09999990463,7788,VNB,A,4
4,test,4,0.0,1-Back,1.0,m,Fri Mar 27 2026 10:12:49 GMT-0500 (Central Daylight Time),505701.7000000477,165_m_m_n_a.png,O,m,829,6,1,1843.5,503858.2000000477,7788,VNB,A,5
5,test,4,0.0,1-Back,1.0,m,Fri Mar 27 2026 10:12:49 GMT-0500 (Central Daylight Time),507518.39999985695,109_y_m_d_a.png,O,m,788,7,1,1811.2999999523163,505707.09999990463,7788,VNB,A,6
6,test,4,1.0,1-Back,1.0,z,Fri Mar 27 2026 10:12:49 GMT-0500 (Central Daylight Time),509483.7000000477,071_y_f_d_a.png,O,z,940,8,1,1958.1000001430511,507525.59999990463,7788,VNB,A,7
7,test,4,0.0,1-Back,1.0,m,Fri Mar 27 2026 10:12:49 GMT-0500 (Central Daylight Time),511417.2000000477,139_m_f_h_a.png,O,m,910,9,1,1927.2000000476837,509490.0,7788,VNB,A,8
8,test,4,0.0,1-Back,1.0,z,Fri Mar 27 2026 10:12:49 GMT-0500 (Central Daylight Time),513365.7000000477,039_o_m_h_a.png,O,z,920,10,1,1940.6000001430511,511425.09999990463,7788,VNB,A,9
9,test,4,1.0,1-Back,1.0,m,Fri Mar 27 2026 10:12:49 GMT-0500 (Central Daylight Time),515181.7000000477,124_o_f_n_a.png,O,m,786,11,1,1809.8000001907349,513371.89999985695,7788,VNB,A,10
10,test,4,0.0,1-Back,1.0,m,Fri Mar 27 2026 10:12:49 GMT-0500 (Central Daylight Time),517181.7999999523,139_m_f_d_a.png,O,m,978,12,1,1993.2999999523163,515188.5,7788,VNB,A,11
10,test,4,0.0,1-Back,0.0,m,Fri Mar 27 2026 10:12:49 GMT-0500 (Central Daylight Time),519347.2999999523,071_y_f_n_a.png,O,z,1139,13,1,2159.2999999523163,517188.0,7788,VNB,A,12
11,test,4,0.0,1-Back,1.0,m,Fri Mar 27 2026 10:12:49 GMT-0500 (Central Daylight Time),521963.09999990463,124_o_f_d_a.png,O,m,1590,14,1,2609.7000000476837,519353.39999985695,7788,VNB,A,13
12,test,4,0.0,1-Back,1.0,m,Fri Mar 27 2026 10:12:49 GMT-0500 (Central Daylight Time),523930.39999985695,071_y_f_h_a.png,O,m,942,15,1,1964.6999998092651,521965.7000000477,7788,VNB,A,14
13,test,4,1.0,1-Back,1.0,z,Fri Mar 27 2026 10:12:49 GMT-0500 (Central Daylight Time),526011.5,165_m_m_h_a.png,O,z,1063,16,1,2074.4000000953674,523937.09999990463,7788,VNB,A,15
14,test,4,0.0,1-Back,1.0,m,Fri Mar 27 2026 10:12:49 GMT-0500 (Central Daylight Time),527863.0,039_o_m_n_a.png,O,m,820,17,1,1843.1000001430511,526019.899999857,7788,VNB,A,16
15,test,4,1.0,1-Back,1.0,z,Fri Mar 27 2026 10:12:49 GMT-0500 (Central Daylight Time),529877.899999857,109_y_m_n_a.png,O,z,986,18,1,2009.0999999046326,527868.7999999523,7788,VNB,A,17
0,test,5,1.0,1-Back,,,Fri Mar 27 2026 10:12:49 GMT-0500 (Central Daylight Time),529877.899999857,039_o_m_n_a.png,O,space,3875,1,1,2009.0999999046326,527868.7999999523,7788,VNB,A,0
1,test,5,1.0,1-Back,1.0,m,Fri Mar 27 2026 10:12:49 GMT-0500 (Central Daylight Time),537542.0999999046,124_o_f_h_a.png,O,m,744,2,1,1760.0999999046326,535782.0,7788,VNB,A,1
2,test,5,0.0,1-Back,1.0,m,Fri Mar 27 2026 10:12:49 GMT-0500 (Central Daylight Time),539458.2999999523,109_y_m_d_a.png,O,m,899,3,1,1909.7999999523163,537548.5,7788,VNB,A,2
2,test,5,0.0,1-Back,0.0,z,Fri Mar 27 2026 10:12:49 GMT-0500 (Central Daylight Time),541541.399999857,039_o_m_d_a.png,O,m,1054,4,1,2077.5999999046326,539463.7999999523,7788,VNB,A,3
3,test,5,0.0,1-Back,1.0,m,Fri Mar 27 2026 10:12:49 GMT-0500 (Central Daylight Time),543456.2000000477,139_m_f_h_a.png,O,m,894,5,1,1908.6000001430511,541547.5999999046,7788,VNB,A,4
3,test,5,0.0,1-Back,0.0,m,Fri Mar 27 2026 10:12:49 GMT-0500 (Central Daylight Time),545723.5999999046,071_y_f_n_a.png,O,z,1233,6,1,2262.5,543461.0999999046,7788,VNB,A,5
4,test,5,1.0,1-Back,1.0,z,Fri Mar 27 2026 10:12:49 GMT-0500 (Central Daylight Time),547905.7000000477,124_o_f_n_a.png,O,z,1164,7,1,2174.300000190735,545731.399999857,7788,VNB,A,6
5,test,5,0.0,1-Back,1.0,m,Fri Mar 27 2026 10:12:49 GMT-0500 (Central Daylight Time),549709.2999999523,139_m_f_d_a.png,O,m,784,8,1,1796.5,547912.7999999523,7788,VNB,A,7
6,test,5,0.0,1-Back,1.0,m,Fri Mar 27 2026 10:12:49 GMT-0500 (Central Daylight Time),551653.899999857,109_y_m_h_a.png,O,m,931,9,1,1942.0,549711.899999857,7788,VNB,A,8
7,test,5,0.0,1-Back,1.0,m,Fri Mar 27 2026 10:12:49 GMT-0500 (Central Daylight Time),554136.2000000477,071_y_f_d_a.png,O,m,1458,10,1,2475.300000190735,551660.899999857,7788,VNB,A,9
8,test,5,0.0,1-Back,1.0,m,Fri Mar 27 2026 10:12:49 GMT-0500 (Central Daylight Time),556121.0999999046,165_m_m_n_a.png,O,m,960,11,1,1977.3999998569489,554143.7000000477,7788,VNB,A,10
9,test,5,1.0,1-Back,1.0,z,Fri Mar 27 2026 10:12:49 GMT-0500 (Central Daylight Time),558135.899999857,139_m_f_n_a.png,O,z,985,12,1,2008.3999998569489,556127.5,7788,VNB,A,11
10,test,5,0.0,1-Back,1.0,m,Fri Mar 27 2026 10:12:49 GMT-0500 (Central Daylight Time),559818.0999999046,039_o_m_h_a.png,O,m,657,13,1,1675.8999998569489,558142.2000000477,7788,VNB,A,12
11,test,5,0.0,1-Back,1.0,z,Fri Mar 27 2026 10:12:49 GMT-0500 (Central Daylight Time),561818.7999999523,165_m_m_h_a.png,O,z,983,14,1,1995.2999999523163,559823.5,7788,VNB,A,13
12,test,5,1.0,1-Back,1.0,m,Fri Mar 27 2026 10:12:49 GMT-0500 (Central Daylight Time),563567.0,124_o_f_d_a.png,O,m,727,15,1,1741.7000000476837,561825.2999999523,7788,VNB,A,14
13,test,5,0.0,1-Back,1.0,m,Fri Mar 27 2026 10:12:49 GMT-0500 (Central Daylight Time),565748.7999999523,109_y_m_n_a.png,O,m,1154,16,1,2176.7000000476837,563572.0999999046,7788,VNB,A,15
14,test,5,0.0,1-Back,1.0,m,Fri Mar 27 2026 10:12:49 GMT-0500 (Central Daylight Time),567965.7000000477,071_y_f_h_a.png,O,m,1197,17,1,2211.800000190735,565753.899999857,7788,VNB,A,16
15,test,5,0.0,1-Back,1.0,m,Fri Mar 27 2026 10:12:49 GMT-0500 (Central Daylight Time),570231.7000000477,165_m_m_d_a.png,O,m,1245,18,1,2262.2000000476837,567969.5,7788,VNB,A,17
0,prac,1,0.0,2-Back,,,Fri Mar 27 2026 10:12:49 GMT-0500 (Central Daylight Time),570231.7000000477,139_m_f_n_a.png,O,space,11100,1,1,2262.2000000476837,567969.5,7788,VNB,A,0
0,prac,1,0.0,2-Back,,,Fri Mar 27 2026 10:12:49 GMT-0500 (Central Daylight Time),570231.7000000477,124_o_f_h_a.png,O,space,11100,2,1,2262.2000000476837,567969.5,7788,VNB,A,0
1,prac,1,0.0,2-Back,1.0,m,Fri Mar 27 2026 10:12:49 GMT-0500 (Central Daylight Time),737631.5,039_o_m_d_a.png,O,m,929,3,1,1710.2999999523163,735921.2000000477,7788,VNB,A,1
2,prac,1,1.0,2-Back,1.0,z,Fri Mar 27 2026 10:12:49 GMT-0500 (Central Daylight Time),739763.0999999046,165_m_m_h_a.png,O,z,1321,4,1,2122.5,737640.5999999046,7788,VNB,A,2
2,prac,1,0.0,2-Back,0.0,m,Fri Mar 27 2026 10:12:49 GMT-0500 (Central Daylight Time),741926.7999999523,071_y_f_n_a.png,O,z,1359,5,1,2154.5,739772.2999999523,7788,VNB,A,3
2,prac,1,1.0,2-Back,0.0,z,Fri Mar 27 2026 10:12:49 GMT-0500 (Central Daylight Time),744609.399999857,039_o_m_h_a.png,O,m,1875,6,1,2672.399999856949,741937.0,7788,VNB,A,4
2,prac,1,1.0,2-Back,0.0,z,Fri Mar 27 2026 10:12:49 GMT-0500 (Central Daylight Time),747291.5999999046,109_y_m_n_a.png,O,m,1879,7,1,2674.0999999046326,744617.5,7788,VNB,A,5
3,prac,1,0.0,2-Back,1.0,m,Fri Mar 27 2026 10:12:49 GMT-0500 (Central Daylight Time),749473.899999857,139_m_f_d_a.png,O,m,1395,8,1,2178.0999999046326,747295.7999999523,7788,VNB,A,6
3,prac,1,0.0,2-Back,0.0,m,Fri Mar 27 2026 10:12:49 GMT-0500 (Central Daylight Time),751809.899999857,124_o_f_d_a.png,O,z,1502,9,1,2328.199999809265,749481.7000000477,7788,VNB,A,7
3,prac,1,0.0,2-Back,0.0,m,Fri Mar 27 2026 10:12:49 GMT-0500 (Central Daylight Time),754590.2999999523,165_m_m_h_a.png,O,None,2009,10,1,2776.5999999046326,751813.7000000477,7788,VNB,A,8
3,prac,1,1.0,2-Back,0.0,z,Fri Mar 27 2026 10:12:49 GMT-0500 (Central Daylight Time),756889.399999857,071_y_f_d_a.png,O,m,1504,11,1,2290.5999999046326,754598.7999999523,7788,VNB,A,9
4,prac,1,0.0,2-Back,1.0,m,Fri Mar 27 2026 10:12:49 GMT-0500 (Central Daylight Time),759005.5,039_o_m_n_a.png,O,m,1305,12,1,2105.600000143051,756899.899999857,7788,VNB,A,10
0,prac,2,0.0,2-Back,,,Fri Mar 27 2026 10:12:49 GMT-0500 (Central Daylight Time),759005.5,139_m_f_n_a.png,O,a,14481,1,1,2105.600000143051,756899.899999857,7788,VNB,A,0
0,prac,2,0.0,2-Back,,,Fri Mar 27 2026 10:12:49 GMT-0500 (Central Daylight Time),759005.5,124_o_f_h_a.png,O,a,14481,2,1,2105.600000143051,756899.899999857,7788,VNB,A,0
1,prac,2,0.0,2-Back,1.0,m,Fri Mar 27 2026 10:12:49 GMT-0500 (Central Daylight Time),780631.899999857,039_o_m_d_a.png,O,m,1231,3,1,2026.2999999523163,778605.5999999046,7788,VNB,A,1
2,prac,2,1.0,2-Back,1.0,z,Fri Mar 27 2026 10:12:49 GMT-0500 (Central Daylight Time),782897.2999999523,165_m_m_h_a.png,O,z,1484,4,1,2259.7999999523163,780637.5,7788,VNB,A,2
3,prac,2,0.0,2-Back,1.0,m,Fri Mar 27 2026 10:12:49 GMT-0500 (Central Daylight Time),785385.2999999523,071_y_f_n_a.png,O,m,1700,5,1,2480.7999999523163,782904.5,7788,VNB,A,3
4,prac,2,1.0,2-Back,1.0,z,Fri Mar 27 2026 10:12:49 GMT-0500 (Central Daylight Time),787846.5,039_o_m_h_a.png,O,z,1654,6,1,2456.100000143051,785390.399999857,7788,VNB,A,4
4,prac,2,1.0,2-Back,0.0,z,Fri Mar 27 2026 10:12:49 GMT-0500 (Central Daylight Time),790128.5999999046,109_y_m_n_a.png,O,m,1482,7,1,2274.2999999523163,787854.2999999523,7788,VNB,A,5
5,prac,2,0.0,2-Back,1.0,m,Fri Mar 27 2026 10:12:49 GMT-0500 (Central Daylight Time),792293.7000000477,139_m_f_d_a.png,O,m,1362,8,1,2155.5,790138.2000000477,7788,VNB,A,6
5,prac,2,0.0,2-Back,0.0,m,Fri Mar 27 2026 10:12:49 GMT-0500 (Central Daylight Time),795076.5,124_o_f_d_a.png,O,z,1949,9,1,2774.4000000953674,792302.0999999046,7788,VNB,A,7
5,prac,2,0.0,2-Back,0.0,m,Fri Mar 27 2026 10:12:49 GMT-0500 (Central Daylight Time),797860.2000000477,165_m_m_h_a.png,O,None,2008,10,1,2775.600000143051,795084.5999999046,7788,VNB,A,8
5,prac,2,1.0,2-Back,0.0,z,Fri Mar 27 2026 10:12:49 GMT-0500 (Central Daylight Time),800659.7999999523,071_y_f_d_a.png,O,None,2002,11,1,2790.4000000953674,797869.399999857,7788,VNB,A,9
5,prac,2,0.0,2-Back,0.0,m,Fri Mar 27 2026 10:12:49 GMT-0500 (Central Daylight Time),803442.399999857,039_o_m_n_a.png,O,None,2005,12,1,2776.0999999046326,800666.2999999523,7788,VNB,A,10
0,prac,3,0.0,2-Back,,,Fri Mar 27 2026 10:12:49 GMT-0500 (Central Daylight Time),803442.399999857,139_m_f_n_a.png,O,a,10195,1,1,2776.0999999046326,800666.2999999523,7788,VNB,A,0
0,prac,3,0.0,2-Back,,,Fri Mar 27 2026 10:12:49 GMT-0500 (Central Daylight Time),803442.399999857,124_o_f_h_a.png,O,a,10195,2,1,2776.0999999046326,800666.2999999523,7788,VNB,A,0
1,prac,3,0.0,2-Back,1.0,m,Fri Mar 27 2026 10:12:49 GMT-0500 (Central Daylight Time),820836.399999857,039_o_m_d_a.png,O,m,1289,3,1,2079.199999809265,818757.2000000477,7788,VNB,A,1
2,prac,3,1.0,2-Back,1.0,z,Fri Mar 27 2026 10:12:49 GMT-0500 (Central Daylight Time),823485.7000000477,165_m_m_h_a.png,O,z,1858,4,1,2639.2000000476837,820846.5,7788,VNB,A,2
2,prac,3,0.0,2-Back,0.0,m,Fri Mar 27 2026 10:12:49 GMT-0500 (Central Daylight Time),826299.7000000477,071_y_f_n_a.png,O,None,2017,5,1,2804.4000000953674,823495.2999999523,7788,VNB,A,3
2,prac,3,1.0,2-Back,0.0,z,Fri Mar 27 2026 10:12:49 GMT-0500 (Central Daylight Time),828400.2000000477,039_o_m_h_a.png,O,m,1313,6,1,2093.300000190735,826306.899999857,7788,VNB,A,4
2,prac,3,1.0,2-Back,0.0,z,Fri Mar 27 2026 10:12:49 GMT-0500 (Central Daylight Time),830466.7000000477,109_y_m_n_a.png,O,m,1266,7,1,2059.0,828407.7000000477,7788,VNB,A,5
2,prac,3,0.0,2-Back,0.0,m,Fri Mar 27 2026 10:12:49 GMT-0500 (Central Daylight Time),833265.0,139_m_f_d_a.png,O,None,2014,8,1,2789.2000000476837,830475.7999999523,7788,VNB,A,6
3,prac,3,0.0,2-Back,1.0,m,Fri Mar 27 2026 10:12:49 GMT-0500 (Central Daylight Time),835515.399999857,124_o_f_d_a.png,O,m,1433,9,1,2242.5,833272.899999857,7788,VNB,A,7
3,prac,3,0.0,2-Back,0.0,m,Fri Mar 27 2026 10:12:49 GMT-0500 (Central Daylight Time),838295.7000000477,165_m_m_h_a.png,O,None,2007,10,1,2772.100000143051,835523.5999999046,7788,VNB,A,8
3,prac,3,1.0,2-Back,0.0,z,Fri Mar 27 2026 10:12:49 GMT-0500 (Central Daylight Time),841094.899999857,071_y_f_d_a.png,O,None,2005,11,1,2793.0,838301.899999857,7788,VNB,A,9
3,prac,3,0.0,2-Back,0.0,m,Fri Mar 27 2026 10:12:49 GMT-0500 (Central Daylight Time),843893.7999999523,039_o_m_n_a.png,O,None,2006,12,1,2791.4000000953674,841102.399999857,7788,VNB,A,10
0,prac,4,0.0,2-Back,,,Fri Mar 27 2026 10:12:49 GMT-0500 (Central Daylight Time),843893.7999999523,139_m_f_n_a.png,O,a,14761,1,1,2791.4000000953674,841102.399999857,7788,VNB,A,0
0,prac,4,0.0,2-Back,,,Fri Mar 27 2026 10:12:49 GMT-0500 (Central Daylight Time),843893.7999999523,124_o_f_h_a.png,O,a,14761,2,1,2791.4000000953674,841102.399999857,7788,VNB,A,0
1,prac,4,0.0,2-Back,1.0,m,Fri Mar 27 2026 10:12:49 GMT-0500 (Central Daylight Time),866004.399999857,039_o_m_d_a.png,O,m,1411,3,1,2208.7999999523163,863795.5999999046,7788,VNB,A,1
1,prac,4,1.0,2-Back,0.0,z,Fri Mar 27 2026 10:12:49 GMT-0500 (Central Daylight Time),868237.899999857,165_m_m_h_a.png,O,m,1457,4,1,2225.2999999523163,866012.5999999046,7788,VNB,A,2
1,prac,4,0.0,2-Back,0.0,m,Fri Mar 27 2026 10:12:49 GMT-0500 (Central Daylight Time),871053.5,071_y_f_n_a.png,O,None,2015,5,1,2805.2999999523163,868248.2000000477,7788,VNB,A,3
1,prac,4,1.0,2-Back,0.0,z,Fri Mar 27 2026 10:12:49 GMT-0500 (Central Daylight Time),873867.5999999046,039_o_m_h_a.png,O,None,2015,6,1,2804.7000000476837,871062.899999857,7788,VNB,A,4
1,prac,4,1.0,2-Back,0.0,z,Fri Mar 27 2026 10:12:49 GMT-0500 (Central Daylight Time),876684.399999857,109_y_m_n_a.png,O,None,2017,7,1,2808.199999809265,873876.2000000477,7788,VNB,A,5
2,prac,4,0.0,2-Back,1.0,m,Fri Mar 27 2026 10:12:49 GMT-0500 (Central Daylight Time),878567.399999857,139_m_f_d_a.png,O,m,1068,8,1,1876.6999998092651,876690.7000000477,7788,VNB,A,6
3,prac,4,0.0,2-Back,1.0,m,Fri Mar 27 2026 10:12:49 GMT-0500 (Central Daylight Time),880933.0,124_o_f_d_a.png,O,m,1539,9,1,2357.600000143051,878575.399999857,7788,VNB,A,7
3,prac,4,0.0,2-Back,0.0,m,Fri Mar 27 2026 10:12:49 GMT-0500 (Central Daylight Time),882981.899999857,165_m_m_h_a.png,O,z,1261,10,1,2041.5,880940.399999857,7788,VNB,A,8
3,prac,4,1.0,2-Back,0.0,z,Fri Mar 27 2026 10:12:49 GMT-0500 (Central Daylight Time),884881.899999857,071_y_f_d_a.png,O,m,1120,11,1,1893.0,882988.899999857,7788,VNB,A,9
4,prac,4,0.0,2-Back,1.0,m,Fri Mar 27 2026 10:12:49 GMT-0500 (Central Daylight Time),887064.399999857,039_o_m_n_a.png,O,m,1375,12,1,2172.199999809265,884892.2000000477,7788,VNB,A,10
0,prac,5,0.0,2-Back,,,Fri Mar 27 2026 10:12:49 GMT-0500 (Central Daylight Time),887064.399999857,139_m_f_n_a.png,O,a,5093,1,1,2172.199999809265,884892.2000000477,7788,VNB,A,0
0,prac,5,0.0,2-Back,,,Fri Mar 27 2026 10:12:49 GMT-0500 (Central Daylight Time),887064.399999857,124_o_f_h_a.png,O,a,5093,2,1,2172.199999809265,884892.2000000477,7788,VNB,A,0
1,prac,5,0.0,2-Back,1.0,m,Fri Mar 27 2026 10:12:49 GMT-0500 (Central Daylight Time),898944.399999857,039_o_m_d_a.png,O,m,871,3,1,1674.6999998092651,897269.7000000477,7788,VNB,A,1
1,prac,5,1.0,2-Back,0.0,z,Fri Mar 27 2026 10:12:49 GMT-0500 (Central Daylight Time),901192.5,165_m_m_h_a.png,O,m,1475,4,1,2241.100000143051,898951.399999857,7788,VNB,A,2
2,prac,5,0.0,2-Back,1.0,m,Fri Mar 27 2026 10:12:49 GMT-0500 (Central Daylight Time),903726.0999999046,071_y_f_n_a.png,O,m,1723,5,1,2526.2000000476837,901199.899999857,7788,VNB,A,3
3,prac,5,1.0,2-Back,1.0,z,Fri Mar 27 2026 10:12:49 GMT-0500 (Central Daylight Time),905759.2999999523,039_o_m_h_a.png,O,z,1239,6,1,2023.5999999046326,903735.7000000477,7788,VNB,A,4
3,prac,5,1.0,2-Back,0.0,z,Fri Mar 27 2026 10:12:49 GMT-0500 (Central Daylight Time),907807.7000000477,109_y_m_n_a.png,O,m,1231,7,1,2040.2000000476837,905767.5,7788,VNB,A,5
4,prac,5,0.0,2-Back,1.0,m,Fri Mar 27 2026 10:12:49 GMT-0500 (Central Daylight Time),909939.2000000477,139_m_f_d_a.png,O,m,1319,8,1,2121.300000190735,907817.899999857,7788,VNB,A,6
4,prac,5,0.0,2-Back,0.0,m,Fri Mar 27 2026 10:12:49 GMT-0500 (Central Daylight Time),912005.899999857,124_o_f_d_a.png,O,z,1244,9,1,2062.399999856949,909943.5,7788,VNB,A,7
5,prac,5,0.0,2-Back,1.0,m,Fri Mar 27 2026 10:12:49 GMT-0500 (Central Daylight Time),914139.2000000477,165_m_m_h_a.png,O,m,1361,10,1,2122.300000190735,912016.899999857,7788,VNB,A,8
6,prac,5,1.0,2-Back,1.0,z,Fri Mar 27 2026 10:12:49 GMT-0500 (Central Daylight Time),916239.0999999046,071_y_f_d_a.png,O,z,1291,11,1,2092.5,914146.5999999046,7788,VNB,A,9
7,prac,5,0.0,2-Back,1.0,m,Fri Mar 27 2026 10:12:49 GMT-0500 (Central Daylight Time),918004.5999999046,039_o_m_n_a.png,O,m,982,12,1,1756.3999998569489,916248.2000000477,7788,VNB,A,10
0,test,1,0.0,2-Back,,,Fri Mar 27 2026 10:12:49 GMT-0500 (Central Daylight Time),918004.5999999046,109_y_m_h_a.png,O,space,8902,1,1,1756.3999998569489,916248.2000000477,7788,VNB,A,0
0,test,1,0.0,2-Back,,,Fri Mar 27 2026 10:12:49 GMT-0500 (Central Daylight Time),918004.5999999046,124_o_f_n_a.png,O,space,8902,2,1,1756.3999998569489,916248.2000000477,7788,VNB,A,0
1,test,1,0.0,2-Back,1.0,z,Fri Mar 27 2026 10:12:49 GMT-0500 (Central Daylight Time),964023.0999999046,039_o_m_h_a.png,O,z,1519,3,1,2541.2999999523163,961481.7999999523,7788,VNB,A,1
1,test,1,0.0,2-Back,0.0,m,Fri Mar 27 2026 10:12:49 GMT-0500 (Central Daylight Time),966788.5,139_m_f_d_a.png,O,z,1748,4,1,2761.9000000953674,964026.5999999046,7788,VNB,A,2
2,test,1,1.0,2-Back,1.0,m,Fri Mar 27 2026 10:12:49 GMT-0500 (Central Daylight Time),969070.5999999046,109_y_m_n_a.png,O,m,1253,5,1,2277.0,966793.5999999046,7788,VNB,A,3
2,test,1,0.0,2-Back,0.0,z,Fri Mar 27 2026 10:12:49 GMT-0500 (Central Daylight Time),972103.7000000477,071_y_f_d_a.png,O,None,2015,6,1,3023.600000143051,969080.0999999046,7788,VNB,A,4
3,test,1,0.0,2-Back,1.0,m,Fri Mar 27 2026 10:12:49 GMT-0500 (Central Daylight Time),974635.7000000477,165_m_m_h_a.png,O,m,1505,7,1,2523.4000000953674,972112.2999999523,7788,VNB,A,5
4,test,1,1.0,2-Back,1.0,m,Fri Mar 27 2026 10:12:49 GMT-0500 (Central Daylight Time),976934.7999999523,071_y_f_n_a.png,O,m,1269,8,1,2289.2000000476837,974645.5999999046,7788,VNB,A,6
4,test,1,0.0,2-Back,0.0,z,Fri Mar 27 2026 10:12:49 GMT-0500 (Central Daylight Time),979351.399999857,124_o_f_h_a.png,O,m,1395,9,1,2408.0,976943.399999857,7788,VNB,A,7
5,test,1,0.0,2-Back,1.0,m,Fri Mar 27 2026 10:12:49 GMT-0500 (Central Daylight Time),981599.5,039_o_m_d_a.png,O,m,1225,10,1,2241.7999999523163,979357.7000000477,7788,VNB,A,8
6,test,1,1.0,2-Back,1.0,m,Fri Mar 27 2026 10:12:49 GMT-0500 (Central Daylight Time),983999.399999857,165_m_m_d_a.png,O,m,1368,11,1,2394.899999856949,981604.5,7788,VNB,A,9
7,test,1,0.0,2-Back,1.0,m,Fri Mar 27 2026 10:12:49 GMT-0500 (Central Daylight Time),986315.5999999046,139_m_f_n_a.png,O,m,1298,12,1,2309.899999856949,984005.7000000477,7788,VNB,A,10
7,test,1,0.0,2-Back,0.0,m,Fri Mar 27 2026 10:12:49 GMT-0500 (Central Daylight Time),988264.2999999523,071_y_f_h_a.png,O,z,925,13,1,1944.4000000953674,986319.899999857,7788,VNB,A,11
7,test,1,0.0,2-Back,0.0,z,Fri Mar 27 2026 10:12:49 GMT-0500 (Central Daylight Time),991298.2000000477,165_m_m_n_a.png,O,None,2016,14,1,3026.9000000953674,988271.2999999523,7788,VNB,A,12
8,test,1,0.0,2-Back,1.0,m,Fri Mar 27 2026 10:12:49 GMT-0500 (Central Daylight Time),993596.399999857,109_y_m_d_a.png,O,m,1270,15,1,2292.5,991303.899999857,7788,VNB,A,13
8,test,1,1.0,2-Back,0.0,m,Fri Mar 27 2026 10:12:49 GMT-0500 (Central Daylight Time),995930.0,139_m_f_h_a.png,O,z,1301,16,1,2327.0,993603.0,7788,VNB,A,14
8,test,1,0.0,2-Back,0.0,z,Fri Mar 27 2026 10:12:49 GMT-0500 (Central Daylight Time),998128.2999999523,124_o_f_d_a.png,O,m,1175,17,1,2192.0999999046326,995936.2000000477,7788,VNB,A,15
9,test,1,0.0,2-Back,1.0,m,Fri Mar 27 2026 10:12:49 GMT-0500 (Central Daylight Time),1000345.399999857,039_o_m_n_a.png,O,m,1184,18,1,2211.0,998134.399999857,7788,VNB,A,16
0,test,2,0.0,2-Back,,,Fri Mar 27 2026 10:12:49 GMT-0500 (Central Daylight Time),1000345.399999857,165_m_m_h_a.png,O,space,7729,1,1,2211.0,998134.399999857,7788,VNB,A,0
0,test,2,0.0,2-Back,,,Fri Mar 27 2026 10:12:49 GMT-0500 (Central Daylight Time),1000345.399999857,071_y_f_n_a.png,O,space,7729,2,1,2211.0,998134.399999857,7788,VNB,A,0
1,test,2,1.0,2-Back,1.0,z,Fri Mar 27 2026 10:12:49 GMT-0500 (Central Daylight Time),1015371.7999999523,124_o_f_h_a.png,O,z,1188,3,1,2209.2999999523163,1013162.5,7788,VNB,A,1
2,test,2,0.0,2-Back,1.0,m,Fri Mar 27 2026 10:12:49 GMT-0500 (Central Daylight Time),1017507.7999999523,039_o_m_d_a.png,O,m,1118,4,1,2131.4000000953674,1015376.399999857,7788,VNB,A,2
2,test,2,0.0,2-Back,0.0,m,Fri Mar 27 2026 10:12:49 GMT-0500 (Central Daylight Time),1020538.2999999523,139_m_f_d_a.png,O,None,2014,5,1,3023.0999999046326,1017515.2000000477,7788,VNB,A,3
3,test,2,0.0,2-Back,1.0,m,Fri Mar 27 2026 10:12:49 GMT-0500 (Central Daylight Time),1022822.0999999046,109_y_m_h_a.png,O,m,1267,6,1,2277.0999999046326,1020545.0,7788,VNB,A,4
4,test,2,0.0,2-Back,1.0,m,Fri Mar 27 2026 10:12:49 GMT-0500 (Central Daylight Time),1025005.0,124_o_f_n_a.png,O,m,1168,7,1,2175.4000000953674,1022829.5999999046,7788,VNB,A,5
5,test,2,1.0,2-Back,1.0,z,Fri Mar 27 2026 10:12:49 GMT-0500 (Central Daylight Time),1027037.2000000477,039_o_m_h_a.png,O,z,1014,8,1,2025.7000000476837,1025011.5,7788,VNB,A,6
6,test,2,0.0,2-Back,1.0,m,Fri Mar 27 2026 10:12:49 GMT-0500 (Central Daylight Time),1029152.399999857,071_y_f_d_a.png,O,m,1086,9,1,2111.0999999046326,1027041.2999999523,7788,VNB,A,7
7,test,2,0.0,2-Back,1.0,m,Fri Mar 27 2026 10:12:49 GMT-0500 (Central Daylight Time),1031335.2000000477,109_y_m_d_a.png,O,m,1160,10,1,2175.600000143051,1029159.5999999046,7788,VNB,A,8
8,test,2,0.0,2-Back,1.0,m,Fri Mar 27 2026 10:12:49 GMT-0500 (Central Daylight Time),1033634.0,165_m_m_n_a.png,O,m,1275,11,1,2293.4000000953674,1031340.5999999046,7788,VNB,A,9
9,test,2,0.0,2-Back,1.0,m,Fri Mar 27 2026 10:12:49 GMT-0500 (Central Daylight Time),1035650.0999999046,139_m_f_h_a.png,O,m,992,12,1,2010.5,1033639.5999999046,7788,VNB,A,10
10,test,2,1.0,2-Back,1.0,z,Fri Mar 27 2026 10:12:49 GMT-0500 (Central Daylight Time),1038082.399999857,039_o_m_n_a.png,O,z,1407,13,1,2425.399999856949,1035657.0,7788,VNB,A,11
11,test,2,0.0,2-Back,1.0,m,Fri Mar 27 2026 10:12:49 GMT-0500 (Central Daylight Time),1040148.7999999523,124_o_f_d_a.png,O,m,1033,14,1,2060.2000000476837,1038088.5999999046,7788,VNB,A,12
11,test,2,0.0,2-Back,0.0,m,Fri Mar 27 2026 10:12:49 GMT-0500 (Central Daylight Time),1042198.0,071_y_f_h_a.png,O,z,1031,15,1,2043.6000001430511,1040154.399999857,7788,VNB,A,13
11,test,2,0.0,2-Back,0.0,z,Fri Mar 27 2026 10:12:49 GMT-0500 (Central Daylight Time),1044097.2999999523,165_m_m_d_a.png,O,m,868,16,1,1894.0,1042203.2999999523,7788,VNB,A,14
11,test,2,0.0,2-Back,0.0,m,Fri Mar 27 2026 10:12:49 GMT-0500 (Central Daylight Time),1046079.5999999046,109_y_m_n_a.png,O,z,962,17,1,1974.7000000476837,1044104.899999857,7788,VNB,A,15
12,test,2,1.0,2-Back,1.0,m,Fri Mar 27 2026 10:12:49 GMT-0500 (Central Daylight Time),1047546.2999999523,139_m_f_n_a.png,O,m,442,18,1,1462.0,1046084.2999999523,7788,VNB,A,16
0,test,3,1.0,2-Back,,,Fri Mar 27 2026 10:12:49 GMT-0500 (Central Daylight Time),1047546.2999999523,039_o_m_n_a.png,O,space,5038,1,1,1462.0,1046084.2999999523,7788,VNB,A,0
0,test,3,1.0,2-Back,,,Fri Mar 27 2026 10:12:49 GMT-0500 (Central Daylight Time),1047546.2999999523,124_o_f_d_a.png,O,space,5038,2,1,1462.0,1046084.2999999523,7788,VNB,A,0
1,test,3,0.0,2-Back,1.0,m,Fri Mar 27 2026 10:12:49 GMT-0500 (Central Daylight Time),1059525.7000000477,071_y_f_h_a.png,O,m,866,3,1,1893.7000000476837,1057632.0,7788,VNB,A,1
2,test,3,0.0,2-Back,1.0,z,Fri Mar 27 2026 10:12:49 GMT-0500 (Central Daylight Time),1062308.2000000477,139_m_f_d_a.png,O,z,1756,4,1,2779.5,1059528.7000000477,7788,VNB,A,2
3,test,3,1.0,2-Back,1.0,m,Fri Mar 27 2026 10:12:49 GMT-0500 (Central Daylight Time),1064875.2000000477,109_y_m_n_a.png,O,m,1534,5,1,2559.300000190735,1062315.899999857,7788,VNB,A,3
4,test,3,0.0,2-Back,1.0,m,Fri Mar 27 2026 10:12:49 GMT-0500 (Central Daylight Time),1067221.899999857,039_o_m_h_a.png,O,m,1328,6,1,2339.899999856949,1064882.0,7788,VNB,A,4
5,test,3,0.0,2-Back,1.0,z,Fri Mar 27 2026 10:12:49 GMT-0500 (Central Daylight Time),1069505.0,071_y_f_n_a.png,O,z,1257,7,1,2275.2999999523163,1067229.7000000477,7788,VNB,A,5
6,test,3,1.0,2-Back,1.0,m,Fri Mar 27 2026 10:12:49 GMT-0500 (Central Daylight Time),1071755.0,165_m_m_d_a.png,O,m,1231,8,1,2247.2000000476837,1069507.7999999523,7788,VNB,A,6
7,test,3,0.0,2-Back,1.0,m,Fri Mar 27 2026 10:12:49 GMT-0500 (Central Daylight Time),1073954.7000000477,109_y_m_d_a.png,O,m,1175,9,1,2193.300000190735,1071761.399999857,7788,VNB,A,7
7,test,3,0.0,2-Back,0.0,m,Fri Mar 27 2026 10:12:49 GMT-0500 (Central Daylight Time),1076122.2000000477,124_o_f_h_a.png,O,z,1145,10,1,2162.100000143051,1073960.0999999046,7788,VNB,A,8
8,test,3,1.0,2-Back,1.0,m,Fri Mar 27 2026 10:12:49 GMT-0500 (Central Daylight Time),1078636.2999999523,139_m_f_n_a.png,O,m,1490,11,1,2509.5999999046326,1076126.7000000477,7788,VNB,A,9
8,test,3,1.0,2-Back,0.0,z,Fri Mar 27 2026 10:12:49 GMT-0500 (Central Daylight Time),1081003.399999857,165_m_m_h_a.png,O,m,1349,12,1,2361.0,1078642.399999857,7788,VNB,A,10
9,test,3,0.0,2-Back,1.0,m,Fri Mar 27 2026 10:12:49 GMT-0500 (Central Daylight Time),1083218.399999857,071_y_f_d_a.png,O,m,1199,13,1,2208.7999999523163,1081009.5999999046,7788,VNB,A,11
9,test,3,0.0,2-Back,0.0,m,Fri Mar 27 2026 10:12:49 GMT-0500 (Central Daylight Time),1085367.0,124_o_f_n_a.png,O,z,1126,14,1,2142.9000000953674,1083224.0999999046,7788,VNB,A,12
9,test,3,0.0,2-Back,0.0,z,Fri Mar 27 2026 10:12:49 GMT-0500 (Central Daylight Time),1087683.0,039_o_m_d_a.png,O,m,1290,15,1,2308.5,1085374.5,7788,VNB,A,13
9,test,3,1.0,2-Back,0.0,m,Fri Mar 27 2026 10:12:49 GMT-0500 (Central Daylight Time),1089715.399999857,139_m_f_h_a.png,O,z,999,16,1,2027.6999998092651,1087687.7000000477,7788,VNB,A,14
10,test,3,0.0,2-Back,1.0,m,Fri Mar 27 2026 10:12:49 GMT-0500 (Central Daylight Time),1091718.5,165_m_m_n_a.png,O,m,972,17,1,1999.6000001430511,1089718.899999857,7788,VNB,A,15
10,test,3,0.0,2-Back,0.0,z,Fri Mar 27 2026 10:12:49 GMT-0500 (Central Daylight Time),1093614.899999857,109_y_m_h_a.png,O,m,872,18,1,1891.2999999523163,1091723.5999999046,7788,VNB,A,16
0,test,4,0.0,2-Back,,,Fri Mar 27 2026 10:12:49 GMT-0500 (Central Daylight Time),1093614.899999857,139_m_f_n_a.png,O,space,4306,1,1,1891.2999999523163,1091723.5999999046,7788,VNB,A,0
0,test,4,0.0,2-Back,,,Fri Mar 27 2026 10:12:49 GMT-0500 (Central Daylight Time),1093614.899999857,039_o_m_n_a.png,O,space,4306,2,1,1891.2999999523163,1091723.5999999046,7788,VNB,A,0
1,test,4,1.0,2-Back,1.0,m,Fri Mar 27 2026 10:12:49 GMT-0500 (Central Daylight Time),1105229.2000000477,109_y_m_h_a.png,O,m,1205,3,1,2226.800000190735,1103002.399999857,7788,VNB,A,1
2,test,4,1.0,2-Back,1.0,m,Fri Mar 27 2026 10:12:49 GMT-0500 (Central Daylight Time),1107277.5,124_o_f_d_a.png,O,m,1022,4,1,2040.0,1105237.5,7788,VNB,A,2
3,test,4,0.0,2-Back,1.0,z,Fri Mar 27 2026 10:12:49 GMT-0500 (Central Daylight Time),1109542.2999999523,039_o_m_h_a.png,O,z,1244,5,1,2258.5,1107283.7999999523,7788,VNB,A,3
4,test,4,0.0,2-Back,1.0,m,Fri Mar 27 2026 10:12:49 GMT-0500 (Central Daylight Time),1112108.2999999523,165_m_m_n_a.png,O,m,1546,6,1,2559.5,1109548.7999999523,7788,VNB,A,4
5,test,4,0.0,2-Back,1.0,m,Fri Mar 27 2026 10:12:49 GMT-0500 (Central Daylight Time),1114259.399999857,139_m_f_d_a.png,O,m,1133,7,1,2142.199999809265,1112117.2000000477,7788,VNB,A,5
6,test,4,0.0,2-Back,1.0,z,Fri Mar 27 2026 10:12:49 GMT-0500 (Central Daylight Time),1116307.2000000477,071_y_f_n_a.png,O,z,1024,8,1,2039.3000001907349,1114267.899999857,7788,VNB,A,6
7,test,4,1.0,2-Back,1.0,m,Fri Mar 27 2026 10:12:49 GMT-0500 (Central Daylight Time),1118691.7999999523,124_o_f_h_a.png,O,m,1367,9,1,2377.0999999046326,1116314.7000000477,7788,VNB,A,7
8,test,4,0.0,2-Back,1.0,m,Fri Mar 27 2026 10:12:49 GMT-0500 (Central Daylight Time),1121222.7999999523,165_m_m_h_a.png,O,m,1503,10,1,2525.5999999046326,1118697.2000000477,7788,VNB,A,8
9,test,4,0.0,2-Back,1.0,m,Fri Mar 27 2026 10:12:49 GMT-0500 (Central Daylight Time),1123438.7000000477,071_y_f_d_a.png,O,m,1186,11,1,2209.800000190735,1121228.899999857,7788,VNB,A,9
10,test,4,0.0,2-Back,1.0,m,Fri Mar 27 2026 10:12:49 GMT-0500 (Central Daylight Time),1125305.0999999046,109_y_m_n_a.png,O,m,834,12,1,1862.3999998569489,1123442.7000000477,7788,VNB,A,10
10,test,4,0.0,2-Back,0.0,z,Fri Mar 27 2026 10:12:49 GMT-0500 (Central Daylight Time),1127421.5,039_o_m_d_a.png,O,m,1089,13,1,2110.9000000953674,1125310.5999999046,7788,VNB,A,11
10,test,4,1.0,2-Back,0.0,m,Fri Mar 27 2026 10:12:49 GMT-0500 (Central Daylight Time),1129686.2000000477,139_m_f_h_a.png,O,z,1244,14,1,2260.100000143051,1127426.0999999046,7788,VNB,A,12
11,test,4,1.0,2-Back,1.0,m,Fri Mar 27 2026 10:12:49 GMT-0500 (Central Daylight Time),1132136.2999999523,071_y_f_h_a.png,O,m,1427,15,1,2444.0999999046326,1129692.2000000477,7788,VNB,A,13
12,test,4,0.0,2-Back,1.0,m,Fri Mar 27 2026 10:12:49 GMT-0500 (Central Daylight Time),1134652.0999999046,124_o_f_n_a.png,O,m,1489,16,1,2509.5,1132142.5999999046,7788,VNB,A,14
13,test,4,0.0,2-Back,1.0,m,Fri Mar 27 2026 10:12:49 GMT-0500 (Central Daylight Time),1136971.2999999523,109_y_m_d_a.png,O,m,1302,17,1,2312.7999999523163,1134658.5,7788,VNB,A,15
14,test,4,1.0,2-Back,1.0,m,Fri Mar 27 2026 10:12:49 GMT-0500 (Central Daylight Time),1139085.0,165_m_m_d_a.png,O,m,1095,18,1,2108.100000143051,1136976.899999857,7788,VNB,A,16
0,test,5,1.0,2-Back,,,Fri Mar 27 2026 10:12:49 GMT-0500 (Central Daylight Time),1139085.0,071_y_f_d_a.png,O,space,6230,1,1,2108.100000143051,1136976.899999857,7788,VNB,A,0
0,test,5,1.0,2-Back,,,Fri Mar 27 2026 10:12:49 GMT-0500 (Central Daylight Time),1139085.0,124_o_f_h_a.png,O,space,6230,2,1,2108.100000143051,1136976.899999857,7788,VNB,A,0
1,test,5,1.0,2-Back,1.0,z,Fri Mar 27 2026 10:12:49 GMT-0500 (Central Daylight Time),1152695.2000000477,039_o_m_d_a.png,O,z,1260,3,1,2274.100000143051,1150421.0999999046,7788,VNB,A,1
2,test,5,1.0,2-Back,1.0,m,Fri Mar 27 2026 10:12:49 GMT-0500 (Central Daylight Time),1154828.5,139_m_f_n_a.png,O,m,1111,4,1,2128.4000000953674,1152700.0999999046,7788,VNB,A,2
3,test,5,0.0,2-Back,1.0,m,Fri Mar 27 2026 10:12:49 GMT-0500 (Central Daylight Time),1157544.399999857,165_m_m_h_a.png,O,m,1693,5,1,2709.5999999046326,1154834.7999999523,7788,VNB,A,3
3,test,5,0.0,2-Back,0.0,z,Fri Mar 27 2026 10:12:49 GMT-0500 (Central Daylight Time),1159660.399999857,071_y_f_n_a.png,O,m,1099,6,1,2109.899999856949,1157550.5,7788,VNB,A,4
3,test,5,0.0,2-Back,0.0,m,Fri Mar 27 2026 10:12:49 GMT-0500 (Central Daylight Time),1161675.899999857,124_o_f_d_a.png,O,z,997,7,1,2009.6999998092651,1159666.2000000477,7788,VNB,A,5
4,test,5,0.0,2-Back,1.0,m,Fri Mar 27 2026 10:12:49 GMT-0500 (Central Daylight Time),1163843.399999857,039_o_m_h_a.png,O,m,1140,8,1,2162.2999999523163,1161681.0999999046,7788,VNB,A,6
5,test,5,1.0,2-Back,1.0,z,Fri Mar 27 2026 10:12:49 GMT-0500 (Central Daylight Time),1166042.7000000477,139_m_f_d_a.png,O,z,1175,9,1,2193.7000000476837,1163849.0,7788,VNB,A,7
6,test,5,0.0,2-Back,1.0,m,Fri Mar 27 2026 10:12:49 GMT-0500 (Central Daylight Time),1168306.7999999523,109_y_m_n_a.png,O,m,1239,10,1,2257.7999999523163,1166049.0,7788,VNB,A,8
7,test,5,0.0,2-Back,1.0,m,Fri Mar 27 2026 10:12:49 GMT-0500 (Central Daylight Time),1170674.2000000477,165_m_m_n_a.png,O,m,1341,11,1,2363.5,1168310.7000000477,7788,VNB,A,9
8,test,5,0.0,2-Back,1.0,m,Fri Mar 27 2026 10:12:49 GMT-0500 (Central Daylight Time),1172822.5,071_y_f_h_a.png,O,m,1127,12,1,2141.9000000953674,1170680.5999999046,7788,VNB,A,10
8,test,5,0.0,2-Back,0.0,m,Fri Mar 27 2026 10:12:49 GMT-0500 (Central Daylight Time),1174838.7000000477,109_y_m_d_a.png,O,z,987,13,1,2009.1000001430511,1172829.5999999046,7788,VNB,A,11
9,test,5,1.0,2-Back,1.0,z,Fri Mar 27 2026 10:12:49 GMT-0500 (Central Daylight Time),1177256.399999857,139_m_f_h_a.png,O,z,1385,14,1,2412.0,1174844.399999857,7788,VNB,A,12
10,test,5,0.0,2-Back,1.0,m,Fri Mar 27 2026 10:12:49 GMT-0500 (Central Daylight Time),1178819.7000000477,039_o_m_n_a.png,O,m,546,15,1,1556.3000001907349,1177263.399999857,7788,VNB,A,13
11,test,5,0.0,2-Back,1.0,m,Fri Mar 27 2026 10:12:49 GMT-0500 (Central Daylight Time),1180970.0999999046,165_m_m_d_a.png,O,m,1125,16,1,2147.7000000476837,1178822.399999857,7788,VNB,A,14
11,test,5,0.0,2-Back,0.0,z,Fri Mar 27 2026 10:12:49 GMT-0500 (Central Daylight Time),1183253.0,124_o_f_n_a.png,O,m,1254,17,1,2276.100000143051,1180976.899999857,7788,VNB,A,15
12,test,5,1.0,2-Back,1.0,m,Fri Mar 27 2026 10:12:49 GMT-0500 (Central Daylight Time),1185452.899999857,109_y_m_h_a.png,O,m,1174,18,1,2192.199999809265,1183260.7000000477,7788,VNB,A,16
