acc_sum,block,block_c,condition,correct,correct_response,datetime,endtime,flanker,jitter,project,response,response_test_buffer_response,response_test_target_response,response_time,response_time_test_buffer_response,response_time_test_target_response,row_sel,session_number,start_end,starttime,subject_id,target,task,task_vers,time_test_buffer,time_test_buffer_response,time_test_constants,time_test_flanker,time_test_jitter,time_test_logger,time_test_target,time_test_target_response,time_test_variables,trial
0,prac,1,con,0,z,Wed Dec 03 2025 15:26:51 GMT-0600 (Central Standard Time),149791.30000001192,banana,800,I,None,,,1802,,,1,1,4859.800000011921,144931.5,7250,banana,NF,C,,,,,,,,,,1
0,prac,1,inc,0,m,Wed Dec 03 2025 15:26:51 GMT-0600 (Central Standard Time),154956.69999998808,raisin,1100,I,None,,,1800,,,12,1,5157.299999982119,149799.40000000596,7250,cobalt,NF,C,,,,,,,,,,2
0,prac,1,inc,0,m,Wed Dec 03 2025 15:26:51 GMT-0600 (Central Standard Time),160138.19999998808,plum,1100,I,None,,,1801,,,16,1,5176.799999982119,154961.40000000596,7250,lead,NF,C,,,,,,,,,,3
1,prac,1,inc,1,z,Wed Dec 03 2025 15:26:51 GMT-0600 (Central Standard Time),163786.90000000596,copper,900,I,z,,,1443,,,2,1,3643.2000000178814,160143.69999998808,7250,cherry,NF,C,,,,,,,,,,4
2,prac,1,con,1,m,Wed Dec 03 2025 15:26:51 GMT-0600 (Central Standard Time),166902.40000000596,zinc,1000,I,m,,,802,,,15,1,3109.9000000059605,163792.5,7250,zinc,NF,C,,,,,,,,,,5
3,prac,1,con,1,m,Wed Dec 03 2025 15:26:51 GMT-0600 (Central Standard Time),169918.40000000596,bronze,800,I,m,,,903,,,9,1,3010.4000000059605,166908.0,7250,bronze,NF,C,,,,,,,,,,6
4,prac,1,inc,1,z,Wed Dec 03 2025 15:26:51 GMT-0600 (Central Standard Time),172699.30000001192,iron,900,I,z,,,580,,,6,1,2774.300000011921,169925.0,7250,pear,NF,C,,,,,,,,,,7
5,prac,1,inc,1,z,Wed Dec 03 2025 15:26:51 GMT-0600 (Central Standard Time),175715.90000000596,lead,1100,I,z,,,605,,,8,1,3013.300000011921,172702.59999999404,7250,plum,NF,C,,,,,,,,,,8
6,prac,1,con,1,z,Wed Dec 03 2025 15:26:51 GMT-0600 (Central Standard Time),178964.59999999404,lime,800,I,z,,,1139,,,5,1,3245.199999988079,175719.40000000596,7250,lime,NF,C,,,,,,,,,,9
7,prac,1,inc,1,m,Wed Dec 03 2025 15:26:51 GMT-0600 (Central Standard Time),181597.19999998808,pear,900,I,m,,,421,,,14,1,2628.899999976158,178968.30000001192,7250,iron,NF,C,,,,,,,,,,10
7,prac,1,con,0,m,Wed Dec 03 2025 15:26:51 GMT-0600 (Central Standard Time),184480.40000000596,gold,800,I,z,,,769,,,13,1,2879.4000000059605,181601.0,7250,gold,NF,C,,,,,,,,,,11
8,prac,1,con,1,m,Wed Dec 03 2025 15:26:51 GMT-0600 (Central Standard Time),187978.69999998808,silver,1000,I,m,,,1189,,,11,1,3495.0999999940395,184483.59999999404,7250,silver,NF,C,,,,,,,,,,12
9,prac,1,con,1,z,Wed Dec 03 2025 15:26:51 GMT-0600 (Central Standard Time),191028.40000000596,kiwi,1000,I,z,,,733,,,7,1,3046.300000011921,187982.09999999404,7250,kiwi,NF,C,,,,,,,,,,13
10,prac,1,con,1,z,Wed Dec 03 2025 15:26:51 GMT-0600 (Central Standard Time),194043.40000000596,orange,1000,I,z,,,722,,,3,1,3011.4000000059605,191032.0,7250,orange,NF,C,,,,,,,,,,14
11,prac,1,inc,1,m,Wed Dec 03 2025 15:26:51 GMT-0600 (Central Standard Time),196645.40000000596,cherry,900,I,m,,,416,,,10,1,2597.7000000178814,194047.69999998808,7250,copper,NF,C,,,,,,,,,,15
12,prac,1,inc,1,z,Wed Dec 03 2025 15:26:51 GMT-0600 (Central Standard Time),199692.69999998808,cobalt,1100,I,z,,,649,,,4,1,3043.5,196649.19999998808,7250,raisin,NF,C,,,,,,,,,,16
0,test,1,inc,0,m,Wed Dec 03 2025 15:26:51 GMT-0600 (Central Standard Time),215038.19999998808,raisin,1100,I,z,z,None,649,449.0,200.0,80,1,2277.0999999940395,212761.09999999404,7250,copper,NF,C,209087,209088,207260,208370,207260,209537,208887,208887,209537,1
1,test,1,con,1,z,Wed Dec 03 2025 15:26:51 GMT-0600 (Central Standard Time),217103.40000000596,plum,900,I,z,z,None,622,422.0,200.0,58,1,2061.0999999940395,215042.30000001192,7250,plum,NF,C,211168,211168,209541,210453,209542,211602,210968,210968,211602,2
2,test,1,inc,1,z,Wed Dec 03 2025 15:26:51 GMT-0600 (Central Standard Time),219087.30000001192,gold,800,I,z,z,None,650,450.0,200.0,37,1,1981.1000000238419,217106.19999998808,7250,lime,NF,C,213136,213136,211605,212420,211606,213586,212936,212936,213586,3
3,test,1,inc,1,m,Wed Dec 03 2025 15:26:51 GMT-0600 (Central Standard Time),220901.90000000596,banana,800,I,m,m,None,473,272.0,201.0,85,1,1811.7000000178814,219090.19999998808,7250,silver,NF,C,215119,215119,213589,214402,213589,215401,214918,214918,215401,4
4,test,1,inc,1,z,Wed Dec 03 2025 15:26:51 GMT-0600 (Central Standard Time),222917.80000001192,silver,1000,I,z,z,None,471,272.0,199.0,7,1,2011.7000000178814,220906.09999999404,7250,banana,NF,C,217135,217135,215405,216418,215406,217417,216935,216935,217417,5
5,test,1,inc,1,m,Wed Dec 03 2025 15:26:51 GMT-0600 (Central Standard Time),224684.30000001192,lime,800,I,m,m,None,432,217.0,215.0,109,1,1763.4000000059605,222920.90000000596,7250,iron,NF,C,218951,218951,217420,218234,217420,219183,218736,218736,219183,6
6,test,1,inc,1,m,Wed Dec 03 2025 15:26:51 GMT-0600 (Central Standard Time),226569.69999998808,lime,800,I,m,m,None,545,346.0,199.0,125,1,1881.699999988079,224688.0,7250,lead,NF,C,220717,220717,219187,220000,219187,221069,220518,220518,221069,7
7,test,1,inc,1,m,Wed Dec 03 2025 15:26:51 GMT-0600 (Central Standard Time),228616.69999998808,kiwi,1000,I,m,m,None,517,318.0,199.0,127,1,2042.7999999821186,226573.90000000596,7250,lead,NF,C,222784,222784,221073,222082,221073,223116,222584,222584,223116,8
8,test,1,inc,1,z,Wed Dec 03 2025 15:26:51 GMT-0600 (Central Standard Time),230565.30000001192,iron,900,I,z,z,None,500,299.0,201.0,54,1,1943.1000000238419,228622.19999998808,7250,kiwi,NF,C,224750,224750,223121,224032,223122,225064,224549,224549,225064,9
9,test,1,con,1,m,Wed Dec 03 2025 15:26:51 GMT-0600 (Central Standard Time),232637.0,iron,1100,I,m,m,None,428,229.0,199.0,108,1,2068.199999988079,230568.80000001192,7250,iron,NF,C,226897,226897,225068,226181,225068,227136,226698,226698,227136,10
10,test,1,inc,1,z,Wed Dec 03 2025 15:26:51 GMT-0600 (Central Standard Time),234747.59999999404,silver,1000,I,z,z,None,567,366.0,201.0,31,1,2107.199999988079,232640.40000000596,7250,raisin,NF,C,228865,228865,227139,228148,227140,229247,228663,228663,229247,11
11,test,1,con,1,m,Wed Dec 03 2025 15:26:51 GMT-0600 (Central Standard Time),236579.80000001192,cobalt,900,I,m,m,None,389,189.0,200.0,90,1,1826.5,234753.30000001192,7250,cobalt,NF,C,230881,230881,229252,230165,229253,231079,230680,230680,231079,12
12,test,1,con,1,z,Wed Dec 03 2025 15:26:51 GMT-0600 (Central Standard Time),238614.19999998808,kiwi,900,I,z,z,None,615,415.0,200.0,50,1,2030.7999999821186,236583.40000000596,7250,kiwi,NF,C,232698,232698,231082,231986,231083,233113,232497,232497,233113,13
13,test,1,con,1,z,Wed Dec 03 2025 15:26:51 GMT-0600 (Central Standard Time),240312.59999999404,pear,800,I,z,z,None,367,168.0,199.0,41,1,1693.4000000059605,238619.19999998808,7250,pear,NF,C,234630,234630,233118,233929,233119,234812,234430,234430,234812,14
14,test,1,con,1,m,Wed Dec 03 2025 15:26:51 GMT-0600 (Central Standard Time),242894.59999999404,iron,1000,I,m,m,None,1044,829.0,215.0,107,1,2577.699999988079,240316.90000000596,7250,iron,NF,C,236562,236562,234816,235828,234816,237394,236346,236346,237394,15
15,test,1,inc,1,z,Wed Dec 03 2025 15:26:51 GMT-0600 (Central Standard Time),245094.5,cobalt,1100,I,z,z,None,554,355.0,199.0,32,1,2196.9000000059605,242897.59999999404,7250,raisin,NF,C,239227,239227,237397,238511,237397,239594,239028,239028,239594,16
16,test,1,inc,1,m,Wed Dec 03 2025 15:26:51 GMT-0600 (Central Standard Time),247127.19999998808,cherry,900,I,m,m,None,585,371.0,214.0,70,1,2028.2999999821186,245098.90000000596,7250,bronze,NF,C,241243,241243,239598,240510,239598,241626,241029,241029,241626,17
17,test,1,con,1,z,Wed Dec 03 2025 15:26:51 GMT-0600 (Central Standard Time),249325.5,raisin,1100,I,z,z,None,570,357.0,213.0,28,1,2195.199999988079,247130.30000001192,7250,raisin,NF,C,243458,243458,241629,242742,241630,243825,243245,243245,243825,18
18,test,1,con,1,m,Wed Dec 03 2025 15:26:51 GMT-0600 (Central Standard Time),251325.19999998808,cobalt,800,I,m,m,None,652,452.0,200.0,89,1,1994.8999999761581,249330.30000001192,7250,cobalt,NF,C,245359,245359,243829,244642,243830,245824,245158,245158,245824,19
19,test,1,con,1,m,Wed Dec 03 2025 15:26:51 GMT-0600 (Central Standard Time),253491.19999998808,silver,900,I,m,m,None,717,518.0,199.0,82,1,2156.5999999940395,251334.59999999404,7250,silver,NF,C,247458,247458,245834,246742,245834,247990,247258,247258,247990,20
20,test,1,inc,1,m,Wed Dec 03 2025 15:26:51 GMT-0600 (Central Standard Time),255675.59999999404,pear,900,I,m,m,None,736,535.0,201.0,126,1,2176.4000000059605,253499.19999998808,7250,lead,NF,C,249625,249625,247998,248908,247999,250175,249424,249424,250175,21
21,test,1,inc,1,z,Wed Dec 03 2025 15:26:51 GMT-0600 (Central Standard Time),257507.90000000596,bronze,800,I,z,z,None,485,285.0,200.0,5,1,1825.2000000178814,255682.69999998808,7250,banana,NF,C,251706,251706,250182,250991,250182,252007,251506,251506,252007,22
22,test,1,con,1,m,Wed Dec 03 2025 15:26:51 GMT-0600 (Central Standard Time),259589.40000000596,bronze,1100,I,m,m,None,448,249.0,199.0,68,1,2074.0,257515.40000000596,7250,bronze,NF,C,253839,253839,252014,253122,252015,254089,253639,253639,254088,23
23,test,1,inc,1,z,Wed Dec 03 2025 15:26:51 GMT-0600 (Central Standard Time),261672.30000001192,zinc,1000,I,z,z,None,536,337.0,199.0,55,1,2076.0,259596.30000001192,7250,kiwi,NF,C,255822,255822,254095,255105,254095,256171,255622,255622,256171,24
24,test,1,con,1,z,Wed Dec 03 2025 15:26:51 GMT-0600 (Central Standard Time),263822.09999999404,plum,1100,I,z,z,None,508,307.0,201.0,60,1,2142.7999999821186,261679.30000001192,7250,plum,NF,C,258004,258004,256178,257288,256179,258321,257803,257803,258321,25
25,test,1,con,1,z,Wed Dec 03 2025 15:26:51 GMT-0600 (Central Standard Time),265754.1999999881,kiwi,800,I,z,z,None,585,385.0,200.0,49,1,1922.2999999821186,263831.90000000596,7250,kiwi,NF,C,259854,259854,258331,259137,258331,260253,259653,259653,260253,26
26,test,1,inc,1,z,Wed Dec 03 2025 15:26:51 GMT-0600 (Central Standard Time),267654.5,gold,800,I,z,z,None,552,351.0,201.0,45,1,1893.0999999940395,265761.40000000596,7250,pear,NF,C,261787,261787,260260,261071,260261,262154,261586,261586,262154,27
26,test,1,inc,0,z,Wed Dec 03 2025 15:26:51 GMT-0600 (Central Standard Time),269503.09999999404,iron,900,I,m,m,None,405,206.0,199.0,38,1,1842.699999988079,267660.40000000596,7250,lime,NF,C,263785,263785,262159,263069,262160,264002,263586,263586,264002,28
27,test,1,inc,1,z,Wed Dec 03 2025 15:26:51 GMT-0600 (Central Standard Time),271673.3000000119,zinc,1000,I,z,z,None,635,419.0,216.0,39,1,2163.800000011921,269509.5,7250,lime,NF,C,265753,265753,264009,265019,264009,266172,265537,265537,266172,29
28,test,1,con,1,z,Wed Dec 03 2025 15:26:51 GMT-0600 (Central Standard Time),273718.8000000119,plum,800,I,z,z,None,706,505.0,201.0,57,1,2040.800000011921,271678.0,7250,plum,NF,C,267702,267702,266177,266985,266177,268218,267501,267501,268218,30
29,test,1,inc,1,z,Wed Dec 03 2025 15:26:51 GMT-0600 (Central Standard Time),275867.5,cobalt,1100,I,z,z,None,507,308.0,199.0,16,1,2144.699999988079,273722.8000000119,7250,cherry,NF,C,270051,270051,268222,269334,268222,270367,269851,269851,270366,31
30,test,1,con,1,z,Wed Dec 03 2025 15:26:51 GMT-0600 (Central Standard Time),278484.90000000596,pear,1100,I,z,z,None,969,769.0,200.0,44,1,2609.7000000178814,275875.1999999881,7250,pear,NF,C,272200,272200,270374,271483,270374,272984,272000,272000,272984,32
31,test,1,inc,1,z,Wed Dec 03 2025 15:26:51 GMT-0600 (Central Standard Time),280633.09999999404,lead,1100,I,z,z,None,528,328.0,200.0,64,1,2144.0999999940395,278489.0,7250,plum,NF,C,274800,274800,272988,274098,272988,275132,274600,274600,275132,33
32,test,1,con,1,z,Wed Dec 03 2025 15:26:51 GMT-0600 (Central Standard Time),282731.90000000596,orange,800,I,z,z,None,749,534.0,215.0,17,1,2094.9000000059605,280637.0,7250,orange,NF,C,276682,276682,275136,275950,275136,277231,276467,276467,277231,34
33,test,1,inc,1,z,Wed Dec 03 2025 15:26:51 GMT-0600 (Central Standard Time),284715.09999999404,iron,900,I,z,z,None,541,341.0,200.0,46,1,1977.4000000059605,282737.6999999881,7250,pear,NF,C,278866,278866,277237,278149,277237,279214,278665,278665,279214,35
34,test,1,inc,1,z,Wed Dec 03 2025 15:26:51 GMT-0600 (Central Standard Time),286581.40000000596,gold,800,I,z,z,None,517,317.0,200.0,61,1,1862.7000000178814,284718.6999999881,7250,plum,NF,C,280748,280748,279218,280031,279218,281081,280548,280548,281080,36
35,test,1,inc,1,m,Wed Dec 03 2025 15:26:51 GMT-0600 (Central Standard Time),288696.8000000119,kiwi,1000,I,m,m,None,560,361.0,199.0,119,1,2109.4000000059605,286587.40000000596,7250,zinc,NF,C,282821,282821,281086,282097,281087,283196,282614,282614,283196,37
36,test,1,con,1,m,Wed Dec 03 2025 15:26:51 GMT-0600 (Central Standard Time),290530.5,zinc,900,I,m,m,None,400,201.0,199.0,114,1,1829.5999999940395,288700.90000000596,7250,zinc,NF,C,284814,284814,283200,284113,283200,285030,284614,284614,285029,38
37,test,1,con,1,z,Wed Dec 03 2025 15:26:51 GMT-0600 (Central Standard Time),292479.3000000119,banana,900,I,z,z,None,512,313.0,199.0,2,1,1943.6000000238419,290535.6999999881,7250,banana,NF,C,286662,286662,285035,285945,285035,286978,286462,286462,286978,39
38,test,1,con,1,z,Wed Dec 03 2025 15:26:51 GMT-0600 (Central Standard Time),294595.5,lime,1000,I,z,z,None,584,385.0,199.0,35,1,2110.5999999940395,292484.90000000596,7250,lime,NF,C,288695,288695,286984,287994,286984,289095,288495,288495,289095,40
39,test,1,con,1,m,Wed Dec 03 2025 15:26:51 GMT-0600 (Central Standard Time),296411.0,bronze,800,I,m,m,None,476,276.0,200.0,65,1,1811.4000000059605,294599.59999999404,7250,bronze,NF,C,290628,290628,289099,289911,289099,290910,290427,290427,290910,41
40,test,1,con,1,m,Wed Dec 03 2025 15:26:51 GMT-0600 (Central Standard Time),298694.3000000119,lead,1100,I,m,m,None,650,450.0,200.0,124,1,2279.9000000059605,296414.40000000596,7250,lead,NF,C,292728,292728,290913,292026,290914,293193,292528,292528,293193,42
41,test,1,con,1,z,Wed Dec 03 2025 15:26:51 GMT-0600 (Central Standard Time),300460.40000000596,lime,800,I,z,z,None,417,218.0,199.0,33,1,1762.0999999940395,298698.3000000119,7250,lime,NF,C,294726,294726,293197,294011,293198,294959,294527,294527,294959,43
42,test,1,con,1,m,Wed Dec 03 2025 15:26:51 GMT-0600 (Central Standard Time),302442.90000000596,iron,900,I,m,m,None,542,341.0,201.0,106,1,1977.300000011921,300465.59999999404,7250,iron,NF,C,296594,296594,294965,295876,294965,296942,296392,296392,296942,44
43,test,1,inc,1,m,Wed Dec 03 2025 15:26:51 GMT-0600 (Central Standard Time),304874.90000000596,plum,1100,I,m,m,None,800,601.0,199.0,128,1,2428.5999999940395,302446.3000000119,7250,lead,NF,C,298758,298758,296945,298058,296946,299374,298559,298559,299374,45
44,test,1,inc,1,m,Wed Dec 03 2025 15:26:51 GMT-0600 (Central Standard Time),307142.3000000119,orange,1000,I,m,m,None,718,519.0,199.0,87,1,2262.800000011921,304879.5,7250,silver,NF,C,301107,301107,299379,300391,299379,301641,300908,300908,301641,46
45,test,1,inc,1,m,Wed Dec 03 2025 15:26:51 GMT-0600 (Central Standard Time),309607.09999999404,raisin,1100,I,m,m,None,826,612.0,214.0,88,1,2458.199999988079,307148.90000000596,7250,silver,NF,C,303490,303490,301648,302758,301648,304106,303275,303275,304106,47
46,test,1,con,1,m,Wed Dec 03 2025 15:26:51 GMT-0600 (Central Standard Time),311939.09999999404,bronze,1000,I,m,m,None,805,591.0,214.0,67,1,2329.4000000059605,309609.6999999881,7250,bronze,NF,C,305839,305839,304109,305122,304109,306438,305624,305624,306438,48
47,test,1,inc,1,m,Wed Dec 03 2025 15:26:51 GMT-0600 (Central Standard Time),314105.6999999881,pear,900,I,m,m,None,717,501.0,216.0,102,1,2162.399999976158,311943.3000000119,7250,gold,NF,C,308089,308089,306442,307356,306443,308605,307873,307873,308605,49
48,test,1,con,1,z,Wed Dec 03 2025 15:26:51 GMT-0600 (Central Standard Time),316089.09999999404,plum,1000,I,z,z,None,435,236.0,199.0,59,1,1980.9000000059605,314108.1999999881,7250,plum,NF,C,310338,310338,308607,309622,308607,310588,310138,310138,310588,50
49,test,1,con,1,m,Wed Dec 03 2025 15:26:51 GMT-0600 (Central Standard Time),318204.0,copper,800,I,m,m,None,767,566.0,201.0,73,1,2111.4000000059605,316092.59999999404,7250,copper,NF,C,312122,312122,310592,311404,310592,312703,311921,311921,312703,51
50,test,1,inc,1,m,Wed Dec 03 2025 15:26:51 GMT-0600 (Central Standard Time),320287.09999999404,cherry,900,I,m,m,None,645,446.0,199.0,86,1,2079.0,318208.09999999404,7250,silver,NF,C,314337,314337,312707,313620,312707,314786,314137,314137,314786,52
51,test,1,con,1,m,Wed Dec 03 2025 15:26:51 GMT-0600 (Central Standard Time),322820.1999999881,gold,800,I,m,m,None,1184,985.0,199.0,97,1,2528.699999988079,320291.5,7250,gold,NF,C,316320,316320,314791,315604,314791,317319,316120,316120,317319,53
52,test,1,inc,1,z,Wed Dec 03 2025 15:26:51 GMT-0600 (Central Standard Time),324586.5,bronze,800,I,z,z,None,428,229.0,199.0,13,1,1762.4000000059605,322824.09999999404,7250,cherry,NF,C,318851,318851,317323,318135,317323,319086,318652,318652,319086,54
53,test,1,inc,1,m,Wed Dec 03 2025 15:26:51 GMT-0600 (Central Standard Time),326685.6999999881,plum,1100,I,m,m,None,448,248.0,200.0,120,1,2095.199999988079,324590.5,7250,zinc,NF,C,320918,320918,319090,320202,319090,321185,320718,320718,321185,55
54,test,1,con,1,m,Wed Dec 03 2025 15:26:51 GMT-0600 (Central Standard Time),328701.0,cobalt,1000,I,m,m,None,471,255.0,216.0,91,1,2012.699999988079,326688.3000000119,7250,cobalt,NF,C,322935,322935,321187,322200,321188,323200,322719,322719,323200,56
55,test,1,inc,1,m,Wed Dec 03 2025 15:26:51 GMT-0600 (Central Standard Time),330601.3000000119,lime,800,I,m,m,None,559,360.0,199.0,117,1,1896.300000011921,328705.0,7250,zinc,NF,C,324734,324734,323204,324016,323204,325100,324535,324535,325100,57
56,test,1,inc,1,m,Wed Dec 03 2025 15:26:51 GMT-0600 (Central Standard Time),332916.5,raisin,1100,I,m,m,None,672,473.0,199.0,72,1,2310.699999988079,330605.8000000119,7250,bronze,NF,C,326933,326933,325105,326217,325105,327416,326734,326734,327416,58
57,test,1,inc,1,z,Wed Dec 03 2025 15:26:51 GMT-0600 (Central Standard Time),335199.1999999881,cobalt,1100,I,z,z,None,638,437.0,201.0,8,1,2280.0999999940395,332919.09999999404,7250,banana,NF,C,329249,329249,327418,328533,327418,329698,329048,329048,329698,59
58,test,1,inc,1,z,Wed Dec 03 2025 15:26:51 GMT-0600 (Central Standard Time),337164.5,bronze,800,I,z,z,None,631,432.0,199.0,29,1,1961.9000000059605,335202.59999999404,7250,raisin,NF,C,331215,331215,329702,330515,329702,331664,331016,331016,331664,60
59,test,1,inc,1,m,Wed Dec 03 2025 15:26:51 GMT-0600 (Central Standard Time),339180.8000000119,banana,800,I,m,m,None,667,468.0,199.0,69,1,2013.300000011921,337167.5,7250,bronze,NF,C,333196,333196,331667,332481,331667,333680,332997,332997,333680,61
60,test,1,inc,1,m,Wed Dec 03 2025 15:26:51 GMT-0600 (Central Standard Time),341280.1999999881,plum,1100,I,m,m,None,479,279.0,200.0,112,1,2096.7999999821186,339183.40000000596,7250,iron,NF,C,335497,335497,333682,334796,333683,335779,335297,335297,335779,62
61,test,1,inc,1,m,Wed Dec 03 2025 15:26:51 GMT-0600 (Central Standard Time),343629.3000000119,cherry,900,I,m,m,None,914,700.0,214.0,78,1,2345.0,341284.3000000119,7250,copper,NF,C,337412,337412,335783,336697,335784,338128,337198,337198,338128,63
62,test,1,inc,1,m,Wed Dec 03 2025 15:26:51 GMT-0600 (Central Standard Time),345479.3000000119,lime,800,I,m,m,None,505,304.0,201.0,101,1,1845.5,343633.8000000119,7250,gold,NF,C,339663,339663,338133,338945,338133,339978,339462,339462,339978,64
63,test,1,inc,1,z,Wed Dec 03 2025 15:26:51 GMT-0600 (Central Standard Time),347595.0,lead,1100,I,z,z,None,467,266.0,201.0,56,1,2111.199999988079,345483.8000000119,7250,kiwi,NF,C,341811,341812,339983,341095,339983,342094,341610,341610,342094,65
64,test,1,inc,1,z,Wed Dec 03 2025 15:26:51 GMT-0600 (Central Standard Time),349627.09999999404,copper,900,I,z,z,None,590,390.0,200.0,6,1,2029.5,347597.59999999404,7250,banana,NF,C,343728,343728,342097,343010,342097,344126,343528,343528,344126,66
65,test,1,inc,1,m,Wed Dec 03 2025 15:26:51 GMT-0600 (Central Standard Time),351644.5,kiwi,1000,I,m,m,None,463,252.0,211.0,103,1,2013.300000011921,349631.1999999881,7250,gold,NF,C,345877,345877,344130,345144,344131,346144,345665,345665,346143,67
66,test,1,inc,1,z,Wed Dec 03 2025 15:26:51 GMT-0600 (Central Standard Time),354077.6999999881,cobalt,1100,I,z,z,None,800,586.0,214.0,24,1,2428.699999988079,351649.0,7250,orange,NF,C,347976,347976,346148,347258,346148,348577,347762,347762,348577,68
67,test,1,inc,1,z,Wed Dec 03 2025 15:26:51 GMT-0600 (Central Standard Time),356142.0,bronze,800,I,z,z,None,731,516.0,215.0,21,1,2061.5999999940395,354080.40000000596,7250,orange,NF,C,350109,350109,348579,349391,348580,350641,349893,349893,350641,69
68,test,1,con,1,m,Wed Dec 03 2025 15:26:51 GMT-0600 (Central Standard Time),358042.1999999881,lead,800,I,m,m,None,554,353.0,201.0,121,1,1895.199999988079,356147.0,7250,lead,NF,C,352174,352174,350646,351458,350646,352541,351973,351973,352541,70
69,test,1,con,1,m,Wed Dec 03 2025 15:26:51 GMT-0600 (Central Standard Time),360107.6999999881,gold,900,I,m,m,None,611,400.0,211.0,98,1,2061.699999988079,358046.0,7250,gold,NF,C,354190,354190,352545,353458,352545,354607,353978,353978,354607,71
70,test,1,inc,1,z,Wed Dec 03 2025 15:26:51 GMT-0600 (Central Standard Time),362173.90000000596,zinc,1000,I,z,z,None,518,318.0,200.0,47,1,2063.7000000178814,360110.1999999881,7250,pear,NF,C,356340,356340,354609,355625,354610,356673,356140,356140,356673,72
71,test,1,con,1,m,Wed Dec 03 2025 15:26:51 GMT-0600 (Central Standard Time),364406.5,copper,1100,I,m,m,None,588,389.0,199.0,76,1,2226.5,362180.0,7250,copper,NF,C,358505,358505,356679,357791,356679,358906,358306,358306,358906,73
72,test,1,con,1,m,Wed Dec 03 2025 15:26:51 GMT-0600 (Central Standard Time),366439.40000000596,bronze,900,I,m,m,None,589,388.0,201.0,66,1,2029.9000000059605,364409.5,7250,bronze,NF,C,360539,360539,358908,359822,358909,360938,360338,360338,360938,74
73,test,1,inc,1,m,Wed Dec 03 2025 15:26:51 GMT-0600 (Central Standard Time),368472.3000000119,pear,900,I,m,m,None,586,387.0,199.0,118,1,2027.9000000059605,366444.40000000596,7250,zinc,NF,C,362572,362572,360943,361855,360944,362971,362372,362372,362971,75
74,test,1,con,1,m,Wed Dec 03 2025 15:26:51 GMT-0600 (Central Standard Time),370687.40000000596,silver,1000,I,m,m,None,669,470.0,199.0,83,1,2207.4000000059605,368480.0,7250,silver,NF,C,364704,364704,362979,363987,362979,365186,364504,364504,365186,76
75,test,1,con,1,z,Wed Dec 03 2025 15:26:51 GMT-0600 (Central Standard Time),372636.59999999404,pear,900,I,z,z,None,500,300.0,200.0,42,1,1946.5,370690.09999999404,7250,pear,NF,C,366820,366820,365189,366103,365189,367136,366620,366620,367136,77
76,test,1,con,1,z,Wed Dec 03 2025 15:26:51 GMT-0600 (Central Standard Time),375135.59999999404,lime,900,I,z,z,None,1065,854.0,211.0,34,1,2493.0999999940395,372642.5,7250,lime,NF,C,368769,368769,367142,368052,367142,369635,368558,368558,369635,78
77,test,1,inc,1,z,Wed Dec 03 2025 15:26:51 GMT-0600 (Central Standard Time),377052.8000000119,copper,900,I,z,z,None,482,283.0,199.0,14,1,1909.1000000238419,375143.6999999881,7250,cherry,NF,C,371268,371268,369643,370552,369643,371552,371068,371068,371552,79
78,test,1,con,1,m,Wed Dec 03 2025 15:26:51 GMT-0600 (Central Standard Time),379035.5,lead,900,I,m,m,None,532,317.0,215.0,122,1,1976.5,377059.0,7250,lead,NF,C,373202,373202,371558,372468,371558,373535,372986,372986,373535,80
79,test,1,con,1,z,Wed Dec 03 2025 15:26:51 GMT-0600 (Central Standard Time),381401.40000000596,banana,1100,I,z,z,None,716,503.0,213.0,4,1,2359.5,379041.90000000596,7250,banana,NF,C,375384,375384,373541,374650,373541,375900,375171,375171,375900,81
80,test,1,inc,1,z,Wed Dec 03 2025 15:26:51 GMT-0600 (Central Standard Time),383749.3000000119,iron,900,I,z,z,None,906,707.0,199.0,62,1,2341.600000023842,381407.6999999881,7250,plum,NF,C,377532,377532,375907,376817,375907,378248,377333,377333,378248,82
81,test,1,con,1,z,Wed Dec 03 2025 15:26:51 GMT-0600 (Central Standard Time),386000.0,banana,1000,I,z,z,None,728,528.0,200.0,3,1,2244.9000000059605,383755.09999999404,7250,banana,NF,C,379966,379967,378254,379265,378254,380499,379766,379766,380499,83
82,test,1,con,1,z,Wed Dec 03 2025 15:26:51 GMT-0600 (Central Standard Time),388648.6999999881,lime,1100,I,z,z,None,1011,811.0,200.0,36,1,2641.0999999940395,386007.59999999404,7250,lime,NF,C,382331,382331,380507,381615,380507,383148,382131,382131,383148,84
83,test,1,con,1,m,Wed Dec 03 2025 15:26:51 GMT-0600 (Central Standard Time),390598.09999999404,lead,1000,I,m,m,None,416,216.0,200.0,123,1,1944.0999999940395,388654.0,7250,lead,NF,C,384881,384881,383153,384164,383153,385097,384680,384680,385097,85
84,test,1,inc,1,m,Wed Dec 03 2025 15:26:51 GMT-0600 (Central Standard Time),392596.6999999881,cherry,900,I,m,m,None,557,357.0,200.0,94,1,1994.0,390602.6999999881,7250,cobalt,NF,C,386730,386730,385102,386014,385102,387096,386529,386529,387096,86
85,test,1,inc,1,m,Wed Dec 03 2025 15:26:51 GMT-0600 (Central Standard Time),394729.40000000596,kiwi,1000,I,m,m,None,585,385.0,200.0,111,1,2127.0,392602.40000000596,7250,iron,NF,C,388829,388829,387101,388112,387102,389228,388629,388629,389228,87
86,test,1,con,1,z,Wed Dec 03 2025 15:26:51 GMT-0600 (Central Standard Time),396929.6999999881,cherry,1100,I,z,z,None,577,378.0,199.0,12,1,2195.199999988079,394734.5,7250,cherry,NF,C,391045,391045,389234,390345,389234,391429,390846,390846,391429,88
87,test,1,con,1,m,Wed Dec 03 2025 15:26:51 GMT-0600 (Central Standard Time),399013.09999999404,copper,1000,I,m,m,None,542,343.0,199.0,75,1,2076.9000000059605,396936.1999999881,7250,copper,NF,C,393161,393161,391435,392445,391436,393512,392962,392962,393512,89
88,test,1,con,1,m,Wed Dec 03 2025 15:26:51 GMT-0600 (Central Standard Time),401612.59999999404,zinc,800,I,m,m,None,1249,1034.0,215.0,113,1,2594.9000000059605,399017.6999999881,7250,zinc,NF,C,395060,395061,393517,394329,393517,396112,394845,394845,396112,90
89,test,1,con,1,z,Wed Dec 03 2025 15:26:51 GMT-0600 (Central Standard Time),403443.0,banana,800,I,z,z,None,490,273.0,217.0,1,1,1824.5999999940395,401618.40000000596,7250,banana,NF,C,397662,397662,396117,396927,396119,397942,397444,397444,397942,91
90,test,1,con,1,m,Wed Dec 03 2025 15:26:51 GMT-0600 (Central Standard Time),405327.1999999881,gold,1000,I,m,m,None,350,150.0,200.0,99,1,1879.199999988079,403448.0,7250,gold,NF,C,399676,399676,397947,398961,397947,399826,399476,399476,399826,92
91,test,1,con,1,z,Wed Dec 03 2025 15:26:51 GMT-0600 (Central Standard Time),407425.0,cherry,900,I,z,z,None,652,436.0,216.0,10,1,2093.300000011921,405331.6999999881,7250,cherry,NF,C,401475,401475,399831,400744,399831,401924,401259,401259,401924,93
92,test,1,con,1,m,Wed Dec 03 2025 15:26:51 GMT-0600 (Central Standard Time),409458.90000000596,cobalt,1100,I,m,m,None,394,193.0,201.0,92,1,2031.2000000178814,407427.6999999881,7250,cobalt,NF,C,403758,403758,401927,403042,401927,403958,403557,403557,403958,94
93,test,1,inc,1,m,Wed Dec 03 2025 15:26:51 GMT-0600 (Central Standard Time),411540.90000000596,pear,900,I,m,m,None,641,440.0,201.0,110,1,2076.300000011921,409464.59999999404,7250,iron,NF,C,405591,405591,403964,404874,403964,406040,405390,405390,406040,95
94,test,1,con,1,z,Wed Dec 03 2025 15:26:51 GMT-0600 (Central Standard Time),413757.40000000596,kiwi,1000,I,z,z,None,671,471.0,200.0,51,1,2211.5,411545.90000000596,7250,kiwi,NF,C,407775,407775,406045,407057,406045,408256,407574,407574,408256,96
95,test,1,inc,1,m,Wed Dec 03 2025 15:26:51 GMT-0600 (Central Standard Time),415706.59999999404,banana,800,I,m,m,None,608,409.0,199.0,93,1,1943.5,413763.09999999404,7250,cobalt,NF,C,409790,409790,408262,409074,408262,410206,409590,409590,410206,97
96,test,1,con,1,m,Wed Dec 03 2025 15:26:51 GMT-0600 (Central Standard Time),417872.8000000119,silver,1100,I,m,m,None,542,327.0,215.0,84,1,2162.600000023842,415710.1999999881,7250,silver,NF,C,412040,412040,410209,411322,410209,412372,411824,411824,412372,98
97,test,1,inc,1,m,Wed Dec 03 2025 15:26:51 GMT-0600 (Central Standard Time),420122.09999999404,orange,1000,I,m,m,None,702,501.0,201.0,79,1,2245.0,417877.09999999404,7250,copper,NF,C,414105,414105,412376,413389,412377,414621,413904,413904,414621,99
98,test,1,con,1,m,Wed Dec 03 2025 15:26:51 GMT-0600 (Central Standard Time),422005.5,copper,900,I,m,m,None,449,249.0,200.0,74,1,1879.5,420126.0,7250,copper,NF,C,416239,416239,414625,415536,414625,416505,416038,416038,416505,100
99,test,1,con,1,z,Wed Dec 03 2025 15:26:51 GMT-0600 (Central Standard Time),424270.8000000119,cherry,1000,I,z,z,None,722,519.0,203.0,11,1,2260.5,422010.3000000119,7250,cherry,NF,C,418240,418240,416509,417520,416510,418770,418037,418037,418770,101
100,test,1,con,1,z,Wed Dec 03 2025 15:26:51 GMT-0600 (Central Standard Time),426520.3000000119,pear,1000,I,z,z,None,704,503.0,201.0,43,1,2243.300000011921,424277.0,7250,pear,NF,C,420503,420504,418776,419786,418776,421019,420302,420302,421019,102
101,test,1,con,1,m,Wed Dec 03 2025 15:26:51 GMT-0600 (Central Standard Time),428286.90000000596,silver,800,I,m,m,None,418,217.0,201.0,81,1,1761.9000000059605,426525.0,7250,silver,NF,C,422553,422553,421024,421836,421024,422786,422352,422352,422786,103
102,test,1,con,1,z,Wed Dec 03 2025 15:26:51 GMT-0600 (Central Standard Time),430535.8000000119,orange,1100,I,z,z,None,622,421.0,201.0,20,1,2243.9000000059605,428291.90000000596,7250,orange,NF,C,424603,424603,422791,423901,422791,425035,424402,424402,425035,104
103,test,1,con,1,z,Wed Dec 03 2025 15:26:51 GMT-0600 (Central Standard Time),433068.09999999404,orange,900,I,z,z,None,1083,883.0,200.0,18,1,2527.2999999821186,430540.8000000119,7250,orange,NF,C,426668,426668,425040,425953,425040,427567,426468,426468,427567,105
103,test,1,inc,0,z,Wed Dec 03 2025 15:26:51 GMT-0600 (Central Standard Time),434800.40000000596,copper,900,I,m,m,None,301,87.0,214.0,22,1,1728.5999999940395,433071.8000000119,7250,orange,NF,C,429199,429199,427571,428483,427571,429299,428984,428984,429299,106
104,test,1,con,1,m,Wed Dec 03 2025 15:26:51 GMT-0600 (Central Standard Time),436933.90000000596,zinc,1100,I,m,m,None,485,285.0,200.0,116,1,2128.0999999940395,434805.8000000119,7250,zinc,NF,C,431133,431133,429305,430417,429305,431433,430933,430933,431433,107
105,test,1,inc,1,m,Wed Dec 03 2025 15:26:51 GMT-0600 (Central Standard Time),439216.09999999404,raisin,1100,I,m,m,None,637,438.0,199.0,96,1,2276.5999999940395,436939.5,7250,cobalt,NF,C,433265,433265,431439,432550,431439,433715,433066,433066,433715,108
106,test,1,inc,1,z,Wed Dec 03 2025 15:26:51 GMT-0600 (Central Standard Time),441547.8000000119,lead,1100,I,z,z,None,683,482.0,201.0,40,1,2327.2000000178814,439220.59999999404,7250,lime,NF,C,435549,435549,433720,434832,433720,436047,435347,435347,436047,109
107,test,1,con,1,z,Wed Dec 03 2025 15:26:51 GMT-0600 (Central Standard Time),443614.90000000596,cherry,800,I,z,z,None,733,532.0,201.0,9,1,2063.5999999940395,441551.3000000119,7250,cherry,NF,C,437581,437581,436050,436865,436051,438114,437380,437380,438114,110
108,test,1,inc,1,z,Wed Dec 03 2025 15:26:51 GMT-0600 (Central Standard Time),445879.8000000119,lead,1100,I,z,z,None,618,419.0,199.0,48,1,2261.300000011921,443618.5,7250,pear,NF,C,439947,439947,438118,439236,438118,440379,439747,439747,440379,111
109,test,1,inc,1,z,Wed Dec 03 2025 15:26:51 GMT-0600 (Central Standard Time),447945.5,silver,1000,I,z,z,None,540,326.0,214.0,15,1,2062.300000011921,445883.1999999881,7250,cherry,NF,C,442112,442112,440382,441395,440382,442445,441898,441898,442444,112
110,test,1,inc,1,z,Wed Dec 03 2025 15:26:51 GMT-0600 (Central Standard Time),450162.6999999881,zinc,1000,I,z,z,None,690,476.0,214.0,63,1,2213.899999976158,447948.8000000119,7250,plum,NF,C,444178,444178,442448,443461,442448,444662,443964,443964,444662,113
111,test,1,inc,1,z,Wed Dec 03 2025 15:26:51 GMT-0600 (Central Standard Time),452144.8000000119,copper,900,I,z,z,None,534,335.0,199.0,30,1,1977.0,450167.8000000119,7250,raisin,NF,C,446295,446295,444667,445578,444667,446644,446095,446095,446644,114
112,test,1,inc,1,m,Wed Dec 03 2025 15:26:51 GMT-0600 (Central Standard Time),454395.09999999404,orange,1000,I,m,m,None,709,510.0,199.0,95,1,2247.0,452148.09999999404,7250,cobalt,NF,C,448376,448377,446647,447661,446647,448894,448177,448177,448894,115
113,test,1,inc,1,z,Wed Dec 03 2025 15:26:51 GMT-0600 (Central Standard Time),456392.90000000596,silver,1000,I,z,z,None,476,277.0,199.0,23,1,1993.5,454399.40000000596,7250,orange,NF,C,450609,450609,448898,449909,448899,450892,450410,450410,450892,116
113,test,1,inc,0,z,Wed Dec 03 2025 15:26:51 GMT-0600 (Central Standard Time),458225.0,gold,800,I,m,m,None,491,276.0,215.0,53,1,1829.0999999940395,456395.90000000596,7250,kiwi,NF,C,452442,452442,450895,451711,450895,452724,452227,452227,452724,117
114,test,1,con,1,z,Wed Dec 03 2025 15:26:51 GMT-0600 (Central Standard Time),460391.90000000596,raisin,900,I,z,z,None,719,519.0,200.0,26,1,2164.300000011921,458227.59999999404,7250,raisin,NF,C,454359,454359,452727,453641,452727,454891,454158,454158,454891,118
115,test,1,con,1,z,Wed Dec 03 2025 15:26:51 GMT-0600 (Central Standard Time),462775.09999999404,kiwi,1100,I,z,z,None,740,540.0,200.0,52,1,2379.9000000059605,460395.1999999881,7250,kiwi,NF,C,456724,456724,454894,456007,454894,457274,456523,456523,457274,119
116,test,1,con,1,m,Wed Dec 03 2025 15:26:51 GMT-0600 (Central Standard Time),464825.3000000119,zinc,1000,I,m,m,None,510,294.0,216.0,115,1,2045.800000011921,462779.5,7250,zinc,NF,C,459025,459025,457279,458292,457279,459324,458809,458809,459324,120
117,test,1,con,1,z,Wed Dec 03 2025 15:26:51 GMT-0600 (Central Standard Time),467072.3000000119,raisin,1000,I,z,z,None,717,517.0,200.0,27,1,2242.9000000059605,464829.40000000596,7250,raisin,NF,C,461041,461041,459328,460340,459329,461571,460841,460841,461571,121
118,test,1,con,1,m,Wed Dec 03 2025 15:26:51 GMT-0600 (Central Standard Time),469721.5,gold,1100,I,m,m,None,1000,799.0,201.0,100,1,2646.5,467075.0,7250,gold,NF,C,463407,463407,461574,462697,461574,464221,463205,463205,464221,122
119,test,1,con,1,z,Wed Dec 03 2025 15:26:51 GMT-0600 (Central Standard Time),471688.90000000596,orange,1000,I,z,z,None,416,203.0,213.0,19,1,1964.300000011921,469724.59999999404,7250,orange,NF,C,465971,465971,464224,465239,464224,466188,465758,465758,466188,123
120,test,1,con,1,z,Wed Dec 03 2025 15:26:51 GMT-0600 (Central Standard Time),473571.09999999404,raisin,800,I,z,z,None,540,340.0,200.0,25,1,1878.5999999940395,471692.5,7250,raisin,NF,C,467722,467722,466192,467007,466192,468070,467522,467522,468070,124
121,test,1,inc,1,m,Wed Dec 03 2025 15:26:51 GMT-0600 (Central Standard Time),475606.59999999404,orange,1000,I,m,m,None,484,282.0,202.0,71,1,2031.699999988079,473574.90000000596,7250,bronze,NF,C,469805,469805,468074,469087,468074,470106,469603,469603,470106,125
122,test,1,inc,1,m,Wed Dec 03 2025 15:26:51 GMT-0600 (Central Standard Time),477603.8000000119,banana,800,I,m,m,None,658,458.0,200.0,77,1,1994.1000000238419,475609.6999999881,7250,copper,NF,C,471636,471636,470109,470919,470109,472103,471436,471436,472103,126
123,test,1,con,1,m,Wed Dec 03 2025 15:26:51 GMT-0600 (Central Standard Time),479669.8000000119,iron,800,I,m,m,None,721,522.0,199.0,105,1,2062.0,477607.8000000119,7250,iron,NF,C,473636,473636,472107,472919,472107,474169,473437,473437,474169,127
124,test,1,inc,1,m,Wed Dec 03 2025 15:26:51 GMT-0600 (Central Standard Time),481968.8000000119,plum,1100,I,m,m,None,651,450.0,201.0,104,1,2296.100000023842,479672.6999999881,7250,gold,NF,C,476004,476004,474172,475287,474172,476468,475802,475802,476468,128
