acc_sum,block,block_c,change,condition,correct,correct_response,datetime,endtime,face,project,response,response_time,row_sel,session_number,start_end,starttime,subject_id,task,task_vers,trial
0,prac,1,,1-Back,,,Fri Mar 13 2026 09:20:08 GMT-0500 (Central Daylight Time),,012_o_f_d_a.png,I,space,13407,1,2,,,8080,VNB,C,0
0,prac,1,0.0,1-Back,0.0,m,Fri Mar 13 2026 09:20:08 GMT-0500 (Central Daylight Time),141546.39999997616,022_y_f_n_a.png,I,z,1020,2,2,1890.8999999761581,139655.5,8080,VNB,C,1
1,prac,1,0.0,1-Back,1.0,m,Fri Mar 13 2026 09:20:08 GMT-0500 (Central Daylight Time),143359.5,014_m_m_h_a.png,I,m,958,3,2,1808.9000000357628,141550.59999996424,8080,VNB,C,2
1,prac,1,0.0,1-Back,0.0,m,Fri Mar 13 2026 09:20:08 GMT-0500 (Central Daylight Time),145175.5,025_y_m_d_a.png,I,z,940,4,2,1808.0,143367.5,8080,VNB,C,3
2,prac,1,0.0,1-Back,1.0,m,Fri Mar 13 2026 09:20:08 GMT-0500 (Central Daylight Time),147408.80000001192,012_o_f_n_a.png,I,m,1364,5,2,2229.7000000476837,145179.09999996424,8080,VNB,C,4
2,prac,1,1.0,1-Back,0.0,z,Fri Mar 13 2026 09:20:08 GMT-0500 (Central Daylight Time),148908.5,025_y_m_n_a.png,I,m,637,6,2,1490.199999988079,147418.30000001192,8080,VNB,C,5
3,prac,1,0.0,1-Back,1.0,m,Fri Mar 13 2026 09:20:08 GMT-0500 (Central Daylight Time),151140.19999998808,015_o_m_h_a.png,I,m,1353,7,2,2227.800000011921,148912.39999997616,8080,VNB,C,6
3,prac,1,0.0,1-Back,0.0,m,Fri Mar 13 2026 09:20:08 GMT-0500 (Central Daylight Time),153989.39999997616,019_m_f_d_a.png,I,z,1955,8,2,2838.599999964237,151150.80000001192,8080,VNB,C,7
3,prac,1,1.0,1-Back,0.0,z,Fri Mar 13 2026 09:20:08 GMT-0500 (Central Daylight Time),155888.89999997616,022_y_f_d_a.png,I,m,1018,9,2,1895.5999999642372,153993.30000001192,8080,VNB,C,8
3,prac,1,0.0,1-Back,0.0,m,Fri Mar 13 2026 09:20:08 GMT-0500 (Central Daylight Time),158771.19999998808,014_m_m_n_a.png,I,None,2014,10,2,2871.800000011921,155899.39999997616,8080,VNB,C,9
4,prac,1,0.0,1-Back,1.0,m,Fri Mar 13 2026 09:20:08 GMT-0500 (Central Daylight Time),160687.30000001192,012_o_f_h_a.png,I,m,1040,11,2,1912.0,158775.30000001192,8080,VNB,C,10
4,prac,1,0.0,1-Back,0.0,m,Fri Mar 13 2026 09:20:08 GMT-0500 (Central Daylight Time),163069.89999997616,025_y_m_d_a.png,I,z,1511,12,2,2374.0,160695.89999997616,8080,VNB,C,11
0,test,1,0.0,1-Back,,,Fri Mar 13 2026 09:20:08 GMT-0500 (Central Daylight Time),163069.89999997616,022_y_f_d_a.png,I,space,19691,1,2,2374.0,160695.89999997616,8080,VNB,C,0
1,test,1,0.0,1-Back,1.0,m,Fri Mar 13 2026 09:20:08 GMT-0500 (Central Daylight Time),196542.80000001192,019_m_f_n_a.png,I,m,608,2,2,1626.4000000357628,194916.39999997616,8080,VNB,C,1
2,test,1,0.0,1-Back,1.0,m,Fri Mar 13 2026 09:20:08 GMT-0500 (Central Daylight Time),198342.0,015_o_m_h_a.png,I,m,776,3,2,1796.5,196545.5,8080,VNB,C,2
3,test,1,1.0,1-Back,1.0,z,Fri Mar 13 2026 09:20:08 GMT-0500 (Central Daylight Time),200358.09999996424,014_m_m_h_a.png,I,z,984,4,2,2010.3999999761581,198347.69999998808,8080,VNB,C,3
4,test,1,0.0,1-Back,1.0,m,Fri Mar 13 2026 09:20:08 GMT-0500 (Central Daylight Time),202408.30000001192,012_o_f_n_a.png,I,m,1017,5,2,2047.9000000357628,200360.39999997616,8080,VNB,C,4
5,test,1,0.0,1-Back,1.0,m,Fri Mar 13 2026 09:20:08 GMT-0500 (Central Daylight Time),204407.39999997616,025_y_m_d_a.png,I,m,967,6,2,1993.300000011921,202414.09999996424,8080,VNB,C,5
6,test,1,1.0,1-Back,1.0,z,Fri Mar 13 2026 09:20:08 GMT-0500 (Central Daylight Time),206256.39999997616,019_m_f_d_a.png,I,z,823,7,2,1846.300000011921,204410.09999996424,8080,VNB,C,6
7,test,1,0.0,1-Back,1.0,m,Fri Mar 13 2026 09:20:08 GMT-0500 (Central Daylight Time),208322.5,022_y_f_h_a.png,I,m,1039,8,2,2060.900000035763,206261.59999996424,8080,VNB,C,7
8,test,1,0.0,1-Back,1.0,m,Fri Mar 13 2026 09:20:08 GMT-0500 (Central Daylight Time),210438.39999997616,015_o_m_n_a.png,I,m,1092,9,2,2113.399999976158,208325.0,8080,VNB,C,8
9,test,1,0.0,1-Back,1.0,m,Fri Mar 13 2026 09:20:08 GMT-0500 (Central Daylight Time),212462.5,025_y_m_h_a.png,I,m,1007,10,2,2018.9000000357628,210443.59999996424,8080,VNB,C,9
10,test,1,0.0,1-Back,1.0,m,Fri Mar 13 2026 09:20:08 GMT-0500 (Central Daylight Time),214420.5,015_o_m_d_a.png,I,m,944,11,2,1955.0,212465.5,8080,VNB,C,10
11,test,1,1.0,1-Back,1.0,z,Fri Mar 13 2026 09:20:08 GMT-0500 (Central Daylight Time),216286.59999996424,012_o_f_d_a.png,I,z,834,12,2,1860.0999999642372,214426.5,8080,VNB,C,11
12,test,1,0.0,1-Back,1.0,m,Fri Mar 13 2026 09:20:08 GMT-0500 (Central Daylight Time),218202.80000001192,014_m_m_n_a.png,I,m,889,13,2,1913.1000000238419,216289.69999998808,8080,VNB,C,12
13,test,1,1.0,1-Back,1.0,z,Fri Mar 13 2026 09:20:08 GMT-0500 (Central Daylight Time),220235.30000001192,022_y_f_n_a.png,I,z,1004,14,2,2026.7000000476837,218208.59999996424,8080,VNB,C,13
14,test,1,0.0,1-Back,1.0,m,Fri Mar 13 2026 09:20:08 GMT-0500 (Central Daylight Time),222084.69999998808,019_m_f_h_a.png,I,m,828,15,2,1846.800000011921,220237.89999997616,8080,VNB,C,14
15,test,1,0.0,1-Back,1.0,m,Fri Mar 13 2026 09:20:08 GMT-0500 (Central Daylight Time),224000.69999998808,014_m_m_d_a.png,I,m,898,16,2,1910.0,222090.69999998808,8080,VNB,C,15
16,test,1,0.0,1-Back,1.0,m,Fri Mar 13 2026 09:20:08 GMT-0500 (Central Daylight Time),225783.59999996424,025_y_m_n_a.png,I,m,757,17,2,1780.5,224003.09999996424,8080,VNB,C,16
17,test,1,0.0,1-Back,1.0,m,Fri Mar 13 2026 09:20:08 GMT-0500 (Central Daylight Time),227783.09999996424,012_o_f_h_a.png,I,m,975,18,2,1992.5999999642372,225790.5,8080,VNB,C,17
0,test,2,0.0,1-Back,,,Fri Mar 13 2026 09:20:08 GMT-0500 (Central Daylight Time),227783.09999996424,025_y_m_n_a.png,I,space,2208,1,2,1992.5999999642372,225790.5,8080,VNB,C,0
1,test,2,0.0,1-Back,1.0,m,Fri Mar 13 2026 09:20:08 GMT-0500 (Central Daylight Time),233747.59999996424,022_y_f_h_a.png,I,m,703,2,2,1726.8999999761581,232020.69999998808,8080,VNB,C,1
2,test,2,1.0,1-Back,1.0,m,Fri Mar 13 2026 09:20:08 GMT-0500 (Central Daylight Time),235697.30000001192,015_o_m_n_a.png,I,m,923,3,2,1946.9000000357628,233750.39999997616,8080,VNB,C,2
3,test,2,0.0,1-Back,1.0,m,Fri Mar 13 2026 09:20:08 GMT-0500 (Central Daylight Time),238396.19999998808,019_m_f_d_a.png,I,m,1669,4,2,2693.0,235703.19999998808,8080,VNB,C,3
4,test,2,0.0,1-Back,1.0,z,Fri Mar 13 2026 09:20:08 GMT-0500 (Central Daylight Time),240345.69999998808,014_m_m_d_a.png,I,z,931,5,2,1946.3999999761581,238399.30000001192,8080,VNB,C,4
5,test,2,0.0,1-Back,1.0,m,Fri Mar 13 2026 09:20:08 GMT-0500 (Central Daylight Time),242128.5,025_y_m_h_a.png,I,m,748,6,2,1775.699999988079,240352.80000001192,8080,VNB,C,5
5,test,2,1.0,1-Back,0.0,z,Fri Mar 13 2026 09:20:08 GMT-0500 (Central Daylight Time),244361.0,012_o_f_h_a.png,I,m,1214,7,2,2229.800000011921,242131.19999998808,8080,VNB,C,6
6,test,2,0.0,1-Back,1.0,m,Fri Mar 13 2026 09:20:08 GMT-0500 (Central Daylight Time),246428.59999996424,019_m_f_n_a.png,I,m,1045,8,2,2060.399999976158,244368.19999998808,8080,VNB,C,7
7,test,2,0.0,1-Back,1.0,m,Fri Mar 13 2026 09:20:08 GMT-0500 (Central Daylight Time),248310.0,022_y_f_d_a.png,I,m,859,9,2,1878.699999988079,246431.30000001192,8080,VNB,C,8
8,test,2,0.0,1-Back,1.0,m,Fri Mar 13 2026 09:20:08 GMT-0500 (Central Daylight Time),250193.69999998808,014_m_m_n_a.png,I,m,865,10,2,1877.0,248316.69999998808,8080,VNB,C,9
9,test,2,1.0,1-Back,1.0,m,Fri Mar 13 2026 09:20:08 GMT-0500 (Central Daylight Time),252075.30000001192,019_m_f_h_a.png,I,m,854,11,2,1878.7000000476837,250196.59999996424,8080,VNB,C,10
9,test,2,0.0,1-Back,0.0,z,Fri Mar 13 2026 09:20:08 GMT-0500 (Central Daylight Time),254224.69999998808,015_o_m_h_a.png,I,m,1131,12,2,2143.699999988079,252081.0,8080,VNB,C,11
9,test,2,0.0,1-Back,0.0,m,Fri Mar 13 2026 09:20:08 GMT-0500 (Central Daylight Time),256074.09999996424,025_y_m_d_a.png,I,z,822,13,2,1846.699999988079,254227.39999997616,8080,VNB,C,12
10,test,2,0.0,1-Back,1.0,m,Fri Mar 13 2026 09:20:08 GMT-0500 (Central Daylight Time),258240.69999998808,012_o_f_n_a.png,I,m,1148,14,2,2159.399999976158,256081.30000001192,8080,VNB,C,13
11,test,2,0.0,1-Back,1.0,z,Fri Mar 13 2026 09:20:08 GMT-0500 (Central Daylight Time),260139.80000001192,022_y_f_n_a.png,I,z,870,15,2,1896.4000000357628,258243.39999997616,8080,VNB,C,14
12,test,2,1.0,1-Back,1.0,m,Fri Mar 13 2026 09:20:08 GMT-0500 (Central Daylight Time),262005.69999998808,014_m_m_h_a.png,I,m,844,16,2,1860.199999988079,260145.5,8080,VNB,C,15
13,test,2,0.0,1-Back,1.0,m,Fri Mar 13 2026 09:20:08 GMT-0500 (Central Daylight Time),263838.09999996424,012_o_f_d_a.png,I,m,809,17,2,1829.5999999642372,262008.5,8080,VNB,C,16
14,test,2,1.0,1-Back,1.0,z,Fri Mar 13 2026 09:20:08 GMT-0500 (Central Daylight Time),265604.39999997616,015_o_m_d_a.png,I,z,745,18,2,1759.5999999642372,263844.8000000119,8080,VNB,C,17
0,test,3,1.0,1-Back,,,Fri Mar 13 2026 09:20:08 GMT-0500 (Central Daylight Time),265604.39999997616,012_o_f_h_a.png,I,space,1930,1,2,1759.5999999642372,263844.8000000119,8080,VNB,C,0
1,test,3,0.0,1-Back,1.0,m,Fri Mar 13 2026 09:20:08 GMT-0500 (Central Daylight Time),271902.5,019_m_f_d_a.png,I,m,1242,2,2,2258.400000035763,269644.09999996424,8080,VNB,C,1
2,test,3,1.0,1-Back,1.0,m,Fri Mar 13 2026 09:20:08 GMT-0500 (Central Daylight Time),273718.6999999881,014_m_m_n_a.png,I,m,791,3,2,1813.0,271905.6999999881,8080,VNB,C,2
3,test,3,0.0,1-Back,1.0,z,Fri Mar 13 2026 09:20:08 GMT-0500 (Central Daylight Time),275801.3000000119,012_o_f_n_a.png,I,z,1057,4,2,2076.100000023842,273725.1999999881,8080,VNB,C,3
4,test,3,1.0,1-Back,1.0,m,Fri Mar 13 2026 09:20:08 GMT-0500 (Central Daylight Time),277583.8000000119,015_o_m_d_a.png,I,m,765,5,2,1779.9000000357628,275803.89999997616,8080,VNB,C,4
5,test,3,0.0,1-Back,1.0,m,Fri Mar 13 2026 09:20:08 GMT-0500 (Central Daylight Time),279316.89999997616,022_y_f_h_a.png,I,m,702,6,2,1727.300000011921,277589.59999996424,8080,VNB,C,5
6,test,3,0.0,1-Back,1.0,z,Fri Mar 13 2026 09:20:08 GMT-0500 (Central Daylight Time),280933.0,025_y_m_h_a.png,I,z,593,7,2,1613.6000000238419,279319.39999997616,8080,VNB,C,6
7,test,3,0.0,1-Back,1.0,m,Fri Mar 13 2026 09:20:08 GMT-0500 (Central Daylight Time),282782.5,019_m_f_n_a.png,I,m,825,8,2,1844.4000000357628,280938.09999996424,8080,VNB,C,7
8,test,3,0.0,1-Back,1.0,m,Fri Mar 13 2026 09:20:08 GMT-0500 (Central Daylight Time),284581.8000000119,022_y_f_d_a.png,I,m,769,9,2,1796.9000000357628,282784.89999997616,8080,VNB,C,8
9,test,3,1.0,1-Back,1.0,m,Fri Mar 13 2026 09:20:08 GMT-0500 (Central Daylight Time),286314.59999996424,015_o_m_n_a.png,I,m,712,10,2,1727.199999988079,284587.39999997616,8080,VNB,C,9
10,test,3,0.0,1-Back,1.0,m,Fri Mar 13 2026 09:20:08 GMT-0500 (Central Daylight Time),288130.5,014_m_m_h_a.png,I,m,789,11,2,1812.9000000357628,286317.59999996424,8080,VNB,C,10
11,test,3,0.0,1-Back,1.0,z,Fri Mar 13 2026 09:20:08 GMT-0500 (Central Daylight Time),290130.09999996424,019_m_f_h_a.png,I,z,980,12,2,1993.199999988079,288136.89999997616,8080,VNB,C,11
12,test,3,1.0,1-Back,1.0,m,Fri Mar 13 2026 09:20:08 GMT-0500 (Central Daylight Time),292096.09999996424,012_o_f_d_a.png,I,m,949,13,2,1963.3999999761581,290132.6999999881,8080,VNB,C,12
13,test,3,0.0,1-Back,1.0,z,Fri Mar 13 2026 09:20:08 GMT-0500 (Central Daylight Time),293978.89999997616,014_m_m_d_a.png,I,z,861,14,2,1876.199999988079,292102.6999999881,8080,VNB,C,13
14,test,3,0.0,1-Back,1.0,m,Fri Mar 13 2026 09:20:08 GMT-0500 (Central Daylight Time),295978.39999997616,025_y_m_n_a.png,I,m,979,15,2,1996.800000011921,293981.59999996424,8080,VNB,C,14
15,test,3,1.0,1-Back,1.0,m,Fri Mar 13 2026 09:20:08 GMT-0500 (Central Daylight Time),297827.8000000119,015_o_m_h_a.png,I,m,820,16,2,1842.7000000476837,295985.09999996424,8080,VNB,C,15
16,test,3,0.0,1-Back,1.0,m,Fri Mar 13 2026 09:20:08 GMT-0500 (Central Daylight Time),299727.09999996424,025_y_m_d_a.png,I,m,876,17,2,1896.699999988079,297830.39999997616,8080,VNB,C,16
17,test,3,1.0,1-Back,1.0,m,Fri Mar 13 2026 09:20:08 GMT-0500 (Central Daylight Time),301709.6999999881,022_y_f_n_a.png,I,m,952,18,2,1977.199999988079,299732.5,8080,VNB,C,17
0,test,4,1.0,1-Back,,,Fri Mar 13 2026 09:20:08 GMT-0500 (Central Daylight Time),301709.6999999881,014_m_m_d_a.png,I,space,2009,1,2,1977.199999988079,299732.5,8080,VNB,C,0
1,test,4,0.0,1-Back,1.0,z,Fri Mar 13 2026 09:20:08 GMT-0500 (Central Daylight Time),307760.6999999881,015_o_m_d_a.png,I,z,985,2,2,2012.800000011921,305747.89999997616,8080,VNB,C,1
2,test,4,0.0,1-Back,1.0,m,Fri Mar 13 2026 09:20:08 GMT-0500 (Central Daylight Time),309474.09999996424,025_y_m_h_a.png,I,m,688,3,2,1711.0999999642372,307763.0,8080,VNB,C,2
3,test,4,0.0,1-Back,1.0,m,Fri Mar 13 2026 09:20:08 GMT-0500 (Central Daylight Time),311323.39999997616,019_m_f_n_a.png,I,m,820,4,2,1843.300000011921,309480.09999996424,8080,VNB,C,3
4,test,4,1.0,1-Back,1.0,m,Fri Mar 13 2026 09:20:08 GMT-0500 (Central Daylight Time),313189.59999996424,012_o_f_h_a.png,I,m,844,5,2,1863.5999999642372,311326.0,8080,VNB,C,4
5,test,4,0.0,1-Back,1.0,m,Fri Mar 13 2026 09:20:08 GMT-0500 (Central Daylight Time),314888.89999997616,014_m_m_n_a.png,I,m,682,6,2,1693.699999988079,313195.1999999881,8080,VNB,C,5
6,test,4,0.0,1-Back,1.0,m,Fri Mar 13 2026 09:20:08 GMT-0500 (Central Daylight Time),316605.3000000119,025_y_m_d_a.png,I,m,693,7,2,1714.1000000238419,314891.1999999881,8080,VNB,C,6
6,test,4,1.0,1-Back,0.0,z,Fri Mar 13 2026 09:20:08 GMT-0500 (Central Daylight Time),319037.59999996424,022_y_f_d_a.png,I,m,1401,8,2,2426.2999999523163,316611.3000000119,8080,VNB,C,7
7,test,4,0.0,1-Back,1.0,m,Fri Mar 13 2026 09:20:08 GMT-0500 (Central Daylight Time),320937.1999999881,019_m_f_h_a.png,I,m,880,9,2,1896.8999999761581,319040.3000000119,8080,VNB,C,8
8,test,4,0.0,1-Back,1.0,z,Fri Mar 13 2026 09:20:08 GMT-0500 (Central Daylight Time),322770.09999996424,015_o_m_h_a.png,I,z,805,10,2,1826.3999999761581,320943.6999999881,8080,VNB,C,9
9,test,4,1.0,1-Back,1.0,m,Fri Mar 13 2026 09:20:08 GMT-0500 (Central Daylight Time),324686.09999996424,012_o_f_n_a.png,I,m,885,11,2,1913.0,322773.09999996424,8080,VNB,C,10
10,test,4,0.0,1-Back,1.0,m,Fri Mar 13 2026 09:20:08 GMT-0500 (Central Daylight Time),326502.09999996424,019_m_f_d_a.png,I,m,792,12,2,1811.199999988079,324690.89999997616,8080,VNB,C,11
11,test,4,0.0,1-Back,1.0,m,Fri Mar 13 2026 09:20:08 GMT-0500 (Central Daylight Time),328434.89999997616,022_y_f_n_a.png,I,m,913,13,2,1930.0999999642372,326504.8000000119,8080,VNB,C,12
12,test,4,0.0,1-Back,1.0,m,Fri Mar 13 2026 09:20:08 GMT-0500 (Central Daylight Time),330151.0,012_o_f_d_a.png,I,m,683,14,2,1710.4000000357628,328440.59999996424,8080,VNB,C,13
13,test,4,0.0,1-Back,1.0,m,Fri Mar 13 2026 09:20:08 GMT-0500 (Central Daylight Time),332150.3000000119,022_y_f_h_a.png,I,m,975,15,2,1996.7000000476837,330153.59999996424,8080,VNB,C,14
14,test,4,1.0,1-Back,1.0,z,Fri Mar 13 2026 09:20:08 GMT-0500 (Central Daylight Time),333866.5,014_m_m_h_a.png,I,z,696,16,2,1710.5,332156.0,8080,VNB,C,15
15,test,4,0.0,1-Back,1.0,m,Fri Mar 13 2026 09:20:08 GMT-0500 (Central Daylight Time),335899.1999999881,015_o_m_n_a.png,I,m,1005,17,2,2030.199999988079,333869.0,8080,VNB,C,16
16,test,4,1.0,1-Back,1.0,z,Fri Mar 13 2026 09:20:08 GMT-0500 (Central Daylight Time),337748.59999996424,025_y_m_n_a.png,I,z,827,18,2,1844.3999999761581,335904.1999999881,8080,VNB,C,17
0,test,5,1.0,1-Back,,,Fri Mar 13 2026 09:20:08 GMT-0500 (Central Daylight Time),337748.59999996424,015_o_m_n_a.png,I,space,1962,1,2,1844.3999999761581,335904.1999999881,8080,VNB,C,0
1,test,5,1.0,1-Back,1.0,m,Fri Mar 13 2026 09:20:08 GMT-0500 (Central Daylight Time),343464.0,012_o_f_h_a.png,I,m,717,2,2,1727.4000000357628,341736.59999996424,8080,VNB,C,1
2,test,5,0.0,1-Back,1.0,m,Fri Mar 13 2026 09:20:08 GMT-0500 (Central Daylight Time),345213.0,025_y_m_d_a.png,I,m,728,3,2,1746.6000000238419,343466.39999997616,8080,VNB,C,2
3,test,5,0.0,1-Back,1.0,z,Fri Mar 13 2026 09:20:08 GMT-0500 (Central Daylight Time),346995.8000000119,015_o_m_d_a.png,I,z,762,4,2,1776.9000000357628,345218.89999997616,8080,VNB,C,3
4,test,5,0.0,1-Back,1.0,m,Fri Mar 13 2026 09:20:08 GMT-0500 (Central Daylight Time),349378.1999999881,019_m_f_h_a.png,I,m,1356,5,2,2379.899999976158,346998.3000000119,8080,VNB,C,4
5,test,5,0.0,1-Back,1.0,m,Fri Mar 13 2026 09:20:08 GMT-0500 (Central Daylight Time),351627.6999999881,022_y_f_n_a.png,I,m,1228,6,2,2243.5,349384.1999999881,8080,VNB,C,5
6,test,5,1.0,1-Back,1.0,z,Fri Mar 13 2026 09:20:08 GMT-0500 (Central Daylight Time),353660.3000000119,012_o_f_n_a.png,I,z,1010,7,2,2029.9000000357628,351630.39999997616,8080,VNB,C,6
7,test,5,0.0,1-Back,1.0,m,Fri Mar 13 2026 09:20:08 GMT-0500 (Central Daylight Time),355676.39999997616,019_m_f_d_a.png,I,m,986,8,2,2010.0,353666.39999997616,8080,VNB,C,7
8,test,5,0.0,1-Back,1.0,m,Fri Mar 13 2026 09:20:08 GMT-0500 (Central Daylight Time),357509.1999999881,025_y_m_h_a.png,I,m,810,9,2,1830.300000011921,355678.89999997616,8080,VNB,C,8
9,test,5,0.0,1-Back,1.0,m,Fri Mar 13 2026 09:20:08 GMT-0500 (Central Daylight Time),359441.89999997616,022_y_f_d_a.png,I,m,913,10,2,1926.5999999642372,357515.3000000119,8080,VNB,C,9
10,test,5,0.0,1-Back,1.0,m,Fri Mar 13 2026 09:20:08 GMT-0500 (Central Daylight Time),361291.3000000119,014_m_m_n_a.png,I,m,828,11,2,1846.2000000476837,359445.09999996424,8080,VNB,C,10
11,test,5,1.0,1-Back,1.0,z,Fri Mar 13 2026 09:20:08 GMT-0500 (Central Daylight Time),363207.5,019_m_f_n_a.png,I,z,883,12,2,1910.800000011921,361296.6999999881,8080,VNB,C,11
12,test,5,0.0,1-Back,1.0,m,Fri Mar 13 2026 09:20:08 GMT-0500 (Central Daylight Time),365074.6999999881,015_o_m_h_a.png,I,m,839,13,2,1864.800000011921,363209.89999997616,8080,VNB,C,12
13,test,5,0.0,1-Back,1.0,z,Fri Mar 13 2026 09:20:08 GMT-0500 (Central Daylight Time),366823.39999997616,014_m_m_h_a.png,I,z,717,14,2,1743.300000011921,365080.09999996424,8080,VNB,C,13
14,test,5,1.0,1-Back,1.0,m,Fri Mar 13 2026 09:20:08 GMT-0500 (Central Daylight Time),368655.6999999881,012_o_f_d_a.png,I,m,808,15,2,1829.6000000238419,366826.09999996424,8080,VNB,C,14
15,test,5,0.0,1-Back,1.0,m,Fri Mar 13 2026 09:20:08 GMT-0500 (Central Daylight Time),370488.59999996424,025_y_m_n_a.png,I,m,800,16,2,1827.8999999761581,368660.6999999881,8080,VNB,C,15
16,test,5,0.0,1-Back,1.0,m,Fri Mar 13 2026 09:20:08 GMT-0500 (Central Daylight Time),372254.59999996424,022_y_f_h_a.png,I,m,734,17,2,1763.5999999642372,370491.0,8080,VNB,C,16
17,test,5,0.0,1-Back,1.0,m,Fri Mar 13 2026 09:20:08 GMT-0500 (Central Daylight Time),373987.39999997616,014_m_m_d_a.png,I,m,712,18,2,1728.0,372259.39999997616,8080,VNB,C,17
0,prac,1,0.0,2-Back,,,Fri Mar 13 2026 09:20:08 GMT-0500 (Central Daylight Time),373987.39999997616,019_m_f_n_a.png,I,space,16083,1,2,1728.0,372259.39999997616,8080,VNB,C,0
0,prac,1,0.0,2-Back,,,Fri Mar 13 2026 09:20:08 GMT-0500 (Central Daylight Time),373987.39999997616,012_o_f_h_a.png,I,space,16083,2,2,1728.0,372259.39999997616,8080,VNB,C,0
0,prac,1,0.0,2-Back,0.0,m,Fri Mar 13 2026 09:20:08 GMT-0500 (Central Daylight Time),494683.1999999881,015_o_m_d_a.png,I,z,1506,3,2,2379.100000023842,492304.09999996424,8080,VNB,C,1
0,prac,1,1.0,2-Back,0.0,z,Fri Mar 13 2026 09:20:08 GMT-0500 (Central Daylight Time),496532.39999997616,014_m_m_h_a.png,I,m,993,4,2,1840.699999988079,494691.6999999881,8080,VNB,C,2
0,prac,1,0.0,2-Back,0.0,m,Fri Mar 13 2026 09:20:08 GMT-0500 (Central Daylight Time),499415.0,022_y_f_n_a.png,I,None,2012,5,2,2878.699999988079,496536.3000000119,8080,VNB,C,3
0,prac,1,1.0,2-Back,0.0,z,Fri Mar 13 2026 09:20:08 GMT-0500 (Central Daylight Time),501265.8000000119,015_o_m_h_a.png,I,m,978,6,2,1843.300000011921,499422.5,8080,VNB,C,4
1,prac,1,1.0,2-Back,1.0,z,Fri Mar 13 2026 09:20:08 GMT-0500 (Central Daylight Time),503596.59999996424,025_y_m_n_a.png,I,z,1474,7,2,2327.0,501269.59999996424,8080,VNB,C,5
2,prac,1,0.0,2-Back,1.0,m,Fri Mar 13 2026 09:20:08 GMT-0500 (Central Daylight Time),505462.89999997616,019_m_f_d_a.png,I,m,975,8,2,1854.5,503608.39999997616,8080,VNB,C,6
2,prac,1,0.0,2-Back,0.0,m,Fri Mar 13 2026 09:20:08 GMT-0500 (Central Daylight Time),508145.39999997616,012_o_f_d_a.png,I,z,1804,9,2,2678.800000011921,505466.59999996424,8080,VNB,C,7
3,prac,1,0.0,2-Back,1.0,m,Fri Mar 13 2026 09:20:08 GMT-0500 (Central Daylight Time),510344.89999997616,014_m_m_h_a.png,I,m,1412,10,2,2189.300000011921,508155.59999996424,8080,VNB,C,8
4,prac,1,1.0,2-Back,1.0,z,Fri Mar 13 2026 09:20:08 GMT-0500 (Central Daylight Time),512010.89999997616,022_y_f_d_a.png,I,z,791,11,2,1662.5999999642372,510348.3000000119,8080,VNB,C,9
5,prac,1,0.0,2-Back,1.0,m,Fri Mar 13 2026 09:20:08 GMT-0500 (Central Daylight Time),514327.6999999881,015_o_m_n_a.png,I,m,1422,12,2,2308.100000023842,512019.59999996424,8080,VNB,C,10
0,test,1,0.0,2-Back,,,Fri Mar 13 2026 09:20:08 GMT-0500 (Central Daylight Time),514327.6999999881,025_y_m_h_a.png,I,space,10367,1,2,2308.100000023842,512019.59999996424,8080,VNB,C,0
0,test,1,0.0,2-Back,,,Fri Mar 13 2026 09:20:08 GMT-0500 (Central Daylight Time),514327.6999999881,012_o_f_n_a.png,I,space,10367,2,2,2308.100000023842,512019.59999996424,8080,VNB,C,0
1,test,1,0.0,2-Back,1.0,z,Fri Mar 13 2026 09:20:08 GMT-0500 (Central Daylight Time),541151.6999999881,015_o_m_h_a.png,I,z,732,3,2,1746.699999988079,539405.0,8080,VNB,C,1
2,test,1,0.0,2-Back,1.0,m,Fri Mar 13 2026 09:20:08 GMT-0500 (Central Daylight Time),542767.6999999881,019_m_f_d_a.png,I,m,599,4,2,1610.3999999761581,541157.3000000119,8080,VNB,C,2
3,test,1,1.0,2-Back,1.0,m,Fri Mar 13 2026 09:20:08 GMT-0500 (Central Daylight Time),544950.5999999642,025_y_m_n_a.png,I,m,1159,5,2,2180.599999964237,542770.0,8080,VNB,C,3
3,test,1,0.0,2-Back,0.0,z,Fri Mar 13 2026 09:20:08 GMT-0500 (Central Daylight Time),547616.3999999762,022_y_f_d_a.png,I,m,1641,6,2,2659.800000011921,544956.5999999642,8080,VNB,C,4
4,test,1,0.0,2-Back,1.0,m,Fri Mar 13 2026 09:20:08 GMT-0500 (Central Daylight Time),549733.0,014_m_m_h_a.png,I,m,1095,7,2,2114.100000023842,547618.8999999762,8080,VNB,C,5
5,test,1,1.0,2-Back,1.0,m,Fri Mar 13 2026 09:20:08 GMT-0500 (Central Daylight Time),551815.0,022_y_f_n_a.png,I,m,1058,8,2,2075.400000035763,549739.5999999642,8080,VNB,C,6
6,test,1,0.0,2-Back,1.0,z,Fri Mar 13 2026 09:20:08 GMT-0500 (Central Daylight Time),554364.3000000119,012_o_f_h_a.png,I,z,1520,9,2,2547.100000023842,551817.1999999881,8080,VNB,C,7
7,test,1,0.0,2-Back,1.0,m,Fri Mar 13 2026 09:20:08 GMT-0500 (Central Daylight Time),557146.8000000119,015_o_m_d_a.png,I,m,1753,10,2,2776.900000035763,554369.8999999762,8080,VNB,C,8
7,test,1,1.0,2-Back,0.0,m,Fri Mar 13 2026 09:20:08 GMT-0500 (Central Daylight Time),559062.5999999642,014_m_m_d_a.png,I,z,893,11,2,1913.0,557149.5999999642,8080,VNB,C,9
8,test,1,0.0,2-Back,1.0,m,Fri Mar 13 2026 09:20:08 GMT-0500 (Central Daylight Time),561912.0,019_m_f_n_a.png,I,m,1817,12,2,2844.199999988079,559067.8000000119,8080,VNB,C,10
9,test,1,0.0,2-Back,1.0,m,Fri Mar 13 2026 09:20:08 GMT-0500 (Central Daylight Time),564094.5999999642,022_y_f_h_a.png,I,m,1159,13,2,2180.099999964237,561914.5,8080,VNB,C,11
10,test,1,0.0,2-Back,1.0,z,Fri Mar 13 2026 09:20:08 GMT-0500 (Central Daylight Time),565894.0999999642,014_m_m_n_a.png,I,z,768,14,2,1793.8999999761581,564100.1999999881,8080,VNB,C,12
11,test,1,0.0,2-Back,1.0,m,Fri Mar 13 2026 09:20:08 GMT-0500 (Central Daylight Time),567878.1999999881,025_y_m_d_a.png,I,m,962,15,2,1981.6000000238419,565896.5999999642,8080,VNB,C,13
11,test,1,1.0,2-Back,0.0,m,Fri Mar 13 2026 09:20:08 GMT-0500 (Central Daylight Time),570076.0999999642,019_m_f_h_a.png,I,z,1170,16,2,2192.0,567884.0999999642,8080,VNB,C,14
11,test,1,0.0,2-Back,0.0,z,Fri Mar 13 2026 09:20:08 GMT-0500 (Central Daylight Time),572242.0,012_o_f_d_a.png,I,m,1147,17,2,2163.5,570078.5,8080,VNB,C,15
12,test,1,0.0,2-Back,1.0,m,Fri Mar 13 2026 09:20:08 GMT-0500 (Central Daylight Time),574174.8000000119,015_o_m_n_a.png,I,m,900,18,2,1927.4000000357628,572247.3999999762,8080,VNB,C,16
0,test,2,0.0,2-Back,,,Fri Mar 13 2026 09:20:08 GMT-0500 (Central Daylight Time),574174.8000000119,014_m_m_h_a.png,I,space,1417,1,2,1927.4000000357628,572247.3999999762,8080,VNB,C,0
0,test,2,0.0,2-Back,,,Fri Mar 13 2026 09:20:08 GMT-0500 (Central Daylight Time),574174.8000000119,022_y_f_n_a.png,I,space,1417,2,2,1927.4000000357628,572247.3999999762,8080,VNB,C,0
1,test,2,1.0,2-Back,1.0,z,Fri Mar 13 2026 09:20:08 GMT-0500 (Central Daylight Time),582355.5999999642,012_o_f_h_a.png,I,z,496,3,2,1512.5999999642372,580843.0,8080,VNB,C,1
2,test,2,0.0,2-Back,1.0,m,Fri Mar 13 2026 09:20:08 GMT-0500 (Central Daylight Time),584771.5999999642,015_o_m_d_a.png,I,m,1387,4,2,2410.599999964237,582361.0,8080,VNB,C,2
3,test,2,0.0,2-Back,1.0,m,Fri Mar 13 2026 09:20:08 GMT-0500 (Central Daylight Time),586955.8000000119,019_m_f_d_a.png,I,m,1155,5,2,2181.7000000476837,584774.0999999642,8080,VNB,C,3
4,test,2,0.0,2-Back,1.0,m,Fri Mar 13 2026 09:20:08 GMT-0500 (Central Daylight Time),589120.0,025_y_m_h_a.png,I,m,1133,6,2,2158.300000011921,586961.6999999881,8080,VNB,C,4
5,test,2,0.0,2-Back,1.0,m,Fri Mar 13 2026 09:20:08 GMT-0500 (Central Daylight Time),591436.0999999642,012_o_f_n_a.png,I,m,1296,7,2,2314.0,589122.0999999642,8080,VNB,C,5
6,test,2,1.0,2-Back,1.0,z,Fri Mar 13 2026 09:20:08 GMT-0500 (Central Daylight Time),593802.0,015_o_m_h_a.png,I,z,1346,8,2,2360.300000011921,591441.6999999881,8080,VNB,C,6
7,test,2,0.0,2-Back,1.0,m,Fri Mar 13 2026 09:20:08 GMT-0500 (Central Daylight Time),596417.8999999762,022_y_f_d_a.png,I,m,1588,9,2,2613.300000011921,593804.5999999642,8080,VNB,C,7
8,test,2,0.0,2-Back,1.0,m,Fri Mar 13 2026 09:20:08 GMT-0500 (Central Daylight Time),599416.6999999881,025_y_m_d_a.png,I,m,1981,10,2,2993.399999976158,596423.3000000119,8080,VNB,C,8
9,test,2,0.0,2-Back,1.0,m,Fri Mar 13 2026 09:20:08 GMT-0500 (Central Daylight Time),601516.3000000119,014_m_m_n_a.png,I,m,1069,11,2,2097.100000023842,599419.1999999881,8080,VNB,C,9
10,test,2,0.0,2-Back,1.0,m,Fri Mar 13 2026 09:20:08 GMT-0500 (Central Daylight Time),603765.5999999642,019_m_f_h_a.png,I,m,1226,12,2,2246.399999976158,601519.1999999881,8080,VNB,C,10
11,test,2,1.0,2-Back,1.0,z,Fri Mar 13 2026 09:20:08 GMT-0500 (Central Daylight Time),605698.3000000119,015_o_m_n_a.png,I,z,914,13,2,1928.1000000238419,603770.1999999881,8080,VNB,C,11
11,test,2,0.0,2-Back,0.0,m,Fri Mar 13 2026 09:20:08 GMT-0500 (Central Daylight Time),607964.0999999642,012_o_f_d_a.png,I,z,1244,14,2,2263.5,605700.5999999642,8080,VNB,C,12
12,test,2,0.0,2-Back,1.0,m,Fri Mar 13 2026 09:20:08 GMT-0500 (Central Daylight Time),610196.8999999762,022_y_f_h_a.png,I,m,1203,15,2,2228.800000011921,607968.0999999642,8080,VNB,C,13
12,test,2,0.0,2-Back,0.0,z,Fri Mar 13 2026 09:20:08 GMT-0500 (Central Daylight Time),612695.8999999762,014_m_m_d_a.png,I,m,1475,16,2,2496.399999976158,610199.5,8080,VNB,C,14
13,test,2,0.0,2-Back,1.0,m,Fri Mar 13 2026 09:20:08 GMT-0500 (Central Daylight Time),615178.6999999881,025_y_m_n_a.png,I,m,1463,17,2,2478.300000011921,612700.3999999762,8080,VNB,C,15
13,test,2,1.0,2-Back,0.0,m,Fri Mar 13 2026 09:20:08 GMT-0500 (Central Daylight Time),617144.6999999881,019_m_f_n_a.png,I,z,940,18,2,1963.699999988079,615181.0,8080,VNB,C,16
0,test,3,1.0,2-Back,,,Fri Mar 13 2026 09:20:08 GMT-0500 (Central Daylight Time),617144.6999999881,015_o_m_n_a.png,I,space,1215,1,2,1963.699999988079,615181.0,8080,VNB,C,0
0,test,3,1.0,2-Back,,,Fri Mar 13 2026 09:20:08 GMT-0500 (Central Daylight Time),617144.6999999881,012_o_f_d_a.png,I,space,1215,2,2,1963.699999988079,615181.0,8080,VNB,C,0
1,test,3,0.0,2-Back,1.0,m,Fri Mar 13 2026 09:20:08 GMT-0500 (Central Daylight Time),626008.5999999642,022_y_f_h_a.png,I,m,1574,3,2,2592.7999999523163,623415.8000000119,8080,VNB,C,1
2,test,3,0.0,2-Back,1.0,z,Fri Mar 13 2026 09:20:08 GMT-0500 (Central Daylight Time),628391.3999999762,019_m_f_d_a.png,I,z,1351,4,2,2380.300000011921,626011.0999999642,8080,VNB,C,2
2,test,3,1.0,2-Back,0.0,m,Fri Mar 13 2026 09:20:08 GMT-0500 (Central Daylight Time),630424.0,025_y_m_n_a.png,I,z,1016,5,2,2028.199999988079,628395.8000000119,8080,VNB,C,3
3,test,3,0.0,2-Back,1.0,m,Fri Mar 13 2026 09:20:08 GMT-0500 (Central Daylight Time),632673.1999999881,015_o_m_h_a.png,I,m,1224,6,2,2246.899999976158,630426.3000000119,8080,VNB,C,4
3,test,3,0.0,2-Back,0.0,z,Fri Mar 13 2026 09:20:08 GMT-0500 (Central Daylight Time),635705.8000000119,022_y_f_n_a.png,I,None,2016,7,2,3027.0,632678.8000000119,8080,VNB,C,5
3,test,3,1.0,2-Back,0.0,m,Fri Mar 13 2026 09:20:08 GMT-0500 (Central Daylight Time),637673.5999999642,014_m_m_d_a.png,I,z,943,8,2,1965.3999999761581,635708.1999999881,8080,VNB,C,6
3,test,3,0.0,2-Back,0.0,m,Fri Mar 13 2026 09:20:08 GMT-0500 (Central Daylight Time),639504.3000000119,025_y_m_d_a.png,I,z,816,9,2,1826.800000011921,637677.5,8080,VNB,C,7
4,test,3,0.0,2-Back,1.0,m,Fri Mar 13 2026 09:20:08 GMT-0500 (Central Daylight Time),641670.5999999642,012_o_f_h_a.png,I,m,1135,10,2,2164.199999988079,639506.3999999762,8080,VNB,C,8
5,test,3,1.0,2-Back,1.0,m,Fri Mar 13 2026 09:20:08 GMT-0500 (Central Daylight Time),643853.1999999881,019_m_f_n_a.png,I,m,1160,11,2,2178.5,641674.6999999881,8080,VNB,C,9
6,test,3,1.0,2-Back,1.0,z,Fri Mar 13 2026 09:20:08 GMT-0500 (Central Daylight Time),646136.6999999881,014_m_m_h_a.png,I,z,1267,12,2,2281.0,643855.6999999881,8080,VNB,C,10
6,test,3,0.0,2-Back,0.0,m,Fri Mar 13 2026 09:20:08 GMT-0500 (Central Daylight Time),648051.8999999762,022_y_f_d_a.png,I,z,888,13,2,1910.5999999642372,646141.3000000119,8080,VNB,C,11
7,test,3,0.0,2-Back,1.0,m,Fri Mar 13 2026 09:20:08 GMT-0500 (Central Daylight Time),650317.5,012_o_f_n_a.png,I,m,1242,14,2,2263.100000023842,648054.3999999762,8080,VNB,C,12
7,test,3,0.0,2-Back,0.0,z,Fri Mar 13 2026 09:20:08 GMT-0500 (Central Daylight Time),652333.5999999642,015_o_m_d_a.png,I,m,993,15,2,2011.699999988079,650321.8999999762,8080,VNB,C,13
8,test,3,1.0,2-Back,1.0,m,Fri Mar 13 2026 09:20:08 GMT-0500 (Central Daylight Time),654333.0999999642,019_m_f_h_a.png,I,m,969,16,2,1997.2999999523163,652335.8000000119,8080,VNB,C,14
9,test,3,0.0,2-Back,1.0,m,Fri Mar 13 2026 09:20:08 GMT-0500 (Central Daylight Time),656549.0999999642,014_m_m_n_a.png,I,m,1193,17,2,2211.899999976158,654337.1999999881,8080,VNB,C,15
10,test,3,0.0,2-Back,1.0,z,Fri Mar 13 2026 09:20:08 GMT-0500 (Central Daylight Time),658048.3999999762,025_y_m_h_a.png,I,z,482,18,2,1496.800000011921,656551.5999999642,8080,VNB,C,16
0,test,4,0.0,2-Back,,,Fri Mar 13 2026 09:20:08 GMT-0500 (Central Daylight Time),658048.3999999762,019_m_f_n_a.png,I,space,1478,1,2,1496.800000011921,656551.5999999642,8080,VNB,C,0
0,test,4,0.0,2-Back,,,Fri Mar 13 2026 09:20:08 GMT-0500 (Central Daylight Time),658048.3999999762,015_o_m_n_a.png,I,space,1478,2,2,1496.800000011921,656551.5999999642,8080,VNB,C,0
1,test,4,1.0,2-Back,1.0,m,Fri Mar 13 2026 09:20:08 GMT-0500 (Central Daylight Time),666945.8999999762,025_y_m_h_a.png,I,m,1139,3,2,2161.699999988079,664784.1999999881,8080,VNB,C,1
2,test,4,1.0,2-Back,1.0,m,Fri Mar 13 2026 09:20:08 GMT-0500 (Central Daylight Time),669078.5,012_o_f_d_a.png,I,m,1109,4,2,2130.100000023842,666948.3999999762,8080,VNB,C,2
2,test,4,0.0,2-Back,0.0,z,Fri Mar 13 2026 09:20:08 GMT-0500 (Central Daylight Time),671295.8999999762,015_o_m_h_a.png,I,m,1184,5,2,2212.899999976158,669083.0,8080,VNB,C,3
2,test,4,0.0,2-Back,0.0,m,Fri Mar 13 2026 09:20:08 GMT-0500 (Central Daylight Time),673393.5999999642,014_m_m_n_a.png,I,z,1073,6,2,2095.199999988079,671298.3999999762,8080,VNB,C,4
2,test,4,0.0,2-Back,0.0,m,Fri Mar 13 2026 09:20:08 GMT-0500 (Central Daylight Time),675293.0999999642,019_m_f_d_a.png,I,z,877,7,2,1895.0999999642372,673398.0,8080,VNB,C,5
2,test,4,0.0,2-Back,0.0,z,Fri Mar 13 2026 09:20:08 GMT-0500 (Central Daylight Time),677425.8000000119,022_y_f_n_a.png,I,m,1105,8,2,2130.5,675295.3000000119,8080,VNB,C,6
3,test,4,1.0,2-Back,1.0,m,Fri Mar 13 2026 09:20:08 GMT-0500 (Central Daylight Time),679625.0,012_o_f_h_a.png,I,m,1181,9,2,2194.600000023842,677430.3999999762,8080,VNB,C,7
4,test,4,0.0,2-Back,1.0,m,Fri Mar 13 2026 09:20:08 GMT-0500 (Central Daylight Time),682141.0,014_m_m_h_a.png,I,m,1494,10,2,2513.699999988079,679627.3000000119,8080,VNB,C,8
5,test,4,0.0,2-Back,1.0,m,Fri Mar 13 2026 09:20:08 GMT-0500 (Central Daylight Time),684373.5999999642,022_y_f_d_a.png,I,m,1202,11,2,2227.099999964237,682146.5,8080,VNB,C,9
5,test,4,0.0,2-Back,0.0,m,Fri Mar 13 2026 09:20:08 GMT-0500 (Central Daylight Time),686172.8999999762,025_y_m_n_a.png,I,z,777,12,2,1796.300000011921,684376.5999999642,8080,VNB,C,10
6,test,4,0.0,2-Back,1.0,z,Fri Mar 13 2026 09:20:08 GMT-0500 (Central Daylight Time),688672.5,015_o_m_d_a.png,I,z,1482,13,2,2495.400000035763,686177.0999999642,8080,VNB,C,11
7,test,4,1.0,2-Back,1.0,m,Fri Mar 13 2026 09:20:08 GMT-0500 (Central Daylight Time),690804.8999999762,019_m_f_h_a.png,I,m,1103,14,2,2129.800000011921,688675.0999999642,8080,VNB,C,12
8,test,4,1.0,2-Back,1.0,m,Fri Mar 13 2026 09:20:08 GMT-0500 (Central Daylight Time),692971.0,022_y_f_h_a.png,I,m,1146,15,2,2161.300000011921,690809.6999999881,8080,VNB,C,13
9,test,4,0.0,2-Back,1.0,m,Fri Mar 13 2026 09:20:08 GMT-0500 (Central Daylight Time),695670.0999999642,012_o_f_n_a.png,I,m,1676,16,2,2696.599999964237,692973.5,8080,VNB,C,14
10,test,4,0.0,2-Back,1.0,m,Fri Mar 13 2026 09:20:08 GMT-0500 (Central Daylight Time),697586.3000000119,025_y_m_d_a.png,I,m,888,17,2,1911.1000000238419,695675.1999999881,8080,VNB,C,15
10,test,4,1.0,2-Back,0.0,m,Fri Mar 13 2026 09:20:08 GMT-0500 (Central Daylight Time),699535.5999999642,014_m_m_d_a.png,I,z,925,18,2,1946.8999999761581,697588.6999999881,8080,VNB,C,16
0,test,5,1.0,2-Back,,,Fri Mar 13 2026 09:20:08 GMT-0500 (Central Daylight Time),699535.5999999642,022_y_f_d_a.png,I,space,1471,1,2,1946.8999999761581,697588.6999999881,8080,VNB,C,0
0,test,5,1.0,2-Back,,,Fri Mar 13 2026 09:20:08 GMT-0500 (Central Daylight Time),699535.5999999642,012_o_f_h_a.png,I,space,1471,2,2,1946.8999999761581,697588.6999999881,8080,VNB,C,0
1,test,5,1.0,2-Back,1.0,z,Fri Mar 13 2026 09:20:08 GMT-0500 (Central Daylight Time),707816.3999999762,015_o_m_d_a.png,I,z,549,3,2,1561.699999988079,706254.6999999881,8080,VNB,C,1
2,test,5,1.0,2-Back,1.0,m,Fri Mar 13 2026 09:20:08 GMT-0500 (Central Daylight Time),709799.0,019_m_f_n_a.png,I,m,950,4,2,1980.0,707819.0,8080,VNB,C,2
3,test,5,0.0,2-Back,1.0,m,Fri Mar 13 2026 09:20:08 GMT-0500 (Central Daylight Time),711748.5999999642,014_m_m_h_a.png,I,m,928,5,2,1944.0999999642372,709804.5,8080,VNB,C,3
4,test,5,0.0,2-Back,1.0,z,Fri Mar 13 2026 09:20:08 GMT-0500 (Central Daylight Time),713847.8999999762,022_y_f_n_a.png,I,z,1067,6,2,2096.899999976158,711751.0,8080,VNB,C,4
4,test,5,0.0,2-Back,0.0,m,Fri Mar 13 2026 09:20:08 GMT-0500 (Central Daylight Time),716446.8000000119,012_o_f_d_a.png,I,z,1567,7,2,2595.100000023842,713851.6999999881,8080,VNB,C,5
5,test,5,0.0,2-Back,1.0,m,Fri Mar 13 2026 09:20:08 GMT-0500 (Central Daylight Time),719062.8000000119,015_o_m_h_a.png,I,m,1583,8,2,2613.600000023842,716449.1999999881,8080,VNB,C,6
5,test,5,1.0,2-Back,0.0,z,Fri Mar 13 2026 09:20:08 GMT-0500 (Central Daylight Time),721695.3999999762,019_m_f_d_a.png,I,m,1609,9,2,2628.699999988079,719066.6999999881,8080,VNB,C,7
6,test,5,0.0,2-Back,1.0,m,Fri Mar 13 2026 09:20:08 GMT-0500 (Central Daylight Time),723928.0,025_y_m_n_a.png,I,m,1200,10,2,2230.199999988079,721697.8000000119,8080,VNB,C,8
6,test,5,0.0,2-Back,0.0,m,Fri Mar 13 2026 09:20:08 GMT-0500 (Central Daylight Time),726143.8999999762,014_m_m_n_a.png,I,z,1189,11,2,2212.0,723931.8999999762,8080,VNB,C,9
7,test,5,0.0,2-Back,1.0,m,Fri Mar 13 2026 09:20:08 GMT-0500 (Central Daylight Time),728676.5999999642,022_y_f_h_a.png,I,m,1503,12,2,2530.0,726146.5999999642,8080,VNB,C,10
8,test,5,0.0,2-Back,1.0,m,Fri Mar 13 2026 09:20:08 GMT-0500 (Central Daylight Time),731109.0999999642,025_y_m_d_a.png,I,m,1410,13,2,2428.5,728680.5999999642,8080,VNB,C,11
9,test,5,1.0,2-Back,1.0,z,Fri Mar 13 2026 09:20:08 GMT-0500 (Central Daylight Time),733475.0,019_m_f_h_a.png,I,z,1345,14,2,2363.400000035763,731111.5999999642,8080,VNB,C,12
10,test,5,0.0,2-Back,1.0,m,Fri Mar 13 2026 09:20:08 GMT-0500 (Central Daylight Time),735507.5999999642,015_o_m_n_a.png,I,m,1011,15,2,2028.0999999642372,733479.5,8080,VNB,C,13
10,test,5,0.0,2-Back,0.0,m,Fri Mar 13 2026 09:20:08 GMT-0500 (Central Daylight Time),737440.3999999762,014_m_m_d_a.png,I,z,908,16,2,1930.5,735509.8999999762,8080,VNB,C,14
10,test,5,0.0,2-Back,0.0,z,Fri Mar 13 2026 09:20:08 GMT-0500 (Central Daylight Time),739390.0999999642,012_o_f_n_a.png,I,m,926,17,2,1944.7999999523163,737445.3000000119,8080,VNB,C,15
11,test,5,1.0,2-Back,1.0,m,Fri Mar 13 2026 09:20:08 GMT-0500 (Central Daylight Time),741323.0999999642,025_y_m_h_a.png,I,m,912,18,2,1930.699999988079,739392.3999999762,8080,VNB,C,16
