acc_sum,block,block_c,change,condition,correct,correct_response,datetime,endtime,face,project,response,response_time,row_sel,session_number,start_end,starttime,subject_id,task,task_vers,trial
0,prac,1,,1-Back,,,Mon Jul 21 2025 16:35:59 GMT-0500 (Central Daylight Time),,093_m_f_n_a.png,O,space,11670,1,1,,,7182,NNB,C,0
0,prac,1,0.0,1-Back,0,m,Mon Jul 21 2025 16:35:59 GMT-0500 (Central Daylight Time),136274.19999998808,098_y_f_n_a.png,O,None,2013,2,1,2914.9000000059605,133359.29999998212,7182,NNB,C,1
0,prac,1,1.0,1-Back,0,z,Mon Jul 21 2025 16:35:59 GMT-0500 (Central Daylight Time),138107.0,098_y_f_n_a.png,O,m,1020,3,1,1804.9000000059605,136302.09999999404,7182,NNB,C,2
0,prac,1,0.0,1-Back,0,m,Mon Jul 21 2025 16:35:59 GMT-0500 (Central Daylight Time),141072.40000000596,059_o_m_n_a.png,O,None,2010,4,1,2936.2000000178814,138136.19999998808,7182,NNB,C,3
1,prac,1,0.0,1-Back,1,m,Mon Jul 21 2025 16:35:59 GMT-0500 (Central Daylight Time),143571.69999998808,092_m_m_n_a.png,O,m,1555,5,1,2472.0,141099.69999998808,7182,NNB,C,4
2,prac,1,1.0,1-Back,1,z,Mon Jul 21 2025 16:35:59 GMT-0500 (Central Daylight Time),145387.90000000596,092_m_m_n_a.png,O,z,1009,6,1,1785.300000011921,143602.59999999404,7182,NNB,C,5
3,prac,1,0.0,1-Back,1,m,Mon Jul 21 2025 16:35:59 GMT-0500 (Central Daylight Time),147020.79999998212,130_o_f_n_a.png,O,m,657,7,1,1596.8999999761581,145423.90000000596,7182,NNB,C,6
3,prac,1,0.0,1-Back,0,m,Mon Jul 21 2025 16:35:59 GMT-0500 (Central Daylight Time),148620.59999999404,082_m_m_n_a.png,O,z,653,8,1,1567.199999988079,147053.40000000596,7182,NNB,C,7
4,prac,1,0.0,1-Back,1,m,Mon Jul 21 2025 16:35:59 GMT-0500 (Central Daylight Time),150269.40000000596,093_m_f_n_a.png,O,m,716,9,1,1622.0,148647.40000000596,7182,NNB,C,8
5,prac,1,1.0,1-Back,1,z,Mon Jul 21 2025 16:35:59 GMT-0500 (Central Daylight Time),151985.59999999404,093_m_f_n_a.png,O,z,907,10,1,1689.699999988079,150295.90000000596,7182,NNB,C,9
6,prac,1,0.0,1-Back,1,m,Mon Jul 21 2025 16:35:59 GMT-0500 (Central Daylight Time),153668.5,059_o_m_n_a.png,O,m,719,11,1,1648.5,152020.0,7182,NNB,C,10
7,prac,1,0.0,1-Back,1,m,Mon Jul 21 2025 16:35:59 GMT-0500 (Central Daylight Time),155384.69999998808,028_y_f_n_a.png,O,m,761,12,1,1674.7999999821186,153709.90000000596,7182,NNB,C,11
0,prac,2,0.0,1-Back,,,Mon Jul 21 2025 16:35:59 GMT-0500 (Central Daylight Time),155384.69999998808,093_m_f_n_a.png,O,a,11504,1,1,1674.7999999821186,153709.90000000596,7182,NNB,C,0
1,prac,2,0.0,1-Back,1,m,Mon Jul 21 2025 16:35:59 GMT-0500 (Central Daylight Time),172179.0,098_y_f_n_a.png,O,m,1296,2,1,2197.9000000059605,169981.09999999404,7182,NNB,C,1
2,prac,2,1.0,1-Back,1,z,Mon Jul 21 2025 16:35:59 GMT-0500 (Central Daylight Time),174661.59999999404,098_y_f_n_a.png,O,z,1669,3,1,2448.300000011921,172213.29999998212,7182,NNB,C,2
3,prac,2,0.0,1-Back,1,m,Mon Jul 21 2025 16:35:59 GMT-0500 (Central Daylight Time),176661.0,059_o_m_n_a.png,O,m,1191,4,1,1961.9000000059605,174699.09999999404,7182,NNB,C,3
4,prac,2,0.0,1-Back,1,m,Mon Jul 21 2025 16:35:59 GMT-0500 (Central Daylight Time),178860.40000000596,092_m_m_n_a.png,O,m,1244,5,1,2164.0,176696.40000000596,7182,NNB,C,4
5,prac,2,1.0,1-Back,1,z,Mon Jul 21 2025 16:35:59 GMT-0500 (Central Daylight Time),180609.79999998212,092_m_m_n_a.png,O,z,938,6,1,1712.7999999821186,178897.0,7182,NNB,C,5
6,prac,2,0.0,1-Back,1,m,Mon Jul 21 2025 16:35:59 GMT-0500 (Central Daylight Time),182342.79999998212,130_o_f_n_a.png,O,m,763,7,1,1702.7999999821186,180640.0,7182,NNB,C,6
7,prac,2,0.0,1-Back,1,m,Mon Jul 21 2025 16:35:59 GMT-0500 (Central Daylight Time),184158.40000000596,082_m_m_n_a.png,O,m,866,8,1,1781.300000011921,182377.09999999404,7182,NNB,C,7
8,prac,2,0.0,1-Back,1,m,Mon Jul 21 2025 16:35:59 GMT-0500 (Central Daylight Time),186024.90000000596,093_m_f_n_a.png,O,m,907,9,1,1827.300000011921,184197.59999999404,7182,NNB,C,8
9,prac,2,1.0,1-Back,1,z,Mon Jul 21 2025 16:35:59 GMT-0500 (Central Daylight Time),187624.19999998808,093_m_f_n_a.png,O,z,790,10,1,1564.0,186060.19999998808,7182,NNB,C,9
10,prac,2,0.0,1-Back,1,m,Mon Jul 21 2025 16:35:59 GMT-0500 (Central Daylight Time),189423.79999998212,059_o_m_n_a.png,O,m,856,11,1,1768.5999999940395,187655.19999998808,7182,NNB,C,10
11,prac,2,0.0,1-Back,1,m,Mon Jul 21 2025 16:35:59 GMT-0500 (Central Daylight Time),191256.40000000596,028_y_f_n_a.png,O,m,887,12,1,1799.2000000178814,189457.19999998808,7182,NNB,C,11
0,test,1,0.0,1-Back,,,Mon Jul 21 2025 16:35:59 GMT-0500 (Central Daylight Time),191256.40000000596,098_y_f_n_a.png,O,space,12704,1,1,1799.2000000178814,189457.19999998808,7182,NNB,C,0
1,test,1,0.0,1-Back,1,m,Mon Jul 21 2025 16:35:59 GMT-0500 (Central Daylight Time),216847.40000000596,006_m_f_n_a.png,O,m,894,2,1,1905.5,214941.90000000596,7182,NNB,C,1
2,test,1,0.0,1-Back,1,m,Mon Jul 21 2025 16:35:59 GMT-0500 (Central Daylight Time),218797.09999999404,028_y_f_n_a.png,O,m,923,3,1,1940.300000011921,216856.79999998212,7182,NNB,C,2
3,test,1,1.0,1-Back,1,z,Mon Jul 21 2025 16:35:59 GMT-0500 (Central Daylight Time),220529.5,028_y_f_n_a.png,O,z,693,4,1,1713.0999999940395,218816.40000000596,7182,NNB,C,3
4,test,1,0.0,1-Back,1,m,Mon Jul 21 2025 16:35:59 GMT-0500 (Central Daylight Time),222379.29999998212,006_m_f_n_a.png,O,m,801,5,1,1827.199999988079,220552.09999999404,7182,NNB,C,4
5,test,1,0.0,1-Back,1,m,Mon Jul 21 2025 16:35:59 GMT-0500 (Central Daylight Time),224378.09999999404,059_o_m_n_a.png,O,m,959,6,1,1974.699999988079,222403.40000000596,7182,NNB,C,5
6,test,1,1.0,1-Back,1,z,Mon Jul 21 2025 16:35:59 GMT-0500 (Central Daylight Time),226128.09999999404,059_o_m_n_a.png,O,z,728,7,1,1739.9000000059605,224388.19999998808,7182,NNB,C,6
7,test,1,0.0,1-Back,1,m,Mon Jul 21 2025 16:35:59 GMT-0500 (Central Daylight Time),227827.5,092_m_m_n_a.png,O,m,658,8,1,1675.800000011921,226151.69999998808,7182,NNB,C,7
8,test,1,0.0,1-Back,1,m,Mon Jul 21 2025 16:35:59 GMT-0500 (Central Daylight Time),229559.29999998212,130_o_f_n_a.png,O,m,694,9,1,1713.0999999940395,227846.19999998808,7182,NNB,C,8
9,test,1,0.0,1-Back,1,m,Mon Jul 21 2025 16:35:59 GMT-0500 (Central Daylight Time),231393.09999999404,092_m_m_n_a.png,O,m,803,10,1,1825.199999988079,229567.90000000596,7182,NNB,C,9
10,test,1,0.0,1-Back,1,m,Mon Jul 21 2025 16:35:59 GMT-0500 (Central Daylight Time),233125.59999999404,057_y_m_n_a.png,O,m,689,11,1,1710.199999988079,231415.40000000596,7182,NNB,C,10
11,test,1,1.0,1-Back,1,z,Mon Jul 21 2025 16:35:59 GMT-0500 (Central Daylight Time),234791.90000000596,057_y_m_n_a.png,O,z,630,12,1,1643.5,233148.40000000596,7182,NNB,C,11
12,test,1,0.0,1-Back,1,m,Mon Jul 21 2025 16:35:59 GMT-0500 (Central Daylight Time),236624.59999999404,030_o_f_n_a.png,O,m,794,13,1,1811.800000011921,234812.79999998212,7182,NNB,C,12
13,test,1,1.0,1-Back,1,z,Mon Jul 21 2025 16:35:59 GMT-0500 (Central Daylight Time),238457.19999998808,030_o_f_n_a.png,O,z,794,14,1,1809.0999999940395,236648.09999999404,7182,NNB,C,13
14,test,1,0.0,1-Back,1,m,Mon Jul 21 2025 16:35:59 GMT-0500 (Central Daylight Time),240440.0,031_y_m_n_a.png,O,m,937,15,1,1958.7000000178814,238481.29999998212,7182,NNB,C,14
15,test,1,0.0,1-Back,1,m,Mon Jul 21 2025 16:35:59 GMT-0500 (Central Daylight Time),242239.40000000596,093_m_f_n_a.png,O,m,754,16,1,1775.1000000238419,240464.29999998212,7182,NNB,C,15
16,test,1,0.0,1-Back,1,m,Mon Jul 21 2025 16:35:59 GMT-0500 (Central Daylight Time),244021.69999998808,146_o_m_n_a.png,O,m,748,17,1,1760.5,242261.19999998808,7182,NNB,C,16
17,test,1,0.0,1-Back,1,m,Mon Jul 21 2025 16:35:59 GMT-0500 (Central Daylight Time),245888.0,093_m_f_n_a.png,O,m,829,18,1,1846.5,244041.5,7182,NNB,C,17
0,test,2,0.0,1-Back,,,Mon Jul 21 2025 16:35:59 GMT-0500 (Central Daylight Time),245888.0,092_m_m_n_a.png,O,space,4298,1,1,1846.5,244041.5,7182,NNB,C,0
1,test,2,0.0,1-Back,1,m,Mon Jul 21 2025 16:35:59 GMT-0500 (Central Daylight Time),254435.40000000596,006_m_f_n_a.png,O,m,1025,2,1,2039.7000000178814,252395.69999998808,7182,NNB,C,1
2,test,2,1.0,1-Back,1,z,Mon Jul 21 2025 16:35:59 GMT-0500 (Central Daylight Time),256101.5,006_m_f_n_a.png,O,z,633,3,1,1643.4000000059605,254458.09999999404,7182,NNB,C,2
3,test,2,0.0,1-Back,1,m,Mon Jul 21 2025 16:35:59 GMT-0500 (Central Daylight Time),257867.59999999404,092_m_m_n_a.png,O,m,717,4,1,1743.800000011921,256123.79999998212,7182,NNB,C,3
4,test,2,0.0,1-Back,1,m,Mon Jul 21 2025 16:35:59 GMT-0500 (Central Daylight Time),259533.40000000596,057_y_m_n_a.png,O,m,631,5,1,1644.1000000238419,257889.29999998212,7182,NNB,C,4
5,test,2,0.0,1-Back,1,m,Mon Jul 21 2025 16:35:59 GMT-0500 (Central Daylight Time),261166.5,098_y_f_n_a.png,O,m,589,6,1,1615.0,259551.5,7182,NNB,C,5
6,test,2,1.0,1-Back,1,z,Mon Jul 21 2025 16:35:59 GMT-0500 (Central Daylight Time),262865.2999999821,098_y_f_n_a.png,O,z,659,7,1,1673.3999999761581,261191.90000000596,7182,NNB,C,6
7,test,2,0.0,1-Back,1,m,Mon Jul 21 2025 16:35:59 GMT-0500 (Central Daylight Time),264682.09999999404,057_y_m_n_a.png,O,m,793,8,1,1810.800000011921,262871.2999999821,7182,NNB,C,7
8,test,2,0.0,1-Back,1,m,Mon Jul 21 2025 16:35:59 GMT-0500 (Central Daylight Time),266414.90000000596,030_o_f_n_a.png,O,m,689,9,1,1710.2000000178814,264704.6999999881,7182,NNB,C,8
9,test,2,0.0,1-Back,1,m,Mon Jul 21 2025 16:35:59 GMT-0500 (Central Daylight Time),268263.2999999821,082_m_m_n_a.png,O,m,802,10,1,1823.7999999821186,266439.5,7182,NNB,C,9
10,test,2,1.0,1-Back,1,z,Mon Jul 21 2025 16:35:59 GMT-0500 (Central Daylight Time),269863.90000000596,082_m_m_n_a.png,O,z,578,11,1,1596.5,268267.40000000596,7182,NNB,C,10
11,test,2,0.0,1-Back,1,m,Mon Jul 21 2025 16:35:59 GMT-0500 (Central Daylight Time),271596.5,030_o_f_n_a.png,O,m,691,12,1,1713.4000000059605,269883.09999999404,7182,NNB,C,11
12,test,2,0.0,1-Back,1,m,Mon Jul 21 2025 16:35:59 GMT-0500 (Central Daylight Time),273429.1999999881,130_o_f_n_a.png,O,m,790,13,1,1813.699999988079,271615.5,7182,NNB,C,12
13,test,2,0.0,1-Back,1,m,Mon Jul 21 2025 16:35:59 GMT-0500 (Central Daylight Time),275295.1999999881,059_o_m_n_a.png,O,m,822,14,1,1844.5,273450.6999999881,7182,NNB,C,13
14,test,2,0.0,1-Back,1,m,Mon Jul 21 2025 16:35:59 GMT-0500 (Central Daylight Time),277127.90000000596,146_o_m_n_a.png,O,m,796,15,1,1810.5,275317.40000000596,7182,NNB,C,14
15,test,2,1.0,1-Back,1,z,Mon Jul 21 2025 16:35:59 GMT-0500 (Central Daylight Time),279043.90000000596,146_o_m_n_a.png,O,z,866,16,1,1891.0,277152.90000000596,7182,NNB,C,15
16,test,2,0.0,1-Back,1,m,Mon Jul 21 2025 16:35:59 GMT-0500 (Central Daylight Time),280810.1999999881,031_y_m_n_a.png,O,m,726,17,1,1739.4000000059605,279070.7999999821,7182,NNB,C,16
17,test,2,1.0,1-Back,1,z,Mon Jul 21 2025 16:35:59 GMT-0500 (Central Daylight Time),282509.6999999881,031_y_m_n_a.png,O,z,656,18,1,1674.7999999821186,280834.90000000596,7182,NNB,C,17
0,test,3,1.0,1-Back,,,Mon Jul 21 2025 16:35:59 GMT-0500 (Central Daylight Time),282509.6999999881,028_y_f_n_a.png,O,space,1717,1,1,1674.7999999821186,280834.90000000596,7182,NNB,C,0
1,test,3,0.0,1-Back,1,m,Mon Jul 21 2025 16:35:59 GMT-0500 (Central Daylight Time),288207.7999999821,146_o_m_n_a.png,O,m,772,1,1,1796.5,286411.2999999821,7182,NNB,C,1
1,test,3,1.0,1-Back,0,z,Mon Jul 21 2025 16:35:59 GMT-0500 (Central Daylight Time),290106.90000000596,146_o_m_n_a.png,O,m,861,1,1,1879.0,288227.90000000596,7182,NNB,C,2
2,test,3,0.0,1-Back,1,m,Mon Jul 21 2025 16:35:59 GMT-0500 (Central Daylight Time),292073.09999999404,093_m_f_n_a.png,O,m,929,1,1,1945.5999999940395,290127.5,7182,NNB,C,3
3,test,3,1.0,1-Back,1,z,Mon Jul 21 2025 16:35:59 GMT-0500 (Central Daylight Time),294105.6999999881,093_m_f_n_a.png,O,z,985,1,1,2009.4000000059605,292096.2999999821,7182,NNB,C,4
4,test,3,0.0,1-Back,1,m,Mon Jul 21 2025 16:35:59 GMT-0500 (Central Daylight Time),296038.1999999881,030_o_f_n_a.png,O,m,897,1,1,1912.5,294125.6999999881,7182,NNB,C,5
5,test,3,0.0,1-Back,1,m,Mon Jul 21 2025 16:35:59 GMT-0500 (Central Daylight Time),297721.2999999821,057_y_m_n_a.png,O,m,644,1,1,1658.3999999761581,296062.90000000596,7182,NNB,C,6
6,test,3,0.0,1-Back,1,m,Mon Jul 21 2025 16:35:59 GMT-0500 (Central Daylight Time),299470.59999999404,030_o_f_n_a.png,O,m,706,1,1,1726.0,297744.59999999404,7182,NNB,C,7
7,test,3,0.0,1-Back,1,m,Mon Jul 21 2025 16:35:59 GMT-0500 (Central Daylight Time),301536.0,031_y_m_n_a.png,O,m,1019,1,1,2040.5999999940395,299495.40000000596,7182,NNB,C,8
8,test,3,1.0,1-Back,1,z,Mon Jul 21 2025 16:35:59 GMT-0500 (Central Daylight Time),303136.1999999881,031_y_m_n_a.png,O,z,570,1,1,1592.199999988079,301544.0,7182,NNB,C,9
9,test,3,0.0,1-Back,1,m,Mon Jul 21 2025 16:35:59 GMT-0500 (Central Daylight Time),304902.1999999881,006_m_f_n_a.png,O,m,722,1,1,1747.5999999940395,303154.59999999404,7182,NNB,C,10
10,test,3,0.0,1-Back,1,m,Mon Jul 21 2025 16:35:59 GMT-0500 (Central Daylight Time),306684.90000000596,098_y_f_n_a.png,O,m,734,1,1,1758.2000000178814,304926.6999999881,7182,NNB,C,11
11,test,3,1.0,1-Back,1,z,Mon Jul 21 2025 16:35:59 GMT-0500 (Central Daylight Time),308567.6999999881,098_y_f_n_a.png,O,z,845,1,1,1857.7999999821186,306709.90000000596,7182,NNB,C,12
12,test,3,0.0,1-Back,1,m,Mon Jul 21 2025 16:35:59 GMT-0500 (Central Daylight Time),310417.1999999881,006_m_f_n_a.png,O,m,803,1,1,1819.199999988079,308598.0,7182,NNB,C,13
13,test,3,0.0,1-Back,1,m,Mon Jul 21 2025 16:35:59 GMT-0500 (Central Daylight Time),312149.6999999881,092_m_m_n_a.png,O,m,698,1,1,1710.7999999821186,310438.90000000596,7182,NNB,C,14
14,test,3,1.0,1-Back,1,z,Mon Jul 21 2025 16:35:59 GMT-0500 (Central Daylight Time),313782.6999999881,092_m_m_n_a.png,O,z,590,1,1,1611.699999988079,312171.0,7182,NNB,C,15
15,test,3,0.0,1-Back,1,m,Mon Jul 21 2025 16:35:59 GMT-0500 (Central Daylight Time),315497.6999999881,130_o_f_n_a.png,O,m,668,1,1,1692.5,313805.1999999881,7182,NNB,C,16
16,test,3,1.0,1-Back,1,z,Mon Jul 21 2025 16:35:59 GMT-0500 (Central Daylight Time),317098.09999999404,130_o_f_n_a.png,O,z,576,1,1,1595.5999999940395,315502.5,7182,NNB,C,17
0,test,4,1.0,1-Back,,,Mon Jul 21 2025 16:35:59 GMT-0500 (Central Daylight Time),317098.09999999404,093_m_f_n_a.png,O,space,1416,1,1,1595.5999999940395,315502.5,7182,NNB,C,0
1,test,4,0.0,1-Back,1,m,Mon Jul 21 2025 16:35:59 GMT-0500 (Central Daylight Time),322446.0,146_o_m_n_a.png,O,m,731,2,1,1742.2000000178814,320703.7999999821,7182,NNB,C,1
2,test,4,0.0,1-Back,1,m,Mon Jul 21 2025 16:35:59 GMT-0500 (Central Daylight Time),324512.40000000596,093_m_f_n_a.png,O,m,1029,3,1,2046.7000000178814,322465.6999999881,7182,NNB,C,2
3,test,4,0.0,1-Back,1,m,Mon Jul 21 2025 16:35:59 GMT-0500 (Central Daylight Time),326245.40000000596,030_o_f_n_a.png,O,m,683,4,1,1698.9000000059605,324546.5,7182,NNB,C,3
4,test,4,1.0,1-Back,1,z,Mon Jul 21 2025 16:35:59 GMT-0500 (Central Daylight Time),327894.59999999404,030_o_f_n_a.png,O,z,605,5,1,1628.4000000059605,326266.1999999881,7182,NNB,C,4
5,test,4,0.0,1-Back,1,m,Mon Jul 21 2025 16:35:59 GMT-0500 (Central Daylight Time),329718.09999999404,098_y_f_n_a.png,O,m,790,6,1,1802.199999988079,327915.90000000596,7182,NNB,C,5
6,test,4,0.0,1-Back,1,m,Mon Jul 21 2025 16:35:59 GMT-0500 (Central Daylight Time),331676.6999999881,057_y_m_n_a.png,O,m,941,7,1,1954.0999999940395,329722.59999999404,7182,NNB,C,6
7,test,4,1.0,1-Back,1,z,Mon Jul 21 2025 16:35:59 GMT-0500 (Central Daylight Time),333425.7999999821,057_y_m_n_a.png,O,z,711,8,1,1725.699999988079,331700.09999999404,7182,NNB,C,7
8,test,4,0.0,1-Back,1,m,Mon Jul 21 2025 16:35:59 GMT-0500 (Central Daylight Time),335225.59999999404,098_y_f_n_a.png,O,m,761,9,1,1779.9000000059605,333445.6999999881,7182,NNB,C,8
9,test,4,0.0,1-Back,1,m,Mon Jul 21 2025 16:35:59 GMT-0500 (Central Daylight Time),336909.09999999404,082_m_m_n_a.png,O,m,649,10,1,1661.5999999940395,335247.5,7182,NNB,C,9
10,test,4,1.0,1-Back,1,z,Mon Jul 21 2025 16:35:59 GMT-0500 (Central Daylight Time),338724.40000000596,082_m_m_n_a.png,O,z,767,11,1,1798.2000000178814,336926.1999999881,7182,NNB,C,10
11,test,4,0.0,1-Back,1,m,Mon Jul 21 2025 16:35:59 GMT-0500 (Central Daylight Time),340473.6999999881,130_o_f_n_a.png,O,m,711,12,1,1723.0999999940395,338750.59999999404,7182,NNB,C,11
12,test,4,0.0,1-Back,1,m,Mon Jul 21 2025 16:35:59 GMT-0500 (Central Daylight Time),342256.5,059_o_m_n_a.png,O,m,737,13,1,1762.0999999940395,340494.40000000596,7182,NNB,C,12
13,test,4,0.0,1-Back,1,m,Mon Jul 21 2025 16:35:59 GMT-0500 (Central Daylight Time),344172.7999999821,130_o_f_n_a.png,O,m,874,14,1,1892.0999999940395,342280.6999999881,7182,NNB,C,13
14,test,4,0.0,1-Back,1,m,Mon Jul 21 2025 16:35:59 GMT-0500 (Central Daylight Time),345872.0,028_y_f_n_a.png,O,m,663,15,1,1676.7000000178814,344195.2999999821,7182,NNB,C,14
15,test,4,1.0,1-Back,1,z,Mon Jul 21 2025 16:35:59 GMT-0500 (Central Daylight Time),347571.59999999404,028_y_f_n_a.png,O,z,650,16,1,1681.5,345890.09999999404,7182,NNB,C,15
16,test,4,0.0,1-Back,1,m,Mon Jul 21 2025 16:35:59 GMT-0500 (Central Daylight Time),349387.59999999404,006_m_f_n_a.png,O,m,775,17,1,1796.199999988079,347591.40000000596,7182,NNB,C,16
17,test,4,1.0,1-Back,1,z,Mon Jul 21 2025 16:35:59 GMT-0500 (Central Daylight Time),351021.2999999821,006_m_f_n_a.png,O,z,599,18,1,1609.3999999761581,349411.90000000596,7182,NNB,C,17
0,test,5,1.0,1-Back,,,Mon Jul 21 2025 16:35:59 GMT-0500 (Central Daylight Time),351021.2999999821,059_o_m_n_a.png,O,space,1414,1,1,1609.3999999761581,349411.90000000596,7182,NNB,C,0
1,test,5,1.0,1-Back,1,z,Mon Jul 21 2025 16:35:59 GMT-0500 (Central Daylight Time),356435.2999999821,059_o_m_n_a.png,O,z,768,2,1,1791.7999999821186,354643.5,7182,NNB,C,1
2,test,5,0.0,1-Back,1,m,Mon Jul 21 2025 16:35:59 GMT-0500 (Central Daylight Time),358068.0,098_y_f_n_a.png,O,m,592,3,1,1612.0,356456.0,7182,NNB,C,2
3,test,5,0.0,1-Back,1,m,Mon Jul 21 2025 16:35:59 GMT-0500 (Central Daylight Time),359900.7999999821,057_y_m_n_a.png,O,m,783,4,1,1813.8999999761581,358086.90000000596,7182,NNB,C,3
4,test,5,0.0,1-Back,1,m,Mon Jul 21 2025 16:35:59 GMT-0500 (Central Daylight Time),361766.90000000596,098_y_f_n_a.png,O,m,822,5,1,1846.4000000059605,359920.5,7182,NNB,C,4
5,test,5,0.0,1-Back,1,m,Mon Jul 21 2025 16:35:59 GMT-0500 (Central Daylight Time),363516.2999999821,092_m_m_n_a.png,O,m,701,6,1,1730.2999999821186,361786.0,7182,NNB,C,5
6,test,5,1.0,1-Back,1,z,Mon Jul 21 2025 16:35:59 GMT-0500 (Central Daylight Time),365165.5,092_m_m_n_a.png,O,z,614,7,1,1631.5,363534.0,7182,NNB,C,6
7,test,5,0.0,1-Back,1,m,Mon Jul 21 2025 16:35:59 GMT-0500 (Central Daylight Time),366915.1999999881,028_y_f_n_a.png,O,m,702,8,1,1730.9000000059605,365184.2999999821,7182,NNB,C,7
8,test,5,0.0,1-Back,1,m,Mon Jul 21 2025 16:35:59 GMT-0500 (Central Daylight Time),368947.6999999881,031_y_m_n_a.png,O,m,992,9,1,2009.0999999940395,366938.59999999404,7182,NNB,C,8
9,test,5,0.0,1-Back,1,m,Mon Jul 21 2025 16:35:59 GMT-0500 (Central Daylight Time),370680.59999999404,028_y_f_n_a.png,O,m,687,10,1,1704.699999988079,368975.90000000596,7182,NNB,C,9
10,test,5,0.0,1-Back,1,m,Mon Jul 21 2025 16:35:59 GMT-0500 (Central Daylight Time),372380.0,130_o_f_n_a.png,O,m,659,11,1,1674.9000000059605,370705.09999999404,7182,NNB,C,10
11,test,5,1.0,1-Back,1,z,Mon Jul 21 2025 16:35:59 GMT-0500 (Central Daylight Time),374012.90000000596,130_o_f_n_a.png,O,z,591,12,1,1612.1000000238419,372400.7999999821,7182,NNB,C,11
12,test,5,0.0,1-Back,1,m,Mon Jul 21 2025 16:35:59 GMT-0500 (Central Daylight Time),375828.90000000596,146_o_m_n_a.png,O,m,766,13,1,1795.5,374033.40000000596,7182,NNB,C,12
13,test,5,0.0,1-Back,1,m,Mon Jul 21 2025 16:35:59 GMT-0500 (Central Daylight Time),377695.09999999404,093_m_f_n_a.png,O,m,822,14,1,1847.300000011921,375847.7999999821,7182,NNB,C,13
14,test,5,1.0,1-Back,1,z,Mon Jul 21 2025 16:35:59 GMT-0500 (Central Daylight Time),379328.0,093_m_f_n_a.png,O,z,587,15,1,1615.4000000059605,377712.59999999404,7182,NNB,C,14
15,test,5,0.0,1-Back,1,m,Mon Jul 21 2025 16:35:59 GMT-0500 (Central Daylight Time),381077.90000000596,146_o_m_n_a.png,O,m,715,16,1,1731.0,379346.90000000596,7182,NNB,C,15
16,test,5,0.0,1-Back,1,m,Mon Jul 21 2025 16:35:59 GMT-0500 (Central Daylight Time),382760.0,006_m_f_n_a.png,O,m,646,17,1,1659.300000011921,381100.6999999881,7182,NNB,C,16
17,test,5,0.0,1-Back,1,m,Mon Jul 21 2025 16:35:59 GMT-0500 (Central Daylight Time),384459.40000000596,082_m_m_n_a.png,O,m,650,18,1,1675.1000000238419,382784.2999999821,7182,NNB,C,17
0,prac,1,0.0,2-Back,,,Mon Jul 21 2025 16:35:59 GMT-0500 (Central Daylight Time),384459.40000000596,031_y_m_n_a.png,O,space,9905,1,1,1675.1000000238419,382784.2999999821,7182,NNB,C,0
0,prac,1,0.0,2-Back,,,Mon Jul 21 2025 16:35:59 GMT-0500 (Central Daylight Time),384459.40000000596,006_m_f_n_a.png,O,space,9905,2,1,1675.1000000238419,382784.2999999821,7182,NNB,C,0
1,prac,1,1.0,2-Back,1,m,Mon Jul 21 2025 16:35:59 GMT-0500 (Central Daylight Time),506437.90000000596,146_o_m_n_a.png,O,m,1574,3,1,2516.0,503921.90000000596,7182,NNB,C,1
1,prac,1,0.0,2-Back,0,m,Mon Jul 21 2025 16:35:59 GMT-0500 (Central Daylight Time),509418.2999999821,130_o_f_n_a.png,O,None,2013,4,1,2958.399999976158,506459.90000000596,7182,NNB,C,2
2,prac,1,0.0,2-Back,1,z,Mon Jul 21 2025 16:35:59 GMT-0500 (Central Daylight Time),511867.90000000596,146_o_m_n_a.png,O,z,1642,5,1,2418.0,509449.90000000596,7182,NNB,C,3
2,prac,1,1.0,2-Back,0,z,Mon Jul 21 2025 16:35:59 GMT-0500 (Central Daylight Time),514149.40000000596,130_o_f_n_a.png,O,m,1483,6,1,2254.100000023842,511895.2999999821,7182,NNB,C,4
3,prac,1,0.0,2-Back,1,m,Mon Jul 21 2025 16:35:59 GMT-0500 (Central Daylight Time),516565.1999999881,082_m_m_n_a.png,O,m,1481,7,1,2409.0999999940395,514156.09999999404,7182,NNB,C,5
3,prac,1,0.0,2-Back,0,m,Mon Jul 21 2025 16:35:59 GMT-0500 (Central Daylight Time),519498.5,059_o_m_n_a.png,O,None,2008,8,1,2921.4000000059605,516577.09999999404,7182,NNB,C,6
3,prac,1,0.0,2-Back,0,m,Mon Jul 21 2025 16:35:59 GMT-0500 (Central Daylight Time),522464.1999999881,028_y_f_n_a.png,O,None,2001,9,1,2931.5,519532.6999999881,7182,NNB,C,7
3,prac,1,1.0,2-Back,0,z,Mon Jul 21 2025 16:35:59 GMT-0500 (Central Daylight Time),524613.599999994,059_o_m_n_a.png,O,m,1355,10,1,2124.300000011921,522489.2999999821,7182,NNB,C,8
3,prac,1,0.0,2-Back,0,m,Mon Jul 21 2025 16:35:59 GMT-0500 (Central Daylight Time),527562.5,098_y_f_n_a.png,O,None,2013,11,1,2918.0999999940395,524644.400000006,7182,NNB,C,9
4,prac,1,0.0,2-Back,1,m,Mon Jul 21 2025 16:35:59 GMT-0500 (Central Daylight Time),529695.2999999821,082_m_m_n_a.png,O,m,1180,12,1,2098.0,527597.2999999821,7182,NNB,C,10
0,prac,2,0.0,2-Back,,,Mon Jul 21 2025 16:35:59 GMT-0500 (Central Daylight Time),529695.2999999821,031_y_m_n_a.png,O,a,6428,1,1,2098.0,527597.2999999821,7182,NNB,C,0
0,prac,2,0.0,2-Back,,,Mon Jul 21 2025 16:35:59 GMT-0500 (Central Daylight Time),529695.2999999821,006_m_f_n_a.png,O,a,6428,2,1,2098.0,527597.2999999821,7182,NNB,C,0
1,prac,2,1.0,2-Back,1,m,Mon Jul 21 2025 16:35:59 GMT-0500 (Central Daylight Time),544173.6999999881,146_o_m_n_a.png,O,m,1662,3,1,2590.699999988079,541583.0,7182,NNB,C,1
1,prac,2,0.0,2-Back,0,m,Mon Jul 21 2025 16:35:59 GMT-0500 (Central Daylight Time),547156.0,130_o_f_n_a.png,O,None,2015,4,1,2958.4000000059605,544197.599999994,7182,NNB,C,2
1,prac,2,0.0,2-Back,0,z,Mon Jul 21 2025 16:35:59 GMT-0500 (Central Daylight Time),549072.5,146_o_m_n_a.png,O,m,1113,5,1,1884.800000011921,547187.6999999881,7182,NNB,C,3
2,prac,2,1.0,2-Back,1,z,Mon Jul 21 2025 16:35:59 GMT-0500 (Central Daylight Time),550971.6999999881,130_o_f_n_a.png,O,z,1098,6,1,1865.5,549106.1999999881,7182,NNB,C,4
2,prac,2,0.0,2-Back,0,m,Mon Jul 21 2025 16:35:59 GMT-0500 (Central Daylight Time),553920.0,082_m_m_n_a.png,O,None,2016,7,1,2918.5999999940395,551001.400000006,7182,NNB,C,5
3,prac,2,0.0,2-Back,1,m,Mon Jul 21 2025 16:35:59 GMT-0500 (Central Daylight Time),556436.6999999881,059_o_m_n_a.png,O,m,1602,8,1,2504.4000000059605,553932.2999999821,7182,NNB,C,6
4,prac,2,0.0,2-Back,1,m,Mon Jul 21 2025 16:35:59 GMT-0500 (Central Daylight Time),558819.099999994,028_y_f_n_a.png,O,m,1446,9,1,2358.0,556461.099999994,7182,NNB,C,7
5,prac,2,1.0,2-Back,1,z,Mon Jul 21 2025 16:35:59 GMT-0500 (Central Daylight Time),560835.099999994,059_o_m_n_a.png,O,z,1205,10,1,1984.5,558850.599999994,7182,NNB,C,8
5,prac,2,0.0,2-Back,0,m,Mon Jul 21 2025 16:35:59 GMT-0500 (Central Daylight Time),563784.1999999881,098_y_f_n_a.png,O,None,2007,11,1,2916.5999999940395,560867.599999994,7182,NNB,C,9
6,prac,2,0.0,2-Back,1,m,Mon Jul 21 2025 16:35:59 GMT-0500 (Central Daylight Time),565816.900000006,082_m_m_n_a.png,O,m,1089,12,1,2002.9000000059605,563814.0,7182,NNB,C,10
0,test,1,0.0,2-Back,,,Mon Jul 21 2025 16:35:59 GMT-0500 (Central Daylight Time),565816.900000006,057_y_m_n_a.png,O,space,9676,1,1,2002.9000000059605,563814.0,7182,NNB,C,0
0,test,1,0.0,2-Back,,,Mon Jul 21 2025 16:35:59 GMT-0500 (Central Daylight Time),565816.900000006,057_y_m_n_a.png,O,space,9676,2,1,2002.9000000059605,563814.0,7182,NNB,C,0
1,test,1,0.0,2-Back,1,m,Mon Jul 21 2025 16:35:59 GMT-0500 (Central Daylight Time),589909.099999994,130_o_f_n_a.png,O,m,1200,3,1,2229.800000011921,587679.2999999821,7182,NNB,C,1
1,test,1,0.0,2-Back,0,m,Mon Jul 21 2025 16:35:59 GMT-0500 (Central Daylight Time),592958.0,092_m_m_n_a.png,O,None,2017,4,1,3024.5999999940395,589933.400000006,7182,NNB,C,2
2,test,1,1.0,2-Back,1,z,Mon Jul 21 2025 16:35:59 GMT-0500 (Central Daylight Time),594974.0,130_o_f_n_a.png,O,z,966,5,1,1983.4000000059605,592990.599999994,7182,NNB,C,3
3,test,1,0.0,2-Back,1,m,Mon Jul 21 2025 16:35:59 GMT-0500 (Central Daylight Time),597672.900000006,098_y_f_n_a.png,O,m,1654,6,1,2675.4000000059605,594997.5,7182,NNB,C,4
3,test,1,0.0,2-Back,0,m,Mon Jul 21 2025 16:35:59 GMT-0500 (Central Daylight Time),599855.599999994,092_m_m_n_a.png,O,z,1146,7,1,2152.5999999940395,597703.0,7182,NNB,C,5
3,test,1,1.0,2-Back,0,z,Mon Jul 21 2025 16:35:59 GMT-0500 (Central Daylight Time),602238.0,098_y_f_n_a.png,O,m,1340,8,1,2362.7000000178814,599875.2999999821,7182,NNB,C,6
4,test,1,0.0,2-Back,1,m,Mon Jul 21 2025 16:35:59 GMT-0500 (Central Daylight Time),604387.5,031_y_m_n_a.png,O,m,1094,9,1,2116.2000000178814,602271.2999999821,7182,NNB,C,7
4,test,1,0.0,2-Back,0,m,Mon Jul 21 2025 16:35:59 GMT-0500 (Central Daylight Time),606769.900000006,030_o_f_n_a.png,O,z,1336,10,1,2355.800000011921,604414.099999994,7182,NNB,C,8
4,test,1,1.0,2-Back,0,z,Mon Jul 21 2025 16:35:59 GMT-0500 (Central Daylight Time),609119.1999999881,031_y_m_n_a.png,O,m,1313,11,1,2325.199999988079,606794.0,7182,NNB,C,9
5,test,1,0.0,2-Back,1,m,Mon Jul 21 2025 16:35:59 GMT-0500 (Central Daylight Time),611384.2999999821,006_m_f_n_a.png,O,m,1218,12,1,2237.899999976158,609146.400000006,7182,NNB,C,10
6,test,1,0.0,2-Back,1,m,Mon Jul 21 2025 16:35:59 GMT-0500 (Central Daylight Time),613884.1999999881,006_m_f_n_a.png,O,m,1467,13,1,2494.9000000059605,611389.2999999821,7182,NNB,C,11
7,test,1,0.0,2-Back,1,m,Mon Jul 21 2025 16:35:59 GMT-0500 (Central Daylight Time),615838.5,146_o_m_n_a.png,O,m,912,14,1,1927.800000011921,613910.6999999881,7182,NNB,C,12
8,test,1,0.0,2-Back,1,m,Mon Jul 21 2025 16:35:59 GMT-0500 (Central Daylight Time),617982.900000006,030_o_f_n_a.png,O,m,1106,15,1,2125.2000000178814,615857.6999999881,7182,NNB,C,13
9,test,1,1.0,2-Back,1,z,Mon Jul 21 2025 16:35:59 GMT-0500 (Central Daylight Time),620014.599999994,146_o_m_n_a.png,O,z,986,16,1,2008.5999999940395,618006.0,7182,NNB,C,14
10,test,1,0.0,2-Back,1,m,Mon Jul 21 2025 16:35:59 GMT-0500 (Central Daylight Time),622714.7999999821,093_m_f_n_a.png,O,m,1670,17,1,2696.2999999821186,620018.5,7182,NNB,C,15
11,test,1,0.0,2-Back,1,m,Mon Jul 21 2025 16:35:59 GMT-0500 (Central Daylight Time),624980.599999994,082_m_m_n_a.png,O,m,1225,18,1,2238.5,622742.099999994,7182,NNB,C,16
0,test,2,0.0,2-Back,,,Mon Jul 21 2025 16:35:59 GMT-0500 (Central Daylight Time),624980.599999994,082_m_m_n_a.png,O,space,2526,1,1,2238.5,622742.099999994,7182,NNB,C,0
0,test,2,0.0,2-Back,,,Mon Jul 21 2025 16:35:59 GMT-0500 (Central Daylight Time),624980.599999994,028_y_f_n_a.png,O,space,2526,2,1,2238.5,622742.099999994,7182,NNB,C,0
0,test,2,1.0,2-Back,0,z,Mon Jul 21 2025 16:35:59 GMT-0500 (Central Daylight Time),634661.599999994,082_m_m_n_a.png,O,m,932,3,1,1946.4000000059605,632715.1999999881,7182,NNB,C,1
1,test,2,0.0,2-Back,1,m,Mon Jul 21 2025 16:35:59 GMT-0500 (Central Daylight Time),637625.400000006,093_m_f_n_a.png,O,m,1917,4,1,2941.600000023842,634683.7999999821,7182,NNB,C,2
1,test,2,0.0,2-Back,0,m,Mon Jul 21 2025 16:35:59 GMT-0500 (Central Daylight Time),639442.599999994,028_y_f_n_a.png,O,z,794,5,1,1813.5999999940395,637629.0,7182,NNB,C,3
2,test,2,0.0,2-Back,1,m,Mon Jul 21 2025 16:35:59 GMT-0500 (Central Daylight Time),641808.2999999821,146_o_m_n_a.png,O,m,1329,6,1,2345.899999976158,639462.400000006,7182,NNB,C,4
2,test,2,0.0,2-Back,0,m,Mon Jul 21 2025 16:35:59 GMT-0500 (Central Daylight Time),644390.6999999881,098_y_f_n_a.png,O,z,1547,7,1,2560.9000000059605,641829.7999999821,7182,NNB,C,5
2,test,2,1.0,2-Back,0,z,Mon Jul 21 2025 16:35:59 GMT-0500 (Central Daylight Time),646706.900000006,146_o_m_n_a.png,O,m,1265,8,1,2290.9000000059605,644416.0,7182,NNB,C,6
3,test,2,0.0,2-Back,1,m,Mon Jul 21 2025 16:35:59 GMT-0500 (Central Daylight Time),648839.2999999821,031_y_m_n_a.png,O,m,1097,9,1,2104.0999999940395,646735.1999999881,7182,NNB,C,7
3,test,2,0.0,2-Back,0,m,Mon Jul 21 2025 16:35:59 GMT-0500 (Central Daylight Time),651255.099999994,031_y_m_n_a.png,O,z,1389,10,1,2406.4000000059605,648848.6999999881,7182,NNB,C,8
4,test,2,0.0,2-Back,1,m,Mon Jul 21 2025 16:35:59 GMT-0500 (Central Daylight Time),653871.099999994,006_m_f_n_a.png,O,m,1580,11,1,2594.4000000059605,651276.6999999881,7182,NNB,C,9
5,test,2,0.0,2-Back,1,m,Mon Jul 21 2025 16:35:59 GMT-0500 (Central Daylight Time),656170.1999999881,028_y_f_n_a.png,O,m,1261,12,1,2277.5999999940395,653892.599999994,7182,NNB,C,10
6,test,2,1.0,2-Back,1,z,Mon Jul 21 2025 16:35:59 GMT-0500 (Central Daylight Time),658336.400000006,006_m_f_n_a.png,O,z,1122,13,1,2140.2000000178814,656196.1999999881,7182,NNB,C,11
7,test,2,0.0,2-Back,1,m,Mon Jul 21 2025 16:35:59 GMT-0500 (Central Daylight Time),660602.2999999821,059_o_m_n_a.png,O,m,1228,14,1,2237.899999976158,658364.400000006,7182,NNB,C,12
8,test,2,0.0,2-Back,1,m,Mon Jul 21 2025 16:35:59 GMT-0500 (Central Daylight Time),663368.0,059_o_m_n_a.png,O,m,1712,15,1,2734.7000000178814,660633.2999999821,7182,NNB,C,13
9,test,2,0.0,2-Back,1,m,Mon Jul 21 2025 16:35:59 GMT-0500 (Central Daylight Time),665867.1999999881,030_o_f_n_a.png,O,m,1451,16,1,2480.7999999821186,663386.400000006,7182,NNB,C,14
10,test,2,0.0,2-Back,1,m,Mon Jul 21 2025 16:35:59 GMT-0500 (Central Daylight Time),668250.0,092_m_m_n_a.png,O,m,1345,17,1,2358.9000000059605,665891.099999994,7182,NNB,C,15
11,test,2,1.0,2-Back,1,z,Mon Jul 21 2025 16:35:59 GMT-0500 (Central Daylight Time),669999.099999994,030_o_f_n_a.png,O,z,706,18,1,1728.199999988079,668270.900000006,7182,NNB,C,16
0,test,3,1.0,2-Back,,,Mon Jul 21 2025 16:35:59 GMT-0500 (Central Daylight Time),669999.099999994,057_y_m_n_a.png,O,space,2332,1,1,1728.199999988079,668270.900000006,7182,NNB,C,0
0,test,3,1.0,2-Back,,,Mon Jul 21 2025 16:35:59 GMT-0500 (Central Daylight Time),669999.099999994,057_y_m_n_a.png,O,space,2332,2,1,1728.199999988079,668270.900000006,7182,NNB,C,0
1,test,3,0.0,2-Back,1,m,Mon Jul 21 2025 16:35:59 GMT-0500 (Central Daylight Time),679929.2999999821,030_o_f_n_a.png,O,m,1325,3,1,2348.899999976158,677580.400000006,7182,NNB,C,1
2,test,3,0.0,2-Back,1,m,Mon Jul 21 2025 16:35:59 GMT-0500 (Central Daylight Time),681978.2999999821,082_m_m_n_a.png,O,m,985,4,1,2008.7999999821186,679969.5,7182,NNB,C,2
3,test,3,1.0,2-Back,1,z,Mon Jul 21 2025 16:35:59 GMT-0500 (Central Daylight Time),683743.599999994,030_o_f_n_a.png,O,z,721,5,1,1748.0,681995.599999994,7182,NNB,C,3
3,test,3,0.0,2-Back,0,m,Mon Jul 21 2025 16:35:59 GMT-0500 (Central Daylight Time),686777.1999999881,031_y_m_n_a.png,O,None,2015,6,1,3030.0999999940395,683747.099999994,7182,NNB,C,4
3,test,3,0.0,2-Back,0,m,Mon Jul 21 2025 16:35:59 GMT-0500 (Central Daylight Time),689276.1999999881,082_m_m_n_a.png,O,z,1450,7,1,2473.0,686803.1999999881,7182,NNB,C,5
3,test,3,1.0,2-Back,0,z,Mon Jul 21 2025 16:35:59 GMT-0500 (Central Daylight Time),692325.400000006,031_y_m_n_a.png,O,None,2015,8,1,3023.600000023842,689301.7999999821,7182,NNB,C,6
4,test,3,0.0,2-Back,1,m,Mon Jul 21 2025 16:35:59 GMT-0500 (Central Daylight Time),694758.1999999881,028_y_f_n_a.png,O,m,1398,9,1,2407.0999999940395,692351.099999994,7182,NNB,C,7
5,test,3,0.0,2-Back,1,m,Mon Jul 21 2025 16:35:59 GMT-0500 (Central Daylight Time),697173.6999999881,092_m_m_n_a.png,O,m,1374,10,1,2395.9000000059605,694777.7999999821,7182,NNB,C,8
6,test,3,1.0,2-Back,1,z,Mon Jul 21 2025 16:35:59 GMT-0500 (Central Daylight Time),699039.6999999881,028_y_f_n_a.png,O,z,830,11,1,1842.199999988079,697197.5,7182,NNB,C,9
6,test,3,1.0,2-Back,0,z,Mon Jul 21 2025 16:35:59 GMT-0500 (Central Daylight Time),702088.7999999821,092_m_m_n_a.png,O,None,2016,12,1,3026.0999999940395,699062.6999999881,7182,NNB,C,10
7,test,3,0.0,2-Back,1,m,Mon Jul 21 2025 16:35:59 GMT-0500 (Central Daylight Time),704404.6999999881,030_o_f_n_a.png,O,m,1275,13,1,2293.199999988079,702111.5,7182,NNB,C,11
8,test,3,0.0,2-Back,1,m,Mon Jul 21 2025 16:35:59 GMT-0500 (Central Daylight Time),706837.099999994,093_m_f_n_a.png,O,m,1391,14,1,2411.699999988079,704425.400000006,7182,NNB,C,12
8,test,3,0.0,2-Back,0,m,Mon Jul 21 2025 16:35:59 GMT-0500 (Central Daylight Time),709886.2999999821,146_o_m_n_a.png,O,None,2015,15,1,3024.5,706861.7999999821,7182,NNB,C,13
9,test,3,1.0,2-Back,1,z,Mon Jul 21 2025 16:35:59 GMT-0500 (Central Daylight Time),711752.1999999881,093_m_f_n_a.png,O,z,829,16,1,1842.5999999940395,709909.599999994,7182,NNB,C,14
10,test,3,0.0,2-Back,1,m,Mon Jul 21 2025 16:35:59 GMT-0500 (Central Daylight Time),713884.900000006,130_o_f_n_a.png,O,m,1092,17,1,2112.4000000059605,711772.5,7182,NNB,C,15
11,test,3,0.0,2-Back,1,m,Mon Jul 21 2025 16:35:59 GMT-0500 (Central Daylight Time),716117.5,130_o_f_n_a.png,O,m,1191,18,1,2212.5999999940395,713904.900000006,7182,NNB,C,16
0,test,4,0.0,2-Back,,,Mon Jul 21 2025 16:35:59 GMT-0500 (Central Daylight Time),716117.5,059_o_m_n_a.png,O,space,1662,1,1,2212.5999999940395,713904.900000006,7182,NNB,C,0
0,test,4,0.0,2-Back,,,Mon Jul 21 2025 16:35:59 GMT-0500 (Central Daylight Time),716117.5,098_y_f_n_a.png,O,space,1662,2,1,2212.5999999940395,713904.900000006,7182,NNB,C,0
0,test,4,1.0,2-Back,0,z,Mon Jul 21 2025 16:35:59 GMT-0500 (Central Daylight Time),726215.7999999821,059_o_m_n_a.png,O,None,2016,3,1,3028.2999999821186,723187.5,7182,NNB,C,1
0,test,4,1.0,2-Back,0,z,Mon Jul 21 2025 16:35:59 GMT-0500 (Central Daylight Time),728630.0,098_y_f_n_a.png,O,m,1357,4,1,2384.0999999940395,726245.900000006,7182,NNB,C,2
1,test,4,0.0,2-Back,1,m,Mon Jul 21 2025 16:35:59 GMT-0500 (Central Daylight Time),730712.599999994,030_o_f_n_a.png,O,m,1047,5,1,2061.4000000059605,728651.1999999881,7182,NNB,C,3
2,test,4,0.0,2-Back,1,m,Mon Jul 21 2025 16:35:59 GMT-0500 (Central Daylight Time),733111.0,030_o_f_n_a.png,O,m,1363,6,1,2375.0,730736.0,7182,NNB,C,4
3,test,4,0.0,2-Back,1,m,Mon Jul 21 2025 16:35:59 GMT-0500 (Central Daylight Time),735227.099999994,006_m_f_n_a.png,O,m,1083,7,1,2112.0,733115.099999994,7182,NNB,C,5
3,test,4,0.0,2-Back,0,m,Mon Jul 21 2025 16:35:59 GMT-0500 (Central Daylight Time),738260.0,031_y_m_n_a.png,O,None,2015,8,1,3024.7000000178814,735235.2999999821,7182,NNB,C,6
3,test,4,1.0,2-Back,0,z,Mon Jul 21 2025 16:35:59 GMT-0500 (Central Daylight Time),740609.5,006_m_f_n_a.png,O,m,1299,9,1,2332.4000000059605,738277.099999994,7182,NNB,C,7
4,test,4,0.0,2-Back,1,m,Mon Jul 21 2025 16:35:59 GMT-0500 (Central Daylight Time),742842.0,092_m_m_n_a.png,O,m,1194,10,1,2209.4000000059605,740632.599999994,7182,NNB,C,8
5,test,4,0.0,2-Back,1,m,Mon Jul 21 2025 16:35:59 GMT-0500 (Central Daylight Time),745207.7999999821,031_y_m_n_a.png,O,m,1322,11,1,2339.0,742868.7999999821,7182,NNB,C,9
6,test,4,0.0,2-Back,1,m,Mon Jul 21 2025 16:35:59 GMT-0500 (Central Daylight Time),747357.099999994,130_o_f_n_a.png,O,m,1107,12,1,2130.699999988079,745226.400000006,7182,NNB,C,10
7,test,4,0.0,2-Back,1,m,Mon Jul 21 2025 16:35:59 GMT-0500 (Central Daylight Time),749656.400000006,057_y_m_n_a.png,O,m,1262,13,1,2274.600000023842,747381.7999999821,7182,NNB,C,11
8,test,4,1.0,2-Back,1,z,Mon Jul 21 2025 16:35:59 GMT-0500 (Central Daylight Time),751406.1999999881,130_o_f_n_a.png,O,z,716,14,1,1729.7999999821186,749676.400000006,7182,NNB,C,12
9,test,4,1.0,2-Back,1,z,Mon Jul 21 2025 16:35:59 GMT-0500 (Central Daylight Time),754021.7999999821,057_y_m_n_a.png,O,z,1566,15,1,2592.0,751429.7999999821,7182,NNB,C,13
10,test,4,0.0,2-Back,1,m,Mon Jul 21 2025 16:35:59 GMT-0500 (Central Daylight Time),756104.400000006,082_m_m_n_a.png,O,m,1046,16,1,2058.7000000178814,754045.6999999881,7182,NNB,C,14
11,test,4,0.0,2-Back,1,m,Mon Jul 21 2025 16:35:59 GMT-0500 (Central Daylight Time),758320.1999999881,093_m_f_n_a.png,O,m,1180,17,1,2195.5,756124.6999999881,7182,NNB,C,15
11,test,4,1.0,2-Back,0,z,Mon Jul 21 2025 16:35:59 GMT-0500 (Central Daylight Time),760952.6999999881,082_m_m_n_a.png,O,m,1595,18,1,2607.0999999940395,758345.599999994,7182,NNB,C,16
0,test,5,1.0,2-Back,,,Mon Jul 21 2025 16:35:59 GMT-0500 (Central Daylight Time),760952.6999999881,057_y_m_n_a.png,O,space,1602,1,1,2607.0999999940395,758345.599999994,7182,NNB,C,0
0,test,5,1.0,2-Back,,,Mon Jul 21 2025 16:35:59 GMT-0500 (Central Daylight Time),760952.6999999881,093_m_f_n_a.png,O,space,1602,2,1,2607.0999999940395,758345.599999994,7182,NNB,C,0
1,test,5,1.0,2-Back,1,z,Mon Jul 21 2025 16:35:59 GMT-0500 (Central Daylight Time),770033.2999999821,057_y_m_n_a.png,O,z,1229,3,1,2241.2999999821186,767792.0,7182,NNB,C,1
1,test,5,1.0,2-Back,0,z,Mon Jul 21 2025 16:35:59 GMT-0500 (Central Daylight Time),773082.2999999821,093_m_f_n_a.png,O,None,2015,4,1,3030.699999988079,770051.599999994,7182,NNB,C,2
2,test,5,0.0,2-Back,1,m,Mon Jul 21 2025 16:35:59 GMT-0500 (Central Daylight Time),775152.400000006,130_o_f_n_a.png,O,m,1021,5,1,2043.6000000238419,773108.7999999821,7182,NNB,C,3
3,test,5,0.0,2-Back,1,m,Mon Jul 21 2025 16:35:59 GMT-0500 (Central Daylight Time),777597.2999999821,057_y_m_n_a.png,O,m,1400,6,1,2426.0999999940395,775171.1999999881,7182,NNB,C,4
4,test,5,0.0,2-Back,1,m,Mon Jul 21 2025 16:35:59 GMT-0500 (Central Daylight Time),779679.900000006,028_y_f_n_a.png,O,m,1038,7,1,2055.2000000178814,777624.6999999881,7182,NNB,C,5
4,test,5,0.0,2-Back,0,m,Mon Jul 21 2025 16:35:59 GMT-0500 (Central Daylight Time),781479.1999999881,130_o_f_n_a.png,O,z,755,8,1,1773.699999988079,779705.5,7182,NNB,C,6
4,test,5,1.0,2-Back,0,z,Mon Jul 21 2025 16:35:59 GMT-0500 (Central Daylight Time),784045.1999999881,028_y_f_n_a.png,O,m,1499,9,1,2528.4000000059605,781516.7999999821,7182,NNB,C,7
5,test,5,0.0,2-Back,1,m,Mon Jul 21 2025 16:35:59 GMT-0500 (Central Daylight Time),786044.599999994,146_o_m_n_a.png,O,m,960,10,1,1984.800000011921,784059.7999999821,7182,NNB,C,8
6,test,5,0.0,2-Back,1,m,Mon Jul 21 2025 16:35:59 GMT-0500 (Central Daylight Time),788110.2999999821,006_m_f_n_a.png,O,m,1024,11,1,2041.0,786069.2999999821,7182,NNB,C,9
7,test,5,0.0,2-Back,1,m,Mon Jul 21 2025 16:35:59 GMT-0500 (Central Daylight Time),790493.099999994,092_m_m_n_a.png,O,m,1341,12,1,2358.300000011921,788134.7999999821,7182,NNB,C,10
8,test,5,0.0,2-Back,1,m,Mon Jul 21 2025 16:35:59 GMT-0500 (Central Daylight Time),793092.2999999821,146_o_m_n_a.png,O,m,1556,13,1,2584.199999988079,790508.099999994,7182,NNB,C,11
8,test,5,1.0,2-Back,0,z,Mon Jul 21 2025 16:35:59 GMT-0500 (Central Daylight Time),795590.599999994,092_m_m_n_a.png,O,m,1462,14,1,2481.699999988079,793108.900000006,7182,NNB,C,12
9,test,5,0.0,2-Back,1,m,Mon Jul 21 2025 16:35:59 GMT-0500 (Central Daylight Time),797873.7999999821,098_y_f_n_a.png,O,m,1262,15,1,2279.2999999821186,795594.5,7182,NNB,C,13
10,test,5,0.0,2-Back,1,m,Mon Jul 21 2025 16:35:59 GMT-0500 (Central Daylight Time),800656.400000006,059_o_m_n_a.png,O,m,1745,16,1,2758.7000000178814,797897.6999999881,7182,NNB,C,14
10,test,5,0.0,2-Back,0,m,Mon Jul 21 2025 16:35:59 GMT-0500 (Central Daylight Time),803705.599999994,006_m_f_n_a.png,O,None,2015,17,1,3023.800000011921,800681.7999999821,7182,NNB,C,15
11,test,5,1.0,2-Back,1,z,Mon Jul 21 2025 16:35:59 GMT-0500 (Central Daylight Time),805438.1999999881,059_o_m_n_a.png,O,z,699,18,1,1712.5,803725.6999999881,7182,NNB,C,16
