acc_sum,block,block_c,change,condition,correct,correct_response,datetime,endtime,face,project,response,response_time,row_sel,session_number,start_end,starttime,subject_id,task,task_vers,trial
0,prac,1,,1-Back,,,Thu Sep 11 2025 12:27:48 GMT-0400 (Eastern Daylight Time),,005_o_f_d_a.png,I,space,14686,1,3,,,9013,VNB,B,0
1,prac,1,0.0,1-Back,1.0,m,Thu Sep 11 2025 12:27:48 GMT-0400 (Eastern Daylight Time),5587173.3999996185,020_y_f_n_a.png,I,m,1823,2,3,2784.199999809265,5584389.199999809,9013,VNB,B,1
1,prac,1,0.0,1-Back,0.0,m,Thu Sep 11 2025 12:27:48 GMT-0400 (Eastern Daylight Time),5590289.5,007_m_m_h_a.png,I,None,2012,3,3,3077.1000003814697,5587212.3999996185,9013,VNB,B,2
2,prac,1,0.0,1-Back,1.0,m,Thu Sep 11 2025 12:27:48 GMT-0400 (Eastern Daylight Time),5592539.699999809,016_y_m_d_a.png,I,m,1196,4,3,2222.8999996185303,5590316.800000191,9013,VNB,B,3
3,prac,1,0.0,1-Back,1.0,m,Thu Sep 11 2025 12:27:48 GMT-0400 (Eastern Daylight Time),5594873.0,005_o_f_n_a.png,I,m,1263,5,3,2313.300000190735,5592559.699999809,9013,VNB,B,4
4,prac,1,1.0,1-Back,1.0,z,Thu Sep 11 2025 12:27:48 GMT-0400 (Eastern Daylight Time),5596672.8999996185,016_y_m_n_a.png,I,z,727,6,3,1776.3999996185303,5594896.5,9013,VNB,B,5
5,prac,1,0.0,1-Back,1.0,m,Thu Sep 11 2025 12:27:48 GMT-0400 (Eastern Daylight Time),5598522.8999996185,004_o_m_h_a.png,I,m,863,7,3,1831.7999992370605,5596691.1000003815,9013,VNB,B,6
6,prac,1,0.0,1-Back,1.0,m,Thu Sep 11 2025 12:27:48 GMT-0400 (Eastern Daylight Time),5600539.1000003815,011_m_f_d_a.png,I,m,950,8,3,1998.2000007629395,5598540.8999996185,9013,VNB,B,7
7,prac,1,1.0,1-Back,1.0,z,Thu Sep 11 2025 12:27:48 GMT-0400 (Eastern Daylight Time),5602339.6000003815,020_y_f_d_a.png,I,z,874,9,3,1787.5,5600552.1000003815,9013,VNB,B,8
8,prac,1,0.0,1-Back,1.0,m,Thu Sep 11 2025 12:27:48 GMT-0400 (Eastern Daylight Time),5604256.300000191,007_m_m_n_a.png,I,m,957,10,3,1901.6000003814697,5602354.699999809,9013,VNB,B,9
8,prac,1,0.0,1-Back,0.0,m,Thu Sep 11 2025 12:27:48 GMT-0400 (Eastern Daylight Time),5606072.8999996185,005_o_f_h_a.png,I,z,870,11,3,1799.0999994277954,5604273.800000191,9013,VNB,B,10
9,prac,1,0.0,1-Back,1.0,m,Thu Sep 11 2025 12:27:48 GMT-0400 (Eastern Daylight Time),5608056.3999996185,016_y_m_d_a.png,I,m,1026,12,3,1965.7999992370605,5606090.6000003815,9013,VNB,B,11
0,test,1,0.0,1-Back,,,Thu Sep 11 2025 12:27:48 GMT-0400 (Eastern Daylight Time),5608056.3999996185,020_y_f_d_a.png,I,space,11435,1,3,1965.7999992370605,5606090.6000003815,9013,VNB,B,0
1,test,1,0.0,1-Back,1.0,m,Thu Sep 11 2025 12:27:48 GMT-0400 (Eastern Daylight Time),5628389.5,011_m_f_n_a.png,I,m,1063,2,3,2068.0,5626321.5,9013,VNB,B,1
2,test,1,0.0,1-Back,1.0,m,Thu Sep 11 2025 12:27:48 GMT-0400 (Eastern Daylight Time),5630222.800000191,004_o_m_h_a.png,I,m,805,3,3,1820.1999998092651,5628402.6000003815,9013,VNB,B,2
3,test,1,1.0,1-Back,1.0,z,Thu Sep 11 2025 12:27:48 GMT-0400 (Eastern Daylight Time),5631939.800000191,007_m_m_h_a.png,I,z,698,4,3,1703.8000001907349,5630236.0,9013,VNB,B,3
4,test,1,0.0,1-Back,1.0,m,Thu Sep 11 2025 12:27:48 GMT-0400 (Eastern Daylight Time),5633539.5,005_o_f_n_a.png,I,m,567,5,3,1589.3000001907349,5631950.199999809,9013,VNB,B,4
4,test,1,0.0,1-Back,0.0,m,Thu Sep 11 2025 12:27:48 GMT-0400 (Eastern Daylight Time),5635456.300000191,016_y_m_d_a.png,I,z,871,6,3,1900.0,5633556.300000191,9013,VNB,B,5
5,test,1,1.0,1-Back,1.0,z,Thu Sep 11 2025 12:27:48 GMT-0400 (Eastern Daylight Time),5637656.199999809,011_m_f_d_a.png,I,z,1178,7,3,2185.0999994277954,5635471.1000003815,9013,VNB,B,6
6,test,1,0.0,1-Back,1.0,m,Thu Sep 11 2025 12:27:48 GMT-0400 (Eastern Daylight Time),5639472.8999996185,020_y_f_h_a.png,I,m,785,8,3,1805.0999994277954,5637667.800000191,9013,VNB,B,7
6,test,1,0.0,1-Back,0.0,m,Thu Sep 11 2025 12:27:48 GMT-0400 (Eastern Daylight Time),5641389.5,004_o_m_n_a.png,I,z,872,9,3,1900.5,5639489.0,9013,VNB,B,8
7,test,1,0.0,1-Back,1.0,m,Thu Sep 11 2025 12:27:48 GMT-0400 (Eastern Daylight Time),5643756.199999809,016_y_m_h_a.png,I,m,1325,10,3,2350.0,5641406.199999809,9013,VNB,B,9
8,test,1,0.0,1-Back,1.0,m,Thu Sep 11 2025 12:27:48 GMT-0400 (Eastern Daylight Time),5645539.6000003815,004_o_m_d_a.png,I,m,750,11,3,1772.5,5643767.1000003815,9013,VNB,B,10
9,test,1,1.0,1-Back,1.0,z,Thu Sep 11 2025 12:27:48 GMT-0400 (Eastern Daylight Time),5647539.800000191,005_o_f_d_a.png,I,z,982,12,3,1990.6000003814697,5645549.199999809,9013,VNB,B,11
10,test,1,0.0,1-Back,1.0,m,Thu Sep 11 2025 12:27:48 GMT-0400 (Eastern Daylight Time),5649373.0,007_m_m_n_a.png,I,m,807,13,3,1821.1000003814697,5647551.8999996185,9013,VNB,B,12
11,test,1,1.0,1-Back,1.0,z,Thu Sep 11 2025 12:27:48 GMT-0400 (Eastern Daylight Time),5651139.8999996185,020_y_f_n_a.png,I,z,749,14,3,1752.3999996185303,5649387.5,9013,VNB,B,13
12,test,1,0.0,1-Back,1.0,m,Thu Sep 11 2025 12:27:48 GMT-0400 (Eastern Daylight Time),5653006.300000191,011_m_f_h_a.png,I,m,821,15,3,1852.3000001907349,5651154.0,9013,VNB,B,14
12,test,1,0.0,1-Back,0.0,m,Thu Sep 11 2025 12:27:48 GMT-0400 (Eastern Daylight Time),5655639.5,007_m_m_d_a.png,I,z,1612,16,3,2618.199999809265,5653021.300000191,9013,VNB,B,15
13,test,1,0.0,1-Back,1.0,m,Thu Sep 11 2025 12:27:48 GMT-0400 (Eastern Daylight Time),5657472.8999996185,016_y_m_n_a.png,I,m,803,17,3,1820.1999998092651,5655652.699999809,9013,VNB,B,16
14,test,1,0.0,1-Back,1.0,m,Thu Sep 11 2025 12:27:48 GMT-0400 (Eastern Daylight Time),5659306.300000191,005_o_f_h_a.png,I,m,809,18,3,1822.4000005722046,5657483.8999996185,9013,VNB,B,17
0,test,2,0.0,1-Back,,,Thu Sep 11 2025 12:27:48 GMT-0400 (Eastern Daylight Time),5659306.300000191,016_y_m_n_a.png,I,space,999,1,3,1822.4000005722046,5657483.8999996185,9013,VNB,B,0
1,test,2,0.0,1-Back,1.0,m,Thu Sep 11 2025 12:27:48 GMT-0400 (Eastern Daylight Time),5664207.8999996185,020_y_f_h_a.png,I,m,823,2,3,1851.6999998092651,5662356.199999809,9013,VNB,B,1
2,test,2,1.0,1-Back,1.0,m,Thu Sep 11 2025 12:27:48 GMT-0400 (Eastern Daylight Time),5666056.199999809,004_o_m_n_a.png,I,m,829,3,3,1838.6999998092651,5664217.5,9013,VNB,B,2
3,test,2,0.0,1-Back,1.0,m,Thu Sep 11 2025 12:27:48 GMT-0400 (Eastern Daylight Time),5668073.0,011_m_f_d_a.png,I,m,994,4,3,2003.6000003814697,5666069.3999996185,9013,VNB,B,3
4,test,2,0.0,1-Back,1.0,z,Thu Sep 11 2025 12:27:48 GMT-0400 (Eastern Daylight Time),5669906.199999809,007_m_m_d_a.png,I,z,801,5,3,1821.8000001907349,5668084.3999996185,9013,VNB,B,4
5,test,2,0.0,1-Back,1.0,m,Thu Sep 11 2025 12:27:48 GMT-0400 (Eastern Daylight Time),5671789.699999809,016_y_m_h_a.png,I,m,853,6,3,1872.8000001907349,5669916.8999996185,9013,VNB,B,5
6,test,2,1.0,1-Back,1.0,z,Thu Sep 11 2025 12:27:48 GMT-0400 (Eastern Daylight Time),5673723.0,005_o_f_h_a.png,I,z,908,7,3,1922.5,5671800.5,9013,VNB,B,6
7,test,2,0.0,1-Back,1.0,m,Thu Sep 11 2025 12:27:48 GMT-0400 (Eastern Daylight Time),5675506.199999809,011_m_f_n_a.png,I,m,751,8,3,1770.0999994277954,5673736.1000003815,9013,VNB,B,7
7,test,2,0.0,1-Back,0.0,m,Thu Sep 11 2025 12:27:48 GMT-0400 (Eastern Daylight Time),5677506.199999809,020_y_f_d_a.png,I,z,967,9,3,1987.3999996185303,5675518.800000191,9013,VNB,B,8
8,test,2,0.0,1-Back,1.0,m,Thu Sep 11 2025 12:27:48 GMT-0400 (Eastern Daylight Time),5679389.0,007_m_m_n_a.png,I,m,855,10,3,1870.6999998092651,5677518.300000191,9013,VNB,B,9
9,test,2,1.0,1-Back,1.0,m,Thu Sep 11 2025 12:27:48 GMT-0400 (Eastern Daylight Time),5681222.800000191,011_m_f_h_a.png,I,m,813,11,3,1824.5,5679398.300000191,9013,VNB,B,10
10,test,2,0.0,1-Back,1.0,z,Thu Sep 11 2025 12:27:48 GMT-0400 (Eastern Daylight Time),5682972.8999996185,004_o_m_h_a.png,I,z,722,12,3,1735.5999994277954,5681237.300000191,9013,VNB,B,11
11,test,2,0.0,1-Back,1.0,m,Thu Sep 11 2025 12:27:48 GMT-0400 (Eastern Daylight Time),5684705.8999996185,016_y_m_d_a.png,I,m,685,13,3,1716.5,5682989.3999996185,9013,VNB,B,12
12,test,2,0.0,1-Back,1.0,m,Thu Sep 11 2025 12:27:48 GMT-0400 (Eastern Daylight Time),5686439.3999996185,005_o_f_n_a.png,I,m,695,14,3,1717.1999998092651,5684722.199999809,9013,VNB,B,13
13,test,2,0.0,1-Back,1.0,z,Thu Sep 11 2025 12:27:48 GMT-0400 (Eastern Daylight Time),5688089.6000003815,020_y_f_n_a.png,I,z,627,15,3,1636.6000003814697,5686453.0,9013,VNB,B,14
14,test,2,1.0,1-Back,1.0,m,Thu Sep 11 2025 12:27:48 GMT-0400 (Eastern Daylight Time),5689956.1000003815,007_m_m_h_a.png,I,m,833,16,3,1848.4000005722046,5688107.699999809,9013,VNB,B,15
15,test,2,0.0,1-Back,1.0,m,Thu Sep 11 2025 12:27:48 GMT-0400 (Eastern Daylight Time),5691706.300000191,005_o_f_d_a.png,I,m,726,17,3,1740.0,5689966.300000191,9013,VNB,B,16
16,test,2,1.0,1-Back,1.0,z,Thu Sep 11 2025 12:27:48 GMT-0400 (Eastern Daylight Time),5693539.6000003815,004_o_m_d_a.png,I,z,785,18,3,1816.1000003814697,5691723.5,9013,VNB,B,17
0,test,3,1.0,1-Back,,,Thu Sep 11 2025 12:27:48 GMT-0400 (Eastern Daylight Time),5693539.6000003815,005_o_f_h_a.png,I,space,783,1,3,1816.1000003814697,5691723.5,9013,VNB,B,0
1,test,3,0.0,1-Back,1.0,m,Thu Sep 11 2025 12:27:48 GMT-0400 (Eastern Daylight Time),5698555.699999809,011_m_f_d_a.png,I,m,1007,2,3,2032.5,5696523.199999809,9013,VNB,B,1
2,test,3,1.0,1-Back,1.0,m,Thu Sep 11 2025 12:27:48 GMT-0400 (Eastern Daylight Time),5700339.6000003815,007_m_m_n_a.png,I,m,751,3,3,1775.1000003814697,5698564.5,9013,VNB,B,2
3,test,3,0.0,1-Back,1.0,z,Thu Sep 11 2025 12:27:48 GMT-0400 (Eastern Daylight Time),5701956.199999809,005_o_f_n_a.png,I,z,567,4,3,1600.5999994277954,5700355.6000003815,9013,VNB,B,3
4,test,3,1.0,1-Back,1.0,m,Thu Sep 11 2025 12:27:48 GMT-0400 (Eastern Daylight Time),5703656.300000191,004_o_m_d_a.png,I,m,679,5,3,1686.1000003814697,5701970.199999809,9013,VNB,B,4
5,test,3,0.0,1-Back,1.0,m,Thu Sep 11 2025 12:27:48 GMT-0400 (Eastern Daylight Time),5705339.6000003815,020_y_f_h_a.png,I,m,659,6,3,1672.2000007629395,5703667.3999996185,9013,VNB,B,5
6,test,3,0.0,1-Back,1.0,z,Thu Sep 11 2025 12:27:48 GMT-0400 (Eastern Daylight Time),5707039.699999809,016_y_m_h_a.png,I,z,669,7,3,1688.3999996185303,5705351.300000191,9013,VNB,B,6
7,test,3,0.0,1-Back,1.0,m,Thu Sep 11 2025 12:27:48 GMT-0400 (Eastern Daylight Time),5708705.8999996185,011_m_f_n_a.png,I,m,618,8,3,1649.3999996185303,5707056.5,9013,VNB,B,7
7,test,3,0.0,1-Back,0.0,m,Thu Sep 11 2025 12:27:48 GMT-0400 (Eastern Daylight Time),5710639.699999809,020_y_f_d_a.png,I,z,887,9,3,1910.0,5708729.699999809,9013,VNB,B,8
8,test,3,1.0,1-Back,1.0,m,Thu Sep 11 2025 12:27:48 GMT-0400 (Eastern Daylight Time),5712706.199999809,004_o_m_n_a.png,I,m,1034,10,3,2053.5,5710652.699999809,9013,VNB,B,9
9,test,3,0.0,1-Back,1.0,m,Thu Sep 11 2025 12:27:48 GMT-0400 (Eastern Daylight Time),5714389.3999996185,007_m_m_h_a.png,I,m,665,11,3,1669.8999996185303,5712719.5,9013,VNB,B,10
10,test,3,0.0,1-Back,1.0,z,Thu Sep 11 2025 12:27:48 GMT-0400 (Eastern Daylight Time),5716172.800000191,011_m_f_h_a.png,I,z,757,12,3,1771.0,5714401.800000191,9013,VNB,B,11
11,test,3,1.0,1-Back,1.0,m,Thu Sep 11 2025 12:27:48 GMT-0400 (Eastern Daylight Time),5718106.300000191,005_o_f_d_a.png,I,m,909,13,3,1922.3000001907349,5716184.0,9013,VNB,B,12
12,test,3,0.0,1-Back,1.0,z,Thu Sep 11 2025 12:27:48 GMT-0400 (Eastern Daylight Time),5719956.5,007_m_m_d_a.png,I,z,832,14,3,1836.1000003814697,5718120.3999996185,9013,VNB,B,13
13,test,3,0.0,1-Back,1.0,m,Thu Sep 11 2025 12:27:48 GMT-0400 (Eastern Daylight Time),5721722.8999996185,016_y_m_n_a.png,I,m,741,15,3,1753.3999996185303,5719969.5,9013,VNB,B,14
14,test,3,1.0,1-Back,1.0,m,Thu Sep 11 2025 12:27:48 GMT-0400 (Eastern Daylight Time),5723539.5,004_o_m_h_a.png,I,m,784,16,3,1802.8999996185303,5721736.6000003815,9013,VNB,B,15
15,test,3,0.0,1-Back,1.0,m,Thu Sep 11 2025 12:27:48 GMT-0400 (Eastern Daylight Time),5725222.8999996185,016_y_m_d_a.png,I,m,662,17,3,1671.8999996185303,5723551.0,9013,VNB,B,16
16,test,3,1.0,1-Back,1.0,m,Thu Sep 11 2025 12:27:48 GMT-0400 (Eastern Daylight Time),5726989.300000191,020_y_f_n_a.png,I,m,738,18,3,1752.1999998092651,5725237.1000003815,9013,VNB,B,17
0,test,4,1.0,1-Back,,,Thu Sep 11 2025 12:27:48 GMT-0400 (Eastern Daylight Time),5726989.300000191,007_m_m_d_a.png,I,space,806,1,3,1752.1999998092651,5725237.1000003815,9013,VNB,B,0
1,test,4,0.0,1-Back,1.0,z,Thu Sep 11 2025 12:27:48 GMT-0400 (Eastern Daylight Time),5732056.199999809,004_o_m_d_a.png,I,z,1212,2,3,2220.199999809265,5729836.0,9013,VNB,B,1
2,test,4,0.0,1-Back,1.0,m,Thu Sep 11 2025 12:27:48 GMT-0400 (Eastern Daylight Time),5733622.8999996185,016_y_m_h_a.png,I,m,546,3,3,1554.0,5732068.8999996185,9013,VNB,B,2
3,test,4,0.0,1-Back,1.0,m,Thu Sep 11 2025 12:27:48 GMT-0400 (Eastern Daylight Time),5735273.0,011_m_f_n_a.png,I,m,627,4,3,1637.3000001907349,5733635.699999809,9013,VNB,B,3
4,test,4,1.0,1-Back,1.0,m,Thu Sep 11 2025 12:27:48 GMT-0400 (Eastern Daylight Time),5737156.199999809,005_o_f_h_a.png,I,m,849,5,3,1867.5999994277954,5735288.6000003815,9013,VNB,B,4
5,test,4,0.0,1-Back,1.0,m,Thu Sep 11 2025 12:27:48 GMT-0400 (Eastern Daylight Time),5738906.3999996185,007_m_m_n_a.png,I,m,726,6,3,1740.1999998092651,5737166.199999809,9013,VNB,B,5
6,test,4,0.0,1-Back,1.0,m,Thu Sep 11 2025 12:27:48 GMT-0400 (Eastern Daylight Time),5740706.199999809,016_y_m_d_a.png,I,m,751,7,3,1782.0999994277954,5738924.1000003815,9013,VNB,B,6
7,test,4,1.0,1-Back,1.0,z,Thu Sep 11 2025 12:27:48 GMT-0400 (Eastern Daylight Time),5742606.300000191,020_y_f_d_a.png,I,z,872,8,3,1886.1999998092651,5740720.1000003815,9013,VNB,B,7
8,test,4,0.0,1-Back,1.0,m,Thu Sep 11 2025 12:27:48 GMT-0400 (Eastern Daylight Time),5744372.699999809,011_m_f_h_a.png,I,m,732,9,3,1751.3000001907349,5742621.3999996185,9013,VNB,B,8
9,test,4,0.0,1-Back,1.0,z,Thu Sep 11 2025 12:27:48 GMT-0400 (Eastern Daylight Time),5746273.0,004_o_m_h_a.png,I,z,854,10,3,1882.8000001907349,5744390.199999809,9013,VNB,B,9
10,test,4,1.0,1-Back,1.0,m,Thu Sep 11 2025 12:27:48 GMT-0400 (Eastern Daylight Time),5747956.3999996185,005_o_f_n_a.png,I,m,633,11,3,1670.0999994277954,5746286.300000191,9013,VNB,B,10
11,test,4,0.0,1-Back,1.0,m,Thu Sep 11 2025 12:27:48 GMT-0400 (Eastern Daylight Time),5749739.5,011_m_f_d_a.png,I,m,757,12,3,1771.1999998092651,5747968.300000191,9013,VNB,B,11
12,test,4,0.0,1-Back,1.0,m,Thu Sep 11 2025 12:27:48 GMT-0400 (Eastern Daylight Time),5751473.0,020_y_f_n_a.png,I,m,703,13,3,1724.1999998092651,5749748.800000191,9013,VNB,B,12
13,test,4,0.0,1-Back,1.0,m,Thu Sep 11 2025 12:27:48 GMT-0400 (Eastern Daylight Time),5753139.699999809,005_o_f_d_a.png,I,m,634,14,3,1652.5,5751487.199999809,9013,VNB,B,13
14,test,4,0.0,1-Back,1.0,m,Thu Sep 11 2025 12:27:48 GMT-0400 (Eastern Daylight Time),5754923.0,020_y_f_h_a.png,I,m,743,15,3,1767.5,5753155.5,9013,VNB,B,14
15,test,4,1.0,1-Back,1.0,z,Thu Sep 11 2025 12:27:48 GMT-0400 (Eastern Daylight Time),5756623.0,007_m_m_h_a.png,I,z,671,16,3,1689.8000001907349,5754933.199999809,9013,VNB,B,15
16,test,4,0.0,1-Back,1.0,m,Thu Sep 11 2025 12:27:48 GMT-0400 (Eastern Daylight Time),5758322.8999996185,004_o_m_n_a.png,I,m,667,17,3,1686.5999994277954,5756636.300000191,9013,VNB,B,16
17,test,4,1.0,1-Back,1.0,z,Thu Sep 11 2025 12:27:48 GMT-0400 (Eastern Daylight Time),5759956.3999996185,016_y_m_n_a.png,I,z,616,18,3,1617.5999994277954,5758338.800000191,9013,VNB,B,17
0,test,5,1.0,1-Back,,,Thu Sep 11 2025 12:27:48 GMT-0400 (Eastern Daylight Time),5759956.3999996185,004_o_m_n_a.png,I,space,782,1,3,1617.5999994277954,5758338.800000191,9013,VNB,B,0
1,test,5,1.0,1-Back,1.0,m,Thu Sep 11 2025 12:27:48 GMT-0400 (Eastern Daylight Time),5764506.300000191,005_o_f_h_a.png,I,m,710,2,3,1718.5,5762787.800000191,9013,VNB,B,1
2,test,5,0.0,1-Back,1.0,m,Thu Sep 11 2025 12:27:48 GMT-0400 (Eastern Daylight Time),5766789.300000191,016_y_m_d_a.png,I,m,1264,3,3,2270.0,5764519.300000191,9013,VNB,B,2
3,test,5,0.0,1-Back,1.0,z,Thu Sep 11 2025 12:27:48 GMT-0400 (Eastern Daylight Time),5768473.0,004_o_m_d_a.png,I,z,660,4,3,1671.3999996185303,5766801.6000003815,9013,VNB,B,3
4,test,5,0.0,1-Back,1.0,m,Thu Sep 11 2025 12:27:48 GMT-0400 (Eastern Daylight Time),5770173.0,011_m_f_h_a.png,I,m,673,5,3,1689.8000001907349,5768483.199999809,9013,VNB,B,4
5,test,5,0.0,1-Back,1.0,m,Thu Sep 11 2025 12:27:48 GMT-0400 (Eastern Daylight Time),5771905.699999809,020_y_f_n_a.png,I,m,701,6,3,1718.3000001907349,5770187.3999996185,9013,VNB,B,5
6,test,5,1.0,1-Back,1.0,z,Thu Sep 11 2025 12:27:48 GMT-0400 (Eastern Daylight Time),5773472.6000003815,005_o_f_n_a.png,I,z,536,7,3,1556.3000001907349,5771916.300000191,9013,VNB,B,6
7,test,5,0.0,1-Back,1.0,m,Thu Sep 11 2025 12:27:48 GMT-0400 (Eastern Daylight Time),5775206.0,011_m_f_d_a.png,I,m,714,8,3,1723.0,5773483.0,9013,VNB,B,7
8,test,5,0.0,1-Back,1.0,m,Thu Sep 11 2025 12:27:48 GMT-0400 (Eastern Daylight Time),5776939.300000191,016_y_m_h_a.png,I,m,707,9,3,1719.8000001907349,5775219.5,9013,VNB,B,8
9,test,5,0.0,1-Back,1.0,m,Thu Sep 11 2025 12:27:48 GMT-0400 (Eastern Daylight Time),5778656.300000191,020_y_f_d_a.png,I,m,687,10,3,1708.0,5776948.300000191,9013,VNB,B,9
10,test,5,0.0,1-Back,1.0,m,Thu Sep 11 2025 12:27:48 GMT-0400 (Eastern Daylight Time),5780389.3999996185,007_m_m_n_a.png,I,m,698,11,3,1716.6999998092651,5778672.699999809,9013,VNB,B,10
11,test,5,1.0,1-Back,1.0,z,Thu Sep 11 2025 12:27:48 GMT-0400 (Eastern Daylight Time),5782339.699999809,011_m_f_n_a.png,I,z,917,12,3,1939.3000001907349,5780400.3999996185,9013,VNB,B,11
12,test,5,0.0,1-Back,1.0,m,Thu Sep 11 2025 12:27:48 GMT-0400 (Eastern Daylight Time),5784073.1000003815,004_o_m_h_a.png,I,m,694,13,3,1718.1000003814697,5782355.0,9013,VNB,B,12
13,test,5,0.0,1-Back,1.0,z,Thu Sep 11 2025 12:27:48 GMT-0400 (Eastern Daylight Time),5785889.6000003815,007_m_m_h_a.png,I,z,769,14,3,1800.7000007629395,5784088.8999996185,9013,VNB,B,13
14,test,5,1.0,1-Back,1.0,m,Thu Sep 11 2025 12:27:48 GMT-0400 (Eastern Daylight Time),5787556.300000191,005_o_f_d_a.png,I,m,633,15,3,1654.6999998092651,5785901.6000003815,9013,VNB,B,14
15,test,5,0.0,1-Back,1.0,m,Thu Sep 11 2025 12:27:48 GMT-0400 (Eastern Daylight Time),5789139.699999809,016_y_m_n_a.png,I,m,550,16,3,1569.8999996185303,5787569.800000191,9013,VNB,B,15
16,test,5,0.0,1-Back,1.0,m,Thu Sep 11 2025 12:27:48 GMT-0400 (Eastern Daylight Time),5790738.8999996185,020_y_f_h_a.png,I,m,566,17,3,1583.5999994277954,5789155.300000191,9013,VNB,B,16
17,test,5,0.0,1-Back,1.0,m,Thu Sep 11 2025 12:27:48 GMT-0400 (Eastern Daylight Time),5792472.8999996185,007_m_m_d_a.png,I,m,710,18,3,1721.5,5790751.3999996185,9013,VNB,B,17
0,prac,1,0.0,2-Back,,,Thu Sep 11 2025 12:27:48 GMT-0400 (Eastern Daylight Time),5792472.8999996185,011_m_f_n_a.png,I,space,13287,1,3,1721.5,5790751.3999996185,9013,VNB,B,0
0,prac,1,0.0,2-Back,,,Thu Sep 11 2025 12:27:48 GMT-0400 (Eastern Daylight Time),5792472.8999996185,005_o_f_h_a.png,I,space,13287,2,3,1721.5,5790751.3999996185,9013,VNB,B,0
0,prac,1,0.0,2-Back,0.0,m,Thu Sep 11 2025 12:27:48 GMT-0400 (Eastern Daylight Time),5897894.199999809,004_o_m_d_a.png,I,z,1747,3,3,2652.8999996185303,5895241.300000191,9013,VNB,B,1
0,prac,1,1.0,2-Back,0.0,z,Thu Sep 11 2025 12:27:48 GMT-0400 (Eastern Daylight Time),5900889.300000191,007_m_m_h_a.png,I,None,2016,4,3,2953.800000190735,5897935.5,9013,VNB,B,2
0,prac,1,0.0,2-Back,0.0,m,Thu Sep 11 2025 12:27:48 GMT-0400 (Eastern Daylight Time),5903839.800000191,020_y_f_n_a.png,I,None,2015,5,3,2933.199999809265,5900906.6000003815,9013,VNB,B,3
0,prac,1,1.0,2-Back,0.0,z,Thu Sep 11 2025 12:27:48 GMT-0400 (Eastern Daylight Time),5905873.1000003815,004_o_m_h_a.png,I,m,1094,6,3,2012.9000005722046,5903860.199999809,9013,VNB,B,4
1,prac,1,1.0,2-Back,1.0,z,Thu Sep 11 2025 12:27:48 GMT-0400 (Eastern Daylight Time),5908189.800000191,016_y_m_n_a.png,I,z,1356,7,3,2299.6000003814697,5905890.199999809,9013,VNB,B,5
2,prac,1,0.0,2-Back,1.0,m,Thu Sep 11 2025 12:27:48 GMT-0400 (Eastern Daylight Time),5910039.699999809,011_m_f_d_a.png,I,m,903,8,3,1831.8999996185303,5908207.800000191,9013,VNB,B,6
3,prac,1,0.0,2-Back,1.0,m,Thu Sep 11 2025 12:27:48 GMT-0400 (Eastern Daylight Time),5912956.5,005_o_f_d_a.png,I,m,1951,9,3,2900.1000003814697,5910056.3999996185,9013,VNB,B,7
4,prac,1,0.0,2-Back,1.0,m,Thu Sep 11 2025 12:27:48 GMT-0400 (Eastern Daylight Time),5915873.199999809,007_m_m_h_a.png,I,m,1957,10,3,2902.199999809265,5912971.0,9013,VNB,B,8
5,prac,1,1.0,2-Back,1.0,z,Thu Sep 11 2025 12:27:48 GMT-0400 (Eastern Daylight Time),5917806.199999809,020_y_f_d_a.png,I,z,994,11,3,1920.0,5915886.199999809,9013,VNB,B,9
6,prac,1,0.0,2-Back,1.0,m,Thu Sep 11 2025 12:27:48 GMT-0400 (Eastern Daylight Time),5920423.1000003815,004_o_m_n_a.png,I,m,1693,12,3,2599.6000003814697,5917823.5,9013,VNB,B,10
0,prac,2,0.0,2-Back,,,Thu Sep 11 2025 12:27:48 GMT-0400 (Eastern Daylight Time),5920423.1000003815,011_m_f_n_a.png,I,a,2580,1,3,2599.6000003814697,5917823.5,9013,VNB,B,0
0,prac,2,0.0,2-Back,,,Thu Sep 11 2025 12:27:48 GMT-0400 (Eastern Daylight Time),5920423.1000003815,005_o_f_h_a.png,I,a,2580,2,3,2599.6000003814697,5917823.5,9013,VNB,B,0
0,prac,2,0.0,2-Back,0.0,m,Thu Sep 11 2025 12:27:48 GMT-0400 (Eastern Daylight Time),5930723.199999809,004_o_m_d_a.png,I,z,1423,3,3,2331.699999809265,5928391.5,9013,VNB,B,1
0,prac,2,1.0,2-Back,0.0,z,Thu Sep 11 2025 12:27:48 GMT-0400 (Eastern Daylight Time),5933523.0,007_m_m_h_a.png,I,None,2010,4,3,2777.8999996185303,5930745.1000003815,9013,VNB,B,2
0,prac,2,0.0,2-Back,0.0,m,Thu Sep 11 2025 12:27:48 GMT-0400 (Eastern Daylight Time),5936456.5,020_y_f_n_a.png,I,None,2005,5,3,2911.3999996185303,5933545.1000003815,9013,VNB,B,3
0,prac,2,1.0,2-Back,0.0,z,Thu Sep 11 2025 12:27:48 GMT-0400 (Eastern Daylight Time),5939389.6000003815,004_o_m_h_a.png,I,None,2011,6,3,2913.7000007629395,5936475.8999996185,9013,VNB,B,4
1,prac,2,1.0,2-Back,1.0,z,Thu Sep 11 2025 12:27:48 GMT-0400 (Eastern Daylight Time),5941873.199999809,016_y_m_n_a.png,I,z,1514,7,3,2460.699999809265,5939412.5,9013,VNB,B,5
2,prac,2,0.0,2-Back,1.0,m,Thu Sep 11 2025 12:27:48 GMT-0400 (Eastern Daylight Time),5943856.3999996185,011_m_f_d_a.png,I,m,1030,8,3,1965.2999992370605,5941891.1000003815,9013,VNB,B,6
2,prac,2,0.0,2-Back,0.0,m,Thu Sep 11 2025 12:27:48 GMT-0400 (Eastern Daylight Time),5946806.5,005_o_f_d_a.png,I,None,2006,9,3,2928.199999809265,5943878.300000191,9013,VNB,B,7
3,prac,2,0.0,2-Back,1.0,m,Thu Sep 11 2025 12:27:48 GMT-0400 (Eastern Daylight Time),5948306.5,007_m_m_h_a.png,I,m,701,10,3,1483.5,5946823.0,9013,VNB,B,8
3,prac,2,1.0,2-Back,0.0,z,Thu Sep 11 2025 12:27:48 GMT-0400 (Eastern Daylight Time),5950739.800000191,020_y_f_d_a.png,I,m,1506,11,3,2416.5,5948323.300000191,9013,VNB,B,9
3,prac,2,0.0,2-Back,0.0,m,Thu Sep 11 2025 12:27:48 GMT-0400 (Eastern Daylight Time),5952839.800000191,004_o_m_n_a.png,I,z,1172,12,3,2079.0,5950760.800000191,9013,VNB,B,10
0,prac,3,0.0,2-Back,,,Thu Sep 11 2025 12:27:48 GMT-0400 (Eastern Daylight Time),5952839.800000191,011_m_f_n_a.png,I,a,2563,1,3,2079.0,5950760.800000191,9013,VNB,B,0
0,prac,3,0.0,2-Back,,,Thu Sep 11 2025 12:27:48 GMT-0400 (Eastern Daylight Time),5952839.800000191,005_o_f_h_a.png,I,a,2563,2,3,2079.0,5950760.800000191,9013,VNB,B,0
1,prac,3,0.0,2-Back,1.0,m,Thu Sep 11 2025 12:27:48 GMT-0400 (Eastern Daylight Time),5963373.300000191,004_o_m_d_a.png,I,m,1666,3,3,2582.199999809265,5960791.1000003815,9013,VNB,B,1
1,prac,3,1.0,2-Back,0.0,z,Thu Sep 11 2025 12:27:48 GMT-0400 (Eastern Daylight Time),5966323.1000003815,007_m_m_h_a.png,I,None,2007,4,3,2936.2000007629395,5963386.8999996185,9013,VNB,B,2
1,prac,3,0.0,2-Back,0.0,m,Thu Sep 11 2025 12:27:48 GMT-0400 (Eastern Daylight Time),5968389.800000191,020_y_f_n_a.png,I,z,1139,5,3,2049.300000190735,5966340.5,9013,VNB,B,3
1,prac,3,1.0,2-Back,0.0,z,Thu Sep 11 2025 12:27:48 GMT-0400 (Eastern Daylight Time),5970223.1000003815,004_o_m_h_a.png,I,m,898,6,3,1818.1000003814697,5968405.0,9013,VNB,B,4
2,prac,3,1.0,2-Back,1.0,z,Thu Sep 11 2025 12:27:48 GMT-0400 (Eastern Daylight Time),5972456.5,016_y_m_n_a.png,I,z,1268,7,3,2219.800000190735,5970236.699999809,9013,VNB,B,5
3,prac,3,0.0,2-Back,1.0,m,Thu Sep 11 2025 12:27:48 GMT-0400 (Eastern Daylight Time),5974656.6000003815,011_m_f_d_a.png,I,m,1247,8,3,2182.800000190735,5972473.800000191,9013,VNB,B,6
3,prac,3,0.0,2-Back,0.0,m,Thu Sep 11 2025 12:27:48 GMT-0400 (Eastern Daylight Time),5976989.8999996185,005_o_f_d_a.png,I,z,1372,9,3,2314.3999996185303,5974675.5,9013,VNB,B,7
3,prac,3,0.0,2-Back,0.0,m,Thu Sep 11 2025 12:27:48 GMT-0400 (Eastern Daylight Time),5979006.5,007_m_m_h_a.png,I,z,1055,10,3,1997.1000003814697,5977009.3999996185,9013,VNB,B,8
3,prac,3,1.0,2-Back,0.0,z,Thu Sep 11 2025 12:27:48 GMT-0400 (Eastern Daylight Time),5980756.3999996185,020_y_f_d_a.png,I,m,818,11,3,1731.7999992370605,5979024.6000003815,9013,VNB,B,9
4,prac,3,0.0,2-Back,1.0,m,Thu Sep 11 2025 12:27:48 GMT-0400 (Eastern Daylight Time),5982373.300000191,004_o_m_n_a.png,I,m,694,12,3,1602.6000003814697,5980770.699999809,9013,VNB,B,10
0,test,1,0.0,2-Back,,,Thu Sep 11 2025 12:27:48 GMT-0400 (Eastern Daylight Time),5982373.300000191,016_y_m_h_a.png,I,space,18663,1,3,1602.6000003814697,5980770.699999809,9013,VNB,B,0
0,test,1,0.0,2-Back,,,Thu Sep 11 2025 12:27:48 GMT-0400 (Eastern Daylight Time),5982373.300000191,005_o_f_n_a.png,I,space,18663,2,3,1602.6000003814697,5980770.699999809,9013,VNB,B,0
1,test,1,0.0,2-Back,1.0,z,Thu Sep 11 2025 12:27:48 GMT-0400 (Eastern Daylight Time),6015740.0,004_o_m_h_a.png,I,z,1541,3,3,2554.5,6013185.5,9013,VNB,B,1
1,test,1,0.0,2-Back,0.0,m,Thu Sep 11 2025 12:27:48 GMT-0400 (Eastern Daylight Time),6018439.199999809,011_m_f_d_a.png,I,z,1661,4,3,2684.800000190735,6015754.3999996185,9013,VNB,B,2
1,test,1,1.0,2-Back,0.0,m,Thu Sep 11 2025 12:27:48 GMT-0400 (Eastern Daylight Time),6021473.5,016_y_m_n_a.png,I,None,2015,5,3,3023.5,6018450.0,9013,VNB,B,3
1,test,1,0.0,2-Back,0.0,z,Thu Sep 11 2025 12:27:48 GMT-0400 (Eastern Daylight Time),6023889.800000191,020_y_f_d_a.png,I,m,1320,6,3,2349.300000190735,6021540.5,9013,VNB,B,4
2,test,1,0.0,2-Back,1.0,m,Thu Sep 11 2025 12:27:48 GMT-0400 (Eastern Daylight Time),6026289.1000003815,007_m_m_h_a.png,I,m,1352,7,3,2383.1000003814697,6023906.0,9013,VNB,B,5
2,test,1,1.0,2-Back,0.0,m,Thu Sep 11 2025 12:27:48 GMT-0400 (Eastern Daylight Time),6028739.800000191,020_y_f_n_a.png,I,z,1417,8,3,2442.0,6026297.800000191,9013,VNB,B,6
3,test,1,0.0,2-Back,1.0,z,Thu Sep 11 2025 12:27:48 GMT-0400 (Eastern Daylight Time),6030822.800000191,005_o_f_h_a.png,I,z,1062,9,3,2069.6000003814697,6028753.199999809,9013,VNB,B,7
4,test,1,0.0,2-Back,1.0,m,Thu Sep 11 2025 12:27:48 GMT-0400 (Eastern Daylight Time),6033239.800000191,004_o_m_d_a.png,I,m,1396,10,3,2408.699999809265,6030831.1000003815,9013,VNB,B,8
5,test,1,1.0,2-Back,1.0,m,Thu Sep 11 2025 12:27:48 GMT-0400 (Eastern Daylight Time),6035056.5,007_m_m_d_a.png,I,m,787,11,3,1804.1999998092651,6033252.300000191,9013,VNB,B,9
6,test,1,0.0,2-Back,1.0,m,Thu Sep 11 2025 12:27:48 GMT-0400 (Eastern Daylight Time),6038006.5,011_m_f_n_a.png,I,m,1930,12,3,2936.5,6035070.0,9013,VNB,B,10
7,test,1,0.0,2-Back,1.0,m,Thu Sep 11 2025 12:27:48 GMT-0400 (Eastern Daylight Time),6039939.800000191,020_y_f_h_a.png,I,m,900,13,3,1921.6000003814697,6038018.199999809,9013,VNB,B,11
8,test,1,0.0,2-Back,1.0,z,Thu Sep 11 2025 12:27:48 GMT-0400 (Eastern Daylight Time),6042173.0,007_m_m_n_a.png,I,z,1191,14,3,2216.5,6039956.5,9013,VNB,B,12
9,test,1,0.0,2-Back,1.0,m,Thu Sep 11 2025 12:27:48 GMT-0400 (Eastern Daylight Time),6044623.199999809,016_y_m_d_a.png,I,m,1406,15,3,2432.5999994277954,6042190.6000003815,9013,VNB,B,13
9,test,1,1.0,2-Back,0.0,m,Thu Sep 11 2025 12:27:48 GMT-0400 (Eastern Daylight Time),6047073.199999809,011_m_f_h_a.png,I,z,1403,16,3,2433.0999994277954,6044640.1000003815,9013,VNB,B,14
10,test,1,0.0,2-Back,1.0,z,Thu Sep 11 2025 12:27:48 GMT-0400 (Eastern Daylight Time),6049389.699999809,005_o_f_d_a.png,I,z,1289,17,3,2301.800000190735,6047087.8999996185,9013,VNB,B,15
11,test,1,0.0,2-Back,1.0,m,Thu Sep 11 2025 12:27:48 GMT-0400 (Eastern Daylight Time),6051223.0,004_o_m_n_a.png,I,m,813,18,3,1821.1000003814697,6049401.8999996185,9013,VNB,B,16
0,test,2,0.0,2-Back,,,Thu Sep 11 2025 12:27:48 GMT-0400 (Eastern Daylight Time),6051223.0,007_m_m_h_a.png,I,space,1052,1,3,1821.1000003814697,6049401.8999996185,9013,VNB,B,0
0,test,2,0.0,2-Back,,,Thu Sep 11 2025 12:27:48 GMT-0400 (Eastern Daylight Time),6051223.0,020_y_f_n_a.png,I,space,1052,2,3,1821.1000003814697,6049401.8999996185,9013,VNB,B,0
1,test,2,1.0,2-Back,1.0,z,Thu Sep 11 2025 12:27:48 GMT-0400 (Eastern Daylight Time),6059273.1000003815,005_o_f_h_a.png,I,z,611,3,3,1621.4000005722046,6057651.699999809,9013,VNB,B,1
2,test,2,0.0,2-Back,1.0,m,Thu Sep 11 2025 12:27:48 GMT-0400 (Eastern Daylight Time),6061823.199999809,004_o_m_d_a.png,I,m,1521,4,3,2535.8999996185303,6059287.300000191,9013,VNB,B,2
2,test,2,0.0,2-Back,0.0,m,Thu Sep 11 2025 12:27:48 GMT-0400 (Eastern Daylight Time),6064856.800000191,011_m_f_d_a.png,I,None,2015,5,3,3020.1000003814697,6061836.699999809,9013,VNB,B,3
3,test,2,0.0,2-Back,1.0,m,Thu Sep 11 2025 12:27:48 GMT-0400 (Eastern Daylight Time),6067056.5,016_y_m_h_a.png,I,m,1153,6,3,2176.8999996185303,6064879.6000003815,9013,VNB,B,4
4,test,2,0.0,2-Back,1.0,m,Thu Sep 11 2025 12:27:48 GMT-0400 (Eastern Daylight Time),6069956.6000003815,005_o_f_n_a.png,I,m,1866,7,3,2882.4000005722046,6067074.199999809,9013,VNB,B,5
5,test,2,1.0,2-Back,1.0,z,Thu Sep 11 2025 12:27:48 GMT-0400 (Eastern Daylight Time),6071556.6000003815,004_o_m_h_a.png,I,z,550,8,3,1584.3000001907349,6069972.300000191,9013,VNB,B,6
6,test,2,0.0,2-Back,1.0,m,Thu Sep 11 2025 12:27:48 GMT-0400 (Eastern Daylight Time),6073395.0,020_y_f_d_a.png,I,m,758,9,3,1826.3000001907349,6071568.699999809,9013,VNB,B,7
7,test,2,0.0,2-Back,1.0,m,Thu Sep 11 2025 12:27:48 GMT-0400 (Eastern Daylight Time),6076306.6000003815,016_y_m_d_a.png,I,m,1869,10,3,2901.300000190735,6073405.300000191,9013,VNB,B,8
7,test,2,0.0,2-Back,0.0,m,Thu Sep 11 2025 12:27:48 GMT-0400 (Eastern Daylight Time),6078339.5,007_m_m_n_a.png,I,z,1000,11,3,2019.8999996185303,6076319.6000003815,9013,VNB,B,9
8,test,2,0.0,2-Back,1.0,m,Thu Sep 11 2025 12:27:48 GMT-0400 (Eastern Daylight Time),6080856.300000191,011_m_f_h_a.png,I,m,1494,12,3,2508.9000005722046,6078347.3999996185,9013,VNB,B,10
9,test,2,1.0,2-Back,1.0,z,Thu Sep 11 2025 12:27:48 GMT-0400 (Eastern Daylight Time),6082556.5,004_o_m_n_a.png,I,z,674,13,3,1691.0,6080865.5,9013,VNB,B,11
10,test,2,0.0,2-Back,1.0,m,Thu Sep 11 2025 12:27:48 GMT-0400 (Eastern Daylight Time),6084389.699999809,005_o_f_d_a.png,I,m,798,14,3,1817.5999994277954,6082572.1000003815,9013,VNB,B,12
11,test,2,0.0,2-Back,1.0,m,Thu Sep 11 2025 12:27:48 GMT-0400 (Eastern Daylight Time),6086406.300000191,020_y_f_h_a.png,I,m,980,15,3,2000.9000005722046,6084405.3999996185,9013,VNB,B,13
11,test,2,0.0,2-Back,0.0,z,Thu Sep 11 2025 12:27:48 GMT-0400 (Eastern Daylight Time),6088606.199999809,007_m_m_d_a.png,I,m,1171,16,3,2186.0,6086420.199999809,9013,VNB,B,14
12,test,2,0.0,2-Back,1.0,m,Thu Sep 11 2025 12:27:48 GMT-0400 (Eastern Daylight Time),6090806.1000003815,016_y_m_n_a.png,I,m,1179,17,3,2189.800000190735,6088616.300000191,9013,VNB,B,15
12,test,2,1.0,2-Back,0.0,m,Thu Sep 11 2025 12:27:48 GMT-0400 (Eastern Daylight Time),6093023.0,011_m_f_n_a.png,I,z,1187,18,3,2206.5,6090816.5,9013,VNB,B,16
0,test,3,1.0,2-Back,,,Thu Sep 11 2025 12:27:48 GMT-0400 (Eastern Daylight Time),6093023.0,004_o_m_n_a.png,I,space,995,1,3,2206.5,6090816.5,9013,VNB,B,0
0,test,3,1.0,2-Back,,,Thu Sep 11 2025 12:27:48 GMT-0400 (Eastern Daylight Time),6093023.0,005_o_f_d_a.png,I,space,995,2,3,2206.5,6090816.5,9013,VNB,B,0
1,test,3,0.0,2-Back,1.0,m,Thu Sep 11 2025 12:27:48 GMT-0400 (Eastern Daylight Time),6101306.6000003815,020_y_f_h_a.png,I,m,1193,3,3,2215.800000190735,6099090.800000191,9013,VNB,B,1
1,test,3,0.0,2-Back,0.0,z,Thu Sep 11 2025 12:27:48 GMT-0400 (Eastern Daylight Time),6103873.1000003815,011_m_f_d_a.png,I,m,1536,4,3,2551.5,6101321.6000003815,9013,VNB,B,2
2,test,3,1.0,2-Back,1.0,m,Thu Sep 11 2025 12:27:48 GMT-0400 (Eastern Daylight Time),6106473.199999809,016_y_m_n_a.png,I,m,1577,5,3,2589.699999809265,6103883.5,9013,VNB,B,3
2,test,3,0.0,2-Back,0.0,m,Thu Sep 11 2025 12:27:48 GMT-0400 (Eastern Daylight Time),6108406.300000191,004_o_m_h_a.png,I,z,914,6,3,1918.1999998092651,6106488.1000003815,9013,VNB,B,4
3,test,3,0.0,2-Back,1.0,z,Thu Sep 11 2025 12:27:48 GMT-0400 (Eastern Daylight Time),6110706.5,020_y_f_n_a.png,I,z,1252,7,3,2283.5,6108423.0,9013,VNB,B,5
4,test,3,1.0,2-Back,1.0,m,Thu Sep 11 2025 12:27:48 GMT-0400 (Eastern Daylight Time),6112789.6000003815,007_m_m_d_a.png,I,m,1048,8,3,2067.4000005722046,6110722.199999809,9013,VNB,B,6
5,test,3,0.0,2-Back,1.0,m,Thu Sep 11 2025 12:27:48 GMT-0400 (Eastern Daylight Time),6115023.199999809,016_y_m_d_a.png,I,m,1189,9,3,2215.8999996185303,6112807.300000191,9013,VNB,B,7
6,test,3,0.0,2-Back,1.0,m,Thu Sep 11 2025 12:27:48 GMT-0400 (Eastern Daylight Time),6117006.0,005_o_f_h_a.png,I,m,954,10,3,1967.3999996185303,6115038.6000003815,9013,VNB,B,8
6,test,3,1.0,2-Back,0.0,m,Thu Sep 11 2025 12:27:48 GMT-0400 (Eastern Daylight Time),6119106.699999809,011_m_f_n_a.png,I,z,1068,11,3,2089.8999996185303,6117016.800000191,9013,VNB,B,9
7,test,3,1.0,2-Back,1.0,z,Thu Sep 11 2025 12:27:48 GMT-0400 (Eastern Daylight Time),6120889.8999996185,007_m_m_h_a.png,I,z,760,12,3,1769.8999996185303,6119120.0,9013,VNB,B,10
7,test,3,0.0,2-Back,0.0,m,Thu Sep 11 2025 12:27:48 GMT-0400 (Eastern Daylight Time),6122623.300000191,020_y_f_d_a.png,I,z,689,13,3,1715.9000005722046,6120907.3999996185,9013,VNB,B,11
7,test,3,0.0,2-Back,0.0,m,Thu Sep 11 2025 12:27:48 GMT-0400 (Eastern Daylight Time),6125223.0,005_o_f_n_a.png,I,z,1564,14,3,2582.1000003814697,6122640.8999996185,9013,VNB,B,12
7,test,3,0.0,2-Back,0.0,z,Thu Sep 11 2025 12:27:48 GMT-0400 (Eastern Daylight Time),6127589.6000003815,004_o_m_d_a.png,I,m,1347,15,3,2355.1000003814697,6125234.5,9013,VNB,B,13
8,test,3,1.0,2-Back,1.0,m,Thu Sep 11 2025 12:27:48 GMT-0400 (Eastern Daylight Time),6129706.5,011_m_f_h_a.png,I,m,1091,16,3,2102.5,6127604.0,9013,VNB,B,14
8,test,3,0.0,2-Back,0.0,m,Thu Sep 11 2025 12:27:48 GMT-0400 (Eastern Daylight Time),6131839.8999996185,007_m_m_n_a.png,I,z,1088,17,3,2113.5,6129726.3999996185,9013,VNB,B,15
9,test,3,0.0,2-Back,1.0,z,Thu Sep 11 2025 12:27:48 GMT-0400 (Eastern Daylight Time),6133323.300000191,016_y_m_h_a.png,I,z,442,18,3,1465.8000001907349,6131857.5,9013,VNB,B,16
0,test,4,0.0,2-Back,,,Thu Sep 11 2025 12:27:48 GMT-0400 (Eastern Daylight Time),6133323.300000191,011_m_f_n_a.png,I,space,807,1,3,1465.8000001907349,6131857.5,9013,VNB,B,0
0,test,4,0.0,2-Back,,,Thu Sep 11 2025 12:27:48 GMT-0400 (Eastern Daylight Time),6133323.300000191,004_o_m_n_a.png,I,space,807,2,3,1465.8000001907349,6131857.5,9013,VNB,B,0
1,test,4,1.0,2-Back,1.0,m,Thu Sep 11 2025 12:27:48 GMT-0400 (Eastern Daylight Time),6141389.8999996185,016_y_m_h_a.png,I,m,889,3,3,1915.5999994277954,6139474.300000191,9013,VNB,B,1
2,test,4,1.0,2-Back,1.0,m,Thu Sep 11 2025 12:27:48 GMT-0400 (Eastern Daylight Time),6143323.300000191,005_o_f_d_a.png,I,m,909,4,3,1918.9000005722046,6141404.3999996185,9013,VNB,B,2
3,test,4,0.0,2-Back,1.0,z,Thu Sep 11 2025 12:27:48 GMT-0400 (Eastern Daylight Time),6145140.0,004_o_m_h_a.png,I,z,783,5,3,1802.1999998092651,6143337.800000191,9013,VNB,B,3
4,test,4,0.0,2-Back,1.0,m,Thu Sep 11 2025 12:27:48 GMT-0400 (Eastern Daylight Time),6147023.300000191,007_m_m_n_a.png,I,m,855,6,3,1870.1000003814697,6145153.199999809,9013,VNB,B,4
5,test,4,0.0,2-Back,1.0,m,Thu Sep 11 2025 12:27:48 GMT-0400 (Eastern Daylight Time),6148839.8999996185,011_m_f_d_a.png,I,m,778,7,3,1799.0,6147040.8999996185,9013,VNB,B,5
6,test,4,0.0,2-Back,1.0,z,Thu Sep 11 2025 12:27:48 GMT-0400 (Eastern Daylight Time),6150939.800000191,020_y_f_n_a.png,I,z,1058,8,3,2084.699999809265,6148855.1000003815,9013,VNB,B,6
7,test,4,1.0,2-Back,1.0,m,Thu Sep 11 2025 12:27:48 GMT-0400 (Eastern Daylight Time),6153172.699999809,005_o_f_h_a.png,I,m,1198,9,3,2213.699999809265,6150959.0,9013,VNB,B,7
8,test,4,0.0,2-Back,1.0,m,Thu Sep 11 2025 12:27:48 GMT-0400 (Eastern Daylight Time),6155056.6000003815,007_m_m_h_a.png,I,m,853,10,3,1871.9000005722046,6153184.699999809,9013,VNB,B,8
9,test,4,0.0,2-Back,1.0,m,Thu Sep 11 2025 12:27:48 GMT-0400 (Eastern Daylight Time),6156823.199999809,020_y_f_d_a.png,I,m,730,11,3,1748.1999998092651,6155075.0,9013,VNB,B,9
9,test,4,0.0,2-Back,0.0,m,Thu Sep 11 2025 12:27:48 GMT-0400 (Eastern Daylight Time),6159339.8999996185,016_y_m_n_a.png,I,z,1475,12,3,2499.8999996185303,6156840.0,9013,VNB,B,10
10,test,4,0.0,2-Back,1.0,z,Thu Sep 11 2025 12:27:48 GMT-0400 (Eastern Daylight Time),6161189.6000003815,004_o_m_d_a.png,I,z,830,13,3,1835.4000005722046,6159354.199999809,9013,VNB,B,11
11,test,4,1.0,2-Back,1.0,m,Thu Sep 11 2025 12:27:48 GMT-0400 (Eastern Daylight Time),6163656.199999809,011_m_f_h_a.png,I,m,1444,14,3,2459.3999996185303,6161196.800000191,9013,VNB,B,12
11,test,4,1.0,2-Back,0.0,m,Thu Sep 11 2025 12:27:48 GMT-0400 (Eastern Daylight Time),6165689.699999809,020_y_f_h_a.png,I,z,1010,15,3,2028.1999998092651,6163661.5,9013,VNB,B,13
12,test,4,0.0,2-Back,1.0,m,Thu Sep 11 2025 12:27:48 GMT-0400 (Eastern Daylight Time),6168273.300000191,005_o_f_n_a.png,I,m,1536,16,3,2568.300000190735,6165705.0,9013,VNB,B,14
13,test,4,0.0,2-Back,1.0,m,Thu Sep 11 2025 12:27:48 GMT-0400 (Eastern Daylight Time),6171006.6000003815,016_y_m_d_a.png,I,m,1690,17,3,2717.7000007629395,6168288.8999996185,9013,VNB,B,15
13,test,4,1.0,2-Back,0.0,m,Thu Sep 11 2025 12:27:48 GMT-0400 (Eastern Daylight Time),6173957.1000003815,007_m_m_d_a.png,I,z,1915,18,3,2934.2000007629395,6171022.8999996185,9013,VNB,B,16
0,test,5,1.0,2-Back,,,Thu Sep 11 2025 12:27:48 GMT-0400 (Eastern Daylight Time),6173957.1000003815,020_y_f_d_a.png,I,space,861,1,3,2934.2000007629395,6171022.8999996185,9013,VNB,B,0
0,test,5,1.0,2-Back,,,Thu Sep 11 2025 12:27:48 GMT-0400 (Eastern Daylight Time),6173957.1000003815,005_o_f_h_a.png,I,space,861,2,3,2934.2000007629395,6171022.8999996185,9013,VNB,B,0
0,test,5,1.0,2-Back,0.0,z,Thu Sep 11 2025 12:27:48 GMT-0400 (Eastern Daylight Time),6182673.199999809,004_o_m_d_a.png,I,m,1469,3,3,2501.0999994277954,6180172.1000003815,9013,VNB,B,1
1,test,5,1.0,2-Back,1.0,m,Thu Sep 11 2025 12:27:48 GMT-0400 (Eastern Daylight Time),6184806.300000191,011_m_f_n_a.png,I,m,1112,4,3,2122.699999809265,6182683.6000003815,9013,VNB,B,2
1,test,5,0.0,2-Back,0.0,m,Thu Sep 11 2025 12:27:48 GMT-0400 (Eastern Daylight Time),6187206.5,007_m_m_h_a.png,I,z,1380,5,3,2388.800000190735,6184817.699999809,9013,VNB,B,3
2,test,5,0.0,2-Back,1.0,z,Thu Sep 11 2025 12:27:48 GMT-0400 (Eastern Daylight Time),6189956.6000003815,020_y_f_n_a.png,I,z,1700,6,3,2732.9000005722046,6187223.699999809,9013,VNB,B,4
3,test,5,0.0,2-Back,1.0,m,Thu Sep 11 2025 12:27:48 GMT-0400 (Eastern Daylight Time),6192806.300000191,005_o_f_d_a.png,I,m,1813,7,3,2834.6000003814697,6189971.699999809,9013,VNB,B,5
4,test,5,0.0,2-Back,1.0,m,Thu Sep 11 2025 12:27:48 GMT-0400 (Eastern Daylight Time),6194973.300000191,004_o_m_h_a.png,I,m,1140,8,3,2152.800000190735,6192820.5,9013,VNB,B,6
4,test,5,1.0,2-Back,0.0,z,Thu Sep 11 2025 12:27:48 GMT-0400 (Eastern Daylight Time),6197089.8999996185,011_m_f_d_a.png,I,m,1085,9,3,2102.5999994277954,6194987.300000191,9013,VNB,B,7
5,test,5,0.0,2-Back,1.0,m,Thu Sep 11 2025 12:27:48 GMT-0400 (Eastern Daylight Time),6199523.0,016_y_m_n_a.png,I,m,1399,10,3,2419.8999996185303,6197103.1000003815,9013,VNB,B,8
5,test,5,0.0,2-Back,0.0,m,Thu Sep 11 2025 12:27:48 GMT-0400 (Eastern Daylight Time),6201623.300000191,007_m_m_n_a.png,I,z,1080,11,3,2090.300000190735,6199533.0,9013,VNB,B,9
6,test,5,0.0,2-Back,1.0,m,Thu Sep 11 2025 12:27:48 GMT-0400 (Eastern Daylight Time),6203956.699999809,020_y_f_h_a.png,I,m,1283,12,3,2315.5,6201641.199999809,9013,VNB,B,10
7,test,5,0.0,2-Back,1.0,m,Thu Sep 11 2025 12:27:48 GMT-0400 (Eastern Daylight Time),6205939.800000191,016_y_m_d_a.png,I,m,949,13,3,1968.6000003814697,6203971.199999809,9013,VNB,B,11
8,test,5,1.0,2-Back,1.0,z,Thu Sep 11 2025 12:27:48 GMT-0400 (Eastern Daylight Time),6208256.6000003815,011_m_f_h_a.png,I,z,1287,14,3,2303.6000003814697,6205953.0,9013,VNB,B,12
9,test,5,0.0,2-Back,1.0,m,Thu Sep 11 2025 12:27:48 GMT-0400 (Eastern Daylight Time),6210339.6000003815,004_o_m_n_a.png,I,m,1050,15,3,2068.0,6208271.6000003815,9013,VNB,B,13
9,test,5,0.0,2-Back,0.0,m,Thu Sep 11 2025 12:27:48 GMT-0400 (Eastern Daylight Time),6212772.8999996185,007_m_m_d_a.png,I,z,1414,16,3,2422.0999994277954,6210350.800000191,9013,VNB,B,14
10,test,5,0.0,2-Back,1.0,z,Thu Sep 11 2025 12:27:48 GMT-0400 (Eastern Daylight Time),6215223.300000191,005_o_f_n_a.png,I,z,1413,17,3,2433.300000190735,6212790.0,9013,VNB,B,15
11,test,5,1.0,2-Back,1.0,m,Thu Sep 11 2025 12:27:48 GMT-0400 (Eastern Daylight Time),6217323.300000191,016_y_m_h_a.png,I,m,1060,18,3,2082.9000005722046,6215240.3999996185,9013,VNB,B,16
